# Input file       =  1179288241.096729_cleaned.dat
# Candidate        =  PSR_0332+5434
# Telescope        =  AR
# Epoch_topo       =  57893.169248804734
# Epoch_bary       =  N/A
# T_sample         =  0.002
# Data Folded      =  7208960
# Data Avg         =  0.0398895564652345
# Data StdDev      =  1.00003583073064 
# Profile Bins     =  512
# Profile Avg      =  561.663875528048 
# Profile StdDev   =  118.663427438496 
# Reduced chi-sqr  =  1.443
# Prob(Noise)      <  1.92e-10   (~6.3 sigma)
# P_topo (ms)      =  714.528230243689  +/- 6.5e-05
# P'_topo (s/s)    =  -0                +/- 3.49e-11
# P''_topo (s/s^2) =  0                 +/- 1.57e-14
# P_bary (ms)      =  N/A
# P'_bary (s/s)    =  N/A
# P''_bary (s/s^2) =  N/A
# P_orb (s)        =  N/A
# asin(i)/c (s)    =  N/A
# eccentricity     =  N/A
# w (rad)          =  N/A
# T_peri           =  N/A
######################################################
   0  1160.806
   1  1107.581
   2  952.0004
   3  698.5208
   4  528.0809
   5  495.3615
   6  463.7518
   7  468.5331
   8  486.0268
   9  612.4584
  10  583.2452
  11  608.0385
  12  706.4594
  13  627.95
  14  589.108
  15  480.7681
  16  422.5828
  17  387.9455
  18  494.1034
  19  570.0435
  20  518.0878
  21  605.0838
  22  725.3648
  23  690.5431
  24  538.3185
  25  384.66
  26  561.2651
  27  629.0862
  28  647.6045
  29  670.5331
  30  540.5809
  31  463.6338
  32  515.3097
  33  498.6358
  34  462.4183
  35  483.1764
  36  587.5429
  37  561.2697
  38  492.4814
  39  463.1569
  40  547.6883
  41  520.6286
  42  525.0103
  43  512.8355
  44  491.9184
  45  551.6441
  46  442.8538
  47  445.6765
  48  469.8723
  49  460.908
  50  433.1915
  51  571.5251
  52  535.6691
  53  536.2334
  54  550.9971
  55  579.2864
  56  517.139
  57  443.357
  58  442.6442
  59  572.2007
  60  595.304
  61  563.7949
  62  565.4443
  63  517.791
  64  426.3311
  65  499.2416
  66  501.0017
  67  590.1344
  68  562.3876
  69  528.0796
  70  565.9384
  71  530.0657
  72  590.2789
  73  650.2405
  74  653.1196
  75  668.8548
  76  627.9094
  77  687.1617
  78  702.2927
  79  566.2345
  80  533.9728
  81  533.5378
  82  528.6329
  83  518.9464
  84  585.4274
  85  614.2606
  86  614.9483
  87  621.8188
  88  548.9332
  89  527.5151
  90  511.033
  91  529.0673
  92  593.7905
  93  644.4316
  94  749.4149
  95  595.6611
  96  480.0001
  97  444.8367
  98  471.2058
  99  404.8131
 100  442.1622
 101  469.3255
 102  534.1643
 103  628.59
 104  489.6118
 105  466.4537
 106  449.7559
 107  468.5387
 108  544.7155
 109  567.9354
 110  543.611
 111  588.3165
 112  610.6434
 113  616.9047
 114  560.5964
 115  444.5273
 116  444.1004
 117  489.5585
 118  588.377
 119  552.3063
 120  512.3085
 121  570.7024
 122  485.612
 123  405.6353
 124  601.2813
 125  596.0094
 126  566.3106
 127  572.5567
 128  579.4837
 129  446.0822
 130  539.9878
 131  562.2288
 132  498.7083
 133  477.1635
 134  528.3179
 135  536.3176
 136  408.6288
 137  299.1697
 138  419.8772
 139  513.584
 140  529.0844
 141  584.9036
 142  585.557
 143  513.8363
 144  514.9402
 145  614.2228
 146  577.0647
 147  542.6846
 148  539.3154
 149  574.5981
 150  589.7686
 151  691.1964
 152  683.1799
 153  629.1991
 154  553.6714
 155  659.2505
 156  557.2874
 157  557.7057
 158  701.7147
 159  718.2977
 160  661.4136
 161  669.5317
 162  499.9662
 163  512.1787
 164  564.0819
 165  557.3306
 166  462.533
 167  666.417
 168  731.5612
 169  597.4803
 170  483.471
 171  454.8573
 172  544.6841
 173  536.0004
 174  662.8167
 175  715.5963
 176  638.3175
 177  565.8839
 178  561.9955
 179  583.0251
 180  526.8326
 181  609.2592
 182  611.235
 183  633.2222
 184  645.5588
 185  676.8269
 186  691.2407
 187  668.6146
 188  708.793
 189  582.7529
 190  563.2892
 191  626.551
 192  661.8585
 193  599.5654
 194  575.7614
 195  559.1597
 196  532.5963
 197  649.5431
 198  672.6818
 199  695.6277
 200  608.0644
 201  593.0167
 202  533.9487
 203  582.343
 204  520.6364
 205  561.2975
 206  638.7169
 207  664.5798
 208  707.1523
 209  802.883
 210  725.1221
 211  529.1575
 212  521.5894
 213  548.0621
 214  498.6169
 215  501.4871
 216  549.8475
 217  519.7162
 218  500.8689
 219  578.0039
 220  591.3821
 221  666.0488
 222  586.1819
 223  573.4174
 224  653.811
 225  781.4155
 226  699.7031
 227  584.1678
 228  487.33
 229  485.627
 230  618.2108
 231  625.0842
 232  605.8708
 233  591.6292
 234  808.3945
 235  713.1028
 236  510.4277
 237  565.5908
 238  562.4537
 239  563.1671
 240  650.9568
 241  693.9971
 242  693.2947
 243  614.1249
 244  577.4062
 245  552.249
 246  546.449
 247  543.477
 248  535.2033
 249  494.3368
 250  457.7065
 251  442.0781
 252  407.5907
 253  436.343
 254  433.4247
 255  481.6986
 256  598.45
 257  548.5391
 258  638.3823
 259  702.7849
 260  559.2798
 261  519.7774
 262  588.9377
 263  633.9659
 264  612.6038
 265  602.3145
 266  622.1287
 267  656.7733
 268  646.0071
 269  460.3978
 270  428.0034
 271  463.1268
 272  484.7479
 273  417.5498
 274  537.7474
 275  597.9736
 276  472.6216
 277  415.3934
 278  463.168
 279  419.2527
 280  424.344
 281  542.7814
 282  561.362
 283  515.2542
 284  670.9502
 285  629.4451
 286  469.4898
 287  490.4645
 288  549.3712
 289  623.4206
 290  609.4629
 291  568.983
 292  607.1756
 293  549.314
 294  517.7037
 295  487.3104
 296  461.5712
 297  528.7331
 298  589.5615
 299  594.2603
 300  553.0657
 301  579.4348
 302  502.9142
 303  425.4114
 304  358.3653
 305  532.5827
 306  715.329
 307  755.5037
 308  682.3031
 309  527.4719
 310  497.2787
 311  471.6881
 312  401.833
 313  480.2044
 314  495.1595
 315  545.4933
 316  543.7683
 317  439.3099
 318  422.7905
 319  414.7755
 320  445.309
 321  520.6101
 322  525.9276
 323  677.4256
 324  709.129
 325  637.0646
 326  670.4141
 327  553.771
 328  471.472
 329  566.8
 330  531.0082
 331  617.3225
 332  674.6232
 333  585.5684
 334  613.7067
 335  571.4283
 336  525.254
 337  507.4154
 338  512.9532
 339  544.7913
 340  685.8782
 341  689.8537
 342  611.4958
 343  558.6827
 344  586.8118
 345  524.9712
 346  459.1599
 347  501.1847
 348  514.5479
 349  571.1276
 350  685.9399
 351  650.0248
 352  498.0571
 353  465.2972
 354  481.2362
 355  430.1766
 356  475.0501
 357  724.9196
 358  697.8385
 359  523.8619
 360  439.244
 361  460.8557
 362  500.6855
 363  467.9226
 364  580.4155
 365  622.4888
 366  576.949
 367  470.5274
 368  504.7057
 369  470.7638
 370  515.7506
 371  484.7216
 372  541.5919
 373  626.0145
 374  547.3777
 375  575.8815
 376  511.8273
 377  638.5886
 378  618.3116
 379  621.67
 380  536.4565
 381  638.7577
 382  708.6592
 383  693.9884
 384  489.0783
 385  400.2702
 386  488.6281
 387  521.0998
 388  552.0983
 389  613.6273
 390  518.4837
 391  602.9545
 392  583.7821
 393  462.7622
 394  409.9608
 395  522.0529
 396  552.4741
 397  516.87
 398  587.3348
 399  552.8163
 400  503.3271
 401  412.8428
 402  386.051
 403  464.6312
 404  582.4137
 405  373.8599
 406  454.913
 407  651.0527
 408  698.5721
 409  577.5705
 410  467.7542
 411  494.0226
 412  491.5017
 413  525.1699
 414  631.7537
 415  612.4534
 416  638.0576
 417  550.3911
 418  524.8104
 419  412.8585
 420  440.5665
 421  595.397
 422  604.4447
 423  650.0073
 424  661.8601
 425  748.3161
 426  684.1465
 427  566.9339
 428  492.9612
 429  578.7063
 430  536.2322
 431  498.8383
 432  587.7973
 433  523.3059
 434  428.8485
 435  461.1186
 436  484.7735
 437  463.0743
 438  457.7582
 439  427.7192
 440  499.029
 441  544.6773
 442  540.1249
 443  453.5753
 444  435.0316
 445  430.9416
 446  467.8194
 447  398.1284
 448  466.0616
 449  466.4539
 450  369.7418
 451  386.8811
 452  417.388
 453  498.598
 454  452.5648
 455  501.3251
 456  456.8816
 457  437.0852
 458  564.8334
 459  568.8267
 460  467.7649
 461  436.5335
 462  481.6523
 463  532.202
 464  572.5386
 465  416.302
 466  491.0732
 467  540.2609
 468  571.7948
 469  533.5146
 470  544.7236
 471  512.7206
 472  499.5122
 473  575.0723
 474  633.2634
 475  617.2856
 476  511.3495
 477  477.7327
 478  596.3652
 479  574.4609
 480  600.196
 481  712.0347
 482  589.5383
 483  467.2672
 484  436.1145
 485  617.5172
 486  664.3911
 487  610.8035
 488  657.9885
 489  714.995
 490  724.9572
 491  692.6685
 492  710.0267
 493  582.0988
 494  603.715
 495  538.6928
 496  520.9571
 497  547.9665
 498  647.1537
 499  700.2935
 500  727.9704
 501  646.5249
 502  589.5197
 503  533.2986
 504  546.3399
 505  691.5546
 506  801.2133
 507  949.1998
 508  922.6559
 509  933.8679
 510  1039.248
 511  1116.641
