# Input file       =  1179288241.096729_cleaned.dat
# Candidate        =  PSR_0332+5434
# Telescope        =  AR
# Epoch_topo       =  57893.169248804734
# Epoch_bary       =  N/A
# T_sample         =  0.002
# Data Folded      =  7208960
# Data Avg         =  0.0398895564652345
# Data StdDev      =  1.00003583073064 
# Profile Bins     =  512
# Profile Avg      =  561.663892882349 
# Profile StdDev   =  118.663427438496 
# Reduced chi-sqr  =  1.449
# Prob(Noise)      <  1.2e-10   (~6.3 sigma)
# P_topo (ms)      =  714.528231569577  +/- 6.51e-05
# P'_topo (s/s)    =  -0                +/- 3.5e-11
# P''_topo (s/s^2) =  0                 +/- 1.57e-14
# P_bary (ms)      =  N/A
# P'_bary (s/s)    =  N/A
# P''_bary (s/s^2) =  N/A
# P_orb (s)        =  N/A
# asin(i)/c (s)    =  N/A
# eccentricity     =  N/A
# w (rad)          =  N/A
# T_peri           =  N/A
######################################################
   0  645.3676
   1  656.9855
   2  657.45
   3  624.0898
   4  741.8734
   5  626.0134
   6  543.5912
   7  528.6089
   8  544.2372
   9  505.261
  10  541.1868
  11  622.3983
  12  607.1827
  13  627.6133
  14  582.0556
  15  536.2977
  16  531.0125
  17  501.5378
  18  563.5258
  19  604.511
  20  717.3958
  21  691.4671
  22  530.6149
  23  443.3234
  24  469.6411
  25  433.2972
  26  422.9241
  27  454.6091
  28  486.4998
  29  598.183
  30  581.1042
  31  447.0117
  32  476.0595
  33  430.4704
  34  520.4267
  35  562.1086
  36  554.4742
  37  566.1689
  38  596.2264
  39  618.2347
  40  601.1532
  41  499.019
  42  441.0257
  43  450.463
  44  532.8192
  45  591.5292
  46  520.8445
  47  550.4147
  48  550
  49  409.4157
  50  497.6208
  51  630.3312
  52  567.3544
  53  561.2735
  54  589.5639
  55  522.253
  56  446.2394
  57  589.9969
  58  536.1591
  59  479.2758
  60  493.7684
  61  536.2261
  62  497.2941
  63  332.303
  64  336.6451
  65  476.8745
  66  539.7414
  67  541.6426
  68  612.9074
  69  540.9503
  70  502.151
  71  569.035
  72  595.8898
  73  571.2947
  74  525.5719
  75  566.4206
  76  566.1388
  77  641.1974
  78  685.7516
  79  673.0714
  80  565.8643
  81  614.3234
  82  632.3541
  83  524.0464
  84  629.0071
  85  739.2047
  86  680.6862
  87  664.7883
  88  609.2635
  89  466.3616
  90  555.4573
  91  569.751
  92  487.6202
  93  536.4877
  94  740.4946
  95  669.0081
  96  540.3165
  97  456.2066
  98  499.1895
  99  545.8967
 100  583.5981
 101  703.5566
 102  682.6682
 103  599.2867
 104  542.1406
 105  591.3575
 106  547.9377
 107  559.1514
 108  622.4915
 109  613.2022
 110  654.2488
 111  651.688
 112  691.8286
 113  662.2724
 114  713.9227
 115  653.063
 116  548.7424
 117  586.465
 118  659.3922
 119  646.1473
 120  565.5152
 121  587.0283
 122  518.6287
 123  598.3423
 124  673.9239
 125  691.2593
 126  656.2543
 127  590.1646
 128  573.8192
 129  540.2102
 130  571.7886
 131  504.7307
 132  611.7547
 133  664.5741
 134  666.989
 135  769.2565
 136  785.4379
 137  639.9321
 138  485.6546
 139  549.806
 140  524.5107
 141  484.1438
 142  522.7416
 143  547.002
 144  491.4993
 145  560.4643
 146  558.0757
 147  642.2459
 148  642.3642
 149  575.2562
 150  584.1166
 151  731.6364
 152  762.5972
 153  645.6028
 154  535.1403
 155  453.6492
 156  547.8655
 157  630.8817
 158  642.2967
 159  576.1459
 160  691.8382
 161  807.5751
 162  582.5809
 163  519.5995
 164  595.7894
 165  532.8041
 166  617.3727
 167  657.6219
 168  715.0524
 169  654.5276
 170  590.2893
 171  567.3289
 172  552.1667
 173  550.8113
 174  545.3173
 175  521.7983
 176  465.8953
 177  435.6928
 178  434.9675
 179  411.9305
 180  451.5819
 181  413.5357
 182  571.9994
 183  573.04
 184  581.0171
 185  687.957
 186  654.2444
 187  505.9066
 188  553.7928
 189  609.9791
 190  624.2018
 191  615.2404
 192  610.869
 193  626.4974
 194  674.5468
 195  560.163
 196  413.0777
 197  452.8699
 198  478.8035
 199  443.767
 200  457.092
 201  595.1572
 202  557.7728
 203  430.4508
 204  435.6664
 205  443.3362
 206  410.4512
 207  474.2549
 208  578.367
 209  514.8942
 210  577.6776
 211  709.7364
 212  524.7938
 213  475.8308
 214  496.5355
 215  601.5901
 216  620.5389
 217  585.1688
 218  597.3373
 219  582.2186
 220  537.4503
 221  493.129
 222  481.0932
 223  471.2454
 224  577.2575
 225  590.2016
 226  589.1193
 227  542.1427
 228  573.4866
 229  440.3983
 230  403.0186
 231  399.317
 232  638.174
 233  738.0134
 234  756.5345
 235  603.8316
 236  502.1367
 237  486.0728
 238  433.7111
 239  435.4922
 240  493.9247
 241  514.673
 242  547.0889
 243  508.8097
 244  404.6016
 245  430.5495
 246  417.0313
 247  484.5979
 248  515.929
 249  591.4885
 250  721.1277
 251  662.6759
 252  647.5029
 253  653.5778
 254  476.7064
 255  523.8456
 256  554.2358
 257  551.6039
 258  668.2767
 259  616.8576
 260  601.6281
 261  610.9698
 262  536.1817
 263  517.8713
 264  490.9225
 265  541.7529
 266  591.3726
 267  711.5801
 268  656.3542
 269  580.899
 270  574.9233
 271  561.0355
 272  487.5666
 273  471.6703
 274  522.452
 275  514.9084
 276  646.2905
 277  686.4832
 278  586.2322
 279  458.6706
 280  468.7707
 281  472.3163
 282  415.1723
 283  608.7183
 284  734.6086
 285  629.4058
 286  456.0354
 287  439.2117
 288  488.7667
 289  465.8018
 290  529.3699
 291  608.2775
 292  625.7374
 293  503.1896
 294  483.71
 295  495.0923
 296  486.9853
 297  519.7643
 298  475.9422
 299  608.3966
 300  598.5076
 301  541.9944
 302  548.2667
 303  549.2428
 304  661.7912
 305  626.3257
 306  570.0279
 307  573.8264
 308  672.0427
 309  740.9535
 310  583.3571
 311  443.9322
 312  408.573
 313  549.3934
 314  487.7762
 315  613.9691
 316  550.3948
 317  565.0966
 318  607.2131
 319  533.4
 320  400.05
 321  460.7805
 322  551.0308
 323  535.3745
 324  553.4332
 325  583.2419
 326  529.7746
 327  444.1941
 328  401.1588
 329  404.7495
 330  549.6029
 331  511.0854
 332  343.572
 333  578.403
 334  684.9449
 335  653.2266
 336  507.3012
 337  462.3543
 338  513.4378
 339  483.6605
 340  604.2721
 341  615.0992
 342  641.3957
 343  592.4147
 344  532.1306
 345  480.7138
 346  391.3634
 347  539.8895
 348  592.5786
 349  625.001
 350  626.0522
 351  735.1282
 352  732.4026
 353  639.1282
 354  509.3531
 355  523.569
 356  588.8276
 357  476.5632
 358  548.3655
 359  573.3775
 360  474.2353
 361  438.8906
 362  481.3027
 363  475.2393
 364  459.5293
 365  429.5947
 366  462.0944
 367  520.7904
 368  567.0316
 369  482.821
 370  447.1654
 371  415.2433
 372  468.5241
 373  428.461
 374  413.3186
 375  490.3537
 376  414.274
 377  375.7144
 378  397.7982
 379  466.9424
 380  471.3646
 381  466.9535
 382  496.9809
 383  433.8955
 384  487.1917
 385  595.6696
 386  508.2032
 387  447.5184
 388  445.513
 389  507.468
 390  585.1906
 391  488.0834
 392  421.3315
 393  517.332
 394  571.9418
 395  556.243
 396  527.4212
 397  538.8721
 398  511.9858
 399  533.191
 400  600.5219
 401  624.8135
 402  582.4321
 403  459.8611
 404  545.2476
 405  579.7464
 406  590.0251
 407  667.8985
 408  690.0911
 409  497.5973
 410  441.3416
 411  491.8829
 412  686.4271
 413  629.0085
 414  624.8213
 415  695.1157
 416  731.8835
 417  701.6698
 418  715.861
 419  649.5083
 420  566.5363
 421  591.469
 422  504.6694
 423  539.4207
 424  595.6252
 425  672.7222
 426  734.1448
 427  667.5409
 428  636.1406
 429  543.936
 430  540.2695
 431  591.711
 432  754.5737
 433  868.7944
 434  972.6884
 435  911.5155
 436  981.0385
 437  1085.201
 438  1132.685
 439  1158.078
 440  1040.86
 441  838.374
 442  594.0229
 443  493.3975
 444  493.8956
 445  458.8499
 446  478.2107
 447  530.8907
 448  630.1323
 449  562.817
 450  680.653
 451  661.3793
 452  620.208
 453  539.4869
 454  440.0158
 455  408.4411
 456  402.4514
 457  569.6341
 458  529.8056
 459  560.5225
 460  669.5375
 461  722.9595
 462  629.8384
 463  437.3581
 464  438.6167
 465  627.7769
 466  623.7733
 467  676.8641
 468  626.6992
 469  473.0065
 470  488.1974
 471  511.8327
 472  496.7425
 473  455.89
 474  537.3298
 475  575.9984
 476  537.0364
 477  451.1815
 478  522.8177
 479  516.5327
 480  543.7493
 481  515.1531
 482  495.201
 483  531.7648
 484  520.4265
 485  427.3244
 486  444.5351
 487  481.8337
 488  408.6092
 489  525.6573
 490  543.5695
 491  540.8602
 492  540.1393
 493  574.8529
 494  550.9065
 495  492.0253
 496  418.9391
 497  501.7099
 498  603.7705
 499  572.1732
 500  571.5801
 501  562.9071
 502  452.7425
 503  459.0689
 504  501.7321
 505  531.3921
 506  607.577
 507  524.4113
 508  553.7725
 509  546.5212
 510  528.8466
 511  652.4957
