# Input file       =  1179115899.100237_cleaned.dat
# Candidate        =  PSR_0332+5434
# Telescope        =  AR
# Epoch_topo       =  57891.174549771262
# Epoch_bary       =  N/A
# T_sample         =  0.002
# Data Folded      =  7208960
# Data Avg         =  0.0403065524261753
# Data StdDev      =  1.00003524269306 
# Profile Bins     =  512
# Profile Avg      =  567.506148902826 
# Profile StdDev   =  118.663357662442 
# Reduced chi-sqr  =  1.657
# Prob(Noise)      <  5.16e-19   (~8.8 sigma)
# P_topo (ms)      =  714.53018222865   +/- 4.1e-05
# P'_topo (s/s)    =  -0                +/- 2.2e-11
# P''_topo (s/s^2) =  0                 +/- 9.9e-15
# P_bary (ms)      =  N/A
# P'_bary (s/s)    =  N/A
# P''_bary (s/s^2) =  N/A
# P_orb (s)        =  N/A
# asin(i)/c (s)    =  N/A
# eccentricity     =  N/A
# w (rad)          =  N/A
# T_peri           =  N/A
######################################################
   0  573.0638
   1  671.3266
   2  551.4607
   3  418.9615
   4  374.3612
   5  450.2131
   6  488.389
   7  440.516
   8  513.3213
   9  458.6569
  10  516.5042
  11  494.5619
  12  511.6626
  13  496.2967
  14  581.1465
  15  570.5573
  16  585.7012
  17  697.8102
  18  581.9899
  19  524.2087
  20  438.8073
  21  416.0206
  22  389.4662
  23  456.7718
  24  646.3735
  25  591.8472
  26  604.3683
  27  513.4413
  28  522.1066
  29  533.289
  30  535.4816
  31  585.6596
  32  532.9288
  33  629.3296
  34  615.2725
  35  476.9376
  36  447.6839
  37  414.2874
  38  458.1649
  39  559.7019
  40  569.4207
  41  563.3204
  42  552.5942
  43  646.2167
  44  526.6994
  45  589.3256
  46  580.5124
  47  591.5735
  48  550.8755
  49  539.2851
  50  566.222
  51  532.9517
  52  522.2963
  53  576.0292
  54  570.1312
  55  635.9507
  56  575.9102
  57  581.6163
  58  596.8329
  59  602.333
  60  591.1788
  61  623.1664
  62  606.9488
  63  646.8136
  64  681.0384
  65  645.1712
  66  733.7699
  67  731.7517
  68  680.9888
  69  602.2639
  70  684.7629
  71  699.8087
  72  695.6749
  73  732.1268
  74  679.6098
  75  657.9163
  76  689.6647
  77  700.4704
  78  721.2024
  79  656.7217
  80  647.6315
  81  617.7438
  82  719.472
  83  680.2885
  84  664.5429
  85  628.6569
  86  643.1089
  87  591.6495
  88  526.0496
  89  537.8184
  90  503.0898
  91  610.7456
  92  763.8698
  93  574.3684
  94  535.288
  95  568.9101
  96  447.4472
  97  437.9523
  98  538.4399
  99  633.5798
 100  651.3656
 101  631.3303
 102  611.6011
 103  547.3962
 104  506.0245
 105  570.0883
 106  559.9465
 107  724.5368
 108  758.2515
 109  780.4115
 110  722.7672
 111  595.7665
 112  559.9989
 113  428.1893
 114  492.2456
 115  651.4839
 116  678.1383
 117  733.5336
 118  549.4301
 119  382.8798
 120  359.0747
 121  368.9423
 122  537.9371
 123  526.798
 124  608.7163
 125  631.2776
 126  560.309
 127  585.3928
 128  565.637
 129  447.5555
 130  520.6978
 131  650.3615
 132  609.9063
 133  561.5631
 134  528.4974
 135  525.4556
 136  472.7746
 137  470.1498
 138  491.3558
 139  641.5512
 140  706.5914
 141  779.4232
 142  644.0218
 143  634.1561
 144  645.8953
 145  564.0779
 146  598.1954
 147  599.3622
 148  637.7723
 149  618.7584
 150  679.6758
 151  722.8501
 152  458.4785
 153  431.2406
 154  550.937
 155  671.611
 156  724.8218
 157  708.7595
 158  759.3978
 159  745.7203
 160  573.8825
 161  696.4575
 162  704.024
 163  840.6954
 164  952.725
 165  1123.94
 166  1220.09
 167  1021.743
 168  869.5621
 169  728.485
 170  589.9958
 171  635.6227
 172  535.6815
 173  643.0911
 174  618.4957
 175  643.2234
 176  602.2569
 177  623.2404
 178  568.4364
 179  486.6741
 180  510.1559
 181  683.5201
 182  694.3214
 183  687.3966
 184  657.6063
 185  592.4221
 186  539.7359
 187  575.9481
 188  567.8672
 189  688.0765
 190  608.6032
 191  572.6795
 192  656.9108
 193  680.8483
 194  675.8581
 195  590.8608
 196  559.0408
 197  636.6557
 198  610.8907
 199  690.0467
 200  585.9269
 201  473.9914
 202  505.6051
 203  565.2825
 204  642.3436
 205  666.4407
 206  572.6066
 207  663.1544
 208  622.7646
 209  557.8804
 210  512.361
 211  560.8242
 212  629.8332
 213  736.9417
 214  686.6876
 215  676.1161
 216  652.4066
 217  470.6427
 218  428.2621
 219  511.7275
 220  554.4144
 221  568.5367
 222  611.8095
 223  559.78
 224  633.7498
 225  554.1053
 226  603.4373
 227  508.6122
 228  560.1425
 229  519.3205
 230  478.845
 231  618.1739
 232  507.1005
 233  431.5912
 234  352.0528
 235  483.2834
 236  328.5509
 237  236.2589
 238  267.3362
 239  401.0368
 240  477.0548
 241  555.6896
 242  544.5475
 243  443.4666
 244  447.9725
 245  451.7412
 246  514.4409
 247  673.0346
 248  572.014
 249  555.7759
 250  489.2934
 251  465.9265
 252  367.4628
 253  418.563
 254  541.4871
 255  593.7775
 256  598.4249
 257  534.8309
 258  381.1414
 259  430.076
 260  459.8223
 261  427.1103
 262  377.5358
 263  573.3703
 264  741.2664
 265  648.8361
 266  652.1727
 267  596.797
 268  566.2309
 269  515.0355
 270  558.5491
 271  641.726
 272  673.5977
 273  780.1088
 274  813.4051
 275  651.2758
 276  613.8549
 277  540.4745
 278  556.7255
 279  512.1651
 280  606.1577
 281  736.7519
 282  671.5828
 283  486.0142
 284  522.3562
 285  648.1122
 286  564.7606
 287  551.5467
 288  714.4318
 289  713.961
 290  667.7769
 291  716.6512
 292  585.3192
 293  451.8543
 294  596.4643
 295  617.4434
 296  510.6051
 297  605.0973
 298  729.6757
 299  739.6772
 300  645.4741
 301  630.741
 302  481.1578
 303  459.4468
 304  603.755
 305  661.6098
 306  646.7386
 307  571.3301
 308  591.5739
 309  577.4014
 310  527.7019
 311  578.3776
 312  512.2711
 313  621.3342
 314  627.4553
 315  516.8922
 316  443.5676
 317  507.2333
 318  471.4416
 319  401.8847
 320  478.8025
 321  580.7361
 322  712.8183
 323  668.7076
 324  532.1479
 325  562.7071
 326  614.5112
 327  606.8716
 328  680.6379
 329  788.9026
 330  707.1452
 331  583.2543
 332  568.0258
 333  473.0571
 334  489.6131
 335  514.9055
 336  496.2298
 337  485.6704
 338  676.7502
 339  752.5847
 340  629.2293
 341  508.0032
 342  557.3201
 343  587.2843
 344  504.4174
 345  557.6044
 346  656.1005
 347  664.9134
 348  703.708
 349  662.4849
 350  601.3815
 351  577.1877
 352  706.2877
 353  608.9332
 354  647.6204
 355  590.0642
 356  695.0901
 357  746.2557
 358  615.4265
 359  554.7616
 360  526.3735
 361  554.8613
 362  567.9729
 363  638.5344
 364  635.8218
 365  585.5333
 366  555.772
 367  509.1627
 368  495.9597
 369  518.8376
 370  539.5542
 371  609.5089
 372  738.4337
 373  708.7634
 374  657.0873
 375  659.9901
 376  609.9131
 377  661.5183
 378  706.3467
 379  679.5392
 380  670.8433
 381  689.9666
 382  764.5191
 383  616.2662
 384  548.8193
 385  503.2162
 386  439.571
 387  557.3646
 388  640.4332
 389  518.4899
 390  596.1006
 391  606.575
 392  518.9836
 393  386.2208
 394  393.0907
 395  490.5694
 396  594.8333
 397  513.2044
 398  454.5199
 399  502.7205
 400  505.7498
 401  564.0988
 402  515.723
 403  525.7866
 404  626.9363
 405  598.0618
 406  537.8429
 407  475.7748
 408  493.157
 409  580.9282
 410  579.0421
 411  515.7697
 412  521.4161
 413  639.1878
 414  701.7113
 415  580.6816
 416  469.7066
 417  449.9576
 418  521.0607
 419  551.3932
 420  540.3929
 421  550.7284
 422  581.939
 423  655.5276
 424  591.4127
 425  576.9995
 426  553.013
 427  523.751
 428  582.1177
 429  630.4489
 430  634.0536
 431  507.9214
 432  453.3282
 433  468.4315
 434  461.5123
 435  426.6787
 436  427.2951
 437  660.5309
 438  681.9081
 439  484.2552
 440  435.327
 441  480.133
 442  481.9235
 443  461.9284
 444  452.3843
 445  498.2155
 446  540.5659
 447  597.4083
 448  462.6631
 449  327.5431
 450  265.6313
 451  250.1665
 452  272.0327
 453  344.3435
 454  455.0744
 455  601.9478
 456  543.8691
 457  482.0319
 458  444.3299
 459  324.1652
 460  325.4239
 461  546.5263
 462  552.4126
 463  470.8534
 464  544.0534
 465  405.4435
 466  368.6463
 467  374.4308
 468  479.858
 469  428.9019
 470  524.4918
 471  631.3983
 472  606.4664
 473  515.1282
 474  492.4307
 475  449.2748
 476  397.5011
 477  471.8503
 478  508.4572
 479  570.4667
 480  631.2995
 481  440.1398
 482  428.9214
 483  489.508
 484  542.5294
 485  416.4223
 486  423.3792
 487  454.3505
 488  471.8448
 489  482.0751
 490  528.7693
 491  546.5085
 492  605.903
 493  519.5605
 494  402.5441
 495  426.8499
 496  471.2367
 497  566.0055
 498  491.0597
 499  420.8605
 500  324.5331
 501  362.473
 502  427.9326
 503  473.4756
 504  457.1173
 505  527.9897
 506  540.5089
 507  552.0991
 508  444.3996
 509  406.5796
 510  424.7328
 511  536.0177
