# Input file       =  1180351768.120151_cleaned.dat
# Candidate        =  PSR_0332+5434
# Telescope        =  AR
# Epoch_topo       =  57905.478589353603
# Epoch_bary       =  N/A
# T_sample         =  0.002
# Data Folded      =  7340032
# Data Avg         =  0.0680138343440311
# Data StdDev      =  1.00035018684577 
# Profile Bins     =  512
# Profile Avg      =  975.077735290487 
# Profile StdDev   =  119.774965311109 
# Reduced chi-sqr  =  1.244
# Prob(Noise)      <  0.000132   (~3.6 sigma)
# P_topo (ms)      =  714.516448912061  +/- 0.000166
# P'_topo (s/s)    =  -0                +/- 8.73e-11
# P''_topo (s/s^2) =  0                 +/- 3.86e-14
# P_bary (ms)      =  N/A
# P'_bary (s/s)    =  N/A
# P''_bary (s/s^2) =  N/A
# P_orb (s)        =  N/A
# asin(i)/c (s)    =  N/A
# eccentricity     =  N/A
# w (rad)          =  N/A
# T_peri           =  N/A
######################################################
   0  1093.076
   1  1007.282
   2  1066.326
   3  1028.617
   4  1116.832
   5  950.9891
   6  952.3227
   7  1113.355
   8  1088.296
   9  1060.838
  10  1007.185
  11  977.0274
  12  1066.663
  13  1059.716
  14  1017.868
  15  1058.982
  16  1032.823
  17  1011.117
  18  904.2887
  19  921.512
  20  893.8208
  21  906.5925
  22  956.9942
  23  840.265
  24  901.1041
  25  957.1748
  26  1013.627
  27  1045.267
  28  962.7503
  29  948.9755
  30  818.4119
  31  857.9415
  32  1019.173
  33  1040.839
  34  908.5565
  35  962.9412
  36  877.6878
  37  779.8529
  38  758.2204
  39  907.1755
  40  984.6179
  41  879.623
  42  922.7033
  43  989.0245
  44  969.6033
  45  1010.279
  46  937.2509
  47  1026.971
  48  1070.237
  49  1056.216
  50  1107.073
  51  1038.287
  52  1008.416
  53  1071.516
  54  995.3726
  55  996.2819
  56  914.5428
  57  1017.083
  58  1066.223
  59  1123.972
  60  1025.799
  61  852.6333
  62  869.3275
  63  823.7844
  64  881.1347
  65  814.5004
  66  929.5932
  67  967.6265
  68  1046.966
  69  989.5916
  70  1056.617
  71  1025.439
  72  963.1583
  73  945.3748
  74  771.5298
  75  830.77
  76  921.736
  77  943.1931
  78  976.7156
  79  958.0711
  80  907.3522
  81  887.0732
  82  1006.897
  83  995.7744
  84  888.5515
  85  950.0301
  86  1013.009
  87  963.3132
  88  1128.773
  89  984.9984
  90  1050.135
  91  993.062
  92  1029.777
  93  1128.9
  94  1087.039
  95  1140.39
  96  1158.88
  97  1191.38
  98  1025.04
  99  1061.529
 100  1101.315
 101  1091.086
 102  1049.855
 103  1007.454
 104  1004.218
 105  1132.729
 106  1095.925
 107  1058.563
 108  1047.856
 109  989.1464
 110  922.7693
 111  979.8504
 112  1104.22
 113  1009.231
 114  1011.606
 115  955.0322
 116  907.379
 117  974.1826
 118  998.1298
 119  1059.133
 120  1005.323
 121  935.8336
 122  909.6944
 123  921.0008
 124  1051.44
 125  944.2313
 126  981.2993
 127  1114.493
 128  960.0162
 129  994.057
 130  947.8165
 131  964.3588
 132  1023.756
 133  1013.928
 134  1103.075
 135  1087.142
 136  1053.421
 137  1043
 138  1182.214
 139  1190.706
 140  1162.228
 141  1103.992
 142  991.1805
 143  947.5876
 144  909.6191
 145  962.7659
 146  935.3794
 147  946.0728
 148  998.6678
 149  958.0249
 150  823.6697
 151  821.6078
 152  836.688
 153  959.7645
 154  1005.055
 155  1018.628
 156  1006.691
 157  931.8041
 158  859.0323
 159  843.473
 160  940.7133
 161  822.2929
 162  753.5596
 163  898.9576
 164  865.6727
 165  893.1417
 166  908.5212
 167  848.215
 168  871.192
 169  914.6428
 170  986.6112
 171  1032.574
 172  1015.725
 173  1000.803
 174  985.2538
 175  920.8629
 176  966.6254
 177  883.9691
 178  993.6382
 179  1111.546
 180  1165.076
 181  1081.298
 182  1018.619
 183  889.8033
 184  895.3942
 185  885.7327
 186  950.0189
 187  1028.651
 188  1169.202
 189  974.2745
 190  983.8766
 191  925.1728
 192  1034.826
 193  1226.5
 194  1268.892
 195  1438.374
 196  1427.174
 197  1184.547
 198  1061.4
 199  989.4516
 200  733.1264
 201  833.1647
 202  841.3955
 203  859.577
 204  1007.766
 205  1061.227
 206  1025.783
 207  963.699
 208  867.2932
 209  974.5819
 210  1065.866
 211  943.8444
 212  1036.666
 213  1045.813
 214  922.7766
 215  924.811
 216  1012.818
 217  986.4924
 218  906.7747
 219  970.1572
 220  1046.696
 221  949.3621
 222  991.7294
 223  1013.895
 224  1027.001
 225  956.286
 226  958.8367
 227  911.771
 228  900.7945
 229  987.4279
 230  1044.862
 231  1001.869
 232  910.58
 233  900.2122
 234  956.5557
 235  981.9843
 236  1004.983
 237  1073.089
 238  1008.858
 239  927.0526
 240  927.7996
 241  783.7252
 242  864.6474
 243  976.1273
 244  933.2084
 245  831.8142
 246  885.2745
 247  901.0054
 248  1014.587
 249  903.5855
 250  910.9092
 251  879.0757
 252  733.5958
 253  876.8967
 254  936.9684
 255  866.845
 256  986.564
 257  1010.491
 258  951.0364
 259  1012.134
 260  1113.503
 261  1252.266
 262  1189.906
 263  1230.493
 264  1129.408
 265  1060.771
 266  1070.234
 267  1069.373
 268  1044.568
 269  934.3063
 270  939.7482
 271  934.0446
 272  921.9936
 273  923.9442
 274  1000.654
 275  915.5818
 276  921.6831
 277  961.5317
 278  921.7567
 279  1008.298
 280  965.8
 281  947.618
 282  1044.962
 283  969.9485
 284  891.0081
 285  795.2014
 286  886.7706
 287  990.4243
 288  995.7934
 289  921.3401
 290  955.7451
 291  902.0064
 292  1076.699
 293  981.1168
 294  1008.77
 295  951.3036
 296  895.8751
 297  900.0067
 298  959.4646
 299  1034.584
 300  1085.655
 301  1022.601
 302  1105.659
 303  1112.292
 304  957.5061
 305  958.131
 306  1070.872
 307  1147.278
 308  1049.131
 309  987.3884
 310  993.4927
 311  992.1679
 312  995.9305
 313  952.7705
 314  1096.921
 315  1078.519
 316  977.245
 317  1047.549
 318  966.8898
 319  943.5007
 320  889.2096
 321  942.9887
 322  937.9899
 323  917.417
 324  986.8478
 325  920.7675
 326  1043.339
 327  1100.633
 328  1020.976
 329  965.8423
 330  967.5651
 331  894.0142
 332  808.5209
 333  879.7111
 334  850.2856
 335  863.5668
 336  839.7925
 337  910.4136
 338  776.8115
 339  789.4259
 340  733.0602
 341  814.223
 342  912.0714
 343  914.0016
 344  873.4962
 345  841.0392
 346  871.7177
 347  886.8851
 348  1011.942
 349  1036.792
 350  993.4818
 351  893.2603
 352  914.6418
 353  903.1545
 354  873.4467
 355  861.0419
 356  849.7729
 357  876.7726
 358  889.6774
 359  929.143
 360  996.9193
 361  983.8187
 362  1035.605
 363  920.4
 364  874.2527
 365  1025.633
 366  999.7012
 367  861.6341
 368  935.7046
 369  909.0519
 370  849.8466
 371  840.5609
 372  868.9839
 373  980.2645
 374  990.3505
 375  1035.9
 376  1026.493
 377  907.8458
 378  853.8893
 379  792.8646
 380  1008.041
 381  1029.933
 382  1116.163
 383  1039.098
 384  1056.583
 385  926.0613
 386  909.8377
 387  972.7178
 388  959.0816
 389  1083.374
 390  1062.325
 391  1010.735
 392  1060.976
 393  1102.285
 394  1062.555
 395  998.4935
 396  1007.501
 397  922.2538
 398  975.2296
 399  1073.892
 400  1079.251
 401  977.5714
 402  948.885
 403  906.7101
 404  962.2766
 405  1016.493
 406  940.45
 407  909.0239
 408  921.6055
 409  1042.149
 410  1053.35
 411  1014.668
 412  980.3969
 413  984.3302
 414  839.4917
 415  793.476
 416  870.3589
 417  1083.57
 418  987.6917
 419  897.5584
 420  875.9343
 421  922.1749
 422  947.5025
 423  1046.517
 424  1066.442
 425  955.7484
 426  1090.451
 427  935.901
 428  845.1932
 429  960.7936
 430  1006.231
 431  1075.945
 432  1073.885
 433  1139.16
 434  1150.585
 435  953.3199
 436  1057.644
 437  1192.241
 438  1056.615
 439  1033.843
 440  1165.899
 441  1145.153
 442  972.6082
 443  893.1553
 444  996.9205
 445  1040.736
 446  1056.753
 447  1041.986
 448  979.517
 449  898.6058
 450  819.6044
 451  839.8765
 452  859.5809
 453  907.6541
 454  840.5915
 455  677.0989
 456  593.3563
 457  771.8901
 458  950.7521
 459  1017.854
 460  921.7925
 461  855.4634
 462  827.203
 463  854.5038
 464  1075.502
 465  991.8226
 466  941.7197
 467  965.3878
 468  893.0187
 469  895.434
 470  894.866
 471  952.7318
 472  948.2512
 473  867.9628
 474  959.0735
 475  942.1493
 476  1027.094
 477  1049.387
 478  1025.696
 479  1041.568
 480  1026.265
 481  1128.623
 482  1180.169
 483  982.4483
 484  1083.414
 485  1029.095
 486  1047.657
 487  1000.68
 488  983.3365
 489  1003.975
 490  854.4626
 491  827.0746
 492  867.1005
 493  913.0801
 494  972.5251
 495  991.2927
 496  1010.19
 497  1066.535
 498  1076.672
 499  1019.462
 500  1097.122
 501  956.5157
 502  948.2281
 503  986.4046
 504  1010.919
 505  858.5974
 506  927.2177
 507  937.6431
 508  868.3255
 509  998.9216
 510  996.5724
 511  1032.796
