# Input file       =  1180351768.120151_cleaned.dat
# Candidate        =  PSR_0332+5434
# Telescope        =  AR
# Epoch_topo       =  57905.478589353603
# Epoch_bary       =  N/A
# T_sample         =  0.002
# Data Folded      =  7340032
# Data Avg         =  0.0680138343440311
# Data StdDev      =  1.00035018684577 
# Profile Bins     =  512
# Profile Avg      =  975.077752234488 
# Profile StdDev   =  119.774965311109 
# Reduced chi-sqr  =  1.232
# Prob(Noise)      <  0.000253   (~3.5 sigma)
# P_topo (ms)      =  714.516447641165  +/- 0.000163
# P'_topo (s/s)    =  -0                +/- 8.61e-11
# P''_topo (s/s^2) =  0                 +/- 3.8e-14
# P_bary (ms)      =  N/A
# P'_bary (s/s)    =  N/A
# P''_bary (s/s^2) =  N/A
# P_orb (s)        =  N/A
# asin(i)/c (s)    =  N/A
# eccentricity     =  N/A
# w (rad)          =  N/A
# T_peri           =  N/A
######################################################
   0  1362.483
   1  1493.045
   2  1264.94
   3  1092.529
   4  1032.512
   5  814.3218
   6  770.0425
   7  869.8292
   8  821.3704
   9  960.8655
  10  1046.34
  11  1054.161
  12  983.4243
  13  905.2133
  14  897.8813
  15  1069.283
  16  971.3243
  17  990.2911
  18  1078.874
  19  963.501
  20  894.2683
  21  997.0828
  22  1002.432
  23  945.605
  24  899.0341
  25  1072.623
  26  959.7659
  27  990.9332
  28  986.0364
  29  1049.135
  30  971.8683
  31  953.5438
  32  935.413
  33  890.5518
  34  952.7867
  35  1028.391
  36  1024.988
  37  946.5107
  38  886.7203
  39  935.8844
  40  981.7776
  41  998.0488
  42  1046.496
  43  1044.037
  44  938.3907
  45  941.3571
  46  838.8311
  47  811.2972
  48  938.7338
  49  968.7429
  50  858.6071
  51  860.97
  52  898.3676
  53  980.777
  54  958.0118
  55  893.9363
  56  910.2935
  57  772.9019
  58  796.8282
  59  946.3934
  60  876.6447
  61  925.7224
  62  1018.521
  63  963.4913
  64  994.0098
  65  1057.375
  66  1235.401
  67  1210.893
  68  1203.549
  69  1186.396
  70  1067.119
  71  1079.565
  72  1068.757
  73  1071.162
  74  954.5814
  75  935.8181
  76  928.0404
  77  950.3586
  78  879.5162
  79  1007.435
  80  930.0536
  81  925.9703
  82  948.8785
  83  929.2839
  84  977.9919
  85  987.7368
  86  935.2411
  87  1018.484
  88  1025.719
  89  914.092
  90  817.7343
  91  839.5353
  92  940.2985
  93  1035.34
  94  926.1091
  95  952.3818
  96  913.4816
  97  1000.23
  98  1048.007
  99  982.1971
 100  994.6497
 101  903.8487
 102  873.3785
 103  948.5735
 104  984.6866
 105  1108.572
 106  1032.441
 107  1067.041
 108  1125.822
 109  1007.23
 110  952.1306
 111  1013.688
 112  1147.283
 113  1077.907
 114  1017.554
 115  973.528
 116  1002.698
 117  984.4815
 118  981.9136
 119  1014.253
 120  1139.549
 121  980.7266
 122  1038.29
 123  985.307
 124  956.1597
 125  895.8135
 126  924.9829
 127  948.5255
 128  906.8046
 129  976.7213
 130  952.3586
 131  977.0057
 132  1108.004
 133  1045.788
 134  983.5561
 135  951.3975
 136  948.0773
 137  812.9193
 138  875.3508
 139  852.7009
 140  856.1819
 141  834.6376
 142  900.6932
 143  824.979
 144  790.9205
 145  733.264
 146  781.1311
 147  881.8247
 148  934.0096
 149  887.7812
 150  839.0827
 151  857.8866
 152  875.1114
 153  970.8678
 154  1033.071
 155  1022.33
 156  931.932
 157  896.9243
 158  920.8444
 159  865.4109
 160  873.1035
 161  832.1624
 162  873.5184
 163  882.0814
 164  930.0021
 165  975.7677
 166  986.7415
 167  1015.686
 168  972.7441
 169  871.1459
 170  971.7885
 171  1042.705
 172  900.6695
 173  881.9333
 174  940.949
 175  856.9715
 176  846.2979
 177  854.1495
 178  925.2288
 179  1006.191
 180  994.6477
 181  1055.995
 182  951.4031
 183  886.9968
 184  789.8875
 185  924.1456
 186  1037.42
 187  1084.933
 188  1061.69
 189  1058.443
 190  977.2596
 191  911.6144
 192  951.3659
 193  967.9432
 194  1016.597
 195  1096.947
 196  1004.846
 197  1043.153
 198  1103.287
 199  1078.338
 200  1014.538
 201  1014.772
 202  943.7384
 203  944.3112
 204  1039.835
 205  1099.885
 206  1003.792
 207  952.7646
 208  924.7157
 209  924.0647
 210  1016.891
 211  970.1714
 212  920.5745
 213  896.2017
 214  999.4679
 215  1062.219
 216  1041.198
 217  973.5185
 218  1000.657
 219  895.283
 220  795.5576
 221  831.41
 222  994.5323
 223  1073.3
 224  902.3193
 225  884.0535
 226  905.4113
 227  933.326
 228  998.895
 229  1089.46
 230  982.506
 231  1023.847
 232  1050.909
 233  820.726
 234  941.6741
 235  965.1476
 236  1070.843
 237  1062.727
 238  1113.4
 239  1169.892
 240  1029.777
 241  972.0536
 242  1181.155
 243  1107.552
 244  1026.886
 245  1114.001
 246  1185.812
 247  1042.762
 248  884.3741
 249  963.5588
 250  1027.173
 251  1065.596
 252  1026.262
 253  1017.369
 254  926.3665
 255  849.8149
 256  830.3169
 257  844.4768
 258  900.1046
 259  872.9329
 260  745.6129
 261  599.5139
 262  680.4504
 263  914.3066
 264  988.226
 265  990.7921
 266  841.1342
 267  881.7354
 268  770.1299
 269  1037.453
 270  1016.152
 271  965.469
 272  955.2986
 273  933.5693
 274  894.8284
 275  882.486
 276  939.735
 277  946.1334
 278  908.4167
 279  896.6329
 280  969.8219
 281  967.4739
 282  1076.007
 283  1022.697
 284  1028.772
 285  1034.383
 286  1063.241
 287  1209.737
 288  1035.269
 289  1045.117
 290  1060.862
 291  1032.973
 292  1022.552
 293  977.3925
 294  1014.222
 295  915.3978
 296  820.25
 297  848.6107
 298  886.0502
 299  955.0527
 300  982.6605
 301  1012.839
 302  1022.646
 303  1111.226
 304  1017.515
 305  1082.842
 306  1019.806
 307  924.3106
 308  973.0551
 309  1015.25
 310  922.4406
 311  889.9929
 312  955.9355
 313  870.9692
 314  928.2152
 315  1025.864
 316  993.7303
 317  1099.944
 318  1036.628
 319  1047.553
 320  1031.21
 321  1089.606
 322  1030.181
 323  901.254
 324  1076.306
 325  1110.742
 326  1059.673
 327  1031.25
 328  975.9229
 329  1040.459
 330  1084.7
 331  1003.955
 332  1049.016
 333  1050.331
 334  1031.466
 335  931.4003
 336  913.9706
 337  895.4454
 338  889.5554
 339  970.0108
 340  877.6141
 341  862.3873
 342  933.6642
 343  1000.571
 344  1038.406
 345  1001.78
 346  948.1582
 347  881.9325
 348  811.9774
 349  947.9607
 350  1083.368
 351  914.2029
 352  977.5361
 353  895.0241
 354  831.3592
 355  729.2133
 356  843.9329
 357  990.6734
 358  921.6226
 359  881.9234
 360  985.9905
 361  963.6583
 362  1016.124
 363  963.8311
 364  980.9922
 365  1058.915
 366  1047.662
 367  1087.757
 368  1070.845
 369  1010.552
 370  1042.164
 371  1036.549
 372  997.1577
 373  934.9716
 374  975.4215
 375  1051.482
 376  1115.359
 377  1075.525
 378  908.0411
 379  849.2589
 380  850.4516
 381  864.5541
 382  824.8967
 383  887.0618
 384  936.9975
 385  1050.529
 386  981.0872
 387  1047.956
 388  1032.8
 389  989.6629
 390  975.8015
 391  827.1507
 392  801.7978
 393  887.5002
 394  945.7816
 395  954.0999
 396  977.1374
 397  918.5119
 398  880.6788
 399  951.2523
 400  1035.611
 401  909.6476
 402  914.8417
 403  1012.155
 404  972.7696
 405  1066.498
 406  1046.25
 407  1001.593
 408  1037.021
 409  990.7202
 410  1126.855
 411  1091.431
 412  1127.589
 413  1139.558
 414  1198.936
 415  1089.127
 416  1002.914
 417  1113.305
 418  1097.35
 419  1073.723
 420  1002.132
 421  1003.422
 422  1078.78
 423  1142.206
 424  1062.438
 425  1053.852
 426  1033.01
 427  923.5926
 428  949.5754
 429  1046.617
 430  1073.126
 431  982.3292
 432  996.6203
 433  902.0468
 434  946.619
 435  1008.208
 436  1032.355
 437  1057.274
 438  925.7354
 439  941.8105
 440  876.5475
 441  1038.483
 442  993.8932
 443  923.9523
 444  1109.261
 445  1000.599
 446  982.9117
 447  962.9367
 448  945.1924
 449  1002.185
 450  1016.936
 451  1055.17
 452  1129
 453  1053.108
 454  1040.261
 455  1117.839
 456  1218.204
 457  1164.262
 458  1141.974
 459  1006.716
 460  981.5119
 461  915.0393
 462  938.4435
 463  959.6133
 464  923.0404
 465  987.395
 466  988.277
 467  866.9476
 468  827.2766
 469  812.2604
 470  920.8817
 471  986.378
 472  1024.867
 473  1011.791
 474  969.0497
 475  875.9481
 476  837.2568
 477  905.1924
 478  901.0721
 479  735.2163
 480  858.1843
 481  890.8109
 482  865.4619
 483  920.0984
 484  859.0902
 485  851.5383
 486  897.3448
 487  951.7419
 488  1036.509
 489  1032.093
 490  1008.238
 491  999.6683
 492  919.8537
 493  959.2616
 494  906.5952
 495  938.3831
 496  1070.805
 497  1156.056
 498  1108.986
 499  1046.098
 500  943.7377
 501  896.9893
 502  881.0793
 503  922.8797
 504  975.9656
 505  1137.455
 506  1073.981
 507  952.29
 508  973.4376
 509  946.7487
 510  1169.588
 511  1249.234
