# Input file       =  1181644201.115532_cleaned.dat
# Candidate        =  PSR_0332+5434
# Telescope        =  AR
# Epoch_topo       =  57920.437304577914
# Epoch_bary       =  N/A
# T_sample         =  0.002
# Data Folded      =  7340032
# Data Avg         =  0.0384902669948122
# Data StdDev      =  1.00017631900489 
# Profile Bins     =  512
# Profile Avg      =  551.900934809465 
# Profile StdDev   =  119.754147586593 
# Reduced chi-sqr  =  1.080
# Prob(Noise)      <  0.101   (~1.3 sigma)
# P_topo (ms)      =  714.50224949691   +/- 0.00013
# P'_topo (s/s)    =  -0                +/- 6.87e-11
# P''_topo (s/s^2) =  0                 +/- 3.03e-14
# P_bary (ms)      =  N/A
# P'_bary (s/s)    =  N/A
# P''_bary (s/s^2) =  N/A
# P_orb (s)        =  N/A
# asin(i)/c (s)    =  N/A
# eccentricity     =  N/A
# w (rad)          =  N/A
# T_peri           =  N/A
######################################################
   0  902.3633
   1  880.1658
   2  817.6767
   3  696.29
   4  687.645
   5  551.0157
   6  620.4612
   7  629.85
   8  473.9083
   9  552.0709
  10  690.7027
  11  686.6851
  12  752.2325
  13  664.2856
  14  587.303
  15  643.1053
  16  617.8024
  17  566.0087
  18  556.8607
  19  586.3525
  20  540.6128
  21  570.0271
  22  649.0163
  23  717.8112
  24  667.6807
  25  508.0434
  26  515.7293
  27  580.5663
  28  673.3839
  29  657.6769
  30  605.9135
  31  574.4996
  32  536.4911
  33  555.828
  34  637.4127
  35  596.7062
  36  604.3636
  37  590.4109
  38  595.8209
  39  464.9007
  40  350.0002
  41  417.7823
  42  529.4847
  43  534.955
  44  663.4528
  45  540.8632
  46  530.0084
  47  553.1721
  48  532.4224
  49  534.6952
  50  430.4746
  51  459.3811
  52  619.8987
  53  711.8856
  54  629.4789
  55  706.719
  56  729.3801
  57  631.8383
  58  727.8023
  59  782.5565
  60  595.3098
  61  557.1548
  62  556.9348
  63  711.5426
  64  677.4164
  65  575.3149
  66  611.2775
  67  611.3082
  68  609.8723
  69  513.8503
  70  580.5004
  71  615.2411
  72  553.965
  73  590.8091
  74  564.3315
  75  585.838
  76  550.2895
  77  530.7947
  78  545.726
  79  595.2635
  80  591.6069
  81  623.0366
  82  540.732
  83  603.2692
  84  594.105
  85  598.2106
  86  607.5284
  87  581.4655
  88  466.7152
  89  500.4094
  90  548.0013
  91  610.8193
  92  592.5845
  93  501.2734
  94  582.322
  95  598.6531
  96  564.8629
  97  447.2774
  98  532.067
  99  476.3652
 100  386.1742
 101  480.0451
 102  506.1572
 103  650.5292
 104  727.2302
 105  652.4051
 106  607.6191
 107  563.767
 108  464.737
 109  563.1879
 110  591.3458
 111  654.5191
 112  709.7625
 113  697.0828
 114  792.2072
 115  705.1993
 116  752.9765
 117  685.771
 118  630.6592
 119  557.6356
 120  718.1197
 121  653.2603
 122  542.4674
 123  657.7865
 124  641.525
 125  609.5315
 126  599.3599
 127  551.4254
 128  593.6658
 129  583.2057
 130  695.7164
 131  638.1827
 132  576.1528
 133  594.1915
 134  688.5187
 135  495.8083
 136  487.7418
 137  502.1988
 138  550.2898
 139  582.7389
 140  570.1878
 141  433.8603
 142  461.1474
 143  585.6114
 144  510.9656
 145  451.8839
 146  571.1626
 147  549.7339
 148  553.0793
 149  652.264
 150  614.062
 151  512.6397
 152  488.9126
 153  565.2253
 154  653.5629
 155  588.2244
 156  539.0244
 157  620.8311
 158  586.8848
 159  530.7622
 160  532.1665
 161  541.1578
 162  503.6179
 163  521.5691
 164  499.4174
 165  528.6556
 166  510.6163
 167  496.2803
 168  519.0779
 169  438.4984
 170  462.3092
 171  423.857
 172  296.6528
 173  408.979
 174  495.0807
 175  508.1935
 176  431.9825
 177  479.9171
 178  516.2835
 179  514.6561
 180  603.6906
 181  583.8116
 182  454.2821
 183  391.2856
 184  487.3329
 185  444.0367
 186  514.5886
 187  631.6012
 188  590.3866
 189  538.8719
 190  576.4862
 191  617.8525
 192  679.612
 193  589.5301
 194  518.9994
 195  583.7096
 196  769.5454
 197  751.2731
 198  594.4731
 199  577.0414
 200  488.1939
 201  501.3273
 202  514.3921
 203  553.6196
 204  525.1425
 205  515.6637
 206  395.6182
 207  427.938
 208  419.8291
 209  493.6242
 210  511.5285
 211  589.5703
 212  544.7588
 213  451.0693
 214  412.2137
 215  480.2568
 216  531.113
 217  498.1556
 218  457.4116
 219  555.801
 220  580.8139
 221  524.8716
 222  381.7271
 223  536.9622
 224  559.3517
 225  570.0259
 226  557.0327
 227  540.8144
 228  470.0937
 229  519.0485
 230  588.719
 231  573.2861
 232  523.0104
 233  582.0117
 234  704.6527
 235  734.2868
 236  621.5861
 237  579.939
 238  714.4074
 239  728.3978
 240  662.0505
 241  531.441
 242  465.234
 243  495.0757
 244  512.3701
 245  600.4803
 246  586.4118
 247  616.4158
 248  579.4883
 249  675.1609
 250  727.2564
 251  603.6549
 252  479.9867
 253  484.5126
 254  592.7662
 255  556.4498
 256  504.1815
 257  575.4524
 258  506.5265
 259  520.3094
 260  527.903
 261  553.7413
 262  479.9678
 263  478.6685
 264  487.3481
 265  455.6833
 266  451.185
 267  585.7314
 268  565.7802
 269  549.4023
 270  539.2723
 271  537.504
 272  499.45
 273  479.7253
 274  441.4416
 275  474.9762
 276  544.0574
 277  604.636
 278  486.6013
 279  561.0197
 280  678.9896
 281  660.6448
 282  616.0363
 283  569.5379
 284  487.169
 285  534.9564
 286  521.0548
 287  509.7443
 288  566.1037
 289  595.6525
 290  518.6437
 291  417.7476
 292  524.6369
 293  484.3363
 294  518.1188
 295  600.646
 296  585.4292
 297  533.0027
 298  479.0924
 299  451.7152
 300  475.7336
 301  582.4555
 302  483.6472
 303  462.9037
 304  438.2771
 305  376.2738
 306  412.378
 307  537.5963
 308  564.0693
 309  491.4301
 310  508.7131
 311  544.2723
 312  461.8982
 313  493.9866
 314  580.128
 315  505.5971
 316  542.7593
 317  559.1891
 318  561.5865
 319  515.1885
 320  576.7635
 321  629.6188
 322  588.5227
 323  773.1578
 324  702.2028
 325  692.937
 326  647.4376
 327  649.2212
 328  639.2373
 329  530.8102
 330  512.0565
 331  508.8147
 332  584.6196
 333  556.7229
 334  571.2718
 335  549.0568
 336  491.9674
 337  597.006
 338  576.7797
 339  583.6155
 340  609.8591
 341  512.3819
 342  584.1535
 343  593.8076
 344  627.6219
 345  454.5628
 346  430.1949
 347  432.8931
 348  634.9365
 349  637.5626
 350  498.8355
 351  535.9723
 352  472.0163
 353  454.6277
 354  559.5034
 355  604.0882
 356  563.0065
 357  499.8193
 358  528.3226
 359  611.0237
 360  642.633
 361  517.0113
 362  529.0154
 363  525.437
 364  426.3396
 365  489.2721
 366  460.4479
 367  461.3318
 368  430.1439
 369  486.534
 370  495.3674
 371  430.8171
 372  489.6816
 373  575.5397
 374  531.1614
 375  577.8312
 376  718.0109
 377  585.835
 378  566.6803
 379  573.8625
 380  446.631
 381  425.5804
 382  484.4645
 383  678.6348
 384  546.5699
 385  368.3438
 386  398.6682
 387  501.3033
 388  518.5886
 389  522.5065
 390  360.244
 391  424.7678
 392  395.9904
 393  585.3992
 394  511.7299
 395  411.8067
 396  451.1262
 397  501.5484
 398  535.8746
 399  569.6601
 400  434.6524
 401  330.7659
 402  365.1621
 403  512.5739
 404  472.7206
 405  424.009
 406  398.1431
 407  549.5315
 408  562.4873
 409  517.6729
 410  498.6766
 411  615.8947
 412  587.2222
 413  496.2255
 414  399.6761
 415  459.8633
 416  560.7043
 417  529.2332
 418  476.353
 419  511.7972
 420  586.1989
 421  633.1817
 422  630.4753
 423  514.8264
 424  464.7213
 425  471.0002
 426  473.2383
 427  471.9467
 428  498.9585
 429  441.0018
 430  505.6438
 431  567.2324
 432  533.8573
 433  563.2557
 434  463.3047
 435  517.0121
 436  460.7425
 437  458.145
 438  433.9448
 439  319.7757
 440  430.0027
 441  499.9573
 442  397.9854
 443  379.2347
 444  435.4091
 445  577.352
 446  652.4779
 447  637.6466
 448  509.6163
 449  507.9503
 450  595.2429
 451  654.1395
 452  586.7034
 453  582.503
 454  514.4155
 455  433.0711
 456  482.5663
 457  519.8587
 458  401.4776
 459  539.7762
 460  705.2064
 461  647.755
 462  466.006
 463  412.645
 464  517.8449
 465  476.6868
 466  474.0564
 467  574.2943
 468  503.9192
 469  468.3271
 470  587.7427
 471  524.2003
 472  514.2775
 473  525.7488
 474  512.4113
 475  498.3267
 476  513.4825
 477  554.8969
 478  532.2357
 479  529.9288
 480  409.8368
 481  418.2167
 482  429.1718
 483  479.2047
 484  445.5056
 485  526.8483
 486  495.5052
 487  473.4568
 488  615.3958
 489  654.9384
 490  648.5402
 491  559.4979
 492  572.0349
 493  717.4556
 494  643.3922
 495  613.9266
 496  555.5155
 497  577.1817
 498  525.3196
 499  501.5327
 500  550.9401
 501  576.6212
 502  631.0513
 503  593.8619
 504  526.2646
 505  519.2814
 506  673.6613
 507  692.6235
 508  744.8389
 509  802.4365
 510  875.7142
 511  961.6929
