# Input file       =  1182850506.116156_cleaned.dat
# Candidate        =  PSR_0332+5434
# Telescope        =  AR
# Epoch_topo       =  57934.399168011063
# Epoch_bary       =  N/A
# T_sample         =  0.002
# Data Folded      =  7340032
# Data Avg         =  0.0499791531687535
# Data StdDev      =  1.00012967130739 
# Profile Bins     =  512
# Profile Avg      =  716.531578489168 
# Profile StdDev   =  119.748562316131 
# Reduced chi-sqr  =  0.850
# Prob(Noise)      <  0.994   (~0.0 sigma)
# P_topo (ms)      =  714.490051333331  +/- 3.93e-05
# P'_topo (s/s)    =  -0                +/- 2.07e-11
# P''_topo (s/s^2) =  0                 +/- 9.16e-15
# P_bary (ms)      =  N/A
# P'_bary (s/s)    =  N/A
# P''_bary (s/s^2) =  N/A
# P_orb (s)        =  N/A
# asin(i)/c (s)    =  N/A
# eccentricity     =  N/A
# w (rad)          =  N/A
# T_peri           =  N/A
######################################################
   0  1096.403
   1  1096.421
   2  1040.62
   3  862.543
   4  817.3824
   5  843.6277
   6  744.353
   7  719.461
   8  646.1882
   9  753.1638
  10  735.0931
  11  677.4797
  12  619.8731
  13  723.5179
  14  815.6195
  15  903.948
  16  807.715
  17  726.6586
  18  738.5651
  19  744.5538
  20  747.0183
  21  628.0497
  22  691.6478
  23  804.4523
  24  853.6631
  25  738.8058
  26  650.0836
  27  700.3176
  28  714.535
  29  667.3399
  30  657.2108
  31  713.4446
  32  676.4415
  33  735.136
  34  721.8578
  35  670.1262
  36  677.2491
  37  801.6199
  38  799.516
  39  715.6943
  40  643.7921
  41  707.5763
  42  741.9473
  43  802.6252
  44  647.1178
  45  591.5108
  46  704.9851
  47  796.6755
  48  663.5222
  49  659.1555
  50  664.0673
  51  730.2104
  52  873.8873
  53  837.1013
  54  746.5945
  55  769.1137
  56  775.5356
  57  714.3377
  58  722.0944
  59  686.6576
  60  718.5421
  61  838.9833
  62  859.5476
  63  728.1224
  64  729.066
  65  687.9133
  66  737.4248
  67  743.8922
  68  692.1478
  69  639.5267
  70  587.2576
  71  758.4061
  72  787.1681
  73  676.8208
  74  599.3113
  75  730.7654
  76  858.2679
  77  832.7355
  78  708.5332
  79  709.4494
  80  680.781
  81  709.2121
  82  677.1462
  83  619.9368
  84  581.4306
  85  636.3606
  86  798.8635
  87  659.1292
  88  572.9371
  89  668.4048
  90  656.517
  91  637.106
  92  576.6957
  93  635.5689
  94  623.0064
  95  643.6265
  96  710.8346
  97  596.0938
  98  530.4151
  99  701.7109
 100  776.8103
 101  760.3435
 102  751.7834
 103  676.2266
 104  677.9271
 105  716.2439
 106  774.3903
 107  755.4344
 108  753.0955
 109  714.2958
 110  829.5122
 111  840.2367
 112  827.9706
 113  783.155
 114  763.6313
 115  753.317
 116  679.3349
 117  694.8616
 118  707.0865
 119  734.9869
 120  674.8747
 121  743.7457
 122  725.0959
 123  680.5272
 124  685.6979
 125  618.1459
 126  662.0726
 127  652.6442
 128  650.412
 129  704.2924
 130  751.5553
 131  745.7096
 132  704.3851
 133  757.4965
 134  838.3961
 135  744.4039
 136  637.667
 137  635.3849
 138  763.5276
 139  864.7449
 140  777.6051
 141  695.3674
 142  735.7579
 143  738.6088
 144  824.784
 145  786.701
 146  766.7001
 147  699.7119
 148  726.4996
 149  763.7287
 150  738.5835
 151  733.9882
 152  723.7449
 153  825.8821
 154  781.2584
 155  710.662
 156  801.8431
 157  900.2659
 158  825.1703
 159  679.119
 160  594.3785
 161  694.9946
 162  850.0271
 163  826.8778
 164  667.129
 165  643.9292
 166  683.3709
 167  795.035
 168  692.5296
 169  621.3191
 170  600.0152
 171  652.7361
 172  738.6899
 173  689.5165
 174  653.7865
 175  649.1237
 176  647.5743
 177  704.6179
 178  649.3524
 179  629.3319
 180  641.0662
 181  732.1742
 182  648.218
 183  650.5269
 184  602.6102
 185  539.1256
 186  558.6806
 187  638.2029
 188  671.496
 189  549.8061
 190  747.2197
 191  783.557
 192  747.1852
 193  739.2934
 194  741.9122
 195  748.2056
 196  709.6131
 197  568.9831
 198  724.2314
 199  743.9041
 200  680.5806
 201  820.05
 202  905.176
 203  810.3864
 204  709.5034
 205  714.0825
 206  678.1242
 207  680.1351
 208  570.394
 209  695.9332
 210  688.2888
 211  627.7747
 212  612.0811
 213  679.3462
 214  770.3684
 215  678.0684
 216  581.8147
 217  461.2881
 218  618.9448
 219  723.2992
 220  612.3646
 221  679.3026
 222  659.2518
 223  799.4892
 224  881.5943
 225  874.0803
 226  737.2698
 227  634.0174
 228  596.5275
 229  754.7604
 230  784.4755
 231  699.8502
 232  723.6519
 233  829.9848
 234  830.0355
 235  823.9109
 236  724.2868
 237  721.8895
 238  681.8448
 239  671.9442
 240  733.9047
 241  759.3958
 242  695.6807
 243  698.8433
 244  751.7611
 245  666.6622
 246  526.7688
 247  574.3718
 248  655.5629
 249  669.0068
 250  726.0667
 251  675.3101
 252  669.0663
 253  763.4371
 254  841.7869
 255  729.0931
 256  636.9875
 257  720.2556
 258  642.1943
 259  655.3831
 260  685.1596
 261  666.9926
 262  665.4594
 263  769.9722
 264  748.5515
 265  713.2264
 266  660.7957
 267  765.512
 268  820.8603
 269  709.9294
 270  691.1719
 271  808.235
 272  839.0348
 273  683.7924
 274  622.7841
 275  678.4988
 276  781.1888
 277  765.9692
 278  717.5306
 279  602.3195
 280  619.858
 281  755.0525
 282  744.8088
 283  737.9397
 284  749.3694
 285  656.5917
 286  642.1094
 287  703.8937
 288  618.3445
 289  626.81
 290  719.1861
 291  693.722
 292  631.9943
 293  650.293
 294  705.6183
 295  645.5223
 296  673.1372
 297  629.5023
 298  560.1279
 299  559.4121
 300  735.0902
 301  662.8567
 302  666.0571
 303  685.743
 304  629.4695
 305  494.7008
 306  722.5276
 307  709.4232
 308  549.1815
 309  585.5946
 310  694.0577
 311  636.1198
 312  616.9606
 313  641.0204
 314  710.0112
 315  690.2299
 316  690.6193
 317  720.1412
 318  694.6439
 319  736.5128
 320  792.8014
 321  802.9302
 322  754.3696
 323  696.2986
 324  702.235
 325  763.2939
 326  805.2763
 327  684.6131
 328  576.7448
 329  708.0007
 330  763.2009
 331  665.8724
 332  610.1355
 333  699.2908
 334  728.472
 335  784.7346
 336  767.4594
 337  643.1414
 338  712.9137
 339  844.7728
 340  780.868
 341  772.4109
 342  827.0474
 343  785.9328
 344  765.5035
 345  775.2155
 346  760.8111
 347  731.1707
 348  727.5993
 349  699.0984
 350  793.5803
 351  747.0928
 352  739.1173
 353  714.6608
 354  727.4917
 355  698.4135
 356  663.4649
 357  735.55
 358  802.215
 359  688.3238
 360  633.9028
 361  674.317
 362  733.5206
 363  768.148
 364  786.7609
 365  738.9237
 366  762.7569
 367  753.5195
 368  770.6201
 369  718.5119
 370  579.4312
 371  697.4654
 372  834.083
 373  755.5019
 374  638.8168
 375  656.7886
 376  706.5403
 377  671.0082
 378  764.0084
 379  709.4333
 380  682.376
 381  696.1555
 382  790.8017
 383  777.4311
 384  786.4391
 385  658.1712
 386  590.0768
 387  675.5927
 388  625.638
 389  575.9925
 390  571.9755
 391  667.4948
 392  771.9326
 393  716.6257
 394  603.6375
 395  640.7104
 396  589.4475
 397  707.5267
 398  777.576
 399  833.1837
 400  860.2184
 401  775.5292
 402  663.3409
 403  689.0327
 404  709.9491
 405  771.7642
 406  716.8558
 407  726.4926
 408  701.369
 409  705.4146
 410  721.5184
 411  760.2175
 412  789.0055
 413  795.825
 414  839.2247
 415  894.8608
 416  845.0508
 417  667.8221
 418  680.1838
 419  810.0711
 420  882.6429
 421  856.9749
 422  823.556
 423  733.5981
 424  747.9191
 425  813.0822
 426  745.29
 427  698.2621
 428  728.5017
 429  814.6533
 430  757.7445
 431  724.6248
 432  637.6789
 433  682.2419
 434  700.5563
 435  672.2916
 436  534.1417
 437  584.3326
 438  708.5746
 439  762.0563
 440  737.9083
 441  634.8069
 442  697.4456
 443  743.4188
 444  739.6376
 445  816.7826
 446  781.1364
 447  625.6991
 448  639.9294
 449  815.3464
 450  901.7813
 451  828.3358
 452  790.0253
 453  699.6509
 454  626.6476
 455  642.0097
 456  705.6841
 457  694.9979
 458  766.9709
 459  847.0938
 460  748.3689
 461  666.9609
 462  676.3361
 463  701.7612
 464  784.6771
 465  710.5757
 466  649.4591
 467  655.3819
 468  673.9466
 469  691.0504
 470  722.7376
 471  675.1006
 472  707.4323
 473  746.8047
 474  823.7836
 475  693.1833
 476  587.1551
 477  598.7174
 478  653.5329
 479  733.3638
 480  600.4177
 481  534.5988
 482  684.1245
 483  692.1884
 484  751.4473
 485  763.8347
 486  839.5819
 487  751.0469
 488  685.4982
 489  710.2642
 490  778.6848
 491  771.9175
 492  788.3984
 493  811.2756
 494  772.7557
 495  749.323
 496  795.4845
 497  784.0742
 498  801.1865
 499  734.2213
 500  618.9965
 501  682.7014
 502  767.9633
 503  666.4155
 504  695.8068
 505  651.3707
 506  678.8185
 507  665.0791
 508  775.3455
 509  875.0171
 510  839.7141
 511  921.278
