# Input file       =  1182505911.106921_cleaned.dat
# Candidate        =  PSR_0332+5434
# Telescope        =  AR
# Epoch_topo       =  57930.410799848622
# Epoch_bary       =  N/A
# T_sample         =  0.002
# Data Folded      =  7340032
# Data Avg         =  0.046950646079737
# Data StdDev      =  1.00010899225741 
# Profile Bins     =  512
# Profile Avg      =  673.033353411549 
# Profile StdDev   =  119.746086350687 
# Reduced chi-sqr  =  0.968
# Prob(Noise)      <  0.691   (~0.0 sigma)
# P_topo (ms)      =  714.493374032792  +/- 7.51e-05
# P'_topo (s/s)    =  -0                +/- 3.96e-11
# P''_topo (s/s^2) =  0                 +/- 1.75e-14
# P_bary (ms)      =  N/A
# P'_bary (s/s)    =  N/A
# P''_bary (s/s^2) =  N/A
# P_orb (s)        =  N/A
# asin(i)/c (s)    =  N/A
# eccentricity     =  N/A
# w (rad)          =  N/A
# T_peri           =  N/A
######################################################
   0  1183.317
   1  1176.594
   2  1161.577
   3  929.3931
   4  647.6633
   5  597.4438
   6  601.1369
   7  628.6382
   8  685.9092
   9  653.8893
  10  741.4528
  11  696.1791
  12  656.702
  13  593.8626
  14  621.3793
  15  705.5276
  16  699.4905
  17  667.5856
  18  589.358
  19  661.6161
  20  619.6276
  21  728.2389
  22  720.6996
  23  615.7042
  24  654.2946
  25  743.0457
  26  732.8057
  27  652.5823
  28  601.9463
  29  669.4062
  30  688.4841
  31  644.084
  32  705.0607
  33  662.0926
  34  727.3506
  35  708.4924
  36  721.7393
  37  771.8107
  38  815.9814
  39  827.1072
  40  717.894
  41  707.1791
  42  624.8943
  43  534.6882
  44  649.3678
  45  635.5822
  46  687.5199
  47  712.21
  48  728.527
  49  723.7203
  50  738.2017
  51  542.6177
  52  439.7423
  53  588.8278
  54  665.947
  55  699.6339
  56  707.076
  57  759.4172
  58  796.9628
  59  765.0263
  60  749.879
  61  703.2178
  62  597.6211
  63  605.0716
  64  661.5016
  65  589.3982
  66  629.6727
  67  731.5861
  68  758.3389
  69  654.118
  70  664.4584
  71  748.2138
  72  778.8585
  73  755.0741
  74  851.4785
  75  789.1685
  76  772.6611
  77  795.5227
  78  758.3123
  79  798.7347
  80  843.5718
  81  614.3767
  82  658.9683
  83  790.7587
  84  810.2176
  85  668.8714
  86  624.2662
  87  601.127
  88  611.7288
  89  787.578
  90  844.4367
  91  684.934
  92  777.2571
  93  756.2014
  94  660.2151
  95  586.3123
  96  664.7976
  97  642.5005
  98  660.9429
  99  655.715
 100  668.3483
 101  640.0757
 102  667.681
 103  624.2642
 104  570.059
 105  526.2096
 106  543.5475
 107  656.5898
 108  591.2829
 109  607.2476
 110  657.2598
 111  733.191
 112  764.8358
 113  594.8235
 114  470.4379
 115  522.6172
 116  670.8064
 117  758.427
 118  663.2312
 119  569.4258
 120  726.2004
 121  665.6443
 122  695.4207
 123  753.3677
 124  774.0164
 125  782.9874
 126  670.6683
 127  636.1559
 128  612.9968
 129  535.2817
 130  683.2454
 131  698.4984
 132  695.5323
 133  614.5962
 134  533.4393
 135  523.8536
 136  527.6173
 137  494.8201
 138  543.3608
 139  617.9368
 140  588.2407
 141  592.3297
 142  688.0649
 143  705.4869
 144  610.2127
 145  628.5096
 146  645.0019
 147  512.4617
 148  535.092
 149  698.4494
 150  643.1369
 151  708.6127
 152  545.142
 153  585.3917
 154  551.2587
 155  635.3681
 156  748.6097
 157  626.8324
 158  662.8767
 159  735.8527
 160  691.673
 161  774.8839
 162  695.228
 163  591.62
 164  594.2479
 165  660.7331
 166  732.4734
 167  704.9125
 168  746.7968
 169  762.2121
 170  685.2376
 171  743.0709
 172  818.4104
 173  830.6721
 174  725.0352
 175  710.7664
 176  657.9523
 177  547.9216
 178  640.987
 179  758.7387
 180  684.0865
 181  686.719
 182  690.099
 183  639.7245
 184  658.2173
 185  665.7441
 186  649.416
 187  578.938
 188  611.9017
 189  573.34
 190  622.5339
 191  675.1378
 192  724.0356
 193  623.3619
 194  648.4739
 195  585.1344
 196  588.2314
 197  624.2593
 198  615.5296
 199  615.5522
 200  607.5227
 201  667.5787
 202  660.5706
 203  668.3055
 204  690.1695
 205  649.208
 206  599.565
 207  743.7056
 208  795.6954
 209  676.8234
 210  680.8766
 211  689.4653
 212  645.1333
 213  673.1512
 214  727.9285
 215  701.7928
 216  679.6045
 217  655.6265
 218  543.1602
 219  643.6743
 220  659.4657
 221  645.3221
 222  747.5711
 223  717.772
 224  662.605
 225  612.6108
 226  639.0698
 227  744.4083
 228  668.9853
 229  606.9595
 230  600.3329
 231  613.6591
 232  644.5551
 233  734.5271
 234  634.1407
 235  668.6586
 236  780.9754
 237  751.5505
 238  677.7098
 239  708.9296
 240  644.8182
 241  778.5047
 242  770.8735
 243  747.0861
 244  685.3583
 245  680.3424
 246  681.1361
 247  715.8254
 248  687.3676
 249  722.6037
 250  749.3402
 251  739.5735
 252  684.8123
 253  569.924
 254  571.3393
 255  653.5867
 256  704.3064
 257  643.5024
 258  534.1447
 259  537.0276
 260  586.3184
 261  621.6535
 262  590.3223
 263  586.326
 264  638.3074
 265  655.4183
 266  620.5765
 267  566.163
 268  690.2576
 269  739.3588
 270  734.4501
 271  665.0042
 272  575.8892
 273  614.4486
 274  648.4814
 275  590.2516
 276  612.3653
 277  596.5547
 278  592.5964
 279  638.2014
 280  694.0684
 281  693.8931
 282  705.8163
 283  793.4687
 284  794.5906
 285  696.7432
 286  674.6972
 287  704.4442
 288  594.979
 289  582.7328
 290  752.9879
 291  588.3317
 292  604.093
 293  816.3171
 294  858.1093
 295  723.2488
 296  621.3254
 297  646.6952
 298  727.6881
 299  663.3169
 300  563.6547
 301  664.6856
 302  735.0605
 303  708.6385
 304  636.3622
 305  712.0139
 306  660.4546
 307  764.5939
 308  794.7161
 309  754.8714
 310  672.0102
 311  823.6437
 312  886.0127
 313  819.9397
 314  702.3536
 315  702.9814
 316  706.2548
 317  660.9777
 318  853.9949
 319  816.437
 320  619.5707
 321  656.6137
 322  781.6028
 323  727.3956
 324  667.6021
 325  725.1313
 326  757.3463
 327  695.4564
 328  606.6779
 329  732.9503
 330  614.024
 331  626.0709
 332  699.1135
 333  677.8512
 334  710.8603
 335  791.5604
 336  822.4994
 337  756.4388
 338  647.2922
 339  631.1974
 340  702.7434
 341  683.3908
 342  595.4034
 343  583.3383
 344  732.4561
 345  661.0065
 346  653.3885
 347  675.9523
 348  698.1459
 349  581.764
 350  603.0649
 351  630.226
 352  575.1907
 353  492.7059
 354  633.5827
 355  632.957
 356  696.6584
 357  737.9185
 358  647.5986
 359  681.5351
 360  717.0038
 361  741.59
 362  706.045
 363  681.6666
 364  678.7413
 365  666.4602
 366  688.9037
 367  625.6287
 368  615.2044
 369  618.1998
 370  669.9315
 371  690.5717
 372  690.0859
 373  665.7482
 374  692.2315
 375  685.8198
 376  656.0535
 377  654.9651
 378  562.8627
 379  699.1188
 380  734.1764
 381  755.3966
 382  623.3436
 383  655.842
 384  647.3115
 385  628.1521
 386  567.0079
 387  601.9521
 388  649.6635
 389  716.2234
 390  714.1047
 391  660.3343
 392  615.6833
 393  630.2151
 394  727.0077
 395  764.2971
 396  660.4012
 397  568.3264
 398  657.4133
 399  683.9832
 400  617.7022
 401  563.0069
 402  536.644
 403  605.2311
 404  624.1216
 405  604.9553
 406  709.7776
 407  645.6219
 408  609.7853
 409  679.748
 410  572.3519
 411  660.84
 412  724.0395
 413  732.6971
 414  722.9216
 415  715.2765
 416  652.4924
 417  634.381
 418  669.7576
 419  670.8517
 420  559.1356
 421  599.3475
 422  680.4936
 423  667.7345
 424  646.0855
 425  629.345
 426  550.0903
 427  655.2828
 428  661.4533
 429  549.6036
 430  460.974
 431  601.5865
 432  552.2712
 433  518.1714
 434  543.9713
 435  529.4203
 436  664.6756
 437  655.7198
 438  653.0125
 439  550.4413
 440  622.9895
 441  673.218
 442  645.0187
 443  703.5082
 444  650.3638
 445  586.6558
 446  638.9405
 447  750.2546
 448  700.3714
 449  639.0082
 450  606.9426
 451  640.2098
 452  628.8604
 453  628.723
 454  620.0226
 455  656.4751
 456  607.8498
 457  645.0751
 458  582.3694
 459  568.3607
 460  499.3946
 461  566.6847
 462  600.4841
 463  606.5854
 464  592.3765
 465  696.8668
 466  664.9416
 467  632.8933
 468  619.1273
 469  660.7666
 470  651.811
 471  683.8855
 472  648.4339
 473  653.0229
 474  620.4089
 475  670.2181
 476  609.2265
 477  694.217
 478  786.2636
 479  758.29
 480  822.9562
 481  783.5797
 482  711.4026
 483  693.1122
 484  671.5302
 485  659.1526
 486  632.3461
 487  672.4938
 488  721.1871
 489  683.4825
 490  711.6898
 491  664.9941
 492  691.3008
 493  771.9445
 494  677.5806
 495  693.2257
 496  720.8865
 497  643.0491
 498  734.7452
 499  712.2185
 500  739.7024
 501  787.7577
 502  691.3037
 503  604.9263
 504  841.8263
 505  852.3627
 506  712.924
 507  629.79
 508  748.2025
 509  778.827
 510  914.2
 511  1112.393
