# Input file       =  1182505911.106921_cleaned.dat
# Candidate        =  PSR_0332+5434
# Telescope        =  AR
# Epoch_topo       =  57930.410799848622
# Epoch_bary       =  N/A
# T_sample         =  0.002
# Data Folded      =  7340032
# Data Avg         =  0.046950646079737
# Data StdDev      =  1.00010899225741 
# Profile Bins     =  512
# Profile Avg      =  673.033363210858 
# Profile StdDev   =  119.746086350687 
# Reduced chi-sqr  =  0.964
# Prob(Noise)      <  0.713   (~0.0 sigma)
# P_topo (ms)      =  714.493375175101  +/- 7.6e-05
# P'_topo (s/s)    =  -0                +/- 4.01e-11
# P''_topo (s/s^2) =  0                 +/- 1.77e-14
# P_bary (ms)      =  N/A
# P'_bary (s/s)    =  N/A
# P''_bary (s/s^2) =  N/A
# P_orb (s)        =  N/A
# asin(i)/c (s)    =  N/A
# eccentricity     =  N/A
# w (rad)          =  N/A
# T_peri           =  N/A
######################################################
   0  642.4157
   1  612.6874
   2  578.7138
   3  598.3359
   4  676.6991
   5  714.9905
   6  709.5549
   7  633.4802
   8  612.9004
   9  668.2268
  10  738.4717
  11  748.4642
  12  619.2017
  13  580.2986
  14  682.813
  15  666.795
  16  604.0124
  17  547.8103
  18  543.0244
  19  634.6125
  20  601.9717
  21  639.8926
  22  701.0585
  23  616.9947
  24  636.8621
  25  662.9101
  26  574.1782
  27  686.3281
  28  724.2916
  29  735.512
  30  723.1229
  31  697.7104
  32  649.1849
  33  637.0173
  34  678.6631
  35  639.0112
  36  562.2314
  37  615.4236
  38  697.1495
  39  652.9554
  40  650.3347
  41  598.7406
  42  568.7993
  43  674.9746
  44  651.2198
  45  495.2971
  46  488.6116
  47  614.0434
  48  526.4221
  49  534.6602
  50  521.0285
  51  569.3332
  52  675.2589
  53  654.318
  54  633.2604
  55  546.245
  56  653.1986
  57  668.4835
  58  652.3808
  59  702.0557
  60  625.4355
  61  582.8983
  62  671.5944
  63  757.0333
  64  688.0759
  65  614.993
  66  627.3875
  67  616.5132
  68  648.8714
  69  615.6078
  70  637.2625
  71  644.9972
  72  614.793
  73  637.897
  74  572.0673
  75  551.5039
  76  498.8162
  77  587.0697
  78  593.0903
  79  612.7725
  80  609.7045
  81  699.664
  82  662.2039
  83  616.0248
  84  639.6454
  85  654.0362
  86  664.2377
  87  671.0054
  88  654.506
  89  635.8768
  90  638.3174
  91  656.2077
  92  615.955
  93  729.0941
  94  783.2704
  95  760.3226
  96  828.4543
  97  766.0704
  98  704.248
  99  687.8114
 100  668.6458
 101  640.5966
 102  642.7055
 103  695.1205
 104  707.4727
 105  686.272
 106  722.4337
 107  640.7167
 108  729.6284
 109  741.8578
 110  670.0547
 111  718.0137
 112  694.1683
 113  664.0857
 114  740.787
 115  712.7124
 116  745.3981
 117  794.6206
 118  640.7322
 119  646.2223
 120  879.9517
 121  814.0847
 122  680.4419
 123  649.3167
 124  772.3886
 125  782.5759
 126  981.4548
 127  1137.538
 128  1178.258
 129  1180.068
 130  1127.805
 131  854.5406
 132  615.0203
 133  596.5849
 134  605.5844
 135  652.4175
 136  678.4545
 137  657.8054
 138  757.342
 139  659.825
 140  657.3739
 141  574.5901
 142  669.3055
 143  691.0613
 144  702.3854
 145  638.8732
 146  609.5678
 147  659.7807
 148  630.6912
 149  741.1041
 150  694.6398
 151  608.0481
 152  687.2168
 153  739.6343
 154  720.0751
 155  629.4388
 156  614.615
 157  689.7684
 158  666.8121
 159  663.1648
 160  690.9183
 161  683.3639
 162  718.9291
 163  714.7855
 164  721.0897
 165  795.1459
 166  823.6125
 167  805.2325
 168  698.929
 169  708.445
 170  581.1885
 171  563.53
 172  651.5473
 173  643.7284
 174  701.5934
 175  709.0203
 176  727.9348
 177  732.5658
 178  707.1165
 179  489.9901
 180  463.163
 181  631.8732
 182  669.7253
 183  704.2706
 184  705.2672
 185  783.6363
 186  787.0122
 187  762.5555
 188  740.2502
 189  687.389
 190  569.1431
 191  638.1631
 192  642.2224
 193  598.923
 194  633.5809
 195  775.9733
 196  711.6363
 197  658.3959
 198  667.1216
 199  786.2873
 200  758.0306
 201  778.7639
 202  857.1286
 203  762.1059
 204  783.9136
 205  787.3273
 206  759.9428
 207  820.0203
 208  809.996
 209  575.579
 210  706.2308
 211  802.3558
 212  794.456
 213  637.3146
 214  626.5355
 215  583.8534
 216  651.2545
 217  825.8638
 218  807.017
 219  686.1009
 220  795.0016
 221  733.7041
 222  627.2025
 223  601.5218
 224  669.0938
 225  643.2136
 226  673.2134
 227  649.1522
 228  662.6458
 229  640.8986
 230  670.3741
 231  601.0696
 232  564.8211
 233  514.3728
 234  584.5763
 235  643.6575
 236  592.9209
 237  600.9061
 238  691.4882
 239  740.7819
 240  747.6298
 241  542.7645
 242  470.0649
 243  554.2429
 244  702.03
 245  758.066
 246  612.7089
 247  607.9957
 248  731.0497
 249  652.4922
 250  724.7204
 251  751.1078
 252  781.4837
 253  762.8524
 254  648.6411
 255  643.6349
 256  592.3447
 257  550.5958
 258  709.311
 259  681.0811
 260  694.6864
 261  584.9133
 262  534.1022
 263  524.4438
 264  517.0042
 265  494.0047
 266  567.7346
 267  624.4121
 268  568.2132
 269  611.6927
 270  709.9521
 271  691.431
 272  601.2935
 273  656.215
 274  588.14
 275  514.6841
 276  557.4457
 277  718.7224
 278  637.2889
 279  701.1094
 280  526.4108
 281  605.3121
 282  525.0159
 283  696.3925
 284  711.6808
 285  635.1212
 286  673.4865
 287  735.5167
 288  706.3661
 289  768.0656
 290  668.7809
 291  570.9262
 292  622.9325
 293  682.6889
 294  720.3749
 295  713.7039
 296  747.5683
 297  765.9008
 298  678.4378
 299  763.7737
 300  824.723
 301  810.5878
 302  707.5978
 303  718.153
 304  625.0818
 305  542.4538
 306  698.3634
 307  744.2848
 308  678.98
 309  688.8134
 310  674.265
 311  626.3238
 312  673.9716
 313  665.9213
 314  638.5184
 315  579.2648
 316  606.596
 317  574.4472
 318  636.2464
 319  706.4797
 320  684.9702
 321  627.1381
 322  638.5623
 323  586.3506
 324  598.3481
 325  622.5291
 326  616.0414
 327  609.7548
 328  622.4467
 329  670.9749
 330  655.8154
 331  677.8627
 332  678.2211
 333  630.9286
 334  623.3792
 335  773.8318
 336  770.0324
 337  669.4242
 338  693.5168
 339  674.9582
 340  641.651
 341  683.4991
 342  737.1722
 343  680.0291
 344  700.142
 345  617.7653
 346  548.2418
 347  658.9629
 348  648.8143
 349  674.7378
 350  749.8015
 351  708.5352
 352  643.2507
 353  619.517
 354  659.1511
 355  746.4812
 356  640.5374
 357  605.2023
 358  596.9079
 359  618.7896
 360  666.5403
 361  727.1317
 362  617.0885
 363  711.0468
 364  773.3974
 365  733.8138
 366  688.7383
 367  689.0233
 368  660.4124
 369  798.455
 370  764.7806
 371  733.6016
 372  676.9974
 373  670.4572
 374  701.0197
 375  698.4924
 376  703.402
 377  731.7303
 378  753.4975
 379  732.7932
 380  652.745
 381  560.4893
 382  581.5005
 383  676.8898
 384  690.4507
 385  625.1977
 386  517.7738
 387  547.2386
 388  599.5597
 389  618.369
 390  586.4827
 391  595.0634
 392  653.769
 393  663.0228
 394  580.3088
 395  588.3833
 396  717.7761
 397  731.4034
 398  736.3613
 399  634.0983
 400  578.3474
 401  623.6274
 402  641.3266
 403  583.7062
 404  629.4789
 405  581.9431
 406  597.8945
 407  656.1663
 408  686.0074
 409  697.4283
 410  725.8619
 411  814.007
 412  776.3558
 413  672.7076
 414  675.1426
 415  702.1993
 416  558.1127
 417  643.3168
 418  724.9217
 419  557.1401
 420  655.4994
 421  851.0226
 422  833.8522
 423  686.7549
 424  617.7219
 425  670.6358
 426  734.9927
 427  620.9944
 428  587.622
 429  682.2186
 430  742.5009
 431  684.3928
 432  640.9869
 433  718.362
 434  660.703
 435  786.9504
 436  782.4529
 437  726.4119
 438  702.5032
 439  857.1248
 440  881.0439
 441  793.9296
 442  685.5386
 443  707.0891
 444  695.1312
 445  680.3357
 446  894.9843
 447  751.3118
 448  605.4926
 449  698.2318
 450  777.3015
 451  716.1252
 452  662.4568
 453  754.3018
 454  746.4293
 455  658.5029
 456  638.2042
 457  715.457
 458  600.9965
 459  649.1882
 460  704.4404
 461  669.7363
 462  740.0657
 463  802.7009
 464  803.6787
 465  736.1765
 466  623.4748
 467  651.1494
 468  706.6614
 469  671.6107
 470  574.8292
 471  624.153
 472  726.7974
 473  647.6126
 474  655.7582
 475  689.5573
 476  676.8019
 477  565.0744
 478  623.6377
 479  614.2648
 480  552.2352
 481  507.257
 482  650.5956
 483  635.7826
 484  721.4
 485  725.4048
 486  644.84
 487  696.1834
 488  725.491
 489  737.6052
 490  693.2359
 491  687.0896
 492  656.4185
 493  685.8231
 494  676.2454
 495  626.4653
 496  608.1964
 497  628.1957
 498  679.7133
 499  690.1402
 500  682.1568
 501  666.4553
 502  703.3466
 503  664.4727
 504  673.6976
 505  619.4175
 506  594.0493
 507  713.0453
 508  748.0456
 509  722.8619
 510  616.8676
 511  663.8149
