# Input file       =  1182850506.116156_cleaned.dat
# Candidate        =  PSR_0332+5434
# Telescope        =  AR
# Epoch_topo       =  57934.399168011063
# Epoch_bary       =  N/A
# T_sample         =  0.002
# Data Folded      =  7340032
# Data Avg         =  0.0499791531687535
# Data StdDev      =  1.00012967130739 
# Profile Bins     =  512
# Profile Avg      =  716.531578503456 
# Profile StdDev   =  119.748562316131 
# Reduced chi-sqr  =  0.854
# Prob(Noise)      <  0.993   (~0.0 sigma)
# P_topo (ms)      =  714.490051246981  +/- 3.9e-05
# P'_topo (s/s)    =  -0                +/- 2.06e-11
# P''_topo (s/s^2) =  0                 +/- 9.09e-15
# P_bary (ms)      =  N/A
# P'_bary (s/s)    =  N/A
# P''_bary (s/s^2) =  N/A
# P_orb (s)        =  N/A
# asin(i)/c (s)    =  N/A
# eccentricity     =  N/A
# w (rad)          =  N/A
# T_peri           =  N/A
######################################################
   0  1097.318
   1  1069.233
   2  951.1171
   3  808.9528
   4  864.4444
   5  771.7549
   6  745.4242
   7  649.8971
   8  714.3554
   9  756.0549
  10  710.297
  11  634.5266
  12  659.8554
  13  774.7769
  14  884.2511
  15  865.4686
  16  738.7937
  17  740.463
  18  721.1172
  19  781.7576
  20  665.736
  21  639.2808
  22  761.8262
  23  848.468
  24  798.3865
  25  674.4329
  26  669.2685
  27  724.7214
  28  690.2468
  29  639.1775
  30  692.6292
  31  698.4599
  32  701.814
  33  745.4676
  34  690.5326
  35  668.2908
  36  736.372
  37  827.9129
  38  749.832
  39  675.6121
  40  649.1803
  41  733.6516
  42  770.9271
  43  761.4094
  44  572.7891
  45  656.0367
  46  770.346
  47  740.7874
  48  634.761
  49  667.6247
  50  675.5847
  51  816.0187
  52  880.688
  53  772.3624
  54  760.5799
  55  780.8502
  56  735.4521
  57  716.2483
  58  710.7457
  59  689.7387
  60  785.8535
  61  870.3581
  62  794.8961
  63  706.97
  64  726.3258
  65  691.0655
  66  765.8135
  67  706.3826
  68  676.261
  69  585.2748
  70  665.6032
  71  795.291
  72  749.3062
  73  598.1111
  74  665.4082
  75  819.3568
  76  871.0228
  77  762.4474
  78  688.509
  79  691.1666
  80  681.593
  81  709.0869
  82  641.0867
  83  600.8163
  84  594.2645
  85  729.753
  86  769.1968
  87  557.584
  88  640.267
  89  667.2778
  90  644.8381
  91  607.0216
  92  601.3361
  93  656.1383
  94  603.7527
  95  705.1102
  96  646.8676
  97  537.8944
  98  599.1244
  99  776.6379
 100  757.1617
 101  784.4201
 102  697.5242
 103  671.5167
 104  671.9552
 105  775.1584
 106  765.1354
 107  761.6959
 108  713.7172
 109  767.7917
 110  854.0568
 111  834.152
 112  792.6372
 113  787.9008
 114  753.8555
 115  710.5604
 116  681.5938
 117  691.8651
 118  749.869
 119  686.3748
 120  700.8648
 121  761.5724
 122  677.074
 123  704.8538
 124  633.106
 125  640.0933
 126  666.8424
 127  632.3881
 128  692.0021
 129  717.5912
 130  779.5974
 131  700.7899
 132  738.8522
 133  807.4201
 134  809.2836
 135  661.2975
 136  631.8391
 137  684.9358
 138  853.4222
 139  830.2943
 140  706.2444
 141  730.7944
 142  718.3261
 143  797.3751
 144  808.1419
 145  771.4268
 146  730.2436
 147  698.4032
 148  761.6102
 149  751.2155
 150  732.7609
 151  717.4819
 152  786.4482
 153  815.2097
 154  735.6458
 155  727.7972
 156  895.3864
 157  860.2172
 158  752.7623
 159  610.9908
 160  625.4805
 161  804.8256
 162  852.205
 163  753.3581
 164  625.6699
 165  659.5827
 166  738.0732
 167  773.0229
 168  638.2834
 169  607.7686
 170  608.4455
 171  716.1699
 172  731.8502
 173  661.14
 174  641.8462
 175  655.5858
 176  663.9263
 177  699.3297
 178  618.1494
 179  634.0488
 180  694.7299
 181  692.4418
 182  629.528
 183  647.2891
 184  556.1337
 185  556.1274
 186  574.9933
 187  702.4604
 188  565.313
 189  649.839
 190  799.142
 191  749.8517
 192  750.8831
 193  734.7429
 194  762.0638
 195  743.8157
 196  617.2148
 197  619.2928
 198  764.2364
 199  699.4731
 200  749.075
 201  893.0725
 202  854.7937
 203  736.272
 204  711.7698
 205  687.7838
 206  701.8135
 207  601.1027
 208  627.7153
 209  723.973
 210  631.5226
 211  631.9368
 212  622.1649
 213  755.4139
 214  729.9346
 215  629.5051
 216  501.0418
 217  497.4034
 218  732.3335
 219  643.4056
 220  653.2077
 221  664.123
 222  720.1145
 223  861.5145
 224  903.6877
 225  791.1937
 226  685.6152
 227  581.8907
 228  684.2948
 229  794.1936
 230  746.8148
 231  681.4341
 232  795.2222
 233  839.3883
 234  828.6356
 235  783.3138
 236  699.2495
 237  716.5873
 238  655.4759
 239  703.2945
 240  759.6771
 241  719.7198
 242  684.7622
 243  738.4869
 244  722.7343
 245  584.0499
 246  536.5138
 247  631.9297
 248  661.5014
 249  688.4388
 250  722.1804
 251  636.3508
 252  726.2534
 253  810.6915
 254  805.3298
 255  649.0304
 256  685.2203
 257  702.0321
 258  623.5486
 259  683.1364
 260  673.3135
 261  650.6992
 262  722.9532
 263  779.9594
 264  723.247
 265  696.9099
 266  681.1133
 267  838.6934
 268  752.137
 269  676.5148
 270  751.835
 271  845.2686
 272  765.3177
 273  624.6141
 274  646.3098
 275  739.0776
 276  793.5169
 277  740.2856
 278  661.7147
 279  573.4974
 280  699.2026
 281  765.823
 282  733.9863
 283  749.8329
 284  718.4926
 285  617.4894
 286  698.3557
 287  653.934
 288  604.7076
 289  678.2105
 290  722.0534
 291  663.6013
 292  616.6641
 293  714.1799
 294  654.0922
 295  665.5897
 296  646.0623
 297  608.6127
 298  526.1067
 299  683.0446
 300  694.4142
 301  654.0956
 302  666.7871
 303  688.9979
 304  518.49
 305  601.5366
 306  777.3487
 307  604.1257
 308  545.1903
 309  658.6447
 310  668.6639
 311  603.1936
 312  632.0207
 313  690.8958
 314  704.7019
 315  682.9955
 316  711.4236
 317  711.0661
 318  701.7538
 319  769.4319
 320  806.3257
 321  786.4343
 322  719.0065
 323  679.3167
 324  749.921
 325  786.9873
 326  764.4838
 327  581.336
 328  636.4349
 329  776.1361
 330  711.8527
 331  624.8008
 332  642.3032
 333  728.3259
 334  747.0424
 335  810.1215
 336  688.5851
 337  655.0947
 338  797.8484
 339  825.4534
 340  758.2259
 341  812.1377
 342  798.9037
 343  774.3992
 344  769.5516
 345  782.8143
 346  737.3533
 347  746.0803
 348  694.0228
 349  746.9975
 350  772.6804
 351  734.517
 352  740.1805
 353  707.2749
 354  740.8651
 355  643.3254
 356  708.2635
 357  781.0173
 358  746.9867
 359  649.2847
 360  640.2703
 361  729.35
 362  734.0109
 363  800.2239
 364  744.7533
 365  760.3611
 366  746.7283
 367  766.9033
 368  766.0522
 369  622.9285
 370  610.0704
 371  803.4426
 372  803.8572
 373  689.5278
 374  629.0856
 375  705.9379
 376  690.2053
 377  706.2115
 378  754.1924
 379  683.6516
 380  670.6854
 381  761.6934
 382  776.2103
 383  798.7745
 384  722.4083
 385  598.0384
 386  638.1957
 387  662.657
 388  595.3369
 389  560.2015
 390  631.6888
 391  727.3083
 392  762.6669
 393  626.0483
 394  632.5839
 395  606.7822
 396  632.6057
 397  756.6126
 398  804.6287
 399  862.3412
 400  822.0369
 401  700.9586
 402  673.1483
 403  692.4031
 404  759.8722
 405  741.2438
 406  733.8623
 407  708.324
 408  692.4244
 409  718.8412
 410  746.0337
 411  781.0229
 412  792.803
 413  806.61
 414  869.3958
 415  896.0507
 416  738.0391
 417  646.4572
 418  755.8152
 419  858.8057
 420  884.908
 421  826.098
 422  788.1533
 423  707.0843
 424  806.739
 425  782.8366
 426  711.5699
 427  697.6033
 428  785.4692
 429  794.0673
 430  740.262
 431  662.6203
 432  661.9252
 433  695.1006
 434  708.8285
 435  585.3358
 436  525.3146
 437  678.8546
 438  734.0023
 439  768.4602
 440  664.9981
 441  653.1509
 442  762.0034
 443  712.0918
 444  785.8039
 445  804.5312
 446  714.0219
 447  588.128
 448  743.6312
 449  881.5963
 450  876.4125
 451  800.7449
 452  753.012
 453  645.0782
 454  628.5559
 455  682.742
 456  687.576
 457  732.7859
 458  817.1593
 459  809.4557
 460  688.358
 461  671.8849
 462  686.3275
 463  753.9956
 464  763.0931
 465  672.6743
 466  630.5021
 467  669.3014
 468  673.6331
 469  720.0063
 470  694.566
 471  692.7121
 472  717.5401
 473  801.2864
 474  765.229
 475  620.7574
 476  578.1683
 477  628.1256
 478  719.1827
 479  679.7573
 480  517.0645
 481  627.4406
 482  695.4202
 483  724.7978
 484  761.1905
 485  811.4957
 486  801.7767
 487  691.2788
 488  701.9052
 489  759.5714
 490  777.8123
 491  772.4847
 492  800.1575
 493  798.348
 494  745.8774
 495  776.8781
 496  800.0937
 497  775.5475
 498  800.1553
 499  643.2256
 500  652.4606
 501  736.8121
 502  719.3892
 503  676.9951
 504  666.2121
 505  663.2253
 506  674.4768
 507  716.9684
 508  842.7299
 509  866.2996
 510  835.0512
 511  1058.416
