# Input file       =  1182490991.128987_cleaned.dat
# Candidate        =  PSR_0332+5434
# Telescope        =  AR
# Epoch_topo       =  57930.238114918830
# Epoch_bary       =  N/A
# T_sample         =  0.002
# Data Folded      =  7340032
# Data Avg         =  0.0411086861366482
# Data StdDev      =  1.00012749277156 
# Profile Bins     =  512
# Profile Avg      =  589.339970505818 
# Profile StdDev   =  119.748301473421 
# Reduced chi-sqr  =  0.997
# Prob(Noise)      <  0.508   (~0.0 sigma)
# P_topo (ms)      =  714.493187194054  +/- 4.96e-05
# P'_topo (s/s)    =  -0                +/- 2.62e-11
# P''_topo (s/s^2) =  0                 +/- 1.15e-14
# P_bary (ms)      =  N/A
# P'_bary (s/s)    =  N/A
# P''_bary (s/s^2) =  N/A
# P_orb (s)        =  N/A
# asin(i)/c (s)    =  N/A
# eccentricity     =  N/A
# w (rad)          =  N/A
# T_peri           =  N/A
######################################################
   0  1053.249
   1  995.0627
   2  966.8635
   3  867.0531
   4  697.2463
   5  649.5731
   6  622.4348
   7  671.1282
   8  709.4116
   9  614.1098
  10  585.7565
  11  651.4041
  12  703.7213
  13  745.5402
  14  768.2606
  15  714.077
  16  672.377
  17  633.2634
  18  703.2193
  19  685.8431
  20  672.0876
  21  612.3
  22  598.043
  23  631.7045
  24  602.3411
  25  654.2633
  26  684.5325
  27  631.5443
  28  550.5824
  29  551.7862
  30  528.413
  31  532.4529
  32  553.428
  33  605.4814
  34  572.9067
  35  633.438
  36  597.0417
  37  661.8276
  38  741.6004
  39  740.0063
  40  717.6201
  41  709.4526
  42  737.1403
  43  623.796
  44  590.3968
  45  606.6332
  46  681.9315
  47  667.5203
  48  786.6969
  49  701.0638
  50  677.6805
  51  692.5135
  52  618.7329
  53  545.8909
  54  505.1552
  55  504.2382
  56  640.6565
  57  708.7928
  58  681.6719
  59  607.1841
  60  558.6491
  61  543.8981
  62  533.9066
  63  586.1307
  64  639.0455
  65  649.8588
  66  744.0015
  67  661.024
  68  570.8076
  69  578.5383
  70  596.9445
  71  595.9087
  72  540.879
  73  570.9351
  74  676.0629
  75  686.3394
  76  630.6227
  77  577.3849
  78  548.6116
  79  585.0653
  80  577.0934
  81  641.8352
  82  560.3869
  83  445.2686
  84  463.3445
  85  534.7296
  86  458.6674
  87  453.6194
  88  522.8762
  89  609.851
  90  598.4938
  91  576.3771
  92  503.8415
  93  502.0551
  94  569.3381
  95  644.0048
  96  582.5215
  97  491.7171
  98  503.3087
  99  544.6698
 100  583.1612
 101  617.4056
 102  586.0995
 103  559.884
 104  662.6119
 105  685.2458
 106  638.8805
 107  679.4948
 108  668.0579
 109  708.183
 110  650.7713
 111  521.9365
 112  522.8087
 113  584.0351
 114  622.8948
 115  609.1986
 116  561.3498
 117  627.0839
 118  631.7136
 119  568.0311
 120  488.5073
 121  515.6137
 122  542.6419
 123  673.2889
 124  764.144
 125  656.5522
 126  561.842
 127  476.8153
 128  579.2295
 129  748.4155
 130  726.3007
 131  566.1013
 132  502.5771
 133  577.3414
 134  540.4807
 135  470.3144
 136  564.9628
 137  636.4506
 138  673.1444
 139  631.9769
 140  580.0021
 141  552.1266
 142  636.6235
 143  650.4615
 144  623.2183
 145  473.651
 146  578.6025
 147  607.9572
 148  572.9153
 149  556.5384
 150  640.1933
 151  661.053
 152  637.5117
 153  534.4828
 154  527.8996
 155  456.1339
 156  522.2349
 157  569.4733
 158  502.8422
 159  490.4833
 160  518.0522
 161  566.5008
 162  537.3972
 163  454.978
 164  517.6083
 165  508.7234
 166  584.3394
 167  611.3221
 168  557.1037
 169  508.4223
 170  655.8406
 171  725.8102
 172  722.4662
 173  643.6916
 174  593.0717
 175  582.334
 176  619.0475
 177  557.3377
 178  565.7268
 179  585.2839
 180  715.6965
 181  727.2296
 182  609.9526
 183  578.4098
 184  521.7587
 185  610.0315
 186  651.2404
 187  550.5507
 188  563.9613
 189  638.9907
 190  651.2988
 191  610.7091
 192  608.6642
 193  541.7467
 194  554.9461
 195  674.8115
 196  606.6909
 197  654.5491
 198  601.704
 199  575.7538
 200  617.5988
 201  610.7786
 202  530.4597
 203  454.0598
 204  578.6425
 205  669.8089
 206  565.1277
 207  524.1789
 208  624.6368
 209  685.5608
 210  707.7616
 211  667.1046
 212  479.6219
 213  498.1893
 214  609.5026
 215  583.2963
 216  562.978
 217  514.6046
 218  512.5709
 219  617.8724
 220  600.7111
 221  587.7996
 222  679.7592
 223  732.9421
 224  607.3429
 225  583.0027
 226  513.2851
 227  541.7332
 228  589.126
 229  604.3709
 230  571.0395
 231  653.6599
 232  710.0212
 233  761.3262
 234  664.6821
 235  662.0542
 236  694.5797
 237  703.7571
 238  679.4377
 239  681.1886
 240  569.4573
 241  541.4009
 242  549.9047
 243  509.1081
 244  521.7651
 245  528.3555
 246  517.0989
 247  638.5163
 248  539.7224
 249  484.2832
 250  519.763
 251  488.0835
 252  530.4987
 253  461.8262
 254  437.2178
 255  452.6736
 256  585.6159
 257  662.1315
 258  621.12
 259  580.4177
 260  532.7024
 261  594.3346
 262  647.4832
 263  640.9401
 264  560.8024
 265  563.0917
 266  520.8356
 267  600.3794
 268  620.6183
 269  524.94
 270  505.062
 271  577.2126
 272  540.7452
 273  609.6516
 274  562.6707
 275  531.6407
 276  510.8949
 277  490.9124
 278  492.5642
 279  593.7244
 280  575.0431
 281  520.9388
 282  478.1766
 283  367.9029
 284  405.4135
 285  453.0287
 286  559.6061
 287  489.8621
 288  484.3469
 289  446.8151
 290  495.9941
 291  525.759
 292  555.0938
 293  483.5181
 294  485.4914
 295  592.5804
 296  569.024
 297  499.7834
 298  504.4148
 299  563.6707
 300  640.6656
 301  653.8478
 302  499.8684
 303  475.1348
 304  515.0525
 305  586.3734
 306  480.6154
 307  487.8542
 308  469.4677
 309  507.0747
 310  539.2978
 311  594.0695
 312  521.2672
 313  563.3688
 314  552.2006
 315  496.4396
 316  410.4189
 317  476.1653
 318  524.0919
 319  563.9896
 320  622.9771
 321  521.0324
 322  498.8947
 323  480.2412
 324  473.79
 325  462.4704
 326  600.2711
 327  648.0497
 328  630.1191
 329  592.922
 330  586.0799
 331  638.0408
 332  466.0198
 333  542.3076
 334  588.7538
 335  617.8262
 336  477.3228
 337  454.8047
 338  537.0245
 339  522.5802
 340  583.5831
 341  522.4208
 342  646.7047
 343  742.5732
 344  772.8218
 345  682.6917
 346  568.4965
 347  554.0508
 348  569.9691
 349  563.3378
 350  437.3896
 351  500.0927
 352  611.7947
 353  576.803
 354  503.392
 355  534.9497
 356  623.2512
 357  666.2975
 358  632.9709
 359  521.0389
 360  606.8528
 361  605.7532
 362  646.5742
 363  624.0775
 364  639.2725
 365  675.9088
 366  738.7433
 367  722.9402
 368  583.4271
 369  565.9974
 370  634.9786
 371  583.1641
 372  647.5141
 373  603.3757
 374  572.7025
 375  562.9421
 376  676.0387
 377  624.9858
 378  626.257
 379  605.8409
 380  541.2146
 381  622.578
 382  699.0322
 383  630.8461
 384  562.0293
 385  598.8257
 386  625.5088
 387  590.7075
 388  562.1731
 389  525.8561
 390  477.3653
 391  570.8458
 392  672.5475
 393  598.5849
 394  534.92
 395  463.2481
 396  558.1625
 397  651.2225
 398  536.8433
 399  530.371
 400  616.0928
 401  606.8928
 402  515.4501
 403  480.616
 404  531.6931
 405  618.3109
 406  584.5607
 407  612.6941
 408  449.4382
 409  552.3359
 410  611.1152
 411  575.2443
 412  525.2288
 413  493.326
 414  549.9203
 415  575.3434
 416  569.4213
 417  599.117
 418  563.8384
 419  591.0325
 420  618.7441
 421  630.0654
 422  539.5464
 423  532.868
 424  630.3497
 425  660.7334
 426  676.4255
 427  639.3768
 428  602.6548
 429  607.5248
 430  567.8846
 431  482.6547
 432  475.8896
 433  370.1754
 434  466.3591
 435  626.5698
 436  542.918
 437  554.9092
 438  553.4038
 439  634.8094
 440  627.4801
 441  666.8246
 442  524.6445
 443  599.7338
 444  566.798
 445  577.7158
 446  644.5599
 447  626.5256
 448  538.4211
 449  649.6407
 450  617.9041
 451  632.868
 452  562.0828
 453  583.9731
 454  586.5873
 455  525.699
 456  538.152
 457  591.8776
 458  612.6695
 459  539.9528
 460  434.096
 461  404.7199
 462  531.9188
 463  528.6807
 464  526.7317
 465  542.5436
 466  525.5942
 467  540.7103
 468  577.4691
 469  518.2507
 470  540.5016
 471  522.5245
 472  598.9959
 473  556.4469
 474  468.551
 475  485.2563
 476  569.0024
 477  585.6116
 478  514.17
 479  431.4399
 480  480.9813
 481  518.2314
 482  595.9625
 483  576.8161
 484  505.4147
 485  650.0795
 486  698.4046
 487  655.1343
 488  513.0121
 489  495.0396
 490  622.8996
 491  690.2389
 492  724.4658
 493  683.6154
 494  613.5749
 495  620.5046
 496  621.4841
 497  586.2917
 498  502.3287
 499  534.5607
 500  543.0689
 501  583.8336
 502  683.2018
 503  563.3329
 504  587.6909
 505  713.225
 506  745.9678
 507  669.7551
 508  753.2058
 509  841.556
 510  1046.39
 511  1030.019
