# Input file       =  1182921607.112785_cleaned.dat
# Candidate        =  PSR_0332+5434
# Telescope        =  AR
# Epoch_topo       =  57935.222096212790
# Epoch_bary       =  N/A
# T_sample         =  0.002
# Data Folded      =  7340032
# Data Avg         =  0.0443238558111983
# Data StdDev      =  1.0001291799854  
# Profile Bins     =  512
# Profile Avg      =  635.446568538914 
# Profile StdDev   =  119.748503488658 
# Reduced chi-sqr  =  1.111
# Prob(Noise)      <  0.0419   (~1.7 sigma)
# P_topo (ms)      =  714.489050210427  +/- 0.000421
# P'_topo (s/s)    =  -0                +/- 2.22e-10
# P''_topo (s/s^2) =  0                 +/- 9.8e-14
# P_bary (ms)      =  N/A
# P'_bary (s/s)    =  N/A
# P''_bary (s/s^2) =  N/A
# P_orb (s)        =  N/A
# asin(i)/c (s)    =  N/A
# eccentricity     =  N/A
# w (rad)          =  N/A
# T_peri           =  N/A
######################################################
   0  1136.116
   1  1101.048
   2  924.7541
   3  786.3044
   4  725.1974
   5  621.6529
   6  520.1154
   7  597.7643
   8  570.8027
   9  580.1989
  10  679.3052
  11  653.0424
  12  583.6666
  13  537.8439
  14  686.4225
  15  597.1407
  16  591.3748
  17  608.3876
  18  579.4766
  19  596.3822
  20  611.0355
  21  619.4016
  22  664.6343
  23  638.0974
  24  661.4439
  25  673.3566
  26  693.119
  27  702.2205
  28  749.5024
  29  720.9771
  30  653.6071
  31  615.0348
  32  704.2047
  33  608.1295
  34  687.9145
  35  706.7902
  36  688.2324
  37  625.5182
  38  585.1415
  39  538.1756
  40  643.7026
  41  681.713
  42  653.3681
  43  682.8721
  44  725.5585
  45  631.9645
  46  554.7848
  47  554.8403
  48  482.8866
  49  489.3636
  50  618.3438
  51  527.858
  52  560.7614
  53  508.7799
  54  507.8033
  55  569.5034
  56  626.7371
  57  645.5594
  58  517.3021
  59  501.7137
  60  468.2534
  61  405.1242
  62  339.6222
  63  522.1084
  64  620.7412
  65  631.9911
  66  563.3333
  67  534.0767
  68  507.9646
  69  500.9086
  70  574.3583
  71  580.9177
  72  537.6265
  73  472.0031
  74  518.2733
  75  572.5594
  76  639.355
  77  606.1989
  78  539.8837
  79  609.2383
  80  640.661
  81  653.9344
  82  539.1292
  83  487.7731
  84  592.5115
  85  656.3906
  86  633.699
  87  602.1697
  88  576.5276
  89  524.0026
  90  549.2324
  91  641.0293
  92  666.8387
  93  677.604
  94  633.8769
  95  739.6464
  96  751.2141
  97  692.1778
  98  658.1524
  99  665.2327
 100  738.4861
 101  727.1453
 102  726.7919
 103  762.6508
 104  615.0585
 105  489.1679
 106  707.8621
 107  623.7628
 108  572.8506
 109  740.4731
 110  743.2827
 111  614.9668
 112  584.715
 113  545.073
 114  633.9136
 115  585.6652
 116  606.7122
 117  716.6382
 118  563.3852
 119  547.8585
 120  671.3356
 121  697.8747
 122  672.0081
 123  678.1454
 124  718.0482
 125  782.3776
 126  748.6614
 127  570.4376
 128  632.0156
 129  678.8551
 130  589.3957
 131  620.3862
 132  615.9443
 133  612.7777
 134  636.1989
 135  612.6051
 136  696.7729
 137  623.7344
 138  628.4847
 139  689.2538
 140  739.3369
 141  613.3569
 142  621.4512
 143  636.1664
 144  596.2182
 145  637.2048
 146  640.4881
 147  639.1773
 148  536.0264
 149  487.1851
 150  605.2795
 151  740.5559
 152  663.2128
 153  520.7244
 154  574.2263
 155  682.5734
 156  690.4422
 157  625.4453
 158  591.4596
 159  531.7198
 160  501.9404
 161  604.9961
 162  613.3372
 163  529.5398
 164  538.9869
 165  629.1716
 166  678.101
 167  656.5618
 168  670.7583
 169  648.0398
 170  675.1202
 171  739.2413
 172  718.28
 173  694.87
 174  684.8002
 175  711.485
 176  662.4265
 177  765.9933
 178  820.9385
 179  708.2232
 180  742.4283
 181  675.9437
 182  679.7416
 183  587.7159
 184  582.9633
 185  579.5185
 186  681.9762
 187  662.5446
 188  646.1376
 189  685.9498
 190  631.4188
 191  596.6936
 192  537.4973
 193  518.5275
 194  568.894
 195  605.4701
 196  666.1988
 197  588.3349
 198  524.9294
 199  507.5058
 200  462.0085
 201  594.0543
 202  748.0931
 203  746.948
 204  591.7729
 205  502.9732
 206  548.585
 207  610.9172
 208  703.3799
 209  664.5828
 210  623.9896
 211  648.5695
 212  570.772
 213  495.8494
 214  537.6335
 215  576.8848
 216  637.6714
 217  556.1599
 218  538.4404
 219  585.7183
 220  600.9313
 221  616.8956
 222  765.1187
 223  797.8205
 224  743.7465
 225  733.5982
 226  626.9771
 227  725.1271
 228  835.0157
 229  766.3964
 230  730.1505
 231  748.8408
 232  702.9124
 233  682.5954
 234  592.9182
 235  600.79
 236  591.5034
 237  628.9943
 238  693.7324
 239  661.6313
 240  601.5012
 241  688.6185
 242  729.3814
 243  631.9719
 244  579.1602
 245  592.1971
 246  719.147
 247  688.3497
 248  598.4968
 249  586.8032
 250  553.8665
 251  606.9095
 252  678.3342
 253  551.8989
 254  586.678
 255  582.85
 256  562.9993
 257  632.1566
 258  736.6843
 259  680.3934
 260  682.4888
 261  769.1458
 262  799.6803
 263  764.0637
 264  694.1663
 265  640.4929
 266  735.4048
 267  653.4217
 268  641.5692
 269  678.8254
 270  723.4875
 271  653.7022
 272  632.0413
 273  703.7397
 274  660.4416
 275  638.8871
 276  620.9626
 277  697.077
 278  765.0617
 279  749.5385
 280  775.3679
 281  686.2702
 282  669.3853
 283  770.149
 284  779.5112
 285  771.7972
 286  598.1038
 287  595.2174
 288  697.5052
 289  741.3931
 290  701.6303
 291  663.9363
 292  748.4489
 293  668.5909
 294  649.2691
 295  636.3865
 296  629.9615
 297  611.7276
 298  721.2531
 299  708.3248
 300  576.8021
 301  618.2809
 302  775.5881
 303  725.2349
 304  682.9635
 305  646.7985
 306  684.8156
 307  619.1317
 308  632.3857
 309  678.6324
 310  653.7545
 311  680.9765
 312  709.5701
 313  613.9011
 314  700.0783
 315  711.6985
 316  783.6345
 317  712.7056
 318  818.5894
 319  665.3041
 320  503.4987
 321  677.8625
 322  831.1368
 323  850.7039
 324  815.6455
 325  727.7137
 326  635.0621
 327  606.0678
 328  684.0543
 329  783.4426
 330  699.4368
 331  770.9122
 332  757.7646
 333  745.6399
 334  712.0328
 335  577.2126
 336  601.2181
 337  575.5465
 338  609.7499
 339  722.5811
 340  621.8833
 341  730.3407
 342  785.5465
 343  781.9456
 344  794.9109
 345  786.6282
 346  679.3235
 347  744.0765
 348  711.4611
 349  706.7418
 350  758.98
 351  684.9515
 352  656.7991
 353  710.6818
 354  718.0895
 355  680.8772
 356  668.2242
 357  600.3582
 358  678.5732
 359  665.7502
 360  662.8787
 361  764.3189
 362  699.533
 363  745.7116
 364  600.4947
 365  602.9841
 366  604.1153
 367  633.9869
 368  588.8055
 369  648.9938
 370  613.3018
 371  492.5467
 372  569.9146
 373  658.9974
 374  649.0275
 375  606.7107
 376  619.0137
 377  585.6906
 378  605.0639
 379  690.9843
 380  647.2996
 381  659.9679
 382  655.3061
 383  686.4501
 384  578.0079
 385  587.1643
 386  629.6079
 387  721.1984
 388  699.1613
 389  605.6487
 390  523.2321
 391  579.6011
 392  605.4944
 393  682.4405
 394  678.7571
 395  642.4232
 396  551.9415
 397  596.4962
 398  625.6134
 399  632.6389
 400  664.4246
 401  615.6694
 402  545.1666
 403  623.0045
 404  499.7292
 405  431.1333
 406  462.3232
 407  600.5865
 408  621.5463
 409  618.1948
 410  574.7288
 411  535.1517
 412  455.7072
 413  523.6578
 414  528.7411
 415  495.1418
 416  468.6845
 417  468.467
 418  524.1059
 419  532.1393
 420  615.7332
 421  585.1674
 422  530.8531
 423  526.7898
 424  492.818
 425  613.8916
 426  667.0334
 427  548.2104
 428  460.7208
 429  535.2502
 430  591.9616
 431  709.0336
 432  642.5335
 433  588.9606
 434  543.2708
 435  532.5935
 436  579.6208
 437  539.739
 438  571.7827
 439  619.417
 440  595.5056
 441  577.452
 442  545.7375
 443  643.0978
 444  700.0089
 445  517.4825
 446  463.8052
 447  616.4195
 448  657.3788
 449  534.8425
 450  464.3259
 451  581.1365
 452  545.796
 453  572.758
 454  466.2214
 455  495.6481
 456  655.3617
 457  633.0073
 458  513.1176
 459  523.6026
 460  556.4627
 461  563.576
 462  480.2118
 463  551.1271
 464  594.4398
 465  585.5283
 466  567.9983
 467  679.7355
 468  601.6596
 469  739.5337
 470  646.3757
 471  584.6758
 472  624.4379
 473  609.3711
 474  648.947
 475  606.454
 476  559.8207
 477  623.8391
 478  664.8941
 479  679.3091
 480  549.6613
 481  490.4858
 482  502.9019
 483  504.5619
 484  617.0485
 485  587.8536
 486  505.3504
 487  584.4757
 488  576.6549
 489  511.0815
 490  534.4796
 491  478.0412
 492  617.5414
 493  656.519
 494  700.0689
 495  608.0108
 496  653.0892
 497  662.0785
 498  714.1575
 499  756.206
 500  783.2568
 501  610.7629
 502  641.928
 503  661.5313
 504  612.3448
 505  631.1756
 506  665.3779
 507  690.0873
 508  692.8105
 509  853.4363
 510  1014.439
 511  1090.603
