# Input file       =  1182404838.106733_cleaned.dat
# Candidate        =  PSR_0332+5434
# Telescope        =  AR
# Epoch_topo       =  57929.240973457556
# Epoch_bary       =  N/A
# T_sample         =  0.002
# Data Folded      =  7340032
# Data Avg         =  0.0469556174057087
# Data StdDev      =  1.00014711564416 
# Profile Bins     =  512
# Profile Avg      =  673.14689157492  
# Profile StdDev   =  119.75065097954  
# Reduced chi-sqr  =  1.066
# Prob(Noise)      <  0.146   (~1.1 sigma)
# P_topo (ms)      =  714.494043178087  +/- 0.000233
# P'_topo (s/s)    =  -0                +/- 1.23e-10
# P''_topo (s/s^2) =  0                 +/- 5.43e-14
# P_bary (ms)      =  N/A
# P'_bary (s/s)    =  N/A
# P''_bary (s/s^2) =  N/A
# P_orb (s)        =  N/A
# asin(i)/c (s)    =  N/A
# eccentricity     =  N/A
# w (rad)          =  N/A
# T_peri           =  N/A
######################################################
   0  1095.431
   1  1060.07
   2  1064.7
   3  856.1871
   4  602.3147
   5  659.9459
   6  678.6758
   7  632.6087
   8  611.1634
   9  652.5089
  10  794.6743
  11  782.4178
  12  732.5151
  13  735.8135
  14  835.2756
  15  759.9315
  16  733.7739
  17  688.9447
  18  676.4065
  19  629.9001
  20  622.7328
  21  637.7607
  22  726.0582
  23  717.1821
  24  612.1
  25  601.5829
  26  606.1236
  27  633.2039
  28  556.4557
  29  631.0623
  30  663.4736
  31  508.3932
  32  515.5945
  33  593.9213
  34  575.7032
  35  660.4166
  36  633.627
  37  622.6356
  38  581.4146
  39  625.3551
  40  685.2792
  41  618.0266
  42  623.6694
  43  553.6494
  44  571.7834
  45  677.9191
  46  655.6964
  47  683.6188
  48  749.1576
  49  696.7914
  50  676.6656
  51  682.6267
  52  768.663
  53  814.6267
  54  806.0458
  55  643.0098
  56  672.3429
  57  618.9147
  58  664.2302
  59  592.6386
  60  595.2585
  61  641.2031
  62  670.7755
  63  718.4406
  64  693.2653
  65  533.8113
  66  652.6046
  67  618.485
  68  608.8102
  69  638.5497
  70  680.1135
  71  674.4493
  72  741.9169
  73  721.4272
  74  608.176
  75  586.9431
  76  643.6823
  77  588.403
  78  646.6628
  79  606.5776
  80  630.8144
  81  562.8011
  82  590.2256
  83  619.2974
  84  616.3989
  85  635.3045
  86  643.8074
  87  585.7095
  88  569.5554
  89  600.7394
  90  578.0232
  91  573.4714
  92  583.4706
  93  707.752
  94  770.0236
  95  718.8828
  96  707.6849
  97  736.079
  98  627.4498
  99  730.511
 100  751.7021
 101  725.3769
 102  713.6752
 103  674.442
 104  705.0479
 105  744.0975
 106  667.4409
 107  601.3497
 108  521.7997
 109  573.1182
 110  576.9192
 111  527.7981
 112  563.7921
 113  631.6875
 114  635.0595
 115  691.6948
 116  644.1625
 117  747.5182
 118  739.7386
 119  716.3097
 120  687.908
 121  713.151
 122  708.1534
 123  669.678
 124  597.179
 125  612.614
 126  595.0291
 127  594.138
 128  597.4725
 129  623.7487
 130  717.1301
 131  670.1341
 132  638.2419
 133  719.3316
 134  796.951
 135  777.9429
 136  743.8762
 137  685.3708
 138  744.2612
 139  769.1963
 140  722.1656
 141  677.817
 142  608.65
 143  651.7167
 144  725.0118
 145  713.9322
 146  781.4009
 147  656.4768
 148  629.4324
 149  672.8582
 150  659.6799
 151  701.7874
 152  729.0549
 153  772.1288
 154  796.4443
 155  720.1888
 156  732.6196
 157  726.6516
 158  618.4244
 159  658.5326
 160  606.9411
 161  561.2534
 162  606.931
 163  555.8829
 164  578.1811
 165  621.259
 166  719.4941
 167  616.0641
 168  660.4836
 169  613.2277
 170  632.6832
 171  710.4926
 172  653.5289
 173  703.354
 174  651.6973
 175  682.6897
 176  705.3508
 177  680.048
 178  655.6747
 179  817.4967
 180  769.8759
 181  779.5479
 182  835.7441
 183  826.5158
 184  684.2994
 185  721.001
 186  837.8429
 187  835.6588
 188  835.8418
 189  808.6429
 190  791.3497
 191  782.3317
 192  787.5628
 193  660.2593
 194  665.0931
 195  637.8292
 196  640.4666
 197  761.0664
 198  642.5615
 199  608.8003
 200  599.5015
 201  659.418
 202  691.1
 203  710.5467
 204  673.8261
 205  674.0156
 206  669.1708
 207  790.3867
 208  692.4432
 209  650.0967
 210  643.3056
 211  680.6385
 212  695.1299
 213  666.004
 214  689.2802
 215  598.3625
 216  535.8303
 217  594.6468
 218  645.762
 219  764.4803
 220  687.8951
 221  783.1809
 222  845.8442
 223  730.2383
 224  685.6923
 225  694.5139
 226  766.749
 227  682.0469
 228  696.2849
 229  730.7726
 230  705.0833
 231  708.9588
 232  675.2638
 233  774.5057
 234  872.384
 235  780.238
 236  607.209
 237  697.5413
 238  611.7021
 239  614.7966
 240  567.3021
 241  601.7897
 242  656.8371
 243  697.8137
 244  712.824
 245  609.0255
 246  499.0188
 247  520.5972
 248  561.3358
 249  609.4648
 250  657.1456
 251  722.576
 252  664.3259
 253  614.6384
 254  655.3073
 255  718.7676
 256  677.3152
 257  662.888
 258  709.8409
 259  703.4269
 260  649.0972
 261  617.4413
 262  602.4656
 263  631.4354
 264  750.1655
 265  732.7178
 266  776.6498
 267  751.9025
 268  691.8151
 269  779.3666
 270  759.1176
 271  755.5286
 272  780.5398
 273  761.8077
 274  732.1945
 275  706.0219
 276  725.4573
 277  729.8259
 278  783.7712
 279  820.8152
 280  739.7047
 281  687.3168
 282  731.9608
 283  607.3986
 284  577.1946
 285  657.4753
 286  716.2819
 287  740.2113
 288  595.5679
 289  671.6165
 290  664.0599
 291  624.9711
 292  621.8931
 293  591.2853
 294  535.6524
 295  534.1765
 296  624.8632
 297  680.7928
 298  729.3979
 299  525.3533
 300  508.3488
 301  567.4756
 302  686.7497
 303  684.519
 304  722.0868
 305  806.8178
 306  722.8453
 307  636.0658
 308  604.5707
 309  688.7273
 310  685.1146
 311  635.7206
 312  650.7105
 313  670.5958
 314  640.8818
 315  615.334
 316  635.7058
 317  572.4386
 318  639.3057
 319  581.7184
 320  602.5459
 321  689.4459
 322  639.1932
 323  703.4857
 324  657.3834
 325  564.5396
 326  553.7974
 327  708.6
 328  649.5377
 329  626.9908
 330  617.3066
 331  617.2935
 332  637.8994
 333  683.7475
 334  635.285
 335  650.6257
 336  627.529
 337  642.6594
 338  715.9002
 339  678.2174
 340  661.3505
 341  739.2946
 342  766.0737
 343  837.0054
 344  765.95
 345  731.8573
 346  781.3933
 347  775.2808
 348  781.0381
 349  735.7316
 350  762.9194
 351  804.3126
 352  760.1179
 353  738.8934
 354  843.2115
 355  847.4559
 356  851.4277
 357  821.0141
 358  670.1873
 359  715.3128
 360  713.6308
 361  696.8369
 362  694.4706
 363  725.6906
 364  745.5756
 365  802.5598
 366  747.1445
 367  780.783
 368  715.1818
 369  610.92
 370  599.9297
 371  691.838
 372  728.1025
 373  717.1289
 374  636.5386
 375  654.1733
 376  626.444
 377  631.949
 378  634.7328
 379  703.705
 380  629.4237
 381  581.5205
 382  604.1037
 383  673.9619
 384  666.5356
 385  761.1336
 386  790.6806
 387  744.264
 388  715.9067
 389  661.489
 390  705.7362
 391  683.0211
 392  803.2593
 393  976.5867
 394  991.6849
 395  890.4737
 396  851.1653
 397  800.6658
 398  755.0849
 399  665.8474
 400  750.2065
 401  794.1212
 402  723.7966
 403  612.511
 404  687.2264
 405  636.3745
 406  671.8162
 407  694.6444
 408  577.6509
 409  574.5378
 410  647.8837
 411  772.804
 412  742.595
 413  674.4457
 414  606.3605
 415  577.3324
 416  536.2443
 417  591.2872
 418  630.1476
 419  650.3239
 420  670.6425
 421  689.7359
 422  744.4139
 423  704.9759
 424  697.7
 425  652.9928
 426  638.3448
 427  687.0663
 428  684.1296
 429  681.9615
 430  617.6372
 431  643.2582
 432  706.1048
 433  765.3715
 434  706.45
 435  701.1196
 436  652.2036
 437  661.3159
 438  758.9839
 439  639.8962
 440  640.7946
 441  638.5507
 442  673.0181
 443  652.861
 444  622.2988
 445  712.5317
 446  715.5231
 447  696.0505
 448  677.2711
 449  548.5192
 450  521.0107
 451  485.3083
 452  428.5077
 453  566.4454
 454  599.996
 455  561.139
 456  464.6527
 457  549.9492
 458  545.8556
 459  564.0252
 460  514.8585
 461  525.9762
 462  507.9073
 463  545.2931
 464  599.1038
 465  616.0984
 466  482.5991
 467  554.7548
 468  571.263
 469  538.5665
 470  476.1812
 471  509.0415
 472  541.7665
 473  652.8713
 474  728.3591
 475  659.0248
 476  623.6299
 477  578.1755
 478  694.4712
 479  691.6294
 480  684.1533
 481  690.2414
 482  688.3638
 483  563.8489
 484  592.1671
 485  694.2319
 486  650.1863
 487  611.2225
 488  592.7411
 489  551.3194
 490  636.0865
 491  663.0525
 492  672.8974
 493  568.6077
 494  572.9639
 495  645.6405
 496  582.4763
 497  625.0146
 498  625.6042
 499  593.3657
 500  567.5689
 501  529.0172
 502  608.6578
 503  570.6254
 504  591.9573
 505  539.381
 506  581.8671
 507  664.4324
 508  758.577
 509  847.7023
 510  1003.865
 511  1165.852
