# Input file       =  1182835593.123291_cleaned.dat
# Candidate        =  PSR_0332+5434
# Telescope        =  AR
# Epoch_topo       =  57934.226563926983
# Epoch_bary       =  N/A
# T_sample         =  0.002
# Data Folded      =  7340032
# Data Avg         =  0.040703191823729
# Data StdDev      =  1.00004036931075 
# Profile Bins     =  512
# Profile Avg      =  583.543249571929 
# Profile StdDev   =  119.737869916919 
# Reduced chi-sqr  =  1.028
# Prob(Noise)      <  0.323   (~0.5 sigma)
# P_topo (ms)      =  714.489858525652  +/- 0.000547
# P'_topo (s/s)    =  -0                +/- 2.88e-10
# P''_topo (s/s^2) =  0                 +/- 1.27e-13
# P_bary (ms)      =  N/A
# P'_bary (s/s)    =  N/A
# P''_bary (s/s^2) =  N/A
# P_orb (s)        =  N/A
# asin(i)/c (s)    =  N/A
# eccentricity     =  N/A
# w (rad)          =  N/A
# T_peri           =  N/A
######################################################
   0  1111.24
   1  995.718
   2  858.7165
   3  730.2529
   4  635.9308
   5  604.7686
   6  566.133
   7  508.1181
   8  552.8668
   9  665.9599
  10  629.4556
  11  469.8591
  12  553.1343
  13  586.063
  14  581.5635
  15  610.8478
  16  548.3776
  17  426.8754
  18  457.1053
  19  537.0881
  20  581.8811
  21  488.0786
  22  482.2533
  23  446.034
  24  477.0901
  25  561.9622
  26  428.5376
  27  410.2417
  28  530.5789
  29  542.9671
  30  559.6924
  31  605.7425
  32  567.7719
  33  574.1992
  34  566.077
  35  504.4604
  36  521.4969
  37  621.441
  38  571.6925
  39  484.7932
  40  505.8154
  41  503.1638
  42  507.87
  43  467.7804
  44  442.8162
  45  522.5704
  46  573.7488
  47  570.7771
  48  589.5202
  49  561.0671
  50  671.8392
  51  604.8058
  52  586.9541
  53  529.2632
  54  528.4028
  55  653.4527
  56  712.5109
  57  633.4618
  58  659.8344
  59  515.0123
  60  550.7404
  61  661.4005
  62  620.6426
  63  652.4706
  64  714.6066
  65  583.4186
  66  570.7687
  67  571.7637
  68  550.9072
  69  543.4655
  70  616.3499
  71  699.7989
  72  680.798
  73  717.491
  74  647.2783
  75  581.3378
  76  639.0841
  77  690.3092
  78  689.1307
  79  532.5322
  80  571.3511
  81  650.5787
  82  674.6398
  83  626.9807
  84  628.0399
  85  538.9537
  86  412.6606
  87  508.6684
  88  675.2714
  89  719.2943
  90  717.4412
  91  538.392
  92  401.798
  93  433.6576
  94  407.538
  95  425.4785
  96  481.473
  97  525.6211
  98  533.3994
  99  450.9844
 100  480.7924
 101  543.4345
 102  434.2565
 103  515.8921
 104  558.3872
 105  507.7141
 106  565.9771
 107  602.3115
 108  515.678
 109  531.4113
 110  520.241
 111  483.8305
 112  572.5262
 113  611.8069
 114  670.6401
 115  509.3963
 116  518.8627
 117  569.0253
 118  620.5452
 119  616.4342
 120  592.9958
 121  552.0466
 122  518.9918
 123  507.0614
 124  515.559
 125  573.6514
 126  470.1929
 127  427.6205
 128  460.0655
 129  507.8594
 130  545.4459
 131  566.7297
 132  538.1678
 133  519.79
 134  525.0439
 135  641.9091
 136  617.0718
 137  621.2025
 138  593.1053
 139  494.4119
 140  531.3646
 141  522.1049
 142  543.868
 143  597.2703
 144  548.5869
 145  473.3287
 146  499.2385
 147  546.8233
 148  615.5609
 149  578.683
 150  534.7941
 151  510.9152
 152  583.3631
 153  589.004
 154  532.7619
 155  632.4763
 156  604.9729
 157  642.9183
 158  595.5631
 159  449.638
 160  510.1106
 161  567.0624
 162  532.2256
 163  525.2924
 164  578.6575
 165  569.9437
 166  589.6163
 167  627.5749
 168  395.0769
 169  473.5898
 170  539.5312
 171  636.242
 172  602.6921
 173  494.8048
 174  641.9188
 175  536.6261
 176  470.7762
 177  514.835
 178  540.6627
 179  548.9578
 180  607.6398
 181  595.2326
 182  494.1165
 183  442.2508
 184  508.8423
 185  559.4088
 186  608.2775
 187  607.3632
 188  484.1662
 189  511.1979
 190  436.8124
 191  432.0758
 192  381.4948
 193  439.2227
 194  378.3092
 195  522.0149
 196  582.9905
 197  518.3329
 198  468.5297
 199  474.7079
 200  498.9987
 201  494.7274
 202  618.2109
 203  576.6519
 204  556.4807
 205  576.0067
 206  589.6476
 207  647.2073
 208  615.7081
 209  566.8765
 210  483.4799
 211  489.5005
 212  469.3602
 213  588.8529
 214  661.2033
 215  585.1978
 216  568.8456
 217  625.8336
 218  550.4257
 219  529.8948
 220  491.8989
 221  526.6292
 222  609.6606
 223  496.8629
 224  422.894
 225  411.9205
 226  589.5181
 227  523.6896
 228  486.8106
 229  437.0499
 230  500.2215
 231  508.2481
 232  555.4281
 233  516.9012
 234  465.8122
 235  476.8546
 236  550.801
 237  425.0184
 238  492.8943
 239  509.1247
 240  488.9478
 241  530.0562
 242  607.5396
 243  615.027
 244  677.1362
 245  615.7956
 246  593.1379
 247  688.3492
 248  670.1422
 249  534.3002
 250  512.4325
 251  598.5643
 252  509.116
 253  549.4518
 254  573.0296
 255  591.9244
 256  474.7386
 257  558.8221
 258  570.418
 259  487.4394
 260  666.4055
 261  671.0415
 262  540.3959
 263  516.2066
 264  590.7827
 265  594.0028
 266  594.931
 267  620.3679
 268  563.9994
 269  503.2684
 270  469.2913
 271  601.9184
 272  677.7515
 273  656.9754
 274  653.5499
 275  633.1031
 276  570.8654
 277  630.6674
 278  714.6229
 279  625.1776
 280  680.6923
 281  694.7385
 282  646.6517
 283  629.5084
 284  701.4807
 285  588.774
 286  508.9213
 287  549.3315
 288  592.4692
 289  638.1776
 290  691.5032
 291  622.4537
 292  627.2258
 293  551.4798
 294  622.3138
 295  567.8145
 296  560.2611
 297  579.5199
 298  600.002
 299  683.087
 300  656.4431
 301  569.6895
 302  602.2966
 303  608.2083
 304  540.8937
 305  581.9269
 306  617.9283
 307  600.4396
 308  592.3574
 309  602.2016
 310  616.0392
 311  668.6677
 312  746.118
 313  726.3185
 314  687.6401
 315  708.795
 316  704.5313
 317  664.8807
 318  667.6369
 319  581.2
 320  634.3248
 321  693.6475
 322  738.671
 323  636.4643
 324  640.7584
 325  724.8756
 326  715.9743
 327  702.8391
 328  650.0061
 329  691.13
 330  673.1407
 331  619.778
 332  606.5684
 333  764.7153
 334  826.1682
 335  848.0567
 336  698.2568
 337  670.1824
 338  636.8909
 339  616.2452
 340  617.0379
 341  593.6353
 342  572.7704
 343  537.5032
 344  579.6556
 345  627.2192
 346  639.2542
 347  559.1936
 348  557.4018
 349  650.7867
 350  480.6521
 351  429.2971
 352  415.9927
 353  483.9332
 354  535.1084
 355  594.7061
 356  522.7676
 357  542.8279
 358  678.1453
 359  555.5017
 360  506.8799
 361  534.8868
 362  553.0101
 363  573.5192
 364  568.1108
 365  564.8873
 366  686.1185
 367  611.4467
 368  609.6105
 369  511.2109
 370  657.0814
 371  716.4234
 372  656.366
 373  648.8837
 374  688.7214
 375  614.25
 376  566.0873
 377  580.4269
 378  564.5735
 379  593.7353
 380  626.5865
 381  537.2795
 382  573.3086
 383  590.4195
 384  605.4932
 385  520.3455
 386  520.0576
 387  551.3239
 388  580.9033
 389  557.5121
 390  495.7241
 391  548.9207
 392  623.0851
 393  623.1785
 394  547.7486
 395  569.7952
 396  605.1878
 397  582.0266
 398  612.7603
 399  619.102
 400  607.6923
 401  568.5135
 402  545.2631
 403  555.2999
 404  573.4324
 405  603.2031
 406  555.5901
 407  520.2922
 408  558.7619
 409  558.5361
 410  616.314
 411  590.3262
 412  665.5003
 413  630.5619
 414  594.5724
 415  572.5268
 416  595.3587
 417  645.0657
 418  637.0623
 419  631.1066
 420  637.7066
 421  596.5945
 422  617.703
 423  572.7136
 424  550.9789
 425  565.7554
 426  523.9199
 427  469.8727
 428  571.7917
 429  534.4961
 430  543.6011
 431  586.9291
 432  553.3513
 433  627.6714
 434  644.1586
 435  640.2853
 436  605.0179
 437  552.6115
 438  503.757
 439  457.8207
 440  516.8235
 441  492.7847
 442  527.5904
 443  594.3307
 444  669.5486
 445  579.9219
 446  571.2142
 447  613.6475
 448  729.0049
 449  679.8267
 450  672.5162
 451  556.3752
 452  590.6926
 453  642.6567
 454  599.2642
 455  586.0466
 456  674.8016
 457  624.7292
 458  572.4666
 459  640.1324
 460  664.9395
 461  660.8486
 462  562.0675
 463  545.2561
 464  445.681
 465  470.9776
 466  550.5508
 467  652.9625
 468  658.2906
 469  698.7786
 470  625.8286
 471  568.3681
 472  547.3187
 473  630.4495
 474  705.3185
 475  606.8524
 476  568.846
 477  552.8554
 478  671.4445
 479  661.715
 480  548.1711
 481  555.0056
 482  634.9159
 483  611.2245
 484  529.9611
 485  609.2551
 486  669.893
 487  692.9651
 488  632.0628
 489  639.0364
 490  625.3091
 491  673.9489
 492  584.9994
 493  683.645
 494  638.2466
 495  548.2051
 496  527.8288
 497  536.8164
 498  583.5039
 499  601.5864
 500  601.9355
 501  678.6669
 502  715.5109
 503  707.5714
 504  690.6702
 505  637.171
 506  619.0144
 507  770.0497
 508  702.6568
 509  807.6924
 510  1071.914
 511  1151.787
