# Input file       =  1182243875.12681_cleaned.dat
# Candidate        =  PSR_0332+5434
# Telescope        =  AR
# Epoch_topo       =  57927.377976004747
# Epoch_bary       =  N/A
# T_sample         =  0.002
# Data Folded      =  7340032
# Data Avg         =  0.0512280115635396
# Data StdDev      =  1.00013269412147 
# Profile Bins     =  512
# Profile Avg      =  734.398044395762 
# Profile StdDev   =  119.748924246839 
# Reduced chi-sqr  =  0.921
# Prob(Noise)      <  0.9   (~0.0 sigma)
# P_topo (ms)      =  714.495907044473  +/- 0.000147
# P'_topo (s/s)    =  -0                +/- 7.75e-11
# P''_topo (s/s^2) =  0                 +/- 3.42e-14
# P_bary (ms)      =  N/A
# P'_bary (s/s)    =  N/A
# P''_bary (s/s^2) =  N/A
# P_orb (s)        =  N/A
# asin(i)/c (s)    =  N/A
# eccentricity     =  N/A
# w (rad)          =  N/A
# T_peri           =  N/A
######################################################
   0  1117.361
   1  1108.496
   2  990.8746
   3  866.4123
   4  912.6711
   5  833.4039
   6  671.326
   7  690.7488
   8  787.8334
   9  841.311
  10  822.79
  11  803.2824
  12  858.5245
  13  793.4883
  14  822.0369
  15  782.6434
  16  645.6649
  17  803.447
  18  864.2989
  19  776.9098
  20  789.4877
  21  779.5856
  22  843.0038
  23  740.749
  24  660.4976
  25  699.2576
  26  707.2847
  27  671.5313
  28  812.0992
  29  742.0505
  30  761.0215
  31  748.7761
  32  744.0912
  33  659.2115
  34  595.0431
  35  701.3709
  36  720.1794
  37  729.0709
  38  706.848
  39  638.5872
  40  617.1135
  41  670.6888
  42  665.9048
  43  747.0762
  44  722.7986
  45  684.911
  46  644.8345
  47  660.6564
  48  602.2427
  49  666.6302
  50  724.7558
  51  737.3312
  52  702.8381
  53  702.0689
  54  707.9816
  55  633.344
  56  705.7752
  57  712.81
  58  712.5463
  59  670.2543
  60  738.9813
  61  774.6804
  62  813.9145
  63  706.1041
  64  666.6937
  65  746.8536
  66  837.6403
  67  751.5526
  68  723.5853
  69  710.5683
  70  688.2826
  71  708.4467
  72  626.0163
  73  608.6321
  74  620.2407
  75  630.0061
  76  596.2556
  77  697.4226
  78  586.5939
  79  575.5971
  80  629.2288
  81  695.327
  82  656.1342
  83  582.6958
  84  614.2132
  85  758.0959
  86  791.1337
  87  686.0252
  88  632.2805
  89  688.2672
  90  687.9506
  91  628.0274
  92  658.1331
  93  729.0864
  94  735.4886
  95  772.0122
  96  750.7604
  97  613.2421
  98  719.9534
  99  692.057
 100  684.8693
 101  734.5939
 102  741.4337
 103  777.5776
 104  803.5227
 105  717.9302
 106  711.3341
 107  689.3287
 108  737.6808
 109  714.5793
 110  697.0068
 111  739.9457
 112  692.429
 113  610.844
 114  682.9161
 115  758.6709
 116  755.8876
 117  711.55
 118  714.6476
 119  678.1761
 120  628.3361
 121  614.4089
 122  709.9377
 123  802.5201
 124  802.9696
 125  679.3273
 126  678.5883
 127  608.7426
 128  644.895
 129  752.6305
 130  663.8538
 131  646.5925
 132  670.9202
 133  674.0127
 134  661.8726
 135  547.819
 136  609.8534
 137  669.3674
 138  625.7957
 139  725.5569
 140  711.1954
 141  758.5668
 142  831.9917
 143  882.6268
 144  778.6472
 145  650.1614
 146  774.4056
 147  754.8734
 148  812.5706
 149  820.4933
 150  785.9365
 151  813.5165
 152  783.403
 153  779.1271
 154  820.4111
 155  859.5981
 156  764.7871
 157  677.7961
 158  717.9736
 159  757.5524
 160  759.734
 161  739.1204
 162  770.3145
 163  799.1493
 164  787.2363
 165  895.2394
 166  908.2173
 167  751.2947
 168  694.9292
 169  839.6379
 170  782.8157
 171  804.2722
 172  823.4062
 173  823.9874
 174  756.6653
 175  679.4434
 176  728.6937
 177  760.8912
 178  660.645
 179  693.0619
 180  709.7547
 181  683.2432
 182  700.5421
 183  619.9882
 184  655.3449
 185  739.7938
 186  761.0272
 187  687.0638
 188  597.6991
 189  724.0208
 190  721.822
 191  637.6916
 192  728.407
 193  834.1564
 194  763.6938
 195  776.1374
 196  714.4099
 197  754.8322
 198  734.9543
 199  699.9678
 200  794.3799
 201  679.9051
 202  648.7029
 203  647.523
 204  728.7191
 205  781.1791
 206  745.8068
 207  728.9005
 208  716.0474
 209  678.6096
 210  634.1356
 211  686.8969
 212  702.6008
 213  771.0803
 214  770.7446
 215  805.7456
 216  740.6111
 217  669.0021
 218  789.5374
 219  717.9422
 220  725.5441
 221  646.8843
 222  689.8437
 223  747.9557
 224  693.0142
 225  690.5336
 226  649.3972
 227  738.3249
 228  825.2224
 229  766.1933
 230  714.6141
 231  560.1143
 232  626.9988
 233  718.9562
 234  583.6998
 235  587.1763
 236  665.4417
 237  733.498
 238  693.8406
 239  704.6237
 240  719.3939
 241  611.3334
 242  555.0153
 243  724.286
 244  722.7089
 245  725.1825
 246  712.7409
 247  729.6696
 248  681.5761
 249  694.8845
 250  691.8039
 251  729.5882
 252  775.5522
 253  695.8859
 254  765.4172
 255  838.9394
 256  936.1745
 257  861.2744
 258  756.9928
 259  716.0483
 260  798.7559
 261  866.8037
 262  830.7939
 263  749.207
 264  712.468
 265  743.098
 266  712.0591
 267  811.7754
 268  831.817
 269  830.9395
 270  666.7452
 271  721.8982
 272  798.1702
 273  712.0714
 274  691.8889
 275  796.1419
 276  816.1484
 277  774.8994
 278  710.9319
 279  670.9714
 280  736.0963
 281  853.2346
 282  716.9399
 283  721.0307
 284  671.7767
 285  715.1348
 286  717.8675
 287  557.1983
 288  603.9008
 289  666.2626
 290  704.8539
 291  685.59
 292  683.709
 293  672.804
 294  679.0857
 295  607.7297
 296  643.6403
 297  615.4283
 298  560.8912
 299  670.8058
 300  761.66
 301  800.6304
 302  692.4569
 303  684.5135
 304  731.1117
 305  808.0768
 306  712.8987
 307  648.0143
 308  734.3124
 309  859.9463
 310  820.8841
 311  718.0499
 312  703.5746
 313  776.798
 314  725.0278
 315  674.3254
 316  706.3622
 317  682.0047
 318  659.3572
 319  625.1128
 320  734.4778
 321  771.9213
 322  687.7071
 323  679.4937
 324  688.5295
 325  793.9639
 326  795.4154
 327  743.4579
 328  730.8937
 329  807.0438
 330  774.0318
 331  725.2484
 332  679.5322
 333  763.0728
 334  731.271
 335  724.6282
 336  666.322
 337  680.1252
 338  723.9255
 339  745.4375
 340  713.91
 341  707.4979
 342  715.046
 343  763.4748
 344  688.3806
 345  674.1076
 346  684.0114
 347  625.8893
 348  652.181
 349  766.7384
 350  786.3304
 351  687.629
 352  660.6376
 353  699.7593
 354  671.6586
 355  608.5208
 356  733.2057
 357  766.4454
 358  692.8829
 359  753.3699
 360  789.1366
 361  934.8796
 362  915.6143
 363  764.7136
 364  778.2452
 365  793.639
 366  833.8217
 367  833.0009
 368  811.9447
 369  719.1943
 370  803.3223
 371  889.1237
 372  805.8926
 373  719.3466
 374  737.7691
 375  676.4397
 376  702.0514
 377  698.8796
 378  713.6691
 379  591.4708
 380  697.345
 381  788.712
 382  717.1788
 383  660.8171
 384  641.2729
 385  702.8043
 386  791.1971
 387  772.9381
 388  717.0848
 389  652.043
 390  747.0432
 391  758.9757
 392  764.8499
 393  720.9995
 394  696.7571
 395  699.5773
 396  767.2609
 397  765.0887
 398  784.1892
 399  754.3317
 400  768.8945
 401  719.451
 402  773.8391
 403  757.5783
 404  800.8398
 405  809.2923
 406  832.944
 407  802.717
 408  801.0314
 409  893.7297
 410  917.6622
 411  923.6987
 412  902.3141
 413  801.4719
 414  871.0969
 415  874.8881
 416  893.4088
 417  933.8856
 418  988.1272
 419  934.2341
 420  842.4453
 421  959.3475
 422  884.7944
 423  753.6072
 424  835.9685
 425  900.2933
 426  845.9768
 427  883.8274
 428  822.7703
 429  778.3923
 430  741.8922
 431  815.7283
 432  809.6039
 433  834.0546
 434  833.7471
 435  863.0593
 436  774.4011
 437  680.7448
 438  751.609
 439  799.8912
 440  827.1877
 441  775.9596
 442  767.971
 443  816.0895
 444  849.9404
 445  820.3893
 446  807.5044
 447  855.1501
 448  848.6359
 449  837.9948
 450  845.6547
 451  782.2086
 452  806.5563
 453  701.5179
 454  711.4685
 455  713.8626
 456  789.6129
 457  690.2119
 458  728.4554
 459  696.7342
 460  713.2089
 461  679.5153
 462  628.0175
 463  684.3123
 464  680.2499
 465  624.2521
 466  614.5233
 467  624.1916
 468  692.7986
 469  683.8436
 470  620.6331
 471  580.1477
 472  662.4559
 473  732.3581
 474  591.3376
 475  588.4456
 476  544.1578
 477  544.777
 478  617.714
 479  694.4244
 480  818.1541
 481  700.3577
 482  648.2905
 483  705.0889
 484  783.491
 485  740.891
 486  678.4545
 487  549.0058
 488  620.6852
 489  667.4224
 490  639.5152
 491  685.2245
 492  720.9672
 493  766.0151
 494  689.5646
 495  760.2947
 496  757.8726
 497  769.7869
 498  760.0565
 499  706.4485
 500  713.4801
 501  840.7598
 502  792.1257
 503  746.0038
 504  746.9431
 505  752.1254
 506  715.7618
 507  634.2236
 508  697.2444
 509  869.8483
 510  981.2755
 511  1078.922
