# Input file       =  1182505911.106921_cleaned.dat
# Candidate        =  PSR_0332+5434
# Telescope        =  AR
# Epoch_topo       =  57930.410799848622
# Epoch_bary       =  N/A
# T_sample         =  0.002
# Data Folded      =  7340032
# Data Avg         =  0.046950646079737
# Data StdDev      =  1.00010899225741 
# Profile Bins     =  512
# Profile Avg      =  673.033353439188 
# Profile StdDev   =  119.746086350687 
# Reduced chi-sqr  =  0.966
# Prob(Noise)      <  0.702   (~0.0 sigma)
# P_topo (ms)      =  714.493374012205  +/- 7.54e-05
# P'_topo (s/s)    =  -0                +/- 3.98e-11
# P''_topo (s/s^2) =  0                 +/- 1.76e-14
# P_bary (ms)      =  N/A
# P'_bary (s/s)    =  N/A
# P''_bary (s/s^2) =  N/A
# P_orb (s)        =  N/A
# asin(i)/c (s)    =  N/A
# eccentricity     =  N/A
# w (rad)          =  N/A
# T_peri           =  N/A
######################################################
   0  1167.292
   1  1181.148
   2  1068.26
   3  756.4008
   4  603.847
   5  604.7597
   6  604.6439
   7  667.3036
   8  664.8752
   9  691.5597
  10  747.4467
  11  631.2592
  12  655.7927
  13  569.3226
  14  701.3519
  15  686.0259
  16  700.8209
  17  603.9417
  18  634.3412
  19  642.2508
  20  664.5661
  21  749.667
  22  658.2671
  23  621.6673
  24  713.7321
  25  745.4392
  26  693.3227
  27  601.0923
  28  638.5952
  29  705.8725
  30  642.3676
  31  687.1232
  32  674.1252
  33  706.5724
  34  710.5091
  35  716.8816
  36  730.952
  37  818.5385
  38  827.5666
  39  774.0911
  40  696.5237
  41  694.6946
  42  533.6364
  43  604.8148
  44  650.507
  45  659.3522
  46  692.7484
  47  725.8338
  48  717.5951
  49  752.2335
  50  646.6186
  51  448.955
  52  517.344
  53  657.9984
  54  670.3069
  55  706.7355
  56  718.2127
  57  798.5077
  58  772.9348
  59  762.7126
  60  724.5613
  61  662.0972
  62  563.1035
  63  676.1099
  64  607.6115
  65  605.6442
  66  661.2835
  67  795.3563
  68  673.8814
  69  663.7322
  70  683.6703
  71  802.562
  72  738.2878
  73  826.6846
  74  835.1515
  75  757.2987
  76  788.9765
  77  766.0341
  78  768.1423
  79  857.2892
  80  728.7171
  81  582.9368
  82  753.6182
  83  812.9733
  84  747.9276
  85  614.9136
  86  629.4714
  87  581.0277
  88  702.7722
  89  852.9133
  90  752.1162
  91  713.5581
  92  791.7119
  93  706.9317
  94  594.8495
  95  628.3237
  96  669.8481
  97  646.7792
  98  668.8311
  99  656.1317
 100  655.0263
 101  658.7346
 102  650.4588
 103  588.6072
 104  542.3647
 105  506.2527
 106  638.6259
 107  620.8362
 108  601.27
 109  607.0809
 110  713.0124
 111  750.6691
 112  693.4916
 113  504.7133
 114  486.947
 115  601.5278
 116  729.266
 117  732.4824
 118  571.0653
 119  668.5476
 120  709.1145
 121  658.0317
 122  746.9506
 123  756.1833
 124  794.0336
 125  729.0804
 126  635.5717
 127  641.0248
 128  553.3105
 129  600.7991
 130  711.2569
 131  685.0892
 132  673.1582
 133  552.4113
 134  530.5118
 135  530.158
 136  504.8044
 137  515.7357
 138  585.7488
 139  610.5352
 140  573.748
 141  639.2388
 142  722.7768
 143  657.5858
 144  597.1691
 145  680.4291
 146  534.816
 147  517.2574
 148  606.7359
 149  703.5081
 150  659.7176
 151  650.5372
 152  533.5796
 153  602.1289
 154  547.7824
 155  749.0032
 156  663.2629
 157  644.1559
 158  702.1523
 159  711.5677
 160  740.3887
 161  739.0464
 162  648.4814
 163  558.6642
 164  635.9811
 165  715.5795
 166  702.3841
 167  732.3945
 168  746.4014
 169  740.6808
 170  695.9021
 171  799.8675
 172  832.1683
 173  767.5825
 174  707.3686
 175  705.9559
 176  592.105
 177  558.9148
 178  741.9229
 179  713.3557
 180  680.6459
 181  688.5148
 182  665.2447
 183  633.7597
 184  683.7911
 185  656.9671
 186  604.8156
 187  594.1741
 188  592.8349
 189  601.7332
 190  639.4667
 191  733.8812
 192  647.2836
 193  646.1635
 194  603.8728
 195  582.1346
 196  604.342
 197  625.1829
 198  617.1056
 199  610.5902
 200  644.7
 201  672.2371
 202  655.8794
 203  677.5953
 204  670.2725
 205  607.3721
 206  669.0272
 207  795.5203
 208  738.2899
 209  672.1787
 210  694.9733
 211  658.586
 212  645.7178
 213  698.2427
 214  741.0768
 215  663.7361
 216  707.4158
 217  565.5908
 218  584.2061
 219  666.0496
 220  637.6752
 221  711.5339
 222  743.3248
 223  692.8931
 224  623.084
 225  621.2952
 226  698.8848
 227  732.4414
 228  612.3969
 229  603.7643
 230  603.5148
 231  620.9658
 232  704.609
 233  697.5317
 234  615.5687
 235  752.3124
 236  767.4073
 237  704.4009
 238  707.2551
 239  658.1185
 240  712.329
 241  790.5649
 242  756.3577
 243  721.2771
 244  672.9341
 245  668.8848
 246  723.3696
 247  679.2706
 248  715.8477
 249  731.7597
 250  754.4907
 251  722.9915
 252  611.1088
 253  558.7232
 254  601.6157
 255  700.0214
 256  672.1057
 257  588.5695
 258  511.1647
 259  568.1157
 260  623.1046
 261  599.8488
 262  578.4847
 263  615.7375
 264  660.7589
 265  653.7938
 266  563.8425
 267  621.5579
 268  740.6696
 269  731.1802
 270  717.6158
 271  595.5511
 272  587.7693
 273  642.0327
 274  625.8176
 275  582.4279
 276  620.5318
 277  584.8174
 278  610.3182
 279  676.2839
 280  687.4337
 281  699.7714
 282  749.5777
 283  824.8191
 284  740.7519
 285  672.0872
 286  686.2326
 287  674.1101
 288  529.0074
 289  715.8903
 290  670.2487
 291  550.2465
 292  728.9415
 293  869.3902
 294  786.8037
 295  662.0536
 296  616.8721
 297  691.7828
 298  730.3147
 299  581.2661
 300  613.0381
 301  705.9555
 302  739.4935
 303  660.1492
 304  673.4579
 305  697.4137
 306  688.2083
 307  799.4697
 308  774.3663
 309  687.1206
 310  747.3651
 311  886.8026
 312  868.6689
 313  747.7009
 314  683.0928
 315  713.0085
 316  667.1586
 317  742.3956
 318  902.3544
 319  679.1194
 320  613.52
 321  742.6572
 322  765.5882
 323  694.3123
 324  676.6255
 325  766.6301
 326  734.0332
 327  618.9802
 328  687.1318
 329  677.3792
 330  604.5342
 331  670.5039
 332  698.8232
 333  676.0539
 334  750.6152
 335  818.6533
 336  786.1042
 337  712.8953
 338  609.2695
 339  677.7632
 340  704.5512
 341  646.2402
 342  549.9056
 343  684.729
 344  703.6779
 345  647.9274
 346  660.3337
 347  692.4744
 348  648.2266
 349  556.0988
 350  645.1561
 351  599.619
 352  519.3356
 353  559.0187
 354  652.925
 355  649.2296
 356  744.9886
 357  686.2523
 358  653.3054
 359  705.2881
 360  735.8495
 361  735.8829
 362  670.51
 363  688.05
 364  651.5489
 365  703.7979
 366  648.7897
 367  624.1585
 368  604.8534
 369  651.2777
 370  679.8815
 371  692.3702
 372  678.0785
 373  663.7928
 374  709.8179
 375  649.305
 376  682.9146
 377  581.8775
 378  641.4395
 379  719.8873
 380  765.2705
 381  675.2031
 382  629.3753
 383  656.5549
 384  644.6064
 385  587.9397
 386  591.6206
 387  612.0862
 388  703.005
 389  704.2204
 390  691.996
 391  636.0856
 392  605.7063
 393  699.8845
 394  748.476
 395  721.7956
 396  584.1058
 397  602.7381
 398  699.0229
 399  646.4356
 400  588.7473
 401  541.0948
 402  557.0963
 403  646.8807
 404  584.0245
 405  681.4716
 406  682.8527
 407  602.3765
 408  669.3801
 409  618.7834
 410  605.3404
 411  708.001
 412  733.0165
 413  723.4616
 414  718.1773
 415  687.2003
 416  638.6895
 417  642.5206
 418  687.2744
 419  591.0955
 420  581.9257
 421  648.1281
 422  693.9122
 423  634.3812
 424  659.1964
 425  571.9418
 426  598.4137
 427  670.6159
 428  628.0309
 429  450.7803
 430  541.068
 431  593.4736
 432  507.2713
 433  552.6867
 434  513.0038
 435  616.9698
 436  672.4323
 437  653.34
 438  597.0197
 439  571.6915
 440  672.6421
 441  650.3756
 442  672.0478
 443  692.1503
 444  597.2947
 445  596.8758
 446  722.5652
 447  741.8949
 448  664.8194
 449  590.6583
 450  648.049
 451  615.1358
 452  657.6093
 453  605.0031
 454  652.7818
 455  620.8979
 456  621.3741
 457  622.4245
 458  575.4354
 459  526.9907
 460  516.5674
 461  601.2719
 462  600.5468
 463  596.3964
 464  650.2301
 465  692.2879
 466  652.3289
 467  606.0862
 468  659.4929
 469  645.3475
 470  678.6138
 471  653.2161
 472  656.7618
 473  623.0884
 474  658.5448
 475  630.8892
 476  634.6678
 477  767.1482
 478  770.2491
 479  790.2045
 480  821.8736
 481  740.4014
 482  693.9868
 483  677.0441
 484  660.3413
 485  636.4592
 486  650.0048
 487  717.5089
 488  696.5621
 489  701.2665
 490  713.9581
 491  633.0333
 492  772.6213
 493  701.4263
 494  671.0114
 495  733.0599
 496  657.588
 497  708.6916
 498  724.2731
 499  720.5362
 500  763.9387
 501  770.0097
 502  601.6544
 503  724.1553
 504  889.2421
 505  773.5375
 506  649.2214
 507  679.8556
 508  780.8209
 509  819.211
 510  1044.774
 511  1168.492
