# Input file       =  1182850506.116156_cleaned.dat
# Candidate        =  PSR_0332+5434
# Telescope        =  AR
# Epoch_topo       =  57934.399168011063
# Epoch_bary       =  N/A
# T_sample         =  0.002
# Data Folded      =  7340032
# Data Avg         =  0.0499791531687535
# Data StdDev      =  1.00012967130739 
# Profile Bins     =  512
# Profile Avg      =  716.531563523594 
# Profile StdDev   =  119.748562316131 
# Reduced chi-sqr  =  0.850
# Prob(Noise)      <  0.994   (~0.0 sigma)
# P_topo (ms)      =  714.490052473144  +/- 3.93e-05
# P'_topo (s/s)    =  -0                +/- 2.08e-11
# P''_topo (s/s^2) =  0                 +/- 9.16e-15
# P_bary (ms)      =  N/A
# P'_bary (s/s)    =  N/A
# P''_bary (s/s^2) =  N/A
# P_orb (s)        =  N/A
# asin(i)/c (s)    =  N/A
# eccentricity     =  N/A
# w (rad)          =  N/A
# T_peri           =  N/A
######################################################
   0  802.355
   1  687.9442
   2  633.2305
   3  673.9183
   4  733.8701
   5  768.7809
   6  786.5894
   7  739.2147
   8  762.2986
   9  754.5307
  10  770.7513
  11  717.5327
  12  578.8851
  13  698.4585
  14  833.7596
  15  755.4713
  16  638.1773
  17  657.599
  18  706.4451
  19  670.6002
  20  764.5389
  21  709.4002
  22  682.4016
  23  696.2233
  24  790.9048
  25  777.656
  26  786.2844
  27  656.7409
  28  590.9843
  29  675.3414
  30  625.6547
  31  575.429
  32  573.0464
  33  667.7906
  34  771.6096
  35  716.0468
  36  603.3378
  37  640.6356
  38  590.0059
  39  707.7135
  40  777.2084
  41  833.2652
  42  860.8365
  43  775.1612
  44  662.7589
  45  688.8182
  46  711.1342
  47  771.2488
  48  717.3944
  49  725.6704
  50  700.8069
  51  706.058
  52  721.4314
  53  760.7372
  54  789.0835
  55  795.416
  56  839.5353
  57  895.5343
  58  844.466
  59  666.606
  60  680.8926
  61  810.6912
  62  883.5753
  63  855.6108
  64  823.4853
  65  733.3111
  66  749.2739
  67  812.8353
  68  745.5711
  69  697.864
  70  728.0624
  71  814.4201
  72  758.1457
  73  724.4774
  74  637.7052
  75  682.2346
  76  700.4108
  77  671.5207
  78  534.2216
  79  584.9705
  80  709.226
  81  762.4374
  82  736.4164
  83  635.529
  84  698.0848
  85  742.6392
  86  740.1073
  87  816.497
  88  780.77
  89  625.0571
  90  640.4286
  91  816.3024
  92  901.7988
  93  827.697
  94  789.914
  95  700.2664
  96  626.1501
  97  641.5559
  98  706.1873
  99  695.0104
 100  767.589
 101  846.6741
 102  747.5434
 103  667.0383
 104  676.5363
 105  702.4852
 106  784.2861
 107  710.3835
 108  649.4083
 109  655.4955
 110  674.1773
 111  690.8196
 112  721.9401
 113  675.9156
 114  708.2111
 115  747.17
 116  822.9538
 117  692.2476
 118  587.1498
 119  599.4692
 120  653.5319
 121  732.3367
 122  600.0627
 123  535.0244
 124  684.8829
 125  691.8511
 126  751.4462
 127  764.1617
 128  839.0211
 129  751.4419
 130  685.3315
 131  710.2518
 132  778.5159
 133  772.2958
 134  788.5574
 135  810.8235
 136  772.5541
 137  749.3271
 138  796.2049
 139  783.763
 140  801.2501
 141  733.8902
 142  618.8741
 143  683.2537
 144  767.355
 145  666.3238
 146  696.6707
 147  651.293
 148  678.7382
 149  664.3994
 150  776.5092
 151  874.6501
 152  839.5624
 153  923.1835
 154  1095.675
 155  1096.656
 156  1039.991
 157  861.9865
 158  818.3372
 159  843.1961
 160  744.0538
 161  719.0173
 162  646.1437
 163  753.5264
 164  734.9749
 165  677.2275
 166  620.402
 167  723.3545
 168  815.9126
 169  903.535
 170  807.139
 171  727.0533
 172  738.5192
 173  744.8585
 174  746.4846
 175  628.0641
 176  692.3069
 177  804.409
 178  853.8511
 179  738.3801
 180  650.4093
 181  700.683
 182  714.5421
 183  666.3875
 184  657.8554
 185  713.6419
 186  676.8582
 187  734.717
 188  721.0816
 189  670.7433
 190  676.9228
 191  802.389
 192  798.8306
 193  714.3932
 194  644.6031
 195  708.0184
 196  742.027
 197  802.5027
 198  646.3245
 199  591.9113
 200  705.8955
 201  796.6335
 202  663.1752
 203  658.6962
 204  664.1564
 205  730.9409
 206  874.4061
 207  836.5452
 208  746.4761
 209  768.4952
 210  775.6396
 211  715.2045
 212  721.7965
 213  686.2154
 214  717.8677
 215  839.889
 216  859.927
 217  727.6031
 218  728.5143
 219  688.8769
 220  737.9548
 221  742.7838
 222  691.8332
 223  639.0471
 224  587.8723
 225  759.1147
 226  787.0361
 227  676.1512
 228  599.6262
 229  731.7505
 230  857.4539
 231  832.9224
 232  707.7879
 233  709.6693
 234  681.2828
 235  709.2354
 236  676.8628
 237  619.7432
 238  581.3193
 239  636.3845
 240  800.1773
 241  658.337
 242  572.95
 243  668.6836
 244  656.5831
 245  637.1805
 246  575.9394
 247  635.7221
 248  622.2896
 249  644.0928
 250  709.9118
 251  596.4802
 252  530.1553
 253  703.2204
 254  776.0229
 255  760.1949
 256  751.9132
 257  676.1258
 258  677.7664
 259  716.4906
 260  774.4344
 261  755.4154
 262  753.5195
 263  714.399
 264  829.5322
 265  840.2446
 266  827.6297
 267  782.7448
 268  764.9111
 269  752.7795
 270  678.8665
 271  694.7758
 272  707.6326
 273  734.9304
 274  673.8745
 275  744.0994
 276  724.7988
 277  681.1453
 278  685.5931
 279  618.2989
 280  661.3712
 281  653.3588
 282  650.3973
 283  703.9111
 284  752.3371
 285  745.334
 286  704.2791
 287  757.426
 288  838.42
 289  744.5114
 290  637.532
 291  635.485
 292  763.7634
 293  864.5253
 294  777.6756
 295  695.3066
 296  736.0319
 297  738.3286
 298  824.7231
 299  786.4606
 300  766.8377
 301  699.7572
 302  726.5662
 303  763.1871
 304  738.327
 305  734.1433
 306  724.1835
 307  826.381
 308  781.2794
 309  710.1244
 310  801.6581
 311  900.6912
 312  824.2025
 313  678.617
 314  595.279
 315  695.4638
 316  850.1108
 317  826.5948
 318  666.3945
 319  643.925
 320  684.6407
 321  795.4197
 322  691.5814
 323  621.1008
 324  600.5425
 325  652.8818
 326  738.5417
 327  689.4103
 328  653.1848
 329  650.0989
 330  647.4731
 331  704.2136
 332  649.3083
 333  629.274
 334  642.1808
 335  732.2534
 336  647.8208
 337  650.7471
 338  601.6357
 339  539.5327
 340  558.6744
 341  639.1514
 342  669.7135
 343  550.4343
 344  748.0746
 345  783.8764
 346  746.2969
 347  739.1875
 348  742.0627
 349  748.2178
 350  709.4005
 351  568.9597
 352  724.811
 353  743.7723
 354  680.5632
 355  820.8961
 356  904.8248
 357  809.5162
 358  709.4581
 359  714.2931
 360  678.7039
 361  679.4406
 362  570.7426
 363  696.3717
 364  687.6725
 365  627.5729
 366  611.9183
 367  680.1219
 368  770.2346
 369  677.4055
 370  581.647
 371  460.6557
 372  619.9444
 373  723.4536
 374  612.6898
 375  678.9719
 376  659.24
 377  799.6541
 378  881.9387
 379  873.7114
 380  736.9555
 381  633.5099
 382  596.9975
 383  755.0338
 384  785.0107
 385  699.6112
 386  723.7123
 387  829.9718
 388  829.6417
 389  823.4778
 390  723.5502
 391  723.2705
 392  681.3409
 393  672.3649
 394  734.1232
 395  759.3301
 396  695.6544
 397  699.1589
 398  750.9839
 399  665.9744
 400  526.9599
 401  575.0737
 402  656.0322
 403  668.2246
 404  726.6948
 405  674.5634
 406  669.3854
 407  763.7071
 408  841.5302
 409  728.9868
 410  636.6233
 411  720.1998
 412  642.4144
 413  656.1898
 414  684.6394
 415  666.2213
 416  666.2723
 417  770.7695
 418  747.8655
 419  712.8157
 420  660.571
 421  766.5815
 422  820.5503
 423  709.7029
 424  691.3724
 425  808.9758
 426  839.2901
 427  682.5934
 428  622.6532
 429  678.9394
 430  781.4813
 431  766.1522
 432  716.8713
 433  601.8339
 434  620.2409
 435  755.7328
 436  744.7274
 437  737.2623
 438  749.2609
 439  656.8124
 440  642.4985
 441  703.4809
 442  618.3636
 443  626.6539
 444  719.7271
 445  693.6655
 446  631.796
 447  650.4866
 448  704.6459
 449  646.2998
 450  673.3665
 451  629.0699
 452  559.2833
 453  560.2399
 454  735.6841
 455  662.2913
 456  665.7671
 457  686.2409
 458  628.6376
 459  494.9531
 460  723.2494
 461  709.4273
 462  548.038
 463  586.1859
 464  695.147
 465  635.4682
 466  616.7387
 467  641.0176
 468  710.6999
 469  689.631
 470  690.6233
 471  720.6572
 472  693.666
 473  737.1047
 474  792.8475
 475  802.8961
 476  753.9069
 477  696.6062
 478  701.9965
 479  763.6976
 480  805.5971
 481  683.4527
 482  576.8894
 483  708.7849
 484  762.6473
 485  665.6353
 486  610.1934
 487  699.9174
 488  728.5342
 489  784.8841
 490  766.7512
 491  642.3227
 492  714.5951
 493  845.1858
 494  780.6368
 495  772.6664
 496  825.9241
 497  786.5826
 498  765.349
 499  775.2353
 500  760.6165
 501  731.3102
 502  727.8098
 503  699.6332
 504  792.6863
 505  747.5628
 506  739.0499
 507  714.4327
 508  728.1296
 509  698.2341
 510  662.5994
 511  736.0264
