# Input file       =  1182678199.116364_cleaned.dat
# Candidate        =  PSR_0332+5434
# Telescope        =  AR
# Epoch_topo       =  57932.404874031992
# Epoch_bary       =  N/A
# T_sample         =  0.002
# Data Folded      =  7340032
# Data Avg         =  0.0412620924697945
# Data StdDev      =  1.00008180633131 
# Profile Bins     =  512
# Profile Avg      =  591.477363433445 
# Profile StdDev   =  119.742831297208 
# Reduced chi-sqr  =  1.138
# Prob(Noise)      <  0.0163   (~2.1 sigma)
# P_topo (ms)      =  714.491692950533  +/- 7.03e-05
# P'_topo (s/s)    =  -0                +/- 3.71e-11
# P''_topo (s/s^2) =  0                 +/- 1.64e-14
# P_bary (ms)      =  N/A
# P'_bary (s/s)    =  N/A
# P''_bary (s/s^2) =  N/A
# P_orb (s)        =  N/A
# asin(i)/c (s)    =  N/A
# eccentricity     =  N/A
# w (rad)          =  N/A
# T_peri           =  N/A
######################################################
   0  1179.289
   1  1092.473
   2  1066.33
   3  841.7371
   4  824.4399
   5  836.1019
   6  676.3045
   7  605.7076
   8  598.8698
   9  579.8745
  10  563.752
  11  546.8444
  12  507.3198
  13  558.3392
  14  463.418
  15  550.6614
  16  577.2191
  17  594.0583
  18  575.1025
  19  562.2045
  20  687.2784
  21  580.6425
  22  516.6343
  23  556.9942
  24  451.7242
  25  535.5557
  26  617.2207
  27  579.9286
  28  472.2547
  29  588.3382
  30  621.1404
  31  618.8635
  32  595.5128
  33  607.3815
  34  644.3226
  35  647.1013
  36  616.7993
  37  595.0816
  38  483.134
  39  584.5065
  40  591.2034
  41  532.1202
  42  553.1235
  43  608.1572
  44  576.9564
  45  706.0283
  46  695.3697
  47  601.5289
  48  493.957
  49  445.778
  50  499.632
  51  591.5022
  52  624.6278
  53  568.2104
  54  623.9233
  55  471.365
  56  415.4419
  57  499.6742
  58  514.1589
  59  382.6968
  60  362.4705
  61  390.6618
  62  516.8305
  63  435.717
  64  393.0496
  65  416.1375
  66  474.3718
  67  564.7687
  68  550.9766
  69  504.6785
  70  512.0045
  71  500.1165
  72  508.8667
  73  581.1143
  74  463.1016
  75  497.3123
  76  541.0767
  77  502.9505
  78  456.3808
  79  438.8189
  80  421.374
  81  466.172
  82  563.863
  83  628.4365
  84  509.6671
  85  503.7392
  86  595.703
  87  666.9207
  88  672.4531
  89  616.7793
  90  625.3493
  91  566.7219
  92  564.983
  93  637.0615
  94  618.4105
  95  524.3518
  96  511.5509
  97  516.842
  98  519.1267
  99  535.305
 100  478.9969
 101  508.1837
 102  494.6104
 103  471.7207
 104  430.0513
 105  515.8389
 106  583.6478
 107  512.0797
 108  508.0121
 109  553.8603
 110  531.4913
 111  592.27
 112  592.3615
 113  653.1599
 114  650.8301
 115  530.1158
 116  446.8132
 117  462.6461
 118  545.5928
 119  597.1384
 120  649.0204
 121  644.2638
 122  445.2591
 123  482.3602
 124  585.1398
 125  643.3384
 126  625.132
 127  554.7474
 128  490.5464
 129  544.9417
 130  570.0815
 131  493.8088
 132  542.7628
 133  559.2321
 134  568.5383
 135  665.7895
 136  617.937
 137  540.1548
 138  599.3642
 139  719.9013
 140  751.4319
 141  592.8281
 142  520.3118
 143  558.3151
 144  591.0121
 145  607.7775
 146  556.0296
 147  569.5739
 148  562.5192
 149  570.3197
 150  581.6961
 151  563.491
 152  563.731
 153  641.9753
 154  663.5402
 155  564.9889
 156  450.1673
 157  511.901
 158  589.1757
 159  509.0323
 160  486.5119
 161  444.641
 162  569.0279
 163  705.2062
 164  655.0381
 165  575.019
 166  586.5356
 167  663.5011
 168  598.3664
 169  624.3724
 170  641.3391
 171  688.587
 172  610.2143
 173  640.9695
 174  641.3655
 175  601.4254
 176  539.243
 177  653.1242
 178  622.7116
 179  561.0891
 180  525.4321
 181  553.1793
 182  580.4286
 183  610.1157
 184  594.9558
 185  537.2297
 186  513.6478
 187  529.7536
 188  496.0381
 189  385.2462
 190  418.9105
 191  549.6644
 192  591.3801
 193  525.3646
 194  468.5188
 195  479.0193
 196  545.4355
 197  568.5981
 198  600.7307
 199  518.0739
 200  550.2284
 201  602.0461
 202  549.4144
 203  533.7484
 204  570.7391
 205  612.9103
 206  553.638
 207  561.9041
 208  574.4091
 209  585.9663
 210  586.5042
 211  708.989
 212  730.8563
 213  634.586
 214  607.5682
 215  622.6135
 216  595.3627
 217  592.2095
 218  558.7647
 219  635.7612
 220  636.7184
 221  582.0398
 222  503.7153
 223  551.3555
 224  591.7086
 225  561.9366
 226  490.6527
 227  544.1637
 228  542.5965
 229  572.0653
 230  593.3245
 231  576.4537
 232  584.955
 233  597.6074
 234  606.033
 235  812.612
 236  711.4116
 237  633.0215
 238  583.2376
 239  649.0606
 240  735.2088
 241  692.8686
 242  565.9999
 243  608.2343
 244  614.1357
 245  607.3702
 246  579.5652
 247  531.5867
 248  616.567
 249  587.9288
 250  552.3505
 251  588.403
 252  667.7707
 253  541.6962
 254  527.3495
 255  606.1497
 256  618.3537
 257  556.7793
 258  637.4662
 259  552.7782
 260  556.7189
 261  582.8358
 262  642.6741
 263  659.3109
 264  664.3355
 265  559.4281
 266  529.5434
 267  569.4364
 268  649.7988
 269  724.6611
 270  675.2078
 271  568.7822
 272  559.8201
 273  614.436
 274  638.1406
 275  646.8874
 276  498.7987
 277  551.3074
 278  600.5677
 279  599.3508
 280  558.5883
 281  605.2297
 282  603.5047
 283  660.6918
 284  713.3713
 285  710.0245
 286  712.751
 287  737.8267
 288  661.9523
 289  527.0869
 290  468.9304
 291  601.8091
 292  662.8182
 293  667.4281
 294  713.4634
 295  607.9725
 296  664.1731
 297  657.9921
 298  699.2426
 299  635.1844
 300  601.2807
 301  670.5077
 302  704.3671
 303  702.8057
 304  693.4229
 305  661.9066
 306  679.5392
 307  636.7739
 308  724.8944
 309  620.31
 310  505.4225
 311  609.2275
 312  590.4748
 313  536.0338
 314  638.0259
 315  712.819
 316  630.7142
 317  594.4739
 318  626.0724
 319  680.0508
 320  745.8149
 321  638.7335
 322  581.8698
 323  544.3553
 324  641.1984
 325  662.0749
 326  609.4648
 327  595.4766
 328  478.4445
 329  437.834
 330  557.6879
 331  587.7287
 332  520.3633
 333  620.525
 334  609.3198
 335  589.3644
 336  631.9578
 337  566.3557
 338  597.9349
 339  694.188
 340  691.1098
 341  679.6981
 342  529.4963
 343  552.3521
 344  624.634
 345  649.0654
 346  692.7164
 347  581.7009
 348  536.1805
 349  519.8832
 350  540.2782
 351  620.1389
 352  582.7994
 353  561.1992
 354  625.1219
 355  552.7822
 356  539.2378
 357  514.1113
 358  545.1719
 359  523.5978
 360  609.3117
 361  590.186
 362  570.126
 363  562.724
 364  630.716
 365  653.8847
 366  565.6097
 367  552.4053
 368  581.1846
 369  587.8246
 370  574.1157
 371  543.7162
 372  539.6188
 373  637.9791
 374  651.5882
 375  589.7881
 376  542.5862
 377  523.8138
 378  581.4951
 379  736.3406
 380  704.5563
 381  612.7833
 382  631.8439
 383  750.5342
 384  725.7957
 385  644.5506
 386  598.0669
 387  606.5559
 388  624.2305
 389  577.4092
 390  577.9231
 391  597.536
 392  664.2874
 393  638.1655
 394  592.5459
 395  572.48
 396  550.7094
 397  542.0492
 398  484.5931
 399  425.2999
 400  471.8469
 401  511.7542
 402  611.4061
 403  568.0165
 404  462.6841
 405  435.4518
 406  509.9353
 407  581.62
 408  531.3497
 409  485.2483
 410  496.2851
 411  572.9797
 412  627.1531
 413  636.0632
 414  540.0095
 415  568.3403
 416  745.6475
 417  824.472
 418  702.5303
 419  615.7418
 420  658.7296
 421  668.1532
 422  684.8149
 423  702.2526
 424  553.0867
 425  591.4289
 426  639.9869
 427  576.1594
 428  622.7741
 429  626.3632
 430  636.9761
 431  607.7682
 432  742.1064
 433  708.5188
 434  577.0795
 435  485.8392
 436  594.989
 437  684.5458
 438  593.2677
 439  489.7933
 440  582.3669
 441  660.1609
 442  505.3617
 443  460.5313
 444  549.2992
 445  686.1797
 446  681.6595
 447  573.057
 448  490.5121
 449  464.1283
 450  589.6686
 451  634.1807
 452  622.6818
 453  551.8191
 454  560.2645
 455  573.4648
 456  471.93
 457  433.3141
 458  452.8145
 459  459.222
 460  596.8707
 461  594.5333
 462  506.1009
 463  459.4075
 464  521.5873
 465  627.5929
 466  621.3717
 467  679.097
 468  654.2051
 469  630.0313
 470  691.9833
 471  655.663
 472  642.0085
 473  673.7019
 474  614.5697
 475  562.2704
 476  519.6076
 477  506.4634
 478  565.5387
 479  562.352
 480  598.1779
 481  507.7179
 482  446.4963
 483  574.9364
 484  589.2967
 485  571.8978
 486  534.9716
 487  524.4906
 488  672.2869
 489  623.6484
 490  575.6154
 491  599.793
 492  613.5276
 493  631.8808
 494  641.8818
 495  629.59
 496  608.8428
 497  642.5317
 498  627.7504
 499  598.4939
 500  579.9629
 501  579.2529
 502  692.2034
 503  714.8426
 504  692.7095
 505  655.0469
 506  644.9375
 507  852.2545
 508  956.2043
 509  870.5606
 510  957.9195
 511  1120.69
