# Input file       =  1183109348.111727_cleaned.dat
# Candidate        =  PSR_0332+5434
# Telescope        =  AR
# Epoch_topo       =  57937.395024441284
# Epoch_bary       =  N/A
# T_sample         =  0.002
# Data Folded      =  7340032
# Data Avg         =  0.061126764934703
# Data StdDev      =  1.0000523201409  
# Profile Bins     =  512
# Profile Avg      =  876.367098500697 
# Profile StdDev   =  119.739300826099 
# Reduced chi-sqr  =  0.886
# Prob(Noise)      <  0.969   (~0.0 sigma)
# P_topo (ms)      =  714.487669435465  +/- 0.000375
# P'_topo (s/s)    =  -0                +/- 1.98e-10
# P''_topo (s/s^2) =  0                 +/- 8.73e-14
# P_bary (ms)      =  N/A
# P'_bary (s/s)    =  N/A
# P''_bary (s/s^2) =  N/A
# P_orb (s)        =  N/A
# asin(i)/c (s)    =  N/A
# eccentricity     =  N/A
# w (rad)          =  N/A
# T_peri           =  N/A
######################################################
   0  1316.76
   1  1328.937
   2  1165.863
   3  1037.351
   4  941.9551
   5  898.9145
   6  938.4482
   7  964.1945
   8  901.0179
   9  857.1009
  10  887.5504
  11  875.5922
  12  906.418
  13  976.3516
  14  925.3064
  15  898.2239
  16  881.4968
  17  881.5228
  18  905.2607
  19  912.6461
  20  771.9173
  21  764.535
  22  770.535
  23  835.3449
  24  792.338
  25  797.612
  26  768.3754
  27  773.0656
  28  773.0158
  29  730.1587
  30  749.0268
  31  848.9821
  32  863.5723
  33  837.4235
  34  881.5779
  35  857.8587
  36  892.613
  37  912.344
  38  890.979
  39  846.1625
  40  929.1818
  41  914.2042
  42  832.2971
  43  907.5936
  44  927.2973
  45  927.0692
  46  931.4431
  47  928.9586
  48  909.5106
  49  852.5582
  50  784.1256
  51  890.0643
  52  930.8983
  53  915.9662
  54  868.7542
  55  696.6986
  56  703.9666
  57  826.0277
  58  849.6947
  59  892.7998
  60  820.7924
  61  839.3852
  62  854.5389
  63  764.4186
  64  815.56
  65  973.0283
  66  971.3787
  67  781.4374
  68  796.5873
  69  807.9932
  70  831.0876
  71  854.6395
  72  899.7106
  73  1008.103
  74  930.6367
  75  896.9434
  76  925.9901
  77  884.0434
  78  873.873
  79  889.5154
  80  873.842
  81  906.2947
  82  843.1229
  83  896.8698
  84  880.9749
  85  904.6646
  86  904.4232
  87  947.3434
  88  936.9233
  89  847.0934
  90  851.4232
  91  930.4443
  92  925.3722
  93  910.0455
  94  963.5965
  95  908.8173
  96  909.8082
  97  963.3562
  98  926.4562
  99  906.5198
 100  842.9606
 101  867.4135
 102  910.5941
 103  883.8054
 104  880.9399
 105  861.6362
 106  794.9155
 107  761.2837
 108  873.907
 109  920.7492
 110  855.9716
 111  813.4633
 112  834.5413
 113  839.4766
 114  792.2157
 115  831.7846
 116  911.0436
 117  889.9116
 118  875.097
 119  887.4155
 120  820.3028
 121  870.5218
 122  834.7106
 123  776.6362
 124  767.5604
 125  815.1824
 126  797.3092
 127  798.5648
 128  881.9191
 129  784.7489
 130  834.051
 131  901.4779
 132  860.9388
 133  907.9495
 134  852.3043
 135  935.288
 136  1003.866
 137  866.0301
 138  846.7016
 139  832.8638
 140  864.5781
 141  835.301
 142  749.6505
 143  755.5822
 144  775.3804
 145  808.2223
 146  828.8185
 147  732.5091
 148  802.5582
 149  973.6797
 150  933.2211
 151  929.4469
 152  920.6366
 153  844.4728
 154  781.2948
 155  787.8314
 156  759.6414
 157  721.7823
 158  796.9555
 159  766.7116
 160  783.3285
 161  850.5807
 162  831.0336
 163  914.7643
 164  821.7936
 165  746.72
 166  808.2212
 167  924.2411
 168  827.8767
 169  880.0213
 170  936.7626
 171  975.3671
 172  956.3851
 173  896.6948
 174  913.3118
 175  871.6903
 176  915.0881
 177  1000.571
 178  932.2841
 179  989.1881
 180  1068.37
 181  983.4437
 182  1032.976
 183  1081.526
 184  953.5314
 185  945.7005
 186  938.8427
 187  986.6923
 188  971.5101
 189  925.4663
 190  933.4366
 191  1015.485
 192  1065.453
 193  918.9693
 194  948.2806
 195  986.358
 196  862.1324
 197  834.6898
 198  871.6918
 199  884.9431
 200  831.2742
 201  798.137
 202  830.8185
 203  807.1149
 204  829.972
 205  770.0901
 206  783.4369
 207  800.2496
 208  832.887
 209  842.0834
 210  910.5154
 211  888.6744
 212  863.0266
 213  907.1961
 214  959.8481
 215  865.847
 216  855.8005
 217  901.3923
 218  882.1498
 219  910.8699
 220  1024.915
 221  1029.944
 222  920.8239
 223  864.6557
 224  925.5204
 225  911.0343
 226  890.735
 227  866.5814
 228  874.5989
 229  906.7942
 230  962.9279
 231  954.1304
 232  931.332
 233  841.637
 234  834.4517
 235  870.0632
 236  817.9252
 237  901.2544
 238  895.3763
 239  914.5197
 240  862.7314
 241  813.848
 242  810.2075
 243  709.6188
 244  756.1601
 245  838.4473
 246  821.2913
 247  813.7473
 248  891.959
 249  876.0917
 250  875.4312
 251  861.7514
 252  923.6465
 253  967.2993
 254  1046.015
 255  934.6191
 256  897.9058
 257  884.3057
 258  967.5897
 259  968.285
 260  1016.361
 261  919.5024
 262  937.4979
 263  1004.827
 264  952.033
 265  948.4646
 266  899.4448
 267  854.689
 268  993.6235
 269  1060.226
 270  918.7281
 271  852.836
 272  936.2437
 273  1060.328
 274  922.0079
 275  876.7005
 276  889.3046
 277  847.4837
 278  852.0617
 279  956.8075
 280  935.7125
 281  811.2938
 282  810.9099
 283  725.397
 284  801.2048
 285  812.619
 286  715.9282
 287  843.9502
 288  890.3236
 289  836.7677
 290  724.4001
 291  801.5757
 292  894.1044
 293  949.1954
 294  967.4231
 295  935.7765
 296  867.0994
 297  902.8956
 298  831.095
 299  882.5817
 300  955.405
 301  1042.089
 302  980.8421
 303  869.5963
 304  927.7078
 305  884.2396
 306  902.8416
 307  902.1405
 308  808.1361
 309  873.1426
 310  927.1005
 311  967.2533
 312  989.5475
 313  899.162
 314  864.4419
 315  1025.682
 316  973.3004
 317  869.8259
 318  916.649
 319  928.0667
 320  1003.429
 321  988.2603
 322  923.0696
 323  929.0884
 324  869.7206
 325  836.9534
 326  765.8849
 327  789.1592
 328  839.6838
 329  888.8889
 330  922.4279
 331  865.885
 332  868.1061
 333  823.0285
 334  814.1656
 335  755.7312
 336  840.2928
 337  907.804
 338  894.5898
 339  858.4183
 340  911.5736
 341  987.1808
 342  901.4323
 343  903.946
 344  974.8522
 345  905.2734
 346  952.1904
 347  848.9593
 348  823.1581
 349  859.8048
 350  957.6154
 351  908.9023
 352  851.9467
 353  849.0847
 354  917.9463
 355  897.4833
 356  827.3242
 357  789.8205
 358  815.4536
 359  902.2844
 360  922.158
 361  830.5744
 362  850.8519
 363  875.5537
 364  739.9293
 365  806.28
 366  811.2696
 367  774.9769
 368  837.5533
 369  935.4815
 370  827.6234
 371  815.8419
 372  871.6443
 373  927.3239
 374  870.3899
 375  741.5182
 376  808.4612
 377  933.1024
 378  926.5979
 379  972.3228
 380  844.6617
 381  905.13
 382  941.6592
 383  933.342
 384  857.3884
 385  797.951
 386  875.9444
 387  977.0005
 388  958.9574
 389  946.9673
 390  1001.532
 391  914.8057
 392  923.4456
 393  911.8376
 394  926.415
 395  840.9216
 396  827.3151
 397  867.9998
 398  835.5609
 399  786.4991
 400  875.9987
 401  903.6387
 402  841.9493
 403  886.3568
 404  864.6027
 405  921.2073
 406  885.7162
 407  807.6887
 408  872.8397
 409  791.511
 410  786.8638
 411  784.8073
 412  760.4633
 413  813.8444
 414  870.2758
 415  938.9479
 416  885.4017
 417  765.5593
 418  785.7573
 419  823.2184
 420  813.4808
 421  863.4828
 422  908.179
 423  851.3673
 424  727.5254
 425  809.1246
 426  873.446
 427  888.7487
 428  933.6555
 429  860.8519
 430  891.6232
 431  916.3936
 432  821.6542
 433  806.1058
 434  776.3413
 435  759.3713
 436  781.0253
 437  731.9432
 438  771.573
 439  766.0379
 440  744.1364
 441  705.1298
 442  705.229
 443  735.9839
 444  682.6083
 445  752.5116
 446  814.9462
 447  745.9614
 448  711.6919
 449  757.9283
 450  768.6057
 451  831.3355
 452  837.8277
 453  771.7764
 454  785.6209
 455  844.6183
 456  784.7056
 457  758.9348
 458  821.9609
 459  835.6541
 460  797.223
 461  834.9278
 462  796.4712
 463  906.6242
 464  946.838
 465  955.9059
 466  894.4229
 467  849.9341
 468  881.3655
 469  971.3306
 470  913.2689
 471  863.7038
 472  855.0099
 473  909.2753
 474  914.0857
 475  841.2769
 476  835.234
 477  883.3859
 478  882.5293
 479  820.5666
 480  827.5486
 481  853.6326
 482  850.7557
 483  886.0453
 484  887.1373
 485  900.3351
 486  850.803
 487  816.183
 488  875.5844
 489  797.9421
 490  733.9425
 491  792.0671
 492  898.405
 493  868.3506
 494  864.4617
 495  802.9153
 496  910.6526
 497  895.2244
 498  929.7148
 499  894.8906
 500  784.3987
 501  800.1672
 502  925.6672
 503  965.9841
 504  992.4053
 505  963.1044
 506  923.8233
 507  983.0467
 508  1048.305
 509  1129.499
 510  1215.713
 511  1252.102
