# Input file       =  1183955774.111918_cleaned.dat
# Candidate        =  PSR_0332+5434
# Telescope        =  AR
# Epoch_topo       =  57947.191621665719
# Epoch_bary       =  N/A
# T_sample         =  0.002
# Data Folded      =  7340032
# Data Avg         =  0.0538552814559978
# Data StdDev      =  1.00009022614212 
# Profile Bins     =  512
# Profile Avg      =  771.787366351388 
# Profile StdDev   =  119.743839426722 
# Reduced chi-sqr  =  1.658
# Prob(Noise)      <  4.76e-19   (~8.8 sigma)
# P_topo (ms)      =  714.480141424199  +/- 0.000299
# P'_topo (s/s)    =  -0                +/- 1.58e-10
# P''_topo (s/s^2) =  0                 +/- 6.98e-14
# P_bary (ms)      =  N/A
# P'_bary (s/s)    =  N/A
# P''_bary (s/s^2) =  N/A
# P_orb (s)        =  N/A
# asin(i)/c (s)    =  N/A
# eccentricity     =  N/A
# w (rad)          =  N/A
# T_peri           =  N/A
######################################################
   0  628.183
   1  761.8209
   2  738.054
   3  708.7177
   4  784.5843
   5  700.4015
   6  707.4933
   7  848.0035
   8  786.3679
   9  689.5334
  10  689.8185
  11  682.1679
  12  626.7805
  13  731.9742
  14  679.9905
  15  749.2271
  16  829.6649
  17  857.1517
  18  757.0563
  19  769.0372
  20  742.9045
  21  781.82
  22  889.7903
  23  919.9308
  24  907.3348
  25  871.28
  26  806.5417
  27  799.9166
  28  838.5536
  29  862.6791
  30  829.713
  31  699.761
  32  695.3368
  33  821.7572
  34  779.1981
  35  802.9832
  36  775.0046
  37  788.1072
  38  801.7193
  39  798.2815
  40  847.2294
  41  764.8839
  42  784.4086
  43  852.5883
  44  842.0696
  45  653.0488
  46  648.005
  47  752.3167
  48  792.6537
  49  833.2647
  50  826.0814
  51  784.6482
  52  683.5327
  53  648.7509
  54  716.1008
  55  712.3818
  56  698.0477
  57  694.6867
  58  662.2606
  59  716.2073
  60  694.2637
  61  666.849
  62  636.5221
  63  663.681
  64  683.8811
  65  677.5687
  66  704.1848
  67  729.1894
  68  694.9536
  69  581.8376
  70  748.6629
  71  778.6822
  72  732.7804
  73  736.6942
  74  809.0449
  75  914.7716
  76  869.9928
  77  697.856
  78  712.6691
  79  787.8257
  80  829.5722
  81  942.4603
  82  914.0895
  83  742.8588
  84  732.6487
  85  716.8248
  86  736.0117
  87  687.6455
  88  716.9171
  89  747.2684
  90  759.4991
  91  757.2718
  92  772.6902
  93  704.3333
  94  651.4438
  95  729.5936
  96  729.6285
  97  698.4719
  98  702.0624
  99  716.3661
 100  707.4716
 101  780.2927
 102  785.5753
 103  816.0842
 104  817.3812
 105  740.212
 106  759.3796
 107  836.2001
 108  835.8653
 109  808.5894
 110  788.0817
 111  804.4199
 112  787.179
 113  870.789
 114  836.1839
 115  714.4006
 116  827.7897
 117  805.0317
 118  739.4779
 119  714.2574
 120  722.1846
 121  737.8704
 122  725.8357
 123  818.8927
 124  715.7139
 125  763.3489
 126  739.3767
 127  702.717
 128  702.7186
 129  760.2998
 130  834.9615
 131  803.2541
 132  839.7952
 133  869.0025
 134  794.0422
 135  816.5876
 136  816.7776
 137  754.2045
 138  697.5917
 139  735.5519
 140  783.6512
 141  700.2006
 142  702.1819
 143  648.8179
 144  716.1808
 145  835.4468
 146  704.4573
 147  719.2286
 148  875.9195
 149  900.4048
 150  752.3389
 151  594.9266
 152  566.1783
 153  666.0927
 154  771.793
 155  733.8018
 156  700.2592
 157  713.303
 158  772.0649
 159  774.617
 160  935.1899
 161  962.2765
 162  838.8173
 163  788.8222
 164  811.416
 165  817.6721
 166  961.5483
 167  820.6769
 168  806.6857
 169  775.845
 170  770.0665
 171  741.1496
 172  680.4351
 173  737.4053
 174  783.4681
 175  773.3983
 176  795.3789
 177  793.3821
 178  709.754
 179  778.7136
 180  843.2138
 181  876.6369
 182  821.7029
 183  737.2874
 184  777.4072
 185  774.546
 186  837.6614
 187  819.731
 188  769.011
 189  811.8522
 190  890.1728
 191  847.324
 192  730.9163
 193  815.4131
 194  828.3204
 195  863.1069
 196  870.3459
 197  773.195
 198  828.1993
 199  899.0494
 200  910.0115
 201  866.5112
 202  785.4072
 203  794.798
 204  844.1023
 205  788.5241
 206  886.0865
 207  846.9224
 208  811.0406
 209  787.778
 210  838.3368
 211  715.6923
 212  711.2767
 213  740.0629
 214  787.6564
 215  791.1119
 216  704.3879
 217  790.694
 218  755.8835
 219  795.2415
 220  873.1833
 221  831.6655
 222  877.1191
 223  887.95
 224  982.8609
 225  1039.022
 226  987.0025
 227  956.9261
 228  927.0144
 229  890.5004
 230  930.9647
 231  895.7535
 232  854.1724
 233  858.5688
 234  853.3288
 235  741.5364
 236  711.0906
 237  719.6165
 238  839.6699
 239  748.2957
 240  718.5565
 241  693.4924
 242  681.6644
 243  564.7518
 244  480.4404
 245  621.3702
 246  671.2287
 247  691.3516
 248  718.7368
 249  703.9637
 250  645.4529
 251  635.4077
 252  748.1848
 253  759.4041
 254  679.7515
 255  645.2312
 256  748.4191
 257  860.4944
 258  863.427
 259  702.1334
 260  602.3024
 261  687.3782
 262  674.7155
 263  656.5779
 264  717.0316
 265  738.1696
 266  707.4522
 267  636.5848
 268  744.1968
 269  676.3021
 270  602.079
 271  700.7297
 272  688.4683
 273  791.5174
 274  692.9386
 275  666.801
 276  630.1754
 277  693.4484
 278  659.9513
 279  662.5262
 280  693.6327
 281  700.7274
 282  712.3884
 283  752.8728
 284  671.7449
 285  584.2045
 286  633.0255
 287  841.4487
 288  844.3171
 289  672.8401
 290  629.5075
 291  651.6225
 292  620.7488
 293  721.6304
 294  731.0449
 295  667.3855
 296  649.5667
 297  645.1402
 298  698.7625
 299  717.0333
 300  672.9393
 301  675.429
 302  565.8352
 303  549.5616
 304  571.3026
 305  633.9897
 306  751.028
 307  712.825
 308  659.3987
 309  789.8003
 310  813.7807
 311  712.6668
 312  814.2018
 313  777.2188
 314  741.4568
 315  702.4654
 316  763.6449
 317  638.966
 318  696.5267
 319  748.7889
 320  732.5212
 321  720.4638
 322  652.9814
 323  603.772
 324  779.5035
 325  702.2498
 326  703.4
 327  703.8716
 328  774.0251
 329  843.8485
 330  875.4035
 331  839.0103
 332  805.2299
 333  808.3778
 334  854.2385
 335  904.4992
 336  918.7427
 337  835.799
 338  803.6455
 339  773.673
 340  750.2976
 341  757.3615
 342  767.061
 343  751.0616
 344  741.4382
 345  778.6074
 346  706.6864
 347  685.2022
 348  703.2997
 349  756.8741
 350  822.3537
 351  812.6459
 352  785.5874
 353  741.4041
 354  705.3987
 355  733.6669
 356  728.1133
 357  779.3741
 358  685.5814
 359  687.6422
 360  810.5843
 361  814.7094
 362  867.5423
 363  813.5965
 364  836.9312
 365  854.2251
 366  881.9346
 367  814.7705
 368  879.9094
 369  862.1867
 370  796.1766
 371  812.6058
 372  817.0148
 373  871.4848
 374  1016.41
 375  1035.753
 376  869.2822
 377  813.9456
 378  808.2626
 379  707.7022
 380  751.1368
 381  791.308
 382  745.998
 383  728.4095
 384  746.1563
 385  702.5842
 386  657.0351
 387  688.2342
 388  707.5578
 389  692.9216
 390  660.2444
 391  715.2329
 392  603.5493
 393  575.0123
 394  706.8491
 395  918.7162
 396  876.9845
 397  759.0154
 398  742.2311
 399  769.0493
 400  747.1939
 401  846.7994
 402  851.3837
 403  794.5482
 404  828.3221
 405  786.5848
 406  756.8688
 407  766.618
 408  743.1304
 409  737.3943
 410  582.6891
 411  673.3259
 412  724.4142
 413  652.7043
 414  633.4633
 415  763.1601
 416  701.9015
 417  619.301
 418  654.5494
 419  595.7736
 420  552.6212
 421  635.7473
 422  620.1484
 423  551.0833
 424  606.977
 425  695.4363
 426  726.7531
 427  673.1788
 428  735.0029
 429  702.0742
 430  623.1409
 431  696.1125
 432  760.9793
 433  715.3292
 434  691.9702
 435  738.1793
 436  816.8804
 437  857.9836
 438  869.7508
 439  825.3862
 440  707.6187
 441  763.4068
 442  851.0415
 443  868.6644
 444  771.3263
 445  750.305
 446  753.9783
 447  830.4624
 448  910.9924
 449  843.6142
 450  765.416
 451  859.8436
 452  987.2129
 453  905.2092
 454  759.8963
 455  858.5789
 456  918.2412
 457  776.9766
 458  775.325
 459  787.842
 460  847.8786
 461  916.2235
 462  920.7096
 463  922.9299
 464  974.051
 465  1046.359
 466  1078.016
 467  1195.538
 468  1490.367
 469  1519.846
 470  1493.165
 471  1352.213
 472  1219.724
 473  1041.52
 474  908.5856
 475  776.6608
 476  699.6968
 477  765.4774
 478  736.3891
 479  765.0778
 480  823.7574
 481  936.0597
 482  888.5768
 483  851.6804
 484  900.4708
 485  858.5203
 486  820.6773
 487  868.2324
 488  854.489
 489  896.9774
 490  844.3442
 491  722.7203
 492  746.2744
 493  622.4471
 494  680.6767
 495  783.3208
 496  861.7542
 497  731.5536
 498  728.8298
 499  855.7751
 500  822.0142
 501  816.6536
 502  827.3668
 503  829.439
 504  736.9753
 505  645.5347
 506  691.1494
 507  652.2582
 508  715.9833
 509  734.7957
 510  765.0802
 511  663.4647
