# Input file       =  1183712136.10114_cleaned.dat
# Candidate        =  PSR_0332+5434
# Telescope        =  AR
# Epoch_topo       =  57944.371737281712
# Epoch_bary       =  N/A
# T_sample         =  0.002
# Data Folded      =  7340032
# Data Avg         =  0.0506667868922418
# Data StdDev      =  1.00008887758323 
# Profile Bins     =  512
# Profile Avg      =  726.262714584368 
# Profile StdDev   =  119.743677959672 
# Reduced chi-sqr  =  1.199
# Prob(Noise)      <  0.00132   (~3.0 sigma)
# P_topo (ms)      =  714.482441509365  +/- 3.61e-05
# P'_topo (s/s)    =  -0                +/- 1.9e-11
# P''_topo (s/s^2) =  0                 +/- 8.4e-15
# P_bary (ms)      =  N/A
# P'_bary (s/s)    =  N/A
# P''_bary (s/s^2) =  N/A
# P_orb (s)        =  N/A
# asin(i)/c (s)    =  N/A
# eccentricity     =  N/A
# w (rad)          =  N/A
# T_peri           =  N/A
######################################################
   0  1279.549
   1  1206.488
   2  1088.498
   3  1003.965
   4  989.0996
   5  902.611
   6  830.5955
   7  766.6854
   8  764.6749
   9  811.8673
  10  757.072
  11  693.9787
  12  784.0513
  13  719.7917
  14  776.5362
  15  791.2623
  16  639.3708
  17  655.9483
  18  748.4393
  19  631.4627
  20  633.4835
  21  602.807
  22  503.8151
  23  521.308
  24  635.3541
  25  631.1203
  26  529.8853
  27  563.4276
  28  765.1612
  29  686.3119
  30  607.6062
  31  555.0182
  32  748.1857
  33  797.7599
  34  846.5098
  35  716.0854
  36  614.8444
  37  602.433
  38  652.6595
  39  771.8683
  40  616.3276
  41  578.0516
  42  648.7374
  43  583.8863
  44  572.4118
  45  631.0228
  46  659.5863
  47  790.4621
  48  707.2148
  49  730.2145
  50  740.585
  51  721.9067
  52  840.7755
  53  844.0438
  54  751.9871
  55  752.1739
  56  746.7565
  57  745.1273
  58  718.5091
  59  653.8929
  60  646.4661
  61  609.8096
  62  679.0818
  63  698.5352
  64  643.7109
  65  609.3947
  66  680.9704
  67  702.3441
  68  717.5106
  69  689.6147
  70  743.9175
  71  755.7625
  72  636.8647
  73  707.689
  74  624.5871
  75  609.356
  76  688.0738
  77  701.8213
  78  628.1144
  79  698.7457
  80  630.3054
  81  708.4796
  82  546.3939
  83  557.3835
  84  629.3427
  85  706.1537
  86  643.6355
  87  597.3276
  88  543.9982
  89  587.5498
  90  621.0511
  91  675.9022
  92  577.6433
  93  524.6691
  94  586.6807
  95  607.4249
  96  538.0849
  97  652.2024
  98  661.3192
  99  691.6909
 100  700.7548
 101  723.0181
 102  685.7056
 103  776.902
 104  805.994
 105  759.0643
 106  645.303
 107  679.1339
 108  801.2107
 109  759.9421
 110  682.3481
 111  577.3688
 112  601.6082
 113  735.1674
 114  738.5693
 115  723.3071
 116  625.1454
 117  668.5096
 118  690.2061
 119  692.6248
 120  671.8669
 121  667.908
 122  694.7853
 123  726.6052
 124  747.5305
 125  635.413
 126  647.0962
 127  727.7125
 128  848.2535
 129  831.8603
 130  780.5353
 131  713.2036
 132  577.2401
 133  782.5244
 134  770.2778
 135  683.8734
 136  695.082
 137  794.0182
 138  817.447
 139  662.2383
 140  586.0533
 141  636.0347
 142  647.6514
 143  784.1348
 144  791.8322
 145  688.7932
 146  669.7115
 147  707.8029
 148  801.2343
 149  744.0141
 150  711.0119
 151  737.8914
 152  840.4097
 153  863.566
 154  756.1937
 155  776.2658
 156  764.9062
 157  770.4512
 158  802.6077
 159  722.8546
 160  703.8541
 161  696.067
 162  626.0032
 163  685.1317
 164  720.0338
 165  633.6628
 166  727.4905
 167  719.4446
 168  650.8448
 169  615.4724
 170  595.5637
 171  667.8193
 172  602.2221
 173  643.7205
 174  593.6594
 175  730.8918
 176  826.1475
 177  828.5739
 178  647.4716
 179  661.434
 180  688.5035
 181  749.2628
 182  641.1116
 183  670.3011
 184  704.2344
 185  647.6323
 186  745.4226
 187  750.1789
 188  687.7319
 189  648.9727
 190  665.4304
 191  766.0322
 192  682.8169
 193  681.5676
 194  732.5157
 195  632.3843
 196  673.9937
 197  773.6671
 198  719.1428
 199  662.8386
 200  617.5663
 201  631.6586
 202  598.8018
 203  590.2851
 204  661.1864
 205  784.2056
 206  756.427
 207  748.1747
 208  638.0392
 209  716.5295
 210  767.9099
 211  792.8097
 212  754.2264
 213  740.6615
 214  805.0156
 215  815.4905
 216  588.5506
 217  577.166
 218  595.3788
 219  679.3858
 220  763.0221
 221  787.7356
 222  655.5588
 223  670.3129
 224  671.373
 225  791.632
 226  752.7172
 227  720.8127
 228  671.4972
 229  635.3611
 230  718.6209
 231  724.7227
 232  680.1182
 233  714.6802
 234  722.5613
 235  695.8589
 236  626.0453
 237  626.044
 238  772.7285
 239  716.3272
 240  734.6692
 241  733.6163
 242  707.4967
 243  796.8513
 244  850.1104
 245  801.9564
 246  656.0558
 247  670.5553
 248  776.815
 249  861.3242
 250  771.4128
 251  662.0836
 252  667.8577
 253  749.4235
 254  765.3716
 255  703.564
 256  705.9729
 257  810.2545
 258  778.6249
 259  739.3975
 260  805.8639
 261  860.691
 262  876.3026
 263  872.6522
 264  788.1162
 265  652.3829
 266  627.4924
 267  764.9245
 268  807.2481
 269  548.2791
 270  502.7385
 271  597.2811
 272  661.4047
 273  701.8818
 274  674.3649
 275  694.3744
 276  661.6221
 277  700.6042
 278  740.6604
 279  564.4736
 280  583.5026
 281  708.8685
 282  831.8135
 283  865.3065
 284  708.0607
 285  687.9302
 286  717.6941
 287  697.6522
 288  581.395
 289  518.3384
 290  654.0378
 291  778.3894
 292  904.4816
 293  802.8821
 294  744.0477
 295  748.0031
 296  754.4358
 297  746.7444
 298  705.7234
 299  709.3544
 300  658.1321
 301  710.543
 302  835.9555
 303  785.9114
 304  671.6913
 305  731.347
 306  939.6711
 307  862.1217
 308  658.1213
 309  754.6258
 310  809.9213
 311  838.2246
 312  742.004
 313  743.9139
 314  783.8833
 315  821.7977
 316  845.0306
 317  771.1419
 318  729.9049
 319  707.5227
 320  777.7729
 321  844.2322
 322  766.6523
 323  684.8101
 324  743.9933
 325  760.4364
 326  720.7156
 327  688.0549
 328  659.9797
 329  706.4467
 330  784.8822
 331  862.2912
 332  741.9321
 333  678.3312
 334  732.837
 335  807.3756
 336  751.2316
 337  656.4044
 338  740.1062
 339  840.5123
 340  813.4489
 341  706.1788
 342  678.7027
 343  721.7482
 344  764.4671
 345  763.3975
 346  627.9926
 347  596.0969
 348  762.262
 349  865.146
 350  711.8754
 351  646.4476
 352  726.871
 353  811.2391
 354  806.6404
 355  660.2991
 356  656.0829
 357  600.7912
 358  770.4272
 359  913.1788
 360  754.1569
 361  621.3457
 362  662.8765
 363  802.5186
 364  784.6545
 365  813.5929
 366  784.8941
 367  764.001
 368  786.9452
 369  752.3004
 370  740.89
 371  759.3551
 372  772.9459
 373  685.7752
 374  629.7848
 375  678.4482
 376  659.5251
 377  700.7542
 378  633.4757
 379  590.7316
 380  617.4547
 381  537.4229
 382  692.9696
 383  733.5641
 384  673.1652
 385  661.2339
 386  691.2592
 387  837.7869
 388  790.9811
 389  829.2037
 390  750.6276
 391  773.1358
 392  800.328
 393  755.5202
 394  743.0591
 395  692.5792
 396  704.6783
 397  707.7147
 398  776.396
 399  752.2209
 400  724.3604
 401  848.4013
 402  815.9075
 403  785.0835
 404  728.7431
 405  672.9079
 406  848.9343
 407  839.0538
 408  699.5464
 409  708.3724
 410  731.5109
 411  795.5421
 412  755.9894
 413  766.8215
 414  752.641
 415  778.3856
 416  817.3489
 417  735.2129
 418  684.5907
 419  690.3104
 420  687.295
 421  804.3668
 422  782.7894
 423  732.4658
 424  793.5959
 425  918.2602
 426  840.8773
 427  828.9272
 428  807.665
 429  800.8875
 430  718.6172
 431  685.3121
 432  658.1016
 433  659.6484
 434  772.8859
 435  757.4652
 436  661.9431
 437  725.7634
 438  758.0133
 439  823.7058
 440  793.6565
 441  743.9691
 442  773.3398
 443  775.4912
 444  723.6645
 445  710.9196
 446  757.9542
 447  656.9528
 448  736.2623
 449  845.3749
 450  803.2062
 451  643.0165
 452  571.4429
 453  634.1838
 454  671.9151
 455  758.554
 456  677.5073
 457  640.2864
 458  741.0099
 459  690.374
 460  660.2168
 461  656.7483
 462  620.1531
 463  774.3893
 464  837.5372
 465  771.9174
 466  753.9286
 467  708.4066
 468  756.6132
 469  754.6205
 470  758.7365
 471  685.7477
 472  681.6746
 473  729.9346
 474  786.6957
 475  746.384
 476  670.1654
 477  749.4995
 478  773.1315
 479  756.2395
 480  824.1315
 481  745.9576
 482  807.4325
 483  868.0698
 484  809.176
 485  831.021
 486  684.0325
 487  788.2227
 488  838.2318
 489  783.3394
 490  847.2368
 491  850.5324
 492  849.5193
 493  939.6221
 494  806.1276
 495  672.3865
 496  683.9255
 497  771.912
 498  817.6653
 499  762.3151
 500  776.5585
 501  751.024
 502  837.9667
 503  699.0814
 504  655.8556
 505  766.2419
 506  938.1954
 507  955.5106
 508  924.6268
 509  1000.707
 510  1110.755
 511  1271.499
