# Input file       =  1183453964.104919_cleaned.dat
# Candidate        =  PSR_0332+5434
# Telescope        =  AR
# Epoch_topo       =  57941.383635473598
# Epoch_bary       =  N/A
# T_sample         =  0.002
# Data Folded      =  7340032
# Data Avg         =  0.0507137270093815
# Data StdDev      =  1.00010342482206 
# Profile Bins     =  512
# Profile Avg      =  727.162028587706 
# Profile StdDev   =  119.745419744748 
# Reduced chi-sqr  =  1.070
# Prob(Noise)      <  0.134   (~1.1 sigma)
# P_topo (ms)      =  714.48462605079   +/- 5.27e-05
# P'_topo (s/s)    =  -0                +/- 2.78e-11
# P''_topo (s/s^2) =  0                 +/- 1.23e-14
# P_bary (ms)      =  N/A
# P'_bary (s/s)    =  N/A
# P''_bary (s/s^2) =  N/A
# P_orb (s)        =  N/A
# asin(i)/c (s)    =  N/A
# eccentricity     =  N/A
# w (rad)          =  N/A
# T_peri           =  N/A
######################################################
   0  697.4248
   1  635.561
   2  653.6326
   3  694.0222
   4  828.7783
   5  886.0084
   6  833.1266
   7  727.4825
   8  703.8274
   9  776.5157
  10  764.5522
  11  700.9219
  12  713.1727
  13  775.7825
  14  829.78
  15  826.2639
  16  856.3422
  17  729.1179
  18  682.5431
  19  704.8608
  20  776.0288
  21  680.6578
  22  635.116
  23  721.4949
  24  717.9048
  25  700.8118
  26  631.9844
  27  718.4703
  28  805.011
  29  763.3651
  30  726.0325
  31  701.7394
  32  691.5172
  33  772.1407
  34  784.8454
  35  767.5109
  36  760.6487
  37  880.6124
  38  741.1338
  39  666.6057
  40  700.9623
  41  722.5381
  42  728.9625
  43  640.3662
  44  680.7607
  45  596.323
  46  634.6684
  47  843.7336
  48  717.1509
  49  600.7999
  50  531.9437
  51  665.8022
  52  803.7546
  53  757.9057
  54  701.2584
  55  767.1245
  56  793.4794
  57  712.8988
  58  705.4851
  59  779.7741
  60  686.8999
  61  671.702
  62  747.5029
  63  698.7572
  64  742.6813
  65  679.4271
  66  661.9217
  67  698.2447
  68  659.7217
  69  801.4711
  70  757.8014
  71  630.7905
  72  690.5809
  73  657.0781
  74  602.0958
  75  587.8903
  76  671.4841
  77  716.7545
  78  756.1827
  79  790.4526
  80  812.755
  81  726.6016
  82  622.1564
  83  587.2075
  84  609.0013
  85  747.3242
  86  819.0547
  87  763.2564
  88  691.2398
  89  639.4962
  90  734.0689
  91  728.9058
  92  736.419
  93  709.9647
  94  609.2613
  95  769.5878
  96  822.0345
  97  732.9728
  98  662.2973
  99  738.1584
 100  774.0038
 101  731.3991
 102  659.4459
 103  714.3889
 104  718.6044
 105  731.7211
 106  755.7408
 107  666.8459
 108  692.2504
 109  627.9034
 110  701.8062
 111  706.4242
 112  663.9285
 113  794.4426
 114  903.098
 115  900.9108
 116  889.4864
 117  852.3669
 118  848.8804
 119  840.3998
 120  806.3054
 121  717.826
 122  757.4883
 123  745.3112
 124  811.979
 125  811.7695
 126  645.5757
 127  615.4471
 128  724.9377
 129  797.892
 130  822.3229
 131  722.8986
 132  612.528
 133  684.53
 134  713.6885
 135  715.502
 136  718.0605
 137  638.3393
 138  751.8668
 139  727.7592
 140  684.0123
 141  689.125
 142  594.4504
 143  738.6426
 144  806.5265
 145  770.0934
 146  803.8859
 147  685.0934
 148  757.7535
 149  791.8548
 150  814.293
 151  887.2615
 152  859.4105
 153  811.2374
 154  903.5579
 155  766.1236
 156  740.8328
 157  891.8341
 158  862.5079
 159  766.1995
 160  731.1872
 161  747.102
 162  801.4761
 163  835.2713
 164  736.2974
 165  743.7543
 166  783.9781
 167  855.5641
 168  817.7023
 169  704.5784
 170  719.0255
 171  740.7999
 172  867.0065
 173  867.7941
 174  800.7383
 175  843.424
 176  923.6322
 177  842.8725
 178  783.6152
 179  897.4695
 180  832.1281
 181  794.5024
 182  835.5298
 183  811.9197
 184  846.5557
 185  856.1326
 186  805.6168
 187  794.5887
 188  861.3535
 189  960.5795
 190  821.3232
 191  838.6814
 192  827.0142
 193  649.0842
 194  629.3093
 195  724.3948
 196  810.5663
 197  737.7973
 198  646.8683
 199  725.2112
 200  773.6434
 201  697.492
 202  657.6926
 203  653.0344
 204  755.5529
 205  749.1534
 206  807.1792
 207  808.3339
 208  723.2427
 209  794.4095
 210  814.7576
 211  838.1318
 212  776.1985
 213  700.2667
 214  739.4738
 215  763.7021
 216  784.3142
 217  723.3928
 218  793.5055
 219  781.7982
 220  791.5638
 221  878.7678
 222  925.277
 223  1109.511
 224  1196.868
 225  1286.082
 226  1136.387
 227  891.4734
 228  823.3092
 229  787.6481
 230  692.107
 231  713.7943
 232  719.6707
 233  676.5724
 234  741.2984
 235  783.0813
 236  625.6368
 237  618.4805
 238  607.3344
 239  739.9495
 240  784.5668
 241  753.8987
 242  765.2777
 243  681.3182
 244  616.5861
 245  635.8519
 246  530.3637
 247  580.3955
 248  664.2958
 249  744.6027
 250  600.8923
 251  498.3126
 252  546.9541
 253  591.6449
 254  691.1583
 255  654.165
 256  697.7283
 257  632.6028
 258  612.1458
 259  680.6561
 260  616.0751
 261  639.6467
 262  668.3835
 263  673.5428
 264  787.4204
 265  678.7175
 266  671.2101
 267  698.361
 268  715.2461
 269  730.3906
 270  651.6362
 271  629.9704
 272  767.8757
 273  769.5858
 274  690.8104
 275  688.9807
 276  741.6932
 277  728.4476
 278  712.2068
 279  733.4265
 280  761.6514
 281  700.9783
 282  799.463
 283  775.4108
 284  570.1226
 285  614.0276
 286  668.2034
 287  666.9308
 288  657.4672
 289  565.3955
 290  579.3523
 291  721.2778
 292  710.7152
 293  728.9093
 294  719.0892
 295  683.3329
 296  689.4501
 297  676.2574
 298  701.1596
 299  699.5396
 300  623.678
 301  607.6931
 302  554.3814
 303  604.5957
 304  628.6945
 305  686.4171
 306  754.9124
 307  687.2527
 308  732.3511
 309  737.8694
 310  740.7744
 311  801.1152
 312  733.3129
 313  751.1377
 314  797.1907
 315  787.9894
 316  799.8432
 317  652.6941
 318  666.0679
 319  643.5197
 320  695.6837
 321  639.9871
 322  627.2497
 323  652.0027
 324  725.829
 325  738.4001
 326  724.9959
 327  622.1868
 328  709.8447
 329  738.5994
 330  807.7126
 331  683.5204
 332  741.5588
 333  728.3128
 334  736.1061
 335  719.937
 336  664.3371
 337  592.314
 338  612.8391
 339  779.7025
 340  837.7852
 341  812.2344
 342  835.6122
 343  875.7299
 344  840.7846
 345  843.0371
 346  703.8218
 347  656.3434
 348  723.8353
 349  841.6292
 350  837.7094
 351  716.5846
 352  771.8524
 353  833.7852
 354  889.7173
 355  825.5103
 356  737.8951
 357  689.4368
 358  713.4452
 359  808.3831
 360  791.569
 361  805.8232
 362  755.3743
 363  787.9934
 364  748.0309
 365  723.4955
 366  818.0856
 367  824.7037
 368  801.0642
 369  756.928
 370  732.141
 371  716.425
 372  731.3083
 373  852.4418
 374  734.0253
 375  626.1376
 376  633.6326
 377  734.5101
 378  808.1946
 379  682.5103
 380  719.9261
 381  746.9756
 382  682.1898
 383  735.4931
 384  747.0485
 385  723.4903
 386  746.3928
 387  845.9664
 388  824.19
 389  836.4546
 390  749.3077
 391  749.1328
 392  739.3178
 393  713.0036
 394  643.0033
 395  658.3646
 396  695.0748
 397  687.0051
 398  624.9889
 399  644.9745
 400  586.664
 401  626.0851
 402  754.8397
 403  739.3456
 404  637.6357
 405  641.3002
 406  651.451
 407  650.1882
 408  596.4386
 409  691.5513
 410  769.5381
 411  592.9195
 412  576.322
 413  582.5069
 414  597.2586
 415  689.1747
 416  716.5707
 417  723.8928
 418  683.7902
 419  657.471
 420  772.5431
 421  701.8789
 422  660.1566
 423  534.6237
 424  599.1929
 425  651.7471
 426  765.1414
 427  725.6132
 428  590.353
 429  685.2015
 430  706.3195
 431  773.5688
 432  639.3185
 433  688.5428
 434  656.441
 435  642.9498
 436  717.9943
 437  735.8317
 438  675.7573
 439  676.4781
 440  664.564
 441  593.9114
 442  566.4084
 443  593.7109
 444  678.8082
 445  706.6753
 446  625.6085
 447  622.436
 448  594.1583
 449  536.8899
 450  587.2366
 451  577.0714
 452  581.2221
 453  615.4024
 454  762.0157
 455  782.149
 456  705.7431
 457  518.1264
 458  637.0283
 459  684.6166
 460  655.0137
 461  692.1178
 462  754.8088
 463  695.6199
 464  667.1321
 465  722.0023
 466  616.7608
 467  696.048
 468  743.0327
 469  798.4693
 470  731.6428
 471  644.9015
 472  634.9212
 473  712.0729
 474  691.3064
 475  693.7136
 476  736.5468
 477  746.4706
 478  599.4928
 479  633.3478
 480  570.588
 481  546.2852
 482  709.1496
 483  757.6047
 484  672.5057
 485  684.6748
 486  689.3844
 487  757.8963
 488  713.8776
 489  777.5858
 490  787.3524
 491  757.322
 492  838.4177
 493  862.9889
 494  740.0284
 495  826.7742
 496  867.4184
 497  881.4771
 498  765.3256
 499  687.5269
 500  698.627
 501  766.2855
 502  809.9568
 503  774.6755
 504  756.528
 505  681.8771
 506  828.8083
 507  831.6785
 508  859.1678
 509  716.4279
 510  755.7648
 511  725.4109
