# Input file       =  1183525578.105013_cleaned.dat
# Candidate        =  PSR_0332+5434
# Telescope        =  AR
# Epoch_topo       =  57942.212501215428
# Epoch_bary       =  N/A
# T_sample         =  0.002
# Data Folded      =  7340032
# Data Avg         =  0.0578101713653471
# Data StdDev      =  1.00005045521363 
# Profile Bins     =  512
# Profile Avg      =  828.864959625953 
# Profile StdDev   =  119.739077532695 
# Reduced chi-sqr  =  1.058
# Prob(Noise)      <  0.177   (~0.9 sigma)
# P_topo (ms)      =  714.483681979977  +/- 0.000361
# P'_topo (s/s)    =  -0                +/- 1.91e-10
# P''_topo (s/s^2) =  0                 +/- 8.42e-14
# P_bary (ms)      =  N/A
# P'_bary (s/s)    =  N/A
# P''_bary (s/s^2) =  N/A
# P_orb (s)        =  N/A
# asin(i)/c (s)    =  N/A
# eccentricity     =  N/A
# w (rad)          =  N/A
# T_peri           =  N/A
######################################################
   0  763.9435
   1  717.0593
   2  731.4796
   3  808.8585
   4  847.529
   5  829.2948
   6  758.0173
   7  825.3252
   8  824.7068
   9  768.3359
  10  816.5206
  11  830.1981
  12  797.4263
  13  837.2437
  14  865.3844
  15  795.1932
  16  862.6882
  17  809.6427
  18  764.6237
  19  749.8965
  20  805.9409
  21  807.0933
  22  892.4678
  23  903.3654
  24  797.5002
  25  845.0874
  26  851.4788
  27  901.4311
  28  894.2612
  29  918.5275
  30  908.2501
  31  1025.487
  32  970.7053
  33  930.7965
  34  942.8349
  35  892.0651
  36  903.3425
  37  972.7393
  38  932.4248
  39  930.7472
  40  881.9925
  41  867.4079
  42  797.1223
  43  827.6749
  44  909.5746
  45  873.5364
  46  829.6302
  47  862.9886
  48  802.6245
  49  800.321
  50  792.813
  51  874.6004
  52  887.4251
  53  832.0101
  54  814.8682
  55  816.2159
  56  819.2502
  57  789.6187
  58  818.5594
  59  728.682
  60  773.7291
  61  855.083
  62  826.6959
  63  853.9202
  64  818.1924
  65  924.3704
  66  843.735
  67  755.1454
  68  822.0251
  69  832.7417
  70  839.1783
  71  764.8555
  72  784.6652
  73  808.7731
  74  727.5972
  75  671.4926
  76  665.6949
  77  671.8786
  78  736.3445
  79  861.7257
  80  715.5176
  81  762.418
  82  770.8396
  83  867.7554
  84  851.0141
  85  939.7978
  86  877.5988
  87  849.2892
  88  850.267
  89  846.8324
  90  830.2399
  91  779.4945
  92  892.9352
  93  896.9687
  94  797.8016
  95  892.8262
  96  822.3318
  97  754.3249
  98  758.9033
  99  698.8799
 100  761.6777
 101  849.8795
 102  845.2137
 103  794.8586
 104  720.8986
 105  750.636
 106  754.6563
 107  678.91
 108  797.7924
 109  823.7059
 110  776.4637
 111  767.0228
 112  822.6755
 113  718.4775
 114  700.0223
 115  836.0799
 116  811.8389
 117  769.1266
 118  835.5892
 119  927.1849
 120  918.2346
 121  869.9572
 122  900.522
 123  856.8154
 124  837.5148
 125  808.0553
 126  771.2989
 127  814.9006
 128  768.1139
 129  759.2487
 130  846.3159
 131  869.635
 132  824.8899
 133  789.2497
 134  783.9515
 135  785.5684
 136  875.5567
 137  955.5528
 138  894.9053
 139  847.1663
 140  843.2427
 141  848.4612
 142  744.1682
 143  736.3188
 144  832.7183
 145  908.9659
 146  881.9836
 147  903.6741
 148  878.7297
 149  868.278
 150  959.11
 151  927.9317
 152  891.9609
 153  849.7208
 154  827.7568
 155  792.774
 156  840.6111
 157  799.0832
 158  774.0721
 159  743.9423
 160  637.7801
 161  779.308
 162  777.6722
 163  778.4487
 164  919.7563
 165  904.3941
 166  854.154
 167  832.5338
 168  931.0775
 169  902.5206
 170  857.7535
 171  920.8079
 172  865.9681
 173  842.3298
 174  855.3732
 175  863.3411
 176  871.7285
 177  931.2221
 178  925.3704
 179  965.0791
 180  998.7761
 181  884.1713
 182  794.6352
 183  830.8247
 184  859.2429
 185  880.9284
 186  876.4028
 187  848.412
 188  877.3013
 189  977.5521
 190  941.684
 191  945.6954
 192  868.8162
 193  869.8386
 194  871.7205
 195  908.7875
 196  868.7789
 197  907.489
 198  893.419
 199  887.8241
 200  854.6095
 201  814.6906
 202  763.8525
 203  724.5061
 204  741.1647
 205  804.138
 206  782.1495
 207  736.0473
 208  725.742
 209  828.2102
 210  933.3324
 211  846.8131
 212  747.0694
 213  726.4527
 214  732.7595
 215  801.2855
 216  952.8499
 217  906.5914
 218  841.1988
 219  902.3174
 220  821.9746
 221  788.0151
 222  762.9306
 223  815.9705
 224  803.0024
 225  810.783
 226  844.676
 227  772.327
 228  701.987
 229  721.8204
 230  732.5078
 231  742.4233
 232  684.5059
 233  701.506
 234  779.6642
 235  754.0471
 236  774.02
 237  851.3691
 238  871.662
 239  839.2376
 240  901.3772
 241  948.7161
 242  852.5325
 243  806.392
 244  749.4871
 245  811.0343
 246  700.3599
 247  724.7366
 248  751.1911
 249  863.3691
 250  955.5883
 251  928.307
 252  797.7632
 253  706.8809
 254  720.0217
 255  866.9713
 256  898.0492
 257  818.5463
 258  838.4542
 259  844.2499
 260  880.4494
 261  884.6812
 262  940.452
 263  923.7457
 264  854.0746
 265  780.2494
 266  799.6853
 267  807.5275
 268  775.4258
 269  789.7366
 270  771.2096
 271  819.7994
 272  873.7925
 273  876.7269
 274  833.5617
 275  761.3146
 276  688.4875
 277  736.9086
 278  792.7993
 279  792.0333
 280  857.7009
 281  857.0721
 282  781.9183
 283  745.2363
 284  830.08
 285  838.9525
 286  835.0776
 287  780.1005
 288  825.2094
 289  879.364
 290  867.8066
 291  808.9935
 292  873.1591
 293  905.514
 294  896.3947
 295  877.4753
 296  874.4008
 297  873.216
 298  852.308
 299  806.6104
 300  823.914
 301  837.0115
 302  893.5216
 303  829.9107
 304  801.1232
 305  858.3237
 306  868.2662
 307  868.7776
 308  748.6962
 309  829.8353
 310  824.4846
 311  878.4748
 312  875.5288
 313  801.0783
 314  807.0724
 315  749.8588
 316  671.7163
 317  718.8284
 318  826.6698
 319  888.4542
 320  842.1413
 321  761.6494
 322  704.7137
 323  778.6649
 324  764.8346
 325  821.5419
 326  897.7352
 327  818.7666
 328  732.1945
 329  783.4918
 330  745.8984
 331  787.7953
 332  859.6001
 333  972.0422
 334  903.2016
 335  888.4819
 336  866.2173
 337  856.4058
 338  791.7103
 339  838.8364
 340  830.9607
 341  916.1078
 342  928.964
 343  975.8065
 344  869.0169
 345  847.7673
 346  904.363
 347  898.2247
 348  809.4453
 349  805.8497
 350  821.5377
 351  833.9913
 352  889.4088
 353  775.6767
 354  841.7896
 355  938.9968
 356  968.3935
 357  1024.189
 358  953.5784
 359  996.1098
 360  1238.481
 361  1456.142
 362  1449.144
 363  1416.886
 364  1257.097
 365  1085.028
 366  1008.481
 367  978.2949
 368  931.1254
 369  903.6992
 370  827.955
 371  818.9665
 372  812.8962
 373  863.8217
 374  875.2548
 375  884.7133
 376  934.4379
 377  864.2386
 378  821.2001
 379  680.945
 380  721.886
 381  814.2747
 382  777.0303
 383  834.8932
 384  742.1398
 385  714.8208
 386  740.675
 387  729.9453
 388  681.5615
 389  716.283
 390  715.0682
 391  651.6676
 392  756.6916
 393  801.5784
 394  795.5958
 395  782.0745
 396  771.3278
 397  778.5213
 398  794.2906
 399  791.151
 400  826.7133
 401  744.4676
 402  804.0999
 403  831.4055
 404  793.3049
 405  817.8906
 406  783.349
 407  807.7147
 408  809.3531
 409  756.9773
 410  730.459
 411  774.3108
 412  770.2695
 413  767.8077
 414  800.8892
 415  797.0896
 416  825.4934
 417  767.983
 418  829.6221
 419  856.2334
 420  762.5403
 421  744.7648
 422  754.7166
 423  691.8569
 424  726.9158
 425  804.246
 426  713.0987
 427  682.6094
 428  756.0524
 429  821.9441
 430  782.9852
 431  776.2469
 432  824.0651
 433  884.8298
 434  907.8791
 435  913.4257
 436  779.9209
 437  797.6643
 438  830.0909
 439  734.6467
 440  773.9592
 441  870.2405
 442  818.2594
 443  691.9989
 444  795.4882
 445  874.6531
 446  756.2092
 447  833.0991
 448  852.2241
 449  916.7953
 450  894.384
 451  815.4918
 452  706.326
 453  669.7663
 454  786.8282
 455  806.339
 456  852.9519
 457  976.7541
 458  917.705
 459  892.3547
 460  742.0168
 461  725.8309
 462  770.1098
 463  778.5696
 464  777.3267
 465  800.1047
 466  765.7537
 467  766.2968
 468  781.6896
 469  765.0684
 470  815.8428
 471  849.282
 472  762.0123
 473  719.2221
 474  736.2911
 475  829.698
 476  834.0459
 477  806.7299
 478  842.2635
 479  703.7166
 480  672.5674
 481  729.8024
 482  623.4301
 483  697.2053
 484  769.9227
 485  731.2571
 486  780.5095
 487  899.5001
 488  958.8672
 489  896.964
 490  812.9593
 491  853.9352
 492  908.1769
 493  782.2045
 494  771.1854
 495  819.0829
 496  915.2634
 497  904.9152
 498  914.8676
 499  886.584
 500  911.7833
 501  846.3444
 502  685.7825
 503  744.663
 504  808.6136
 505  859.4796
 506  829.4033
 507  773.6471
 508  837.6809
 509  845.1933
 510  774.2575
 511  798.4649
