# Input file       =  1183094583.125446_cleaned.dat
# Candidate        =  PSR_0332+5434
# Telescope        =  AR
# Epoch_topo       =  57937.224133396368
# Epoch_bary       =  N/A
# T_sample         =  0.002
# Data Folded      =  7340032
# Data Avg         =  0.0525988977029981
# Data StdDev      =  1.00019776190018 
# Profile Bins     =  512
# Profile Avg      =  753.894768156014 
# Profile StdDev   =  119.756715009554 
# Reduced chi-sqr  =  1.335
# Prob(Noise)      <  5.4e-07   (~4.9 sigma)
# P_topo (ms)      =  714.487468137605  +/- 0.000197
# P'_topo (s/s)    =  -0                +/- 1.04e-10
# P''_topo (s/s^2) =  0                 +/- 4.58e-14
# P_bary (ms)      =  N/A
# P'_bary (s/s)    =  N/A
# P''_bary (s/s^2) =  N/A
# P_orb (s)        =  N/A
# asin(i)/c (s)    =  N/A
# eccentricity     =  N/A
# w (rad)          =  N/A
# T_peri           =  N/A
######################################################
   0  1371.434
   1  1362.338
   2  1168.865
   3  956.9362
   4  887.3097
   5  858.113
   6  756.2198
   7  716.2771
   8  760.3737
   9  805.9362
  10  863.9569
  11  886.0649
  12  923.4457
  13  829.9631
  14  919.5045
  15  999.2742
  16  983.0421
  17  800.9073
  18  744.2488
  19  755.1296
  20  734.1412
  21  759.294
  22  751.947
  23  689.4559
  24  631.9249
  25  687.3707
  26  715.1444
  27  645.2496
  28  620.727
  29  693.4691
  30  686.494
  31  682.2222
  32  617.0252
  33  590.0607
  34  650.5576
  35  728.4111
  36  697.9343
  37  644.3093
  38  714.6937
  39  750.4267
  40  770.0532
  41  686.8245
  42  748.3774
  43  698.6249
  44  675.9681
  45  733.4368
  46  768.8473
  47  729.8405
  48  773.5499
  49  839.0127
  50  881.4271
  51  658.2712
  52  779.9303
  53  881.1976
  54  857.8132
  55  752.9858
  56  827.0659
  57  755.2142
  58  827.5113
  59  801.498
  60  779.1282
  61  770.4873
  62  640.9552
  63  741.6175
  64  712.9706
  65  611.4692
  66  553.6724
  67  599.9669
  68  659.6929
  69  673.0851
  70  588.7222
  71  641.5209
  72  734.7718
  73  723.8537
  74  780.1774
  75  681.6464
  76  695.0712
  77  767.2936
  78  680.0488
  79  606.5273
  80  636.1295
  81  740.9386
  82  728.1445
  83  675.0126
  84  632.0015
  85  653.4903
  86  712.1664
  87  702.3768
  88  787.8353
  89  738.6747
  90  734.9008
  91  799.9599
  92  793.1196
  93  782.6744
  94  718.574
  95  752.837
  96  705.2277
  97  664.8149
  98  623.7945
  99  784.2922
 100  783.8525
 101  681.5826
 102  676.1473
 103  656.7418
 104  665.5503
 105  680.3112
 106  776.608
 107  695.5228
 108  691.846
 109  696.5662
 110  724.3401
 111  688.7228
 112  688.4206
 113  686.2026
 114  735.6511
 115  690.9161
 116  653.4363
 117  657.8285
 118  680.3135
 119  697.3564
 120  711.3915
 121  654.528
 122  667.4283
 123  702.7659
 124  679.3376
 125  659.1475
 126  730.5231
 127  665.6154
 128  627.5869
 129  635.7441
 130  657.3988
 131  655.6815
 132  673.1054
 133  710.9952
 134  700.0137
 135  707.7766
 136  745.2317
 137  746.7311
 138  755.5293
 139  801.8097
 140  812.0327
 141  787.7482
 142  862.6601
 143  845.9682
 144  906.7241
 145  860.1672
 146  794.3972
 147  765.3329
 148  825.3652
 149  805.7224
 150  729.2707
 151  704.0803
 152  749.4954
 153  760.0752
 154  626.8451
 155  636.8839
 156  652.684
 157  665.418
 158  692.0551
 159  704.5502
 160  617.1634
 161  610.9036
 162  646.0513
 163  671.7527
 164  817.6432
 165  628.2182
 166  615.156
 167  619.4318
 168  633.9281
 169  589.466
 170  586.495
 171  629.8026
 172  693.2195
 173  616.191
 174  580.4678
 175  645.0197
 176  723.1188
 177  757.2859
 178  677.3839
 179  726.2006
 180  778.6826
 181  733.4703
 182  756.429
 183  769.7597
 184  801.2503
 185  771.9315
 186  833.9511
 187  813.2961
 188  833.5337
 189  677.7029
 190  703.2602
 191  723.7372
 192  804.4256
 193  813.2867
 194  767.4266
 195  717.0999
 196  717.5754
 197  664.007
 198  629.6034
 199  662.4642
 200  710.947
 201  650.5196
 202  720.7939
 203  673.0023
 204  555.639
 205  575.9338
 206  612.5798
 207  602.624
 208  530.8343
 209  571.5778
 210  594.4588
 211  595.1978
 212  640.5947
 213  550.7178
 214  656.3506
 215  730.6895
 216  749.4072
 217  663.1133
 218  617.5503
 219  659.6738
 220  734.2432
 221  799.758
 222  744.2057
 223  712.549
 224  794.2377
 225  838.5598
 226  892.6947
 227  792.9005
 228  762.381
 229  720.223
 230  772.3864
 231  803.8275
 232  808.08
 233  741.2794
 234  696.9352
 235  750.5322
 236  787.2618
 237  817.042
 238  768.2985
 239  719.7814
 240  786.8701
 241  675.5486
 242  633.4107
 243  736.2473
 244  832.1865
 245  834.2686
 246  807.1354
 247  710.7554
 248  657.5742
 249  750.0716
 250  841.5285
 251  838.5372
 252  829.3733
 253  932.1727
 254  834.6252
 255  744.7877
 256  831.1153
 257  959.6359
 258  917.135
 259  855.098
 260  936.1816
 261  938.5254
 262  895.3098
 263  856.9802
 264  910.0133
 265  913.4747
 266  830.914
 267  876.35
 268  848.8085
 269  929.0429
 270  861.1802
 271  695.7111
 272  759.951
 273  766.0928
 274  719.6357
 275  691.7561
 276  676.8053
 277  695.0746
 278  777.009
 279  679.6629
 280  619.9199
 281  686.307
 282  711.0687
 283  730.8508
 284  827.5556
 285  684.1815
 286  713.0325
 287  775.5004
 288  851.1387
 289  761.1917
 290  729.6074
 291  626.5922
 292  696.0905
 293  770.1625
 294  806.7946
 295  799.9959
 296  756.9167
 297  696.1566
 298  814.6562
 299  834.0661
 300  694.0233
 301  719.0767
 302  803.9688
 303  793.8092
 304  670.2338
 305  655.6254
 306  775.0714
 307  715.3837
 308  685.025
 309  688.89
 310  660.3683
 311  797.0912
 312  822.8423
 313  768.2283
 314  751.5625
 315  758.6951
 316  731.7778
 317  709.7823
 318  763.1546
 319  802.8882
 320  732.5159
 321  786.3706
 322  711.3549
 323  768.7418
 324  733.7751
 325  707.616
 326  763.4015
 327  841.8632
 328  770.7348
 329  789.6862
 330  792.2621
 331  648.5105
 332  696.3755
 333  782.2598
 334  761.777
 335  836.8052
 336  814.4426
 337  667.278
 338  722.9151
 339  688.9923
 340  819.5834
 341  740.2064
 342  723.8859
 343  758.2242
 344  801.3057
 345  824.7081
 346  805.2021
 347  793.3273
 348  839.6081
 349  846.0494
 350  875.4638
 351  858.6865
 352  818.7523
 353  832.1479
 354  798.5995
 355  839.4603
 356  848.9044
 357  773.762
 358  721.5709
 359  776.8104
 360  770.6227
 361  744.0049
 362  680.5563
 363  688.4913
 364  704.1035
 365  763.7053
 366  688.7776
 367  652.5251
 368  752.2245
 369  663.9767
 370  645.9778
 371  666.8806
 372  673.8337
 373  724.8776
 374  748.6578
 375  692.6435
 376  671.3857
 377  626.2734
 378  600.0564
 379  713.4712
 380  666.1804
 381  632.5838
 382  643.654
 383  746.3057
 384  771.7639
 385  757.056
 386  818.751
 387  656.1071
 388  759.3476
 389  821.3337
 390  818.2198
 391  715.8046
 392  782.4777
 393  815.1127
 394  775.197
 395  759.0981
 396  773.8712
 397  863.4897
 398  893.9427
 399  891.4903
 400  819.2232
 401  888.455
 402  887.3914
 403  894.0548
 404  805.0092
 405  782.6843
 406  724.8273
 407  826.2308
 408  824.5751
 409  812.2946
 410  791.6112
 411  748.3832
 412  707.2517
 413  778.1677
 414  786.3723
 415  796.3782
 416  799.3964
 417  652.5666
 418  694.103
 419  675.9935
 420  708.0395
 421  761.9527
 422  780.0819
 423  924.441
 424  790.9669
 425  735.0138
 426  822.8098
 427  827.2942
 428  780.7419
 429  813.0862
 430  840.6144
 431  784.8206
 432  808.8196
 433  704.005
 434  893.7866
 435  858.8423
 436  852.0221
 437  822.6053
 438  903.6788
 439  872.9016
 440  780.402
 441  797.8817
 442  811.3453
 443  767.8729
 444  707.569
 445  675.2141
 446  694.0763
 447  658.4309
 448  675.7018
 449  648.0959
 450  704.7729
 451  712.6653
 452  662.803
 453  479.6792
 454  491.5291
 455  563.364
 456  634.3485
 457  700.4849
 458  684.8868
 459  641.0688
 460  679.0894
 461  736.3881
 462  813.8726
 463  885.3224
 464  812.3983
 465  721.7558
 466  744.5266
 467  784.581
 468  810.2881
 469  835.0206
 470  859.0325
 471  749.1541
 472  773.982
 473  778.4318
 474  768.0579
 475  842.1452
 476  852.1722
 477  866.5283
 478  886.131
 479  830.6951
 480  875.7171
 481  846.063
 482  922.5196
 483  836.7111
 484  860.0654
 485  901.7395
 486  936.3807
 487  913.4996
 488  898.9854
 489  931.5656
 490  847.2872
 491  833.0487
 492  875.145
 493  881.8231
 494  838.8824
 495  759.4331
 496  802.2466
 497  814.0243
 498  815.6097
 499  832.044
 500  843.4136
 501  787.1652
 502  764.0969
 503  745.8286
 504  759.9122
 505  721.6195
 506  695.4335
 507  743.0047
 508  860.7836
 509  936.9591
 510  1170.266
 511  1306.779
