# Input file       =  1183281104.121031_cleaned.dat
# Candidate        =  PSR_0332+5434
# Telescope        =  AR
# Epoch_topo       =  57939.382941215634
# Epoch_bary       =  N/A
# T_sample         =  0.002
# Data Folded      =  7340032
# Data Avg         =  0.0628430862636198
# Data StdDev      =  0.999933708435548
# Profile Bins     =  512
# Profile Avg      =  900.943938118792 
# Profile StdDev   =  119.725099086468 
# Reduced chi-sqr  =  0.871
# Prob(Noise)      <  0.984   (~0.0 sigma)
# P_topo (ms)      =  714.486118613482  +/- 0.000548
# P'_topo (s/s)    =  -0                +/- 2.89e-10
# P''_topo (s/s^2) =  0                 +/- 1.28e-13
# P_bary (ms)      =  N/A
# P'_bary (s/s)    =  N/A
# P''_bary (s/s^2) =  N/A
# P_orb (s)        =  N/A
# asin(i)/c (s)    =  N/A
# eccentricity     =  N/A
# w (rad)          =  N/A
# T_peri           =  N/A
######################################################
   0  797.9191
   1  845.3799
   2  877.3964
   3  884.59
   4  813.5938
   5  825.4185
   6  829.7941
   7  833.7552
   8  754.898
   9  884.1076
  10  907.215
  11  915.9657
  12  886.7081
  13  870.4726
  14  880.4194
  15  914.6054
  16  912.7338
  17  952.7602
  18  926.0886
  19  853.4499
  20  822.0359
  21  791.4398
  22  714.8446
  23  760.6544
  24  903.3247
  25  860.805
  26  810.414
  27  842.3641
  28  855.6899
  29  921.7019
  30  1009.397
  31  944.6791
  32  837.2272
  33  920.0773
  34  885.3979
  35  874.9121
  36  845.7217
  37  936.0641
  38  912.6457
  39  795.7941
  40  790.9897
  41  864.7766
  42  848.7236
  43  842.7191
  44  930.9286
  45  912.4909
  46  994.4636
  47  989.7665
  48  909.3574
  49  875.388
  50  902.7422
  51  997.7663
  52  1022.019
  53  924.4693
  54  877.4048
  55  954.5952
  56  978.9682
  57  971.4742
  58  1015.625
  59  1009.58
  60  961.9697
  61  904.5576
  62  934.8984
  63  968.1617
  64  910.3228
  65  769.4003
  66  815.0014
  67  802.2072
  68  825.2365
  69  947.2827
  70  905.4462
  71  904.0345
  72  915.4468
  73  926.88
  74  952.8474
  75  860.4977
  76  888.2619
  77  923.4296
  78  941.3881
  79  1011.408
  80  917.847
  81  789.6595
  82  888.5711
  83  935.4849
  84  963.1877
  85  964.2583
  86  1034.737
  87  943.121
  88  893.2836
  89  884.8793
  90  878.2859
  91  873.7239
  92  915.1497
  93  971.1933
  94  1027.264
  95  940.9482
  96  875.0541
  97  827.4665
  98  852.4695
  99  885.7308
 100  875.2262
 101  1002.013
 102  898.166
 103  868.7332
 104  849.7508
 105  886.6014
 106  1056.28
 107  966.3846
 108  1010.803
 109  1017.104
 110  951.348
 111  986.7711
 112  989.7414
 113  904.2806
 114  896.8914
 115  917.3479
 116  928.52
 117  915.8743
 118  948.4949
 119  943.0726
 120  934.416
 121  881.8824
 122  857.7997
 123  894.4789
 124  918.6727
 125  961.6302
 126  895.7444
 127  898.303
 128  919.7099
 129  1035.738
 130  959.8002
 131  872.578
 132  857.8522
 133  981.3674
 134  920.1795
 135  875.957
 136  929.3412
 137  934.5472
 138  811.9211
 139  841.4108
 140  935.6332
 141  1011.652
 142  966.0643
 143  927.1114
 144  832.9196
 145  863.4129
 146  977.1265
 147  855.0916
 148  849.9499
 149  888.767
 150  895.4839
 151  896.8174
 152  913.8505
 153  809.6469
 154  819.8157
 155  828.9877
 156  798.4723
 157  867.0658
 158  887.3315
 159  834.6461
 160  837.6355
 161  829.3281
 162  831.4641
 163  816.0487
 164  876.8039
 165  931.1147
 166  894.325
 167  834.654
 168  816.7573
 169  844.9345
 170  778.3342
 171  815.2178
 172  785.9481
 173  951.0488
 174  1004.806
 175  919.143
 176  843.4542
 177  769.9691
 178  787.5869
 179  772.394
 180  803.4082
 181  869.338
 182  896.5728
 183  947.4677
 184  952.2815
 185  881.3806
 186  869.5164
 187  887.5307
 188  910.6071
 189  855.077
 190  881.0195
 191  949.2303
 192  945.7617
 193  849.933
 194  890.5022
 195  869.5392
 196  879.0042
 197  868.2922
 198  914.6902
 199  944.2119
 200  955.3899
 201  977.0878
 202  953.6844
 203  944.7633
 204  967.2178
 205  855.9968
 206  944.8016
 207  926.2397
 208  903.1929
 209  1003.523
 210  907.8281
 211  822.2158
 212  888.0535
 213  945.8067
 214  950.0004
 215  869.8467
 216  947.7357
 217  1002.416
 218  943.8843
 219  938.5452
 220  897.3426
 221  803.9874
 222  919.1799
 223  935.8191
 224  939.8312
 225  938.9193
 226  894.4142
 227  943.7414
 228  834.1804
 229  774.4835
 230  940.6642
 231  923.3519
 232  852.5812
 233  927.9469
 234  941.413
 235  968.8561
 236  982.3504
 237  910.5985
 238  945.9755
 239  849.524
 240  888.0214
 241  996.8606
 242  1025.817
 243  1002.583
 244  1041.359
 245  1029.123
 246  1020.341
 247  1002.78
 248  997.4301
 249  924.2193
 250  893.4666
 251  969.3276
 252  950.1148
 253  945.4017
 254  845.7786
 255  804.4592
 256  812.0608
 257  864.4293
 258  845.4656
 259  937.3007
 260  923.3589
 261  880.512
 262  821.261
 263  791.972
 264  877.8705
 265  932.3436
 266  908.9506
 267  892.4963
 268  880.6948
 269  873.7201
 270  953.4344
 271  977.4371
 272  902.8358
 273  798.0974
 274  783.0421
 275  851.4217
 276  860.1079
 277  844.8044
 278  880.9313
 279  888.2319
 280  985.646
 281  915.459
 282  817.54
 283  799.3964
 284  878.9178
 285  901.0769
 286  968.9286
 287  901.1306
 288  922.5673
 289  976.3926
 290  910.4457
 291  827.416
 292  787.3842
 293  808.3538
 294  943.3237
 295  918.5252
 296  891.0012
 297  906.2559
 298  971.4091
 299  980.6359
 300  921.6047
 301  876.5292
 302  872.9578
 303  892.8255
 304  856.3359
 305  889.7929
 306  794.856
 307  902.652
 308  838.6192
 309  863.6183
 310  945.4736
 311  870.7579
 312  835.0159
 313  829.2095
 314  855.4249
 315  884.7086
 316  894.2793
 317  933.0819
 318  852.5635
 319  927.0338
 320  885.4459
 321  885.7364
 322  847.2715
 323  934.5486
 324  978.7366
 325  915.9073
 326  886.7081
 327  935.8318
 328  911.1396
 329  872.7858
 330  939.4117
 331  990.3833
 332  953.2812
 333  838.3079
 334  746.5288
 335  845.4302
 336  834.2636
 337  840.8641
 338  878.0521
 339  790.1756
 340  806.0632
 341  873.2707
 342  771.5527
 343  778.8547
 344  858.0797
 345  834.2516
 346  826.8793
 347  914.5851
 348  839.0695
 349  766.6395
 350  884.8198
 351  830.9817
 352  779.4056
 353  773.5141
 354  785.999
 355  792.699
 356  803.9169
 357  830.0239
 358  821.6955
 359  861.0542
 360  869.608
 361  810.3832
 362  756.0414
 363  907.332
 364  892.579
 365  967.9989
 366  916.2195
 367  897.9387
 368  889.1985
 369  918.4617
 370  994.5684
 371  947.4741
 372  879.471
 373  916.2399
 374  905.1956
 375  964.0933
 376  975.1752
 377  969.1075
 378  808.7121
 379  796.6524
 380  921.1618
 381  927.1658
 382  889.5256
 383  959.7493
 384  1019.537
 385  1014.407
 386  956.0639
 387  861.8911
 388  855.7469
 389  907.3625
 390  967.4731
 391  976.6259
 392  1040.637
 393  975.249
 394  936.1368
 395  929.4704
 396  972.3088
 397  1010.745
 398  1004.911
 399  940.0156
 400  793.9523
 401  829.6288
 402  924.3181
 403  1083.563
 404  1050.413
 405  1066.339
 406  1096.654
 407  1188.015
 408  1240.096
 409  1342.786
 410  1434.84
 411  1333.604
 412  1203.856
 413  1145.534
 414  971.4504
 415  903.0402
 416  978.9072
 417  914.4728
 418  890.7166
 419  839.7511
 420  804.5845
 421  821.6511
 422  853.7236
 423  812.7287
 424  866.1102
 425  893.3651
 426  930.4492
 427  910.1746
 428  859.6221
 429  855.4808
 430  826.9715
 431  912.499
 432  933.1571
 433  956.1794
 434  878.0313
 435  867.2948
 436  872.6154
 437  880.6149
 438  826.5978
 439  889.5355
 440  849.5923
 441  874.1573
 442  963.6036
 443  1014.388
 444  949.4263
 445  853.923
 446  897.4959
 447  913.858
 448  920.3703
 449  809.2554
 450  847.7405
 451  805.3183
 452  856.8215
 453  842.1265
 454  860.7106
 455  826.3276
 456  861.5228
 457  828.2827
 458  838.3378
 459  809.8451
 460  830.0982
 461  830.7667
 462  856.9388
 463  997.3658
 464  983.4996
 465  916.8407
 466  822.1443
 467  816.1345
 468  799.1224
 469  800.6306
 470  831.4131
 471  820.421
 472  908.5756
 473  938.1105
 474  946.6674
 475  1035.584
 476  926.3636
 477  1019.35
 478  1021.722
 479  1091.409
 480  1036.898
 481  973.9171
 482  970.7443
 483  978.751
 484  933.8223
 485  1034.931
 486  993.7932
 487  931.838
 488  868.3405
 489  871.5037
 490  943.5425
 491  912.4742
 492  870.2538
 493  923.1068
 494  942.738
 495  948.9314
 496  892.6098
 497  907.7566
 498  827.7322
 499  794.4617
 500  887.2096
 501  744.0305
 502  785.6491
 503  868.938
 504  819.6413
 505  791.7032
 506  795.9742
 507  766.7681
 508  825.1284
 509  825.3426
 510  734.3295
 511  725.0378
