# Input file       =  1183697231.101892_cleaned.dat
# Candidate        =  PSR_0332+5434
# Telescope        =  AR
# Epoch_topo       =  57944.199225716344
# Epoch_bary       =  N/A
# T_sample         =  0.002
# Data Folded      =  7340032
# Data Avg         =  0.0486727294292567
# Data StdDev      =  1.00012226632278 
# Profile Bins     =  512
# Profile Avg      =  697.230385256113 
# Profile StdDev   =  119.747675694839 
# Reduced chi-sqr  =  1.341
# Prob(Noise)      <  3.81e-07   (~4.9 sigma)
# P_topo (ms)      =  714.482231409475  +/- 0.000606
# P'_topo (s/s)    =  -0                +/- 3.2e-10
# P''_topo (s/s^2) =  0                 +/- 1.41e-13
# P_bary (ms)      =  N/A
# P'_bary (s/s)    =  N/A
# P''_bary (s/s^2) =  N/A
# P_orb (s)        =  N/A
# asin(i)/c (s)    =  N/A
# eccentricity     =  N/A
# w (rad)          =  N/A
# T_peri           =  N/A
######################################################
   0  1324.099
   1  1257.376
   2  1133.999
   3  902.0419
   4  811.4741
   5  699.5557
   6  772.9112
   7  820.6547
   8  761.307
   9  741.1785
  10  734.9838
  11  698.759
  12  663.5524
  13  719.3294
  14  740.7255
  15  770.2513
  16  792.5875
  17  704.8281
  18  557.3986
  19  611.6927
  20  633.1117
  21  644.2917
  22  529.356
  23  582.3242
  24  716.7913
  25  666.2849
  26  587.3814
  27  567.4365
  28  634.3406
  29  693.9271
  30  683.028
  31  717.8581
  32  701.9559
  33  559.0967
  34  697.9317
  35  753.2763
  36  668.0898
  37  581.2398
  38  647.499
  39  679.8956
  40  696.129
  41  688.7122
  42  621.8734
  43  678.0132
  44  699.2849
  45  699.8741
  46  639.6512
  47  562.9622
  48  691.4995
  49  613.0405
  50  663.5322
  51  776.1508
  52  721.9193
  53  609.8235
  54  652.7158
  55  692.4434
  56  672.279
  57  683.5533
  58  684.4075
  59  690.1863
  60  742.2098
  61  781.1171
  62  798.9009
  63  720.4868
  64  709.9684
  65  754.9208
  66  787.7332
  67  812.7945
  68  831.5251
  69  903.5887
  70  795.8035
  71  694.3227
  72  718.4662
  73  685.1838
  74  666.2861
  75  701.455
  76  754.2761
  77  731.8688
  78  700.0071
  79  775.0533
  80  827.7546
  81  802.6205
  82  747.3787
  83  736.8234
  84  753.4484
  85  774.2009
  86  636.8933
  87  604.4271
  88  607.5051
  89  590.5894
  90  616.6255
  91  671.5152
  92  677.139
  93  570.5021
  94  656.6647
  95  602.6748
  96  722.524
  97  730.4357
  98  640.8837
  99  637.8915
 100  515.6675
 101  607.082
 102  683.353
 103  712.9691
 104  729.2968
 105  641.8378
 106  667.863
 107  756.1414
 108  675.2207
 109  626.1289
 110  606.3553
 111  630.0433
 112  681.2156
 113  658.6186
 114  598.5038
 115  660.6658
 116  713.2352
 117  659.4074
 118  601.8166
 119  653.9824
 120  601.3571
 121  700.1046
 122  676.5723
 123  689.8514
 124  702.3133
 125  740.9309
 126  743.9246
 127  745.7794
 128  656.0001
 129  684.8351
 130  626.8186
 131  639.5795
 132  663.7731
 133  635.3397
 134  658.9656
 135  674.8781
 136  687.5082
 137  731.5533
 138  801.11
 139  782.2132
 140  671.5096
 141  829.648
 142  874.3655
 143  753.4604
 144  695.4395
 145  685.006
 146  703.6186
 147  716.0958
 148  752.2826
 149  686.202
 150  621.8838
 151  737.1505
 152  738.1725
 153  587.6064
 154  448.03
 155  528.2766
 156  704.2446
 157  670.724
 158  638.0542
 159  657.9818
 160  579.5915
 161  667.3831
 162  730.9432
 163  686.8634
 164  674.6804
 165  681.9836
 166  684.7505
 167  712.8323
 168  630.728
 169  582.8389
 170  663.1143
 171  755.166
 172  696.416
 173  691.3562
 174  613.1
 175  566.0859
 176  535.6498
 177  608.8102
 178  647.0772
 179  669.8007
 180  690.5057
 181  659.5474
 182  636.7165
 183  681.5328
 184  632.6248
 185  683.1174
 186  749.8513
 187  688.7892
 188  648.4943
 189  674.8537
 190  547.9677
 191  489.5413
 192  624.8846
 193  710.5175
 194  640.1051
 195  552.832
 196  652.6467
 197  680.821
 198  611.9044
 199  647.6688
 200  694.4128
 201  658.2731
 202  663.882
 203  721.6322
 204  725.9793
 205  663.5602
 206  581.0448
 207  567.3727
 208  613.1181
 209  641.9371
 210  692.6106
 211  705.2893
 212  685.9016
 213  678.1502
 214  718.1295
 215  759.3647
 216  633.5513
 217  566.6733
 218  559.7776
 219  618.4311
 220  691.4772
 221  735.6552
 222  677.7133
 223  591.7441
 224  645.7676
 225  591.7187
 226  552.7943
 227  525.4927
 228  583.7888
 229  685.1814
 230  511.0525
 231  501.3664
 232  557.2491
 233  664.8328
 234  693.3647
 235  589.3862
 236  628.6272
 237  631.9687
 238  628.9385
 239  663.0956
 240  574.0293
 241  523.7567
 242  494.901
 243  569.6909
 244  679.8475
 245  643.1634
 246  663.635
 247  662.321
 248  596.4346
 249  570.6722
 250  586.3093
 251  581.0798
 252  678.1278
 253  695.563
 254  675.6075
 255  715.2919
 256  712.1103
 257  652.1701
 258  658.5807
 259  665.3361
 260  614.6594
 261  543.1588
 262  629.4238
 263  621.056
 264  585.1433
 265  596.2447
 266  763.491
 267  693.8777
 268  582.8091
 269  678.4684
 270  668.0436
 271  580.4821
 272  681.4811
 273  693.3946
 274  743.2478
 275  679.6747
 276  696.0961
 277  753.6682
 278  688.7596
 279  649.2587
 280  700.869
 281  751.4872
 282  718.2083
 283  607.1736
 284  640.1592
 285  562.2405
 286  558.7501
 287  660.5999
 288  770.3167
 289  750.2623
 290  675.7334
 291  710.6528
 292  753.2245
 293  800.1344
 294  703.4561
 295  641.2183
 296  701.0952
 297  737.4277
 298  650.5456
 299  724.1915
 300  760.1035
 301  735.2449
 302  888.4713
 303  680.8909
 304  645.5375
 305  753.152
 306  766.4253
 307  729.3734
 308  694.0123
 309  649.5063
 310  762.3213
 311  729.0231
 312  701.4104
 313  575.9798
 314  652.8052
 315  715.6698
 316  595.8536
 317  608.0233
 318  654.4582
 319  670.3401
 320  690.643
 321  753.4105
 322  707.8214
 323  716.3588
 324  821.1773
 325  766.6075
 326  681.871
 327  658.3055
 328  724.8071
 329  699.1823
 330  656.9993
 331  797.0922
 332  727.6324
 333  627.8997
 334  569.3536
 335  600.6512
 336  708.9469
 337  583.3535
 338  659.8162
 339  669.9702
 340  651.1224
 341  706.5079
 342  682.934
 343  647.8848
 344  659.7389
 345  682.6434
 346  690.6235
 347  714.144
 348  601.7557
 349  574.4396
 350  467.5696
 351  503.4882
 352  597.0636
 353  533.6676
 354  674.7884
 355  640.0872
 356  573.5338
 357  541.5995
 358  575.33
 359  608.63
 360  564.4489
 361  542.0139
 362  689.9509
 363  612.17
 364  594.4576
 365  615.7647
 366  699.2698
 367  627.4774
 368  650.6614
 369  636.6064
 370  656.4888
 371  569.5358
 372  629.6392
 373  730.3248
 374  697.8398
 375  696.78
 376  643.9109
 377  585.6371
 378  691.3711
 379  703.7827
 380  701.7842
 381  738.2868
 382  660.086
 383  563.4734
 384  699.4948
 385  688.7369
 386  648.6059
 387  698.3506
 388  780.3279
 389  792.0811
 390  649.6973
 391  618.0358
 392  711.4642
 393  752.5435
 394  666.1859
 395  766.9634
 396  789.2368
 397  784.5242
 398  796.2384
 399  731.529
 400  703.3409
 401  674.1907
 402  799.1014
 403  709.8899
 404  738.209
 405  797.4866
 406  719.4928
 407  672.8234
 408  666.8085
 409  729.2664
 410  754.9848
 411  788.206
 412  875.4678
 413  773.72
 414  718.6842
 415  666.2288
 416  676.8334
 417  879.6008
 418  894.926
 419  829.8345
 420  918.4379
 421  853.2266
 422  838.7191
 423  828.8978
 424  825.6005
 425  866.7159
 426  814.3709
 427  786.3123
 428  807.8093
 429  837.869
 430  847.1675
 431  837.0609
 432  687.199
 433  697.0811
 434  834.9245
 435  813.0304
 436  735.3371
 437  789.5227
 438  761.0216
 439  763.7119
 440  836.1595
 441  783.3107
 442  908.6547
 443  901.4903
 444  861.5112
 445  740.826
 446  718.2464
 447  705.5287
 448  761.5611
 449  823.6841
 450  713.6163
 451  637.3018
 452  677.3748
 453  647.0069
 454  714.5406
 455  736.4615
 456  735.6053
 457  691.9684
 458  681.4694
 459  680.7922
 460  727.7424
 461  751.8668
 462  783.2432
 463  773.3956
 464  780.3378
 465  813.6298
 466  758.0911
 467  661.9226
 468  628.4341
 469  763.5106
 470  710.8624
 471  695.0646
 472  693.0096
 473  549.4362
 474  571.8821
 475  728.6705
 476  802.0387
 477  764.2218
 478  647.0862
 479  605.1621
 480  678.9554
 481  745.8026
 482  708.6161
 483  797.4296
 484  798.7482
 485  856.9992
 486  820.9856
 487  753.5173
 488  717.2842
 489  742.3664
 490  707.0319
 491  732.4938
 492  829.754
 493  782.291
 494  750.1039
 495  672.7784
 496  722.2309
 497  807.0515
 498  842.948
 499  841.4973
 500  843.9769
 501  851.4733
 502  837.9741
 503  852.8823
 504  816.6879
 505  779.2999
 506  742.4376
 507  856.0844
 508  911.9363
 509  1086.727
 510  1223.479
 511  1354.337
