# Input file       =  1183266337.135035_cleaned.dat
# Candidate        =  PSR_0332+5434
# Telescope        =  AR
# Epoch_topo       =  57939.212027025867
# Epoch_bary       =  N/A
# T_sample         =  0.002
# Data Folded      =  7340032
# Data Avg         =  0.0462571254756967
# Data StdDev      =  1.00024494067058 
# Profile Bins     =  512
# Profile Avg      =  663.191890540599 
# Profile StdDev   =  119.762363866987 
# Reduced chi-sqr  =  1.604
# Prob(Noise)      <  1e-16   (~8.2 sigma)
# P_topo (ms)      =  714.485920623279  +/- 0.000299
# P'_topo (s/s)    =  -0                +/- 1.58e-10
# P''_topo (s/s^2) =  0                 +/- 6.96e-14
# P_bary (ms)      =  N/A
# P'_bary (s/s)    =  N/A
# P''_bary (s/s^2) =  N/A
# P_orb (s)        =  N/A
# asin(i)/c (s)    =  N/A
# eccentricity     =  N/A
# w (rad)          =  N/A
# T_peri           =  N/A
######################################################
   0  548.0237
   1  658.2608
   2  678.7241
   3  547.5646
   4  533.5795
   5  569.1667
   6  644.2778
   7  569.2496
   8  533.8124
   9  572.4053
  10  563.3643
  11  583.4294
  12  708.2786
  13  769.7994
  14  668.7385
  15  538.9039
  16  511.7383
  17  604.9022
  18  710.0562
  19  712.2308
  20  654.5091
  21  533.6204
  22  609.7015
  23  590.66
  24  520.6422
  25  623.9455
  26  775.0779
  27  840.7601
  28  647.1906
  29  545.301
  30  676.5423
  31  725.233
  32  748.2708
  33  614.7177
  34  703.5222
  35  644.4418
  36  531.8768
  37  585.2471
  38  715.5178
  39  748.7918
  40  699.1849
  41  742.5896
  42  803.0493
  43  737.8797
  44  666.3968
  45  605.7426
  46  689.5026
  47  696.7673
  48  625.5353
  49  633.739
  50  733.5443
  51  717.5916
  52  656.904
  53  718.6672
  54  843.502
  55  771.4316
  56  752.8033
  57  643.6295
  58  684.9924
  59  615.8688
  60  732.3608
  61  730.7823
  62  692.554
  63  731.6791
  64  665.9189
  65  615.0527
  66  647.6087
  67  591.0054
  68  665.958
  69  777.5992
  70  754.0533
  71  745.052
  72  707.89
  73  741.935
  74  846.6304
  75  681.3289
  76  653.9177
  77  709.2389
  78  695.328
  79  654.4857
  80  664.7485
  81  708.8646
  82  715.2487
  83  691.6626
  84  757.3788
  85  739.5872
  86  729.9368
  87  711.6675
  88  696.0971
  89  555.3293
  90  527.2733
  91  601.8754
  92  554.8151
  93  612.3151
  94  696.0345
  95  655.2163
  96  616.9366
  97  640.3147
  98  695.5577
  99  710.3265
 100  686.5964
 101  771.1442
 102  716.1471
 103  640.3903
 104  653.3034
 105  624.6888
 106  655.496
 107  641.1661
 108  691.4934
 109  743.0519
 110  787.9292
 111  745.2628
 112  631.3534
 113  529.2875
 114  535.9666
 115  555.4722
 116  496.1078
 117  587.2455
 118  673.28
 119  762.8201
 120  709.5176
 121  721.4856
 122  754.9589
 123  721.9
 124  746.8098
 125  707.4883
 126  603.4703
 127  556.4957
 128  628.6254
 129  695.8892
 130  708.3896
 131  606.0675
 132  558.15
 133  664.1882
 134  698.1348
 135  653.6061
 136  651.2454
 137  641.1998
 138  690.8387
 139  684.8774
 140  670.7882
 141  641.6433
 142  628.2389
 143  628.2628
 144  711.7181
 145  630.1639
 146  657.9969
 147  659.0819
 148  657.6153
 149  602.6912
 150  564.0398
 151  658.1087
 152  676.2161
 153  674.6618
 154  749.8071
 155  705.4397
 156  800.1298
 157  690.2446
 158  713.1556
 159  745.6922
 160  754.4271
 161  720.4137
 162  798.9708
 163  758.9277
 164  727.0469
 165  668.5731
 166  719.2567
 167  677.4523
 168  676.417
 169  762.191
 170  740.7552
 171  740.7587
 172  780.5548
 173  784.5288
 174  796.9663
 175  759.1149
 176  784.2377
 177  702.0367
 178  740.0948
 179  843.291
 180  803.4266
 181  732.8185
 182  667.3101
 183  634.9417
 184  653.4393
 185  668.8479
 186  591.4024
 187  639.2762
 188  773.2031
 189  728.2952
 190  681.0108
 191  648.5165
 192  669.9996
 193  704.2285
 194  604.8511
 195  665.9885
 196  656.2076
 197  683.3065
 198  740.8919
 199  723.2147
 200  697.3663
 201  684.427
 202  572.5834
 203  582.6385
 204  569.3101
 205  496.6388
 206  725.6948
 207  749.2245
 208  627.0827
 209  633.1481
 210  648.8801
 211  668.3535
 212  603.41
 213  684.7332
 214  709.5839
 215  628.3691
 216  575.0162
 217  531.3516
 218  559.3876
 219  541.3264
 220  633.3232
 221  621.04
 222  586.8295
 223  585.8771
 224  621.3033
 225  571.6884
 226  623.1502
 227  630.9784
 228  581.2842
 229  460.1068
 230  450.9854
 231  544.1509
 232  557.4315
 233  539.4612
 234  569.7427
 235  540.5853
 236  538.8073
 237  572.1069
 238  464.9297
 239  564.3065
 240  650.8926
 241  603.0027
 242  535.0907
 243  640.3474
 244  616.209
 245  493.5544
 246  571.9664
 247  691.8325
 248  663.3447
 249  575.7636
 250  624.6921
 251  674.5607
 252  674.3918
 253  684.0287
 254  641.7206
 255  594.2538
 256  634.5531
 257  623.0066
 258  673.9063
 259  525.6118
 260  580.8019
 261  643.9327
 262  673.2476
 263  711.1844
 264  633.3233
 265  555.0668
 266  523.0535
 267  485.1796
 268  469.6829
 269  549.8362
 270  626.2032
 271  710.1606
 272  632.9498
 273  662.9109
 274  626.7026
 275  570.6294
 276  676.0973
 277  587.0361
 278  660.5558
 279  702.4384
 280  602.3339
 281  614.2194
 282  560.1528
 283  525.9895
 284  498.9524
 285  482.3985
 286  515.3544
 287  422.8662
 288  410.5924
 289  559.7627
 290  489.8205
 291  482.8241
 292  552.6552
 293  574.3368
 294  610.4242
 295  594.8467
 296  670.8818
 297  628.124
 298  591.1892
 299  618.502
 300  558.8007
 301  607.4346
 302  567.9894
 303  541.1549
 304  491.3382
 305  609.4376
 306  557.854
 307  467.4997
 308  387.1071
 309  487.4263
 310  618.9299
 311  598.2866
 312  626.307
 313  631.6855
 314  586.3152
 315  618.0779
 316  728.7817
 317  688.3417
 318  619.6684
 319  610.179
 320  558.6053
 321  545.2294
 322  677.7581
 323  730.79
 324  620.8315
 325  631.5123
 326  618.8846
 327  481.5518
 328  589.1235
 329  672.3149
 330  685.239
 331  733.1816
 332  726.967
 333  821.3124
 334  781.5131
 335  710.5122
 336  749.6919
 337  817.6793
 338  732.6051
 339  745.2651
 340  703.0173
 341  695.3677
 342  660.5967
 343  660.6962
 344  751.4974
 345  622.5151
 346  676.9813
 347  698.4916
 348  646.5024
 349  622.8924
 350  525.4908
 351  567.1372
 352  677.0932
 353  626.1982
 354  535.9168
 355  599.5342
 356  615.9288
 357  692.7203
 358  688.1713
 359  614.3254
 360  681.041
 361  634.9705
 362  595.0245
 363  648.8653
 364  665.3851
 365  720.6619
 366  717.399
 367  718.8813
 368  754.3333
 369  739.8625
 370  706.5683
 371  687.1752
 372  627.0728
 373  654.6192
 374  637.9249
 375  714.1555
 376  741.378
 377  752.9401
 378  720.0403
 379  696.7028
 380  564.1916
 381  693.9127
 382  798.8251
 383  729.3611
 384  712.4568
 385  741.7207
 386  700.0964
 387  640.0486
 388  621.0659
 389  645.6339
 390  806.4001
 391  844.105
 392  765.8597
 393  675.6304
 394  658.7318
 395  756.5291
 396  771.6425
 397  796.0521
 398  811.1297
 399  914.9819
 400  1010.055
 401  1241.902
 402  1470.387
 403  1416.778
 404  1418.494
 405  1274.107
 406  1090.762
 407  794.5825
 408  676.3576
 409  679.6636
 410  626.7786
 411  596.2516
 412  598.5435
 413  633.297
 414  690.0728
 415  860.3762
 416  790.7704
 417  666.7513
 418  645.3672
 419  586.1244
 420  650.4966
 421  716.3735
 422  669.7418
 423  671.0344
 424  821.3649
 425  739.0609
 426  580.9049
 427  647.1824
 428  651.3948
 429  611.965
 430  708.3555
 431  692.8238
 432  717.231
 433  602.5104
 434  646.3227
 435  743.0209
 436  678.8887
 437  603.815
 438  613.1316
 439  504.6687
 440  620.9731
 441  644.0625
 442  570.5485
 443  623.5693
 444  630.7396
 445  673.1133
 446  645.7927
 447  725.6899
 448  769.9434
 449  772.8521
 450  651.9006
 451  654.5192
 452  709.2468
 453  727.7805
 454  797.7942
 455  763.4674
 456  683.6344
 457  596.4384
 458  735.093
 459  741.2338
 460  673.5788
 461  745.439
 462  690.4568
 463  628.2034
 464  567.2849
 465  658.6088
 466  781.6979
 467  579.342
 468  617.5666
 469  726.4128
 470  825.1068
 471  716.1616
 472  662.196
 473  665.8693
 474  712.1953
 475  642.8969
 476  724.1127
 477  756.8745
 478  788.3745
 479  722.1326
 480  682.6669
 481  730.489
 482  728.7943
 483  612.322
 484  540.0931
 485  560.2527
 486  594.2407
 487  656.8339
 488  776.9056
 489  640.537
 490  579.5404
 491  630.2136
 492  664.7578
 493  621.5437
 494  593.1448
 495  595.0642
 496  642.4992
 497  612.1839
 498  563.986
 499  558.0012
 500  522.1164
 501  558.5033
 502  570.8907
 503  678.3947
 504  677.9095
 505  672.6058
 506  535.8476
 507  523.6782
 508  588.7579
 509  555.9288
 510  613.4042
 511  579.9388
