# Input file       =  1183869605.095054_cleaned.dat
# Candidate        =  PSR_0332+5434
# Telescope        =  AR
# Epoch_topo       =  57946.194295081645
# Epoch_bary       =  N/A
# T_sample         =  0.002
# Data Folded      =  7340032
# Data Avg         =  0.0423244953539674
# Data StdDev      =  1.00021923438954 
# Profile Bins     =  512
# Profile Avg      =  606.855862393392 
# Profile StdDev   =  119.759285975904 
# Reduced chi-sqr  =  1.094
# Prob(Noise)      <  0.0691   (~1.5 sigma)
# P_topo (ms)      =  714.48082846965   +/- 0.000157
# P'_topo (s/s)    =  -0                +/- 8.3e-11
# P''_topo (s/s^2) =  0                 +/- 3.66e-14
# P_bary (ms)      =  N/A
# P'_bary (s/s)    =  N/A
# P''_bary (s/s^2) =  N/A
# P_orb (s)        =  N/A
# asin(i)/c (s)    =  N/A
# eccentricity     =  N/A
# w (rad)          =  N/A
# T_peri           =  N/A
######################################################
   0  643.0445
   1  643.5343
   2  686.3367
   3  612.4629
   4  615.6481
   5  661.5457
   6  668.8936
   7  631.3549
   8  575.7656
   9  625.1657
  10  529.2066
  11  537.0631
  12  660.7527
  13  567.1473
  14  576.0158
  15  571.0889
  16  534.2621
  17  501.5918
  18  471.5151
  19  437.2592
  20  573.0092
  21  564.9503
  22  584.5868
  23  653.4554
  24  652.2516
  25  713.9938
  26  779.5805
  27  725.8361
  28  642.1293
  29  543.4188
  30  430.3703
  31  490.8889
  32  549.5842
  33  607.6495
  34  545.1851
  35  612.6327
  36  539.1346
  37  476.9109
  38  513.4601
  39  506.4893
  40  568.5541
  41  605.3609
  42  604.958
  43  630.0082
  44  604.4249
  45  697.9219
  46  627.9297
  47  495.1819
  48  586.1854
  49  627.0992
  50  536.0031
  51  503.3702
  52  545.906
  53  403.6935
  54  421.9116
  55  645.1226
  56  602.6475
  57  634.8278
  58  692.359
  59  632.0229
  60  631.721
  61  720.7468
  62  767.7365
  63  679.3753
  64  638.2668
  65  584.6331
  66  480.4435
  67  609.9321
  68  535.5798
  69  648.7567
  70  545.2169
  71  476.9642
  72  607.6126
  73  563.3641
  74  630.2541
  75  591.7018
  76  589.3201
  77  629.6656
  78  572.449
  79  563.7775
  80  538.7372
  81  531.5392
  82  600.0098
  83  609.7175
  84  574.5676
  85  656.1441
  86  710.7776
  87  675.1024
  88  628.6062
  89  631.7065
  90  634.8494
  91  705.7499
  92  697.92
  93  671.1765
  94  706.9681
  95  571.8996
  96  563.8727
  97  505.3112
  98  574.4027
  99  656.9586
 100  647.907
 101  610.1032
 102  593.8156
 103  694.2321
 104  683.3253
 105  670.2867
 106  733.4201
 107  777.7359
 108  646.9329
 109  555.8358
 110  593.0313
 111  666.9794
 112  623.3083
 113  668.48
 114  670.7571
 115  589.034
 116  618.0194
 117  687.388
 118  650.7784
 119  706.4161
 120  586.8016
 121  514.3661
 122  714.0249
 123  725.2893
 124  613.9648
 125  662.5786
 126  636.864
 127  537.0527
 128  503.4299
 129  600.8359
 130  754.0516
 131  671.2639
 132  682.9656
 133  595.7144
 134  593.1079
 135  732.05
 136  702.1116
 137  736.2825
 138  655.3864
 139  582.185
 140  543.9446
 141  571.325
 142  681.8416
 143  622.4255
 144  630.0495
 145  672.6387
 146  613.8546
 147  622.3694
 148  674.0565
 149  604.5714
 150  587.596
 151  490.8605
 152  460.4308
 153  553.3044
 154  546.5015
 155  550.6525
 156  614.3199
 157  561.8005
 158  437.0315
 159  508.9826
 160  540.6503
 161  604.0385
 162  600.9417
 163  563.7154
 164  552.5482
 165  569.9788
 166  640.3445
 167  603.2211
 168  573.0375
 169  604.9108
 170  576.8531
 171  605.1317
 172  711.3813
 173  669.0594
 174  553.8411
 175  544.4103
 176  687.5727
 177  628.7607
 178  565.8671
 179  600.1247
 180  573.6082
 181  542.4325
 182  515.9971
 183  597.4483
 184  669.825
 185  705.0677
 186  728.3616
 187  703.285
 188  619.4096
 189  553.476
 190  437.3472
 191  407.9528
 192  544.7164
 193  599.4561
 194  603.944
 195  594.0743
 196  666.1482
 197  736.2924
 198  747.1234
 199  722.6173
 200  699.5951
 201  607.2598
 202  666.2623
 203  690.2529
 204  715.8395
 205  627.8266
 206  591.9316
 207  566.0957
 208  687.4146
 209  708.6751
 210  650.0872
 211  666.9462
 212  712.2178
 213  636.1025
 214  634.9477
 215  771.0342
 216  907.9337
 217  837.4787
 218  732.2187
 219  709.1168
 220  752.7759
 221  694.1861
 222  683.8945
 223  590.8961
 224  634.0679
 225  636.3444
 226  513.7885
 227  500.3839
 228  588.7874
 229  546.5618
 230  453.4259
 231  401.4468
 232  539.8736
 233  634.7916
 234  572.4304
 235  582.7854
 236  490.8524
 237  577.1189
 238  622.7778
 239  610.6628
 240  518.0839
 241  367.9316
 242  467.6034
 243  528.6174
 244  518.1932
 245  506.0094
 246  610.2007
 247  628.8523
 248  582.6358
 249  616.5408
 250  541.1953
 251  636.7929
 252  723.4442
 253  615.7068
 254  708.0101
 255  779.2827
 256  700.8842
 257  682.8472
 258  586.8497
 259  657.3114
 260  719.8214
 261  606.1965
 262  538.5159
 263  496.9907
 264  594.3807
 265  668.7722
 266  619.9014
 267  600.83
 268  584.3857
 269  619.1333
 270  682.911
 271  654.7795
 272  592.3028
 273  642.5245
 274  648.7053
 275  684.3866
 276  647.146
 277  546.6109
 278  613.1432
 279  523.5104
 280  594.2306
 281  657.8775
 282  756.4348
 283  590.7591
 284  531.2471
 285  610.0173
 286  706.6024
 287  701.2462
 288  673.8714
 289  752.3703
 290  716.0132
 291  625.5225
 292  697.966
 293  659.3973
 294  704.5065
 295  673.1211
 296  630.8644
 297  683.5029
 298  651.199
 299  676.2599
 300  569.5161
 301  603.8353
 302  623.6426
 303  522.4902
 304  535.6436
 305  688.5244
 306  829.99
 307  1035.266
 308  1179.902
 309  1116.95
 310  1035.349
 311  954.9199
 312  917.9433
 313  806.1263
 314  653.2026
 315  608.0477
 316  573.0905
 317  570.7717
 318  542.6407
 319  628.8568
 320  657.8173
 321  624.0282
 322  645.6378
 323  685.6806
 324  646.8864
 325  620.5078
 326  610.1148
 327  549.6569
 328  620.3316
 329  600.3207
 330  544.9136
 331  611.4417
 332  591.2285
 333  549.0238
 334  523.8503
 335  532.5464
 336  622.9772
 337  540.4022
 338  597.6279
 339  715.0032
 340  634.5276
 341  582.4794
 342  604.33
 343  715.3754
 344  568.5334
 345  632.7177
 346  543.9849
 347  415.9724
 348  373.9885
 349  465.895
 350  495.6588
 351  563.6755
 352  555.7695
 353  572.7441
 354  579.4504
 355  465.8724
 356  471.5428
 357  538.652
 358  607.546
 359  516.0959
 360  506.4011
 361  631.3327
 362  589.8381
 363  625.5693
 364  610.1225
 365  619.9821
 366  723.053
 367  643.3532
 368  621.0222
 369  566.4854
 370  627.6334
 371  632.9131
 372  687.8903
 373  702.5403
 374  728.3486
 375  608.6804
 376  521.8193
 377  549.0712
 378  548.0112
 379  491.868
 380  611.509
 381  671.8027
 382  601.8738
 383  565.6281
 384  519.7921
 385  635.9759
 386  647.4722
 387  635.1453
 388  638.9745
 389  624.3163
 390  642.576
 391  562.3214
 392  614.5171
 393  614.777
 394  639.2385
 395  669.6154
 396  603.5621
 397  679.1235
 398  685.0109
 399  633.5392
 400  676.09
 401  612.8447
 402  529.8311
 403  588.4163
 404  647.2551
 405  663.5459
 406  504.8144
 407  612.788
 408  665.082
 409  509.7913
 410  615.2361
 411  561.9036
 412  548.2928
 413  593.5646
 414  536.0434
 415  600.0292
 416  516.8232
 417  541.6106
 418  623.2678
 419  549.9973
 420  502.4356
 421  559.3822
 422  533.6036
 423  630.2573
 424  478.3799
 425  393.7838
 426  508.4914
 427  536.2764
 428  605.4462
 429  666.1445
 430  617.6555
 431  474.138
 432  453.1422
 433  508.799
 434  605.2463
 435  658.0261
 436  536.9789
 437  431.361
 438  532.7065
 439  500.3304
 440  413.5609
 441  493.9583
 442  562.6326
 443  491.2465
 444  495.8446
 445  551.8922
 446  638.2153
 447  479.4251
 448  488.2334
 449  485.9403
 450  547.7195
 451  595.2899
 452  607.3491
 453  546.1893
 454  526.4211
 455  527.8329
 456  567.6815
 457  577.5973
 458  583.6488
 459  521.5199
 460  564.6121
 461  551.7178
 462  597.7905
 463  647.5741
 464  676.7993
 465  700.4756
 466  638.2089
 467  628.0293
 468  616.5959
 469  514.145
 470  530.2764
 471  535.9854
 472  650.8293
 473  553.2764
 474  534.5773
 475  541.9131
 476  442.3076
 477  470.9387
 478  506.0148
 479  569.9722
 480  625.2789
 481  531.1761
 482  545.7968
 483  660.5004
 484  726.1083
 485  625.3499
 486  706.6096
 487  727.7
 488  698.4498
 489  528.6719
 490  611.613
 491  554.7015
 492  542.0229
 493  635.4714
 494  643.8809
 495  556.802
 496  620.2198
 497  552.9385
 498  517.3658
 499  548.8793
 500  554.526
 501  472.8073
 502  572.3514
 503  572.8791
 504  571.019
 505  562.4431
 506  510.7961
 507  615.1766
 508  653.9553
 509  579.0702
 510  597.0754
 511  622.4147
