# Input file       =  1183109348.111727_cleaned.dat
# Candidate        =  PSR_0332+5434
# Telescope        =  AR
# Epoch_topo       =  57937.395024441284
# Epoch_bary       =  N/A
# T_sample         =  0.002
# Data Folded      =  7340032
# Data Avg         =  0.061126764934703
# Data StdDev      =  1.0000523201409  
# Profile Bins     =  512
# Profile Avg      =  876.367098486071 
# Profile StdDev   =  119.739300826099 
# Reduced chi-sqr  =  0.886
# Prob(Noise)      <  0.97   (~0.0 sigma)
# P_topo (ms)      =  714.487669398452  +/- 0.000374
# P'_topo (s/s)    =  -0                +/- 1.98e-10
# P''_topo (s/s^2) =  0                 +/- 8.72e-14
# P_bary (ms)      =  N/A
# P'_bary (s/s)    =  N/A
# P''_bary (s/s^2) =  N/A
# P_orb (s)        =  N/A
# asin(i)/c (s)    =  N/A
# eccentricity     =  N/A
# w (rad)          =  N/A
# T_peri           =  N/A
######################################################
   0  1260.446
   1  1340.38
   2  1270.842
   3  1100.212
   4  999.8931
   5  909.274
   6  907.6879
   7  967.2662
   8  927.9718
   9  893.806
  10  850.0577
  11  901.1021
  12  862.002
  13  954.0977
  14  964.1064
  15  919.9919
  16  874.0083
  17  891.3318
  18  871.2354
  19  935.421
  20  848.8547
  21  753.6443
  22  771.8551
  23  789.266
  24  829.0832
  25  778.0208
  26  802.6006
  27  765.5519
  28  773.6098
  29  758.7404
  30  720.9363
  31  799.904
  32  861.8347
  33  843.235
  34  861.0157
  35  872.5555
  36  866.9383
  37  902.0458
  38  901.4379
  39  874.6528
  40  876.2926
  41  950.8307
  42  857.9011
  43  846.6532
  44  925.3165
  45  943.3449
  46  915.1368
  47  947.9116
  48  909.7136
  49  900.5806
  50  808.2994
  51  815.346
  52  922.9732
  53  924.97
  54  900.8979
  55  811.0477
  56  647.6057
  57  790.6817
  58  825.028
  59  881.2581
  60  852.9153
  61  827.1733
  62  848.9376
  63  826.6855
  64  748.4701
  65  903.5571
  66  1002.152
  67  886.7534
  68  763.5461
  69  814.102
  70  811.1988
  71  840.5784
  72  859.3648
  73  955.7626
  74  993.1094
  75  893.2865
  76  918.5967
  77  915.8303
  78  863.6727
  79  895.3016
  80  875.6445
  81  893.1178
  82  872.4814
  83  852.9338
  84  909.7329
  85  884.8584
  86  912.8489
  87  907.5208
  88  968.8304
  89  881.9921
  90  838.0648
  91  882.6207
  92  949.683
  93  903.7993
  94  939.0203
  95  950.6445
  96  884.2722
  97  955.7313
  98  929.5793
  99  946.7679
 100  857.4792
 101  853.1211
 102  886.3294
 103  906.4377
 104  880.8663
 105  881.1978
 106  834.8597
 107  762.5165
 108  796.9249
 109  913.6196
 110  901.1493
 111  825.436
 112  823.7369
 113  841.0676
 114  809.7864
 115  800.694
 116  873.6255
 117  920.3129
 118  870.6307
 119  893.338
 120  846.556
 121  829.2961
 122  873.2208
 123  801.8094
 124  771.3467
 125  791.7393
 126  816.2219
 127  788.6586
 128  832.4869
 129  855.6837
 130  771.8259
 131  890.8509
 132  877.5491
 133  894.3027
 134  885.6968
 135  868.7838
 136  987.1797
 137  948.9241
 138  838.3724
 139  844.3172
 140  838.276
 141  862.4721
 142  790.3541
 143  754.3198
 144  765.6791
 145  782.3732
 146  825.6124
 147  788.8204
 148  729.3342
 149  894.966
 150  967.97
 151  925.1008
 152  927.8513
 153  892.1198
 154  810.8456
 155  777.5023
 156  792.4305
 157  721.0896
 158  764.3375
 159  796.5138
 160  749.6315
 161  828.2841
 162  825.2109
 163  886.5831
 164  888.7791
 165  776.606
 166  744.4846
 167  887.0417
 168  892.279
 169  822.7101
 170  916.0536
 171  947.5927
 172  994.0941
 173  915.1392
 174  905.6953
 175  898.1979
 176  860.6174
 177  970.2456
 178  978.9202
 179  928.3736
 180  1056.62
 181  1035.157
 182  972.1412
 183  1094.555
 184  1007.574
 185  954.3849
 186  937.153
 187  969.0647
 188  974.4094
 189  953.5999
 190  907.3245
 191  975.0511
 192  1049.824
 193  1024.948
 194  876.6311
 195  1016.377
 196  913.0175
 197  853.067
 198  837.3524
 199  896.2928
 200  851.345
 201  816.6429
 202  809.1212
 203  827.959
 204  813.0115
 205  820.4124
 206  756.8517
 207  791.5525
 208  806.9759
 209  833.4294
 210  878.3199
 211  908.174
 212  876.3178
 213  871.1019
 214  941.316
 215  933.3114
 216  824.3275
 217  899.7415
 218  891.6332
 219  882.5392
 220  962.9215
 221  1044.792
 222  988.9286
 223  874.0399
 224  896.3947
 225  924.392
 226  905.061
 227  877.6213
 228  863.9922
 229  886.4548
 230  931.2017
 231  956.3689
 232  968.6981
 233  875.9719
 234  831.5748
 235  854.7641
 236  844.2227
 237  855.7812
 238  911.2207
 239  895.8456
 240  906.587
 241  828.9694
 242  816.1689
 243  765.0706
 244  705.0393
 245  803.3179
 246  845.7828
 247  803.2871
 248  845.8497
 249  900.3625
 250  870.7618
 251  861.6412
 252  882.0422
 253  939.4813
 254  1019.437
 255  1009.207
 256  907.3735
 257  883.081
 258  922.4969
 259  979.6703
 260  988.3257
 261  980.1238
 262  899.4705
 263  984.6191
 264  993.6318
 265  930.4428
 266  935.7393
 267  873.3819
 268  894.5282
 269  1061.631
 270  990.4059
 271  877.4821
 272  887.7406
 273  998.2471
 274  1036.969
 275  848.7226
 276  905.7684
 277  855.6156
 278  852.1292
 279  883.577
 280  993.8176
 281  860.228
 282  808.9351
 283  782.1081
 284  719.6284
 285  846.7033
 286  755.2034
 287  763.6987
 288  884.272
 289  864.9506
 290  781.7192
 291  737.7108
 292  859.9725
 293  917.0488
 294  952.351
 295  970.3041
 296  891.7446
 297  888.1751
 298  876.6111
 299  838.6656
 300  915.0156
 301  999.0264
 302  1042.678
 303  908.4213
 304  882.0659
 305  926.4255
 306  869.5659
 307  930.3626
 308  851.5679
 309  819.5197
 310  916.1854
 311  930.4061
 312  996.2791
 313  943.5926
 314  868.1176
 315  922.931
 316  1054.777
 317  896.4685
 318  890.222
 319  919.1925
 320  958.0169
 321  1020.37
 322  954.5599
 323  925.6264
 324  913.4688
 325  838.4172
 326  818.3547
 327  762.6499
 328  811.5641
 329  856.593
 330  908.6713
 331  893.4328
 332  864.6198
 333  852.446
 334  816.3785
 335  796.4413
 336  771.1019
 337  884.4675
 338  909.097
 339  877.5091
 340  866.6912
 341  950.8309
 342  968.9374
 343  875.536
 344  966.5422
 345  920.6578
 346  937.4913
 347  916.8732
 348  828.1528
 349  816.2019
 350  918.4974
 351  945.8496
 352  876.0658
 353  849.0602
 354  876.6804
 355  934.632
 356  848.1207
 357  808.9424
 358  788.9115
 359  854.6608
 360  942.9039
 361  870.6754
 362  819.4221
 363  880.1956
 364  807.7015
 365  765.4626
 366  816.8655
 367  795.1259
 368  770.0146
 369  910.5181
 370  899.826
 371  800.1169
 372  833.0955
 373  904.6487
 374  919.548
 375  815.7917
 376  737.3004
 377  883.5732
 378  928.1306
 379  948.9323
 380  919.65
 381  846.0283
 382  952.4609
 383  929.6052
 384  910.9751
 385  810.2751
 386  825.0732
 387  932.9971
 388  981.882
 389  940.3478
 390  980.6527
 391  962.1617
 392  906.6108
 393  919.8742
 394  929.9904
 395  887.2706
 396  827.0103
 397  833.0549
 398  878.2211
 399  787.5386
 400  833.9906
 401  902.5884
 402  878.0746
 403  853.2185
 404  900.0159
 405  859.4364
 406  935.4258
 407  823.514
 408  839.3486
 409  851.0309
 410  778.9881
 411  789.7855
 412  771.9656
 413  771.796
 414  833.9624
 415  915.8354
 416  924.2875
 417  831.1199
 418  752.0732
 419  822.359
 420  812.5591
 421  834.6346
 422  887.4561
 423  893.5538
 424  788.4515
 425  749.4821
 426  847.6423
 427  870.4222
 428  920.0004
 429  901.4126
 430  859.6562
 431  918.4768
 432  885.4643
 433  795.4819
 434  811.4537
 435  744.165
 436  789.1183
 437  753.8595
 438  738.2422
 439  782.0223
 440  747.7714
 441  736.336
 442  695.7133
 443  725.7388
 444  713.927
 445  690.7599
 446  802.6362
 447  792.449
 448  709.4958
 449  735.7736
 450  761.8878
 451  795.6616
 452  851.2487
 453  811.3597
 454  762.4579
 455  812.7852
 456  825.22
 457  762.8587
 458  783.6706
 459  842.2196
 460  803.8091
 461  819.1068
 462  811.1906
 463  843.4187
 464  932.2648
 465  969.0396
 466  917.5923
 467  878.9141
 468  840.1732
 469  933.0601
 470  949.5934
 471  893.2233
 472  846.5378
 473  887.7366
 474  920.8074
 475  888.9191
 476  826.0697
 477  843.0719
 478  904.3975
 479  846.1803
 480  824.6578
 481  833.7932
 482  853.5613
 483  873.7075
 484  885.9159
 485  891.162
 486  883.1879
 487  830.8672
 488  838.3407
 489  865.5129
 490  744.1412
 491  742.9177
 492  852.3528
 493  891.7729
 494  883.8536
 495  817.5273
 496  841.4505
 497  910.8641
 498  907.6764
 499  929.2704
 500  847.767
 501  756.1856
 502  875.45
 503  945.5355
 504  984.9559
 505  983.4928
 506  941.335
 507  940.093
 508  1014.609
 509  1079.786
 510  1166.315
 511  1247.77
