# Input file       =  1183955774.111918_cleaned.dat
# Candidate        =  PSR_0332+5434
# Telescope        =  AR
# Epoch_topo       =  57947.191621665719
# Epoch_bary       =  N/A
# T_sample         =  0.002
# Data Folded      =  7340032
# Data Avg         =  0.0538552814559978
# Data StdDev      =  1.00009022614212 
# Profile Bins     =  512
# Profile Avg      =  771.787357694658 
# Profile StdDev   =  119.743839426722 
# Reduced chi-sqr  =  1.663
# Prob(Noise)      <  2.86e-19   (~8.9 sigma)
# P_topo (ms)      =  714.48014043837   +/- 0.0003
# P'_topo (s/s)    =  -0                +/- 1.58e-10
# P''_topo (s/s^2) =  0                 +/- 6.98e-14
# P_bary (ms)      =  N/A
# P'_bary (s/s)    =  N/A
# P''_bary (s/s^2) =  N/A
# P_orb (s)        =  N/A
# asin(i)/c (s)    =  N/A
# eccentricity     =  N/A
# w (rad)          =  N/A
# T_peri           =  N/A
######################################################
   0  1513.864
   1  1452.465
   2  1309.483
   3  1153.25
   4  995.8685
   5  855.9213
   6  732.6061
   7  719.0297
   8  771.661
   9  738.4506
  10  771.7413
  11  870.9713
  12  936.9454
  13  861.0605
  14  869.446
  15  898.5973
  16  825.376
  17  845.473
  18  855.3146
  19  877.8033
  20  884.2017
  21  807.3672
  22  705.5038
  23  734.2996
  24  599.0047
  25  736.2033
  26  811.386
  27  842.5536
  28  681.6984
  29  803.9041
  30  840.6962
  31  823.0095
  32  810.7859
  33  832.2587
  34  797.8572
  35  698.4914
  36  659.1947
  37  685.7075
  38  672.2648
  39  725.1259
  40  755.9259
  41  733.1913
  42  618.1007
  43  677.538
  44  780.9003
  45  712.3712
  46  746.4002
  47  756.2607
  48  687.2828
  49  751.7675
  50  866.2869
  51  726.472
  52  686.3991
  53  698.6168
  54  640.2182
  55  663.6804
  56  722.4064
  57  689.3577
  58  791.089
  59  852.1218
  60  826.2916
  61  752.9161
  62  770.0477
  63  740.1385
  64  832.4919
  65  892.16
  66  920.842
  67  889.3292
  68  862.6532
  69  780.8369
  70  819.5491
  71  839.4638
  72  874.4083
  73  781.2501
  74  668.2625
  75  753.144
  76  809.2087
  77  796.1536
  78  791.7554
  79  785.4276
  80  790.7043
  81  796.325
  82  821.5294
  83  832.498
  84  745.1035
  85  813.8457
  86  859.9366
  87  785.291
  88  615.3401
  89  681.3619
  90  773.8331
  91  807.1566
  92  854.8134
  93  809.5596
  94  761.3016
  95  640.0149
  96  672.1252
  97  721.0251
  98  706.9251
  99  691.2552
 100  685.9172
 101  675.9703
 102  727.4994
 103  689.7472
 104  633.7885
 105  650.3102
 106  668.1088
 107  698.7176
 108  655.3817
 109  734.4971
 110  719.4143
 111  654.8636
 112  613.2842
 113  786.9514
 114  761.3034
 115  724.1091
 116  755.0844
 117  839.7615
 118  937.6251
 119  791.463
 120  690.091
 121  735.0425
 122  811.1403
 123  865.8694
 124  967.2526
 125  837.6389
 126  735.1143
 127  721.3739
 128  722.0166
 129  720.0173
 130  685.0498
 131  730.752
 132  767.2993
 133  755.4164
 134  769.7547
 135  759.6402
 136  674.0884
 137  674.5037
 138  733.8865
 139  715.0796
 140  688.215
 141  720.9971
 142  706.5381
 143  738.6993
 144  785.0725
 145  787.7803
 146  826.0119
 147  802.6351
 148  712.5446
 149  797.7134
 150  833.7896
 151  837.093
 152  795.7261
 153  799.1707
 154  798.2977
 155  809.8835
 156  878.8727
 157  768.5499
 158  753.7801
 159  832.3939
 160  783.5432
 161  723.4247
 162  712.5183
 163  736.7117
 164  721.2878
 165  762.3378
 166  796.968
 167  711.6523
 168  763.8011
 169  728.054
 170  693.502
 171  728.2155
 172  785.7158
 173  832.2641
 174  792.8317
 175  866.9823
 176  842.5156
 177  790.1537
 178  849.6724
 179  779.2272
 180  737.0388
 181  693.861
 182  759.7724
 183  768.1949
 184  681.1852
 185  704.291
 186  635.9875
 187  783.1213
 188  804.6329
 189  673.0084
 190  786.9549
 191  894.0721
 192  870.8706
 193  674.3397
 194  582.7037
 195  588.5894
 196  717.1057
 197  770.7294
 198  710.0197
 199  711.0519
 200  719.8932
 201  783.3613
 202  799.1703
 203  989.1712
 204  919.1488
 205  809.0081
 206  804.1149
 207  790.8582
 208  899.426
 209  910.5753
 210  797.8234
 211  791.9004
 212  773.4441
 213  776.5758
 214  709.7665
 215  695.2209
 216  758.0071
 217  781.3796
 218  778.2229
 219  798.1444
 220  769.7743
 221  707.4372
 222  819.1017
 223  853.4196
 224  883.6697
 225  761.9083
 226  758.2974
 227  774.5914
 228  793.9567
 229  844.4896
 230  788.3016
 231  780.7678
 232  839.5621
 233  905.028
 234  781.9352
 235  750.0805
 236  827.4023
 237  844.2015
 238  876.0528
 239  843.838
 240  756.0775
 241  869.2112
 242  898.3374
 243  922.0877
 244  826.7465
 245  779.1313
 246  819.0468
 247  809.4295
 248  829.0828
 249  879.3724
 250  834.969
 251  802.6462
 252  798.1101
 253  829.8641
 254  665.75
 255  750.7763
 256  728.0601
 257  820.9965
 258  750.5787
 259  715.9302
 260  806.3766
 261  729.4308
 262  861.7935
 263  840.6767
 264  855.6523
 265  870.9755
 266  914.8224
 267  1017.455
 268  1033.564
 269  955.004
 270  966.8447
 271  892.4418
 272  911.6355
 273  923.9951
 274  882.3224
 275  844.8836
 276  865.9031
 277  814.1823
 278  725.3779
 279  701.8277
 280  751.0886
 281  854.6932
 282  709.8824
 283  729.9446
 284  680.7504
 285  655.7481
 286  503.7645
 287  522.091
 288  655.3525
 289  668.8311
 290  714.1688
 291  704.4131
 292  706.252
 293  614.5524
 294  685.2438
 295  754.0446
 296  743.1054
 297  648.0696
 298  674.5226
 299  790.737
 300  878.1112
 301  817.1793
 302  653.85
 303  618.8448
 304  710.7093
 305  648.3895
 306  681.7252
 307  731.6561
 308  721.7209
 309  669.7003
 310  653.0615
 311  775.6171
 312  609.0457
 313  653.7613
 314  687.5072
 315  727.4601
 316  783.1273
 317  658.8204
 318  660.559
 319  642.9209
 320  706.9335
 321  641.7397
 322  682.2146
 323  685.2399
 324  710.0926
 325  724.8477
 326  747.7643
 327  627.4765
 328  583.2143
 329  698.8427
 330  869.0692
 331  789.0697
 332  635.9191
 333  640.4289
 334  646.0712
 335  647.7061
 336  741.938
 337  707.6651
 338  646.8456
 339  658.9843
 340  638.428
 341  731.8907
 342  694.7531
 343  680.6262
 344  645.7321
 345  538.9964
 346  568.4514
 347  566.7562
 348  680.2343
 349  761.6495
 350  686.2685
 351  687.4277
 352  831.05
 353  763.9787
 354  736.7294
 355  819.7034
 356  766.2943
 357  709.9252
 358  746.4974
 359  724.1908
 360  638.5914
 361  721.2208
 362  738.061
 363  723.2673
 364  714.4769
 365  601.0603
 366  676.9935
 367  775.3743
 368  680.9415
 369  718.0767
 370  699.0014
 371  828.2743
 372  831.9143
 373  887.3729
 374  818.4144
 375  811.0059
 376  822.617
 377  861.3552
 378  922.5477
 379  894.0601
 380  814.188
 381  791.2958
 382  762.6562
 383  754.6942
 384  762.0107
 385  769.4683
 386  732.2383
 387  760.3027
 388  769.1448
 389  688.2803
 390  685.6523
 391  714.9235
 392  781.9929
 393  829.1458
 394  804.6214
 395  781.5216
 396  716.3643
 397  708.295
 398  733.1365
 399  759.7546
 400  741.3047
 401  675.6805
 402  722.9049
 403  844.7197
 404  821.2116
 405  855.0272
 406  810.454
 407  836.6969
 408  886.0616
 409  843.4247
 410  836.0984
 411  895.3794
 412  828.0067
 413  804.9476
 414  804.14
 415  824.1727
 416  918.3094
 417  1046.275
 418  977.6932
 419  840.0446
 420  818.5117
 421  782.5958
 422  688.4562
 423  792.4659
 424  765.5482
 425  744.334
 426  718.7282
 427  756.2209
 428  677.5826
 429  660.3756
 430  697.2428
 431  706.6556
 432  688.5306
 433  674.3874
 434  691.9487
 435  553.7599
 436  612.704
 437  793.035
 438  926.5621
 439  846.9609
 440  723.5131
 441  782.7183
 442  739.563
 443  773.6923
 444  869.6573
 445  810.5794
 446  814.1395
 447  821.7122
 448  776.5543
 449  766.0962
 450  741.1538
 451  761.7704
 452  664.1425
 453  603.6331
 454  705.9221
 455  722.07
 456  616.1359
 457  685.0384
 458  758.8995
 459  662.3082
 460  623.637
 461  651.5021
 462  558.8228
 463  575.1296
 464  646.8429
 465  589.8229
 466  564.254
 467  630.9435
 468  732.4217
 469  690.6138
 470  700.1947
 471  735.2123
 472  664.9686
 473  633.3675
 474  738.2159
 475  747.0402
 476  712.2371
 477  695.2206
 478  762.5708
 479  825.6769
 480  880.1542
 481  855.8934
 482  786.2492
 483  696.3095
 484  806.4656
 485  880.238
 486  825.1948
 487  766.0171
 488  749.0044
 489  762.8733
 490  869.4541
 491  898.4906
 492  799.2128
 493  792.1616
 494  901.8215
 495  1000.968
 496  832.3866
 497  771.6338
 498  909.9878
 499  872.1616
 500  765.1143
 501  776.9045
 502  798.8463
 503  871.363
 504  921.3048
 505  911.5414
 506  953.736
 507  986.3544
 508  1080.006
 509  1078.686
 510  1304.543
 511  1538.512
