# Input file       =  1183798301.101795_cleaned.dat
# Candidate        =  PSR_0332+5434
# Telescope        =  AR
# Epoch_topo       =  57945.369017381883
# Epoch_bary       =  N/A
# T_sample         =  0.002
# Data Folded      =  7340032
# Data Avg         =  0.0447575133802038
# Data StdDev      =  1.00004390249246 
# Profile Bins     =  512
# Profile Avg      =  641.593645057857 
# Profile StdDev   =  119.738292955492 
# Reduced chi-sqr  =  0.840
# Prob(Noise)      <  0.996   (~0.0 sigma)
# P_topo (ms)      =  714.481735819664  +/- 5.43e-05
# P'_topo (s/s)    =  -0                +/- 2.87e-11
# P''_topo (s/s^2) =  0                 +/- 1.27e-14
# P_bary (ms)      =  N/A
# P'_bary (s/s)    =  N/A
# P''_bary (s/s^2) =  N/A
# P_orb (s)        =  N/A
# asin(i)/c (s)    =  N/A
# eccentricity     =  N/A
# w (rad)          =  N/A
# T_peri           =  N/A
######################################################
   0  981.7457
   1  1064.011
   2  1012.772
   3  741.6943
   4  611.1509
   5  689.5012
   6  699.6105
   7  624.7763
   8  704.059
   9  667.3137
  10  660.4608
  11  756.535
  12  820.6254
  13  686.7824
  14  589.8026
  15  637.5723
  16  724.3956
  17  727.4687
  18  668.7863
  19  619.6957
  20  609.528
  21  683.6641
  22  685.387
  23  636.4573
  24  584.1044
  25  564.9974
  26  601.277
  27  626.4019
  28  554.7117
  29  588.8727
  30  668.7426
  31  632.4821
  32  630.7299
  33  646.5428
  34  554.416
  35  579.0078
  36  662.7358
  37  556.8631
  38  554.4204
  39  530.08
  40  593.0172
  41  665.6459
  42  656.7951
  43  634.4612
  44  494.7094
  45  551.2262
  46  610.859
  47  623.3013
  48  558.6212
  49  509.5263
  50  587.588
  51  542.8043
  52  655.4818
  53  657.0466
  54  689.723
  55  654.1223
  56  470.7722
  57  505.8627
  58  679.8905
  59  688.3122
  60  637.6978
  61  656.5454
  62  665.5707
  63  694.3052
  64  730.7134
  65  698.6177
  66  660.2296
  67  535.5834
  68  616.2947
  69  642.8097
  70  583.6655
  71  672.4382
  72  665.5152
  73  641.4064
  74  657.2556
  75  550.9539
  76  554.5496
  77  625.9326
  78  600.3845
  79  675.4948
  80  686.1102
  81  640.975
  82  639.8812
  83  721.1638
  84  598.166
  85  600.3757
  86  527.935
  87  591.8521
  88  744.8574
  89  643.8461
  90  560.0026
  91  520.4189
  92  620.2425
  93  677.9751
  94  637.5814
  95  652.7126
  96  739.9476
  97  733.2803
  98  640.1922
  99  587.3151
 100  586.5963
 101  695.2632
 102  730.2308
 103  703.5239
 104  711.7567
 105  651.764
 106  609.3762
 107  698.233
 108  709.8533
 109  550.4245
 110  597.0623
 111  627.9315
 112  651.3187
 113  583.7754
 114  538.2664
 115  536.384
 116  587.265
 117  694.1308
 118  576.561
 119  524.4947
 120  518.1179
 121  610.3012
 122  673.3338
 123  714.5031
 124  648.8987
 125  598.3943
 126  674.5837
 127  528.2311
 128  437.8767
 129  510.1053
 130  638.3223
 131  742.7192
 132  692.2417
 133  610.6382
 134  644.1013
 135  685.998
 136  636.649
 137  757.4949
 138  797.9625
 139  683.1863
 140  630.8358
 141  640.9249
 142  631.6613
 143  730.1058
 144  685.8394
 145  764.3391
 146  749.9329
 147  715.7733
 148  613.1434
 149  574.674
 150  706.0075
 151  641.0371
 152  601.8912
 153  638.81
 154  603.692
 155  689.9536
 156  731.6925
 157  764.3159
 158  757.6033
 159  710.0297
 160  653.3927
 161  584.4863
 162  608.8313
 163  673.4892
 164  751.9633
 165  675.0408
 166  587.287
 167  612.4617
 168  730.0732
 169  715.6685
 170  723.876
 171  611.1321
 172  577.9197
 173  669.2014
 174  723.9004
 175  814.357
 176  737.5813
 177  630.7745
 178  606.7909
 179  566.4321
 180  630.3066
 181  667.6902
 182  693.649
 183  795.6523
 184  797.2798
 185  706.6403
 186  713.601
 187  706.5438
 188  711.2409
 189  811.1744
 190  765.0297
 191  679.9465
 192  648.2841
 193  674.2708
 194  665.1481
 195  575.2344
 196  691.0161
 197  690.7226
 198  564.7042
 199  562.5236
 200  574.5928
 201  574.0464
 202  601.8129
 203  734.4968
 204  682.3537
 205  539.8985
 206  518.9385
 207  648.3448
 208  662.5739
 209  651.2825
 210  565.0466
 211  586.0475
 212  619.9752
 213  617.3795
 214  603.1536
 215  653.3861
 216  616.1762
 217  649.1974
 218  663.3214
 219  576.0064
 220  551.3828
 221  620.8399
 222  640.5228
 223  588.511
 224  590.8425
 225  623.2473
 226  644.5225
 227  662.0959
 228  680.0009
 229  668.6701
 230  685.2562
 231  734.6439
 232  732.6297
 233  674.7017
 234  733.9984
 235  608.7718
 236  646.8676
 237  667.7405
 238  649.7772
 239  736.1453
 240  726.1433
 241  700.0209
 242  642.1484
 243  606.3102
 244  579.2976
 245  521.9044
 246  591.1903
 247  567.7994
 248  638.1863
 249  627.856
 250  633.7011
 251  656.8119
 252  609.7639
 253  541.0963
 254  557.5204
 255  582.9635
 256  597.4216
 257  585.3052
 258  583.0946
 259  593.6721
 260  724.6592
 261  780.9375
 262  701.2783
 263  638.2961
 264  674.4244
 265  604.586
 266  688.9263
 267  729.3721
 268  674.0703
 269  632.8962
 270  584.9289
 271  597.1655
 272  596.105
 273  670.7227
 274  662.7981
 275  694.1097
 276  697.4819
 277  731.4173
 278  650.3377
 279  787.1431
 280  807.0438
 281  656.9932
 282  643.2037
 283  664.1831
 284  623.0154
 285  697.7965
 286  641.6115
 287  580.6896
 288  601.7969
 289  626.911
 290  602.0099
 291  427.4371
 292  460.7775
 293  551.0075
 294  549.7001
 295  469.5101
 296  492.2813
 297  394.0963
 298  523.5901
 299  688.2969
 300  660.8776
 301  554.293
 302  560.4678
 303  650.2352
 304  716.4144
 305  588.2875
 306  537.4564
 307  545.2618
 308  580.5453
 309  604.3303
 310  638.3653
 311  669.9037
 312  562.7054
 313  610.7379
 314  630.3011
 315  580.7856
 316  579.579
 317  642.8474
 318  720.4931
 319  644.4203
 320  463.61
 321  523.2836
 322  662.0364
 323  677.7038
 324  631.022
 325  599.1915
 326  654.4904
 327  670.2926
 328  672.5699
 329  690.8895
 330  717.9691
 331  634.9944
 332  551.5109
 333  578.5479
 334  565.8797
 335  683.2488
 336  650.7042
 337  690.4532
 338  651.3782
 339  637.585
 340  596.5173
 341  570.8585
 342  636.8887
 343  600.588
 344  494.8965
 345  504.5646
 346  649.3073
 347  724.8399
 348  730.3676
 349  709.753
 350  644.5941
 351  709.0615
 352  804.7924
 353  752.3406
 354  692.0853
 355  611.3713
 356  677.5328
 357  666.4531
 358  662.5989
 359  657.3125
 360  730.2659
 361  569.7154
 362  645.3947
 363  608.6715
 364  531.1317
 365  494.1924
 366  581.3587
 367  652.395
 368  604.5977
 369  664.152
 370  564.7324
 371  581.1851
 372  516.5747
 373  569.9574
 374  610.6583
 375  643.5485
 376  716.7662
 377  478.9058
 378  488.9662
 379  632.8962
 380  599.7401
 381  616.721
 382  664.8174
 383  599.0231
 384  628.157
 385  664.3803
 386  623.0305
 387  650.7636
 388  530.7761
 389  580.5183
 390  679.6464
 391  632.425
 392  663.7863
 393  664.1582
 394  640.2782
 395  642.8259
 396  528.1982
 397  548.6454
 398  578.012
 399  699.171
 400  748.7142
 401  662.0294
 402  607.3735
 403  616.6697
 404  663.995
 405  658.17
 406  631.1146
 407  683.2272
 408  667.6165
 409  655.3952
 410  590.5806
 411  589.2122
 412  742.6972
 413  664.9504
 414  685.7423
 415  641.0044
 416  607.2542
 417  626.2275
 418  671.2155
 419  680.5565
 420  600.1576
 421  530.0346
 422  639.7443
 423  663.5446
 424  723.6351
 425  653.9485
 426  584.37
 427  624.2191
 428  545.5638
 429  612.5931
 430  564.8055
 431  617.3792
 432  711.6639
 433  705.1743
 434  693.8154
 435  761.8124
 436  712.7668
 437  605.3036
 438  624.9269
 439  644.9789
 440  581.7462
 441  712.2989
 442  730.0146
 443  752.4042
 444  709.1287
 445  461.1714
 446  596.6818
 447  603.0396
 448  561.4476
 449  650.0846
 450  710.0199
 451  687.3556
 452  668.8215
 453  583.7021
 454  616.3754
 455  630.4616
 456  738.7784
 457  669.1042
 458  613.2236
 459  663.7091
 460  736.3383
 461  617.7995
 462  591.6464
 463  568.1259
 464  585.7255
 465  518.4578
 466  580.3884
 467  673.8683
 468  671.9946
 469  559.3391
 470  608.4565
 471  675.809
 472  593.2813
 473  443.8922
 474  469.8667
 475  635.891
 476  635.8565
 477  559.032
 478  567.4603
 479  685.9351
 480  669.9634
 481  638.5588
 482  585.4471
 483  566.2393
 484  673.1277
 485  700.6276
 486  704.1885
 487  679.567
 488  676.0654
 489  653.8828
 490  682.6492
 491  670.655
 492  621.0875
 493  723.0966
 494  756.1633
 495  698.5187
 496  548.9982
 497  519.1462
 498  652.3179
 499  696.6696
 500  788.3325
 501  759.4407
 502  686.1224
 503  535.4039
 504  586.9834
 505  591.0132
 506  750.4474
 507  705.0665
 508  737.0694
 509  859.301
 510  1010.078
 511  1032.06
