# Input file       =  1183798301.101795_cleaned.dat
# Candidate        =  PSR_0332+5434
# Telescope        =  AR
# Epoch_topo       =  57945.369017381883
# Epoch_bary       =  N/A
# T_sample         =  0.002
# Data Folded      =  7340032
# Data Avg         =  0.0447575133802038
# Data StdDev      =  1.00004390249246 
# Profile Bins     =  512
# Profile Avg      =  641.593648495891 
# Profile StdDev   =  119.738292955492 
# Reduced chi-sqr  =  0.841
# Prob(Noise)      <  0.996   (~0.0 sigma)
# P_topo (ms)      =  714.48173693882   +/- 5.42e-05
# P'_topo (s/s)    =  -0                +/- 2.86e-11
# P''_topo (s/s^2) =  0                 +/- 1.26e-14
# P_bary (ms)      =  N/A
# P'_bary (s/s)    =  N/A
# P''_bary (s/s^2) =  N/A
# P_orb (s)        =  N/A
# asin(i)/c (s)    =  N/A
# eccentricity     =  N/A
# w (rad)          =  N/A
# T_peri           =  N/A
######################################################
   0  671.5563
   1  688.4349
   2  645.7231
   3  631.7018
   4  721.6057
   5  602.9443
   6  602.9218
   7  532.7806
   8  580.9598
   9  740.1627
  10  654.9326
  11  559.1062
  12  525.3156
  13  605.6769
  14  682.6746
  15  639.1669
  16  652.4023
  17  732.0344
  18  738.9152
  19  644.7524
  20  590.8852
  21  580.4355
  22  689.54
  23  731.6624
  24  705.1845
  25  711.5451
  26  656.4117
  27  609.1021
  28  687.8158
  29  720.6993
  30  558.5556
  31  588.47
  32  630.1918
  33  646.944
  34  592.2192
  35  533.6266
  36  540.679
  37  578.0941
  38  695.4372
  39  582.7452
  40  527.6583
  41  516.0008
  42  601.2875
  43  674.7051
  44  710.7488
  45  658.6572
  46  592.8533
  47  673.7906
  48  540.6953
  49  437.7957
  50  503.1257
  51  627.7242
  52  744.0672
  53  697.1035
  54  611.9727
  55  638.4495
  56  690.4449
  57  633.6719
  58  754.0751
  59  795.9862
  60  694.5496
  61  625.6426
  62  646.5266
  63  625.204
  64  731.3378
  65  687.2122
  66  759.0452
  67  750.7848
  68  717.1323
  69  621.1938
  70  571.5798
  71  702.1096
  72  644.6647
  73  601.8084
  74  640.9031
  75  603.048
  76  686.2173
  77  728.5817
  78  763.8295
  79  758.4703
  80  714.7586
  81  655.4104
  82  586.9117
  83  604.6677
  84  671.0342
  85  744.3103
  86  688.5305
  87  585.0654
  88  610.2956
  89  721.6108
  90  719.9984
  91  727.0496
  92  619.521
  93  572.7035
  94  661.778
  95  718.816
  96  815.8444
  97  744.8384
  98  633.7564
  99  608.5854
 100  569.6179
 101  621.8111
 102  670.3522
 103  687.4356
 104  791.5503
 105  804.2423
 106  705.7686
 107  712.7278
 108  708.1741
 109  706.7277
 110  808.2784
 111  773.3414
 112  685.504
 113  644.3777
 114  671.9299
 115  669.1241
 116  578.2191
 117  681.759
 118  695.1673
 119  568.4864
 120  564.0096
 121  574.5227
 122  576.95
 123  592.1859
 124  730.4374
 125  689.105
 126  551.2326
 127  513.9443
 128  640.8564
 129  659.6884
 130  658.8279
 131  568.5529
 132  580.5768
 133  617.9786
 134  621.2693
 135  602.2176
 136  649.0264
 137  619.7799
 138  645.3438
 139  667.2355
 140  581.2927
 141  547.8052
 142  617.2887
 143  643.07
 144  590.069
 145  589.0876
 146  621.1613
 147  645.366
 148  659.4469
 149  679.2127
 150  670.6411
 151  680.6927
 152  732.6918
 153  739.5592
 154  668.7234
 155  737.4451
 156  614.4227
 157  643.5508
 158  667.1748
 159  649.498
 160  729.4048
 161  730.0861
 162  702.8469
 163  649.2401
 164  601.9787
 165  583.0494
 166  519.0699
 167  591.6578
 168  570.2524
 169  632.5284
 170  633.6183
 171  624.5696
 172  662.3783
 173  610.7853
 174  545.2662
 175  555.3199
 176  578.6833
 177  600.0738
 178  586.9186
 179  582.9568
 180  589.7807
 181  715.7313
 182  782.3386
 183  708.7156
 184  635.745
 185  677.2048
 186  606.2032
 187  680.4695
 188  732.0713
 189  678.2151
 190  634.7915
 191  584.9011
 192  592.9442
 193  598.3036
 194  667.6371
 195  663.4171
 196  693.9635
 197  695.5772
 198  735.7325
 199  647.2977
 200  776.9305
 201  814.0383
 202  665.2375
 203  638.0699
 204  669.8918
 205  619.6653
 206  700.3821
 207  642.3379
 208  581.3087
 209  599.3441
 210  625.3011
 211  608.8853
 212  436.7422
 213  452.4702
 214  546.041
 215  555.1412
 216  472.1978
 217  494.2214
 218  397.5508
 219  506.8115
 220  686.9496
 221  663.9948
 222  560.5518
 223  556.9912
 224  643.18
 225  720.4611
 226  592.6805
 227  536.7684
 228  546.9691
 229  575.6197
 230  604.4788
 231  633.6088
 232  677.5441
 233  564.9631
 234  604.8167
 235  632.6591
 236  582.554
 237  575.9389
 238  636.4095
 239  723.5175
 240  652.5657
 241  470.7238
 242  513.7495
 243  657.5718
 244  679.5338
 245  630.0351
 246  602.1208
 247  648.7757
 248  672.9958
 249  670.3514
 250  687.1295
 251  721.6343
 252  641.9766
 253  551.5614
 254  577.285
 255  561.8214
 256  681.9642
 257  647.7949
 258  689.9422
 259  654.8759
 260  637.6628
 261  602.172
 262  568.0602
 263  638.0895
 264  603.9162
 265  501.6297
 266  496.3061
 267  642.3069
 268  724.4807
 269  725.4369
 270  716.2197
 271  644.8325
 272  702.5839
 273  802.8646
 274  754.7618
 275  699.6414
 276  612.5098
 277  670.1492
 278  669.5605
 279  664.8052
 280  653.446
 281  733.0052
 282  574.4188
 283  641.9357
 284  613.4301
 285  535.6841
 286  492.7274
 287  572.164
 288  656.7228
 289  601.8698
 290  667.0982
 291  567.9051
 292  581.641
 293  521.2197
 294  559.0535
 295  613.6175
 296  633.0023
 297  725.8544
 298  491.7894
 299  479.6445
 300  627.8336
 301  604.8309
 302  611.2568
 303  668.943
 304  598.1335
 305  624.0463
 306  663.0463
 307  622.8441
 308  656.5508
 309  534.2689
 310  574.9776
 311  677.4167
 312  637.5722
 313  657.1362
 314  668.8351
 315  639.7185
 316  642.7623
 317  535.2144
 318  544.3856
 319  577.7609
 320  686.3399
 321  753.1436
 322  666.4592
 323  610.4064
 324  612.3596
 325  664.0803
 326  660.3228
 327  631.8239
 328  679.2646
 329  668.341
 330  657.3145
 331  595.5217
 332  581.2532
 333  739.697
 334  671.2874
 335  682.902
 336  648.8691
 337  605.3669
 338  621.3696
 339  671.3791
 340  677.0888
 341  613.5805
 342  524.1079
 343  636.5056
 344  661.9624
 345  720.0611
 346  664.7606
 347  577.6601
 348  629.4175
 349  543.4248
 350  613.4309
 351  565.6691
 352  609.4313
 353  710.8091
 354  708.954
 355  690.3851
 356  759.4595
 357  719.3965
 358  610.2604
 359  619.6299
 360  648.283
 361  580.9825
 362  702.0174
 363  734.3298
 364  749.9408
 365  718.3039
 366  469.9552
 367  583.3646
 368  610.2638
 369  561.8452
 370  643.421
 371  710.2836
 372  685.2372
 373  673.8641
 374  584.4764
 375  613.9399
 376  624.9902
 377  738.7543
 378  677.3165
 379  611.1209
 380  656.9552
 381  741.0984
 382  621.5735
 383  592.0513
 384  568.1473
 385  589.952
 386  519.4411
 387  573.2011
 388  670.1202
 389  676.9949
 390  563.84
 391  598.0433
 392  677.7803
 393  601.4181
 394  452.36
 395  459.7106
 396  630.2735
 397  639.8721
 398  562.4497
 399  559.2419
 400  684.8416
 401  674.1592
 402  637.0129
 403  591.9116
 404  564.519
 405  662.7159
 406  703.1454
 407  706.0095
 408  679.7327
 409  676.8697
 410  650.7864
 411  682.9105
 412  674.4422
 413  619.8256
 414  715.3444
 415  761.6179
 416  701.287
 417  561.2518
 418  508.4523
 419  652.2475
 420  688.6817
 421  788.4166
 422  759.6415
 423  697.2621
 424  535.6035
 425  581.8245
 426  588.3119
 427  746.459
 428  710.9981
 429  729.5187
 430  850.5273
 431  1006.109
 432  1033.31
 433  983.6546
 434  1052.911
 435  1028.634
 436  753.734
 437  612.5942
 438  683.7664
 439  704.6243
 440  624.4619
 441  701.9979
 442  673.5801
 443  654.0883
 444  748.9333
 445  820.0851
 446  700.0111
 447  590.6905
 448  633.3972
 449  717.9456
 450  731.183
 451  670.0225
 452  625.9268
 453  604.6378
 454  684.0148
 455  686.1725
 456  639.9329
 457  585.7598
 458  563.5052
 459  601.4492
 460  624.4665
 461  560.4619
 462  579.1964
 463  671.6906
 464  634.8777
 465  625.9954
 466  653.2057
 467  555.5959
 468  575.5743
 469  660.2181
 470  562.1727
 471  555.6933
 472  529.0668
 473  586.1537
 474  667.9504
 475  654.2296
 476  642.0452
 477  499.9648
 478  544.8439
 479  608.6787
 480  624.4378
 481  562.7371
 482  509.006
 483  585.0763
 484  538.757
 485  651.7439
 486  660.512
 487  682.8813
 488  664.4312
 489  478.4357
 490  498.4293
 491  671.165
 492  692.7319
 493  638.3724
 494  651.9667
 495  668.698
 496  689.0236
 497  732.6708
 498  699.5815
 499  664.4728
 500  542.1362
 501  606.3878
 502  648.1179
 503  580.597
 504  667.1756
 505  670.629
 506  641.0392
 507  657.5846
 508  558.2606
 509  548.8494
 510  627.6792
 511  598.3044
