# Input file       =  1183970685.111763_cleaned.dat
# Candidate        =  PSR_0332+5434
# Telescope        =  AR
# Epoch_topo       =  57947.364202682445
# Epoch_bary       =  N/A
# T_sample         =  0.002
# Data Folded      =  7340032
# Data Avg         =  0.0426386682952479
# Data StdDev      =  1.00007853164987 
# Profile Bins     =  512
# Profile Avg      =  611.332122642902 
# Profile StdDev   =  119.742439209657 
# Reduced chi-sqr  =  0.951
# Prob(Noise)      <  0.783   (~0.0 sigma)
# P_topo (ms)      =  714.480357400182  +/- 0.000182
# P'_topo (s/s)    =  -0                +/- 9.59e-11
# P''_topo (s/s^2) =  0                 +/- 4.23e-14
# P_bary (ms)      =  N/A
# P'_bary (s/s)    =  N/A
# P''_bary (s/s^2) =  N/A
# P_orb (s)        =  N/A
# asin(i)/c (s)    =  N/A
# eccentricity     =  N/A
# w (rad)          =  N/A
# T_peri           =  N/A
######################################################
   0  460.9968
   1  605.2908
   2  560.9487
   3  552.5817
   4  534.2531
   5  510.7316
   6  558.3124
   7  552.1021
   8  525.9459
   9  574.8946
  10  621.6537
  11  587.094
  12  580.6113
  13  616.176
  14  698.4247
  15  606.7751
  16  659.0702
  17  625.4746
  18  623.0704
  19  672.1447
  20  531.6913
  21  545.6554
  22  584.5394
  23  571.921
  24  577.3276
  25  666.6094
  26  772.9839
  27  616.0633
  28  582.0114
  29  500.0855
  30  479.4586
  31  595.8158
  32  648.369
  33  607.9093
  34  568.9949
  35  606.6318
  36  620.2089
  37  554.9661
  38  525.2886
  39  539.1317
  40  636.7465
  41  658.5035
  42  582.1761
  43  604.6839
  44  677.4316
  45  639.1391
  46  627.0994
  47  677.634
  48  807.5855
  49  715.8458
  50  644.7654
  51  687.3011
  52  660.3929
  53  644.9196
  54  616.2525
  55  531.3918
  56  494.0255
  57  571.5743
  58  621.9567
  59  706.2227
  60  633.0046
  61  643.973
  62  632.6401
  63  659.0351
  64  620.3197
  65  633.2716
  66  632.8761
  67  597.9056
  68  632.8314
  69  511.1343
  70  591.528
  71  599.1599
  72  617.2886
  73  659.3913
  74  601.4432
  75  628.2935
  76  675.9417
  77  702.7847
  78  722.74
  79  653.7962
  80  667.1781
  81  653.6877
  82  596.6283
  83  532.1399
  84  493.1939
  85  557.2524
  86  597.7858
  87  556.0938
  88  574.695
  89  617.2574
  90  640.4104
  91  524.2173
  92  440.4786
  93  576.6235
  94  628.5896
  95  767.9524
  96  776.6116
  97  596.1145
  98  765.5672
  99  805.7431
 100  832.1591
 101  895.3208
 102  1112.568
 103  1235.664
 104  1079.921
 105  938.551
 106  882.1749
 107  719.1846
 108  574.209
 109  605.7706
 110  631.9841
 111  612.9361
 112  585.5047
 113  666.9709
 114  614.6633
 115  541.1265
 116  597.9861
 117  532.9409
 118  614.7772
 119  660.7661
 120  541.9414
 121  541.6577
 122  547.9876
 123  527.0497
 124  504.5744
 125  543.0302
 126  573.4033
 127  599.9335
 128  535.9692
 129  556.5012
 130  496.0518
 131  598.9727
 132  721.7817
 133  652.1237
 134  636.3581
 135  658.8311
 136  587.4283
 137  461.5262
 138  456.4294
 139  520.1675
 140  651.5446
 141  727.5496
 142  713.2822
 143  677.3003
 144  616.5014
 145  473.2619
 146  556.4792
 147  629.5242
 148  610.1533
 149  572.4747
 150  448.9311
 151  613.2352
 152  691.2704
 153  704.8237
 154  593.3263
 155  537.6885
 156  500.9015
 157  454.1118
 158  540.7974
 159  638.1337
 160  698.2416
 161  640.2529
 162  586.3208
 163  461.0949
 164  563.3269
 165  647.6664
 166  592.5038
 167  717.9247
 168  642.6085
 169  526.1391
 170  639.0438
 171  598.7836
 172  638.8427
 173  564.375
 174  619.4965
 175  606.7402
 176  461.0974
 177  571.006
 178  601.4988
 179  565.9546
 180  618.4795
 181  580.0397
 182  503.1465
 183  477.6166
 184  627.754
 185  527.1759
 186  428.2195
 187  366.915
 188  468.2663
 189  581.0638
 190  508.5329
 191  647.2911
 192  582.9342
 193  591.1643
 194  565.2242
 195  619.0118
 196  664.1151
 197  568.2218
 198  591.9976
 199  601.654
 200  553.5786
 201  580.8914
 202  625.7386
 203  635.9356
 204  547.9088
 205  584.8526
 206  585.9128
 207  598.8314
 208  663.6688
 209  594.0015
 210  573.9918
 211  576.0175
 212  584.7472
 213  563.4507
 214  643.5757
 215  683.3521
 216  627.738
 217  640.6829
 218  590.0203
 219  654.5974
 220  674.1059
 221  640.8981
 222  595.7204
 223  621.5051
 224  631.7023
 225  568.4703
 226  570.6634
 227  667.1792
 228  781.861
 229  637.7238
 230  558.2291
 231  571.0582
 232  654.9934
 233  671.5561
 234  685.0209
 235  655.0325
 236  616.9436
 237  640.1663
 238  648.0178
 239  675.718
 240  676.9872
 241  596.1012
 242  602.4992
 243  521.7913
 244  622.5706
 245  665.3054
 246  650.4327
 247  708.4722
 248  675.9569
 249  602.7179
 250  554.8311
 251  622.5062
 252  638.6196
 253  564.3804
 254  470.5215
 255  614.362
 256  579.1259
 257  574.8221
 258  549.7408
 259  539.8865
 260  629.2374
 261  661.0034
 262  729.7012
 263  619.1572
 264  565.8414
 265  540.5833
 266  550.4554
 267  617.8645
 268  579.6373
 269  540.3564
 270  548.546
 271  453.3829
 272  544.9501
 273  608.1707
 274  585.7285
 275  687.2722
 276  674.7639
 277  633.6568
 278  533.1942
 279  584.5645
 280  619.4858
 281  704.1245
 282  601.6139
 283  548.1359
 284  598.6035
 285  653.9415
 286  696.3242
 287  673.7396
 288  664.7424
 289  559.6381
 290  701.2624
 291  686.6871
 292  581.6379
 293  533.892
 294  671.4761
 295  683.6834
 296  638.4055
 297  576.0255
 298  617.2006
 299  605.3172
 300  631.7661
 301  647.4005
 302  529.3862
 303  601.3123
 304  608.489
 305  540.8336
 306  622.3671
 307  574.4735
 308  592.5532
 309  621.938
 310  655.217
 311  699.5865
 312  619.5707
 313  526.3722
 314  643.1119
 315  670.224
 316  559.8298
 317  565.705
 318  725.7762
 319  774.5342
 320  635.7571
 321  566.2773
 322  488.2063
 323  626.1417
 324  690.3395
 325  716.3773
 326  580.9318
 327  504.6476
 328  499.2018
 329  501.5913
 330  600.8541
 331  615.097
 332  541.4213
 333  510.203
 334  491.1467
 335  605.7701
 336  569.0576
 337  544.9073
 338  668.963
 339  745.9692
 340  582.7314
 341  459.8591
 342  400.4027
 343  467.4607
 344  624.2347
 345  685.2564
 346  710.7681
 347  650.6314
 348  592.5084
 349  543.9288
 350  527.9565
 351  565.7719
 352  658.4171
 353  811.4803
 354  749.5779
 355  698.0875
 356  666.6801
 357  573.3071
 358  689.704
 359  768.313
 360  627.3446
 361  595.0662
 362  719.1926
 363  662.6143
 364  576.3444
 365  654.9623
 366  732.1096
 367  656.8881
 368  519.9253
 369  554.1359
 370  541.0828
 371  625.7307
 372  555.0064
 373  609.6906
 374  613.6779
 375  643.6406
 376  571.4837
 377  612.8955
 378  629.73
 379  589.6536
 380  598.0107
 381  818.0538
 382  640.0173
 383  444.3495
 384  572.8465
 385  596.6544
 386  521.5229
 387  513.1658
 388  569.2589
 389  630.003
 390  620.8755
 391  751.5657
 392  723.8089
 393  661.2574
 394  665.7483
 395  655.5737
 396  554.7376
 397  533.0804
 398  484.8476
 399  542.738
 400  612.9794
 401  621.36
 402  660.3405
 403  652.7893
 404  645.2859
 405  669.3668
 406  538.7659
 407  625.9552
 408  653.2499
 409  610.6595
 410  573.6916
 411  579.566
 412  625.3012
 413  575.7395
 414  609.1957
 415  576.0337
 416  492.4342
 417  542.8355
 418  566.8916
 419  621.3875
 420  677.7849
 421  558.7456
 422  486.404
 423  421.9827
 424  556.6868
 425  536.5031
 426  545.8531
 427  479.4073
 428  528.1333
 429  643.7198
 430  557.7397
 431  590.3729
 432  604.4348
 433  699.1442
 434  727.2169
 435  604.152
 436  583.6144
 437  631.6462
 438  516.6561
 439  540.3976
 440  616.1107
 441  653.8409
 442  748.1448
 443  563.883
 444  515.9295
 445  662.9884
 446  675.0882
 447  671.152
 448  689.5144
 449  559.9347
 450  529.7608
 451  620.7307
 452  671.787
 453  678.8862
 454  664.4969
 455  621.446
 456  715.0695
 457  644.0375
 458  584.903
 459  623.6984
 460  706.4191
 461  612.5767
 462  604.1608
 463  539.1935
 464  623.2719
 465  610.4335
 466  610.8683
 467  661.3231
 468  732.8657
 469  706.2285
 470  658.499
 471  537.8002
 472  590.6496
 473  718.3218
 474  694.4824
 475  657.2068
 476  635.6713
 477  608.6855
 478  659.8823
 479  734.5684
 480  666.7982
 481  683.3078
 482  561.0641
 483  490.2565
 484  509.6523
 485  578.374
 486  681.5944
 487  625.8044
 488  556.1461
 489  582.2354
 490  481.9658
 491  525.233
 492  634.3738
 493  683.876
 494  614.7039
 495  682.4299
 496  618.9573
 497  697.5707
 498  670.1851
 499  642.4373
 500  585.5166
 501  577.7539
 502  602.6794
 503  494.5631
 504  589.7007
 505  665.136
 506  632.6733
 507  576.2581
 508  563.0858
 509  572.0948
 510  513.9741
 511  485.9662
