# Input file       =  1183712136.10114_cleaned.dat
# Candidate        =  PSR_0332+5434
# Telescope        =  AR
# Epoch_topo       =  57944.371737281712
# Epoch_bary       =  N/A
# T_sample         =  0.002
# Data Folded      =  7340032
# Data Avg         =  0.0506667868922418
# Data StdDev      =  1.00008887758323 
# Profile Bins     =  512
# Profile Avg      =  726.262738540978 
# Profile StdDev   =  119.743677959672 
# Reduced chi-sqr  =  1.193
# Prob(Noise)      <  0.00175   (~2.9 sigma)
# P_topo (ms)      =  714.482442564906  +/- 3.65e-05
# P'_topo (s/s)    =  -0                +/- 1.93e-11
# P''_topo (s/s^2) =  0                 +/- 8.51e-15
# P_bary (ms)      =  N/A
# P'_bary (s/s)    =  N/A
# P''_bary (s/s^2) =  N/A
# P_orb (s)        =  N/A
# asin(i)/c (s)    =  N/A
# eccentricity     =  N/A
# w (rad)          =  N/A
# T_peri           =  N/A
######################################################
   0  790.9774
   1  746.4175
   2  809.7552
   3  747.4528
   4  712.4371
   5  710.621
   6  658.0125
   7  625.143
   8  741.6953
   9  658.5484
  10  671.2947
  11  745.8902
  12  683.1939
  13  633.9201
  14  588.0709
  15  632.8196
  16  648.274
  17  609.6885
  18  630.2685
  19  625.9061
  20  814.5397
  21  815.7394
  22  762.2872
  23  618.098
  24  682.426
  25  724.1925
  26  707.5204
  27  629.3602
  28  713.8546
  29  655.684
  30  695.7463
  31  757.8537
  32  734.6255
  33  661.6097
  34  640.1385
  35  726.2712
  36  735.5668
  37  664.7457
  38  703.7696
  39  709.8508
  40  613.8608
  41  764.9586
  42  729.4474
  43  701.1033
  44  622.9447
  45  630.3607
  46  614.7252
  47  591.7816
  48  605.8596
  49  743.1232
  50  771.5819
  51  774.3968
  52  680.446
  53  661.7557
  54  743.9606
  55  783.7444
  56  788.3708
  57  731.6884
  58  766.9902
  59  836.2467
  60  709.8414
  61  560.1026
  62  578.5051
  63  635.7691
  64  704.5812
  65  811.6961
  66  713.4811
  67  668.6266
  68  661.2671
  69  721.588
  70  790.6187
  71  737.2014
  72  699.9534
  73  637.8613
  74  667.8699
  75  740.959
  76  709.6168
  77  680.3714
  78  730.7288
  79  701.2391
  80  660.395
  81  607.8363
  82  700.7198
  83  777.2215
  84  692.7543
  85  760.1592
  86  703.8369
  87  749.6487
  88  827.6831
  89  844.4594
  90  733.9302
  91  629.5835
  92  737.7025
  93  795.7711
  94  868.8026
  95  679.834
  96  674.8431
  97  689.1915
  98  790.5776
  99  730.4766
 100  693.9161
 101  751.1752
 102  827.126
 103  727.906
 104  771.2629
 105  820.2756
 106  885.8084
 107  874.1887
 108  850.8792
 109  720.0388
 110  620.2869
 111  675.7136
 112  818.0079
 113  687.3221
 114  499.5645
 115  546.0104
 116  622.9288
 117  696.5119
 118  677.7487
 119  699.3708
 120  672.6691
 121  682.1187
 122  720.4615
 123  678.3405
 124  515.076
 125  668.1786
 126  762.2164
 127  878.3177
 128  793.7086
 129  670.935
 130  719.9547
 131  695.8251
 132  664.3425
 133  513.4432
 134  592.1288
 135  702.1038
 136  863.0047
 137  866.8738
 138  770.3318
 139  728.3814
 140  760.0257
 141  752.9677
 142  740.0773
 143  688.1633
 144  689.1694
 145  659.6089
 146  789.0452
 147  832.3209
 148  725.8739
 149  671.6584
 150  841.614
 151  948.4623
 152  724.6298
 153  693.8083
 154  781.5615
 155  843.2828
 156  788.2379
 157  728.3054
 158  777.2594
 159  793.7863
 160  847.0825
 161  818.6456
 162  734.8783
 163  715.5306
 164  724.2819
 165  826.0566
 166  825.9952
 167  705.0713
 168  707.5521
 169  759.226
 170  741.1697
 171  723.9161
 172  664.4489
 173  687.5469
 174  724.6087
 175  834.101
 176  822.7175
 177  690.0753
 178  701.7647
 179  773.4166
 180  794.524
 181  703.318
 182  660.8146
 183  809.011
 184  843.6035
 185  767.6544
 186  670.6616
 187  687.379
 188  751.9716
 189  765.8194
 190  726.3966
 191  564.822
 192  686.297
 193  833.3638
 194  812.8397
 195  639.6953
 196  685.1672
 197  756.6876
 198  842.6454
 199  729.958
 200  659.2962
 201  623.672
 202  635.5972
 203  878.3491
 204  867.0553
 205  679.0876
 206  618.6469
 207  720.3038
 208  817.2145
 209  784.4393
 210  826.749
 211  757.87
 212  782.4408
 213  775.731
 214  740.6581
 215  744.0762
 216  780.2525
 217  738.7833
 218  635.38
 219  663.8418
 220  652.0532
 221  682.9586
 222  677.519
 223  600.6672
 224  625.8957
 225  556.3098
 226  615.4743
 227  723.6248
 228  710.2959
 229  651.7963
 230  660.3674
 231  778.6082
 232  816.3607
 233  806.1934
 234  803.8417
 235  751.8789
 236  794.3765
 237  784.5016
 238  741.2795
 239  726.3901
 240  684.3649
 241  695.3907
 242  744.8927
 243  778.3306
 244  732.8592
 245  774.8421
 246  866.8426
 247  780.1425
 248  770.0973
 249  674.8818
 250  745.069
 251  892.5887
 252  755.331
 253  687.9913
 254  718.7089
 255  760.8509
 256  794.662
 257  757.0962
 258  767.3837
 259  763.4431
 260  778.8962
 261  806.938
 262  683.0004
 263  708.0734
 264  671.0218
 265  733.4322
 266  826.327
 267  748.7184
 268  738.2812
 269  875.0593
 270  874.546
 271  839.6063
 272  809.4903
 273  818.1799
 274  759.1376
 275  697.6492
 276  682.4974
 277  644.5729
 278  712.5446
 279  788.6771
 280  703.2587
 281  681.5613
 282  744.1203
 283  781.7827
 284  828.4324
 285  751.6887
 286  763.5069
 287  773.4158
 288  767.677
 289  700.4025
 290  742.3643
 291  713.667
 292  657.7125
 293  800.5539
 294  852.7014
 295  720.6194
 296  594.6372
 297  583.8406
 298  668.2113
 299  714.7207
 300  747.9499
 301  628.8267
 302  689.0538
 303  740.8649
 304  656.1541
 305  671.472
 306  636.6743
 307  660.6212
 308  840.0784
 309  788.0452
 310  772.7243
 311  731.265
 312  732.1758
 313  755.9088
 314  764.9097
 315  711.0784
 316  690.3977
 317  694.9037
 318  764.9103
 319  783.7944
 320  689.4087
 321  712.3481
 322  762.478
 323  757.9815
 324  785.3549
 325  807.9984
 326  735.1404
 327  874.0403
 328  816.5699
 329  847.3997
 330  749.7031
 331  704.6881
 332  842.4813
 333  804.6469
 334  800.4766
 335  869.7819
 336  835.3986
 337  905.756
 338  899.068
 339  710.0985
 340  672.0963
 341  716.8039
 342  814.896
 343  797.9272
 344  763.7076
 345  758.128
 346  789.7445
 347  793.907
 348  653.2419
 349  699.9508
 350  847.2502
 351  979.3249
 352  925.1017
 353  958.3537
 354  1044.583
 355  1193.295
 356  1301.129
 357  1244.999
 358  1151.961
 359  1044.879
 360  981.7233
 361  967.96
 362  848.82
 363  813.7006
 364  752.968
 365  794.8492
 366  791.4006
 367  701.3644
 368  742.6189
 369  752.3879
 370  734.6328
 371  824.8477
 372  703.625
 373  629.9858
 374  702.2736
 375  710.1701
 376  605.5914
 377  649.1968
 378  541.8589
 379  498.1094
 380  566.6205
 381  661.5924
 382  583.1313
 383  511.2581
 384  683.2265
 385  748.9742
 386  649.6193
 387  552.2618
 388  656.9418
 389  774.1607
 390  826.3613
 391  800.7068
 392  650.8882
 393  604.4231
 394  609.1802
 395  728.5623
 396  728.1374
 397  550.0156
 398  629.8177
 399  631.0031
 400  562.2006
 401  598.4454
 402  640.3095
 403  722.0058
 404  774.6032
 405  694.0829
 406  749.4556
 407  718.5458
 408  776.9921
 409  864.0591
 410  785.6453
 411  742.4098
 412  749.5532
 413  750.5279
 414  748.072
 415  673.7695
 416  654.566
 417  621.1774
 418  633.8946
 419  718.0319
 420  661.1442
 421  618.5947
 422  627.9227
 423  715.1367
 424  694.0451
 425  711.1547
 426  705.8065
 427  781.3181
 428  692.0526
 429  646.6659
 430  709.7421
 431  575.2246
 432  658.4309
 433  703.0109
 434  663.7392
 435  659.9837
 436  674.6375
 437  661.769
 438  660.0024
 439  506.8327
 440  596.0683
 441  676.2314
 442  683.1318
 443  623.7845
 444  551.1054
 445  564.8642
 446  603.7044
 447  659.3981
 448  642.5375
 449  524.9492
 450  558.1165
 451  626.9634
 452  543.2889
 453  598.0441
 454  657.2611
 455  683.2118
 456  686.1699
 457  720.2294
 458  704.1714
 459  712.8602
 460  812.5282
 461  790.1051
 462  697.8054
 463  642.2547
 464  735.2006
 465  810.7884
 466  704.9275
 467  649.3087
 468  556.9484
 469  683.3887
 470  740.0844
 471  733.4518
 472  672.2345
 473  631.8837
 474  689.2646
 475  683.2637
 476  692.7337
 477  662.0322
 478  685.2515
 479  698.5847
 480  748.5865
 481  709.8167
 482  621.0798
 483  686.8774
 484  776.3156
 485  868.4828
 486  785.2183
 487  786.4713
 488  604.7944
 489  673.2937
 490  809.4502
 491  723.9783
 492  666.0325
 493  751.0616
 494  827.338
 495  747.3239
 496  604.6207
 497  608.1417
 498  627.6224
 499  713.9289
 500  814.1868
 501  757.4119
 502  645.7625
 503  696.7815
 504  740.3125
 505  795.104
 506  708.1765
 507  707.7707
 508  793.3221
 509  880.2355
 510  805.4049
 511  757.9732
