# Input file       =  1183439200.089815_cleaned.dat
# Candidate        =  PSR_0332+5434
# Telescope        =  AR
# Epoch_topo       =  57941.212755669156
# Epoch_bary       =  N/A
# T_sample         =  0.002
# Data Folded      =  7340032
# Data Avg         =  0.0444988543480607
# Data StdDev      =  0.999927402424868
# Profile Bins     =  512
# Profile Avg      =  637.930599091284 
# Profile StdDev   =  119.724344048662 
# Reduced chi-sqr  =  1.488
# Prob(Noise)      <  4.57e-12   (~6.8 sigma)
# P_topo (ms)      =  714.484416995153  +/- 0.00045
# P'_topo (s/s)    =  -0                +/- 2.37e-10
# P''_topo (s/s^2) =  0                 +/- 1.05e-13
# P_bary (ms)      =  N/A
# P'_bary (s/s)    =  N/A
# P''_bary (s/s^2) =  N/A
# P_orb (s)        =  N/A
# asin(i)/c (s)    =  N/A
# eccentricity     =  N/A
# w (rad)          =  N/A
# T_peri           =  N/A
######################################################
   0  1143.908
   1  1150.094
   2  1198.777
   3  946.493
   4  775.0418
   5  660.7278
   6  647.6605
   7  696.867
   8  682.6163
   9  818.041
  10  821.3219
  11  819.9971
  12  746.5624
  13  725.8237
  14  763.0507
  15  716.4186
  16  848.497
  17  742.8065
  18  727.1791
  19  772.9964
  20  728.1337
  21  761.2202
  22  799.8444
  23  724.5127
  24  729.6354
  25  665.2937
  26  759.1855
  27  731.6435
  28  722.6247
  29  663.6011
  30  565.1047
  31  666.3469
  32  790.7934
  33  776.3019
  34  705.629
  35  719.4581
  36  577.548
  37  588.9459
  38  735.6993
  39  684.3373
  40  651.05
  41  636.39
  42  628.2392
  43  684.4028
  44  646.5448
  45  593.4156
  46  471.3046
  47  547.4675
  48  712.0069
  49  748.4631
  50  704.1241
  51  638.6126
  52  548.9694
  53  485.462
  54  550.3839
  55  564.1632
  56  470.6925
  57  524.7412
  58  452.3432
  59  461.7731
  60  563.6437
  61  447.5058
  62  437.2862
  63  422.5086
  64  659.2128
  65  736.8085
  66  691.476
  67  687.4979
  68  691.418
  69  611.2985
  70  619.5816
  71  544.589
  72  656.1884
  73  651.5585
  74  609.4081
  75  602.361
  76  632.0079
  77  590.2247
  78  569.7469
  79  492.9525
  80  572.431
  81  554.4732
  82  421.9514
  83  527.9109
  84  654.0646
  85  574.087
  86  515.9686
  87  445.5177
  88  518.2601
  89  536.6782
  90  467.4085
  91  410.9657
  92  497.0475
  93  535.1188
  94  559.3306
  95  527.7343
  96  514.1213
  97  454.4903
  98  464.2635
  99  498.6452
 100  573.8577
 101  665.6785
 102  631.7751
 103  541.8364
 104  559.1225
 105  539.4125
 106  628.6313
 107  568.4163
 108  500.4963
 109  457.2971
 110  667.9537
 111  684.0753
 112  714.9951
 113  628.7834
 114  698.1292
 115  822.4839
 116  818.6875
 117  781.272
 118  738.7672
 119  689.4188
 120  640.8022
 121  667.9974
 122  687.6891
 123  673.4356
 124  699.2057
 125  635.3521
 126  580.642
 127  597.2893
 128  626.8796
 129  584.0502
 130  470.5952
 131  524.7946
 132  515.2361
 133  555.8961
 134  673.815
 135  598.442
 136  577.3757
 137  456.5996
 138  485.5021
 139  479.3049
 140  642.3669
 141  617.3001
 142  504.6413
 143  553.6933
 144  544.5074
 145  528.3766
 146  516.9104
 147  560.905
 148  492.3546
 149  527.2543
 150  651.6611
 151  669.9552
 152  674.9764
 153  622.3365
 154  535.3948
 155  702.387
 156  608.8734
 157  544.1198
 158  504.3039
 159  563.4025
 160  607.5278
 161  541.4088
 162  642.0665
 163  639.2037
 164  511.385
 165  512.3492
 166  583.4351
 167  661.8085
 168  637.7667
 169  529.2379
 170  534.8548
 171  586.2106
 172  627.6548
 173  721.4706
 174  622.0471
 175  446.0264
 176  608.9823
 177  719.7949
 178  630.2027
 179  634.1888
 180  562.1677
 181  614.0148
 182  621.047
 183  554.5851
 184  543.972
 185  582.2615
 186  567.916
 187  592.1134
 188  606.84
 189  662.0436
 190  594.0015
 191  595.874
 192  674.585
 193  680.8082
 194  674.7575
 195  611.5584
 196  570.8719
 197  567.5688
 198  639.9219
 199  593.0663
 200  540.1855
 201  600.5319
 202  567.6851
 203  506.6671
 204  568.3312
 205  623.2645
 206  646.339
 207  678.5116
 208  673.6562
 209  644.8279
 210  606.554
 211  566.4116
 212  552.7832
 213  462.4254
 214  495.0948
 215  571.2502
 216  465.8961
 217  557.6773
 218  497.0905
 219  443.1588
 220  537.5021
 221  549.4454
 222  458.4001
 223  395.9945
 224  529.334
 225  682.5687
 226  669.4454
 227  654.6115
 228  596.5138
 229  609.4469
 230  691.3723
 231  764.3922
 232  676.4249
 233  662.2214
 234  713.0654
 235  669.2379
 236  640.6116
 237  676.5363
 238  747.1221
 239  638.3099
 240  615.732
 241  691.9055
 242  726.0876
 243  632.3868
 244  629.636
 245  636.7643
 246  558.7566
 247  616.9648
 248  606.9393
 249  632.4258
 250  592.178
 251  602.7468
 252  674.8956
 253  802.9169
 254  634.5615
 255  570.4669
 256  638.4839
 257  665.8176
 258  610.3599
 259  549.3083
 260  624.1633
 261  752.3487
 262  703.7922
 263  674.3065
 264  522.9504
 265  541.4005
 266  609.8593
 267  674.3458
 268  642.8787
 269  531.1719
 270  609.9065
 271  588.1719
 272  587.2952
 273  638.9289
 274  646.936
 275  693.2231
 276  658.4105
 277  547.7282
 278  641.9106
 279  664.5638
 280  671.9339
 281  607.4587
 282  484.3104
 283  624.4429
 284  617.5461
 285  602.9865
 286  549.0806
 287  615.4747
 288  607.8641
 289  564.9159
 290  640.0359
 291  623.2919
 292  498.7809
 293  583.2761
 294  764.022
 295  752.6813
 296  729.216
 297  610.9791
 298  654.5172
 299  694.6636
 300  689.0435
 301  636.5406
 302  745.2883
 303  645.8912
 304  669.2933
 305  672.4958
 306  724.5459
 307  777.9335
 308  715.6425
 309  702.8098
 310  759.2769
 311  775.59
 312  775.0943
 313  747.3536
 314  773.0207
 315  725.1575
 316  672.9323
 317  690.6564
 318  629.585
 319  795.5236
 320  696.8704
 321  636.1048
 322  654.0862
 323  727.266
 324  739.9263
 325  736.5255
 326  623.4144
 327  629.9867
 328  651.0569
 329  701.8635
 330  727.2902
 331  784.8106
 332  754.8076
 333  786.4924
 334  777.8527
 335  795.29
 336  745.3104
 337  557.2721
 338  647.2234
 339  577.942
 340  636.3306
 341  643.8541
 342  649.9593
 343  599.7013
 344  638.8989
 345  683.5557
 346  660.1522
 347  687.5619
 348  587.6896
 349  647.1885
 350  684.7043
 351  701.1881
 352  639.3434
 353  523.3588
 354  634.13
 355  708.1336
 356  759.1162
 357  811.0646
 358  643.3264
 359  708.46
 360  815.2698
 361  698.8344
 362  634.6542
 363  727.1313
 364  712.4359
 365  586.1241
 366  609.7128
 367  743.4175
 368  744.9163
 369  594.3153
 370  643.4842
 371  637.9449
 372  634.7325
 373  571.492
 374  625.1671
 375  626.3928
 376  569.7968
 377  631.334
 378  592.5157
 379  552.8643
 380  566.2538
 381  613.9443
 382  585.6436
 383  464.1992
 384  608.3536
 385  622.0252
 386  646.0848
 387  597.9978
 388  542.8569
 389  512.4685
 390  654.755
 391  718.1741
 392  602.845
 393  602.7192
 394  608.8707
 395  632.7869
 396  592.3636
 397  589.0471
 398  541.2595
 399  562.4841
 400  601.0821
 401  487.9047
 402  472.7579
 403  625.0527
 404  547.2575
 405  526.2661
 406  408.6975
 407  559.214
 408  572.7677
 409  582.5239
 410  644.3597
 411  621.7599
 412  481.321
 413  564.6758
 414  643.4403
 415  553.336
 416  588.1184
 417  558.5789
 418  573.9738
 419  640.8792
 420  674.6066
 421  646.252
 422  613.8903
 423  666.7059
 424  601.8272
 425  594.8553
 426  630.5702
 427  661.7838
 428  557.1349
 429  540.0034
 430  557.6415
 431  540.3652
 432  617.6682
 433  610.9669
 434  659.3319
 435  621.5671
 436  629.1359
 437  613.7286
 438  636.3737
 439  631.1824
 440  669.3791
 441  584.9443
 442  688.8
 443  575.3141
 444  557.9433
 445  710.753
 446  712.0168
 447  671.0975
 448  627.2652
 449  571.1157
 450  503.3668
 451  550.1094
 452  661.7688
 453  556.0317
 454  638.4318
 455  713.2035
 456  674.1795
 457  584.1334
 458  529.7186
 459  506.1302
 460  740.3638
 461  749.2866
 462  504.1763
 463  505.7963
 464  614.907
 465  596.9229
 466  583.8821
 467  754.6673
 468  698.2368
 469  672.2913
 470  675.2544
 471  740.0431
 472  675.2733
 473  688.6607
 474  711.3311
 475  713.7831
 476  668.8171
 477  565.6515
 478  595.0748
 479  675.4673
 480  634.2694
 481  636.7838
 482  660.1223
 483  646.4841
 484  548.7104
 485  678.218
 486  736.9124
 487  678.9651
 488  719.9091
 489  644.2
 490  662.4077
 491  832.0214
 492  832.4108
 493  691.3148
 494  728.3936
 495  840.4769
 496  912.5025
 497  827.2518
 498  835.2173
 499  788.0297
 500  760.8165
 501  793.4811
 502  829.6437
 503  866.6548
 504  875.0474
 505  734.0065
 506  694.8472
 507  782.1725
 508  830.3095
 509  977.374
 510  1141.632
 511  1207.933
