# Input file       =  1183453964.104919_cleaned.dat
# Candidate        =  PSR_0332+5434
# Telescope        =  AR
# Epoch_topo       =  57941.383635473598
# Epoch_bary       =  N/A
# T_sample         =  0.002
# Data Folded      =  7340032
# Data Avg         =  0.0507137270093815
# Data StdDev      =  1.00010342482206 
# Profile Bins     =  512
# Profile Avg      =  727.162028218874 
# Profile StdDev   =  119.745419744748 
# Reduced chi-sqr  =  1.070
# Prob(Noise)      <  0.133   (~1.1 sigma)
# P_topo (ms)      =  714.484624683541  +/- 5.2e-05
# P'_topo (s/s)    =  -0                +/- 2.74e-11
# P''_topo (s/s^2) =  0                 +/- 1.21e-14
# P_bary (ms)      =  N/A
# P'_bary (s/s)    =  N/A
# P''_bary (s/s^2) =  N/A
# P_orb (s)        =  N/A
# asin(i)/c (s)    =  N/A
# eccentricity     =  N/A
# w (rad)          =  N/A
# T_peri           =  N/A
######################################################
   0  1276.526
   1  1187.98
   2  921.4354
   3  833.0183
   4  798.0759
   5  710.4136
   6  702.0806
   7  727.2637
   8  678.5156
   9  713.8794
  10  797.1778
  11  649.785
  12  620.4667
  13  608.7445
  14  706.9536
  15  796.5833
  16  740.5151
  17  772.1377
  18  698.8769
  19  621.1796
  20  638.6779
  21  544.5998
  22  565.5948
  23  649.5872
  24  744.7184
  25  634.798
  26  494.3275
  27  544.5892
  28  576.366
  29  686.4633
  30  653.1699
  31  687.9715
  32  659.0707
  33  596.6512
  34  680.7903
  35  615.4146
  36  638.3318
  37  670.9067
  38  659.1736
  39  782.3076
  40  700.7398
  41  669.1179
  42  683.1283
  43  721.5988
  44  726.3375
  45  671.5686
  46  619.6895
  47  732.9308
  48  791.1904
  49  700.4641
  50  679.6532
  51  743.3207
  52  724.0059
  53  727.9786
  54  709.6556
  55  772.814
  56  702.2023
  57  777.3906
  58  810.5476
  59  593.3821
  60  589.5286
  61  669.7819
  62  667.4406
  63  662.8712
  64  584.9109
  65  548.8451
  66  708.9833
  67  714.0669
  68  727.2444
  69  721.3685
  70  694.7859
  71  677.5603
  72  686.3621
  73  689.03
  74  709.3467
  75  641.9863
  76  600.282
  77  575.7178
  78  576.3616
  79  631.7789
  80  667.4401
  81  749.5667
  82  710.1271
  83  707.8474
  84  751.5469
  85  723.7564
  86  804.0931
  87  747.9952
  88  734.6984
  89  792.1548
  90  791.0563
  91  811.9702
  92  672.3889
  93  667.4026
  94  639.272
  95  691.9514
  96  655.4853
  97  622.2062
  98  637.7375
  99  718.2791
 100  737.4913
 101  739.6557
 102  628.042
 103  695.4827
 104  727.4265
 105  807.259
 106  703.2478
 107  723.1618
 108  735.6035
 109  741.5064
 110  713.5358
 111  684.6991
 112  601.6158
 113  594.7528
 114  746.6243
 115  844.7906
 116  806.9546
 117  832.488
 118  872.1293
 119  849.1367
 120  838.5095
 121  749.9617
 122  640.9836
 123  717.706
 124  802.895
 125  868.9972
 126  711.3262
 127  773.531
 128  817.2393
 129  893.0038
 130  835.106
 131  759.522
 132  692.9717
 133  700.9842
 134  795.2382
 135  792.7263
 136  798.4476
 137  767.514
 138  776.3292
 139  779.4518
 140  697.4274
 141  805.3202
 142  832.3813
 143  808.9933
 144  763.7083
 145  727.2424
 146  728.4316
 147  713.6236
 148  840.0658
 149  772.9206
 150  633.41
 151  630.1153
 152  704.2718
 153  816.1644
 154  705.1743
 155  701.222
 156  746.1869
 157  689.105
 158  727.9598
 159  739.1378
 160  735.9249
 161  736.6613
 162  833.3704
 163  828.782
 164  839.3088
 165  766.1614
 166  742.3487
 167  740.0044
 168  727.8936
 169  645.5788
 170  655.6904
 171  684.6757
 172  700.621
 173  628.8796
 174  640.3766
 175  597.952
 176  605.6712
 177  743.6859
 178  751.144
 179  652.6822
 180  636.6754
 181  651.502
 182  653.6068
 183  602.1097
 184  659.4025
 185  776.3911
 186  627.2018
 187  570.1588
 188  587.5588
 189  586.9371
 190  667.0654
 191  717.6759
 192  731.1755
 193  689.1606
 194  644.9144
 195  766.745
 196  709.5173
 197  681.4229
 198  549.8156
 199  574.1699
 200  650.1165
 201  735.1979
 202  767.2608
 203  584.3741
 204  677.337
 205  694.1687
 206  780.6078
 207  654.3686
 208  678.2948
 209  666.5344
 210  635.4161
 211  697.752
 212  738.0696
 213  697.2217
 214  664.572
 215  683.6661
 216  597.7114
 217  572.7005
 218  589.9998
 219  641.7851
 220  734.3301
 221  625.1299
 222  625.4976
 223  596.8456
 224  548.8464
 225  577.9528
 226  583.8982
 227  569.1964
 228  602.9471
 229  728.8369
 230  798.9875
 231  728.7997
 232  540.944
 233  602.8194
 234  691.9423
 235  664.8527
 236  667.2035
 237  755.4655
 238  710.9781
 239  660.0842
 240  719.7663
 241  628.3196
 242  673.8843
 243  739.8842
 244  794.8655
 245  746.4153
 246  661.1281
 247  622.6257
 248  709.151
 249  705.2934
 250  680.7992
 251  726.9878
 252  758.519
 253  610.0266
 254  634.7192
 255  582.6876
 256  541.5685
 257  676.9046
 258  770.8689
 259  672.2999
 260  684.9009
 261  682.0104
 262  759.3532
 263  714.2906
 264  763.1539
 265  782.0505
 266  760.085
 267  819.1511
 268  879.418
 269  753.0606
 270  800.8579
 271  865.6747
 272  890.638
 273  787.7039
 274  703.3921
 275  683.9098
 276  755.1877
 277  807.5474
 278  779.6019
 279  763.9833
 280  680.9225
 281  807.6837
 282  833.2582
 283  866.5399
 284  730.2852
 285  753.5501
 286  725.6715
 287  717.1036
 288  629.1172
 289  655.4077
 290  675.4591
 291  803.6864
 292  877.1495
 293  860.298
 294  746.3101
 295  694.3691
 296  767.5977
 297  769.8577
 298  718.0551
 299  702.6102
 300  755.5331
 301  825.8332
 302  829.6078
 303  858.5515
 304  763.2482
 305  669.0087
 306  704.5663
 307  766.1198
 308  700.3801
 309  628.1249
 310  711.5591
 311  726.7543
 312  708.179
 313  641.5304
 314  690.1482
 315  802.2359
 316  779.6932
 317  717.7142
 318  719.8264
 319  667.8309
 320  774.4199
 321  776.8885
 322  776.4033
 323  747.5557
 324  865.9037
 325  781.7263
 326  665.6674
 327  704.7747
 328  706.1868
 329  745.3425
 330  637.8383
 331  682.0889
 332  613.8422
 333  606.654
 334  815.2371
 335  762.7567
 336  619.2815
 337  533.8848
 338  624.6321
 339  790.4982
 340  777.7717
 341  691.3981
 342  766.8452
 343  789.7353
 344  740.1892
 345  690.9754
 346  780.1061
 347  707.3557
 348  654.0062
 349  747.4639
 350  696.9819
 351  730.1667
 352  705.3056
 353  647.8155
 354  704.7557
 355  659.2961
 356  779.7914
 357  785.6656
 358  633.2076
 359  675.0491
 360  675.8595
 361  609.8662
 362  584.1016
 363  662.8828
 364  704.4561
 365  757.4989
 366  773.3046
 367  818.9702
 368  749.4028
 369  633.7219
 370  596.5721
 371  586.5718
 372  720.0483
 373  818.7642
 374  771.5952
 375  709.2833
 376  640.0707
 377  711.5311
 378  740.9291
 379  727.2879
 380  731.1174
 381  607.6782
 382  733.1442
 383  827.8318
 384  765.3157
 385  654.7169
 386  718.8632
 387  773.6758
 388  749.4305
 389  660.536
 390  708.1094
 391  711.8864
 392  728.6332
 393  764.5394
 394  670.6525
 395  705.7131
 396  628.1539
 397  686.025
 398  713.0302
 399  654.2887
 400  773.558
 401  890.5099
 402  902.0337
 403  894.3541
 404  851.9921
 405  855.2894
 406  838.9637
 407  827.8058
 408  715.2983
 409  755.1193
 410  740.5609
 411  809.2042
 412  811.1
 413  690.2195
 414  595.524
 415  714.5162
 416  781.296
 417  827.4153
 418  743.2515
 419  623.1055
 420  668.3986
 421  713.5836
 422  708.9937
 423  732.3824
 424  643.0391
 425  730.6356
 426  746.2548
 427  676.4936
 428  700.3954
 429  606.3113
 430  697.325
 431  815.4136
 432  765.5963
 433  807.9734
 434  704.1696
 435  727.0306
 436  798.1131
 437  812.2355
 438  865.7278
 439  883.4477
 440  798.2027
 441  898.322
 442  799.9274
 443  720.7512
 444  865.8972
 445  889.6472
 446  777.2919
 447  740.8477
 448  739.1959
 449  781.0191
 450  843.5451
 451  744.799
 452  743.7968
 453  776.3192
 454  842.1368
 455  837.6768
 456  710.9805
 457  719.0707
 458  726.0758
 459  852.5335
 460  879.5269
 461  807.7719
 462  831.4997
 463  907.7051
 464  874.561
 465  777.3254
 466  875.0839
 467  854.3521
 468  791.0773
 469  834.2715
 470  811.2311
 471  844.573
 472  847.6124
 473  823.9598
 474  788.8774
 475  835.6021
 476  967.5446
 477  847.0516
 478  821.3909
 479  844.5848
 480  684.3574
 481  615.4168
 482  707.9788
 483  796.5687
 484  763.2355
 485  659.8447
 486  690.6197
 487  788.7809
 488  696.6419
 489  667.2766
 490  647.2061
 491  741.6548
 492  753.1628
 493  791.871
 494  819.7433
 495  734.7253
 496  771.903
 497  816.7661
 498  843.7839
 499  782.1546
 500  714.2308
 501  725.0519
 502  764.0344
 503  786.0862
 504  727.3685
 505  774.7279
 506  794.5931
 507  768.9686
 508  875.1546
 509  903.664
 510  1090.699
 511  1172.518
