# Input file       =  1183266337.135035_cleaned.dat
# Candidate        =  PSR_0332+5434
# Telescope        =  AR
# Epoch_topo       =  57939.212027025867
# Epoch_bary       =  N/A
# T_sample         =  0.002
# Data Folded      =  7340032
# Data Avg         =  0.0462571254756967
# Data StdDev      =  1.00024494067058 
# Profile Bins     =  512
# Profile Avg      =  663.191905662186 
# Profile StdDev   =  119.762363866987 
# Reduced chi-sqr  =  1.608
# Prob(Noise)      <  7.11e-17   (~8.3 sigma)
# P_topo (ms)      =  714.485919495249  +/- 0.000299
# P'_topo (s/s)    =  -0                +/- 1.58e-10
# P''_topo (s/s^2) =  0                 +/- 6.97e-14
# P_bary (ms)      =  N/A
# P'_bary (s/s)    =  N/A
# P''_bary (s/s^2) =  N/A
# P_orb (s)        =  N/A
# asin(i)/c (s)    =  N/A
# eccentricity     =  N/A
# w (rad)          =  N/A
# T_peri           =  N/A
######################################################
   0  1435.377
   1  1423.21
   2  1317.068
   3  1142.824
   4  873.7235
   5  681.081
   6  691.4009
   7  637.0532
   8  598.8652
   9  593.9846
  10  628.1997
  11  647.7963
  12  843.3415
  13  828.0236
  14  693.3867
  15  650.0474
  16  589.0927
  17  622.4047
  18  712.4177
  19  691.8728
  20  641.447
  21  795.6069
  22  782.7318
  23  604.2327
  24  621.6898
  25  679.2426
  26  594.2132
  27  697.8027
  28  682.1698
  29  724.5354
  30  634.8204
  31  599.509
  32  752.3381
  33  687.4969
  34  628.5532
  35  619.9125
  36  522.1467
  37  576.3198
  38  654.573
  39  576.8038
  40  608.5642
  41  637.7848
  42  667.754
  43  644.7746
  44  697.715
  45  763.6746
  46  781.0761
  47  683.6262
  48  640.8226
  49  706.0333
  50  719.7317
  51  771.4218
  52  789.6436
  53  707.5074
  54  606.8206
  55  684.8704
  56  765.0719
  57  673.8665
  58  740.9802
  59  708.847
  60  628.4948
  61  593.4777
  62  599.8299
  63  798.2464
  64  626.1544
  65  580.3634
  66  708.0035
  67  808.2224
  68  745.9968
  69  674.105
  70  646.6214
  71  718.4506
  72  652.4581
  73  695.0724
  74  764.1748
  75  779.7349
  76  747.2012
  77  683.0862
  78  712.5056
  79  743.7846
  80  636.9996
  81  551.899
  82  548.4432
  83  598.3543
  84  623.1657
  85  764.6093
  86  694.3392
  87  564.8607
  88  630.0881
  89  649.6158
  90  643.4793
  91  590.7941
  92  592.2344
  93  624.0258
  94  634.9402
  95  558.777
  96  578.1566
  97  516.3362
  98  550.5697
  99  556.3364
 100  660.5478
 101  680.3345
 102  698.0468
 103  567.1945
 104  501.3588
 105  572.818
 106  564.1971
 107  594.5894
 108  609.7369
 109  530.7625
 110  645.08
 111  675.0015
 112  602.8215
 113  502.7061
 114  569.6542
 115  622.5769
 116  606.5244
 117  530.8523
 118  557.7739
 119  580.9879
 120  548.6367
 121  690.1122
 122  754.4664
 123  714.9772
 124  562.8802
 125  515.9997
 126  561.7646
 127  697.1346
 128  710.4756
 129  679.7536
 130  562.476
 131  570.9968
 132  620.8628
 133  511.3787
 134  593.1027
 135  739.3878
 136  846.2336
 137  719.7902
 138  531.2369
 139  647.8281
 140  706.4802
 141  768.8634
 142  632.9761
 143  679.176
 144  675.1028
 145  554.2991
 146  560.1151
 147  684.1564
 148  752.156
 149  709.121
 150  714.0672
 151  801.6808
 152  754.8112
 153  694.5541
 154  609.2443
 155  655.9156
 156  728.0594
 157  626.8366
 158  616.1427
 159  701.8303
 160  747.5792
 161  657.9304
 162  699.4407
 163  825.9835
 164  789.5423
 165  761.075
 166  669.3951
 167  676.3978
 168  627.4811
 169  689.0554
 170  745.1203
 171  690.7421
 172  730.9311
 173  686.8652
 174  623.6951
 175  642.7968
 176  607.2899
 177  620.1902
 178  778.0752
 179  757.8635
 180  751.1353
 181  707.5765
 182  717.2478
 183  844.7425
 184  728.3986
 185  629.649
 186  713.9263
 187  696.1468
 188  685.1801
 189  634.8192
 190  702.5767
 191  725.2989
 192  687.8152
 193  733.1655
 194  758.6161
 195  716.6724
 196  725.2504
 197  712.7599
 198  601.0969
 199  504.2292
 200  590.1155
 201  564.4355
 202  588.9471
 203  692.4457
 204  659.2901
 205  626.6841
 206  624.6423
 207  688.5251
 208  716.5782
 209  680.712
 210  758.1995
 211  743.1486
 212  642.0173
 213  651.8008
 214  627.243
 215  647.277
 216  647.7054
 217  680.7907
 218  727.8086
 219  776.7641
 220  766.1854
 221  660.3696
 222  553.6236
 223  528.0962
 224  558.0322
 225  499.5808
 226  562.2943
 227  657.924
 228  752.2029
 229  719.3791
 230  703.8287
 231  751.234
 232  733.4406
 233  729.7974
 234  739.6006
 235  618.5363
 236  554.7784
 237  622.4636
 238  676.0943
 239  715.2093
 240  634.4083
 241  557.2375
 242  634.5574
 243  702.0873
 244  661.0285
 245  647.5379
 246  639.3104
 247  677.5688
 248  694.6883
 249  675.0246
 250  653.1105
 251  636.2648
 252  619.7497
 253  698.4283
 254  649.2999
 255  641.2943
 256  659.0546
 257  662.1752
 258  621.9949
 259  565.364
 260  613.3466
 261  704.2416
 262  641.0952
 263  763.3243
 264  699.2252
 265  785.3886
 266  722.5387
 267  688.686
 268  735.0799
 269  766.1807
 270  722.0842
 271  787.7582
 272  769.3486
 273  739.887
 274  668.0338
 275  718.256
 276  684.0414
 277  667.8785
 278  748.1309
 279  753.0545
 280  728.6221
 281  770.1771
 282  793.0083
 283  789.6222
 284  766.4571
 285  781.2012
 286  731.7729
 287  694.2739
 288  840.197
 289  820.8728
 290  760.7505
 291  674.5648
 292  646.0812
 293  625.7719
 294  686.6922
 295  603.241
 296  617.605
 297  746.6828
 298  754.2827
 299  687.4778
 300  664.7549
 301  641.7695
 302  720.6754
 303  604.9159
 304  662.6556
 305  662.0295
 306  670.2098
 307  730.0018
 308  736.7916
 309  691.6172
 310  694.4673
 311  599.0514
 312  566.6158
 313  596.035
 314  485.1273
 315  668.4182
 316  773.778
 317  656.3156
 318  606.9875
 319  661.7084
 320  652.706
 321  628.8011
 322  646.0062
 323  730.6622
 324  647.5009
 325  590.7859
 326  533.2366
 327  555.7246
 328  530.0384
 329  615.7766
 330  630.4727
 331  593.0284
 332  580.6771
 333  612.6729
 334  592.0245
 335  606.3686
 336  630.239
 337  603.5239
 338  489.4126
 339  434.3745
 340  530.5816
 341  552.0428
 342  547.8286
 343  549.0541
 344  564.1271
 345  520.4453
 346  582.242
 347  490.3959
 348  519.4658
 349  647.6544
 350  627.3748
 351  530.852
 352  611.9617
 353  645.3154
 354  505.4033
 355  539.4111
 356  675.8903
 357  691.329
 358  592.6023
 359  597.5632
 360  674.4072
 361  663.0873
 362  683.063
 363  664.5049
 364  585.3316
 365  641.613
 366  601.0746
 367  678.9909
 368  560.0765
 369  547.5942
 370  660.1529
 371  644.7399
 372  723.8228
 373  639.7258
 374  584.041
 375  519.0953
 376  503.086
 377  459.0875
 378  525.5468
 379  605.399
 380  701.7536
 381  661.0489
 382  647.6306
 383  649.9543
 384  558.0241
 385  656.5186
 386  618.9146
 387  624.4957
 388  709.4206
 389  628.7161
 390  602.8277
 391  601.4984
 392  504.0006
 393  528.6584
 394  453.778
 395  525.2465
 396  455.4507
 397  383.1659
 398  541.9881
 399  509.9883
 400  472.0859
 401  548.6659
 402  562.9619
 403  612.1025
 404  584.3611
 405  657.9012
 406  655.6882
 407  579.4663
 408  621.0501
 409  561.3952
 410  611.5806
 411  571.4672
 412  558.2466
 413  482.8409
 414  589.2932
 415  577.119
 416  490.0857
 417  388.9875
 418  459.6632
 419  591.0747
 420  620.5578
 421  602.5804
 422  643.665
 423  599.5001
 424  584.7126
 425  725.3019
 426  692.8691
 427  642.6223
 428  609.438
 429  570.4818
 430  548.3862
 431  630.3512
 432  750.3689
 433  641.8436
 434  607.3059
 435  645.2995
 436  507.6107
 437  542.6971
 438  666.4294
 439  672.9519
 440  725.3595
 441  726.853
 442  793.7153
 443  811.6865
 444  716.2701
 445  728.1856
 446  817.2817
 447  740.3494
 448  751.6168
 449  706.5534
 450  710.4733
 451  667.2974
 452  644.308
 453  750.1403
 454  643.4445
 455  655.4109
 456  712.3669
 457  659.11
 458  616.5861
 459  564.7327
 460  519.0135
 461  668.5794
 462  651.9996
 463  547.0815
 464  583.8397
 465  603.0549
 466  678.1291
 467  694.6924
 468  640.2947
 469  651.8754
 470  672.1601
 471  579.8263
 472  639.9763
 473  658.0162
 474  698.965
 475  727.5749
 476  708.7985
 477  759.0369
 478  741.8175
 479  720.8018
 480  684.6396
 481  640.1654
 482  656.2027
 483  629.6808
 484  699.2827
 485  745.4853
 486  743.7084
 487  730.6461
 488  711.7595
 489  578.674
 490  649.9115
 491  786.2961
 492  756.3489
 493  702.1602
 494  747.1661
 495  707.5508
 496  669.569
 497  609.8896
 498  636.9188
 499  757.7655
 500  849.5548
 501  787.4186
 502  692.5483
 503  659.1046
 504  733.3196
 505  766.8824
 506  803.3789
 507  793.7279
 508  893.4405
 509  968.5847
 510  1169.875
 511  1438.062
