# Input file       =  1183439200.089815_cleaned.dat
# Candidate        =  PSR_0332+5434
# Telescope        =  AR
# Epoch_topo       =  57941.212755669156
# Epoch_bary       =  N/A
# T_sample         =  0.002
# Data Folded      =  7340032
# Data Avg         =  0.0444988543480607
# Data StdDev      =  0.999927402424868
# Profile Bins     =  512
# Profile Avg      =  637.930576789643 
# Profile StdDev   =  119.724344048662 
# Reduced chi-sqr  =  1.491
# Prob(Noise)      <  3.45e-12   (~6.9 sigma)
# P_topo (ms)      =  714.484418114789  +/- 0.000452
# P'_topo (s/s)    =  -0                +/- 2.39e-10
# P''_topo (s/s^2) =  0                 +/- 1.05e-13
# P_bary (ms)      =  N/A
# P'_bary (s/s)    =  N/A
# P''_bary (s/s^2) =  N/A
# P_orb (s)        =  N/A
# asin(i)/c (s)    =  N/A
# eccentricity     =  N/A
# w (rad)          =  N/A
# T_peri           =  N/A
######################################################
   0  603.1794
   1  683.9955
   2  735.7485
   3  803.9622
   4  712.7888
   5  650.873
   6  801.6527
   7  759.7597
   8  630.4871
   9  697.415
  10  732.1171
  11  614.4375
  12  591.4567
  13  694.4948
  14  778.0012
  15  629.8122
  16  620.5389
  17  656.759
  18  634.033
  19  582.9922
  20  586.1323
  21  651.8961
  22  578.3676
  23  612.5718
  24  610.0079
  25  564.2137
  26  563.4213
  27  598.1622
  28  618.6895
  29  466.4853
  30  562.4815
  31  621.6704
  32  648.1072
  33  616.7692
  34  567.9274
  35  508.7306
  36  583.906
  37  733.1788
  38  635.6537
  39  599.3026
  40  603.5123
  41  633.1104
  42  610.184
  43  574.9469
  44  563.2258
  45  552.9241
  46  599.746
  47  541.2601
  48  435.7685
  49  589.1249
  50  587.0953
  51  519.7373
  52  455.2473
  53  477.2038
  54  605.8737
  55  561.2075
  56  623.9465
  57  646.3574
  58  516.6603
  59  520.2939
  60  633.0719
  61  591.6879
  62  558.4651
  63  590.0778
  64  544.6859
  65  626.7883
  66  664.7429
  67  657.3329
  68  623.0315
  69  636.979
  70  634.7679
  71  590.7761
  72  604.2828
  73  686.2321
  74  582.6288
  75  541.5475
  76  549.3187
  77  544.8488
  78  591.9232
  79  606.3253
  80  656.5156
  81  634.7941
  82  638.9647
  83  605.2292
  84  638.904
  85  607.1935
  86  679.3384
  87  591.9714
  88  669.1049
  89  645.1812
  90  503.671
  91  682.1414
  92  704.6251
  93  713.8118
  94  613.1465
  95  604.6754
  96  527.264
  97  508.6606
  98  660.267
  99  580.1072
 100  580.9497
 101  705.2208
 102  712.4352
 103  604.7266
 104  543.2327
 105  498.7038
 106  647.6213
 107  798.2254
 108  589.8832
 109  449.7402
 110  602.0562
 111  621.4844
 112  549.7689
 113  719.5223
 114  713.4323
 115  693.2986
 116  652.3498
 117  740.7216
 118  697.9614
 119  665.7925
 120  723.8311
 121  694.9143
 122  699.8331
 123  600.3931
 124  565.7354
 125  677.2284
 126  633.8321
 127  647.1981
 128  631.8261
 129  677.1475
 130  552.1284
 131  630.0071
 132  741.2368
 133  695.6395
 134  702.2618
 135  679.8098
 136  633.3864
 137  765.2619
 138  862.598
 139  731.2461
 140  700.6111
 141  801.0974
 142  896.4473
 143  860.1371
 144  834.8644
 145  807.64
 146  765.5371
 147  780.5591
 148  816.752
 149  847.5582
 150  882.6484
 151  787.7425
 152  704.674
 153  726.5399
 154  826.0768
 155  900.1982
 156  1111.552
 157  1192.702
 158  1186.756
 159  1104.368
 160  1232.516
 161  1038.68
 162  808.1393
 163  711.9971
 164  615.0984
 165  715.5859
 166  656.7054
 167  780.9167
 168  818.7565
 169  817.3788
 170  783.5975
 171  713.0121
 172  774.7108
 173  700.1965
 174  815.6716
 175  798.3572
 176  715.9742
 177  752.3083
 178  764.867
 179  720.6343
 180  826.4498
 181  732.1309
 182  733.1812
 183  683.2202
 184  716.7812
 185  762.5897
 186  717.4877
 187  697.4663
 188  585.1541
 189  610.985
 190  764.4912
 191  787.9794
 192  716.8898
 193  724.9062
 194  643.162
 195  550.8911
 196  710.3922
 197  708.0988
 198  647.2976
 199  650.5458
 200  614.3016
 201  668.9061
 202  668.234
 203  618.173
 204  513.8934
 205  483.266
 206  661.3724
 207  765.8298
 208  707.2966
 209  672.7179
 210  564.8956
 211  505.2924
 212  508.4577
 213  602.7343
 214  479.89
 215  515.3983
 216  481.7151
 217  437.914
 218  546.7031
 219  492.5823
 220  438.4927
 221  402.3949
 222  569.2354
 223  735.6635
 224  711.4256
 225  681.5018
 226  705.5215
 227  619.8454
 228  623.8766
 229  557.7249
 230  621.8082
 231  673.2298
 232  615.0137
 233  595.5655
 234  623.0135
 235  615.4907
 236  574.6522
 237  528.3372
 238  532.1608
 239  583.6073
 240  454.583
 241  447.4773
 242  649.0001
 243  614.9826
 244  525.8449
 245  464.6434
 246  480.752
 247  540.9163
 248  516.6202
 249  394.6973
 250  475.8894
 251  513.1975
 252  558.1763
 253  535.355
 254  534.0438
 255  469.0634
 256  452.2298
 257  488.8694
 258  545.1692
 259  633.2804
 260  680.3071
 261  526.1448
 262  573.38
 263  517.2576
 264  621.1716
 265  594.1807
 266  532.1528
 267  446.026
 268  587.1959
 269  713.2071
 270  684.4023
 271  672.295
 272  635.7783
 273  814.3806
 274  829.7368
 275  793.5471
 276  750.8275
 277  703.6976
 278  656.31
 279  647.1207
 280  686.1649
 281  679.5715
 282  687.7732
 283  676.5471
 284  582.6452
 285  593.047
 286  600.9109
 287  630.837
 288  497.973
 289  498.301
 290  531.5797
 291  506.2954
 292  662.7148
 293  620.2181
 294  590.4449
 295  496.6793
 296  483.4139
 297  461.6018
 298  588.1642
 299  645.1118
 300  533.5848
 301  527.8067
 302  549.03
 303  547.5188
 304  500.5278
 305  563.9749
 306  513.6379
 307  503.114
 308  601.0906
 309  684.3523
 310  660.2421
 311  664.4234
 312  535.3803
 313  653.901
 314  651.8297
 315  559.3771
 316  512.7808
 317  523.7608
 318  632.8758
 319  544.1161
 320  610.5561
 321  659.5508
 322  550.8268
 323  494.3058
 324  561.4953
 325  636.9515
 326  650.4345
 327  562.1029
 328  517.3431
 329  583.7324
 330  609.077
 331  682.111
 332  698.2036
 333  471.4594
 334  525.001
 335  717.8361
 336  663.9308
 337  634.3738
 338  585.8055
 339  586.5973
 340  625.2466
 341  587.0474
 342  530.97
 343  574.3688
 344  571.7436
 345  571.2515
 346  606.8942
 347  646.434
 348  632.0663
 349  572.8674
 350  648.5461
 351  692.1176
 352  662.5673
 353  645.8315
 354  585.3391
 355  564.5974
 356  613.8184
 357  623.4022
 358  538.3664
 359  582.0419
 360  604.4811
 361  508.8797
 362  545.5549
 363  605.2692
 364  632.9802
 365  675.1511
 366  664.99
 367  670.481
 368  604.5602
 369  589.1512
 370  563.9211
 371  496.4613
 372  450.1112
 373  575.9042
 374  483.5217
 375  521.4243
 376  544.1321
 377  436.8967
 378  521.3675
 379  544.0105
 380  506.8871
 381  390.127
 382  463.7482
 383  645.1328
 384  685.648
 385  666.7221
 386  608.9467
 387  601.5079
 388  660.7046
 389  749.9338
 390  709.1139
 391  656.4196
 392  695.2495
 393  700.5732
 394  634.4777
 395  664.0912
 396  735.9853
 397  679.0738
 398  600.2576
 399  657.2717
 400  744.7968
 401  656.6219
 402  623.8887
 403  630.9382
 404  602.6977
 405  586.4633
 406  637.1829
 407  597.4792
 408  605.7011
 409  588.9277
 410  641.3962
 411  784.2198
 412  711.1709
 413  570.3604
 414  602.2831
 415  679.8851
 416  614.5825
 417  579.1432
 418  551.3696
 419  751.6033
 420  701.0294
 421  717.7618
 422  553.2405
 423  534.6759
 424  582.9559
 425  666.4238
 426  668.9367
 427  548.3281
 428  581.0859
 429  609.8851
 430  565.0786
 431  628.3592
 432  645.3173
 433  667.2859
 434  701.3977
 435  550.7091
 436  627.1574
 437  655.5098
 438  681.3955
 439  631.2656
 440  512.9482
 441  558.0657
 442  638.6535
 443  608.2648
 444  569.874
 445  582.5224
 446  630.369
 447  559.1052
 448  619.5477
 449  653.393
 450  533.5636
 451  503.7979
 452  725.5941
 453  759.4413
 454  756.7256
 455  645.7571
 456  628.8962
 457  678.0837
 458  710.1244
 459  634.3383
 460  727.9335
 461  682.0911
 462  642.1255
 463  680.808
 464  689.5184
 465  774.8416
 466  734.7697
 467  704.6727
 468  730.2403
 469  788.3923
 470  765.9827
 471  759.3782
 472  766.1559
 473  752.2203
 474  675.3268
 475  701.9212
 476  636.7635
 477  727.2671
 478  764.4124
 479  635.5729
 480  656.3978
 481  687.6066
 482  746.1783
 483  729.3463
 484  677.6891
 485  611.5462
 486  659.6534
 487  673.6406
 488  712.8668
 489  777.8826
 490  755.6101
 491  792.6461
 492  761.8054
 493  807.7799
 494  772.6226
 495  618.1539
 496  586.8075
 497  611.5599
 498  606.8294
 499  656.0654
 500  654.6006
 501  618.5015
 502  605.1644
 503  678.4733
 504  657.7004
 505  693.5013
 506  620.7815
 507  602.6292
 508  698.1081
 509  688.0519
 510  690.8468
 511  520.7441
