# Input file       =  1183955774.111918_cleaned.dat
# Candidate        =  PSR_0332+5434
# Telescope        =  AR
# Epoch_topo       =  57947.191621665719
# Epoch_bary       =  N/A
# T_sample         =  0.002
# Data Folded      =  7340032
# Data Avg         =  0.0538552814559978
# Data StdDev      =  1.00009022614212 
# Profile Bins     =  512
# Profile Avg      =  771.787357654633 
# Profile StdDev   =  119.743839426722 
# Reduced chi-sqr  =  1.655
# Prob(Noise)      <  6.45e-19   (~8.8 sigma)
# P_topo (ms)      =  714.480140275275  +/- 0.000299
# P'_topo (s/s)    =  -0                +/- 1.58e-10
# P''_topo (s/s^2) =  0                 +/- 6.97e-14
# P_bary (ms)      =  N/A
# P'_bary (s/s)    =  N/A
# P''_bary (s/s^2) =  N/A
# P_orb (s)        =  N/A
# asin(i)/c (s)    =  N/A
# eccentricity     =  N/A
# w (rad)          =  N/A
# T_peri           =  N/A
######################################################
   0  1491.902
   1  1367.538
   2  1231.749
   3  1053.49
   4  923.3569
   5  783.8319
   6  702.0022
   7  762.3102
   8  739.2778
   9  762.3466
  10  816.0469
  11  930.1039
  12  893.1854
  13  851.5626
  14  900.3845
  15  864.689
  16  816.6861
  17  868.3307
  18  854.1106
  19  894.1149
  20  853.1163
  21  731.7324
  22  740.0692
  23  637.9592
  24  665.2389
  25  778.3595
  26  858.1636
  27  749.0977
  28  712.149
  29  856.9396
  30  819.6976
  31  818.2893
  32  827.6933
  33  829.7956
  34  745.4883
  35  649.6779
  36  689.0175
  37  653.6
  38  713.1048
  39  731.5051
  40  766.1833
  41  672.6715
  42  622.0225
  43  752.3599
  44  745.6335
  45  706.4102
  46  783.4133
  47  706.6439
  48  701.5379
  49  836.8688
  50  801.3198
  51  688.5411
  52  691.8909
  53  689.1883
  54  620.7326
  55  728.4429
  56  679.7424
  57  743.8226
  58  824.9732
  59  861.5432
  60  762.9422
  61  766.8636
  62  744.8676
  63  774.0456
  64  885.0576
  65  915.1708
  66  913.1539
  67  873.2878
  68  813.1921
  69  793.7352
  70  838.3221
  71  858.7543
  72  838.9956
  73  710.5373
  74  684.9935
  75  818.5486
  76  778.4722
  77  804.4321
  78  777.1076
  79  785.5421
  80  798.9004
  81  799.1694
  82  846.072
  83  775.038
  84  774.7328
  85  850.7943
  86  850.1398
  87  666.712
  88  642.3263
  89  742.3786
  90  791.5745
  91  830.01
  92  831.4803
  93  787.5359
  94  693.8403
  95  643.9851
  96  713.1971
  97  711.5184
  98  699.2281
  99  693.3093
 100  665.3101
 101  712.7799
 102  698.6918
 103  669.2392
 104  635.7743
 105  662.7248
 106  679.0918
 107  682.5779
 108  697.0507
 109  731.7766
 110  698.5123
 111  586.1626
 112  732.1099
 113  783.821
 114  737.3249
 115  730.3042
 116  801.2071
 117  910.2327
 118  884.4753
 119  702.6526
 120  709.9362
 121  778.6522
 122  829.0625
 123  929.1713
 124  930.2201
 125  747.8534
 126  737.1097
 127  713.982
 128  738.0609
 129  689.145
 130  714.4659
 131  742.7295
 132  764.4418
 133  752.9988
 134  773.9202
 135  713.4307
 136  651.1165
 137  720.0183
 138  734.7598
 139  699.1362
 140  701.0092
 141  718.675
 142  705.2174
 143  775.097
 144  781.8053
 145  812.6832
 146  817.297
 147  755.6282
 148  746.6237
 149  835.9211
 150  835.7544
 151  811.7722
 152  786.6808
 153  806.4804
 154  786.1348
 155  865.8472
 156  847.9694
 157  708.4476
 158  823.1935
 159  810.1201
 160  744.8094
 161  713.2922
 162  718.8691
 163  741.8779
 164  722.1353
 165  814.1124
 166  723.93
 167  758.5315
 168  742.9275
 169  708.0324
 170  700.2219
 171  752.8333
 172  832.9966
 173  805.2387
 174  834.2365
 175  871.7033
 176  797.3922
 177  813.707
 178  822.0606
 179  756.8736
 180  700.1408
 181  729.3495
 182  782.4107
 183  709.0728
 184  698.7406
 185  657.0868
 186  696.632
 187  838.9662
 188  718.3867
 189  706.9073
 190  869.4913
 191  902.6349
 192  766.6855
 193  601.3562
 194  567.343
 195  651.7426
 196  771.4324
 197  737.0618
 198  699.9485
 199  713.4855
 200  764.918
 201  774.3199
 202  918.0412
 203  971.6552
 204  850.0767
 205  784.0209
 206  813.4044
 207  808.2299
 208  961.5965
 209  830.0216
 210  808.7759
 211  778.2364
 212  768.7205
 213  747.8576
 214  676.6003
 215  731.2361
 216  785.5372
 217  775.1308
 218  792.441
 219  795.8596
 220  716.3385
 221  767.5402
 222  840.1331
 223  873.0156
 224  834.5622
 225  734.5098
 226  776.8522
 227  772.652
 228  833.3467
 229  827.2151
 230  767.3326
 231  806.8732
 232  881.8446
 233  860.907
 234  732.4609
 235  813.5153
 236  824.5463
 237  861.4994
 238  872.8693
 239  779.8341
 240  817.5256
 241  898.0106
 242  904.5649
 243  877.2501
 244  789.9813
 245  792.5533
 246  843.6483
 247  783.1137
 248  884.5619
 249  853.4144
 250  813.8917
 251  781.5444
 252  835.6363
 253  732.5177
 254  701.0082
 255  746.3061
 256  776.5938
 257  801.8016
 258  703.9716
 259  781.7783
 260  765.3533
 261  782.5705
 262  874.5731
 263  829.9363
 264  878.7109
 265  884.6687
 266  974.5209
 267  1034.802
 268  995.2136
 269  954.5449
 270  936.9337
 271  884.6708
 272  929.6474
 273  904.5413
 274  858.0519
 275  853.5825
 276  856.6314
 277  750.9579
 278  711.6895
 279  714.4693
 280  830.5259
 281  761.9609
 282  716.8934
 283  699.9275
 284  681.8185
 285  581.1885
 286  475.8085
 287  609.7087
 288  667.3875
 289  688.8323
 290  722.8844
 291  699.798
 292  656.3873
 293  626.7
 294  744.4606
 295  759.6279
 296  690.4593
 297  640.7315
 298  738.3126
 299  851.9303
 300  870.7292
 301  715.2352
 302  604.2313
 303  679.0387
 304  684.6544
 305  648.1108
 306  716.5599
 307  736.553
 308  713.05
 309  636.5795
 310  733.5673
 311  694.6098
 312  590.2604
 313  702.574
 314  682.6003
 315  787.051
 316  704.8557
 317  666.6666
 318  630.2784
 319  685.7968
 320  670.7924
 321  656.0561
 322  696.3516
 323  697.4975
 324  711.3176
 325  750.6798
 326  683.7847
 327  586.8346
 328  621.2892
 329  827.0756
 330  854.9041
 331  685.343
 332  623.9902
 333  650.5466
 334  626.1885
 335  711.0217
 336  735.6324
 337  673.985
 338  645.3741
 339  647.4138
 340  690.1865
 341  726.1956
 342  671.7053
 343  677.3086
 344  574.1883
 345  549.3397
 346  573.719
 347  619.5956
 348  743.9716
 349  722.5466
 350  656.3198
 351  773.7825
 352  827.6065
 353  709.4843
 354  805.4269
 355  782.3702
 356  745.9268
 357  699.0153
 358  768.1786
 359  648.3055
 360  685.032
 361  750.507
 362  730.9295
 363  721.9957
 364  666.0056
 365  593.8153
 366  772.9578
 367  709.4141
 368  701.4605
 369  707.4388
 370  758.0524
 371  844.3065
 372  869.826
 373  846.5933
 374  807.5585
 375  803.1708
 376  854.5301
 377  897.53
 378  922.8098
 379  845.421
 380  804.5766
 381  777.8348
 382  745.246
 383  758.2352
 384  765.0421
 385  755.999
 386  735.4877
 387  780.1361
 388  716.1378
 389  684.816
 390  699.9219
 391  750.9551
 392  818.8334
 393  815.6664
 394  786.1881
 395  752.5606
 396  699.6227
 397  734.4047
 398  725.0976
 399  781.5814
 400  690.4188
 401  682.7443
 402  796.7492
 403  819.1727
 404  864.6736
 405  816.4365
 406  837.3387
 407  850.5753
 408  886.4357
 409  813.1699
 410  872.9232
 411  867.958
 412  794.3448
 413  818.027
 414  814.1425
 415  864.6887
 416  1007.128
 417  1041.721
 418  880.2311
 419  814.7536
 420  812.1426
 421  714.4838
 422  742.2422
 423  796.4468
 424  744.6125
 425  731.1525
 426  742.655
 427  714.1862
 428  657.5917
 429  682.7346
 430  707.1757
 431  696.2686
 432  657.6011
 433  713.695
 434  616.2253
 435  568.4283
 436  695.7269
 437  903.7454
 438  888.5084
 439  767.8049
 440  735.9254
 441  771.9725
 442  742.3535
 443  835.1509
 444  863.4039
 445  790.9689
 446  829.3898
 447  788.808
 448  760.624
 449  766.6066
 450  740.1
 451  749.6636
 452  586.2318
 453  664.2414
 454  720.0871
 455  666.51
 456  622.8094
 457  763.6469
 458  710.34
 459  620.1818
 460  648.9473
 461  605.4515
 462  553.2094
 463  627.2015
 464  626.4796
 465  552.3583
 466  602.2881
 467  683.0013
 468  736.7881
 469  665.7503
 470  732.4435
 471  709.5613
 472  626.291
 473  687.6343
 474  762.1251
 475  717.4346
 476  692.2747
 477  730.3892
 478  813.6645
 479  853.0261
 480  872.7295
 481  833.3956
 482  715.6257
 483  750.703
 484  848.0043
 485  872.0434
 486  774.7801
 487  750.8594
 488  753.3563
 489  820.7355
 490  912.8372
 491  850.3035
 492  765.1083
 493  846.8557
 494  980.2019
 495  922.1508
 496  765.7182
 497  841.8035
 498  927.6257
 499  782.483
 500  773.8662
 501  786.4103
 502  843.7963
 503  909.1066
 504  924.203
 505  918.853
 506  971.4355
 507  1036.089
 508  1081.499
 509  1173.592
 510  1473.154
 511  1525.173
