# Input file       =  1183109348.111727_cleaned.dat
# Candidate        =  PSR_0332+5434
# Telescope        =  AR
# Epoch_topo       =  57937.395024441284
# Epoch_bary       =  N/A
# T_sample         =  0.002
# Data Folded      =  7340032
# Data Avg         =  0.061126764934703
# Data StdDev      =  1.0000523201409  
# Profile Bins     =  512
# Profile Avg      =  876.367117476493 
# Profile StdDev   =  119.739300826099 
# Reduced chi-sqr  =  0.886
# Prob(Noise)      <  0.97   (~0.0 sigma)
# P_topo (ms)      =  714.487670630379  +/- 0.000375
# P'_topo (s/s)    =  -0                +/- 1.98e-10
# P''_topo (s/s^2) =  0                 +/- 8.73e-14
# P_bary (ms)      =  N/A
# P'_bary (s/s)    =  N/A
# P''_bary (s/s^2) =  N/A
# P_orb (s)        =  N/A
# asin(i)/c (s)    =  N/A
# eccentricity     =  N/A
# w (rad)          =  N/A
# T_peri           =  N/A
######################################################
   0  845.8986
   1  802.8549
   2  845.8702
   3  900.3841
   4  871.2512
   5  861.347
   6  882.4171
   7  939.0648
   8  1019.76
   9  1008.823
  10  907.4323
  11  883.0714
  12  923.0911
  13  979.8241
  14  988.5213
  15  979.5084
  16  899.3442
  17  984.7253
  18  993.3585
  19  930.6519
  20  935.5172
  21  873.1433
  22  894.6639
  23  1062.672
  24  989.4578
  25  877.2487
  26  887.5768
  27  999.3396
  28  1036.238
  29  849.3879
  30  905.4223
  31  855.1163
  32  852.4248
  33  884.2719
  34  993.4266
  35  859.252
  36  809.1064
  37  781.9056
  38  720.2557
  39  847.4899
  40  753.5773
  41  764.4893
  42  884.6954
  43  864.8669
  44  780.67
  45  737.8165
  46  860.9515
  47  916.9558
  48  952.9419
  49  970.2343
  50  891.2766
  51  888.1407
  52  876.3129
  53  839.0838
  54  914.5729
  55  999.6728
  56  1042.643
  57  908.1821
  58  881.9888
  59  926.1721
  60  869.3171
  61  930.5835
  62  851.3253
  63  819.7003
  64  916.1112
  65  930.423
  66  996.9349
  67  943.1302
  68  867.4142
  69  923.7054
  70  1054.614
  71  895.9613
  72  890.6038
  73  919.3819
  74  958.1049
  75  1019.717
  76  954.8502
  77  926.3345
  78  912.3792
  79  838.7636
  80  818.7112
  81  762.8657
  82  811.4025
  83  856.5947
  84  908.8994
  85  892.7808
  86  865.1783
  87  852.392
  88  815.9976
  89  796.4678
  90  771.2571
  91  884.708
  92  908.8113
  93  877.4896
  94  866.7088
  95  950.9132
  96  968.8901
  97  875.1913
  98  966.8232
  99  920.1784
 100  938.0438
 101  916.3148
 102  827.842
 103  816.6036
 104  919.3226
 105  945.6185
 106  875.8354
 107  848.4618
 108  877.1954
 109  935.0258
 110  847.6954
 111  808.2316
 112  789.366
 113  854.7287
 114  943.6061
 115  870.0275
 116  819.6776
 117  880.5551
 118  806.1674
 119  766.4702
 120  817.3823
 121  794.5714
 122  770.1437
 123  911.1541
 124  899.7039
 125  800.3458
 126  833.0695
 127  904.5675
 128  919.5796
 129  814.5582
 130  737.403
 131  884.2468
 132  928.0459
 133  949.1201
 134  918.8804
 135  846.4048
 136  952.3877
 137  929.8003
 138  910.6362
 139  810.1716
 140  825.4551
 141  933.1198
 142  982.2363
 143  940.5109
 144  980.7593
 145  960.9934
 146  907.35
 147  919.5784
 148  929.797
 149  886.8734
 150  826.8093
 151  833.2739
 152  878.5298
 153  787.7781
 154  834.4565
 155  902.1133
 156  877.7757
 157  853.3397
 158  900.6233
 159  859.4434
 160  935.1096
 161  822.7626
 162  840.1444
 163  850.409
 164  779.4705
 165  789.5522
 166  771.8942
 167  772.6647
 168  834.1085
 169  916.0179
 170  923.899
 171  830.3855
 172  752.0876
 173  822.8687
 174  812.7274
 175  834.7469
 176  887.946
 177  893.2724
 178  788.0157
 179  748.9743
 180  847.7184
 181  871.466
 182  920.0325
 183  901.0772
 184  859.4622
 185  919.473
 186  884.5732
 187  795.6522
 188  811.1676
 189  743.6785
 190  789.0093
 191  754.0327
 192  738.5601
 193  781.467
 194  747.5944
 195  736.9581
 196  695.7095
 197  726.1205
 198  712.8491
 199  691.15
 200  802.9188
 201  792.0526
 202  709.4315
 203  735.6372
 204  762.0613
 205  795.6949
 206  852.2117
 207  810.841
 208  761.7772
 209  813.5411
 210  825.3342
 211  762.325
 212  783.5266
 213  842.3419
 214  803.6265
 215  819.6218
 216  811.2673
 217  843.9664
 218  932.4073
 219  968.7516
 220  916.799
 221  879.2666
 222  839.6406
 223  933.3364
 224  949.5866
 225  893.6732
 226  845.9194
 227  887.6581
 228  921.5272
 229  889.1443
 230  825.2889
 231  842.4612
 232  904.7218
 233  845.7858
 234  824.7692
 235  834.1951
 236  853.4391
 237  874.0924
 238  885.7836
 239  891.5592
 240  883.4678
 241  829.9087
 242  838.8074
 243  865.1283
 244  744.3879
 245  743.1245
 246  852.017
 247  891.8383
 248  884.3046
 249  817.0125
 250  841.9243
 251  910.3719
 252  907.6888
 253  929.5306
 254  847.734
 255  755.7401
 256  875.5514
 257  946.3948
 258  985.0991
 259  983.2872
 260  941.3899
 261  940.1784
 262  1014.524
 263  1080.746
 264  1166.434
 265  1247.318
 266  1260.856
 267  1340.869
 268  1270.858
 269  1099.042
 270  999.3353
 271  908.8814
 272  908.3435
 273  967.8333
 274  927.3749
 275  893.1443
 276  849.6946
 277  901.0599
 278  862.6152
 279  954.7786
 280  963.4781
 281  920.196
 282  874.4681
 283  890.9766
 284  871.1364
 285  935.4916
 286  847.7503
 287  753.917
 288  772.1314
 289  789.2795
 290  829.1299
 291  778.116
 292  802.1913
 293  765.4569
 294  773.4504
 295  758.8496
 296  720.9044
 297  800.9525
 298  861.6418
 299  842.4343
 300  861.4587
 301  873.1589
 302  867.2215
 303  901.0854
 304  901.4947
 305  875.0107
 306  876.717
 307  950.7322
 308  856.9246
 309  846.848
 310  925.6843
 311  943.5637
 312  915.285
 313  947.7578
 314  909.7405
 315  900.7164
 316  807.9731
 317  815.9597
 318  922.7847
 319  924.9214
 320  900.7269
 321  810.2193
 322  647.3864
 323  791.1264
 324  825.8336
 325  881.3737
 326  852.9437
 327  826.6923
 328  848.8803
 329  825.9517
 330  748.8648
 331  904.5474
 332  1001.661
 333  885.8287
 334  763.9296
 335  814.4672
 336  811.243
 337  840.0826
 338  859.2756
 339  956.3447
 340  993.5696
 341  892.6508
 342  918.473
 343  915.2489
 344  864.1082
 345  895.8701
 346  875.2239
 347  893.5299
 348  872.1791
 349  853.8154
 350  909.2411
 351  884.2758
 352  912.3776
 353  907.9816
 354  969.3167
 355  881.4282
 356  837.9429
 357  883.3362
 358  950.0949
 359  903.1633
 360  939.0883
 361  950.2802
 362  884.6218
 363  956.1075
 364  929.7871
 365  946.579
 366  857.0001
 367  853.4254
 368  886.2227
 369  906.4672
 370  880.2325
 371  881.2576
 372  834.6766
 373  762.5096
 374  797.4891
 375  913.5273
 376  900.8516
 377  825.6402
 378  823.7316
 379  841.3428
 380  809.2147
 381  801.4136
 382  874.0192
 383  920.4813
 384  870.2928
 385  893.7641
 386  846.3021
 387  829.4955
 388  873.3677
 389  801.3124
 390  771.1243
 391  792.2406
 392  815.904
 393  788.1954
 394  833.0936
 395  854.9981
 396  772.0827
 397  891.2426
 398  877.0486
 399  894.1623
 400  885.6182
 401  869.4915
 402  987.6755
 403  948.111
 404  838.1119
 405  843.7945
 406  838.7872
 407  862.2707
 408  790.1534
 409  754.0959
 410  766.0521
 411  782.5231
 412  825.7711
 413  787.8165
 414  729.4043
 415  896.3221
 416  968.0254
 417  923.8713
 418  928.032
 419  892.0184
 420  811.0472
 421  777.6311
 422  792.7681
 423  720.5396
 424  764.5366
 425  796.1345
 426  750.2118
 427  827.6991
 428  825.0834
 429  887.2927
 430  888.6653
 431  776.1389
 432  744.8724
 433  887.6974
 434  891.8226
 435  822.2228
 436  916.2184
 437  948.2416
 438  994.1477
 439  914.6123
 440  905.9021
 441  897.9352
 442  860.6233
 443  970.9804
 444  978.2773
 445  929.1454
 446  1056.594
 447  1034.4
 448  972.6208
 449  1095
 450  1007.075
 451  953.5598
 452  936.3274
 453  969.8147
 454  975.3046
 455  953.0611
 456  906.6628
 457  975.5702
 458  1050.218
 459  1024.429
 460  877.2321
 461  1016.401
 462  912.5806
 463  852.7217
 464  837.6447
 465  897.3524
 466  850.5411
 467  816.5816
 468  809.5477
 469  828.1569
 470  812.727
 471  819.7708
 472  757.205
 473  791.9353
 474  807.1623
 475  833.2283
 476  878.4663
 477  907.6316
 478  876.6845
 479  871.3049
 480  940.9183
 481  932.9148
 482  824.3142
 483  900.7151
 484  891.2853
 485  882.5165
 486  963.6649
 487  1044.432
 488  988.6348
 489  873.4911
 490  896.9471
 491  924.1312
 492  905.1324
 493  877.4782
 494  864.0506
 495  886.5087
 496  931.5887
 497  956.3057
 498  968.8013
 499  875.0539
 500  831.3054
 501  855.0251
 502  844.1282
 503  856.2112
 504  910.8441
 505  896.3759
 506  906.184
 507  829.334
 508  816.4032
 509  764.0113
 510  705.3471
 511  804.0657
