# Input file       =  1183266337.135035_cleaned.dat
# Candidate        =  PSR_0332+5434
# Telescope        =  AR
# Epoch_topo       =  57939.212027025867
# Epoch_bary       =  N/A
# T_sample         =  0.002
# Data Folded      =  7340032
# Data Avg         =  0.0462571254756967
# Data StdDev      =  1.00024494067058 
# Profile Bins     =  512
# Profile Avg      =  663.19190564851  
# Profile StdDev   =  119.762363866987 
# Reduced chi-sqr  =  1.605
# Prob(Noise)      <  9.23e-17   (~8.2 sigma)
# P_topo (ms)      =  714.485919480097  +/- 0.000313
# P'_topo (s/s)    =  -0                +/- 1.65e-10
# P''_topo (s/s^2) =  0                 +/- 7.28e-14
# P_bary (ms)      =  N/A
# P'_bary (s/s)    =  N/A
# P''_bary (s/s^2) =  N/A
# P_orb (s)        =  N/A
# asin(i)/c (s)    =  N/A
# eccentricity     =  N/A
# w (rad)          =  N/A
# T_peri           =  N/A
######################################################
   0  1405.457
   1  1390.196
   2  1218.375
   3  1006.083
   4  737.3909
   5  681.8936
   6  669.7733
   7  603.7636
   8  598.2958
   9  611.4723
  10  633.501
  11  752.7855
  12  858.0483
  13  745.4028
  14  654.6675
  15  636.3099
  16  591.7108
  17  675.0126
  18  703.5869
  19  652.5435
  20  715.4442
  21  828.3132
  22  687.2539
  23  580.6989
  24  670.6757
  25  619.3717
  26  637.1533
  27  708.5756
  28  710.7531
  29  694.1652
  30  578.3336
  31  704.0717
  32  715.9664
  33  663.9037
  34  602.2368
  35  592.1097
  36  510.1834
  37  649.543
  38  614.5459
  39  571.9049
  40  636.0745
  41  650.0178
  42  668.7231
  43  653.0502
  44  746.7758
  45  780.945
  46  755.8996
  47  628.9089
  48  672.061
  49  709.0941
  50  736.8014
  51  813.0018
  52  740.5217
  53  656.1153
  54  615.1876
  55  761.9571
  56  707.4905
  57  688.0665
  58  756.1534
  59  656.6403
  60  620.4846
  61  553.85
  62  727.6617
  63  737.314
  64  554.8572
  65  664.6048
  66  755.7445
  67  810.9164
  68  685.7705
  69  647.64
  70  691.5786
  71  692.7284
  72  645.6693
  73  752.5009
  74  759.2047
  75  790.2215
  76  690.934
  77  696.0272
  78  741.7853
  79  700.3533
  80  584.1617
  81  529.2648
  82  587.4314
  83  595.1391
  84  699.5249
  85  774.2072
  86  590.2657
  87  597.4064
  88  633.2561
  89  662.2543
  90  603.259
  91  604.0029
  92  586.1708
  93  664.3398
  94  574.2604
  95  581.0283
  96  534.8918
  97  532.2222
  98  557.0241
  99  605.6463
 100  682.7683
 101  686.6649
 102  642.882
 103  508.3256
 104  546.8666
 105  580.4737
 106  566.9457
 107  626.572
 108  546.9448
 109  580.5508
 110  667.8221
 111  662.8652
 112  508.5699
 113  562.1542
 114  573.8307
 115  650.9515
 116  541.0632
 117  545.204
 118  582.5068
 119  542.0883
 120  634.0742
 121  722.9666
 122  762.147
 123  615.1012
 124  537.873
 125  516.4436
 126  648.9845
 127  702.6647
 128  712.6754
 129  622.1347
 130  534.7986
 131  636.5675
 132  548.4341
 133  541.1362
 134  664.2415
 135  811.4919
 136  807.1625
 137  580.1047
 138  584.6243
 139  697.146
 140  745.6113
 141  714.7896
 142  614.4338
 143  705.776
 144  601.3248
 145  535.7204
 146  625.6405
 147  736.9353
 148  734.2021
 149  701.7115
 150  772.9077
 151  786.2441
 152  723.2054
 153  637.3352
 154  617.1159
 155  712.4064
 156  664.0754
 157  628.9217
 158  651.8209
 159  767.1042
 160  683.317
 161  659.0126
 162  763.1168
 163  839.6605
 164  754.1673
 165  723.9752
 166  647.2962
 167  671.3931
 168  631.1295
 169  752.1837
 170  704.9456
 171  714.5718
 172  729.1436
 173  638.2566
 174  624.581
 175  644.0967
 176  575.3795
 177  715.3436
 178  770.3719
 179  759.5602
 180  732.7495
 181  693.5743
 182  798.4479
 183  814.8393
 184  642.7441
 185  675.748
 186  694.6593
 187  712.2605
 188  634.3105
 189  682.369
 190  717.8265
 191  713.1087
 192  694.706
 193  767.848
 194  724.0196
 195  735.1455
 196  701.9246
 197  673.8079
 198  516.8867
 199  556.2041
 200  588.2934
 201  553.4429
 202  665.3234
 203  682.1811
 204  641.4693
 205  611.7854
 206  665.5919
 207  712.9802
 208  689.1595
 209  703.8513
 210  780.7917
 211  676.3917
 212  633.8831
 213  654.1091
 214  629.5255
 215  664.249
 216  640.9663
 217  712.565
 218  748.274
 219  797.1491
 220  712.8762
 221  593.2918
 222  513.7526
 223  554.6892
 224  543.0876
 225  507.6725
 226  613.4153
 227  707.3611
 228  755.8776
 229  694.616
 230  746.1521
 231  746.1863
 232  709.1346
 233  754.347
 234  673.9368
 235  579.9799
 236  584.4063
 237  645.1932
 238  709.8057
 239  677.4114
 240  588.7706
 241  574.3057
 242  687.635
 243  679.4827
 244  654.563
 245  652.4277
 246  640.1859
 247  703.2711
 248  677.5158
 249  669.3628
 250  638.3051
 251  625.3174
 252  649.9184
 253  701.3065
 254  623.5711
 255  660.0401
 256  654.2604
 257  654.3504
 258  592.8313
 259  564.3441
 260  691.657
 261  649.14
 262  721.0908
 263  722.2379
 264  735.5562
 265  784.8001
 266  674.9996
 267  734.9269
 268  754.4436
 269  742.4525
 270  735.1524
 271  797.2825
 272  750.3059
 273  697.6023
 274  688.1817
 275  710.3668
 276  669.9147
 277  696.7159
 278  763.9784
 279  736.1239
 280  744.8841
 281  797.5146
 282  783.0132
 283  788.9938
 284  755.6896
 285  785.0078
 286  675.3401
 287  786.4675
 288  840.0038
 289  793.543
 290  703.1307
 291  664.4653
 292  616.1719
 293  682.5475
 294  632.837
 295  594.5435
 296  682.592
 297  779.9418
 298  703.5026
 299  682.6856
 300  629.8786
 301  709.3224
 302  658.8571
 303  616.725
 304  676.1642
 305  659.627
 306  699.0333
 307  750.4864
 308  701.5598
 309  695.0869
 310  656.4495
 311  560.3032
 312  602.769
 313  524.4995
 314  546.9044
 315  769.7698
 316  716.2179
 317  599.5923
 318  657.7642
 319  641.5609
 320  662.2632
 321  599.0263
 322  719.261
 323  686.7213
 324  617.488
 325  553.5895
 326  542.2984
 327  543.6318
 328  565.2177
 329  638.2994
 330  615.2894
 331  583.9434
 332  596.3553
 333  607.1299
 334  581.3239
 335  638.6632
 336  618.6272
 337  545.5835
 338  437.4427
 339  481.7482
 340  549.7798
 341  555.0738
 342  533.1364
 343  584.1976
 344  522.4235
 345  561.166
 346  545.6951
 347  461.6237
 348  607.6597
 349  653.7517
 350  566.7067
 351  551.976
 352  672.3564
 353  569.5111
 354  501.5267
 355  609.944
 356  701.9805
 357  632.2985
 358  575.9606
 359  650.5864
 360  663.9446
 361  672.5873
 362  688.2299
 363  617.4213
 364  621.5335
 365  608.9791
 366  652.0143
 367  641.4699
 368  507.655
 369  627.1862
 370  628.9503
 371  707.5829
 372  673.9178
 373  621.0652
 374  534.6431
 375  531.0698
 376  468.2905
 377  483.7633
 378  575.285
 379  645.0539
 380  703.6734
 381  625.6221
 382  672.9413
 383  590.6938
 384  597.1674
 385  668.8405
 386  592.8043
 387  693.9067
 388  682.427
 389  579.0463
 390  631.6996
 391  512.9238
 392  543.8964
 393  470.7956
 394  515.2328
 395  494.4714
 396  378.5952
 397  462.1443
 398  555.66
 399  476.9098
 400  514.7404
 401  558.5065
 402  586.2657
 403  591.5884
 404  619.7999
 405  682.189
 406  598.0822
 407  608.5067
 408  592.544
 409  583.5654
 410  590.3348
 411  565.8947
 412  507.5103
 413  521.7164
 414  611.0198
 415  530.3622
 416  437.808
 417  413.2407
 418  526.0394
 419  641.3474
 420  574.785
 421  643.9077
 422  612.0752
 423  575.6636
 424  665.7225
 425  721.8752
 426  677.8572
 427  610.7645
 428  591.9993
 429  558.1467
 430  562.5296
 431  731.4959
 432  694.7192
 433  600.7462
 434  642.2551
 435  582.0078
 436  486.7225
 437  638.5577
 438  661.8115
 439  700.6401
 440  729.9418
 441  743.348
 442  838.9224
 443  750.3357
 444  708.4702
 445  782.9495
 446  792.7454
 447  734.9449
 448  733.2372
 449  706.1702
 450  680.5236
 451  649.9509
 452  702.991
 453  716.2056
 454  607.1935
 455  704.3226
 456  692.34
 457  626.5884
 458  614.451
 459  497.9353
 460  621.3284
 461  674.0876
 462  596.4258
 463  544.4252
 464  594.9666
 465  634.5195
 466  693.049
 467  680.5374
 468  621.2609
 469  698.0805
 470  594.3544
 471  616.2831
 472  662.1268
 473  675.3829
 474  728.8215
 475  707.2355
 476  742.1013
 477  742.8568
 478  735.5459
 479  694.1585
 480  671.4745
 481  637.9248
 482  639.2179
 483  657.0634
 484  736.4893
 485  744.7246
 486  746.7031
 487  707.7436
 488  658.9697
 489  571.8118
 490  747.9128
 491  786.4701
 492  709.7676
 493  741.2012
 494  724.6974
 495  691.038
 496  618.7694
 497  619.5367
 498  680.0833
 499  851.9174
 500  830.4952
 501  727.6279
 502  659.9415
 503  688.1639
 504  765.0388
 505  778.1862
 506  788.3163
 507  846.7289
 508  942.5195
 509  1058.766
 510  1330.43
 511  1478.047
