# Input file       =  1183970685.111763_cleaned.dat
# Candidate        =  PSR_0332+5434
# Telescope        =  AR
# Epoch_topo       =  57947.364202682445
# Epoch_bary       =  N/A
# T_sample         =  0.002
# Data Folded      =  7340032
# Data Avg         =  0.0426386682952479
# Data StdDev      =  1.00007853164987 
# Profile Bins     =  512
# Profile Avg      =  611.332120316364 
# Profile StdDev   =  119.742439209657 
# Reduced chi-sqr  =  0.957
# Prob(Noise)      <  0.753   (~0.0 sigma)
# P_topo (ms)      =  714.480356301766  +/- 0.000181
# P'_topo (s/s)    =  -0                +/- 9.56e-11
# P''_topo (s/s^2) =  0                 +/- 4.22e-14
# P_bary (ms)      =  N/A
# P'_bary (s/s)    =  N/A
# P''_bary (s/s^2) =  N/A
# P_orb (s)        =  N/A
# asin(i)/c (s)    =  N/A
# eccentricity     =  N/A
# w (rad)          =  N/A
# T_peri           =  N/A
######################################################
   0  1220.032
   1  1177.36
   2  987.813
   3  903.8828
   4  807.45
   5  603.5657
   6  592.8838
   7  630.4048
   8  626.5288
   9  591.4249
  10  618.4702
  11  668.8807
  12  541.4645
  13  584.2792
  14  565.7202
  15  568.4048
  16  665.5053
  17  595.9392
  18  519.1966
  19  553.8682
  20  535.7192
  21  519.257
  22  525.2656
  23  553.5707
  24  607.981
  25  546.6228
  26  556.1172
  27  521.3193
  28  512.0299
  29  702.0673
  30  690.8953
  31  644.8043
  32  640.9073
  33  633.7225
  34  522.0304
  35  437.5148
  36  483.7587
  37  570.658
  38  716.7608
  39  729.2274
  40  692.0906
  41  668.0809
  42  508.5462
  43  511.3745
  44  612.1026
  45  608.1373
  46  604.8021
  47  485.1388
  48  507.8461
  49  692.494
  50  692.1979
  51  668.8334
  52  543.6924
  53  525.4259
  54  469.1515
  55  488.2722
  56  592.3079
  57  695.0638
  58  665.8945
  59  616.1981
  60  502.0181
  61  494.8755
  62  644.8384
  63  594.2983
  64  657.4073
  65  723.0974
  66  544.7158
  67  598.0167
  68  608.6793
  69  620.564
  70  602.1482
  71  572.9342
  72  651.9672
  73  511.3351
  74  512.8387
  75  584.7856
  76  589.095
  77  571.1954
  78  645.3529
  79  521.6979
  80  481.2439
  81  546.223
  82  608.2303
  83  452.7213
  84  389.6019
  85  414.6523
  86  548.2259
  87  531.9143
  88  582.8318
  89  621.9263
  90  578.8911
  91  593.399
  92  569.6644
  93  664.1647
  94  615.6569
  95  552.0368
  96  634.0006
  97  547.4331
  98  579.5021
  99  592.5644
 100  661.2323
 101  571.873
 102  559.3287
 103  596.293
 104  577.8458
 105  647.5468
 106  636.9283
 107  568.1906
 108  572.651
 109  590.1849
 110  561.9016
 111  600.6792
 112  681.4995
 113  651.0503
 114  633.3367
 115  601.1097
 116  626.2562
 117  670.4111
 118  666.5745
 119  595.3739
 120  617.2037
 121  639.9681
 122  601.0786
 123  555.9231
 124  600.8885
 125  759.5719
 126  720.4607
 127  567.2457
 128  557.9122
 129  621.5753
 130  664.6165
 131  683.8851
 132  665.1205
 133  637.8561
 134  630.8797
 135  665.955
 136  622.0598
 137  719.1516
 138  599.7451
 139  624.3914
 140  544.9348
 141  556.4577
 142  668.7365
 143  650.0555
 144  675.7268
 145  713.0605
 146  620.0629
 147  586.8855
 148  571.9483
 149  647.6784
 150  615.5339
 151  477.0891
 152  553.6656
 153  608.7774
 154  576.6584
 155  574.6749
 156  526.4048
 157  590.8947
 158  638.48
 159  710.5646
 160  676.8581
 161  580.6207
 162  565.4821
 163  531.0417
 164  589.8531
 165  611.2426
 166  525.1453
 167  584.0807
 168  465.159
 169  497.6995
 170  588.72
 171  601.0156
 172  635.8198
 173  693.9953
 174  656.6929
 175  567.3564
 176  555.2012
 177  604.7854
 178  663.0849
 179  677.9041
 180  534.5324
 181  587.5746
 182  621.8248
 183  692.9308
 184  666.3423
 185  699.1675
 186  570.2797
 187  655.5505
 188  706.3614
 189  642.9669
 190  507.8428
 191  609.5182
 192  707.188
 193  649.7504
 194  608.341
 195  586.7798
 196  620.1377
 197  605.4274
 198  663.939
 199  576.3716
 200  547.8572
 201  634.0333
 202  552.3665
 203  585.6647
 204  598.766
 205  589.2129
 206  599.5361
 207  642.48
 208  674.4965
 209  686.1207
 210  552.3622
 211  576.1525
 212  682.7639
 213  613.9465
 214  537.368
 215  655.3389
 216  782.7212
 217  693.1773
 218  588.8658
 219  506.774
 220  550.5377
 221  676.3406
 222  718.5228
 223  647.4018
 224  530.3175
 225  491.0425
 226  508.6068
 227  541.6592
 228  638.8865
 229  565.6901
 230  515.0064
 231  495.5942
 232  551.2983
 233  607.0818
 234  541.465
 235  579.9749
 236  757.7407
 237  644.8933
 238  528.5439
 239  405.5698
 240  422.9566
 241  552.8185
 242  671.9573
 243  702.8898
 244  696.7061
 245  593.8336
 246  590.0311
 247  499.7661
 248  566.2958
 249  579.1902
 250  782.2562
 251  790.2167
 252  715.9625
 253  693.2538
 254  589.0911
 255  618.8135
 256  765.9033
 257  706.7433
 258  569.1406
 259  673.6514
 260  706.1973
 261  601.4323
 262  607.0295
 263  708.7037
 264  715.4244
 265  574.9783
 266  526.7151
 267  545.4998
 268  578.3363
 269  589.2373
 270  578.938
 271  614.9129
 272  643.7405
 273  587.6381
 274  599.7948
 275  620.6
 276  632.4533
 277  558.3932
 278  732.0819
 279  781.3611
 280  473.2126
 281  510.4319
 282  599.505
 283  557.6342
 284  509.4567
 285  529.6158
 286  624.6382
 287  612.7166
 288  697.3187
 289  745.7542
 290  686.9476
 291  642.7211
 292  691.3891
 293  581.0806
 294  555.9254
 295  494.3004
 296  498.7641
 297  601.9445
 298  595.7811
 299  669.2847
 300  651.7487
 301  638.5087
 302  679.6332
 303  595.0595
 304  564.7084
 305  661.5931
 306  616.4918
 307  592.984
 308  572.8687
 309  618.6818
 310  596.0554
 311  584.0037
 312  603.3603
 313  525.2433
 314  496.9247
 315  580.6616
 316  573
 317  675.0933
 318  630.22
 319  518.8898
 320  427.2866
 321  489.527
 322  547.7004
 323  550.7094
 324  508.8882
 325  489.3182
 326  595.5905
 327  613.8276
 328  553.8922
 329  613.419
 330  632.2577
 331  756.6474
 332  647.4006
 333  587.1779
 334  612.6149
 335  585.551
 336  488.2257
 337  613.4701
 338  611.3127
 339  736.3827
 340  662.8444
 341  500.0092
 342  595.7192
 343  673.7708
 344  673.4803
 345  693.4103
 346  630.8569
 347  519.2773
 348  570.9991
 349  668.7182
 350  663.457
 351  685.9212
 352  625.4065
 353  664.2007
 354  696.0641
 355  595.1423
 356  595.9716
 357  691.2435
 358  666.882
 359  601.1913
 360  563.8589
 361  567.2538
 362  636.6722
 363  603.78
 364  629.9835
 365  716.512
 366  723.4084
 367  680.5261
 368  585.8006
 369  529.8436
 370  685.5849
 371  711.4225
 372  675.5363
 373  650.5267
 374  616.967
 375  617.3152
 376  728.4152
 377  697.1185
 378  683.47
 379  625.8419
 380  491.377
 381  504.3552
 382  538.0213
 383  636.6873
 384  682.894
 385  553.4091
 386  601.7736
 387  503.1548
 388  503.5314
 389  571.653
 390  696.3373
 391  620.1802
 392  673.7165
 393  642.8115
 394  654.7355
 395  689.3653
 396  645.9586
 397  629.1643
 398  553.4574
 399  619.7114
 400  515.2816
 401  557.5505
 402  634.1124
 403  677.4772
 404  577.1653
 405  544.1161
 406  580.0976
 407  541.5032
 408  506.7057
 409  477.9436
 410  505.3985
 411  634.0009
 412  512.8258
 413  572.0126
 414  502.6241
 415  533.4683
 416  571.3167
 417  530.0229
 418  535.9058
 419  624.242
 420  597.1639
 421  590.106
 422  564.3921
 423  688.5801
 424  650.444
 425  629.9213
 426  651.5118
 427  613.4524
 428  656.9651
 429  615.6519
 430  500.0331
 431  583.4824
 432  573.4332
 433  570.4973
 434  620.2049
 435  744.6976
 436  703.7376
 437  570.1391
 438  553.0565
 439  458.6351
 440  543.8004
 441  636.6461
 442  633.2179
 443  576.9019
 444  583.3286
 445  638.6922
 446  567.7746
 447  565.7473
 448  486.9851
 449  624.8615
 450  639.6377
 451  630.8443
 452  562.6783
 453  663.0211
 454  662.1451
 455  632.1635
 456  621.4464
 457  778.4581
 458  765.3037
 459  674.0026
 460  659.9952
 461  678.9259
 462  650.315
 463  631.0942
 464  577.4985
 465  484.2185
 466  538.5546
 467  602.7675
 468  688.0251
 469  665.5782
 470  624.5045
 471  632.8423
 472  656.6907
 473  633.2389
 474  633.3333
 475  624.6105
 476  621.0413
 477  615.3074
 478  575.7371
 479  533.3396
 480  621.6794
 481  580.8787
 482  667.014
 483  609.9735
 484  630.272
 485  631.7178
 486  714.4312
 487  700.7827
 488  700.7629
 489  647.9785
 490  680.5735
 491  615.6475
 492  551.8989
 493  498.5067
 494  508.906
 495  609.3017
 496  560.9595
 497  570.0063
 498  593.7454
 499  661.7723
 500  587.1392
 501  442.2298
 502  505.6966
 503  597.7566
 504  713.8817
 505  809.2198
 506  658.5743
 507  661.2709
 508  820.9233
 509  804.665
 510  847.0385
 511  1002.185
