# Input file       =  1183712136.10114_cleaned.dat
# Candidate        =  PSR_0332+5434
# Telescope        =  AR
# Epoch_topo       =  57944.371737281712
# Epoch_bary       =  N/A
# T_sample         =  0.002
# Data Folded      =  7340032
# Data Avg         =  0.0506667868922418
# Data StdDev      =  1.00008887758323 
# Profile Bins     =  512
# Profile Avg      =  726.262714453226 
# Profile StdDev   =  119.743677959672 
# Reduced chi-sqr  =  1.194
# Prob(Noise)      <  0.00163   (~2.9 sigma)
# P_topo (ms)      =  714.4824413509    +/- 3.59e-05
# P'_topo (s/s)    =  -0                +/- 1.89e-11
# P''_topo (s/s^2) =  0                 +/- 8.36e-15
# P_bary (ms)      =  N/A
# P'_bary (s/s)    =  N/A
# P''_bary (s/s^2) =  N/A
# P_orb (s)        =  N/A
# asin(i)/c (s)    =  N/A
# eccentricity     =  N/A
# w (rad)          =  N/A
# T_peri           =  N/A
######################################################
   0  1237.503
   1  1143.128
   2  1038.273
   3  981.6912
   4  959.3549
   5  844.5806
   6  808.899
   7  753.2347
   8  799.0076
   9  787.7788
  10  696.6902
  11  750.5894
  12  744.8917
  13  739.4756
  14  826.2344
  15  688.5433
  16  632.5154
  17  710.3356
  18  701.1683
  19  609.0645
  20  644.9843
  21  535.827
  22  498.1237
  23  579.3544
  24  656.1777
  25  577.147
  26  513.0555
  27  701.1834
  28  739.4055
  29  647.3056
  30  545.8928
  31  671.0577
  32  776.9255
  33  833.3472
  34  789.2414
  35  643.6453
  36  602.9451
  37  611.0516
  38  739.4999
  39  713.934
  40  550.2692
  41  635.6851
  42  623.9627
  43  563.8865
  44  603.219
  45  641.0485
  46  729.452
  47  767.8522
  48  697.3065
  49  751.7967
  50  716.6378
  51  787.2061
  52  862.2433
  53  779.2026
  54  741.8708
  55  752.2502
  56  748.1953
  57  747.6198
  58  667.0889
  59  653.9671
  60  617.855
  61  640.2979
  62  720.5406
  63  654.1077
  64  619.5692
  65  632.6994
  66  716.1475
  67  693.1353
  68  710.8152
  69  705.2252
  70  782.9385
  71  683.2761
  72  656.8
  73  700.856
  74  575.7923
  75  660.598
  76  709.8452
  77  655.3823
  78  666.6809
  79  668.8434
  80  667.3889
  81  647.3042
  82  508.394
  83  598.4171
  84  683.2131
  85  679.7781
  86  618.412
  87  548.3107
  88  570.8806
  89  604.922
  90  661.4809
  91  632.4608
  92  528.7326
  93  560.3136
  94  630.4305
  95  534.0396
  96  610.5837
  97  653.9789
  98  684.4057
  99  688.3502
 100  724.6306
 101  697.3818
 102  721.5226
 103  812.321
 104  788.0314
 105  690.092
 106  643.5075
 107  744.2776
 108  807.1699
 109  703.3738
 110  638.3326
 111  559.4103
 112  693.2771
 113  739.6693
 114  733.0962
 115  664.8944
 116  633.8845
 117  693.4427
 118  682.8098
 119  691.7308
 120  660.9464
 121  685.1624
 122  700.5577
 123  753.5833
 124  703.6904
 125  620.2149
 126  694.4449
 127  781.5308
 128  867.1588
 129  780.6686
 130  783.6487
 131  593.4277
 132  690.967
 133  804.1653
 134  719.9219
 135  667.605
 136  754.5493
 137  830.7657
 138  736.9171
 139  600.2567
 140  610.5172
 141  628.2303
 142  723.8876
 143  816.4892
 144  747.0535
 145  645.4745
 146  698.4483
 147  747.1819
 148  790.6109
 149  704.9436
 150  710.744
 151  801.6635
 152  885.3959
 153  790.7122
 154  761.579
 155  790.1092
 156  748.5008
 157  810.1916
 158  745.8699
 159  711.538
 160  709.201
 161  648.8818
 162  634.3066
 163  740.8863
 164  649.1593
 165  680.9404
 166  747.2979
 167  677.6224
 168  626.7009
 169  589.3927
 170  640.9747
 171  642.1851
 172  611.4244
 173  627.7353
 174  637.524
 175  820.9551
 176  819.2756
 177  744.3176
 178  618.8706
 179  683.0868
 180  731.7542
 181  697.8322
 182  634.9404
 183  711.5474
 184  652.7354
 185  706.8245
 186  757.4445
 187  725.6854
 188  658.9963
 189  639.761
 190  736.9011
 191  731.2729
 192  662.6934
 193  708.2698
 194  703.9656
 195  619.1312
 196  765.9693
 197  726.1958
 198  695.333
 199  620.5957
 200  632.5518
 201  614.7633
 202  587.652
 203  610.4284
 204  754.6652
 205  770.2953
 206  772.4489
 207  671.8462
 208  665.6047
 209  750.9932
 210  786.1172
 211  784.2222
 212  732.9417
 213  768.3183
 214  839.503
 215  691.6229
 216  562.4307
 217  579.7234
 218  640.6121
 219  709.6007
 220  812.5261
 221  705.8729
 222  671.1885
 223  658.8621
 224  731.3696
 225  788.5757
 226  734.9969
 227  695.0485
 228  633.0696
 229  680.0162
 230  735.968
 231  706.0135
 232  681.8259
 233  734.5928
 234  701.0286
 235  651.1083
 236  608.0373
 237  712.446
 238  774.0266
 239  698.0753
 240  758.6973
 241  698.5429
 242  756.5931
 243  831.8453
 244  842.9899
 245  721.7092
 246  630.9365
 247  744.8095
 248  805.4771
 249  858.9248
 250  671.2056
 251  675.0606
 252  696.0616
 253  795.884
 254  721.4456
 255  695.291
 256  756.3282
 257  826.2696
 258  722.85
 259  774.4666
 260  826.9406
 261  885.1293
 262  876.2817
 263  841.588
 264  715.0125
 265  615.565
 266  685.8506
 267  823.6868
 268  668.632
 269  494.3944
 270  551.5848
 271  625.2615
 272  703.8942
 273  674.9327
 274  703.0089
 275  666.7579
 276  685.8543
 277  726.5747
 278  660.8552
 279  518.2402
 280  675.5836
 281  774.9354
 282  880.4736
 283  783.2489
 284  667.5294
 285  719.6532
 286  698.1407
 287  655.8118
 288  509.6162
 289  601.2764
 290  710.0945
 291  872.8995
 292  857.9934
 293  764.4257
 294  730.7482
 295  763.8849
 296  751.5103
 297  732.2574
 298  691.5859
 299  684.6628
 300  663.6144
 301  797.6046
 302  828.1503
 303  717.0912
 304  676.3339
 305  857.9872
 306  945.2833
 307  706.6907
 308  701.935
 309  784.0961
 310  845.0328
 311  783.8352
 312  726.894
 313  778.177
 314  795.3643
 315  852.3754
 316  810.5137
 317  732.0603
 318  714.4341
 319  731.9984
 320  827.485
 321  822.1235
 322  698.486
 323  711.5948
 324  761.6176
 325  737.8257
 326  722.4628
 327  660.2969
 328  690.3716
 329  733.4175
 330  838.9898
 331  815.411
 332  683.5692
 333  704.4449
 334  781.3528
 335  791.8673
 336  692.1678
 337  670.8699
 338  812.4446
 339  845.2109
 340  757.2941
 341  672.3994
 342  687.9165
 343  755.478
 344  762.3582
 345  716.7559
 346  565.2452
 347  698.7775
 348  840.3783
 349  800.7239
 350  638.5085
 351  688.3276
 352  764.6505
 353  839.8086
 354  721.3887
 355  656.6146
 356  619.0242
 357  648.1773
 358  890.6584
 359  854.0728
 360  668.7294
 361  619.7371
 362  733.6035
 363  815.39
 364  785.8941
 365  825.6144
 366  753.8797
 367  785.0015
 368  773.0328
 369  743.1085
 370  746.0588
 371  778.9039
 372  730.4562
 373  632.3259
 374  671.7675
 375  649.6885
 376  684.2184
 377  674.0551
 378  596.6923
 379  628.3643
 380  552.7746
 381  627.0975
 382  726.3179
 383  700.625
 384  653.9224
 385  659.9545
 386  789.6842
 387  816.5701
 388  806.5789
 389  794.8501
 390  756.4755
 391  796.6935
 392  781.5837
 393  741.3856
 394  722.4158
 395  683.2678
 396  693.6848
 397  754.6541
 398  775.1761
 399  727.8275
 400  786.4642
 401  863.9561
 402  776.4869
 403  766.199
 404  670.5367
 405  760.3154
 406  891.6079
 407  743.6744
 408  689.0037
 409  717.0991
 410  769.857
 411  790.8102
 412  758.4208
 413  765.905
 414  767.6134
 415  781.711
 416  804.0724
 417  677.2489
 418  705.4052
 419  669.8954
 420  744.4864
 421  823.5435
 422  743.9766
 423  742.1311
 424  886.0647
 425  870.2516
 426  836.1767
 427  810.95
 428  817.3926
 429  751.9998
 430  697.6022
 431  675.8861
 432  644.5255
 433  721.6719
 434  789.024
 435  694.2723
 436  689.689
 437  740.9367
 438  790.5193
 439  825.7695
 440  749.0092
 441  766.5123
 442  770.8695
 443  765.2257
 444  702.827
 445  745.9347
 446  702.1675
 447  662.498
 448  807.6766
 449  852.5897
 450  703.9902
 451  594.5259
 452  587.8587
 453  670.1588
 454  720.8747
 455  742.0818
 456  626.579
 457  696.2722
 458  735.1917
 459  658.3066
 460  671.798
 461  631.2575
 462  673.1311
 463  842.7853
 464  783.506
 465  770.1616
 466  729.1874
 467  734.5243
 468  758.9473
 469  766.2895
 470  704.2237
 471  687.0925
 472  698.3615
 473  767.6117
 474  783.0622
 475  684.9669
 476  719.0682
 477  762.5715
 478  755.3909
 479  792.798
 480  801.5857
 481  740.5742
 482  880.1858
 483  811.255
 484  849.0443
 485  736.0152
 486  712.0558
 487  851.1636
 488  798.7317
 489  805.273
 490  870.8256
 491  831.6427
 492  915.3013
 493  882.5577
 494  705.3322
 495  669.4684
 496  726.3695
 497  818.106
 498  794.6157
 499  765.0138
 500  753.2842
 501  800.7413
 502  782.9221
 503  651.1765
 504  708.2426
 505  857.5042
 506  979.4605
 507  923.3922
 508  961.303
 509  1054.603
 510  1205.388
 511  1303.688
