# Input file       =  1183697231.101892_cleaned.dat
# Candidate        =  PSR_0332+5434
# Telescope        =  AR
# Epoch_topo       =  57944.199225716344
# Epoch_bary       =  N/A
# T_sample         =  0.002
# Data Folded      =  7340032
# Data Avg         =  0.0486727294292567
# Data StdDev      =  1.00012226632278 
# Profile Bins     =  512
# Profile Avg      =  697.230426208029 
# Profile StdDev   =  119.747675694839 
# Reduced chi-sqr  =  1.336
# Prob(Noise)      <  5.05e-07   (~4.9 sigma)
# P_topo (ms)      =  714.482232617127  +/- 0.000606
# P'_topo (s/s)    =  -0                +/- 3.2e-10
# P''_topo (s/s^2) =  0                 +/- 1.41e-13
# P_bary (ms)      =  N/A
# P'_bary (s/s)    =  N/A
# P''_bary (s/s^2) =  N/A
# P_orb (s)        =  N/A
# asin(i)/c (s)    =  N/A
# eccentricity     =  N/A
# w (rad)          =  N/A
# T_peri           =  N/A
######################################################
   0  654.6033
   1  714.5714
   2  635.1198
   3  568.4811
   4  572.8882
   5  672.1364
   6  686.4626
   7  686.3925
   8  747.2928
   9  621.0969
  10  594.8162
  11  746.0605
  12  736.7025
  13  606.1979
  14  619.2745
  15  655.7782
  16  679.9793
  17  710.5013
  18  648.8698
  19  642.0288
  20  677.1219
  21  711.5359
  22  693.8391
  23  602.6072
  24  591.3544
  25  702.4382
  26  576.8013
  27  735.7157
  28  764.1153
  29  687.4825
  30  601.0663
  31  686.4542
  32  671.9174
  33  681.8785
  34  681.6292
  35  691.9416
  36  704.8171
  37  748.5748
  38  798.5786
  39  764.9344
  40  718.7458
  41  717.873
  42  783.6053
  43  799.1344
  44  810.4122
  45  869.8126
  46  857.357
  47  759.4649
  48  688.6676
  49  723.1581
  50  658.8828
  51  688.1119
  52  719.1584
  53  759.1519
  54  710.4554
  55  705.7285
  56  822.5781
  57  807.4084
  58  789.9776
  59  741.3813
  60  744.631
  61  776.1982
  62  728.8112
  63  601.2098
  64  602.491
  65  603.545
  66  606.9125
  67  612.3977
  68  710.8632
  69  602.6339
  70  621.0012
  71  635.3738
  72  630.1918
  73  745.4583
  74  686.8894
  75  635.1652
  76  596.7053
  77  525.2023
  78  653.6783
  79  694.4299
  80  730.5177
  81  701.2384
  82  633.4452
  83  707.1789
  84  746.2253
  85  640.3896
  86  616.9813
  87  621.0723
  88  646.6456
  89  675.1354
  90  625.5905
  91  609.5097
  92  692.6833
  93  726.5991
  94  601.1761
  95  641.9926
  96  612.4017
  97  655.9443
  98  692.6404
  99  680.1119
 100  695.3011
 101  717.0633
 102  743.8165
 103  749.71
 104  707.4437
 105  661.1816
 106  672.7651
 107  607.729
 108  663.5949
 109  663.4617
 110  631.3881
 111  668.1329
 112  669.8351
 113  710.7106
 114  753.4296
 115  826.5346
 116  708.3229
 117  718.129
 118  872.8599
 119  840.3126
 120  710.1671
 121  688.4977
 122  689.5411
 123  722.4256
 124  711.9455
 125  750.8037
 126  625.8143
 127  675.4006
 128  751.3953
 129  707.6161
 130  504.731
 131  464.1541
 132  592.5043
 133  722.553
 134  634.3528
 135  655.7263
 136  641.0302
 137  578.9468
 138  724.2104
 139  699.0041
 140  678.1343
 141  685.7512
 142  672.1653
 143  703.6882
 144  697.4647
 145  592.1185
 146  602.3715
 147  723.3035
 148  733.9751
 149  684.7974
 150  668.6918
 151  585.6807
 152  551.1621
 153  549.6751
 154  637.2725
 155  651.917
 156  681.2729
 157  691.6169
 158  632.2763
 159  677.7651
 160  645.1353
 161  653.1471
 162  711.4216
 163  731.5118
 164  667.6993
 165  656.4927
 166  654.3764
 167  488.2021
 168  535.5122
 169  669.806
 170  711.9401
 171  575.2994
 172  592.0792
 173  684.4584
 174  658.7831
 175  598.3871
 176  668.89
 177  695.0488
 178  645.0834
 179  699.4832
 180  724.3076
 181  717.9542
 182  623.0424
 183  566.5518
 184  575.7352
 185  631.2116
 186  656.0069
 187  712.7159
 188  684.1007
 189  692.8223
 190  682.4293
 191  741.7971
 192  729.1104
 193  586.2056
 194  564.0568
 195  581.8243
 196  646.9097
 197  712.3069
 198  720.2344
 199  638.3757
 200  605.5842
 201  634.086
 202  570.8772
 203  538.7065
 204  531.6674
 205  644.6296
 206  638.6127
 207  472.7667
 208  534.2098
 209  583.9457
 210  715.3527
 211  628.4412
 212  606.1305
 213  630.1816
 214  623.1198
 215  651.1796
 216  639.6263
 217  551.488
 218  497.385
 219  502.453
 220  628.3032
 221  681.7095
 222  637.6453
 223  669.3011
 224  641.8097
 225  575.664
 226  581.2455
 227  581.641
 228  614.0368
 229  694.3023
 230  680.3721
 231  684.1271
 232  735.9539
 233  682.9894
 234  650.6857
 235  660.6404
 236  660.3109
 237  567.596
 238  580.0121
 239  632.1818
 240  616.0976
 241  551.6121
 242  683.0787
 243  746.0211
 244  656.8118
 245  582.3836
 246  731.6737
 247  586.9205
 248  631.9126
 249  675.8221
 250  719.4292
 251  727.5795
 252  669.489
 253  739.9252
 254  733.5877
 255  661.8228
 256  668.7266
 257  719.9255
 258  760.0492
 259  653.8667
 260  611.8285
 261  626.2339
 262  545.7636
 263  588.1049
 264  715.4141
 265  779.9767
 266  722.5759
 267  685.0781
 268  721.4967
 269  766.3369
 270  783.2825
 271  661.3039
 272  652.764
 273  741.4928
 274  685.2097
 275  677.2753
 276  760.8613
 277  724.2374
 278  803.7321
 279  827.0668
 280  639.0468
 281  677.2782
 282  786.9828
 283  734.6682
 284  727.0975
 285  657.044
 286  701.4003
 287  765.5291
 288  724.2839
 289  633.7376
 290  593.6049
 291  686.486
 292  687.6769
 293  575.197
 294  647.015
 295  656.8679
 296  683.3808
 297  699.8662
 298  759.2971
 299  677.78
 300  776.3398
 301  805.5551
 302  745.2144
 303  638.9683
 304  700.0177
 305  720.2765
 306  668.187
 307  710.7419
 308  801.9568
 309  663.4794
 310  623.5377
 311  535.6091
 312  693.6069
 313  635.5569
 314  609.6456
 315  676.6055
 316  648.0249
 317  661.7193
 318  719.9647
 319  655.5095
 320  665.6515
 321  661.1271
 322  696.3723
 323  696.8245
 324  683.4218
 325  572.5566
 326  547.9676
 327  446.8609
 328  548.6602
 329  582.1061
 330  574.7332
 331  685.986
 332  611.1802
 333  552.1725
 334  562.7442
 335  582.2446
 336  612.2431
 337  524.4836
 338  606.3831
 339  672.7834
 340  589.7451
 341  599.9506
 342  667.4263
 343  677.4123
 344  617.2872
 345  647.4589
 346  643.9525
 347  638.5486
 348  560.8518
 349  696.2563
 350  720.6985
 351  690.7567
 352  674.4529
 353  625.0951
 354  604.7819
 355  731.21
 356  674.6666
 357  724.2558
 358  727.1515
 359  604.2728
 360  607.0352
 361  727.6075
 362  657.8652
 363  663.3495
 364  725.5312
 365  786.8563
 366  764.4484
 367  606.8281
 368  655.2404
 369  737.9291
 370  723.0364
 371  684.7174
 372  795.4985
 373  777.7784
 374  784.2145
 375  791.9472
 376  700.0078
 377  694.8893
 378  713.5949
 379  797.0095
 380  682.4187
 381  788.7936
 382  770.3676
 383  690.678
 384  660.6022
 385  697.692
 386  749.3698
 387  739.7295
 388  834.7694
 389  859.3552
 390  736.2756
 391  705.7325
 392  639.1287
 393  750.0777
 394  930.2337
 395  846.8378
 396  874.6443
 397  899.2019
 398  836.7021
 399  837.7426
 400  822.8284
 401  843.1714
 402  861.2933
 403  784.8187
 404  795.1106
 405  818.5023
 406  847.3085
 407  846.1238
 408  796.98
 409  652.1938
 410  770.2795
 411  829.7856
 412  782.2913
 413  737.0069
 414  815.2003
 415  731.9504
 416  812.2042
 417  803.0447
 418  823.6238
 419  919.0889
 420  899.8559
 421  804.2141
 422  727.0643
 423  700.2612
 424  718.2008
 425  813.3204
 426  783.9164
 427  673.3851
 428  647.4787
 429  670.5317
 430  667.902
 431  728.6348
 432  746.5029
 433  702.9774
 434  701.7299
 435  658.9432
 436  710.9804
 437  724.6194
 438  765.1512
 439  792.7786
 440  776.823
 441  805.5094
 442  782.1902
 443  735.7534
 444  621.4527
 445  678.1237
 446  761.2068
 447  677.3354
 448  726.083
 449  638.0243
 450  528.8873
 451  634.2507
 452  772.3132
 453  795.3021
 454  729.5041
 455  616.2955
 456  620.5862
 457  725.3367
 458  715.9341
 459  740.6749
 460  801.9388
 461  821.9828
 462  854.6531
 463  783.973
 464  736.2413
 465  711.121
 466  764.3253
 467  688.4559
 468  784.0408
 469  814.7615
 470  772.5386
 471  718.8412
 472  678.5258
 473  745.5467
 474  835.0488
 475  842.3538
 476  852.7454
 477  840.9222
 478  848.3016
 479  838.5295
 480  848.907
 481  792.9363
 482  752.5808
 483  784.4212
 484  878.1436
 485  978.6304
 486  1135.151
 487  1293.344
 488  1350.919
 489  1302.495
 490  1222.038
 491  1043.726
 492  861.0097
 493  744.9287
 494  720.288
 495  800.7163
 496  816.4644
 497  732.8647
 498  748.412
 499  718.8535
 500  682.7858
 501  672.4759
 502  743.925
 503  728.5948
 504  798.2133
 505  769.2461
 506  643.4979
 507  553.9221
 508  638.8588
 509  645.442
 510  606.2951
 511  512.743
