# Input file       =  1183525578.105013_cleaned.dat
# Candidate        =  PSR_0332+5434
# Telescope        =  AR
# Epoch_topo       =  57942.212501215428
# Epoch_bary       =  N/A
# T_sample         =  0.002
# Data Folded      =  7340032
# Data Avg         =  0.0578101713653471
# Data StdDev      =  1.00005045521363 
# Profile Bins     =  512
# Profile Avg      =  828.864982289113 
# Profile StdDev   =  119.739077532695 
# Reduced chi-sqr  =  1.059
# Prob(Noise)      <  0.172   (~0.9 sigma)
# P_topo (ms)      =  714.48368068493   +/- 0.000364
# P'_topo (s/s)    =  -0                +/- 1.92e-10
# P''_topo (s/s^2) =  0                 +/- 8.48e-14
# P_bary (ms)      =  N/A
# P'_bary (s/s)    =  N/A
# P''_bary (s/s^2) =  N/A
# P_orb (s)        =  N/A
# asin(i)/c (s)    =  N/A
# eccentricity     =  N/A
# w (rad)          =  N/A
# T_peri           =  N/A
######################################################
   0  1445.497
   1  1347.217
   2  1165.799
   3  1042.289
   4  991.1788
   5  968.53
   6  901.0645
   7  883.496
   8  797.6183
   9  824.8914
  10  816.7612
  11  891.088
  12  867.8179
  13  930.3663
  14  903.9259
  15  834.509
  16  763.4276
  17  660.6681
  18  800.6299
  19  783.2583
  20  811.9126
  21  801.5103
  22  712.5315
  23  723.2773
  24  755.568
  25  691.2194
  26  705.0357
  27  714.3877
  28  685.5214
  29  681.9456
  30  801.0352
  31  788.5571
  32  785.3979
  33  788.2838
  34  761.1609
  35  813.4145
  36  765.3176
  37  840.3699
  38  764.1824
  39  765.1484
  40  827.8577
  41  817.3328
  42  802.3358
  43  805.6184
  44  778.8602
  45  824.3339
  46  783.6062
  47  747.2829
  48  737.3589
  49  790.275
  50  750.774
  51  799.9786
  52  802.5686
  53  807.0944
  54  785.5469
  55  782.8613
  56  862.9568
  57  818.5786
  58  747.4211
  59  743.6819
  60  743.2984
  61  677.0938
  62  789.3458
  63  764.0098
  64  674.9913
  65  709.1566
  66  798.2261
  67  815.4377
  68  773.4134
  69  795.2549
  70  853.0773
  71  893.1083
  72  919.9559
  73  866.2726
  74  751.161
  75  851.3358
  76  778.7011
  77  740.2458
  78  823.4698
  79  876.811
  80  712.6882
  81  738.3917
  82  846.9394
  83  833.7762
  84  758.5302
  85  869.4236
  86  865.7111
  87  933.9651
  88  850.8044
  89  785.6075
  90  646.3249
  91  734.3535
  92  797.1541
  93  809.116
  94  927.6891
  95  945.1889
  96  928.9427
  97  805.046
  98  731.9653
  99  732.6515
 100  791.7601
 101  773.9116
 102  778.3555
 103  801.6783
 104  740.0092
 105  802.8851
 106  759.2979
 107  792.8943
 108  833.8669
 109  816.6128
 110  731.0689
 111  718.8522
 112  786.098
 113  845.1735
 114  810.6316
 115  826.4854
 116  801.6475
 117  644.1608
 118  735.6922
 119  662.1327
 120  646.0216
 121  735.6368
 122  766.4694
 123  731.0898
 124  837.0377
 125  948.8932
 126  934.4229
 127  863.9525
 128  791.213
 129  922.9723
 130  837.9861
 131  767.1782
 132  777.4723
 133  878.4271
 134  914.3431
 135  910.0378
 136  888.6111
 137  906.4075
 138  907.4249
 139  752.4518
 140  698.6162
 141  782.3447
 142  828.2829
 143  875.5918
 144  775.8981
 145  808.339
 146  852.1344
 147  803.7155
 148  782.8687
 149  791.0504
 150  726.3976
 151  718.8699
 152  758.7603
 153  849.4765
 154  842.6629
 155  792.1373
 156  766.7478
 157  849.9977
 158  790.9352
 159  798.5619
 160  817.1625
 161  817.2919
 162  800.3905
 163  887.6982
 164  803.5212
 165  836.0386
 166  843.9026
 167  789.0302
 168  739.3214
 169  790.6403
 170  790.6566
 171  855.8918
 172  908.5873
 173  851.6898
 174  799.1552
 175  859.2203
 176  875.562
 177  899.5131
 178  917.457
 179  891.3926
 180  974.993
 181  1007.252
 182  945.2839
 183  936.761
 184  921.8655
 185  884.0739
 186  940.3474
 187  975.2536
 188  911.8012
 189  914.5693
 190  864.3152
 191  847.7599
 192  789.0657
 193  881.4335
 194  903.4315
 195  832.915
 196  849.4802
 197  858.2588
 198  779.5535
 199  811.1453
 200  805.8553
 201  909.715
 202  854.2266
 203  823.3594
 204  804.4081
 205  826.6221
 206  803.816
 207  806.4544
 208  783.2009
 209  721.3585
 210  831.7171
 211  834.4213
 212  846.3395
 213  821.4174
 214  874.2946
 215  914.5244
 216  774.4601
 217  789.5238
 218  823.256
 219  852.0372
 220  805.1944
 221  749.6583
 222  821.5825
 223  751.9033
 224  708.6392
 225  659.0898
 226  669.4847
 227  689.1905
 228  811.3011
 229  812.4009
 230  696.3672
 231  797.9459
 232  800.4059
 233  878.964
 234  879.4662
 235  936.7053
 236  849.3421
 237  846.451
 238  847.6949
 239  834.4522
 240  807.5013
 241  808.2825
 242  941.8782
 243  817.0123
 244  853.1479
 245  877.3853
 246  775.3082
 247  755.1058
 248  739.1071
 249  714.9425
 250  815.0601
 251  848.0875
 252  819.0383
 253  758.4176
 254  711.3193
 255  779.0941
 256  705.7563
 257  725.9148
 258  832.8987
 259  805.4341
 260  756.5756
 261  806.6696
 262  788.7889
 263  675.5992
 264  760.6059
 265  858.0084
 266  763.0926
 267  809.2024
 268  869.1992
 269  950.6752
 270  870.2208
 271  892.665
 272  880.7711
 273  846.4363
 274  830.4921
 275  785.5704
 276  793.3812
 277  803.7136
 278  742.6147
 279  793.2342
 280  877.6754
 281  848.0078
 282  809.0905
 283  780.1962
 284  780.5589
 285  814.476
 286  923.3219
 287  943.5984
 288  853.7907
 289  854.7863
 290  833.9992
 291  819.4211
 292  711.7122
 293  784.5421
 294  891.0356
 295  888.8561
 296  889.655
 297  893.2805
 298  862.2764
 299  923.1061
 300  953.8744
 301  906.5605
 302  875.4732
 303  841.2415
 304  797.933
 305  812.3725
 306  829.8559
 307  790.0861
 308  773.1659
 309  685.05
 310  670.0192
 311  832.8924
 312  723.2972
 313  877.8762
 314  913.6334
 315  886.5596
 316  830.7184
 317  876.9631
 318  936.7763
 319  861.3933
 320  886.5795
 321  915.7444
 322  835.7518
 323  853.8698
 324  859.6738
 325  853.5005
 326  898.8483
 327  943.5511
 328  931.6486
 329  1001.583
 330  949.5062
 331  820.3321
 332  807.5447
 333  850.9537
 334  879.2554
 335  888.3854
 336  856.4495
 337  835.6158
 338  929.6011
 339  965.6645
 340  952.7613
 341  917.7533
 342  851.5936
 343  874.6289
 344  882.3264
 345  909.7917
 346  868.4714
 347  924.3088
 348  872.8093
 349  876.9915
 350  845.6911
 351  774.1497
 352  759.2705
 353  707.0371
 354  775.2931
 355  804.7796
 356  761.7418
 357  731.2262
 358  760.8278
 359  897.2819
 360  898.9946
 361  794.5253
 362  716.6984
 363  731.1515
 364  747.6895
 365  886.971
 366  967.8961
 367  852.8165
 368  874.1196
 369  875.4451
 370  794.6605
 371  773.2568
 372  775.0133
 373  838.0756
 374  762.9791
 375  862.1933
 376  799.0701
 377  745.2787
 378  699.2935
 379  735.1855
 380  738.5282
 381  723.6278
 382  666.9107
 383  750.9354
 384  760.6194
 385  768.5296
 386  807.4663
 387  883.3964
 388  837.2894
 389  857.166
 390  937.36
 391  919.8462
 392  817.9017
 393  772.291
 394  782.6241
 395  769.2918
 396  687.9132
 397  744.8447
 398  791.384
 399  924.7946
 400  953.6343
 401  880.4003
 402  731.8572
 403  716.5685
 404  773.2944
 405  908.4007
 406  859.0542
 407  813.9464
 408  850.8068
 409  865.8293
 410  873.283
 411  918.8198
 412  934.4801
 413  889.9738
 414  813.3794
 415  767.7402
 416  821.3181
 417  783.9088
 418  793.1373
 419  772.5929
 420  792.313
 421  842.7331
 422  891.5098
 423  863.0887
 424  796.0746
 425  715.8603
 426  685.5965
 427  788.3231
 428  788.7634
 429  826.8699
 430  875.4296
 431  813.1024
 432  757.3787
 433  783.182
 434  846.6321
 435  831.8352
 436  805.6499
 437  782.8138
 438  859.28
 439  881.9163
 440  831.8579
 441  837.3702
 442  892.2717
 443  909.6796
 444  884.1946
 445  863.9942
 446  886.2185
 447  859.5526
 448  840.7594
 449  809.1766
 450  838.6881
 451  852.5616
 452  888.1516
 453  784.4233
 454  838.5322
 455  857.6354
 456  890.0443
 457  801.6288
 458  769.8593
 459  849.3104
 460  827.9615
 461  901.706
 462  823.0839
 463  802.7188
 464  793.7062
 465  694.8824
 466  683.5164
 467  783.9691
 468  872.416
 469  858.6685
 470  820.5305
 471  697.439
 472  750.9941
 473  773.6339
 474  774.1718
 475  873.673
 476  869.9544
 477  766.2084
 478  747.9476
 479  783.8242
 480  748.6853
 481  824.2808
 482  923.3242
 483  942.7324
 484  896.0599
 485  871.0433
 486  882.6105
 487  818.5234
 488  811.7261
 489  824.9828
 490  859.8171
 491  927.0546
 492  963.9293
 493  934.754
 494  838.4545
 495  880.5462
 496  907.2813
 497  857.8957
 498  798.6438
 499  828.5406
 500  811.643
 501  879.437
 502  826.0881
 503  784.0397
 504  902.0629
 505  950.6769
 506  1002.187
 507  1002.002
 508  939.1993
 509  1102.32
 510  1370.16
 511  1459.956
