# Input file       =  1184746163.112572_cleaned.dat
# Candidate        =  PSR_0332+5434
# Telescope        =  AR
# Epoch_topo       =  57956.339642506617
# Epoch_bary       =  N/A
# T_sample         =  0.002
# Data Folded      =  7340032
# Data Avg         =  0.0357114303785759
# Data StdDev      =  1.00018474283135 
# Profile Bins     =  512
# Profile Avg      =  511.997062745492 
# Profile StdDev   =  119.755156196913 
# Reduced chi-sqr  =  1.382
# Prob(Noise)      <  2.06e-08   (~5.5 sigma)
# P_topo (ms)      =  714.474691173118  +/- 0.000313
# P'_topo (s/s)    =  -0                +/- 1.65e-10
# P''_topo (s/s^2) =  0                 +/- 7.29e-14
# P_bary (ms)      =  N/A
# P'_bary (s/s)    =  N/A
# P''_bary (s/s^2) =  N/A
# P_orb (s)        =  N/A
# asin(i)/c (s)    =  N/A
# eccentricity     =  N/A
# w (rad)          =  N/A
# T_peri           =  N/A
######################################################
   0  490.5397
   1  609.5729
   2  637.2275
   3  539.874
   4  571.1407
   5  530.716
   6  390.4787
   7  537.6854
   8  475.8924
   9  491.3144
  10  444.7007
  11  441.8747
  12  591.6142
  13  494.4154
  14  452.8281
  15  479.3332
  16  450.4974
  17  603.7027
  18  515.4913
  19  481.3849
  20  460.7716
  21  485.5082
  22  504.5356
  23  462.9024
  24  331.5168
  25  456.6913
  26  499.3933
  27  515.5775
  28  493.6104
  29  434.8228
  30  492.685
  31  471.2281
  32  396.7528
  33  396.6918
  34  531.4404
  35  546.2899
  36  478.0992
  37  559.3918
  38  556.9892
  39  547.6025
  40  495.4134
  41  573.673
  42  576.1484
  43  455.2344
  44  530.9813
  45  492.2333
  46  498.6765
  47  543.0023
  48  535.8688
  49  565.9078
  50  547.5187
  51  572.3037
  52  484.222
  53  437.3381
  54  420.5984
  55  434.192
  56  465.7982
  57  455.4127
  58  484.4049
  59  479.7617
  60  459.6414
  61  506.9776
  62  429.7968
  63  516.6154
  64  535.0474
  65  492.8065
  66  482.5298
  67  432.4268
  68  406.0733
  69  472.5998
  70  537.3875
  71  510.4314
  72  456.5165
  73  421.2547
  74  368.3517
  75  385.0059
  76  310.1846
  77  339.6939
  78  424.1905
  79  396.405
  80  362.1147
  81  325.5374
  82  415.2442
  83  569.6348
  84  402.0157
  85  370.6477
  86  391.4378
  87  347.2484
  88  376.5723
  89  453.7765
  90  480.3681
  91  523.06
  92  436.4996
  93  399.6273
  94  351.7307
  95  467.207
  96  433.5316
  97  383.2462
  98  465.4012
  99  476.1978
 100  504.0971
 101  449.0178
 102  500.7328
 103  454.9471
 104  367.4196
 105  321.3318
 106  364.6813
 107  487.9495
 108  487.2966
 109  499.5669
 110  513.0069
 111  588.035
 112  520.0379
 113  541.8422
 114  436.1922
 115  464.6248
 116  505.6529
 117  546.7474
 118  485.7068
 119  478.6845
 120  460.461
 121  472.3047
 122  467.3513
 123  467.687
 124  482.6586
 125  567.7455
 126  430.7291
 127  363.6715
 128  429.1416
 129  512.2122
 130  545.7711
 131  537.5415
 132  368.6996
 133  286.6235
 134  467.2514
 135  568.0559
 136  357.396
 137  429.7449
 138  527.6526
 139  510.9146
 140  553.967
 141  489.8179
 142  518.1806
 143  423.7987
 144  505.3351
 145  478.6993
 146  544.9623
 147  729.6934
 148  966.5651
 149  1107.388
 150  1186.378
 151  1185.527
 152  1018.375
 153  763.4987
 154  610.0236
 155  456.2185
 156  440.3968
 157  480.9019
 158  576.0219
 159  533.4033
 160  540.7499
 161  601.2047
 162  649.3876
 163  654.8088
 164  548.2808
 165  489.0529
 166  622.0162
 167  672.5109
 168  573.3339
 169  565.0469
 170  572.4826
 171  560.5214
 172  461.5977
 173  453.294
 174  636.0591
 175  611.2286
 176  701.4891
 177  696.5464
 178  696.678
 179  644.5848
 180  646.0179
 181  587.1911
 182  618.9373
 183  618.7949
 184  561.8623
 185  470.8494
 186  575.1185
 187  603.2383
 188  620.7297
 189  451.9498
 190  545.6013
 191  422.0294
 192  436.8981
 193  426.8606
 194  375.1958
 195  362.6464
 196  365.5302
 197  422.5759
 198  563.7658
 199  509.9333
 200  486.1532
 201  712.9043
 202  609.3575
 203  525.3758
 204  513.0319
 205  571.5552
 206  710.7875
 207  603.4756
 208  659.2053
 209  604.4512
 210  535.9935
 211  556.6262
 212  530.4932
 213  534.4692
 214  557.3521
 215  539.9265
 216  529.7732
 217  560.5264
 218  566.0468
 219  583.9152
 220  570.3956
 221  556.752
 222  580.5292
 223  597.5047
 224  623.3254
 225  584.058
 226  531.199
 227  498.2113
 228  461.8239
 229  646.5394
 230  737.2063
 231  595.0883
 232  581.024
 233  641.0614
 234  691.2528
 235  518.4058
 236  468.1676
 237  569.5167
 238  627.2507
 239  599.7736
 240  608.9169
 241  548.4175
 242  506.5725
 243  598.1015
 244  678.6769
 245  627.7325
 246  541.5342
 247  579.1705
 248  497.4749
 249  496.2061
 250  620.0901
 251  703.9973
 252  721.0345
 253  535.0997
 254  545.6639
 255  687.6486
 256  729.3382
 257  623.9094
 258  538.0629
 259  600.0414
 260  591.0253
 261  538.4938
 262  533.1772
 263  515.2673
 264  496.9211
 265  518.7208
 266  512.6031
 267  491.6629
 268  441.3235
 269  488.0996
 270  536.3783
 271  465.0964
 272  497.7098
 273  571.2084
 274  486.4911
 275  424.5535
 276  510.7307
 277  459.3429
 278  382.0582
 279  430.3265
 280  517.0219
 281  477.1975
 282  544.6195
 283  597.067
 284  600.496
 285  459.8467
 286  495.1208
 287  527.3469
 288  514.6418
 289  439.7203
 290  360.3214
 291  432.8457
 292  543.1138
 293  481.3459
 294  449.2156
 295  412.045
 296  416.9947
 297  481.8908
 298  497.9429
 299  450.4847
 300  329.7486
 301  341.9441
 302  360.0512
 303  354.8391
 304  524.3173
 305  480.577
 306  415.7894
 307  476.3575
 308  394.5668
 309  524.6276
 310  564.268
 311  575.9589
 312  390.0863
 313  475.5497
 314  490.6576
 315  387.5143
 316  444.0612
 317  430.4326
 318  429.9633
 319  377.7153
 320  474.985
 321  487.431
 322  375.2878
 323  509.0998
 324  507.9353
 325  455.5464
 326  495.3675
 327  501.9405
 328  481.685
 329  457.8753
 330  482.6167
 331  484.5291
 332  489.0786
 333  495.168
 334  570.1565
 335  486.4297
 336  481.5474
 337  424.3755
 338  479.3375
 339  457.462
 340  447.5266
 341  461.572
 342  531.0593
 343  578.8669
 344  516.391
 345  404.7562
 346  511.5356
 347  539.7188
 348  513.629
 349  361.0454
 350  382.5079
 351  428.9483
 352  548.4628
 353  526.2531
 354  415.0324
 355  322.5606
 356  254.2267
 357  450.3686
 358  445.2662
 359  428.0052
 360  432.9901
 361  408.7981
 362  472.9909
 363  486.382
 364  384.9069
 365  494.8863
 366  535.8814
 367  421.7562
 368  455.2621
 369  455.0735
 370  489.8616
 371  578.7172
 372  499.2332
 373  429.1357
 374  375.4237
 375  572.4538
 376  495.9518
 377  407.4741
 378  417.6054
 379  489.8041
 380  484.6602
 381  430.4205
 382  436.8514
 383  511.386
 384  534.8354
 385  401.6782
 386  386.2332
 387  521.8122
 388  531.6169
 389  516.5407
 390  540.4175
 391  566.336
 392  538.5715
 393  469.1418
 394  447.661
 395  517.7972
 396  586.5871
 397  618.4485
 398  550.9049
 399  684.2788
 400  613.1747
 401  544.0189
 402  517.6524
 403  550.79
 404  506.9137
 405  533.8882
 406  493.5893
 407  448.0253
 408  470.5822
 409  468.9759
 410  414.426
 411  449.1439
 412  394.1646
 413  466.0664
 414  511.5173
 415  477.9786
 416  430.9258
 417  541.8311
 418  547.0415
 419  409.8007
 420  385.9398
 421  367.5981
 422  462.2234
 423  489.2481
 424  627.7908
 425  464.7503
 426  469.3759
 427  437.3469
 428  394.2577
 429  471.5713
 430  495.5277
 431  457.6259
 432  480.4631
 433  550.2704
 434  429.979
 435  397.434
 436  462.4363
 437  445.0752
 438  539.4661
 439  544.5828
 440  430.0655
 441  447.2183
 442  399.5526
 443  410.5143
 444  426.8142
 445  496.4522
 446  576.0247
 447  498.0322
 448  522.2447
 449  641.4382
 450  417.0858
 451  433.9647
 452  434.4109
 453  543.8376
 454  442.3513
 455  446.0798
 456  439.9557
 457  477.3096
 458  505.5033
 459  543.3766
 460  519.1346
 461  560.9098
 462  536.7582
 463  618.7595
 464  544.1928
 465  467.2378
 466  509.5044
 467  626.6428
 468  603.2666
 469  503.3969
 470  558.0584
 471  571.3968
 472  487.1136
 473  525.7537
 474  543.0018
 475  607.1561
 476  667.9962
 477  609.7211
 478  674.7971
 479  707.4752
 480  665.5237
 481  681.4402
 482  562.3019
 483  528.5342
 484  739.838
 485  695.4033
 486  699.6444
 487  593.1944
 488  600.2764
 489  606.6642
 490  607.0221
 491  555.8289
 492  453.3473
 493  427.6998
 494  564.7006
 495  578.5214
 496  576.575
 497  475.743
 498  461.1965
 499  556.3901
 500  657.3347
 501  664.0839
 502  668.5341
 503  599.8271
 504  598.7022
 505  549.1476
 506  626.9578
 507  560.8256
 508  566.2996
 509  492.1861
 510  450.7324
 511  482.5526
