# Input file       =  1184573858.104995_cleaned.dat
# Candidate        =  PSR_0332+5434
# Telescope        =  AR
# Epoch_topo       =  57954.345371585594
# Epoch_bary       =  N/A
# T_sample         =  0.002
# Data Folded      =  7340032
# Data Avg         =  0.0487257000807877
# Data StdDev      =  1.00013830669717 
# Profile Bins     =  512
# Profile Avg      =  698.508352540942 
# Profile StdDev   =  119.74959625757  
# Reduced chi-sqr  =  1.288
# Prob(Noise)      <  1.1e-05   (~4.2 sigma)
# P_topo (ms)      =  714.475865971754  +/- 0.000312
# P'_topo (s/s)    =  -0                +/- 1.65e-10
# P''_topo (s/s^2) =  0                 +/- 7.27e-14
# P_bary (ms)      =  N/A
# P'_bary (s/s)    =  N/A
# P''_bary (s/s^2) =  N/A
# P_orb (s)        =  N/A
# asin(i)/c (s)    =  N/A
# eccentricity     =  N/A
# w (rad)          =  N/A
# T_peri           =  N/A
######################################################
   0  795.8483
   1  689.7684
   2  818.5409
   3  762.3004
   4  787.8599
   5  721.3029
   6  645.7438
   7  809.6805
   8  850.9593
   9  798.7119
  10  675.6353
  11  793.4913
  12  824.7246
  13  722.0528
  14  716.6017
  15  643.2212
  16  702.3251
  17  728.1532
  18  686.3682
  19  644.4619
  20  714.6176
  21  755.2637
  22  768.9474
  23  672.6331
  24  706.0292
  25  757.6261
  26  684.8763
  27  779.8017
  28  838.986
  29  841.3273
  30  887.9764
  31  792.0913
  32  852.4546
  33  861.3932
  34  846.4703
  35  842.1943
  36  835.4996
  37  802.5802
  38  821.8099
  39  870.971
  40  809.7202
  41  713.6316
  42  757.954
  43  863.2624
  44  885.9401
  45  723.8544
  46  700.2813
  47  719.9984
  48  722.719
  49  728.809
  50  635.3749
  51  672.8268
  52  671.6743
  53  705.5041
  54  708.9629
  55  718.9197
  56  642.3743
  57  686.7155
  58  703.7689
  59  694.3248
  60  734.712
  61  678.9442
  62  706.8602
  63  675.4221
  64  718.5991
  65  764.439
  66  810.3669
  67  780.9463
  68  732.7446
  69  769.7057
  70  739.2438
  71  678.7641
  72  731.0698
  73  760.9739
  74  731.432
  75  699.3893
  76  692.7928
  77  821.5674
  78  782.661
  79  741.8171
  80  792.6987
  81  760.6646
  82  676.8141
  83  750.9
  84  799.8415
  85  733.5554
  86  641.6434
  87  717.3201
  88  774.3351
  89  682.8954
  90  666.1613
  91  694.4034
  92  668.8292
  93  745.807
  94  673.0255
  95  754.4147
  96  763.6174
  97  744.1422
  98  660.5557
  99  726.2686
 100  750.2074
 101  669.8231
 102  689.8938
 103  624.2271
 104  649.3069
 105  645.6442
 106  633.0143
 107  584.1261
 108  665.6241
 109  722.8069
 110  796.5905
 111  697.1426
 112  834.1573
 113  793.2249
 114  740.9849
 115  792.2672
 116  851.1567
 117  802.7642
 118  850.4585
 119  879.0985
 120  782.9194
 121  728.6083
 122  802.6138
 123  824.9578
 124  866.1402
 125  800.5565
 126  762.726
 127  804.9666
 128  731.8938
 129  740.4639
 130  714.6422
 131  748.8356
 132  716.6854
 133  621.0334
 134  670.5011
 135  579.423
 136  543.7591
 137  653.5261
 138  768.7836
 139  836.0798
 140  621.6135
 141  586.348
 142  758.8403
 143  955.4845
 144  825.1286
 145  718.8462
 146  651.8659
 147  754.9241
 148  742.4224
 149  676.9388
 150  595.4131
 151  596.4019
 152  609.4713
 153  649.5058
 154  755.7687
 155  659.4839
 156  689.3049
 157  737.9374
 158  899.3431
 159  1063.237
 160  1206.97
 161  1324.858
 162  1228.696
 163  1043.534
 164  814.4193
 165  723.9701
 166  712.96
 167  693.2346
 168  646.0743
 169  608.0793
 170  622.0984
 171  625.1893
 172  695.3152
 173  687.2505
 174  701.64
 175  730.9011
 176  617.8466
 177  650.6238
 178  738.1906
 179  757.0162
 180  646.4635
 181  623.4086
 182  671.0186
 183  655.7466
 184  571.4772
 185  534.226
 186  634.2745
 187  741.4158
 188  837.5386
 189  730.4439
 190  762.4659
 191  647.0184
 192  674.7325
 193  671.3358
 194  561.1602
 195  629.7452
 196  701.0774
 197  727.8547
 198  718.8064
 199  612.6827
 200  624.3293
 201  595.9081
 202  595.832
 203  579.1372
 204  657.3228
 205  616.6806
 206  558.6118
 207  535.0196
 208  515.3766
 209  630.417
 210  690.1902
 211  571.993
 212  601.3055
 213  692.223
 214  610.1016
 215  580.624
 216  594.8663
 217  722.3842
 218  652.8486
 219  517.9097
 220  542.5538
 221  529.2872
 222  530.6401
 223  621.7487
 224  612.796
 225  519.0328
 226  605.9431
 227  528.0486
 228  549.1614
 229  597.3046
 230  587.3968
 231  681.9736
 232  687.8233
 233  559.9179
 234  552.3813
 235  569.9557
 236  576.5842
 237  615.8532
 238  690.0579
 239  726.3148
 240  672.7065
 241  521.9395
 242  621.8603
 243  509.8195
 244  469.4164
 245  569.0889
 246  605.3381
 247  656.9461
 248  544.0682
 249  544.8786
 250  576.6281
 251  566.1491
 252  519.7147
 253  625.5295
 254  690.1237
 255  628.149
 256  513.2737
 257  548.7621
 258  576.9951
 259  484.1842
 260  435.0935
 261  494.5254
 262  607.2732
 263  631.2668
 264  551.4628
 265  546.1477
 266  626.6859
 267  645.8663
 268  680.2552
 269  660.3217
 270  612.0565
 271  719.6019
 272  835.7974
 273  872.9987
 274  730.0386
 275  702.4407
 276  768.7134
 277  675.937
 278  617.2821
 279  670.942
 280  761.4709
 281  685.2202
 282  720.4658
 283  798.5889
 284  752.7337
 285  742.3436
 286  741.6702
 287  674.198
 288  637.1821
 289  647.2302
 290  632.1263
 291  529.9119
 292  540.0597
 293  605.2282
 294  566.2093
 295  642.2719
 296  671.5764
 297  768.9293
 298  701.137
 299  582.6736
 300  587.515
 301  542.7045
 302  618.3949
 303  569.3041
 304  634.5512
 305  754.5319
 306  706.5983
 307  686.0535
 308  651.4595
 309  581.1245
 310  654.2166
 311  684.5004
 312  707.8098
 313  702.6616
 314  678.2719
 315  686.9276
 316  624.6514
 317  746.1749
 318  833.8284
 319  736.245
 320  600.8085
 321  594.7916
 322  729.5934
 323  754.8214
 324  714.7866
 325  674.4714
 326  697.0162
 327  653.0979
 328  650.3412
 329  821.3796
 330  793.017
 331  711.5101
 332  704.1952
 333  713.9332
 334  636.1577
 335  551.3492
 336  579.2936
 337  618.6614
 338  578.0312
 339  713.2775
 340  764.0184
 341  665.0683
 342  685.1896
 343  769.0393
 344  794.4338
 345  648.356
 346  578.5806
 347  645.5483
 348  604.6028
 349  603.9744
 350  737.9462
 351  772.1817
 352  682.0788
 353  720.4105
 354  678.5223
 355  662.3295
 356  570.3281
 357  558.5444
 358  640.8094
 359  723.5853
 360  677.1094
 361  731.6596
 362  784.9139
 363  708.6454
 364  700.1075
 365  755.4421
 366  788.1385
 367  788.6132
 368  726.9521
 369  671.2231
 370  689.0333
 371  686.7373
 372  711.0616
 373  684.1412
 374  600.3191
 375  550.2497
 376  567.61
 377  671.9644
 378  688.1818
 379  660.0478
 380  686.3567
 381  788.8357
 382  728.6399
 383  787.2322
 384  687.0759
 385  595.2653
 386  706.3107
 387  679.7335
 388  700.0609
 389  670.8812
 390  593.6896
 391  617.7136
 392  693.1676
 393  647.3157
 394  627.16
 395  627.9202
 396  628.868
 397  644.4216
 398  667.8922
 399  676.7886
 400  596.8462
 401  665.9573
 402  759.6694
 403  746.9393
 404  791.9967
 405  839.6804
 406  759.7255
 407  761.5205
 408  772.9178
 409  737.4823
 410  692.161
 411  637.6263
 412  713.6558
 413  658.5521
 414  625.0428
 415  699.5527
 416  737.7193
 417  790.1767
 418  703.0955
 419  627.6732
 420  671.5707
 421  708.3848
 422  749.9981
 423  695.2726
 424  705.4009
 425  619.6082
 426  719.2436
 427  714.2351
 428  725.6258
 429  779.8546
 430  715.6598
 431  779.8011
 432  691.2603
 433  751.4587
 434  757.0754
 435  781.0944
 436  752.7978
 437  616.2881
 438  805.2296
 439  893.2608
 440  730.5667
 441  560.449
 442  616.1824
 443  731.106
 444  598.8559
 445  571.1241
 446  607.5763
 447  740.6447
 448  816.1624
 449  647.653
 450  677.7872
 451  718.6302
 452  660.7691
 453  610.1573
 454  740.2551
 455  713.2888
 456  578.5226
 457  642.4109
 458  649.1395
 459  689.4525
 460  704.0183
 461  708.192
 462  700.2713
 463  790.0002
 464  754.3416
 465  766.0963
 466  848.9397
 467  762.4564
 468  831.7107
 469  733.5563
 470  612.8924
 471  584.098
 472  588.1488
 473  568.8654
 474  549.0282
 475  674.3665
 476  690.0861
 477  576.7045
 478  676.0661
 479  825.1138
 480  833.504
 481  723.7331
 482  750.5222
 483  705.8195
 484  717.5845
 485  649.544
 486  790.7025
 487  860.6667
 488  896.0383
 489  846.9316
 490  717.9542
 491  765.5867
 492  804.6439
 493  904.5029
 494  848.655
 495  806.3047
 496  755.1641
 497  790.15
 498  767.314
 499  708.1469
 500  718.6638
 501  653.0446
 502  774.2585
 503  796.9893
 504  695.537
 505  792.2899
 506  803.7927
 507  763.5499
 508  659.0543
 509  582.3669
 510  679.6621
 511  736.4177
