# Input file       =  1184832292.10788_cleaned.dat
# Candidate        =  PSR_0332+5434
# Telescope        =  AR
# Epoch_topo       =  57957.336505878244
# Epoch_bary       =  N/A
# T_sample         =  0.002
# Data Folded      =  7340032
# Data Avg         =  0.0428424889621399
# Data StdDev      =  1.00047456118175 
# Profile Bins     =  512
# Profile Avg      =  614.106645931594 
# Profile StdDev   =  119.789857028003 
# Reduced chi-sqr  =  1.500
# Prob(Noise)      <  1.54e-12   (~7.0 sigma)
# P_topo (ms)      =  714.47412299307   +/- 0.000239
# P'_topo (s/s)    =  -0                +/- 1.26e-10
# P''_topo (s/s^2) =  0                 +/- 5.58e-14
# P_bary (ms)      =  N/A
# P'_bary (s/s)    =  N/A
# P''_bary (s/s^2) =  N/A
# P_orb (s)        =  N/A
# asin(i)/c (s)    =  N/A
# eccentricity     =  N/A
# w (rad)          =  N/A
# T_peri           =  N/A
######################################################
   0  1131.546
   1  1065.325
   2  1013.796
   3  786.3349
   4  694.245
   5  677.6335
   6  634.0022
   7  565.3804
   8  567.3496
   9  573.8796
  10  600.2094
  11  612.8968
  12  640.8256
  13  635.0895
  14  604.8344
  15  561.4077
  16  589.6222
  17  545.759
  18  458.8147
  19  407.6555
  20  509.476
  21  633.9348
  22  581.3513
  23  522.1636
  24  517.5692
  25  423.1526
  26  442.1546
  27  440.7697
  28  424.2596
  29  428.5444
  30  573.7895
  31  522.5906
  32  577.9337
  33  642.7169
  34  583.0698
  35  495.1674
  36  635.8942
  37  648.9393
  38  646.4675
  39  634.8428
  40  565.2923
  41  551.6474
  42  597.3574
  43  553.8201
  44  512.71
  45  508.2874
  46  518.4229
  47  483.1762
  48  440.288
  49  526.2679
  50  641.3375
  51  645.866
  52  523.6187
  53  462.6485
  54  536.9227
  55  581.7256
  56  529.0939
  57  535.5953
  58  410.9777
  59  378.5829
  60  493.5511
  61  526.112
  62  436.1462
  63  543.5618
  64  564.6265
  65  483.8824
  66  496.1013
  67  583.8867
  68  579.9391
  69  580.9028
  70  524.8114
  71  510.8101
  72  483.2813
  73  540.861
  74  437.3567
  75  436.0195
  76  476.8953
  77  560.1603
  78  561.1841
  79  526.6157
  80  546.5016
  81  491.0287
  82  480.0593
  83  519.1693
  84  589.2001
  85  514.8621
  86  464.7301
  87  467.9423
  88  462.8648
  89  604.4972
  90  641.0734
  91  606.7523
  92  651.0237
  93  581.2167
  94  568.9511
  95  595.1393
  96  591.1638
  97  577.6804
  98  713.1925
  99  693.0143
 100  584.7072
 101  575.167
 102  524.983
 103  588.2452
 104  443.1051
 105  492.393
 106  652.4415
 107  635.6832
 108  520.3372
 109  522.0951
 110  555.785
 111  540.717
 112  490.6848
 113  581.1194
 114  698.1544
 115  686.8864
 116  707.5471
 117  634.0266
 118  530.2173
 119  505.7291
 120  600.8226
 121  629.8706
 122  630.8883
 123  615.6444
 124  545.1804
 125  488.9116
 126  547.8474
 127  626.9232
 128  548.7679
 129  512.8573
 130  511.9661
 131  591.769
 132  470.4618
 133  393.2214
 134  585.9755
 135  495.3603
 136  332.3306
 137  508.6845
 138  642.389
 139  751.0709
 140  684.6283
 141  633.8801
 142  646.1917
 143  621.4914
 144  462.5244
 145  485.6048
 146  621.3254
 147  689.6378
 148  628.5954
 149  621.2829
 150  623.3591
 151  579.0103
 152  518.9088
 153  632.8654
 154  607.8432
 155  706.2547
 156  716.4143
 157  623.5953
 158  614.434
 159  679.295
 160  694.0662
 161  702.4627
 162  810.5863
 163  756.8991
 164  662.3878
 165  634.9125
 166  755.3972
 167  751.8607
 168  727.6608
 169  665.8488
 170  520.8743
 171  542.0279
 172  614.7054
 173  608.9667
 174  627.2267
 175  665.8334
 176  599.1343
 177  562.2132
 178  596.2075
 179  597.4683
 180  606.7731
 181  489.199
 182  561.6117
 183  643.6451
 184  599.9255
 185  605.0128
 186  687.4563
 187  658.1315
 188  476.4561
 189  509.9418
 190  547.207
 191  571.2629
 192  594.3483
 193  554.9051
 194  529.7856
 195  450.5706
 196  443.6764
 197  429.0935
 198  487.389
 199  582.1513
 200  600.584
 201  647.2296
 202  590.7774
 203  605.3631
 204  654.6841
 205  621.4744
 206  624.1667
 207  580.3727
 208  581.9022
 209  586.907
 210  684.1304
 211  723.746
 212  721.1824
 213  700.764
 214  757.8646
 215  719.3837
 216  668.1207
 217  615.9023
 218  541.687
 219  770.5709
 220  733.0543
 221  700.5319
 222  677.2267
 223  604.9221
 224  559.1519
 225  510.1559
 226  575.1674
 227  662.2969
 228  652.6268
 229  451.5034
 230  423.961
 231  490.1237
 232  554.3627
 233  568.3511
 234  579.7895
 235  578.9146
 236  496.5992
 237  507.1989
 238  664.5579
 239  675.1647
 240  536.6953
 241  523.0726
 242  545.8956
 243  560.6127
 244  496.4877
 245  480.9513
 246  529.96
 247  400.7675
 248  448.0993
 249  590.8861
 250  546.4448
 251  520.284
 252  636.5187
 253  588.0445
 254  520.9799
 255  555.9388
 256  597.1003
 257  511.5056
 258  477.3199
 259  498.285
 260  522.7574
 261  540.5573
 262  566.1296
 263  704.1899
 264  642.2168
 265  614.0283
 266  618.0615
 267  484.0797
 268  538.6786
 269  545.1901
 270  659.499
 271  671.9544
 272  585.7571
 273  592.5606
 274  535.1158
 275  452.9215
 276  495.4201
 277  605.321
 278  549.5903
 279  514.4747
 280  616.6302
 281  624.9983
 282  599.6379
 283  684.6783
 284  565.766
 285  483.7239
 286  648.5768
 287  741.9929
 288  708.3449
 289  642.4763
 290  606.0012
 291  604.9913
 292  560.6742
 293  611.3385
 294  688.7161
 295  700.0275
 296  625.3184
 297  633.9992
 298  661.1485
 299  626.0548
 300  507.4207
 301  488.3161
 302  534.1198
 303  591.0604
 304  561.6631
 305  583.1494
 306  626.8671
 307  588.2491
 308  552.2657
 309  586.4915
 310  677.5623
 311  568.3192
 312  448.3678
 313  558.8586
 314  602.6075
 315  680.671
 316  695.7907
 317  704.3433
 318  553.9783
 319  576.7848
 320  700.2594
 321  573.1417
 322  562.4604
 323  736.8325
 324  726.9326
 325  616.0997
 326  565.6381
 327  612.5529
 328  633.196
 329  716.1942
 330  801.2887
 331  705.0128
 332  650.6588
 333  586.0909
 334  689.9189
 335  756.7924
 336  836.5409
 337  863.1972
 338  806.2833
 339  787.5516
 340  715.7031
 341  811.6078
 342  824.4627
 343  855.699
 344  863.795
 345  838.8284
 346  876.2276
 347  758.3934
 348  789.4218
 349  705.0836
 350  656.6174
 351  657.0005
 352  690.0836
 353  718.7192
 354  718.172
 355  702.7715
 356  773.9412
 357  751.2823
 358  627.5339
 359  645.6042
 360  572.4359
 361  552.8449
 362  707.4898
 363  621.9003
 364  555.4874
 365  567.2297
 366  610.0416
 367  673.2595
 368  667.5649
 369  537.4336
 370  533.8599
 371  604.0715
 372  623.842
 373  567.4374
 374  586.3926
 375  618.7955
 376  680.6319
 377  562.8274
 378  530.7873
 379  614.8414
 380  700.6622
 381  736.0068
 382  721.6458
 383  732.5456
 384  634.7825
 385  671.3804
 386  675.1749
 387  657.527
 388  695.7159
 389  777.3753
 390  676.0168
 391  691.3019
 392  680.6238
 393  787.8425
 394  777.0554
 395  673.9359
 396  638.5988
 397  648.5527
 398  675.6411
 399  730.6678
 400  752.6249
 401  774.8859
 402  649.1054
 403  662.5247
 404  681.1351
 405  658.973
 406  671.754
 407  598.2325
 408  621.3681
 409  585.2747
 410  650.5733
 411  657.5287
 412  630.9532
 413  701.6428
 414  757.5306
 415  680.2643
 416  615.4056
 417  684.5776
 418  597.4955
 419  670.3023
 420  732.0661
 421  680.5449
 422  529.7244
 423  644.9936
 424  678.6829
 425  598.1641
 426  627.9516
 427  706.0178
 428  631.317
 429  580.387
 430  740.5301
 431  687.564
 432  547.3755
 433  623.6711
 434  592.0975
 435  571.7069
 436  542.7703
 437  541.0118
 438  662.7772
 439  686.301
 440  532.6337
 441  604.1907
 442  735.7433
 443  637.9876
 444  642.1593
 445  502.1213
 446  589.9883
 447  685.1678
 448  698.6668
 449  630.48
 450  678.9396
 451  822.5417
 452  844.9948
 453  669.572
 454  704.5345
 455  650.7737
 456  694.6007
 457  781.4498
 458  773.9224
 459  783.8256
 460  672.3129
 461  634.2698
 462  619.18
 463  670.9657
 464  650.3093
 465  548.3402
 466  572.9047
 467  557.5646
 468  543.2498
 469  498.5133
 470  550.7531
 471  677.0804
 472  526.759
 473  520.8846
 474  532.5502
 475  519.1057
 476  522.4365
 477  616.1177
 478  550.9431
 479  642.3823
 480  703.6254
 481  610.681
 482  643.2714
 483  646.8497
 484  576.4172
 485  581.673
 486  660.1772
 487  659.4335
 488  647.665
 489  603.6839
 490  537.855
 491  550.8951
 492  572.8243
 493  716.5995
 494  694.9591
 495  665.5436
 496  544.1616
 497  474.0061
 498  652.7638
 499  563.1774
 500  560.7878
 501  665.9656
 502  555.6174
 503  726.0967
 504  722.8973
 505  696.3917
 506  648.1349
 507  634.69
 508  854.5378
 509  1052.132
 510  1231.106
 511  1215.438
