# Input file       =  1184832292.10788_cleaned.dat
# Candidate        =  PSR_0332+5434
# Telescope        =  AR
# Epoch_topo       =  57957.336505878244
# Epoch_bary       =  N/A
# T_sample         =  0.002
# Data Folded      =  7340032
# Data Avg         =  0.0428424889621399
# Data StdDev      =  1.00047456118175 
# Profile Bins     =  512
# Profile Avg      =  614.106636650166 
# Profile StdDev   =  119.789857028003 
# Reduced chi-sqr  =  1.506
# Prob(Noise)      <  9.11e-13   (~7.0 sigma)
# P_topo (ms)      =  714.474124013671  +/- 0.000238
# P'_topo (s/s)    =  -0                +/- 1.26e-10
# P''_topo (s/s^2) =  0                 +/- 5.54e-14
# P_bary (ms)      =  N/A
# P'_bary (s/s)    =  N/A
# P''_bary (s/s^2) =  N/A
# P_orb (s)        =  N/A
# asin(i)/c (s)    =  N/A
# eccentricity     =  N/A
# w (rad)          =  N/A
# T_peri           =  N/A
######################################################
   0  592.0651
   1  496.943
   2  506.2381
   3  637.5245
   4  689.0798
   5  545.0472
   6  526.8217
   7  544.3083
   8  561.8238
   9  506.3885
  10  472.2325
  11  533.8557
  12  411.3353
  13  429.1528
  14  583.764
  15  556.2196
  16  519.2532
  17  623.9386
  18  606.1109
  19  515.3376
  20  557.8994
  21  589.1045
  22  531.834
  23  462.5115
  24  506.852
  25  512.3188
  26  548.7149
  27  550.9538
  28  695.6488
  29  656.1588
  30  606.435
  31  632.2316
  32  490.0047
  33  532.9355
  34  532.8483
  35  644.9276
  36  686.9648
  37  592.9259
  38  589.287
  39  547.7256
  40  458.2046
  41  484.2135
  42  599.6193
  43  561.9805
  44  509.8457
  45  606.4127
  46  625.6138
  47  593.0453
  48  679.4221
  49  596.6375
  50  474.3877
  51  629.1251
  52  724.6422
  53  721.2073
  54  648.3708
  55  613.3268
  56  606.5385
  57  569.683
  58  594.7035
  59  680.9908
  60  710.481
  61  627.4189
  62  628.9969
  63  660.161
  64  633.9353
  65  528.447
  66  483.6393
  67  525.7164
  68  578.258
  69  565.9908
  70  578.1679
  71  630.9062
  72  592.2885
  73  560.5414
  74  572.9203
  75  675.5358
  76  583.3602
  77  457.1275
  78  530.6995
  79  611.2538
  80  661.624
  81  706.2012
  82  700.0328
  83  580.8777
  84  554.2657
  85  702.5395
  86  588.0233
  87  550.3052
  88  716.7429
  89  740.0128
  90  630.8019
  91  566.017
  92  602.4897
  93  634.6274
  94  697.7635
  95  806.9869
  96  712.3533
  97  662.0273
  98  582.312
  99  675.9047
 100  750.2837
 101  825.1262
 102  870.9789
 103  811.8151
 104  793.6968
 105  713.1346
 106  801.4369
 107  827.2717
 108  848.8865
 109  867.9989
 110  831.7629
 111  882.446
 112  768.565
 113  784.0559
 114  720.7792
 115  657.4183
 116  659.0639
 117  678.8719
 118  721.0677
 119  714.5974
 120  706.3906
 121  763.3825
 122  760.7928
 123  642.6887
 124  640.94
 125  591.3661
 126  537.533
 127  694.5526
 128  636.633
 129  555.0245
 130  568.2286
 131  600.5682
 132  671.8585
 133  672.7913
 134  557.2505
 135  525.1082
 136  594.1226
 137  627.8056
 138  571.9825
 139  588.7153
 140  600.6747
 141  692.1796
 142  566.7037
 143  538.5453
 144  594.0416
 145  700.4908
 146  735.4609
 147  718.4097
 148  734.6584
 149  647.6991
 150  650.7734
 151  689.6478
 152  649.1693
 153  689.7151
 154  779.9967
 155  688.3959
 156  684.6997
 157  678.6862
 158  776.4984
 159  786.0911
 160  680.6098
 161  641.8039
 162  643.0071
 163  675.4728
 164  724.6413
 165  742.4695
 166  787.6047
 167  661.4613
 168  652.9089
 169  686.5958
 170  653.178
 171  679.7939
 172  598.0926
 173  624.511
 174  586.3735
 175  635.6099
 176  670.1786
 177  624.3018
 178  692.6426
 179  759.6384
 180  692.9412
 181  606.9368
 182  691.8287
 183  601.6703
 184  651.5082
 185  732.7416
 186  697.3441
 187  539.8383
 188  621.2996
 189  691.2761
 190  595.3683
 191  621.4273
 192  701.5286
 193  652.6514
 194  566.4961
 195  728.4941
 196  698.2796
 197  558.6475
 198  616.7042
 199  605.3618
 200  567.5297
 201  553.1591
 202  525.2869
 203  650.0197
 204  695.8796
 205  551.7415
 206  574.3234
 207  738.7529
 208  652.0533
 209  639.1978
 210  518.7507
 211  567.3664
 212  680.0451
 213  704.2997
 214  631.8623
 215  670.0288
 216  797.1115
 217  867.764
 218  675.9194
 219  703.4925
 220  657.7599
 221  680.7491
 222  781.137
 223  767.7288
 224  794.312
 225  674.6896
 226  644.5974
 227  618.5978
 228  659.6473
 229  666.2464
 230  546.0631
 231  573.9024
 232  560.1865
 233  546.1993
 234  506.5339
 235  533.2657
 236  679.8766
 237  540.8916
 238  519.956
 239  525.5589
 240  524.8169
 241  512.0314
 242  615.6694
 243  557.8179
 244  617.6455
 245  716.158
 246  608.5186
 247  647.7957
 248  646.6132
 249  587.1585
 250  565.7231
 251  657.5937
 252  662.3881
 253  646.8813
 254  611.6406
 255  541.7217
 256  550.647
 257  570.6
 258  695.3815
 259  713.3706
 260  660.5713
 261  571.373
 262  455.2138
 263  644.4814
 264  575.1994
 265  548.7806
 266  668.874
 267  557.7357
 268  701.2677
 269  740.0817
 270  689.2883
 271  665.5062
 272  618.5563
 273  820.2087
 274  1026.69
 275  1225.439
 276  1228.449
 277  1137.681
 278  1070.176
 279  1029.094
 280  816.0428
 281  689.8476
 282  690.4727
 283  635.2878
 284  572.1793
 285  569.1665
 286  572.1547
 287  599.0437
 288  602.7094
 289  642.3826
 290  635.011
 291  613.204
 292  560.9398
 293  592.1105
 294  549.3868
 295  470.8409
 296  398.2562
 297  500.2132
 298  622.2214
 299  601.2115
 300  513.101
 301  529.4084
 302  431.8011
 303  434.9327
 304  441.949
 305  433.0702
 306  414.8878
 307  564.7299
 308  529.6384
 309  562.8344
 310  638.2999
 311  603.5842
 312  483.8538
 313  618.6381
 314  664.5726
 315  636.5226
 316  650.2608
 317  564.4323
 318  548.9447
 319  599.6133
 320  555.2219
 321  519.1179
 322  506.1978
 323  522.8387
 324  491.7448
 325  435.468
 326  513.1831
 327  627.0036
 328  662.1939
 329  531.9153
 330  461.4666
 331  531.3699
 332  577.9379
 333  530.9025
 334  543.6498
 335  423.0509
 336  374.1329
 337  476.3246
 338  540.0841
 339  436.3013
 340  524.5313
 341  569.879
 342  500.5175
 343  482.8936
 344  584.0345
 345  568.8603
 346  591.8552
 347  523.8412
 348  520.6158
 349  474.1668
 350  546.0834
 351  440.5438
 352  437.7304
 353  474.6693
 354  551.1407
 355  564.8392
 356  525.433
 357  551.7167
 358  490.67
 359  482.3449
 360  507.2672
 361  586.8538
 362  526.1652
 363  464.7944
 364  468.856
 365  462.2743
 366  578.8155
 367  654.5566
 368  600.0237
 369  649.8182
 370  595.0274
 371  561.5222
 372  593.8693
 373  600.1695
 374  568.9846
 375  692.4342
 376  712.4332
 377  587.1981
 378  584.4196
 379  516.9449
 380  600.3051
 381  452.2235
 382  479.0531
 383  628.9369
 384  654.3342
 385  525.7305
 386  515.6929
 387  553.4053
 388  548.8784
 389  493.3899
 390  562.2092
 391  699.6982
 392  680.9813
 393  711.2498
 394  640.1927
 395  547.4669
 396  496.1133
 397  597.1564
 398  620.8459
 399  638.1357
 400  613.5023
 401  558.6997
 402  488.3497
 403  533.1123
 404  628.9673
 405  560.4435
 406  516.8471
 407  502.5498
 408  588.3253
 409  495.9812
 410  379.2057
 411  568.9871
 412  526.8591
 413  334.5603
 414  482.6451
 415  625.6118
 416  750.8465
 417  690.7476
 418  634.5909
 419  647.9136
 420  632.515
 421  478.389
 422  469.3867
 423  606.4026
 424  688.7257
 425  636.0626
 426  616.4866
 427  628.8359
 428  592.839
 429  509.894
 430  621.6047
 431  613.2982
 432  693.0074
 433  727.8727
 434  628.3383
 435  606.7551
 436  670.3961
 437  695.7172
 438  694.3006
 439  804.9111
 440  769.9092
 441  678.4898
 442  625.6411
 443  747.4954
 444  751.0077
 445  723.6196
 446  684.8084
 447  533.4991
 448  532.5062
 449  612.365
 450  604.7296
 451  632.6425
 452  658.0137
 453  613.5773
 454  560.3895
 455  595.841
 456  592.9506
 457  614.8984
 458  495.7195
 459  544.9474
 460  643.6644
 461  601.7304
 462  603.4597
 463  675.032
 464  681.6643
 465  484.6451
 466  500.0945
 467  545.9827
 468  564.8039
 469  597.8705
 470  560.0676
 471  534.8363
 472  456.5471
 473  448.0458
 474  425.8347
 475  472.2841
 476  577.2648
 477  594.4867
 478  647.2729
 479  598.5771
 480  599.8356
 481  651.3597
 482  620.1224
 483  630.634
 484  582.9841
 485  592.4677
 486  569.3201
 487  681.5668
 488  712.5721
 489  733.7945
 490  690.8401
 491  756.9462
 492  727.593
 493  674.0558
 494  629.5123
 495  528.8447
 496  747.9039
 497  750.6625
 498  693.9565
 499  692.7268
 500  609.1411
 501  557.3557
 502  522.1906
 503  554.0794
 504  658.0156
 505  663.3359
 506  480.8772
 507  408.7085
 508  490.8627
 509  536.1812
 510  580.2385
 511  568.0161
