# Input file       =  1184660059.09953_cleaned.dat
# Candidate        =  PSR_0332+5434
# Telescope        =  AR
# Epoch_topo       =  57955.343068281596
# Epoch_bary       =  N/A
# T_sample         =  0.002
# Data Folded      =  7340032
# Data Avg         =  0.0430908420283416
# Data StdDev      =  1.00042450757584 
# Profile Bins     =  512
# Profile Avg      =  617.753376521355 
# Profile StdDev   =  119.783863957786 
# Reduced chi-sqr  =  1.346
# Prob(Noise)      <  2.71e-07   (~5.0 sigma)
# P_topo (ms)      =  714.475272888424  +/- 0.000464
# P'_topo (s/s)    =  -0                +/- 2.45e-10
# P''_topo (s/s^2) =  0                 +/- 1.08e-13
# P_bary (ms)      =  N/A
# P'_bary (s/s)    =  N/A
# P''_bary (s/s^2) =  N/A
# P_orb (s)        =  N/A
# asin(i)/c (s)    =  N/A
# eccentricity     =  N/A
# w (rad)          =  N/A
# T_peri           =  N/A
######################################################
   0  529.5878
   1  561.1243
   2  654.8553
   3  682.2075
   4  695.508
   5  576.6613
   6  570.4449
   7  635.7035
   8  675.5442
   9  666.7371
  10  637.538
  11  581.5764
  12  520.0729
  13  508.1741
  14  648.7539
  15  618.4101
  16  558.8491
  17  560.0672
  18  654.6756
  19  693.4664
  20  585.889
  21  551.6583
  22  482.817
  23  620.5372
  24  649.8589
  25  583.4486
  26  589.4376
  27  631.7253
  28  699.2188
  29  794.2183
  30  717.6802
  31  690.2055
  32  695.8059
  33  763.6423
  34  747.796
  35  674.5444
  36  632.8895
  37  611.1223
  38  673.1577
  39  616.2766
  40  501.8988
  41  513.8179
  42  553.3607
  43  612.3983
  44  699.9609
  45  740.1205
  46  538.1198
  47  488.1756
  48  563.6131
  49  581.8144
  50  554.5593
  51  547.1346
  52  639.3184
  53  677.0056
  54  732.1443
  55  678.103
  56  725.8447
  57  663.4765
  58  580.5098
  59  606.5943
  60  693.9019
  61  613.5477
  62  662.3228
  63  713.5791
  64  780.7638
  65  681.8969
  66  626.1301
  67  660.4774
  68  716.742
  69  722.4663
  70  796.5683
  71  724.5868
  72  700.4274
  73  720.833
  74  773.6332
  75  708.8954
  76  750.0137
  77  880.5604
  78  754.1456
  79  660.7355
  80  676.0367
  81  692.306
  82  666.648
  83  682.1223
  84  531.8784
  85  590.244
  86  643.0133
  87  626.8943
  88  619.3499
  89  636.8691
  90  627.8458
  91  672.8695
  92  641.16
  93  561.0093
  94  592.9471
  95  708.678
  96  629.7039
  97  658.9969
  98  804.7662
  99  797.3211
 100  700.8845
 101  678.6131
 102  650.1925
 103  642.8726
 104  726.593
 105  726.8572
 106  613.0499
 107  673.7225
 108  664.7074
 109  628.3058
 110  616.5519
 111  644.3409
 112  667.4111
 113  633.254
 114  621.3027
 115  589.7504
 116  661.9218
 117  673.5685
 118  773.5146
 119  776.7151
 120  676.7626
 121  683.1888
 122  782.6018
 123  821.4333
 124  664.3837
 125  729.9279
 126  873.5537
 127  746.88
 128  620.0652
 129  643.671
 130  729.7886
 131  746.9416
 132  650.2301
 133  618.8244
 134  663.4385
 135  642.3007
 136  746.2181
 137  696.8247
 138  799.7811
 139  742.5829
 140  649.3253
 141  608.4356
 142  625.1917
 143  734.0751
 144  758.5828
 145  715.3199
 146  637.0608
 147  701.642
 148  726.4969
 149  608.8369
 150  600.7693
 151  754.5416
 152  779.5646
 153  744.5194
 154  727.3731
 155  677.2794
 156  703.1185
 157  755.1646
 158  615.5818
 159  697.6075
 160  735.1882
 161  656.8412
 162  624.1574
 163  664.1386
 164  604.6652
 165  597.8796
 166  671.1495
 167  688.7675
 168  691.0864
 169  690.1941
 170  674.2554
 171  554.8339
 172  744.6913
 173  779.5198
 174  710.6263
 175  767.9297
 176  713.8716
 177  624.8132
 178  649.6855
 179  738.0311
 180  726.1632
 181  649.7961
 182  729.0871
 183  675.82
 184  558.1901
 185  571.7333
 186  682.7877
 187  648.3546
 188  638.4279
 189  663.0295
 190  657.5867
 191  551.3937
 192  571.2766
 193  590.0239
 194  664.5693
 195  664.1138
 196  586.8595
 197  653.9875
 198  766.3906
 199  778.8948
 200  794.5944
 201  649.9012
 202  589.6451
 203  573.3218
 204  563.1969
 205  550.0923
 206  660.3788
 207  600.0187
 208  599.9567
 209  655.0622
 210  577.1008
 211  622.3146
 212  583.4763
 213  614.5878
 214  741.8141
 215  662.7905
 216  698.4687
 217  634.7354
 218  603.4604
 219  611.1599
 220  625.3283
 221  555.5046
 222  613.9921
 223  652.3965
 224  662.4271
 225  561.9487
 226  543.1312
 227  424.1104
 228  554.0286
 229  605.5825
 230  591.9747
 231  546.9272
 232  606.1163
 233  554.6915
 234  647.3067
 235  695.8765
 236  655.6544
 237  596.8457
 238  580.7386
 239  679.4913
 240  668.5043
 241  611.0918
 242  578.2634
 243  544.7134
 244  489.4654
 245  622.3552
 246  747.3132
 247  750.1385
 248  763.4832
 249  790.8297
 250  778.5406
 251  643.0196
 252  641.3716
 253  610.8594
 254  559.0463
 255  624.6058
 256  632.7012
 257  551.9801
 258  574.6224
 259  625.2
 260  571.8851
 261  613.1995
 262  578.3563
 263  460.7191
 264  458.9703
 265  537.8679
 266  615.1034
 267  499.009
 268  554.1932
 269  630.3824
 270  525.0121
 271  469.6661
 272  473.3966
 273  621.5975
 274  602.4373
 275  687.3007
 276  504.2012
 277  517.7427
 278  482.9718
 279  542.8335
 280  626.5615
 281  662.6225
 282  627.2474
 283  629.442
 284  671.4844
 285  580.1612
 286  621.4133
 287  605.2802
 288  644.2639
 289  525.5606
 290  586.3017
 291  683.7346
 292  559.4072
 293  607.9985
 294  580.2412
 295  501.334
 296  479.8137
 297  463.6236
 298  467.2826
 299  598.2323
 300  549.582
 301  543.1713
 302  506.0618
 303  564.8959
 304  700.5092
 305  552.2515
 306  584.0749
 307  556.015
 308  547.8565
 309  648.8907
 310  637.0689
 311  612.773
 312  608.1919
 313  538.5454
 314  563.4193
 315  546.9543
 316  586.4865
 317  590.3231
 318  465.9812
 319  593.3412
 320  518.9827
 321  535.9181
 322  568.3092
 323  556.4331
 324  696.6299
 325  600.2652
 326  494.3345
 327  417.4347
 328  468.0309
 329  484.6368
 330  553.3268
 331  544.6736
 332  545.2346
 333  445.8258
 334  456.735
 335  412.7033
 336  455.1465
 337  572.5775
 338  635.2498
 339  613.3215
 340  536.6448
 341  553.6653
 342  509.6458
 343  567.8151
 344  649.0602
 345  548.3028
 346  535.321
 347  444.9596
 348  501.5041
 349  528.7233
 350  514.8932
 351  416.2229
 352  384.0233
 353  411.4655
 354  385.6058
 355  459.5439
 356  466.6367
 357  443.2418
 358  488.4579
 359  506.5571
 360  391.4437
 361  473.5648
 362  430.1929
 363  459.4256
 364  423.2106
 365  415.2688
 366  457.1738
 367  500.2775
 368  557.2582
 369  590.5872
 370  508.1761
 371  488.7462
 372  612.0982
 373  622.5526
 374  617.5382
 375  428.3503
 376  522.1224
 377  488.3534
 378  535.4052
 379  519.7368
 380  543.114
 381  416.5628
 382  517.2921
 383  535.0312
 384  458.3626
 385  451.4883
 386  434.29
 387  521.9755
 388  606.6681
 389  582.9939
 390  509.9675
 391  410.3271
 392  480.1117
 393  458.8448
 394  422.7673
 395  426.8574
 396  387.9107
 397  484.4163
 398  463.1852
 399  417.7602
 400  427.1455
 401  423.6247
 402  455.9529
 403  449.205
 404  465.3347
 405  484.6603
 406  543.7319
 407  488.111
 408  481.5706
 409  486.5489
 410  500.6305
 411  619.9339
 412  610.5603
 413  542.4952
 414  499.9864
 415  523.0903
 416  626.7799
 417  632.3381
 418  710.6211
 419  693.6952
 420  631.4171
 421  536.2589
 422  540.1647
 423  631.9916
 424  706.836
 425  587.1893
 426  573.4785
 427  630.174
 428  711.7823
 429  750.334
 430  681.946
 431  669.5833
 432  588.8849
 433  610.3807
 434  641.2375
 435  570.2741
 436  617.3311
 437  544.2411
 438  638.2616
 439  584.0486
 440  648.222
 441  722.5154
 442  703.4256
 443  631.9925
 444  632.7322
 445  619.8268
 446  663.2365
 447  703.1617
 448  696.5417
 449  678.9268
 450  612.1708
 451  604.4375
 452  586.2581
 453  624.9664
 454  673.2528
 455  671.7151
 456  630.0553
 457  646.5559
 458  683.1128
 459  622.0952
 460  665.6974
 461  503.8672
 462  565.5155
 463  602.2729
 464  542.7151
 465  610.4991
 466  723.1686
 467  731.2117
 468  635.4241
 469  552.6152
 470  511.0197
 471  574.1849
 472  632.6031
 473  679.718
 474  563.1257
 475  551.5306
 476  659.4697
 477  717.5529
 478  718.2655
 479  696.7045
 480  637.6749
 481  715.6431
 482  680.1132
 483  605.7299
 484  639.6182
 485  735.2883
 486  691.345
 487  647.9654
 488  611.158
 489  631.8276
 490  576.9808
 491  653.6338
 492  751.1725
 493  670.1544
 494  634.3568
 495  700.6212
 496  735.8499
 497  781.0986
 498  687.2303
 499  713.6629
 500  752.3147
 501  850.8076
 502  915.8162
 503  1005.213
 504  1088.99
 505  1080.449
 506  990.7094
 507  775.0865
 508  663.3534
 509  570.9135
 510  551.3864
 511  508.8289
