# Input file       =  1185177007.112782_cleaned.dat
# Candidate        =  PSR_0332+5434
# Telescope        =  AR
# Epoch_topo       =  57961.326262879418
# Epoch_bary       =  N/A
# T_sample         =  0.002
# Data Folded      =  7340032
# Data Avg         =  0.0477751408642317
# Data StdDev      =  1.00019595479653 
# Profile Bins     =  512
# Profile Avg      =  684.716850538806 
# Profile StdDev   =  119.756498639547 
# Reduced chi-sqr  =  1.243
# Prob(Noise)      <  0.000142   (~3.6 sigma)
# P_topo (ms)      =  714.472006855747  +/- 0.000377
# P'_topo (s/s)    =  -0                +/- 1.99e-10
# P''_topo (s/s^2) =  0                 +/- 8.78e-14
# P_bary (ms)      =  N/A
# P'_bary (s/s)    =  N/A
# P''_bary (s/s^2) =  N/A
# P_orb (s)        =  N/A
# asin(i)/c (s)    =  N/A
# eccentricity     =  N/A
# w (rad)          =  N/A
# T_peri           =  N/A
######################################################
   0  659.8386
   1  691.8427
   2  747.7276
   3  805.7451
   4  787.424
   5  672.5323
   6  627.1873
   7  739.3593
   8  732.2698
   9  790.5864
  10  792.0648
  11  829.9003
  12  668.1888
  13  754.5147
  14  708.0302
  15  659.9423
  16  613.6309
  17  664.4814
  18  688.5165
  19  782.7641
  20  787.2724
  21  884.4724
  22  980.6667
  23  1095.692
  24  1095.729
  25  1128.018
  26  1153.079
  27  1072.778
  28  1002.206
  29  820.8899
  30  808.7963
  31  651.4722
  32  623.121
  33  825.9649
  34  885.8841
  35  712.8492
  36  713.2344
  37  765.2307
  38  808.2299
  39  820.2656
  40  808.8619
  41  866.5555
  42  723.8174
  43  672.5539
  44  648.7709
  45  678.2004
  46  751.3718
  47  857.7331
  48  934.0853
  49  886.434
  50  659.1449
  51  688.6551
  52  584.8687
  53  578.6953
  54  662.459
  55  786.5466
  56  735.0996
  57  565.0085
  58  613.7846
  59  608.6014
  60  522.3068
  61  643.6023
  62  684.6204
  63  717.8325
  64  651.8197
  65  543.743
  66  613.0218
  67  740.7496
  68  784.1815
  69  747.8723
  70  691.745
  71  667.9663
  72  667.7565
  73  688.3236
  74  713.2357
  75  755.1837
  76  790.7717
  77  702.7603
  78  758.2146
  79  726.7399
  80  662.1144
  81  658.3418
  82  795.5132
  83  708.8477
  84  667.6774
  85  617.2609
  86  561.9063
  87  588.3102
  88  599.4708
  89  755.1955
  90  654.3544
  91  712.4865
  92  669.5444
  93  682.5251
  94  607.3137
  95  613.5676
  96  614.4501
  97  569.8017
  98  667.4323
  99  649.5098
 100  591.4795
 101  570.0157
 102  653.3235
 103  537.4337
 104  553.5587
 105  550.9744
 106  561.2698
 107  545.5183
 108  507.5045
 109  517.0576
 110  700.8898
 111  709.4695
 112  587.618
 113  467.443
 114  656.0405
 115  619.0367
 116  469.8598
 117  560.8279
 118  564.2875
 119  597.7247
 120  627.4388
 121  615.9484
 122  592.5622
 123  635.0626
 124  749.2723
 125  693.6082
 126  718.6293
 127  683.3905
 128  563.3979
 129  593.3919
 130  735.9744
 131  680.4971
 132  567.6807
 133  622.8101
 134  621.9351
 135  682.7603
 136  577.0182
 137  560.1924
 138  502.3148
 139  411.8274
 140  511.3033
 141  639.1469
 142  699.3746
 143  652.2728
 144  521.6315
 145  611.413
 146  589.9611
 147  592.7555
 148  608.3873
 149  583.3831
 150  597.2188
 151  579.6089
 152  713.6334
 153  677.7174
 154  549.803
 155  479.041
 156  516.8573
 157  574.6409
 158  556.7764
 159  552.9207
 160  590.0194
 161  601.5734
 162  648.1211
 163  630.1987
 164  643.7343
 165  727.5552
 166  706.0635
 167  604.4061
 168  600.6175
 169  649.2421
 170  636.6706
 171  560.1259
 172  569.7277
 173  569.2924
 174  672.7024
 175  575.1288
 176  593.0711
 177  718.437
 178  788.7471
 179  628.3528
 180  582.5256
 181  522.7106
 182  524.8815
 183  550.8051
 184  635.1788
 185  706.7034
 186  628.4081
 187  608.2344
 188  621.5942
 189  644.405
 190  712.368
 191  706.5165
 192  713.6644
 193  711.8811
 194  655.6542
 195  711.4423
 196  732.0449
 197  820.062
 198  870.845
 199  688.618
 200  507.4366
 201  607.6468
 202  691.4969
 203  659.549
 204  596.142
 205  600.6718
 206  687.3775
 207  633.7859
 208  685.5767
 209  697.2614
 210  664.8395
 211  677.3471
 212  614.3677
 213  581.8229
 214  560.1207
 215  625.9036
 216  671.7529
 217  682.9031
 218  640.6321
 219  696.2042
 220  683.8566
 221  575.7242
 222  598.0368
 223  658.1582
 224  566.304
 225  548.6523
 226  627.3168
 227  582.9527
 228  636.6785
 229  569.6413
 230  541.6417
 231  551.6841
 232  591.8989
 233  578.3323
 234  512.9354
 235  504.8773
 236  624.3214
 237  698.7679
 238  607.746
 239  695.0778
 240  637.6414
 241  657.118
 242  642.6987
 243  732.4176
 244  704.0816
 245  671.23
 246  653.8406
 247  742.4341
 248  739.9899
 249  635.5823
 250  692.6292
 251  766.8943
 252  713.3281
 253  589.1348
 254  572.7523
 255  666.0767
 256  556.623
 257  460.7876
 258  664.3152
 259  699.2759
 260  714.9956
 261  574.571
 262  666.4545
 263  640.6971
 264  679.2518
 265  624.0097
 266  579.1798
 267  599.5905
 268  693.2359
 269  649.8289
 270  707.2827
 271  701.5894
 272  741.1029
 273  822.162
 274  754.5147
 275  729.6629
 276  743.9886
 277  747.8896
 278  810.1772
 279  793.7592
 280  784.6964
 281  775.5146
 282  727.1024
 283  718.8215
 284  710.64
 285  524.7889
 286  630.0613
 287  709.6032
 288  559.6387
 289  522.7703
 290  569.0353
 291  713.8148
 292  666.07
 293  575.8329
 294  575.1916
 295  577.1907
 296  606.0598
 297  642.4762
 298  734.4484
 299  689.095
 300  662.4506
 301  672.745
 302  715.5165
 303  741.1666
 304  710.4866
 305  751.4401
 306  759.6968
 307  785.3896
 308  784.8598
 309  740.3235
 310  695.3199
 311  796.6268
 312  773.3511
 313  695.8305
 314  629.2288
 315  574.1713
 316  811.6927
 317  778.2368
 318  813.0703
 319  802.7706
 320  717.9088
 321  754.1878
 322  741.2829
 323  708.4335
 324  704.8446
 325  724.2202
 326  895.2167
 327  858.8448
 328  735.1005
 329  766.955
 330  713.564
 331  736.6628
 332  637.0997
 333  583.6383
 334  725.2822
 335  775.532
 336  772.7082
 337  735.874
 338  792.7339
 339  656.2353
 340  676.7508
 341  740.3705
 342  815.6638
 343  799.6595
 344  714.8704
 345  793.8026
 346  887.1556
 347  693.3727
 348  746.181
 349  882.3066
 350  740.097
 351  731.5469
 352  773.1252
 353  800.0033
 354  784.0946
 355  808.6454
 356  662.1389
 357  691.8262
 358  716.2785
 359  713.0378
 360  671.619
 361  633.7027
 362  696.0635
 363  598.5104
 364  645.9425
 365  595.165
 366  585.129
 367  702.0782
 368  657.6285
 369  601.7781
 370  583.2778
 371  557.8861
 372  676.7029
 373  717.8387
 374  747.382
 375  686.4537
 376  758.0515
 377  770.7091
 378  779.4423
 379  788.389
 380  727.2025
 381  752.403
 382  850.1469
 383  709.9142
 384  754.491
 385  690.4039
 386  597.7344
 387  792.9239
 388  724.7142
 389  651.5991
 390  647.0027
 391  662.0929
 392  794.847
 393  806.4968
 394  676.1108
 395  696.1869
 396  668.3052
 397  648.121
 398  731.0239
 399  660.1578
 400  614.1288
 401  590.2045
 402  632.9951
 403  672.565
 404  622.9661
 405  721.8145
 406  812.4215
 407  752.6407
 408  720.6515
 409  679.126
 410  668.2504
 411  747.5565
 412  721.0731
 413  714.8544
 414  690.7357
 415  630.934
 416  713.2402
 417  695.568
 418  622.2543
 419  717.8486
 420  709.5857
 421  776.9905
 422  772.8053
 423  709.9214
 424  647.7083
 425  624.3242
 426  687.9717
 427  754.6369
 428  598.6156
 429  609.1049
 430  635.312
 431  691.5544
 432  698.8392
 433  774.5966
 434  659.2794
 435  514.9324
 436  519.158
 437  666.0772
 438  660.9455
 439  543.8829
 440  565.3448
 441  666.3298
 442  630.9839
 443  645.4667
 444  727.6596
 445  739.6337
 446  657.0266
 447  784.6652
 448  747.8791
 449  678.0471
 450  718.6583
 451  665.7275
 452  674.8331
 453  647.3835
 454  615.5491
 455  565.5641
 456  579.4227
 457  652.2592
 458  626.498
 459  697.4594
 460  624.5182
 461  559.9093
 462  604.2736
 463  656.6124
 464  680.9625
 465  653.8989
 466  664.7601
 467  621.1251
 468  721.3538
 469  762.3917
 470  684.4404
 471  686.2637
 472  678.7311
 473  710.3022
 474  763.1953
 475  680.1306
 476  840.8584
 477  825.871
 478  752.3223
 479  702.7128
 480  736.6641
 481  754.0858
 482  790.0764
 483  880.0261
 484  812.8862
 485  794.8722
 486  844.287
 487  846.4761
 488  760.1426
 489  704.2767
 490  813.4227
 491  749.3185
 492  737.5883
 493  697.863
 494  661.899
 495  680.3916
 496  713.249
 497  773.9042
 498  709.2916
 499  618.1807
 500  715.493
 501  702.9116
 502  736.8832
 503  777.4552
 504  727.5363
 505  748.4479
 506  778.9039
 507  803.0308
 508  711.6406
 509  780.1321
 510  869.7553
 511  705.5551
