# Input file       =  1185334429.098027_cleaned.dat
# Candidate        =  PSR_0332+5434
# Telescope        =  AR
# Epoch_topo       =  57963.148276597538
# Epoch_bary       =  N/A
# T_sample         =  0.002
# Data Folded      =  7340032
# Data Avg         =  0.0375288931062036
# Data StdDev      =  1.00001036982262 
# Profile Bins     =  512
# Profile Avg      =  537.846440170403 
# Profile StdDev   =  119.734277987116 
# Reduced chi-sqr  =  1.459
# Prob(Noise)      <  4.96e-11   (~6.5 sigma)
# P_topo (ms)      =  714.470783358477  +/- 0.000312
# P'_topo (s/s)    =  -0                +/- 1.65e-10
# P''_topo (s/s^2) =  0                 +/- 7.27e-14
# P_bary (ms)      =  N/A
# P'_bary (s/s)    =  N/A
# P''_bary (s/s^2) =  N/A
# P_orb (s)        =  N/A
# asin(i)/c (s)    =  N/A
# eccentricity     =  N/A
# w (rad)          =  N/A
# T_peri           =  N/A
######################################################
   0  1104.201
   1  1088.375
   2  1055.864
   3  817.9938
   4  564.0172
   5  482.9904
   6  326.5739
   7  443.2121
   8  529.0426
   9  579.5666
  10  554.231
  11  423.9871
  12  501.6356
  13  495.0961
  14  483.8301
  15  521.9081
  16  624.0618
  17  629.2539
  18  506.9063
  19  410.1618
  20  515.9141
  21  445.8425
  22  433.4383
  23  323.7805
  24  377.041
  25  521.121
  26  457.3384
  27  424.5323
  28  526.6397
  29  553.4251
  30  453.7274
  31  363.2907
  32  425.0571
  33  479.711
  34  544.377
  35  446.8714
  36  414.7576
  37  600.9395
  38  539.5736
  39  352.3475
  40  394.0466
  41  419.6789
  42  422.0243
  43  490.113
  44  487.185
  45  439.314
  46  510.7558
  47  482.1342
  48  521.8251
  49  530.8405
  50  531.038
  51  483.9908
  52  479.6111
  53  566.9635
  54  481.8796
  55  436.2216
  56  392.226
  57  419.9351
  58  399.4413
  59  346.2698
  60  343.9237
  61  261.2773
  62  346.0658
  63  483.3737
  64  392.1038
  65  411.5515
  66  468.5749
  67  486.3308
  68  326.5811
  69  304.9033
  70  408.2797
  71  351.3059
  72  498.9742
  73  453.3308
  74  401.0582
  75  440.1389
  76  428.4315
  77  395.3758
  78  445.0494
  79  472.8781
  80  427.3134
  81  383.2833
  82  468.3112
  83  405.4138
  84  351.4108
  85  425.9295
  86  406.3361
  87  412.366
  88  519.0982
  89  383.8462
  90  297.1802
  91  448.9206
  92  531.0104
  93  498.2396
  94  394.6401
  95  413.1852
  96  438.4274
  97  482.4713
  98  546.0542
  99  448.9738
 100  466.2659
 101  486.0761
 102  456.3304
 103  499.6618
 104  487.559
 105  456.7802
 106  437.7151
 107  462.2328
 108  403.6202
 109  424.6452
 110  476.5573
 111  441.4674
 112  471.7021
 113  577.5464
 114  510.5639
 115  487.0763
 116  552.6663
 117  445.951
 118  545.4462
 119  523.3525
 120  423.3171
 121  451.3827
 122  380.7272
 123  420.7802
 124  427.2654
 125  364.1988
 126  448.6096
 127  323.5221
 128  264.4825
 129  315.3807
 130  442.8289
 131  497.8576
 132  460.2482
 133  433.3707
 134  589.1667
 135  535.2721
 136  477.9207
 137  431.5522
 138  358.6821
 139  463.7309
 140  497.904
 141  497.6996
 142  505.8779
 143  457.894
 144  471.5906
 145  443.5298
 146  502.9681
 147  458.9037
 148  418.4525
 149  430.0869
 150  530.757
 151  556.2173
 152  455.1661
 153  452.8589
 154  463.1205
 155  440.345
 156  552.6884
 157  669.5821
 158  585.2263
 159  522.9297
 160  565.1917
 161  567.5449
 162  542.2922
 163  600.5342
 164  706.6447
 165  717.9622
 166  585.1103
 167  494.7742
 168  553.3995
 169  626.3318
 170  563.0258
 171  599.2372
 172  694.4108
 173  685.5255
 174  716.0975
 175  568.0498
 176  543.4818
 177  515.7779
 178  614.327
 179  637.8213
 180  571.5779
 181  557.1017
 182  649.2017
 183  609.8136
 184  539.0831
 185  483.3246
 186  526.8359
 187  566.0885
 188  646.0605
 189  567.1345
 190  392.2648
 191  384.8905
 192  411.5624
 193  535.7656
 194  621.8499
 195  532.499
 196  396.9107
 197  450.5063
 198  398.2608
 199  435.1314
 200  415.0117
 201  412.2185
 202  434.4566
 203  496.1379
 204  519.9479
 205  487.6722
 206  511.1897
 207  507.3982
 208  510.2386
 209  440.4656
 210  555.2266
 211  597.787
 212  476.7924
 213  518.8263
 214  597.7122
 215  571.5837
 216  514.6534
 217  560.1412
 218  404.6068
 219  371.5475
 220  439.124
 221  558.825
 222  559.709
 223  573.0928
 224  635.3093
 225  581.3514
 226  653.6671
 227  697.2604
 228  614.2455
 229  483.991
 230  532.2841
 231  535.1154
 232  471.293
 233  569.4822
 234  548.2581
 235  576.4399
 236  569.1422
 237  604.9052
 238  586.0069
 239  617.2787
 240  671.4008
 241  630.9998
 242  557.361
 243  490.4375
 244  475.5704
 245  653.3708
 246  662.5374
 247  697.5754
 248  713.2281
 249  694.8034
 250  579.0457
 251  553.5698
 252  573.8276
 253  586.1267
 254  482.2401
 255  678.1875
 256  743.5366
 257  716.3092
 258  622.5128
 259  669.5056
 260  606.7781
 261  609.9714
 262  580.5352
 263  623.605
 264  662.0337
 265  633.3367
 266  668.1143
 267  629.8788
 268  666.0202
 269  698.4363
 270  646.0093
 271  663.8223
 272  618.325
 273  544.3828
 274  494.0473
 275  476.2159
 276  605.8334
 277  664.1158
 278  709.2977
 279  668.2679
 280  472.1243
 281  594.9375
 282  630.9758
 283  498.825
 284  493.314
 285  547.3012
 286  446.6757
 287  489.7533
 288  577.7585
 289  624.91
 290  707.2545
 291  732.4529
 292  684.3774
 293  491.183
 294  528.5491
 295  570.9064
 296  689.6114
 297  641.2604
 298  653.7082
 299  669.3533
 300  540.5775
 301  520.0552
 302  658.1573
 303  653.459
 304  545.067
 305  594.3339
 306  594.7418
 307  582.1319
 308  642.4373
 309  652.4153
 310  700.4775
 311  694.9349
 312  605.9281
 313  695.1828
 314  633.1727
 315  591.8592
 316  626.0504
 317  658.3448
 318  727.4797
 319  519.2527
 320  515.3814
 321  666.3665
 322  700.7462
 323  604.6396
 324  657.9518
 325  568.9084
 326  505.0701
 327  570.1724
 328  587.6841
 329  572.5735
 330  569.3349
 331  671.7167
 332  642.1214
 333  579.4943
 334  656.0641
 335  493.4128
 336  655.5356
 337  735.3892
 338  628.6846
 339  600.1776
 340  532.1285
 341  508.3896
 342  483.7789
 343  478.7251
 344  585.9262
 345  586.7311
 346  620.035
 347  505.158
 348  485.9448
 349  481.9586
 350  475.0971
 351  516.5229
 352  483.4803
 353  532.1655
 354  612.9827
 355  513.5182
 356  515.3029
 357  661.4265
 358  599.5269
 359  569.6605
 360  589.4494
 361  582.5575
 362  553.8002
 363  617.625
 364  597.2328
 365  587.208
 366  656.4586
 367  684.2681
 368  588.5362
 369  518.4598
 370  690.7421
 371  655.2039
 372  639.0665
 373  505.3736
 374  504.7125
 375  623.8437
 376  647.104
 377  671.8692
 378  655.3273
 379  662.304
 380  625.9028
 381  677.1073
 382  658.6168
 383  598.1873
 384  620.5742
 385  566.3115
 386  579.2661
 387  564.4774
 388  746.1946
 389  671.5582
 390  492.7412
 391  478.7622
 392  607.6984
 393  607.5209
 394  545.3849
 395  565.4583
 396  669.3763
 397  720.2202
 398  567.5301
 399  506.9288
 400  468.5136
 401  476.326
 402  458.4215
 403  465.0427
 404  486.6626
 405  543.8128
 406  584.0032
 407  579.5623
 408  583.1553
 409  584.8177
 410  603.179
 411  500.4682
 412  477.9568
 413  421.9874
 414  402.1443
 415  499.3962
 416  506.333
 417  513.6309
 418  617.4422
 419  637.0174
 420  521.3137
 421  442.1453
 422  378.1851
 423  423.0655
 424  501.8281
 425  473.5381
 426  394.5525
 427  457.1822
 428  512.6139
 429  509.9609
 430  544.9785
 431  526.1749
 432  378.0049
 433  335.1738
 434  476.2389
 435  470.3309
 436  428.721
 437  537.4791
 438  662.074
 439  624.6489
 440  552.9731
 441  496.1357
 442  562.4536
 443  557.1636
 444  612.1584
 445  696.5544
 446  641.6891
 447  520.3455
 448  541.6794
 449  637.2327
 450  575.7101
 451  574.0416
 452  537.1907
 453  535.5605
 454  459.3402
 455  512.403
 456  517.8745
 457  519.9958
 458  495.0479
 459  567.0533
 460  493.293
 461  510.1066
 462  585.5358
 463  543.1818
 464  583.4678
 465  606.884
 466  575.1345
 467  554.4149
 468  535.9943
 469  569.7003
 470  584.4777
 471  582.6813
 472  577.9894
 473  521.0494
 474  599.5881
 475  557.1518
 476  559.1357
 477  548.5981
 478  494.0829
 479  487.9675
 480  468.7711
 481  503.0164
 482  571.6736
 483  524.5417
 484  399.8473
 485  485.3788
 486  466.5251
 487  502.969
 488  486.4924
 489  484.0064
 490  548.0198
 491  481.6807
 492  453.0187
 493  428.2656
 494  479.283
 495  498.1246
 496  458.4229
 497  485.0582
 498  529.8897
 499  564.6061
 500  633.2764
 501  687.7329
 502  569.2923
 503  509.207
 504  488.4656
 505  644.9421
 506  668.9393
 507  653.6608
 508  636.2785
 509  621.594
 510  797.0452
 511  1021.765
