# Input file       =  1185521650.102601_cleaned.dat
# Candidate        =  PSR_0332+5434
# Telescope        =  AR
# Epoch_topo       =  57965.315186372696
# Epoch_bary       =  N/A
# T_sample         =  0.002
# Data Folded      =  7340032
# Data Avg         =  0.0490593613576915
# Data StdDev      =  1.00030562542218 
# Profile Bins     =  512
# Profile Avg      =  703.200376657102 
# Profile StdDev   =  119.769629836557 
# Reduced chi-sqr  =  1.305
# Prob(Noise)      <  3.88e-06   (~4.5 sigma)
# P_topo (ms)      =  714.470124754147  +/- 0.000431
# P'_topo (s/s)    =  -0                +/- 2.27e-10
# P''_topo (s/s^2) =  0                 +/- 1e-13
# P_bary (ms)      =  N/A
# P'_bary (s/s)    =  N/A
# P''_bary (s/s^2) =  N/A
# P_orb (s)        =  N/A
# asin(i)/c (s)    =  N/A
# eccentricity     =  N/A
# w (rad)          =  N/A
# T_peri           =  N/A
######################################################
   0  1233.886
   1  1218.26
   2  1210.689
   3  966.7236
   4  703.9948
   5  776.1266
   6  757.0751
   7  594.6012
   8  556.7266
   9  629.2816
  10  594.2379
  11  654.3242
  12  638.265
  13  709.7502
  14  739.348
  15  717.738
  16  638.1895
  17  675.1012
  18  681.4193
  19  582.0239
  20  589.3973
  21  734.7281
  22  766.8757
  23  683.8045
  24  601.6756
  25  560.4087
  26  712.0476
  27  806.4328
  28  785.2472
  29  694.518
  30  689.3528
  31  800.6492
  32  704.7714
  33  756.7001
  34  796.7966
  35  799.6087
  36  811.8746
  37  807.7794
  38  747.5499
  39  746.1458
  40  687.9641
  41  676.0862
  42  742.3044
  43  661.6719
  44  676.3042
  45  731.2307
  46  692.6403
  47  554.1818
  48  692.3572
  49  799.1091
  50  859.239
  51  778.5547
  52  684.2743
  53  864.8416
  54  878.7476
  55  723.9473
  56  621.3904
  57  717.2855
  58  800.4257
  59  693.0886
  60  648.9432
  61  617.8793
  62  677.0169
  63  625.6249
  64  727.6809
  65  829.881
  66  584.8824
  67  529.5042
  68  600.4015
  69  722.3345
  70  782.9404
  71  770.9676
  72  660.6219
  73  625.726
  74  615.9404
  75  657.736
  76  807.9647
  77  629.811
  78  558.4128
  79  593.0383
  80  475.1359
  81  531.7952
  82  689.2324
  83  669.3951
  84  664.5458
  85  604.2229
  86  691.0272
  87  672.4813
  88  701.4515
  89  778.9225
  90  750.0615
  91  632.2537
  92  601.1165
  93  692.1036
  94  745.1104
  95  718.5999
  96  653.1879
  97  650.9449
  98  703.4129
  99  689.4921
 100  682.628
 101  688.8054
 102  673.2773
 103  631.7651
 104  743.5134
 105  764.0516
 106  670.728
 107  684.5332
 108  688.1074
 109  645.2706
 110  619.2873
 111  570.1255
 112  562.5629
 113  545.2991
 114  783.4702
 115  817.9506
 116  747.2556
 117  674.1073
 118  632.1631
 119  762.3718
 120  641.7649
 121  584.4896
 122  673.267
 123  654.3503
 124  663.178
 125  722.3492
 126  747.3156
 127  673.0504
 128  626.9099
 129  661.65
 130  709.6752
 131  715.9887
 132  723.0962
 133  811.5939
 134  730.4076
 135  641.7132
 136  620.8271
 137  605.5328
 138  666.1552
 139  725.8497
 140  711.3322
 141  668.5403
 142  652.4548
 143  721.2953
 144  654.7975
 145  574.4501
 146  535.3808
 147  661.0514
 148  795.3545
 149  810.582
 150  779.478
 151  860.2583
 152  727.8018
 153  797.8709
 154  765.5236
 155  711.3194
 156  669.3749
 157  729.4424
 158  805.6428
 159  755.1769
 160  707.5786
 161  718.9556
 162  700.4923
 163  773.5529
 164  671.4058
 165  772.0045
 166  819.1639
 167  786.2106
 168  781.9772
 169  771.6165
 170  795.3372
 171  838.7048
 172  796.1315
 173  726.1015
 174  838.6379
 175  815.4274
 176  739.4701
 177  689.65
 178  757.8693
 179  741.5789
 180  824.2135
 181  778.933
 182  730.9471
 183  725.1726
 184  779.4903
 185  916.6984
 186  936.0401
 187  846.7594
 188  723.2718
 189  843.6146
 190  893.478
 191  815.4479
 192  889.5616
 193  940.3954
 194  928.4924
 195  892.1886
 196  808.2045
 197  843.0364
 198  827.0106
 199  780.2025
 200  812.7944
 201  832.9541
 202  759.1179
 203  688.3428
 204  672.4675
 205  797.5167
 206  839.6052
 207  781.3661
 208  692.2676
 209  720.6675
 210  733.1885
 211  673.3381
 212  697.1072
 213  773.818
 214  760.4917
 215  727.1654
 216  784.2324
 217  757.6345
 218  763.1119
 219  732.3738
 220  734.2332
 221  782.3359
 222  764.8783
 223  759.737
 224  675.205
 225  678.8089
 226  718.809
 227  717.5936
 228  739.0458
 229  766.3831
 230  716.6205
 231  814.5362
 232  763.6323
 233  736.9089
 234  804.7051
 235  696.2531
 236  619.9786
 237  677.5858
 238  671.3069
 239  649.8882
 240  630.4257
 241  686.8169
 242  761.4706
 243  731.475
 244  648.301
 245  585.8279
 246  621.934
 247  665.1984
 248  673.0858
 249  648.8152
 250  578.5634
 251  638.2497
 252  752.6521
 253  706.662
 254  701.9726
 255  698.9576
 256  639.8137
 257  675.1552
 258  576.1285
 259  624.8796
 260  610.3422
 261  742.1215
 262  788.7724
 263  735.9078
 264  808.2191
 265  841.6088
 266  724.6832
 267  683.9435
 268  613.2567
 269  608.1701
 270  683.9826
 271  597.2957
 272  563.7975
 273  631.2103
 274  574.1562
 275  707.394
 276  643.6165
 277  604.0005
 278  618.871
 279  632.4033
 280  506.6809
 281  611.9982
 282  661.4413
 283  686.3129
 284  747.0886
 285  714.8272
 286  688.3795
 287  688.6176
 288  689.4623
 289  687.2109
 290  744.2269
 291  828.5759
 292  684.4693
 293  633.582
 294  657.8409
 295  777.7241
 296  786.4498
 297  694.0598
 298  665.6776
 299  609.841
 300  613.012
 301  710.9142
 302  657.8705
 303  575.8791
 304  562.0017
 305  554.7655
 306  540.7576
 307  572.8932
 308  713.3788
 309  757.7751
 310  732.5087
 311  686.6986
 312  592.0627
 313  527.5385
 314  649.3275
 315  547.1425
 316  507.9517
 317  592.9362
 318  686.8183
 319  706.0353
 320  653.0103
 321  645.1215
 322  593.7217
 323  599.6556
 324  550.8469
 325  645.3199
 326  622.0587
 327  615.8452
 328  608.2818
 329  477.0797
 330  574.5738
 331  663.1747
 332  694.4534
 333  607.93
 334  554.1709
 335  602.1378
 336  692.5205
 337  658.0667
 338  565.225
 339  585.2527
 340  692.4287
 341  587.5793
 342  590.3114
 343  618.2001
 344  682.1797
 345  626.3517
 346  695.8249
 347  675.4816
 348  551.4702
 349  641.2209
 350  672.0412
 351  765.8514
 352  632.2052
 353  585.0289
 354  627.8401
 355  676.8254
 356  674.3363
 357  538.6323
 358  462.7635
 359  561.6541
 360  656.5496
 361  557.5316
 362  462.9731
 363  538.5314
 364  581.8696
 365  594.1755
 366  585.4366
 367  537.2033
 368  631.5787
 369  624.8185
 370  528.3712
 371  556.8984
 372  523.1675
 373  517.4514
 374  564.1282
 375  592.9946
 376  587.6317
 377  683.3642
 378  729.4082
 379  645.5518
 380  653.1524
 381  706.6783
 382  706.8227
 383  670.0617
 384  585.3416
 385  632.259
 386  736.9163
 387  641.3319
 388  627.5341
 389  610.7076
 390  624.7545
 391  669.8149
 392  770.4177
 393  791.1453
 394  709.1398
 395  655.6773
 396  724.5241
 397  767.0765
 398  684.8993
 399  714.2562
 400  583.563
 401  620.9504
 402  802.3876
 403  832.2833
 404  760.2507
 405  822.8035
 406  751.6692
 407  846.244
 408  806.0504
 409  714.7324
 410  736.056
 411  676.3464
 412  666.3392
 413  727.3505
 414  650.4782
 415  699.6122
 416  652.6663
 417  664.3481
 418  678.728
 419  817.7839
 420  779.7607
 421  682.5724
 422  628.2128
 423  649.2167
 424  760.9559
 425  778.8158
 426  777.1986
 427  774.3528
 428  819.0491
 429  803.6744
 430  708.5369
 431  682.2505
 432  656.6288
 433  658.7542
 434  729.6571
 435  660.3682
 436  659.9289
 437  636.1899
 438  599.7061
 439  564.3616
 440  670.8619
 441  669.2917
 442  677.5908
 443  677.5208
 444  608.6302
 445  566.8502
 446  605.0095
 447  803.8766
 448  760.1552
 449  651.9214
 450  688.2277
 451  683.3737
 452  726.8848
 453  666.1217
 454  614.6075
 455  645.3525
 456  737.5492
 457  836.5157
 458  826.9229
 459  728.7792
 460  844.3474
 461  849.4542
 462  787.223
 463  782.9667
 464  781.4811
 465  883.6551
 466  905.3411
 467  799.5632
 468  709.2251
 469  728.1445
 470  665.1016
 471  679.3582
 472  713.5484
 473  757.5358
 474  767.4612
 475  716.9579
 476  748.0049
 477  678.7834
 478  712.9518
 479  829.7379
 480  742.5383
 481  678.6968
 482  615.7234
 483  783.5799
 484  798.44
 485  749.5381
 486  702.29
 487  759.0515
 488  774.0999
 489  685.1928
 490  690.5444
 491  825.7463
 492  913.9605
 493  827.2342
 494  849.2211
 495  844.4611
 496  789.499
 497  751.9247
 498  727.2114
 499  734.4386
 500  703.9697
 501  727.3317
 502  728.0663
 503  756.2104
 504  806.252
 505  840.6636
 506  798.8782
 507  803.9656
 508  806.3278
 509  791.7022
 510  1028.415
 511  1215.836
