# Input file       =  1185090823.101021_cleaned.dat
# Candidate        =  PSR_0332+5434
# Telescope        =  AR
# Epoch_topo       =  57960.328762743302
# Epoch_bary       =  N/A
# T_sample         =  0.002
# Data Folded      =  7340032
# Data Avg         =  0.0444245108579673
# Data StdDev      =  1.00044237989966 
# Profile Bins     =  512
# Profile Avg      =  636.491392777743 
# Profile StdDev   =  119.786003865384 
# Reduced chi-sqr  =  1.319
# Prob(Noise)      <  1.57e-06   (~4.7 sigma)
# P_topo (ms)      =  714.47251370372   +/- 0.000282
# P'_topo (s/s)    =  -0                +/- 1.49e-10
# P''_topo (s/s^2) =  0                 +/- 6.56e-14
# P_bary (ms)      =  N/A
# P'_bary (s/s)    =  N/A
# P''_bary (s/s^2) =  N/A
# P_orb (s)        =  N/A
# asin(i)/c (s)    =  N/A
# eccentricity     =  N/A
# w (rad)          =  N/A
# T_peri           =  N/A
######################################################
   0  646.7965
   1  736.5336
   2  725.0291
   3  655.4147
   4  539.5392
   5  553.4808
   6  533.5609
   7  530.8091
   8  518.3556
   9  543.5493
  10  580.1852
  11  652.0507
  12  667.5
  13  629.832
  14  615.0416
  15  531.1268
  16  512.1774
  17  686.806
  18  642.5472
  19  600.2529
  20  716.6537
  21  725.9368
  22  647.8936
  23  578.0219
  24  583.549
  25  643.147
  26  560.23
  27  599.9268
  28  690.6949
  29  708.8638
  30  594.6628
  31  524.627
  32  485.3814
  33  531.2664
  34  554.9172
  35  558.1925
  36  539.0139
  37  609.9891
  38  633.2999
  39  690.3364
  40  632.9484
  41  593.5499
  42  652.9358
  43  640.5781
  44  522.3564
  45  584.0627
  46  677.7061
  47  651.2217
  48  482.0103
  49  489.2252
  50  546.7361
  51  595.8736
  52  605.9213
  53  648.7693
  54  506.8761
  55  466.7633
  56  671.0206
  57  728.8231
  58  613.3837
  59  612.4854
  60  723.1328
  61  670.0576
  62  724.1746
  63  771.3177
  64  797.3242
  65  706.7851
  66  807.7981
  67  729.9243
  68  616.2253
  69  589.8371
  70  585.5167
  71  659.2715
  72  576.9816
  73  555.9235
  74  609.8966
  75  642.8129
  76  617.8692
  77  671.7944
  78  616.2934
  79  626.0439
  80  695.0711
  81  707.5859
  82  680.5531
  83  928.1959
  84  1115.818
  85  1149.772
  86  1151.55
  87  1187.953
  88  1074.786
  89  888.1539
  90  783.9011
  91  719.9781
  92  840.9828
  93  728.3383
  94  601.6824
  95  618.0079
  96  603.0007
  97  619.3055
  98  665.2553
  99  592.873
 100  684.6028
 101  659.9216
 102  749.1643
 103  600.2454
 104  643.7145
 105  679.6226
 106  686.2067
 107  648.6312
 108  584.1552
 109  587.9417
 110  614.1572
 111  617.7245
 112  704.9363
 113  676.7918
 114  680.3359
 115  601.6735
 116  592.0773
 117  644.2801
 118  559.9048
 119  600.7814
 120  699.5033
 121  659.1901
 122  654.8339
 123  672.0764
 124  735.2894
 125  770.0638
 126  705.3516
 127  559.0692
 128  564.1282
 129  577.3828
 130  562.0978
 131  557.7234
 132  675.1516
 133  701.6458
 134  670.5132
 135  641.3958
 136  464.8451
 137  469.13
 138  606.0688
 139  570.7964
 140  589.6578
 141  586.3346
 142  536.1309
 143  514.741
 144  621.1607
 145  577.22
 146  548.9738
 147  479.3789
 148  375.5388
 149  336.008
 150  404.1936
 151  486.8215
 152  455.647
 153  528.5977
 154  462.9176
 155  372.692
 156  434.0881
 157  586.6735
 158  586.0059
 159  582.4495
 160  491.4906
 161  553.7005
 162  548.5389
 163  523.9128
 164  612.2343
 165  709.4995
 166  595.4444
 167  488.9781
 168  637.0734
 169  697.8262
 170  677.3054
 171  600.7443
 172  558.2542
 173  594.8127
 174  561.3979
 175  667.4002
 176  706.7478
 177  589.0612
 178  544.5038
 179  645.5374
 180  574.6315
 181  547.1614
 182  517.2686
 183  508.1959
 184  526.0958
 185  472.0323
 186  540.8488
 187  425.7461
 188  402.3895
 189  502.8088
 190  430.0644
 191  492.3299
 192  460.7339
 193  363.7326
 194  594.7029
 195  550.1204
 196  503.6769
 197  620.2455
 198  629.3684
 199  552.9055
 200  570.3868
 201  579.0602
 202  547.5939
 203  595.0086
 204  628.2381
 205  547.7598
 206  473.36
 207  513.6902
 208  612.8841
 209  645.0939
 210  590.7042
 211  582.4804
 212  620.9808
 213  583.3046
 214  590.7026
 215  587.7291
 216  677.8853
 217  711.2349
 218  639.855
 219  712.8374
 220  674.4185
 221  533.2424
 222  452.3091
 223  526.3948
 224  528.0012
 225  565.6031
 226  606.3472
 227  554.0023
 228  543.6356
 229  487.7744
 230  545.2587
 231  670.4591
 232  664.8063
 233  619.2703
 234  652.6225
 235  610.4438
 236  586.7675
 237  580.3461
 238  663.9576
 239  723.1235
 240  665.8651
 241  677.2302
 242  721.7778
 243  787.1949
 244  787.6058
 245  726.5219
 246  639.9771
 247  685.6277
 248  645.8204
 249  600.7988
 250  691.353
 251  654.0405
 252  579.5197
 253  609.6297
 254  783.9485
 255  752.7219
 256  642.3509
 257  797.7819
 258  745.7395
 259  541.9764
 260  615.7319
 261  655.4652
 262  624.9921
 263  758.7333
 264  747.1486
 265  662.3101
 266  691.2202
 267  680.6377
 268  718.5115
 269  741.7908
 270  687.8995
 271  735.4962
 272  719.9326
 273  743.7733
 274  667.0835
 275  762.78
 276  770.5805
 277  700.0926
 278  694.4125
 279  736.3974
 280  762.613
 281  835.6873
 282  805.582
 283  819.8885
 284  823.1229
 285  689.2246
 286  653.1622
 287  726.3071
 288  787.5436
 289  707.4825
 290  597.5699
 291  683.8351
 292  566.1754
 293  687.2134
 294  709.8167
 295  687.929
 296  616.184
 297  604.1578
 298  605.4008
 299  615.672
 300  525.2986
 301  530.9944
 302  583.6365
 303  610.6932
 304  567.8412
 305  601.8689
 306  724.1816
 307  731.8143
 308  703.5425
 309  623.9131
 310  638.6926
 311  660.7272
 312  599.9382
 313  658.0198
 314  712.721
 315  656.0245
 316  588.0543
 317  713.3375
 318  678.7951
 319  547.7624
 320  509.5506
 321  655.118
 322  800.5963
 323  933.6415
 324  912.746
 325  747.0057
 326  737.5217
 327  683.9266
 328  634.7853
 329  654.6359
 330  615.6573
 331  732.9948
 332  812.125
 333  725.2836
 334  674.4492
 335  666.1436
 336  626.9422
 337  589.3559
 338  604.5048
 339  654.1969
 340  721.0472
 341  687.8268
 342  723.528
 343  719.2678
 344  680.7128
 345  593.8466
 346  506.1535
 347  541.0625
 348  592.1606
 349  579.199
 350  593.8688
 351  643.1993
 352  659.9991
 353  773.6371
 354  706.284
 355  659.4634
 356  640.7914
 357  520.024
 358  530.2249
 359  568.0793
 360  509.8443
 361  644.308
 362  643.8134
 363  650.1631
 364  691.4435
 365  717.6238
 366  568.9333
 367  509.4419
 368  653.0397
 369  627.6987
 370  714.8749
 371  729.4899
 372  707.3204
 373  541.7599
 374  605.9126
 375  613.9351
 376  553.1396
 377  608.9072
 378  647.7364
 379  639.5775
 380  737.5096
 381  656.773
 382  706.4347
 383  726.5861
 384  665.2565
 385  635.3116
 386  581.7
 387  553.8055
 388  581.4138
 389  649.8215
 390  602.3469
 391  591.8109
 392  625.2242
 393  738.082
 394  669.3475
 395  594.2421
 396  737.5818
 397  703.4495
 398  698.7379
 399  680.7819
 400  662.3215
 401  697.171
 402  597.1964
 403  636.8848
 404  645.3707
 405  703.6718
 406  713.7634
 407  693.2835
 408  618.769
 409  564.7562
 410  640.0361
 411  572.5223
 412  454.4584
 413  642.838
 414  699.0413
 415  661.27
 416  548.5558
 417  488.8337
 418  582.8535
 419  477.7053
 420  507.9723
 421  585.2651
 422  585.2486
 423  674.7853
 424  598.4677
 425  478.5697
 426  602.2527
 427  632.4796
 428  521.1333
 429  558.8019
 430  659.9182
 431  629.2062
 432  540.5942
 433  583.5634
 434  669.4039
 435  666.1448
 436  724.5256
 437  745.4379
 438  716.0026
 439  729.941
 440  747.4055
 441  705.4476
 442  711.0786
 443  728.0228
 444  649.5455
 445  625.4863
 446  596.8233
 447  661.0722
 448  632.8105
 449  630.1619
 450  578.0547
 451  626.7628
 452  637.9414
 453  682.6058
 454  675.9884
 455  717.8511
 456  688.8602
 457  633.9794
 458  718.5135
 459  708.9677
 460  785.6829
 461  795.6823
 462  774.0406
 463  763.424
 464  661.328
 465  599.0565
 466  671.1772
 467  749.3695
 468  754.4089
 469  614.6209
 470  527.2396
 471  646.3307
 472  633.8074
 473  657.5438
 474  678.4883
 475  676.533
 476  631.0114
 477  652.4778
 478  674.4212
 479  605.3993
 480  656.181
 481  773.5729
 482  693.1205
 483  535.0061
 484  623.632
 485  658.5341
 486  573.6071
 487  601.5704
 488  542.6101
 489  578.9177
 490  665.9717
 491  617.9652
 492  699.2812
 493  673.0405
 494  520.3667
 495  565.0119
 496  616.842
 497  540.9958
 498  552.412
 499  554.3717
 500  635.3092
 501  654.5759
 502  753.91
 503  737.4959
 504  707.9387
 505  691.9333
 506  682.964
 507  615.3865
 508  646.9535
 509  605.3393
 510  573.903
 511  623.1636
