# Input file       =  1185177007.112782_cleaned.dat
# Candidate        =  PSR_0332+5434
# Telescope        =  AR
# Epoch_topo       =  57961.326262879418
# Epoch_bary       =  N/A
# T_sample         =  0.002
# Data Folded      =  7340032
# Data Avg         =  0.0477751408642317
# Data StdDev      =  1.00019595479653 
# Profile Bins     =  512
# Profile Avg      =  684.716861349728 
# Profile StdDev   =  119.756498639547 
# Reduced chi-sqr  =  1.243
# Prob(Noise)      <  0.00014   (~3.6 sigma)
# P_topo (ms)      =  714.47200563286   +/- 0.000372
# P'_topo (s/s)    =  -0                +/- 1.96e-10
# P''_topo (s/s^2) =  0                 +/- 8.65e-14
# P_bary (ms)      =  N/A
# P'_bary (s/s)    =  N/A
# P''_bary (s/s^2) =  N/A
# P_orb (s)        =  N/A
# asin(i)/c (s)    =  N/A
# eccentricity     =  N/A
# w (rad)          =  N/A
# T_peri           =  N/A
######################################################
   0  1136.606
   1  1134.507
   2  1049.403
   3  943.0158
   4  808.9973
   5  765.501
   6  607.2433
   7  673.8743
   8  898.519
   9  819.5215
  10  688.7344
  11  745.8819
  12  775.6998
  13  820.7387
  14  811.6442
  15  833.8589
  16  835.0506
  17  674.904
  18  686.2549
  19  643.1664
  20  690.9182
  21  803.3749
  22  865.6589
  23  978.7697
  24  765.6108
  25  683.1959
  26  644.7016
  27  564.2559
  28  596.8828
  29  720.3813
  30  800.1149
  31  669.4234
  32  548.5641
  33  643.0311
  34  555.9327
  35  554.9767
  36  671.9575
  37  690.3825
  38  719.4301
  39  584.1036
  40  574.4594
  41  644.6739
  42  792.9934
  43  746.7856
  44  753.0015
  45  671.7811
  46  659.3375
  47  681.8083
  48  688.5804
  49  733.5887
  50  765.3829
  51  767.4202
  52  706.9324
  53  758.4695
  54  709.7958
  55  640.507
  56  729.2715
  57  769.2096
  58  686.1324
  59  647.8143
  60  600.4268
  61  562.068
  62  578.3287
  63  661.6541
  64  727.1484
  65  679.3104
  66  687.3522
  67  679.3566
  68  663.3221
  69  598.0503
  70  631.7104
  71  572.0887
  72  606.9331
  73  670.5505
  74  635.2584
  75  556.8744
  76  616.7266
  77  616.5772
  78  525.1071
  79  573.2471
  80  548.7859
  81  562.2286
  82  527.7584
  83  497.3226
  84  576.6346
  85  734.2104
  86  679.932
  87  507.2261
  88  527.0267
  89  686.4801
  90  529.1764
  91  497.8335
  92  576.1608
  93  585.4033
  94  585.0087
  95  634.3629
  96  606.4392
  97  604.6706
  98  680.2181
  99  734.9833
 100  688.7308
 101  724.5491
 102  639.0825
 103  556.5861
 104  650.894
 105  735.1014
 106  621.5893
 107  595.2857
 108  613.627
 109  656.1379
 110  635.5194
 111  582.7319
 112  548.9096
 113  453.1528
 114  424.0902
 115  557.8408
 116  687.5273
 117  688.4285
 118  594.8789
 119  548.1226
 120  614.1569
 121  581.2381
 122  590.6473
 123  608.9841
 124  596.3969
 125  583.8614
 126  617.8207
 127  730.3511
 128  630.4752
 129  499.1761
 130  487.1106
 131  546.644
 132  577.8765
 133  543.5135
 134  581.9119
 135  591.8198
 136  624.4251
 137  638.5673
 138  618.8096
 139  679.655
 140  734.9196
 141  671.0353
 142  577.6606
 143  619.1017
 144  663.4342
 145  598.7383
 146  570.2715
 147  551.5866
 148  626.3018
 149  637.0906
 150  568.1995
 151  623.9622
 152  778.9763
 153  740.0917
 154  596.3271
 155  579.0663
 156  488.597
 157  548.1327
 158  565.463
 159  677.2095
 160  685.5731
 161  597.2942
 162  615.333
 163  641.7076
 164  649.7567
 165  741.7636
 166  684.441
 167  735.358
 168  686.4719
 169  660.9763
 170  731.5634
 171  738.6665
 172  868.8467
 173  836.0747
 174  593.656
 175  522.8942
 176  651.4554
 177  695.4848
 178  630.9479
 179  573.0903
 180  631.5033
 181  682.2809
 182  652.3243
 183  693.0464
 184  683.8754
 185  658.6393
 186  682.5405
 187  585.8754
 188  574.7272
 189  560.347
 190  661.4427
 191  667.3408
 192  680.4732
 193  640.06
 194  731.1296
 195  626.9761
 196  566.9392
 197  630.0558
 198  647.5803
 199  527.8809
 200  591.7322
 201  603.7783
 202  598.3663
 203  626.8976
 204  557.3489
 205  547.6056
 206  562.3761
 207  593.5964
 208  551.9296
 209  500.8077
 210  530.3171
 211  666.3417
 212  669.6404
 213  623.1409
 214  707.9766
 215  623.3331
 216  657.324
 217  662.4974
 218  750.2149
 219  671.6977
 220  668.6068
 221  658.5765
 222  786.3927
 223  678.6265
 224  651.4687
 225  726.8444
 226  760.7397
 227  663.155
 228  565.8
 229  625.8614
 230  652.0633
 231  476.2167
 232  523.6118
 233  701.8804
 234  712.2284
 235  664.4183
 236  589.8381
 237  675.9684
 238  639.1484
 239  675.2603
 240  598.0714
 241  573.8712
 242  645.0137
 243  678.963
 244  667.3668
 245  719.0853
 246  705.1078
 247  776.0458
 248  805.9445
 249  729.7436
 250  738.2927
 251  727.721
 252  791.0759
 253  793.6525
 254  794.5461
 255  777.0887
 256  773.2864
 257  709.0234
 258  744.1476
 259  628.5582
 260  526.8679
 261  693.2032
 262  657.3113
 263  543.4067
 264  515.5914
 265  633.9633
 266  712.6177
 267  626.6194
 268  569.4218
 269  569.2545
 270  600.8231
 271  600.0528
 272  696.4928
 273  714.7013
 274  680.3439
 275  650.4932
 276  696.9009
 277  724.4989
 278  746.7003
 279  704.1773
 280  772.2614
 281  753.1443
 282  790.5475
 283  775.5717
 284  713.6097
 285  713.0768
 286  838.3604
 287  720.7111
 288  695.6572
 289  555.8515
 290  667.7822
 291  830.3094
 292  769.9468
 293  848.9653
 294  747.2864
 295  742.465
 296  742.1677
 297  730.3662
 298  701.7178
 299  704.7841
 300  771.9858
 301  928.318
 302  788.918
 303  742.7545
 304  758.3062
 305  711.6701
 306  735.48
 307  574.0798
 308  638.4583
 309  753.5217
 310  774.4702
 311  765.0413
 312  746.4285
 313  767.3165
 314  625.9608
 315  722.4985
 316  750.7917
 317  827.4705
 318  759.3013
 319  721.302
 320  860.9009
 321  827.9736
 322  678.0847
 323  810.2365
 324  845.9853
 325  711.7487
 326  753.5405
 327  790.6108
 328  774.2097
 329  819.7526
 330  752.3481
 331  652.5388
 332  704.3397
 333  710.4746
 334  723.6359
 335  636.2448
 336  662.3789
 337  673.7986
 338  586.1021
 339  671.2021
 340  549.7679
 341  639.3931
 342  690.568
 343  641.4426
 344  573.0699
 345  599.8123
 346  564.688
 347  739.6489
 348  696.2497
 349  757.6809
 350  678.295
 351  797.502
 352  749.9975
 353  800.0513
 354  762.8105
 355  721.18
 356  801.6811
 357  802.0569
 358  709.4801
 359  751.3474
 360  627.7297
 361  650.1792
 362  815.4096
 363  674.4391
 364  648.6589
 365  654.0157
 366  689.9437
 367  840.6795
 368  743.8538
 369  680.5591
 370  707.8614
 371  629.477
 372  697.5807
 373  703.4343
 374  652.5784
 375  577.8926
 376  604.8301
 377  650.3239
 378  677.5593
 379  624.5441
 380  787.306
 381  790.1359
 382  739.2343
 383  705.9802
 384  669.1132
 385  702.2461
 386  737.2625
 387  701.9991
 388  725.2432
 389  662.1576
 390  646.9585
 391  731.9526
 392  654.5663
 393  655.9905
 394  732.6543
 395  711.6312
 396  803.7456
 397  731.8215
 398  701.0521
 399  618.5188
 400  639.0516
 401  734.6886
 402  707.8187
 403  575.0419
 404  607.9559
 405  677.6949
 406  675.7109
 407  739.5854
 408  740.8477
 409  620.4219
 410  474.5758
 411  585.2331
 412  683.8678
 413  621.5179
 414  528.5424
 415  607.8683
 416  661.714
 417  631.1105
 418  670.9622
 419  748.6926
 420  700.5128
 421  683.3599
 422  810.685
 423  697.0896
 424  706.5437
 425  691.3323
 426  662.977
 427  666.8442
 428  654.0663
 429  585.7653
 430  560.1795
 431  595.9577
 432  656.4956
 433  635.9554
 434  710.5663
 435  581.8694
 436  571.6366
 437  616.8109
 438  682.6655
 439  663.4146
 440  676.4739
 441  627.9295
 442  646.6896
 443  750.0903
 444  740.5142
 445  675.0735
 446  685.1954
 447  678.9903
 448  749.51
 449  727.1832
 450  717.0759
 451  866.9377
 452  795.1865
 453  728.0553
 454  717.9641
 455  750.3719
 456  758.0953
 457  813.9033
 458  876.613
 459  784.7616
 460  829.4553
 461  840.8016
 462  828.9521
 463  703.7265
 464  750.3274
 465  799.8448
 466  742.5676
 467  729.7786
 468  678.1375
 469  675.3585
 470  678.8405
 471  756.5366
 472  769.2601
 473  652.0546
 474  649.4226
 475  710.0913
 476  717.7385
 477  745.8372
 478  767.8818
 479  725.9058
 480  750.5554
 481  809.9088
 482  764.7526
 483  713.2574
 484  843.9837
 485  821.5681
 486  653.8865
 487  670.4122
 488  713.2148
 489  771.032
 490  818.8239
 491  743.4696
 492  648.0397
 493  660.5944
 494  755.83
 495  733.2437
 496  804.0453
 497  803.1484
 498  776.6154
 499  676.4111
 500  758.7573
 501  684.1096
 502  639.7937
 503  636.2076
 504  657.2849
 505  732.4596
 506  786.4642
 507  812.1631
 508  918.5696
 509  1032.153
 510  1103.988
 511  1101.773
