# Input file       =  1185607824.109255_cleaned.dat
# Candidate        =  PSR_0332+5434
# Telescope        =  AR
# Epoch_topo       =  57966.312570708971
# Epoch_bary       =  N/A
# T_sample         =  0.002
# Data Folded      =  7340032
# Data Avg         =  0.0480669460003335
# Data StdDev      =  1.00035370616311 
# Profile Bins     =  512
# Profile Avg      =  689.087016825857 
# Profile StdDev   =  119.77538668966  
# Reduced chi-sqr  =  1.633
# Prob(Noise)      <  5.79e-18   (~8.6 sigma)
# P_topo (ms)      =  714.46969146718   +/- 0.000561
# P'_topo (s/s)    =  -0                +/- 2.96e-10
# P''_topo (s/s^2) =  0                 +/- 1.31e-13
# P_bary (ms)      =  N/A
# P'_bary (s/s)    =  N/A
# P''_bary (s/s^2) =  N/A
# P_orb (s)        =  N/A
# asin(i)/c (s)    =  N/A
# eccentricity     =  N/A
# w (rad)          =  N/A
# T_peri           =  N/A
######################################################
   0  1165.346
   1  1061.837
   2  1015.994
   3  923.8232
   4  742.6404
   5  707.9069
   6  640.6177
   7  649.7404
   8  709.0571
   9  774.9388
  10  686.1817
  11  603.1746
  12  807.9973
  13  798.2275
  14  887.9006
  15  832.3818
  16  677.067
  17  633.3135
  18  745.4119
  19  722.0582
  20  655.2477
  21  802.1023
  22  540.3809
  23  500.257
  24  596.6153
  25  606.8177
  26  654.7174
  27  747.8513
  28  653.1615
  29  576.9999
  30  615.7953
  31  643.814
  32  688.1462
  33  550.9502
  34  527.4374
  35  649.593
  36  689.0112
  37  762.8854
  38  824.1912
  39  771.6429
  40  669.5872
  41  655.2329
  42  747.754
  43  864.9151
  44  687.4824
  45  685.8015
  46  702.925
  47  704.6165
  48  716.5588
  49  683.4986
  50  668.8782
  51  709.0317
  52  635.4815
  53  684.5673
  54  744.6422
  55  775.052
  56  803.6919
  57  683.347
  58  836.9376
  59  748.7867
  60  643.2608
  61  771.1589
  62  758.2787
  63  701.2311
  64  670.5241
  65  625.7789
  66  618.9877
  67  602.4243
  68  721.7061
  69  749.4921
  70  784.9854
  71  783.4138
  72  776.9042
  73  761.1268
  74  783.6937
  75  748.621
  76  833.0308
  77  778.1796
  78  756.4457
  79  730.9218
  80  762.7512
  81  781.2855
  82  724.8146
  83  682.9733
  84  761.5829
  85  713.7268
  86  766.3538
  87  700.0576
  88  694.6328
  89  723.3836
  90  713.6013
  91  752.8851
  92  670.5377
  93  606.8209
  94  672.3163
  95  760.1635
  96  719.3875
  97  715.4569
  98  596.3967
  99  570.1049
 100  596.4853
 101  664.0392
 102  744.941
 103  676.4063
 104  737.3423
 105  751.332
 106  711.0811
 107  746.81
 108  749.1645
 109  765.4678
 110  670.2982
 111  741.921
 112  656.8878
 113  664.0995
 114  688.6512
 115  664.9184
 116  668.6042
 117  739.0476
 118  724.1777
 119  677.7981
 120  676.1849
 121  690.4821
 122  697.3984
 123  598.3079
 124  613.9159
 125  595.5963
 126  617.867
 127  596.3257
 128  705.5779
 129  687.0134
 130  678.5706
 131  691.7441
 132  724.3542
 133  653.9704
 134  638.2493
 135  676.7405
 136  700.9275
 137  774.3967
 138  727.5422
 139  655.833
 140  612.6774
 141  618.5692
 142  534.9948
 143  603.8914
 144  747.1363
 145  610.7211
 146  594.9467
 147  534.9039
 148  594.4599
 149  557.2675
 150  522.082
 151  596.244
 152  615.0409
 153  617.5033
 154  611.1795
 155  615.9149
 156  596.6337
 157  534.6084
 158  541.4986
 159  612.8629
 160  593.8212
 161  603.4144
 162  586.6493
 163  637.3108
 164  565.9432
 165  431.2777
 166  486.5735
 167  521.3852
 168  498.3313
 169  514.6354
 170  398.7067
 171  555.1323
 172  585.6627
 173  481.5096
 174  301.4218
 175  373.8564
 176  439.7103
 177  433.4863
 178  501.0748
 179  516.6519
 180  520.2527
 181  459.0243
 182  434.6649
 183  401.5215
 184  513.0137
 185  577.0649
 186  624.9918
 187  616.0387
 188  642.3826
 189  602.7598
 190  576.2632
 191  596.8605
 192  481.3894
 193  526.2014
 194  552.2252
 195  541.161
 196  596.6266
 197  641.1609
 198  669.4531
 199  586.6213
 200  557.4539
 201  643.6707
 202  669.6005
 203  680.5533
 204  657.0276
 205  560.8541
 206  537.8814
 207  501.3404
 208  504.6317
 209  584.6675
 210  518.0667
 211  527.9797
 212  574.8792
 213  591.1808
 214  481.332
 215  535.1907
 216  550.0201
 217  548.8737
 218  560.8388
 219  559.24
 220  629.4052
 221  520.1725
 222  575.2202
 223  683.7913
 224  617.9587
 225  586.8775
 226  622.8989
 227  615.1528
 228  650.6032
 229  642.2393
 230  596.9951
 231  525.4648
 232  519.5916
 233  617.4455
 234  700.2729
 235  658.6873
 236  588.5636
 237  602.1689
 238  688.2746
 239  596.4435
 240  572.3328
 241  627.0668
 242  596.2283
 243  556.4547
 244  494.0894
 245  483.9199
 246  487.9154
 247  549.2253
 248  573.9465
 249  493.5878
 250  579.1455
 251  496.1708
 252  585.8147
 253  688.7123
 254  644.2109
 255  637.4308
 256  692.7065
 257  638.8726
 258  657.0346
 259  672.2206
 260  621.5029
 261  710.8849
 262  714.7302
 263  730.041
 264  672.58
 265  647.6042
 266  673.9423
 267  635.9121
 268  694.2531
 269  651.8578
 270  634.5653
 271  670.0962
 272  684.9782
 273  712.2062
 274  667.635
 275  712.475
 276  628.3629
 277  600.8471
 278  649.0463
 279  622.2282
 280  642.9782
 281  711.6404
 282  745.6114
 283  607.5699
 284  595.8735
 285  623.647
 286  599.3139
 287  575.7568
 288  700.5364
 289  763.9953
 290  695.8607
 291  801.0545
 292  756.3693
 293  621.2554
 294  679.662
 295  770.5051
 296  653.9857
 297  683.7303
 298  746.525
 299  946.6431
 300  864.7471
 301  741.8956
 302  748.0042
 303  718.3773
 304  770.0589
 305  818.1785
 306  698.034
 307  693.9551
 308  768.6422
 309  713.3183
 310  725.8879
 311  767.2785
 312  850.7367
 313  812.5341
 314  746.0107
 315  743.7675
 316  754.1889
 317  736.2863
 318  811.2985
 319  735.472
 320  615.682
 321  641.0615
 322  661.5573
 323  616.9251
 324  669.1615
 325  623.6265
 326  716.9683
 327  748.4791
 328  722.181
 329  631.7467
 330  606.0977
 331  730.0306
 332  593.0621
 333  634.1
 334  667.3113
 335  694.7826
 336  705.7553
 337  607.1401
 338  531.6835
 339  580.5214
 340  661.397
 341  713.8485
 342  779.1055
 343  789.6877
 344  780.6645
 345  785.3615
 346  729.7048
 347  716.117
 348  781.1165
 349  810.7109
 350  893.9142
 351  844.8001
 352  809.7167
 353  860.9512
 354  926.1447
 355  919.7566
 356  773.5603
 357  731.3088
 358  700.7389
 359  777.05
 360  850.0341
 361  887.4052
 362  966.5648
 363  825.1522
 364  775.9738
 365  746.7363
 366  764.3469
 367  745.0324
 368  774.2684
 369  787.1887
 370  765.8936
 371  831.1071
 372  783.8461
 373  818.378
 374  802.7115
 375  797.4067
 376  777.394
 377  839.7869
 378  756.6687
 379  722.2203
 380  782.0453
 381  679.7632
 382  675.2305
 383  758.5669
 384  817.3922
 385  753.4155
 386  707.4454
 387  736.4203
 388  742.8958
 389  644.2247
 390  817.2983
 391  880.3564
 392  754.6868
 393  763.1562
 394  670.2715
 395  701.0568
 396  751.4741
 397  703.2048
 398  714.0106
 399  834.7328
 400  813.9403
 401  812.9802
 402  672.5032
 403  801.9066
 404  816.65
 405  851.2912
 406  885.9862
 407  923.5456
 408  888.603
 409  790.4409
 410  848.4687
 411  760.116
 412  871.6351
 413  925.7552
 414  877.2684
 415  886.3524
 416  931.4182
 417  897.1384
 418  797.0573
 419  841.0253
 420  890.0488
 421  825.7448
 422  910.6046
 423  1006.294
 424  899.261
 425  795.1191
 426  761.8977
 427  863.9942
 428  778.8435
 429  785.1201
 430  723.3984
 431  735.1182
 432  745.6801
 433  779.6757
 434  715.9569
 435  684.501
 436  737.6693
 437  835.1998
 438  693.9877
 439  684.5002
 440  759.0716
 441  766.1822
 442  738.1492
 443  797.4523
 444  775.429
 445  730.2021
 446  658.1636
 447  621.1547
 448  646.9354
 449  789.9097
 450  731.3414
 451  740.1309
 452  752.3445
 453  690.6392
 454  705.8807
 455  666.5985
 456  613.8898
 457  654.6003
 458  693.986
 459  673.2369
 460  547.2001
 461  577.2576
 462  705.9409
 463  741.8217
 464  721.6619
 465  635.7089
 466  613.9139
 467  655.7704
 468  577.709
 469  520.4056
 470  532.1835
 471  617.4507
 472  596.2347
 473  673.2626
 474  722.6575
 475  675.8271
 476  720.5306
 477  669.4282
 478  645.103
 479  740.9089
 480  696.3324
 481  644.0172
 482  609.9523
 483  656.133
 484  695.8406
 485  665.4003
 486  650.8412
 487  587.7372
 488  602.1884
 489  639.7219
 490  544.9288
 491  610.5837
 492  698.3823
 493  724.8528
 494  662.213
 495  599.2663
 496  684.1933
 497  670.3636
 498  783.2654
 499  772.228
 500  650.578
 501  671.5896
 502  732.2081
 503  704.1758
 504  707.3447
 505  730.8583
 506  965.4526
 507  977.7652
 508  820.4247
 509  879.6319
 510  929.3707
 511  1083.655
