# Input file       =  1185607824.109255_cleaned.dat
# Candidate        =  PSR_0332+5434
# Telescope        =  AR
# Epoch_topo       =  57966.312570708971
# Epoch_bary       =  N/A
# T_sample         =  0.002
# Data Folded      =  7340032
# Data Avg         =  0.0480669460003335
# Data StdDev      =  1.00035370616311 
# Profile Bins     =  512
# Profile Avg      =  689.08701678771  
# Profile StdDev   =  119.77538668966  
# Reduced chi-sqr  =  1.635
# Prob(Noise)      <  4.91e-18   (~8.6 sigma)
# P_topo (ms)      =  714.469691409894  +/- 0.000553
# P'_topo (s/s)    =  -0                +/- 2.92e-10
# P''_topo (s/s^2) =  0                 +/- 1.29e-13
# P_bary (ms)      =  N/A
# P'_bary (s/s)    =  N/A
# P''_bary (s/s^2) =  N/A
# P_orb (s)        =  N/A
# asin(i)/c (s)    =  N/A
# eccentricity     =  N/A
# w (rad)          =  N/A
# T_peri           =  N/A
######################################################
   0  1125.781
   1  1016.221
   2  985.9938
   3  813.4111
   4  713.9622
   5  678.6844
   6  630.9908
   7  685.6401
   8  751.9069
   9  748.4372
  10  600.3434
  11  711.1582
  12  822.8907
  13  823.5446
  14  896.6725
  15  742.5583
  16  641.4423
  17  686.3765
  18  760.7351
  19  639.3215
  20  775.1286
  21  676.0172
  22  472.6766
  23  564.0661
  24  606.6722
  25  618.4949
  26  718.3566
  27  718.5425
  28  598.3011
  29  590.6204
  30  622.1794
  31  692.8447
  32  622.4557
  33  510.4823
  34  589.7286
  35  676.3301
  36  727.6895
  37  816.5428
  38  795.8904
  39  717.2067
  40  630.2293
  41  701.4658
  42  829.1313
  43  796.0425
  44  660.0129
  45  706.2806
  46  688.6612
  47  704.0443
  48  699.2977
  49  665.6768
  50  703.5591
  51  687.191
  52  652.1851
  53  722.106
  54  751.4993
  55  818.5782
  56  704.3563
  57  759.3231
  58  827.5267
  59  662.4514
  60  704.4402
  61  815.1784
  62  678.6115
  63  723.6996
  64  603.1129
  65  653.7079
  66  579.1169
  67  682.5449
  68  746.7935
  69  758.3504
  70  786.8047
  71  773.7077
  72  766.0911
  73  788.6132
  74  743.3682
  75  809.6865
  76  806.3353
  77  764.4105
  78  740.2479
  79  742.2573
  80  771.4039
  81  772.6381
  82  674.7258
  83  750.2759
  84  719.5571
  85  752.2808
  86  724.5196
  87  691.0836
  88  704.0441
  89  726.8209
  90  730.2732
  91  730.629
  92  620.0095
  93  619.4938
  94  750.9277
  95  726.986
  96  746.9713
  97  647.4794
  98  566.7911
  99  573.4064
 100  619.1071
 101  731.8525
 102  699.3156
 103  699.5912
 104  769.6113
 105  720.651
 106  737.0584
 107  722.5719
 108  780.5864
 109  693.6966
 110  718.6253
 111  702.1706
 112  651.3651
 113  687.8987
 114  658.1953
 115  659.7721
 116  705.1832
 117  762.0814
 118  689.4446
 119  688.3378
 120  656.4044
 121  726.2235
 122  624.5797
 123  614.8031
 124  595.5838
 125  619.8582
 126  590.2282
 127  655.8686
 128  711.2043
 129  672.8937
 130  680.2557
 131  718.3211
 132  685.4047
 133  634.8716
 134  674.681
 135  684.1057
 136  751.0882
 137  763.5884
 138  669.2303
 139  630.8745
 140  602.9658
 141  591.7096
 142  531.5723
 143  719.5757
 144  678.5947
 145  592.2047
 146  564.4332
 147  561.8652
 148  575.2292
 149  543.4926
 150  538.277
 151  637.2135
 152  588.8659
 153  633.1501
 154  601.7639
 155  621.9989
 156  557.5402
 157  528.1642
 158  587.7488
 159  595.0936
 160  598.88
 161  596.1674
 162  614.6966
 163  636.0839
 164  456.1836
 165  458.6691
 166  512.4588
 167  511.3107
 168  511.3682
 169  441.2439
 170  463.8511
 171  605.0687
 172  553.2201
 173  349.9489
 174  318.5527
 175  423.8735
 176  438.7343
 177  459.4172
 178  521.7112
 179  534.1147
 180  480.6746
 181  451.9337
 182  381.7678
 183  474.7648
 184  544.8015
 185  621.6976
 186  611.8592
 187  627.1371
 188  638.3398
 189  568.3863
 190  607.9109
 191  513.9998
 192  500.3914
 193  548.8027
 194  549.5237
 195  572.7896
 196  615.4501
 197  672.3923
 198  613.9167
 199  557.6007
 200  603.4416
 201  672.4241
 202  679.8486
 203  683.6301
 204  584.1021
 205  545.1509
 206  509.1562
 207  509.5272
 208  557.3662
 209  561.4851
 210  504.8189
 211  549.6517
 212  604.2514
 213  528.921
 214  488.8617
 215  560.5453
 216  538.5179
 217  565.3379
 218  543.2379
 219  615.3651
 220  568.7574
 221  524.1132
 222  642.2154
 223  676.0692
 224  576.3552
 225  624.0216
 226  599.8113
 227  645.5467
 228  635.4321
 229  630.2461
 230  558.163
 231  506.7404
 232  567.8716
 233  658.7494
 234  719.3226
 235  593.6884
 236  600.6679
 237  648.7432
 238  657.3889
 239  557.5596
 240  604.6104
 241  617.6198
 242  568.522
 243  530.446
 244  494.3233
 245  486.3469
 246  515.7402
 247  564.1459
 248  513.2626
 249  532.2197
 250  555.9066
 251  519.8793
 252  671.7854
 253  662.9265
 254  639.6052
 255  660.2344
 256  679.0305
 257  617.2567
 258  693.7961
 259  621.3162
 260  673.3817
 261  716.6114
 262  734.6115
 263  711.0198
 264  639.4802
 265  672.7628
 266  641.7245
 267  662.8359
 268  688.6511
 269  626.3735
 270  663.7137
 271  678.658
 272  696.9988
 273  697.3091
 274  682.5062
 275  700.1752
 276  567.6748
 277  637.8416
 278  623.1888
 279  636.9603
 280  673.0408
 281  758.9268
 282  671.3094
 283  584.7471
 284  613.6039
 285  605.7867
 286  584.6271
 287  630.0557
 288  764.7113
 289  713.7402
 290  735.7336
 291  819.9025
 292  660.2565
 293  633.9376
 294  758.322
 295  709.5328
 296  635.4417
 297  723.3771
 298  850.7276
 299  959.8228
 300  754.9441
 301  756.3809
 302  734.0219
 303  734.3136
 304  814.5856
 305  751.7535
 306  664.0565
 307  749.4905
 308  734.6984
 309  718.9299
 310  741.7735
 311  821.4214
 312  849.7407
 313  765.4727
 314  733.0893
 315  763.5714
 316  715.2517
 317  803.3406
 318  778.7032
 319  671.402
 320  605.8863
 321  675.9826
 322  623.0782
 323  639.6261
 324  649.2479
 325  661.421
 326  746.8204
 327  754.4604
 328  679.2925
 329  600.8417
 330  677.1026
 331  666.6307
 332  571.7401
 333  684.2197
 334  666.9107
 335  717.8163
 336  667.2841
 337  541.0034
 338  563.1337
 339  594.9096
 340  716.1592
 341  736.1712
 342  804.5227
 343  777.0052
 344  784.3832
 345  763.2189
 346  702.5469
 347  758.3347
 348  797.406
 349  862.2139
 350  884.4013
 351  810.2826
 352  818.7699
 353  903.4971
 354  934.1975
 355  853.6039
 356  736.0287
 357  727.1923
 358  714.4327
 359  839.4533
 360  833.0126
 361  959.671
 362  900.0796
 363  794.2905
 364  752.1711
 365  757.4324
 366  745.2101
 367  754.489
 368  797.1326
 369  765.3832
 370  815.6263
 371  805.9891
 372  795.1863
 373  806.7192
 374  802.6735
 375  776.9284
 376  824.3796
 377  791.2092
 378  740.9362
 379  748.6467
 380  757.2914
 381  636.5609
 382  724.0578
 383  798.6506
 384  795.7504
 385  723.8354
 386  709.8876
 387  766.7652
 388  662.6339
 389  726.3229
 390  893.868
 391  802.659
 392  752.6306
 393  718.3089
 394  661.0385
 395  747.1371
 396  731.8437
 397  685.0043
 398  783.8381
 399  830.081
 400  833.3203
 401  721.5586
 402  728.0994
 403  834.4361
 404  816.0018
 405  885.4153
 406  881.6403
 407  944.7555
 408  806.2042
 409  831.012
 410  804.7521
 411  795.3605
 412  925.0206
 413  892.2827
 414  867.142
 415  927.6777
 416  931.0353
 417  834.9034
 418  806.4678
 419  861.9544
 420  871.7648
 421  830.8936
 422  1014.861
 423  950.289
 424  834.6606
 425  741.3568
 426  839.2963
 427  817.245
 428  778.9306
 429  752.6075
 430  725.8839
 431  746.209
 432  764.6373
 433  757.8225
 434  667.217
 435  714.3968
 436  801.1914
 437  791.0552
 438  660.9689
 439  724.5965
 440  778.7809
 441  722.6137
 442  791.5166
 443  776.7816
 444  774.1326
 445  663.3677
 446  653.5851
 447  601.1195
 448  756.8235
 449  761.3737
 450  716.1536
 451  755.1771
 452  714.4768
 453  711.9066
 454  693.5559
 455  630.2009
 456  606.6824
 457  686.9868
 458  700.2245
 459  611.9332
 460  529.3053
 461  663.5977
 462  736.1059
 463  732.7384
 464  680.416
 465  592.6334
 466  652.9293
 467  619.8876
 468  549.0826
 469  507.6349
 470  598.8396
 471  586.4442
 472  638.0627
 473  695.3297
 474  718.2097
 475  680.2694
 476  732.7252
 477  611.2563
 478  714.6096
 479  716.1621
 480  673.0767
 481  616.2424
 482  640.6538
 483  681.7033
 484  676.6098
 485  652.3522
 486  615.8683
 487  575.0103
 488  650.0239
 489  586.7538
 490  562.4959
 491  668.9704
 492  719.4516
 493  708.6229
 494  594.0353
 495  666.3607
 496  660.7701
 497  751.5974
 498  785.0713
 499  714.807
 500  630.6174
 501  707.6743
 502  716.0222
 503  703.7112
 504  714.3711
 505  848.6146
 506  1018.892
 507  860.3209
 508  838.1302
 509  914.5599
 510  1004.708
 511  1154.584
