# Input file       =  1185435458.11371_cleaned.dat
# Candidate        =  PSR_0332+5434
# Telescope        =  AR
# Epoch_topo       =  57964.317593908680
# Epoch_bary       =  N/A
# T_sample         =  0.002
# Data Folded      =  7340032
# Data Avg         =  0.0489292713686267
# Data StdDev      =  1.00010895077058 
# Profile Bins     =  512
# Profile Avg      =  701.378663332668 
# Profile StdDev   =  119.746081383343 
# Reduced chi-sqr  =  2.019
# Prob(Noise)      <  1.89e-37   (~12.7 sigma)
# P_topo (ms)      =  714.470572237598  +/- 0.000314
# P'_topo (s/s)    =  -0                +/- 1.66e-10
# P''_topo (s/s^2) =  0                 +/- 7.31e-14
# P_bary (ms)      =  N/A
# P'_bary (s/s)    =  N/A
# P''_bary (s/s^2) =  N/A
# P_orb (s)        =  N/A
# asin(i)/c (s)    =  N/A
# eccentricity     =  N/A
# w (rad)          =  N/A
# T_peri           =  N/A
######################################################
   0  1370.692
   1  1278.936
   2  1203.871
   3  1113.044
   4  934.4645
   5  892.747
   6  932.8106
   7  891.3058
   8  936.2895
   9  853.6992
  10  792.1338
  11  819.739
  12  850.3162
  13  801.2756
  14  823.0172
  15  925.7795
  16  826.9881
  17  813.5998
  18  824.5126
  19  875.2628
  20  857.2105
  21  772.1307
  22  674.0317
  23  720.0916
  24  738.9207
  25  741.6521
  26  664.921
  27  711.3464
  28  765.681
  29  633.0021
  30  552.0467
  31  676.7725
  32  696.8104
  33  669.9062
  34  677.7722
  35  734.2405
  36  814.9971
  37  734.7252
  38  728.7813
  39  652.5466
  40  713.7047
  41  718.7938
  42  785.2217
  43  776.8249
  44  696.1136
  45  673.2197
  46  748.8118
  47  729.2358
  48  709.8974
  49  702.1268
  50  751.4144
  51  827.3716
  52  784.1545
  53  777.5963
  54  776.8033
  55  841.8427
  56  797.1678
  57  817.4054
  58  796.9208
  59  727.1248
  60  711.622
  61  664.1805
  62  675.8221
  63  711.0883
  64  723.3676
  65  702.9943
  66  721.3792
  67  771.8521
  68  805.3549
  69  782.7011
  70  748.1776
  71  743.0279
  72  714.73
  73  764.455
  74  820.0989
  75  817.6786
  76  770.4731
  77  715.5953
  78  860.7089
  79  865.1392
  80  869.5306
  81  903.5234
  82  913.8151
  83  820.9095
  84  790.8203
  85  653.173
  86  634.4747
  87  700.2391
  88  774.1157
  89  754.5363
  90  769.8681
  91  831.3452
  92  712.3476
  93  703.7877
  94  659.5965
  95  709.4822
  96  638.9049
  97  506.4229
  98  580.1122
  99  719.8945
 100  690.4363
 101  695.5276
 102  634.3063
 103  575.6954
 104  606.6292
 105  608.7969
 106  700.3672
 107  564.6718
 108  546.275
 109  613.1525
 110  561.0983
 111  554.9846
 112  671.0031
 113  664.5447
 114  698.5605
 115  627.9786
 116  611.5059
 117  697.9747
 118  724.6688
 119  755.965
 120  716.235
 121  672.811
 122  570.9312
 123  656.8045
 124  730.2971
 125  675.3962
 126  685.2103
 127  695.2038
 128  697.7951
 129  583.8797
 130  599.0389
 131  666.4594
 132  720.9819
 133  700.2912
 134  720.9553
 135  859.0454
 136  843.0189
 137  713.295
 138  647.4459
 139  657.2705
 140  609.5014
 141  746.9084
 142  851.8744
 143  821.7021
 144  755.8845
 145  745.338
 146  797.3427
 147  834.2682
 148  796.8759
 149  726.4816
 150  755.874
 151  860.4747
 152  740.9753
 153  696.1788
 154  697.6833
 155  782.381
 156  775.4755
 157  690.8986
 158  678.0889
 159  688.2515
 160  788.9825
 161  710.155
 162  623.887
 163  559.9348
 164  589.6762
 165  721.5548
 166  696.9959
 167  580.785
 168  625.3499
 169  623.1087
 170  676.0543
 171  716.1151
 172  731.2141
 173  640.9148
 174  622.4017
 175  729.8685
 176  681.7394
 177  601.4273
 178  572.1038
 179  558.4529
 180  591.0491
 181  663.1751
 182  644.0588
 183  589.3008
 184  569.9924
 185  653.488
 186  675.4458
 187  567.3173
 188  436.3302
 189  436.2845
 190  544.8122
 191  542.2881
 192  597.0904
 193  723.8542
 194  739.4633
 195  673.2163
 196  677.6248
 197  675.4999
 198  542.993
 199  520.5439
 200  608.4664
 201  711.324
 202  798.9639
 203  765.3676
 204  809.0359
 205  637.5965
 206  675.9766
 207  668.963
 208  676.366
 209  704.8864
 210  685.9018
 211  737.8945
 212  731.418
 213  648.6053
 214  855.0918
 215  799.0694
 216  690.0941
 217  852.623
 218  867.5196
 219  826.6381
 220  836.9507
 221  796.6743
 222  791.6957
 223  903.7803
 224  785.9852
 225  762.0522
 226  893.8401
 227  910.7021
 228  812.9268
 229  735.8796
 230  730.8716
 231  770.6579
 232  759.2118
 233  694.2411
 234  706.3557
 235  771.1992
 236  780.1966
 237  682.3258
 238  659.7822
 239  629.5802
 240  592.5804
 241  648.7659
 242  665.5545
 243  570.4467
 244  519.3864
 245  625.2952
 246  649.235
 247  603.2543
 248  618.3035
 249  645.299
 250  635.6844
 251  582.8762
 252  694.3284
 253  612.9404
 254  578.0643
 255  555.7407
 256  666.6945
 257  640.7894
 258  599.4323
 259  663.2042
 260  653.6771
 261  623.7658
 262  525.3357
 263  509.9371
 264  500.6603
 265  582.6423
 266  658.6028
 267  613.5738
 268  579.1646
 269  652.3092
 270  732.3725
 271  600.4471
 272  484.8381
 273  537.8988
 274  567.5245
 275  599.3535
 276  610.4137
 277  604.5305
 278  608.0819
 279  563.6585
 280  594.2595
 281  648.6584
 282  597.0507
 283  632.7109
 284  623.7794
 285  609.0652
 286  678.8178
 287  722.8945
 288  772.4974
 289  623.0137
 290  626.3964
 291  722.152
 292  692.9533
 293  702.076
 294  754.6556
 295  842.5401
 296  735.9293
 297  710.823
 298  695.6506
 299  662.4949
 300  724.0328
 301  633.3043
 302  653.8624
 303  625.2383
 304  600.4875
 305  636.9972
 306  593.3282
 307  542.7564
 308  563.7817
 309  599.7584
 310  608.8122
 311  559.1728
 312  594.9918
 313  665.4948
 314  717.5468
 315  676.8953
 316  613.4677
 317  591.1267
 318  721.1302
 319  752.5718
 320  706.3525
 321  693.7634
 322  683.1054
 323  599.074
 324  549.7681
 325  590.0042
 326  545.0284
 327  495.873
 328  471.9062
 329  593.6058
 330  576.8887
 331  582.8591
 332  550.4578
 333  531.6152
 334  543.1229
 335  547.3632
 336  527.306
 337  463.3156
 338  527.5284
 339  684.6786
 340  623.8018
 341  521.832
 342  561.1421
 343  558.54
 344  633.15
 345  645.0974
 346  598.7945
 347  658.4733
 348  634.9294
 349  627.1477
 350  667.6541
 351  742.1931
 352  637.8442
 353  604.4902
 354  740.9019
 355  719.9714
 356  722.8062
 357  725.8701
 358  749.5478
 359  622.2914
 360  580.3506
 361  683.1992
 362  637.8667
 363  589.7325
 364  675.5114
 365  735.535
 366  686.332
 367  684.3677
 368  654.3983
 369  672.626
 370  668.1044
 371  572.8034
 372  562.9123
 373  647.499
 374  668.2281
 375  600.7507
 376  588.5267
 377  595.4327
 378  577.7357
 379  604.6091
 380  594.374
 381  540.6255
 382  558.4753
 383  664.37
 384  614.1933
 385  552.8069
 386  609.9006
 387  662.4243
 388  506.0697
 389  478.6339
 390  563.7877
 391  537.9219
 392  518.6297
 393  546.2202
 394  462.8632
 395  380.8457
 396  536.8391
 397  561.1737
 398  610.0414
 399  588.2199
 400  610.4827
 401  610.4703
 402  539.887
 403  608.3569
 404  573.2391
 405  531.0667
 406  620.3101
 407  580.9144
 408  569.5189
 409  638.3978
 410  660.5787
 411  673.8558
 412  597.8894
 413  503.8761
 414  602.3337
 415  637.8764
 416  627.8011
 417  449.1716
 418  514.5986
 419  588.318
 420  479.7185
 421  600.3946
 422  769.344
 423  716.342
 424  677.1297
 425  664.3996
 426  673.5356
 427  589.3044
 428  674.3262
 429  742.6823
 430  776.3341
 431  699.9387
 432  736.7704
 433  797.5074
 434  747.4609
 435  762.4785
 436  759.2808
 437  784.1034
 438  787.9721
 439  714.9135
 440  762.4334
 441  739.1613
 442  716.4772
 443  863.1569
 444  941.0161
 445  867.5643
 446  882.7131
 447  858.0295
 448  845.9313
 449  842.342
 450  873.674
 451  939.6288
 452  885.4309
 453  826.5924
 454  795.9039
 455  765.8875
 456  822.1111
 457  831.4622
 458  756.8902
 459  818.0681
 460  794.7108
 461  794.0192
 462  891.2446
 463  794.8152
 464  726.8534
 465  723.472
 466  851.1365
 467  840.522
 468  821.1018
 469  805.9383
 470  813.5217
 471  859.2194
 472  832.8901
 473  785.2067
 474  813.3631
 475  809.7578
 476  705.0496
 477  684.0206
 478  730.579
 479  655.3171
 480  638.6065
 481  728.3891
 482  788.8227
 483  738.9595
 484  735.2777
 485  623.3768
 486  671.3589
 487  827.2179
 488  845.6051
 489  807.2445
 490  777.3137
 491  787.2075
 492  861.6068
 493  920.2759
 494  827.3109
 495  857.2305
 496  920.336
 497  810.3138
 498  644.3837
 499  679.1242
 500  841.2275
 501  949.7665
 502  922.7791
 503  961.0347
 504  940.9382
 505  930.3108
 506  837.937
 507  888.0593
 508  948.2554
 509  1084.166
 510  1219.843
 511  1279.235
