# Input file       =  1185090823.101021_cleaned.dat
# Candidate        =  PSR_0332+5434
# Telescope        =  AR
# Epoch_topo       =  57960.328762743302
# Epoch_bary       =  N/A
# T_sample         =  0.002
# Data Folded      =  7340032
# Data Avg         =  0.0444245108579673
# Data StdDev      =  1.00044237989966 
# Profile Bins     =  512
# Profile Avg      =  636.491385484031 
# Profile StdDev   =  119.786003865384 
# Reduced chi-sqr  =  1.318
# Prob(Noise)      <  1.74e-06   (~4.6 sigma)
# P_topo (ms)      =  714.472512480328  +/- 0.000291
# P'_topo (s/s)    =  -0                +/- 1.54e-10
# P''_topo (s/s^2) =  0                 +/- 6.78e-14
# P_bary (ms)      =  N/A
# P'_bary (s/s)    =  N/A
# P''_bary (s/s^2) =  N/A
# P_orb (s)        =  N/A
# asin(i)/c (s)    =  N/A
# eccentricity     =  N/A
# w (rad)          =  N/A
# T_peri           =  N/A
######################################################
   0  1140.36
   1  1175.69
   2  1150.602
   3  952.244
   4  853.9166
   5  702.5363
   6  798.6626
   7  801.6332
   8  640.886
   9  612.7114
  10  598.4152
  11  600.3901
  12  657.8336
  13  623.8856
  14  645.0996
  15  673.6395
  16  711.756
  17  681.3562
  18  590.5475
  19  691.0344
  20  668.1509
  21  695.1673
  22  578.6307
  23  602.8332
  24  583.6459
  25  620.2917
  26  667.7701
  27  688.2499
  28  683.3847
  29  641.6398
  30  589.2912
  31  621.849
  32  617.979
  33  544.2684
  34  692.8685
  35  680.6985
  36  644.4365
  37  651.7541
  38  707.7256
  39  761.991
  40  750.8799
  41  616.3855
  42  545.481
  43  586.7095
  44  561.834
  45  541.481
  46  632.9945
  47  706.169
  48  696.5064
  49  637.7413
  50  568.7524
  51  416.7651
  52  572.9714
  53  586.4809
  54  569.1528
  55  602.4901
  56  543.8066
  57  507.4969
  58  587.3923
  59  618.5613
  60  554.1039
  61  511.9669
  62  421.3764
  63  345.5733
  64  358.4626
  65  465.9643
  66  472.8898
  67  486.6845
  68  512.3588
  69  396.0786
  70  374.0192
  71  541.3179
  72  594.2
  73  589.9132
  74  543.1638
  75  492.4845
  76  582.9468
  77  511.8093
  78  563.7142
  79  694.2415
  80  652.6366
  81  522.7672
  82  549.0104
  83  705.6254
  84  664.4315
  85  654.9543
  86  557.4238
  87  590.9463
  88  562.7198
  89  601.5425
  90  724.668
  91  641.9004
  92  550.8743
  93  601.4586
  94  631.1493
  95  536.9057
  96  541.7582
  97  498.4483
  98  534.7752
  99  486.8591
 100  517.6057
 101  490.7087
 102  369.3959
 103  470.9399
 104  468.6367
 105  440.8575
 106  512.2764
 107  366.367
 108  496.5128
 109  611.6689
 110  504.0158
 111  543.0958
 112  667.6185
 113  564.5925
 114  564.8929
 115  577.4896
 116  570.6762
 117  553.3472
 118  640.3132
 119  575.7098
 120  506.6225
 121  469.3539
 122  592.9373
 123  619.9662
 124  639.7626
 125  548.4354
 126  629.2361
 127  593.7998
 128  595.8286
 129  581.5086
 130  624.926
 131  722.3148
 132  644.2497
 133  701.0726
 134  676.8873
 135  630.2969
 136  447.287
 137  504.3201
 138  534.6671
 139  539.2408
 140  596.3146
 141  581.032
 142  530.0691
 143  520.5153
 144  500.6141
 145  638.1557
 146  668.3094
 147  632.2316
 148  639.597
 149  636.4861
 150  595.5127
 151  576.7857
 152  614.1021
 153  720.793
 154  684.4608
 155  665.2074
 156  705.7026
 157  757.7742
 158  801.0027
 159  759.8787
 160  678.2438
 161  647.9066
 162  677.828
 163  600.2695
 164  660.6112
 165  690.8585
 166  606.6452
 167  567.4012
 168  710.7697
 169  800.9277
 170  666.6648
 171  710.1625
 172  827.1935
 173  586.7764
 174  563.7511
 175  665.298
 176  633.2865
 177  679.3445
 178  802.9968
 179  670.593
 180  685.4399
 181  687.2817
 182  683.3519
 183  756.4388
 184  692.6976
 185  712.2989
 186  729.9175
 187  747.7393
 188  700.2968
 189  694.8639
 190  796.8392
 191  716.1007
 192  693.6882
 193  718.0012
 194  739.6354
 195  808.1943
 196  834.047
 197  803.2538
 198  844.3592
 199  752.397
 200  646.2438
 201  689.1188
 202  769.3777
 203  766.9027
 204  620.5027
 205  650.127
 206  608.5436
 207  620.3488
 208  716.3329
 209  708.0562
 210  643.8715
 211  599.4446
 212  596.8434
 213  632.2849
 214  553.286
 215  536.1528
 216  541.4435
 217  609.655
 218  592.7553
 219  564.0364
 220  694.0371
 221  725.8666
 222  727.819
 223  645.7868
 224  624.8096
 225  661.0571
 226  635.9428
 227  606.342
 228  703.5129
 229  679.8057
 230  611.2908
 231  651.6824
 232  729.0189
 233  604.5451
 234  492.2496
 235  594.6096
 236  740.6817
 237  872.3635
 238  955.9073
 239  811.9285
 240  724.563
 241  732.101
 242  621.5532
 243  671.4423
 244  613.9792
 245  668.8644
 246  801.2453
 247  762.1757
 248  688.1589
 249  684.0418
 250  633.6256
 251  625.5306
 252  561.6352
 253  658.9076
 254  676.2769
 255  716.293
 256  686.6849
 257  735.929
 258  704.7993
 259  625.7237
 260  546.8994
 261  501.4963
 262  596.8901
 263  569.9154
 264  599.6459
 265  612.0693
 266  646.8987
 267  725.5536
 268  752.6035
 269  677.0002
 270  657.2832
 271  583.4507
 272  488.1795
 273  576.563
 274  510.8513
 275  585.7254
 276  658.6876
 277  649.1017
 278  656.9604
 279  729.1486
 280  627.6285
 281  516.4084
 282  597.3832
 283  659.3665
 284  661.4394
 285  724.936
 286  725.65
 287  607.086
 288  555.7368
 289  641.2394
 290  562.4543
 291  584.7811
 292  631.8137
 293  642.0211
 294  691.7338
 295  719.7056
 296  657.4052
 297  744.6325
 298  677.645
 299  654.967
 300  603.8178
 301  580.9994
 302  526.4167
 303  651.2772
 304  605.2533
 305  619.1761
 306  583.811
 307  690.7363
 308  730.5783
 309  601.6101
 310  673.5582
 311  739.8821
 312  671.2572
 313  717.6188
 314  645.1274
 315  701.5151
 316  639.5992
 317  614.3565
 318  636.4739
 319  678.1943
 320  710.3464
 321  711.1535
 322  649.624
 323  577.9245
 324  596.0148
 325  649.2475
 326  459.9658
 327  553.3907
 328  712.0176
 329  676.3519
 330  610.9977
 331  474.3694
 332  557.689
 333  525.2561
 334  466.8611
 335  570.0497
 336  573.5738
 337  642.8725
 338  657.2158
 339  510.8606
 340  534.5434
 341  646.2031
 342  566.4724
 343  523.9678
 344  629.429
 345  649.3066
 346  580.4698
 347  529.3791
 348  656.3591
 349  660.5852
 350  699.2258
 351  747.7224
 352  724.765
 353  718.1716
 354  734.3467
 355  732.647
 356  696.3296
 357  749.0062
 358  670.6778
 359  651.8262
 360  583.3426
 361  649.7042
 362  633.4658
 363  641.1939
 364  595.6819
 365  598.1349
 366  648.0713
 367  647.5683
 368  690.2697
 369  685.8478
 370  723.3801
 371  641.1377
 372  679.1553
 373  725.564
 374  736.2762
 375  799.1727
 376  785.7842
 377  760.636
 378  741.0957
 379  591.6364
 380  642.4442
 381  709.131
 382  780.5137
 383  670.8389
 384  551.6614
 385  569.5104
 386  683.6597
 387  618.4824
 388  687.7549
 389  659.9988
 390  666.1039
 391  620.1428
 392  700.4073
 393  625.2031
 394  620.2894
 395  724.1157
 396  767.0911
 397  574.3957
 398  566.3002
 399  658.0643
 400  612.4645
 401  580.5822
 402  587.5913
 403  527.4508
 404  651.2894
 405  644.6168
 406  639.2063
 407  729.4652
 408  561.805
 409  532.3185
 410  604.8016
 411  570.3209
 412  546.1491
 413  551.0171
 414  610.4559
 415  634.5138
 416  716.8154
 417  749.662
 418  740.1538
 419  674.6874
 420  705.5157
 421  632.9404
 422  624.362
 423  643.0054
 424  566.2757
 425  620.4938
 426  615.9943
 427  703.6388
 428  731.6838
 429  694.2592
 430  577.6644
 431  546.5831
 432  539.0565
 433  544.8079
 434  517.6322
 435  527.0928
 436  564.3002
 437  623.5592
 438  678.2798
 439  638.7513
 440  613.3175
 441  583.8768
 442  498.2607
 443  609.4878
 444  684.4085
 445  595.3339
 446  649.5692
 447  757.7479
 448  672.0565
 449  627.3592
 450  555.4974
 451  629.4943
 452  597.7523
 453  562.4005
 454  658.0555
 455  709.7485
 456  660.6261
 457  536.2679
 458  508.6503
 459  492.4624
 460  560.9808
 461  555.2808
 462  541.7071
 463  585.0587
 464  608.1021
 465  687.0181
 466  656.6315
 467  603.8907
 468  612.5889
 469  672.4004
 470  559.2291
 471  542.244
 472  656.7172
 473  685.7695
 474  560.7937
 475  450.2548
 476  525.2385
 477  570.1454
 478  598.9213
 479  638.7434
 480  599.0372
 481  437.793
 482  584.8397
 483  728.2803
 484  664.4376
 485  585.7939
 486  694.1556
 487  698.3481
 488  687.9795
 489  739.61
 490  802.4034
 491  733.2739
 492  774.6355
 493  777.4327
 494  664.1142
 495  595.6885
 496  576.9801
 497  630.416
 498  613.5643
 499  562.1547
 500  572.1618
 501  660.016
 502  601.7057
 503  662.8613
 504  642.114
 505  608.1747
 506  659.8132
 507  732.897
 508  659.6258
 509  807.6598
 510  1051.842
 511  1151.3
