# Input file       =  1185521650.102601_cleaned.dat
# Candidate        =  PSR_0332+5434
# Telescope        =  AR
# Epoch_topo       =  57965.315186372696
# Epoch_bary       =  N/A
# T_sample         =  0.002
# Data Folded      =  7340032
# Data Avg         =  0.0490593613576915
# Data StdDev      =  1.00030562542218 
# Profile Bins     =  512
# Profile Avg      =  703.200362363235 
# Profile StdDev   =  119.769629836557 
# Reduced chi-sqr  =  1.299
# Prob(Noise)      <  5.57e-06   (~4.4 sigma)
# P_topo (ms)      =  714.470125826409  +/- 0.000429
# P'_topo (s/s)    =  -0                +/- 2.27e-10
# P''_topo (s/s^2) =  0                 +/- 1e-13
# P_bary (ms)      =  N/A
# P'_bary (s/s)    =  N/A
# P''_bary (s/s^2) =  N/A
# P_orb (s)        =  N/A
# asin(i)/c (s)    =  N/A
# eccentricity     =  N/A
# w (rad)          =  N/A
# T_peri           =  N/A
######################################################
   0  1184.494
   1  1237.377
   2  1217.529
   3  1233.891
   4  1058.789
   5  750.0573
   6  747.4488
   7  782.7311
   8  648.18
   9  539.5212
  10  626.0849
  11  598.7218
  12  625.29
  13  646.9907
  14  681.6155
  15  745.7708
  16  732.6917
  17  655.6889
  18  648.7932
  19  694.7488
  20  608.4528
  21  564.8266
  22  695.767
  23  775.0366
  24  718.1497
  25  621.3629
  26  563.8934
  27  647.6707
  28  801.2172
  29  802.3608
  30  711.1016
  31  677.2577
  32  776.3126
  33  751.8406
  34  713.0175
  35  793.3505
  36  798.2025
  37  805.4211
  38  824.4845
  39  754.1394
  40  750.9796
  41  718.1756
  42  656.1293
  43  746.8775
  44  674.757
  45  659.6567
  46  706.7744
  47  731.8367
  48  569.0026
  49  654.8251
  50  770.1786
  51  859.5084
  52  810.8774
  53  697.1842
  54  787.4379
  55  911.3394
  56  766.1526
  57  646.0653
  58  659.4991
  59  811.2104
  60  719.7987
  61  657.3013
  62  614.2318
  63  665.8536
  64  649.1776
  65  681.2899
  66  817.8525
  67  678.4645
  68  507.4272
  69  581.0276
  70  681.9136
  71  764.9124
  72  802.2625
  73  687.5726
  74  636.5095
  75  613.2408
  76  624.3566
  77  777.8679
  78  710.5703
  79  557.2898
  80  592.4371
  81  511.7931
  82  476.4176
  83  664.3896
  84  673.3258
  85  671.0364
  86  618.4633
  87  660.6374
  88  696.1167
  89  670.0602
  90  768.0552
  91  770.7853
  92  677.2353
  93  578.5823
  94  662.0944
  95  743.5403
  96  731.5442
  97  670.7067
  98  637.8864
  99  690.3067
 100  702.553
 101  684.0482
 102  692.7245
 103  680.1243
 104  637.2981
 105  697.2977
 106  782.3154
 107  686.7887
 108  667.3936
 109  703.2178
 110  656.6147
 111  631.0112
 112  577.2386
 113  568.4996
 114  530.553
 115  710.5849
 116  833.1823
 117  756.7379
 118  707.2369
 119  630.3769
 120  733.1227
 121  697.0862
 122  565.2773
 123  665.9195
 124  652.7839
 125  661.9157
 126  693.2571
 127  758.3491
 128  682.7338
 129  647.7479
 130  637.0334
 131  701.3857
 132  725.2229
 133  701.6879
 134  806.323
 135  764.6281
 136  648.5649
 137  629.1058
 138  607.4396
 139  647.8835
 140  710.5902
 141  722.5266
 142  674.5164
 143  647.554
 144  708.6924
 145  693.7661
 146  599.473
 147  522.569
 148  609.8812
 149  772.1943
 150  820.0691
 151  766.1936
 152  849.1503
 153  766.1984
 154  767.4309
 155  798.5175
 156  707.625
 157  686.1129
 158  700.4154
 159  797.3357
 160  774.0878
 161  706.5559
 162  721.3528
 163  689.7842
 164  775.1967
 165  697.0893
 166  734.2655
 167  812.6251
 168  803.931
 169  765.1053
 170  789.5272
 171  771.7485
 172  839.2426
 173  821.1265
 174  725.8663
 175  798.783
 176  841.4578
 177  755.3716
 178  706.2588
 179  726.52
 180  753.7988
 181  794.1943
 182  816.7182
 183  738.5521
 184  720.6339
 185  751.4537
 186  863.9294
 187  943.5682
 188  895.6202
 189  757.8452
 190  784.1287
 191  908.6828
 192  805.7308
 193  874.1714
 194  924.5997
 195  946.2032
 196  906.4487
 197  825.6841
 198  838.507
 199  819.9265
 200  802.5572
 201  787.3984
 202  849.7441
 203  776.2004
 204  707.5728
 205  672.0639
 206  755.2913
 207  838.0361
 208  801.7407
 209  717.9288
 210  702.5093
 211  743.5527
 212  681.296
 213  692.4531
 214  737.0782
 215  789.8337
 216  707.4062
 217  786.5925
 218  755.2904
 219  772.8586
 220  736.8391
 221  727.6027
 222  782.6503
 223  758.4088
 224  767.8505
 225  699.7221
 226  673.7094
 227  716.0294
 228  723.8
 229  720.9167
 230  770.5544
 231  718.7144
 232  782.4792
 233  803.6278
 234  711.9033
 235  799.5737
 236  730.4902
 237  634.9977
 238  643.5917
 239  700.9694
 240  643.8147
 241  653.0948
 242  639.8144
 243  765.0356
 244  734.4598
 245  670.4883
 246  599.8475
 247  598.5534
 248  676.9224
 249  653.7286
 250  665.3101
 251  598.3455
 252  602.0073
 253  733.7949
 254  725.7487
 255  701.3505
 256  704.7429
 257  650.6703
 258  674.2933
 259  597.0356
 260  612.7247
 261  606.3125
 262  698.8408
 263  780.592
 264  758.4504
 265  762.0657
 266  865.5289
 267  759.7443
 268  687.5208
 269  648.2499
 270  585.1559
 271  679.2358
 272  624.0329
 273  563.1455
 274  616.7928
 275  593.7646
 276  648.0195
 277  695.6398
 278  583.2998
 279  623.0886
 280  643.0533
 281  533.6659
 282  569.5795
 283  655.9142
 284  676.134
 285  726.9802
 286  738.3077
 287  680.1789
 288  710.8447
 289  675.6268
 290  687.8098
 291  714.0663
 292  818.812
 293  737.2677
 294  638.4639
 295  639.8316
 296  739.2912
 297  807.0176
 298  717.2325
 299  666.5999
 300  635.8625
 301  580.0449
 302  705.5867
 303  681.2264
 304  601.0494
 305  559.3452
 306  554.0502
 307  549.2561
 308  543.3362
 309  682.9263
 310  749.5389
 311  748.2234
 312  699.1131
 313  627.0471
 314  521.1262
 315  621.4164
 316  592.5736
 317  495.01
 318  567.3816
 319  659.2173
 320  716.2072
 321  661.7193
 322  661.1088
 323  593.423
 324  605.7238
 325  558.2546
 326  613.2163
 327  649.1703
 328  596.0837
 329  628.5229
 330  508.689
 331  527.0673
 332  646.2363
 333  702.0065
 334  651.1777
 335  543.5793
 336  582.186
 337  662.2013
 338  692.3008
 339  569.7224
 340  568.6846
 341  676.8877
 342  632.0499
 343  577.1949
 344  605.9363
 345  670.5493
 346  650.3292
 347  655.5397
 348  717.059
 349  550.2248
 350  620.554
 351  667.069
 352  742.9628
 353  687.9128
 354  571.864
 355  616.3965
 356  664.574
 357  696.4771
 358  578.8609
 359  469.6006
 360  510.9654
 361  657.0825
 362  599.5642
 363  465.7775
 364  509.1053
 365  582.1287
 366  585.9313
 367  604.4708
 368  535.5946
 369  603.936
 370  637.4379
 371  551.3969
 372  535.1968
 373  563.4557
 374  488.7639
 375  563.3441
 376  569.5281
 377  604.3402
 378  637.6471
 379  736.4163
 380  658.7666
 381  651.3986
 382  691.3419
 383  710.2732
 384  698.2759
 385  596.6693
 386  596.5754
 387  730.6855
 388  670.4747
 389  628.3293
 390  607.4216
 391  616.5609
 392  655.2289
 393  743.1895
 394  793.7058
 395  739.0065
 396  651.8539
 397  706.3892
 398  771.2384
 399  694.682
 400  719.1602
 401  620.951
 402  588.323
 403  743.468
 404  861.3699
 405  763.8504
 406  815.6468
 407  778.4293
 408  788.77
 409  855.9727
 410  721.5406
 411  721.0703
 412  715.9519
 413  643.5788
 414  726.9998
 415  666.7841
 416  686.3273
 417  663.4513
 418  664.4989
 419  663.4446
 420  774.2756
 421  811.5501
 422  706.9645
 423  630.8014
 424  659.2925
 425  702.2907
 426  805.6969
 427  753.2608
 428  781.9704
 429  795.82
 430  831.5391
 431  740.1386
 432  685.2949
 433  661.8869
 434  650.3342
 435  710.339
 436  684.3199
 437  659.1351
 438  629.2937
 439  633.7623
 440  552.8222
 441  649.9003
 442  667.0632
 443  686.4446
 444  655.9445
 445  649.1685
 446  552.6816
 447  593.1691
 448  750.1868
 449  798.2265
 450  674.8981
 451  673.3458
 452  687.3481
 453  704.2761
 454  697.7849
 455  621.5018
 456  629.3481
 457  707.6674
 458  808.8998
 459  845.6068
 460  740.2836
 461  804.8298
 462  863.8156
 463  803.1008
 464  784.0193
 465  777.3829
 466  843.7844
 467  928.3223
 468  832.2812
 469  729.22
 470  718.038
 471  687.6362
 472  661.9883
 473  705.593
 474  743.7959
 475  779.9094
 476  715.1188
 477  747.8437
 478  703.2276
 479  681.6392
 480  811.8812
 481  781.5007
 482  690.3266
 483  623.2267
 484  718.1281
 485  820.1702
 486  753.5902
 487  725.5845
 488  728.9575
 489  783.6745
 490  718.6589
 491  675.9673
 492  775.0941
 493  914.3293
 494  832.1268
 495  848.5366
 496  831.1531
 497  824.2949
 498  757.3286
 499  743.9104
 500  719.7293
 501  723.6608
 502  712.57
 503  730.6928
 504  733.5159
 505  801.7461
 506  833.8165
 507  815.8154
 508  783.7975
 509  815.7039
 510  784.353
 511  939.0402
