# Input file       =  1185177007.112782_cleaned.dat
# Candidate        =  PSR_0332+5434
# Telescope        =  AR
# Epoch_topo       =  57961.326262879418
# Epoch_bary       =  N/A
# T_sample         =  0.002
# Data Folded      =  7340032
# Data Avg         =  0.0477751408642317
# Data StdDev      =  1.00019595479653 
# Profile Bins     =  512
# Profile Avg      =  684.716861360647 
# Profile StdDev   =  119.756498639547 
# Reduced chi-sqr  =  1.244
# Prob(Noise)      <  0.000135   (~3.6 sigma)
# P_topo (ms)      =  714.472005706053  +/- 0.000376
# P'_topo (s/s)    =  -0                +/- 1.98e-10
# P''_topo (s/s^2) =  0                 +/- 8.76e-14
# P_bary (ms)      =  N/A
# P'_bary (s/s)    =  N/A
# P''_bary (s/s^2) =  N/A
# P_orb (s)        =  N/A
# asin(i)/c (s)    =  N/A
# eccentricity     =  N/A
# w (rad)          =  N/A
# T_peri           =  N/A
######################################################
   0  1123.625
   1  1150.993
   2  1091.933
   3  1016.811
   4  848.2459
   5  815.3149
   6  684.8482
   7  606.6219
   8  778.027
   9  909.4564
  10  734.2036
  11  698.33
  12  762.8997
  13  799.9771
  14  824.5933
  15  803.3956
  16  864.9174
  17  759.0798
  18  669.7576
  19  654.3087
  20  662.0514
  21  737.0168
  22  851.8657
  23  899.093
  24  930.383
  25  669.5867
  26  697.8151
  27  595.2817
  28  576.9442
  29  642.8802
  30  767.9102
  31  766.3553
  32  585.3544
  33  596.3327
  34  625.0938
  35  517.3339
  36  621.3858
  37  688.7213
  38  710.8019
  39  675.815
  40  545.584
  41  599.1873
  42  709.3482
  43  795.1212
  44  746.8441
  45  715.6822
  46  662.5822
  47  660.9045
  48  695.1108
  49  698.4996
  50  746.3211
  51  791.3318
  52  720.1157
  53  746.1781
  54  737.918
  55  675.2826
  56  640.1697
  57  782.1918
  58  728.0399
  59  679.351
  60  623.1301
  61  570.1962
  62  584.1729
  63  584.7717
  64  747.7413
  65  661.6716
  66  707.7382
  67  671.088
  68  689.2563
  69  619.5319
  70  597.3899
  71  632.829
  72  559.9708
  73  658.1414
  74  648.6407
  75  611.2229
  76  566.082
  77  644.3556
  78  554.1713
  79  542.7244
  80  564.0891
  81  549.4273
  82  554.933
  83  519.5613
  84  501.4519
  85  668.6461
  86  719.1927
  87  620.4435
  88  459.2023
  89  626.1138
  90  650.8591
  91  478.3759
  92  544.5499
  93  564.7675
  94  589.7625
  95  622.7839
  96  624.6192
  97  591.5157
  98  620.596
  99  734.3815
 100  706.3786
 101  705.6768
 102  701.3534
 103  588.4617
 104  570.7657
 105  711.8829
 106  707.2609
 107  574.0038
 108  622.0537
 109  611.8793
 110  688.7571
 111  586.2914
 112  570.937
 113  513.6061
 114  417.6753
 115  490.2178
 116  603.7776
 117  707.6617
 118  670.8154
 119  536.0582
 120  595.0918
 121  590.888
 122  593.7344
 123  605.2359
 124  586.0432
 125  603.7043
 126  571.8639
 127  695.0481
 128  696.5183
 129  568.1695
 130  480.2469
 131  511.8252
 132  567.5764
 133  560.1374
 134  550.0919
 135  590.8107
 136  587.804
 137  645.5282
 138  642.8199
 139  627.1947
 140  710.6398
 141  724.8234
 142  619.5253
 143  592.9725
 144  635.5336
 145  649.9501
 146  560.0285
 147  586.5416
 148  546.4191
 149  672.7297
 150  589.6973
 151  579.5311
 152  692.3329
 153  796.9353
 154  660.3307
 155  584.7188
 156  537.1157
 157  504.819
 158  554.5782
 159  610.3757
 160  705.4726
 161  653.0216
 162  599.1531
 163  620.065
 164  647.4396
 165  689.4769
 166  722.2441
 167  701.2424
 168  715.4424
 169  660.9478
 170  693.0747
 171  742.2134
 172  790.4656
 173  883.0247
 174  732.426
 175  518.3635
 176  583.9006
 177  680.6858
 178  682.9321
 179  600.5071
 180  583.285
 181  678.9885
 182  638.6993
 183  680.0208
 184  696.3586
 185  673.3206
 186  676.0163
 187  627.46
 188  579.1088
 189  567.2255
 190  603.0331
 191  677.9684
 192  678.704
 193  649.4055
 194  670.4061
 195  707.4174
 196  590.5281
 197  585.2934
 198  657.3174
 199  586.3433
 200  536.4841
 201  633.5629
 202  572.1161
 203  632.6082
 204  582.6642
 205  548.2285
 206  542.9557
 207  587.6336
 208  583.6368
 209  522.8356
 210  504.1962
 211  595.5126
 212  702.7656
 213  614.643
 214  669.4009
 215  658.5328
 216  652.0314
 217  640.1893
 218  724.0259
 219  714.1351
 220  673.2713
 221  656.6092
 222  713.6111
 223  763.3448
 224  638.332
 225  683.6173
 226  754.6218
 227  732.5076
 228  608.5349
 229  565.0908
 230  659.8242
 231  591.2524
 232  442.0277
 233  640.2523
 234  692.2665
 235  729.1907
 236  595.2794
 237  645.708
 238  642.8373
 239  669.8998
 240  644.683
 241  575.5333
 242  586.9598
 243  688.7847
 244  658.3896
 245  693.8378
 246  708.4787
 247  722.7762
 248  825.0999
 249  764.3856
 250  722.0704
 251  748.2851
 252  737.7559
 253  814.5458
 254  780.7152
 255  800.5924
 256  769.5507
 257  743.8791
 258  705.4018
 259  738.0146
 260  542.5609
 261  592.7231
 262  718.976
 263  591.9222
 264  526.1547
 265  537.4764
 266  698.5578
 267  684.1094
 268  588.5331
 269  569.4395
 270  572.208
 271  611.4138
 272  624.6361
 273  732.0543
 274  693.3505
 275  665.2661
 276  664.3817
 277  711.8477
 278  739.1177
 279  721.654
 280  737.3535
 281  763.2953
 282  775.8922
 283  791.8623
 284  753.1069
 285  688.4502
 286  769.711
 287  806.608
 288  696.7363
 289  658.6129
 290  549.6244
 291  779.0396
 292  791.9749
 293  795.1577
 294  828.275
 295  712.0101
 296  754.5173
 297  739.0751
 298  716.0527
 299  707.3239
 300  706.8802
 301  866.6801
 302  893.0629
 303  737.0456
 304  761.6458
 305  730.4092
 306  730.5709
 307  667.2889
 308  572.3396
 309  697.4335
 310  778.387
 311  771.8198
 312  742.9298
 313  780.2886
 314  692.3987
 315  653.5396
 316  735.7178
 317  796.9346
 318  823.2385
 319  717.9753
 320  760.439
 321  892.0165
 322  732.7437
 323  716.2622
 324  876.6756
 325  767.432
 326  718.098
 327  761.963
 328  806.5587
 329  771.2424
 330  830.9042
 331  682.0859
 332  673.5248
 333  718.9635
 334  712.9181
 335  684.4443
 336  625.5961
 337  695.8807
 338  620.4454
 339  622.2173
 340  629.4202
 341  558.6241
 342  702.5878
 343  661.9103
 344  614.7063
 345  573.1052
 346  571.7926
 347  631.1331
 348  728.6229
 349  740.9379
 350  704.2961
 351  726.4748
 352  785.8602
 353  769.6891
 354  799.2629
 355  738.811
 356  735.3246
 357  845.2805
 358  729.6583
 359  741.581
 360  720.6312
 361  597.6885
 362  757.8425
 363  750.7271
 364  652.9382
 365  643.2617
 366  662.1263
 367  757.8839
 368  834.5935
 369  688.5347
 370  686.2469
 371  683.438
 372  627.3024
 373  735.4359
 374  668.8743
 375  626.4576
 376  585.1243
 377  629.0571
 378  666.5469
 379  634.6712
 380  675.3221
 381  827.7554
 382  762.2994
 383  718.809
 384  693.1118
 385  664.1428
 386  738.1092
 387  726.2841
 388  712.845
 389  699.2646
 390  631.7222
 391  697.7059
 392  720.1326
 393  614.3718
 394  703.4795
 395  713.4736
 396  758.6949
 397  790.4521
 398  715.377
 399  666.0518
 400  616.4393
 401  668.7613
 402  759.0533
 403  628.3494
 404  601.3933
 405  620.4658
 406  694.6064
 407  669.1796
 408  795.7242
 409  678.4437
 410  540.2126
 411  487.5278
 412  656.6708
 413  668.4963
 414  561.5152
 415  549.9749
 416  657.6798
 417  641.6514
 418  643.8102
 419  708.6578
 420  753.0065
 421  655.1866
 422  754.7935
 423  772.9221
 424  678.9011
 425  716.5915
 426  673.1826
 427  678.0669
 428  651.7358
 429  621.4645
 430  570.806
 431  575.8552
 432  634.8027
 433  634.7622
 434  674.5951
 435  661.2208
 436  553.8004
 437  591.9584
 438  649.4268
 439  684.791
 440  648.5278
 441  675.5264
 442  614.2788
 443  703.9147
 444  769.2979
 445  695.9677
 446  686.9907
 447  680.5397
 448  693.9332
 449  766.4843
 450  688.6516
 451  806.5023
 452  846.3171
 453  759.8911
 454  700.6443
 455  734.8333
 456  749.2492
 457  778.2269
 458  869.2776
 459  836.2589
 460  783.0245
 461  839.7581
 462  852.2206
 463  790.8392
 464  688.397
 465  803.2855
 466  763.9161
 467  736.8474
 468  710.3901
 469  661.2498
 470  679.8019
 471  695.1555
 472  771.2706
 473  732.0002
 474  621.0286
 475  705.8826
 476  698.7535
 477  729.3832
 478  776.1022
 479  734.0868
 480  744.1868
 481  764.0159
 482  820.1141
 483  721.4927
 484  746.3041
 485  869.0941
 486  740.4766
 487  661.4408
 488  686.2159
 489  736.3535
 490  789.2303
 491  806.5124
 492  687.9481
 493  633.219
 494  715.8251
 495  739.1797
 496  771.1545
 497  794.6296
 498  839.9464
 499  685.5271
 500  736.734
 501  712.2342
 502  676.8967
 503  612.6274
 504  657.284
 505  674.5418
 506  781.1191
 507  777.4673
 508  862.554
 509  962.9306
 510  1084.877
 511  1100.141
