# Input file       =  1185263182.108499_cleaned.dat
# Candidate        =  PSR_0332+5434
# Telescope        =  AR
# Epoch_topo       =  57962.323658663183
# Epoch_bary       =  N/A
# T_sample         =  0.002
# Data Folded      =  7340032
# Data Avg         =  0.048218880301189
# Data StdDev      =  1.00032034451391 
# Profile Bins     =  512
# Profile Avg      =  690.896547357971 
# Profile StdDev   =  119.771392198103 
# Reduced chi-sqr  =  1.057
# Prob(Noise)      <  0.18   (~0.9 sigma)
# P_topo (ms)      =  714.471513542087  +/- 0.000514
# P'_topo (s/s)    =  -0                +/- 2.71e-10
# P''_topo (s/s^2) =  0                 +/- 1.2e-13
# P_bary (ms)      =  N/A
# P'_bary (s/s)    =  N/A
# P''_bary (s/s^2) =  N/A
# P_orb (s)        =  N/A
# asin(i)/c (s)    =  N/A
# eccentricity     =  N/A
# w (rad)          =  N/A
# T_peri           =  N/A
######################################################
   0  1061.263
   1  1148.395
   2  1191.882
   3  876.7435
   4  737.5967
   5  775.7515
   6  687.8882
   7  733.679
   8  778.879
   9  729.5772
  10  724.729
  11  730.8072
  12  692.9914
  13  711.3807
  14  702.708
  15  805.5711
  16  775.9879
  17  688.2637
  18  669.7347
  19  629.4364
  20  557.7349
  21  618.131
  22  705.5225
  23  672.111
  24  592.7673
  25  599.5768
  26  532.9108
  27  553.6605
  28  601.6898
  29  594.3252
  30  614.2061
  31  629.5462
  32  571.6594
  33  589.3253
  34  606.6134
  35  553.0361
  36  501.2478
  37  553.4481
  38  717.1061
  39  668.9695
  40  556.1346
  41  576.3458
  42  475.97
  43  587.8598
  44  615.1233
  45  625.2883
  46  630.142
  47  634.0163
  48  612.68
  49  750.0526
  50  780.3588
  51  663.8241
  52  630.0679
  53  574.9044
  54  648.1661
  55  643.0789
  56  672.1669
  57  655.9767
  58  619.265
  59  712.036
  60  711.9301
  61  656.0293
  62  666.3081
  63  727.1663
  64  631.7969
  65  595.5629
  66  663.4209
  67  571.5112
  68  645.3806
  69  742.9082
  70  726.7383
  71  781.4583
  72  753.9592
  73  629.4233
  74  564.2266
  75  571.9325
  76  703.5486
  77  676.7006
  78  705.4655
  79  687.1895
  80  781.5386
  81  703.6185
  82  686.9772
  83  702.5007
  84  775.3786
  85  775.7924
  86  717.2888
  87  637.8253
  88  574.5592
  89  641.3954
  90  649.094
  91  720.1472
  92  609.812
  93  697.7548
  94  654.0839
  95  744.5859
  96  757.3607
  97  701.5734
  98  783.2299
  99  635.9
 100  564.0327
 101  612.0013
 102  691.1334
 103  838.0254
 104  715.1124
 105  696.1099
 106  756.0247
 107  837.8458
 108  788.9559
 109  731.7667
 110  714.7648
 111  837.6996
 112  805.0656
 113  708.6451
 114  718.7502
 115  725.9738
 116  719.6426
 117  771.4925
 118  782.9977
 119  800.3798
 120  741.0291
 121  771.8885
 122  755.2621
 123  675.4587
 124  633.1813
 125  626.7386
 126  607.9185
 127  623.3976
 128  585.08
 129  593.0646
 130  665.0836
 131  693.3723
 132  765.1089
 133  657.8312
 134  730.3872
 135  659.0978
 136  623.144
 137  582.7574
 138  664.9155
 139  753.3245
 140  709.1883
 141  683.5248
 142  670.0667
 143  646.0626
 144  607.241
 145  654.996
 146  617.0193
 147  649.4504
 148  718.9969
 149  782.5298
 150  704.6799
 151  755.3121
 152  735.7029
 153  755.7313
 154  775.8706
 155  734.4484
 156  819.1503
 157  725.1649
 158  729.7896
 159  858.9446
 160  812.2333
 161  853.2469
 162  763.069
 163  786.5177
 164  819.7658
 165  766.1766
 166  831.3974
 167  819.3442
 168  796.9135
 169  817.4989
 170  797.0422
 171  842.5826
 172  812.5928
 173  774.5712
 174  737.1171
 175  687.8254
 176  707.9285
 177  729.9283
 178  807.3177
 179  680.6052
 180  676.2833
 181  594.2406
 182  663.9835
 183  704.673
 184  643.8102
 185  643.2642
 186  736.1293
 187  742.999
 188  660.9304
 189  639.9594
 190  669.1948
 191  785.9575
 192  750.5844
 193  631.6053
 194  585.9565
 195  624.7641
 196  735.1717
 197  643.33
 198  655.5415
 199  641.2602
 200  605.1
 201  664.1792
 202  712.9353
 203  747.1279
 204  731.8068
 205  620.8792
 206  672.83
 207  675.9992
 208  782.5482
 209  783.3329
 210  733.9481
 211  724.6506
 212  578.5585
 213  564.6099
 214  647.3179
 215  749.1754
 216  786.9723
 217  790.1353
 218  742.5266
 219  818.5178
 220  792.7896
 221  738.7133
 222  728.7859
 223  735.5992
 224  681.0423
 225  647.8705
 226  636.486
 227  708.4067
 228  766.8812
 229  659.6941
 230  768.241
 231  711.8013
 232  651.9406
 233  676.9252
 234  707.2435
 235  725.1486
 236  759.8935
 237  711.4323
 238  726.5995
 239  789.1008
 240  680.2409
 241  633.9343
 242  749.2922
 243  850.1693
 244  706.54
 245  697.2262
 246  814.3805
 247  636.5156
 248  610.3341
 249  695.8937
 250  647.9977
 251  518.2208
 252  667.1901
 253  667.2925
 254  723.9196
 255  659.8837
 256  660.4188
 257  664.644
 258  635.7487
 259  664.3246
 260  712.5013
 261  657.0909
 262  631.0598
 263  655.0571
 264  576.5073
 265  720.1771
 266  596.9612
 267  597.6557
 268  657.8453
 269  637.7259
 270  589.7046
 271  649.4239
 272  609.0302
 273  629.752
 274  684.9662
 275  554.7208
 276  522.8588
 277  463.4111
 278  547.2352
 279  517.6745
 280  456.8365
 281  564.0544
 282  660.8279
 283  754.6486
 284  813.8791
 285  735.9164
 286  676.8588
 287  651.4587
 288  647.287
 289  695.177
 290  655.4974
 291  644.6029
 292  780.1354
 293  708.4671
 294  654.0057
 295  635.317
 296  663.7775
 297  631.6014
 298  674.5507
 299  686.5486
 300  557.0306
 301  551.7015
 302  680.3519
 303  806.358
 304  696.0502
 305  601.418
 306  623.9862
 307  607.6851
 308  668.2504
 309  739.4197
 310  710.8007
 311  652.4566
 312  563.1491
 313  707.1111
 314  713.7959
 315  772.4423
 316  648.0421
 317  701.0487
 318  751.9293
 319  670.5488
 320  676.7058
 321  648.363
 322  719.4574
 323  763.4189
 324  705.816
 325  764.8579
 326  778.5631
 327  731.6345
 328  649.8704
 329  707.7898
 330  668.8127
 331  621.4241
 332  803.8109
 333  764.0474
 334  698.7205
 335  856.5298
 336  754.9853
 337  722.6207
 338  716.658
 339  600.0214
 340  661.3867
 341  751.9276
 342  813.4677
 343  721.2706
 344  787.4144
 345  822.9744
 346  755.5307
 347  711.1857
 348  613.5813
 349  686.1417
 350  740.3978
 351  765.1848
 352  793.9972
 353  755.0504
 354  850.355
 355  849.6798
 356  744.9132
 357  741.5996
 358  641.5038
 359  781.7877
 360  874.932
 361  785.1641
 362  761.116
 363  605.7046
 364  597.7229
 365  743.1399
 366  703.0543
 367  695.6457
 368  625.9016
 369  751.3804
 370  772.3723
 371  835.9167
 372  704.2304
 373  746.0281
 374  782.5646
 375  850.2066
 376  875.2287
 377  855.1593
 378  775.5064
 379  794.5098
 380  740.4758
 381  750.658
 382  734.2853
 383  765.6238
 384  806.1785
 385  849.3919
 386  831.1063
 387  788.16
 388  788.9611
 389  843.2867
 390  725.296
 391  671.014
 392  732.0905
 393  680.0239
 394  749.5675
 395  737.7179
 396  735.4854
 397  721.2722
 398  766.6857
 399  712.6213
 400  734.7185
 401  749.5898
 402  701.6919
 403  707.2073
 404  638.8682
 405  652.6429
 406  695.2142
 407  767.3303
 408  723.454
 409  642.4473
 410  781.1827
 411  777.8036
 412  682.0101
 413  656.9222
 414  708.6412
 415  711.5903
 416  661.2299
 417  721.5336
 418  686.4769
 419  687.2281
 420  658.3543
 421  672.5578
 422  570.2122
 423  570.9338
 424  767.8473
 425  662.6707
 426  632.4305
 427  636.5071
 428  784.2864
 429  759.507
 430  802.7663
 431  715.6765
 432  660.957
 433  762.1634
 434  710.8263
 435  666.3527
 436  621.1795
 437  755.5035
 438  730.6698
 439  470.5921
 440  636.572
 441  641.7311
 442  542.0598
 443  524.1159
 444  563.653
 445  583.1152
 446  671.9453
 447  755.2736
 448  789.9421
 449  708.4099
 450  648.408
 451  695.8677
 452  712.3463
 453  722.9857
 454  689.4995
 455  742.1545
 456  676.6
 457  712.4982
 458  653.4022
 459  658.2886
 460  688.157
 461  614.2437
 462  595.6849
 463  544.1899
 464  616.8535
 465  637.7006
 466  585.1319
 467  553.6823
 468  599.3006
 469  626.4611
 470  563.3394
 471  565.0041
 472  643.9719
 473  558.5894
 474  422.367
 475  545.304
 476  628.6084
 477  635.5561
 478  588.5548
 479  559.2963
 480  487.9543
 481  522.7136
 482  605.5129
 483  650.3099
 484  589.7407
 485  593.0657
 486  594.3205
 487  596.3439
 488  534.2633
 489  582.1017
 490  690.928
 491  674.7081
 492  655.4718
 493  597.0144
 494  710.849
 495  668.8702
 496  738.9661
 497  729.977
 498  702.2349
 499  573.5682
 500  519.2066
 501  532.6481
 502  580.9548
 503  546.5787
 504  594.893
 505  659.7404
 506  595.3259
 507  671.3589
 508  752.4832
 509  829.6782
 510  923.283
 511  1011.155
