# Input file       =  1185435458.11371_cleaned.dat
# Candidate        =  PSR_0332+5434
# Telescope        =  AR
# Epoch_topo       =  57964.317593908680
# Epoch_bary       =  N/A
# T_sample         =  0.002
# Data Folded      =  7340032
# Data Avg         =  0.0489292713686267
# Data StdDev      =  1.00010895077058 
# Profile Bins     =  512
# Profile Avg      =  701.378663348168 
# Profile StdDev   =  119.746081383343 
# Reduced chi-sqr  =  2.030
# Prob(Noise)      <  4.28e-38   (~12.9 sigma)
# P_topo (ms)      =  714.470572287508  +/- 0.000314
# P'_topo (s/s)    =  -0                +/- 1.66e-10
# P''_topo (s/s^2) =  0                 +/- 7.31e-14
# P_bary (ms)      =  N/A
# P'_bary (s/s)    =  N/A
# P''_bary (s/s^2) =  N/A
# P_orb (s)        =  N/A
# asin(i)/c (s)    =  N/A
# eccentricity     =  N/A
# w (rad)          =  N/A
# T_peri           =  N/A
######################################################
   0  1333.863
   1  1235.105
   2  1175.881
   3  995.6862
   4  879.6841
   5  923.0927
   6  913.1194
   7  919.2495
   8  905.9126
   9  803.2668
  10  793.0491
  11  847.6314
  12  834.7328
  13  784.6398
  14  895.3447
  15  885.5486
  16  809.0779
  17  812.8968
  18  862.7733
  19  849.9563
  20  838.456
  21  694.5317
  22  705.3551
  23  729.5068
  24  751.9948
  25  702.9388
  26  665.0869
  27  762.3698
  28  703.0741
  29  556.1
  30  624.6062
  31  698.7841
  32  682.6648
  33  667.5123
  34  685.3969
  35  794.0585
  36  778.5146
  37  740.6029
  38  689.8607
  39  672.9209
  40  725.4719
  41  732.587
  42  806.8675
  43  728.7862
  44  672.6264
  45  729.3921
  46  737.691
  47  715.5646
  48  693.5992
  49  719.4314
  50  808.4601
  51  802.7667
  52  781.5637
  53  770.6451
  54  823.2846
  55  825.6556
  56  791.9543
  57  827.1256
  58  742.3599
  59  727.0985
  60  665.6685
  61  679.8451
  62  691.9841
  63  739.4031
  64  697.4645
  65  699.0859
  66  747.0385
  67  804.6615
  68  800.743
  69  750.6113
  70  762.1943
  71  702.2827
  72  755.7277
  73  792.0895
  74  836.869
  75  801.8952
  76  707.7863
  77  802.1662
  78  862.0549
  79  871.5568
  80  875.9446
  81  930.2285
  82  862.7725
  83  801.5783
  84  724.5449
  85  623.9568
  86  660.399
  87  754.5939
  88  772.0381
  89  737.2056
  90  840.3549
  91  748.7449
  92  710.2556
  93  669.8048
  94  690.2665
  95  699.9975
  96  535.2055
  97  527.122
  98  677.6611
  99  704.504
 100  709.9381
 101  638.5702
 102  614.4155
 103  582.2358
 104  612.0968
 105  671.2343
 106  631.5389
 107  526.9907
 108  578.4849
 109  615.9111
 110  513.5527
 111  644.2341
 112  666.5742
 113  682.8979
 114  683.2326
 115  582.8795
 116  677.8384
 117  708.1089
 118  759.488
 119  727.4509
 120  705.7206
 121  608.1214
 122  593.1127
 123  713.8278
 124  695.8011
 125  682.4641
 126  684.4078
 127  708.5561
 128  632.6301
 129  579.1236
 130  640.2097
 131  704.5273
 132  705.4957
 133  686.2285
 134  807.7731
 135  875.5672
 136  790.5585
 137  647.2121
 138  659.7494
 139  609.3975
 140  671.4833
 141  830.2849
 142  843.2761
 143  787.5699
 144  731.4125
 145  767.8937
 146  825.0176
 147  809.9984
 148  779.2739
 149  706.2842
 150  844.8369
 151  803.1484
 152  705.8735
 153  693.9656
 154  728.7986
 155  801.2208
 156  726.171
 157  683.4172
 158  667.67
 159  751.8513
 160  769.541
 161  650.6482
 162  597.5762
 163  532.1075
 164  688.2784
 165  723.101
 166  629.4125
 167  584.0873
 168  625.5789
 169  652.3449
 170  697.2053
 171  741.8023
 172  681.1554
 173  616.2559
 174  679.6105
 175  722.6208
 176  625.6604
 177  582.9253
 178  571.1282
 179  559.1518
 180  647.9099
 181  651.9927
 182  627.7504
 183  548.8426
 184  623.3851
 185  673.2897
 186  634.6354
 187  491.7356
 188  398.4588
 189  522.2003
 190  529.4656
 191  579.3365
 192  652.408
 193  771.9459
 194  685.6769
 195  675.7787
 196  685.3615
 197  606.3857
 198  498.8243
 199  575.0155
 200  659.4066
 201  791.4143
 202  762.4387
 203  802.1619
 204  721.5095
 205  632.058
 206  687.3792
 207  652.8758
 208  708.192
 209  693.1125
 210  705.3104
 211  762.1818
 212  664.2129
 213  741.8089
 214  882.9351
 215  675.4897
 216  796.3416
 217  876.4115
 218  847.9803
 219  820.9615
 220  830.3366
 221  757.1129
 222  874.1886
 223  862.0354
 224  742.424
 225  826.374
 226  928.6375
 227  860.5698
 228  761.8786
 229  735.722
 230  737.6023
 231  787.0253
 232  717.4916
 233  687.8446
 234  737.2312
 235  792.3469
 236  717.5966
 237  663.9775
 238  657.8853
 239  602.4741
 240  618.7042
 241  678.3115
 242  616.4814
 243  525.5172
 244  569.727
 245  658.6363
 246  612.3762
 247  598.8519
 248  631.1505
 249  664.2734
 250  578.6588
 251  666.2872
 252  653.5811
 253  602.7766
 254  542.554
 255  630.1349
 256  668.9542
 257  593.6372
 258  629.1475
 259  658.1116
 260  644.495
 261  569.1895
 262  502.7069
 263  517.9615
 264  518.7138
 265  661.9137
 266  622.5252
 267  613.6844
 268  590.8144
 269  716.749
 270  680.0926
 271  498.5421
 272  527.305
 273  537.4536
 274  595.4636
 275  588.9242
 276  622.2303
 277  603.4765
 278  594.9189
 279  558.3109
 280  656.4836
 281  602.3452
 282  623.4992
 283  626.3109
 284  606.2601
 285  643.5336
 286  695.1404
 287  783.6892
 288  698.6659
 289  600.541
 290  685.0681
 291  725.6417
 292  689.1584
 293  714.1765
 294  809.8696
 295  797.4169
 296  697.8549
 297  724.3659
 298  647.8378
 299  711.9187
 300  681.1784
 301  632.2104
 302  654.6596
 303  587.7434
 304  623.7641
 305  622.5934
 306  553.709
 307  564.1025
 308  572.6813
 309  611.6566
 310  571.8251
 311  580.6369
 312  636.0652
 313  708.1562
 314  700.2791
 315  634.2244
 316  591.1564
 317  649.826
 318  757.8767
 319  730.991
 320  687.4256
 321  711.6323
 322  623.5085
 323  563.866
 324  561.3361
 325  585.3681
 326  520.9872
 327  469.2168
 328  540.1429
 329  600.2077
 330  576.0695
 331  568.0717
 332  533.4108
 333  528.3796
 334  556.3028
 335  521.8445
 336  510.8452
 337  456.0421
 338  640.5444
 339  665.2672
 340  555.4605
 341  541.6653
 342  578.4177
 343  573.1267
 344  673.1968
 345  589.3939
 346  640.1622
 347  661.5725
 348  611.8182
 349  651.2381
 350  703.0732
 351  711.0354
 352  579.8671
 353  683.855
 354  751.5963
 355  703.1792
 356  740.869
 357  737.083
 358  715.2462
 359  550.1114
 360  656.3484
 361  665.7186
 362  603.0752
 363  613.6717
 364  732.7645
 365  701.4668
 366  686.9359
 367  663.3114
 368  663.4744
 369  684.8922
 370  607.6727
 371  565.1888
 372  593.1133
 373  684.0969
 374  614.2146
 375  597.1613
 376  585.5572
 377  595.7921
 378  595.1205
 379  612.4337
 380  567.4277
 381  505.836
 382  638.0916
 383  654.4034
 384  582.1527
 385  554.2659
 386  664.8124
 387  578.0738
 388  465.6802
 389  545.1059
 390  554.4584
 391  524.897
 392  526.2573
 393  524.3414
 394  391.2655
 395  464.861
 396  567.4445
 397  573.6228
 398  599.5339
 399  598.3529
 400  624.5377
 401  569.1384
 402  558.853
 403  616.3728
 404  523.8435
 405  588.4118
 406  605.929
 407  561.4474
 408  590.6383
 409  677.6531
 410  658.8834
 411  671.3541
 412  518.8184
 413  544.6231
 414  631.9406
 415  634.329
 416  545.2313
 417  426.0929
 418  608.0391
 419  512.5823
 420  522.6178
 421  709.4642
 422  771.9123
 423  679.2782
 424  662.7364
 425  679.182
 426  623.7229
 427  619.19
 428  722.0775
 429  773.6119
 430  732.2668
 431  704.1851
 432  770.081
 433  781.5912
 434  740.1786
 435  759.0154
 436  770.2248
 437  790.157
 438  754.3024
 439  720.9614
 440  793.7291
 441  696.9882
 442  785.6241
 443  928.4456
 444  902.034
 445  872.1345
 446  867.8757
 447  853.3274
 448  848.1284
 449  857.5781
 450  907.5648
 451  922.5294
 452  846.7316
 453  821.534
 454  767.4923
 455  780.2391
 456  849.5407
 457  784.5062
 458  785.5367
 459  815.7268
 460  763.243
 461  878.1846
 462  843.5319
 463  750.4905
 464  699.6829
 465  786.3746
 466  877.7084
 467  809.188
 468  839.2933
 469  777.0042
 470  862.5844
 471  837.2224
 472  814.1514
 473  789.3967
 474  826.3962
 475  761.5811
 476  670.1914
 477  728.4095
 478  696.2517
 479  625.9229
 480  672.4221
 481  776.4214
 482  756.3535
 483  742.9128
 484  684.9858
 485  613.4009
 486  768.7144
 487  859.4318
 488  826.8928
 489  790.8398
 490  773.3582
 491  817.5861
 492  904.5904
 493  873.1133
 494  820.3751
 495  904.6356
 496  890.1612
 497  708.2176
 498  629.5046
 499  762.4002
 500  913.7645
 501  944.5356
 502  937.7004
 503  958.0403
 504  946.3492
 505  876.5203
 506  848.4423
 507  919.9289
 508  1000.593
 509  1195.159
 510  1227.813
 511  1358.154
