# Input file       =  1185349336.100742_cleaned.dat
# Candidate        =  PSR_0332+5434
# Telescope        =  AR
# Epoch_topo       =  57963.320811351179
# Epoch_bary       =  N/A
# T_sample         =  0.002
# Data Folded      =  7340032
# Data Avg         =  0.0474146541808692
# Data StdDev      =  1.00030517651447 
# Profile Bins     =  512
# Profile Avg      =  679.694006691242 
# Profile StdDev   =  119.769576087475 
# Reduced chi-sqr  =  1.850
# Prob(Noise)      <  2.53e-28   (~11.0 sigma)
# P_topo (ms)      =  714.471035779871  +/- 0.000237
# P'_topo (s/s)    =  -0                +/- 1.25e-10
# P''_topo (s/s^2) =  0                 +/- 5.51e-14
# P_bary (ms)      =  N/A
# P'_bary (s/s)    =  N/A
# P''_bary (s/s^2) =  N/A
# P_orb (s)        =  N/A
# asin(i)/c (s)    =  N/A
# eccentricity     =  N/A
# w (rad)          =  N/A
# T_peri           =  N/A
######################################################
   0  1169.587
   1  1274.876
   2  1146.623
   3  952.2292
   4  899.2861
   5  783.5287
   6  690.5325
   7  754.3834
   8  785.4803
   9  756.8724
  10  737.9052
  11  761.513
  12  756.7988
  13  732.4173
  14  752.809
  15  766.804
  16  705.2933
  17  705.8512
  18  631.7131
  19  670.9254
  20  742.3113
  21  784.1112
  22  774.2825
  23  722.4147
  24  791.7751
  25  678.775
  26  620.6599
  27  664.8599
  28  631.8027
  29  669.7822
  30  625.9257
  31  623.8036
  32  631.6858
  33  659.6611
  34  632.4775
  35  700.1507
  36  705.0386
  37  715.9428
  38  637.715
  39  577.9445
  40  654.5023
  41  655.9888
  42  729.712
  43  751.5317
  44  722.4814
  45  744.5795
  46  748.4869
  47  835.2714
  48  829.2798
  49  765.4166
  50  759.7557
  51  792.3237
  52  824.7083
  53  895.1054
  54  810.5304
  55  900.0908
  56  893.1824
  57  806.0245
  58  894.7216
  59  853.7762
  60  739.833
  61  820.2253
  62  783.211
  63  677.0438
  64  695.8876
  65  787.3756
  66  801.3366
  67  894.2711
  68  790.4594
  69  742.8624
  70  742.8361
  71  797.5656
  72  862.4227
  73  811.719
  74  746.8953
  75  747.7277
  76  771.8735
  77  728.9077
  78  632.1722
  79  622.9274
  80  653.2408
  81  708.067
  82  816.988
  83  759.3517
  84  649.7462
  85  639.3507
  86  650.9725
  87  649.5546
  88  646.8979
  89  633.7167
  90  576.2152
  91  650.6566
  92  562.6869
  93  614.4559
  94  587.6823
  95  548.4476
  96  468.7092
  97  569.1558
  98  638.0054
  99  637.3636
 100  566.8345
 101  667.6637
 102  602.8422
 103  601.0192
 104  660.3746
 105  623.2276
 106  620.4999
 107  669.2297
 108  580.2808
 109  497.3549
 110  672.7756
 111  739.0472
 112  807.7723
 113  767.4835
 114  725.7205
 115  689.6216
 116  665.0288
 117  752.0214
 118  771.6394
 119  799.2274
 120  743.3609
 121  779.9993
 122  757.4932
 123  710.8242
 124  634.4858
 125  661.9944
 126  735.9152
 127  710.7645
 128  715.4711
 129  793.6407
 130  812.9684
 131  811.1741
 132  740.2374
 133  730.9471
 134  683.3632
 135  650.4156
 136  647.2282
 137  775.8737
 138  732.469
 139  721.3351
 140  739.7437
 141  661.8877
 142  574.6861
 143  639.817
 144  729.1273
 145  649.8678
 146  654.8144
 147  672.6376
 148  630.7374
 149  581.9302
 150  617.2653
 151  651.1326
 152  647.7733
 153  591.1154
 154  621.4648
 155  702.9713
 156  619.4417
 157  597.2399
 158  710.0544
 159  522.5236
 160  513.5385
 161  554.2514
 162  571.9014
 163  576.7201
 164  616.6387
 165  592.7597
 166  631.9467
 167  685.1883
 168  762.505
 169  742.9835
 170  685.8377
 171  693.6375
 172  644.849
 173  550.1332
 174  567.7164
 175  553.4146
 176  635.9186
 177  662.3009
 178  670.2958
 179  632.9355
 180  594.6641
 181  618.9042
 182  675.9218
 183  652.0209
 184  631.8721
 185  694.3658
 186  539.2774
 187  488.3598
 188  653.6049
 189  712.1052
 190  710.4404
 191  677.3059
 192  664.7965
 193  608.5776
 194  650.9648
 195  664.6763
 196  665.7676
 197  735.8442
 198  766.192
 199  725.8785
 200  751.5522
 201  832.6349
 202  864.454
 203  929.55
 204  891.9836
 205  883.5532
 206  890.8352
 207  939.4081
 208  908.5019
 209  916.2643
 210  896.1554
 211  844.598
 212  788.235
 213  853.42
 214  741.4827
 215  688.1915
 216  859.0831
 217  702.664
 218  632.7732
 219  673.5626
 220  688.4576
 221  678.2337
 222  668.2863
 223  741.554
 224  737.8747
 225  724.7088
 226  759.6387
 227  679.8433
 228  680.5541
 229  678.9714
 230  702.6049
 231  670.2153
 232  734.1214
 233  724.4349
 234  592.2886
 235  712.2359
 236  723.7717
 237  663.8368
 238  556.0629
 239  668.6597
 240  661.4302
 241  563.9058
 242  520.71
 243  483.0589
 244  551.4427
 245  482.5796
 246  483.4437
 247  641.9109
 248  718.2485
 249  744.2821
 250  620.8079
 251  629.1403
 252  631.4692
 253  756.5825
 254  703.9442
 255  624.9819
 256  621.106
 257  847.8947
 258  742.5932
 259  676.047
 260  609.5339
 261  581.4652
 262  600.379
 263  662.9472
 264  743.3768
 265  758.4384
 266  730.899
 267  769.5001
 268  697.5519
 269  700.3098
 270  668.7072
 271  707.3932
 272  796.7192
 273  859.9574
 274  862.9137
 275  821.1628
 276  835.649
 277  880.804
 278  785.5046
 279  773.0195
 280  894.9262
 281  939.4873
 282  748.0073
 283  781.8853
 284  773.0154
 285  730.5114
 286  720.074
 287  793.6559
 288  685.7155
 289  757.0093
 290  766.4316
 291  770.1336
 292  721.1765
 293  694.4796
 294  738.5555
 295  672.7952
 296  653.723
 297  705.5222
 298  665.6583
 299  697.1387
 300  650.9847
 301  641.9855
 302  739.6821
 303  713.1436
 304  678.6362
 305  654.1374
 306  701.8625
 307  715.5955
 308  742.7864
 309  645.2081
 310  595.0246
 311  502.517
 312  536.1953
 313  603.1413
 314  705.9737
 315  709.5791
 316  652.018
 317  617.8378
 318  606.6492
 319  601.7234
 320  623.8384
 321  553.9833
 322  644.3545
 323  631.0903
 324  595.4268
 325  520.6406
 326  659.6539
 327  648.0217
 328  504.8458
 329  488.6939
 330  611.4587
 331  578.8918
 332  586.8091
 333  706.1628
 334  668.8594
 335  611.6138
 336  633.2043
 337  759.454
 338  687.0067
 339  777.4121
 340  710.9344
 341  688.7341
 342  652.9726
 343  637.6047
 344  716.6756
 345  697.5094
 346  667.8646
 347  710.5449
 348  766.8391
 349  803.0403
 350  724.2714
 351  658.8852
 352  651.4819
 353  618.8751
 354  591.3639
 355  628.7432
 356  701.772
 357  690.1843
 358  689.4993
 359  651.0279
 360  755.6508
 361  731.7053
 362  691.5494
 363  640.9858
 364  621.6171
 365  618.663
 366  637.7051
 367  686.6509
 368  700.6758
 369  693.0867
 370  653.7229
 371  523.8365
 372  532.9609
 373  575.5334
 374  598.5272
 375  488.9915
 376  473.1505
 377  506.7285
 378  468.1337
 379  414.2771
 380  426.393
 381  524.4598
 382  462.1396
 383  457.6938
 384  488.9444
 385  443.2427
 386  482.3513
 387  516.2393
 388  597.5747
 389  497.6285
 390  545.0001
 391  519.6326
 392  570.0984
 393  551.338
 394  575.0346
 395  605.595
 396  497.4193
 397  543.4404
 398  546.2316
 399  599.695
 400  541.9116
 401  471.3716
 402  463.5609
 403  559.7621
 404  567.1826
 405  603.1932
 406  596.7372
 407  523.1434
 408  499.7292
 409  498.9406
 410  603.1147
 411  605.7444
 412  646.4028
 413  718.8028
 414  721.3345
 415  715.407
 416  649.4212
 417  746.4266
 418  734.676
 419  746.1567
 420  735.9843
 421  656.4971
 422  803.3177
 423  910.3912
 424  801.0755
 425  696.8415
 426  705.5616
 427  725.4365
 428  779.8703
 429  702.9092
 430  718.6696
 431  687.5878
 432  654.8633
 433  744.6927
 434  787.6341
 435  662.1302
 436  608.0095
 437  587.798
 438  631.2765
 439  633.8009
 440  688.3748
 441  701.5655
 442  658.0891
 443  595.4191
 444  681.432
 445  643.604
 446  520.8676
 447  514.9193
 448  588.0374
 449  419.2051
 450  563.3016
 451  599.175
 452  495.5108
 453  485.0854
 454  544.6607
 455  487.5475
 456  484.4276
 457  554.061
 458  594.9183
 459  626.7783
 460  600.9202
 461  513.5368
 462  505.3303
 463  413.6975
 464  426.3892
 465  438.6835
 466  394.084
 467  418.2356
 468  529.5061
 469  589.8894
 470  525.8402
 471  626.2576
 472  686.9627
 473  587.4086
 474  514.3125
 475  647.0306
 476  615.1188
 477  582.5219
 478  579.3701
 479  584.6475
 480  638.3552
 481  683.5367
 482  580.3111
 483  527.6635
 484  587.0425
 485  602.5882
 486  644.6265
 487  700.0783
 488  608.5681
 489  627.7274
 490  678.9181
 491  710.0647
 492  847.6841
 493  815.2507
 494  853.2251
 495  676.0125
 496  711.6079
 497  820.5389
 498  820.9712
 499  638.2125
 500  776.2365
 501  852.4788
 502  912.4991
 503  840.1862
 504  748.3715
 505  884.4704
 506  874.3461
 507  760.9671
 508  827.5235
 509  986.1747
 510  1182.651
 511  1268.447
