# Input file       =  1185349336.100742_cleaned.dat
# Candidate        =  PSR_0332+5434
# Telescope        =  AR
# Epoch_topo       =  57963.320811351179
# Epoch_bary       =  N/A
# T_sample         =  0.002
# Data Folded      =  7340032
# Data Avg         =  0.0474146541808692
# Data StdDev      =  1.00030517651447 
# Profile Bins     =  512
# Profile Avg      =  679.693995477845 
# Profile StdDev   =  119.769576087475 
# Reduced chi-sqr  =  1.847
# Prob(Noise)      <  3.51e-28   (~10.9 sigma)
# P_topo (ms)      =  714.471037062142  +/- 0.000237
# P'_topo (s/s)    =  -0                +/- 1.25e-10
# P''_topo (s/s^2) =  0                 +/- 5.52e-14
# P_bary (ms)      =  N/A
# P'_bary (s/s)    =  N/A
# P''_bary (s/s^2) =  N/A
# P_orb (s)        =  N/A
# asin(i)/c (s)    =  N/A
# eccentricity     =  N/A
# w (rad)          =  N/A
# T_peri           =  N/A
######################################################
   0  621.884
   1  699.9076
   2  716.5683
   3  724.4709
   4  658.2291
   5  714.0736
   6  760.0471
   7  730.6295
   8  744.537
   9  672.294
  10  731.1937
  11  903.9532
  12  856.6265
  13  707.9758
  14  708.8087
  15  695.7134
  16  795.7288
  17  704.0718
  18  733.0261
  19  696.9334
  20  670.1353
  21  677.3226
  22  812.7751
  23  708.9786
  24  635.7315
  25  570.8688
  26  628.9404
  27  613.3895
  28  674.2641
  29  700.7082
  30  693.6682
  31  606.6913
  32  622.5034
  33  686.842
  34  565.6755
  35  486.6459
  36  603.1605
  37  461.8356
  38  492.382
  39  609.0898
  40  542.688
  41  478.3601
  42  531.0581
  43  514.0836
  44  455.0433
  45  535.0165
  46  582.8884
  47  617.9576
  48  618.5367
  49  534.3217
  50  520.8181
  51  450.0095
  52  401.0173
  53  446.9757
  54  420.5627
  55  384.1458
  56  490.1424
  57  577.5433
  58  555.3553
  59  545.9872
  60  700.2397
  61  639.946
  62  524.2704
  63  581.58
  64  653.3729
  65  598.1998
  66  568.9492
  67  586.4074
  68  585.3459
  69  699.0132
  70  630.9258
  71  537.7642
  72  556.7651
  73  609.9371
  74  604.1326
  75  700.0701
  76  646.5273
  77  602.7742
  78  668.6859
  79  666.2479
  80  816.5396
  81  820.877
  82  856.5028
  83  750.2682
  84  664.7351
  85  784.3918
  86  851.4846
  87  690.5278
  88  705.7811
  89  838.811
  90  890.741
  91  876.9949
  92  778.1699
  93  795.8438
  94  942.6135
  95  774.5674
  96  795.545
  97  902.0082
  98  1101.254
  99  1254.714
 100  1211.563
 101  1222.562
 102  1250.485
 103  1007.299
 104  907.367
 105  848.7079
 106  695.2466
 107  732.666
 108  773.6205
 109  780.2719
 110  739.4016
 111  764.8786
 112  757.1756
 113  748.0477
 114  719.637
 115  784.8083
 116  720.393
 117  702.506
 118  657.6293
 119  655.8121
 120  716.2197
 121  769.6323
 122  784.6398
 123  717.6151
 124  780.3805
 125  746.3925
 126  615.8365
 127  662.8254
 128  624.9363
 129  666.9347
 130  639.2461
 131  635.1555
 132  611.3158
 133  664.6163
 134  623.9445
 135  698.4076
 136  682.0079
 137  739.0606
 138  663.9008
 139  595.7462
 140  603.1257
 141  663.0085
 142  691.0325
 143  760.0864
 144  733.4719
 145  731.1475
 146  748.8345
 147  784.7085
 148  861.5903
 149  778.5039
 150  754.8005
 151  789.4226
 152  791.8417
 153  896.1191
 154  825.7463
 155  854.2698
 156  911.2838
 157  828.0551
 158  859.2925
 159  901.1651
 160  775.2634
 161  764.3174
 162  830.1924
 163  705.34
 164  677.5153
 165  757.8926
 166  788.5512
 167  870.5535
 168  833.4575
 169  758.9138
 170  730.0264
 171  777.5902
 172  833.0557
 173  851.0624
 174  763.3192
 175  751.2864
 176  753.817
 177  762.9695
 178  674.1298
 179  612.5569
 180  644.4545
 181  655.4173
 182  780.6787
 183  817.8962
 184  683.3582
 185  643.8945
 186  632.8099
 187  657.2006
 188  642.481
 189  651.3791
 190  583.1913
 191  632.4662
 192  605.9882
 193  577.2628
 194  614.881
 195  561.1884
 196  495.2266
 197  500.4096
 198  637.8468
 199  651.7414
 200  576.8
 201  624.7197
 202  649.5695
 203  583.4509
 204  647.1236
 205  636.7565
 206  611.8582
 207  655.3085
 208  644.924
 209  499.3301
 210  598.65
 211  716.6226
 212  784.2852
 213  792.4487
 214  745.1627
 215  697.5052
 216  662.5223
 217  718.6027
 218  774.2779
 219  794.5363
 220  756.4386
 221  752.8937
 222  785.8932
 223  720.0046
 224  671.9075
 225  623.1005
 226  724.7038
 227  728.2427
 228  703.7735
 229  764.1464
 230  811.7993
 231  812.5461
 232  768.5043
 233  736.335
 234  703.4872
 235  668.6716
 236  627.0011
 237  730.5869
 238  769.3192
 239  701.0775
 240  745.3668
 241  705.428
 242  603.8112
 243  589.8725
 244  708.0569
 245  676.1188
 246  636.5963
 247  681.4338
 248  656.2344
 249  605.8098
 250  585.1569
 251  647.9036
 252  641.1597
 253  625.7749
 254  588.7838
 255  686.3838
 256  677.9232
 257  563.2066
 258  691.0911
 259  615.1896
 260  471.2296
 261  561.8109
 262  556.6631
 263  595.8005
 264  590.6006
 265  607.8553
 266  598.7027
 267  652.6447
 268  734.0905
 269  775.4932
 270  702.913
 271  680.6207
 272  692.4352
 273  564.147
 274  557.8553
 275  559.4316
 276  597.6197
 277  654.6084
 278  661.0757
 279  653.3528
 280  614.0616
 281  609.1851
 282  650.4866
 283  672.7299
 284  617.5228
 285  686.3594
 286  629.4036
 287  463.0434
 288  587.6725
 289  698.6248
 290  728.1536
 291  683.2189
 292  684.6733
 293  608.207
 294  637.4376
 295  664.6303
 296  646.1069
 297  724.3329
 298  748.765
 299  752.3318
 300  730.5948
 301  799.9626
 302  846.817
 303  906.86
 304  915.4934
 305  880.1273
 306  875.9615
 307  928.4014
 308  925.4348
 309  903.8216
 310  908.8496
 311  875.7407
 312  795.1784
 313  839.0292
 314  807.694
 315  675.3684
 316  802.4642
 317  785.579
 318  642.8723
 319  652.7901
 320  687.1448
 321  674.9257
 322  664.267
 323  712.9047
 324  761.032
 325  719.3341
 326  753.5803
 327  716.7893
 328  667.0904
 329  679.887
 330  698.9315
 331  693.3043
 332  682.8514
 333  771.1132
 334  600.8314
 335  658.3807
 336  742.042
 337  688.8791
 338  600.8127
 339  598.4927
 340  700.1995
 341  592.5935
 342  540.2362
 343  475.2462
 344  537.0569
 345  513.7346
 346  479.3832
 347  552.8187
 348  704.5888
 349  733.1585
 350  687.0165
 351  611.4401
 352  620.4659
 353  717.2147
 354  731.5701
 355  677.5972
 356  554.9866
 357  793.5764
 358  802.3137
 359  704.0954
 360  629.8533
 361  597.1989
 362  578.7764
 363  646.7805
 364  699.6842
 365  775.5731
 366  722.2087
 367  766.0019
 368  722.1076
 369  696.8162
 370  685.6198
 371  678.0914
 372  763.4203
 373  831.4354
 374  880.5385
 375  829.2278
 376  814.5601
 377  879.6561
 378  836.0289
 379  757.5012
 380  833.4104
 381  963.4017
 382  814.1661
 383  748.2858
 384  788.1806
 385  747.0966
 386  717.6967
 387  771.3432
 388  729.1095
 389  706.7176
 390  785.8618
 391  764.5599
 392  754.9825
 393  689.3472
 394  723.3018
 395  701.9287
 396  648.2015
 397  696.5233
 398  679.8232
 399  686.4147
 400  669.4329
 401  638.0339
 402  699.2177
 403  746.8572
 404  689.3362
 405  655.5375
 406  680.5527
 407  706.8997
 408  738.9236
 409  686.3313
 410  623.7916
 411  531.1278
 412  504.4653
 413  579.605
 414  666.4604
 415  721.8297
 416  665.9346
 417  629.7769
 418  614.8945
 419  597.606
 420  635.9605
 421  561.8867
 422  616.7813
 423  633.923
 424  618.7428
 425  531.4398
 426  599.5689
 427  686.293
 428  566.7455
 429  460.1147
 430  561.2808
 431  614.768
 432  557.03
 433  671.5917
 434  696.0963
 435  638.0603
 436  600.3978
 437  724.7543
 438  713.1281
 439  729.919
 440  769.2405
 441  672.9441
 442  680.8452
 443  616.2479
 444  703.5284
 445  715.1058
 446  669.4244
 447  682.7526
 448  742.1144
 449  793.0311
 450  770.7011
 451  681.3431
 452  651.2078
 453  638.0834
 454  606.554
 455  586.1665
 456  705.567
 457  667.0173
 458  706.2491
 459  643.2433
 460  728.1034
 461  751.5709
 462  704.6575
 463  662.5254
 464  623.4995
 465  620.8073
 466  624.0182
 467  674.6458
 468  694.4487
 469  691.9176
 470  680.5074
 471  569.0611
 472  521.4621
 473  556.9476
 474  601.2327
 475  523.6613
 476  471.7842
 477  499.5772
 478  507.4607
 479  425.9233
 480  409.2431
 481  481.9669
 482  506.9874
 483  447.1016
 484  485.0152
 485  470.1029
 486  443.6419
 487  505.7077
 488  573.305
 489  541.6004
 490  508.3585
 491  534.6075
 492  556.3915
 493  553.4713
 494  568.1086
 495  601.7212
 496  546.0962
 497  505.2732
 498  557.4192
 499  571.449
 500  597.343
 501  471.7564
 502  451.4293
 503  521.7968
 504  569.9394
 505  583.308
 506  616.4866
 507  543.6899
 508  522.0343
 509  468.127
 510  579.274
 511  603.551
