# Input file       =  1185349336.100742_cleaned.dat
# Candidate        =  PSR_0332+5434
# Telescope        =  AR
# Epoch_topo       =  57963.320811351179
# Epoch_bary       =  N/A
# T_sample         =  0.002
# Data Folded      =  7340032
# Data Avg         =  0.0474146541808692
# Data StdDev      =  1.00030517651447 
# Profile Bins     =  512
# Profile Avg      =  679.694006670765 
# Profile StdDev   =  119.769576087475 
# Reduced chi-sqr  =  1.847
# Prob(Noise)      <  3.66e-28   (~10.9 sigma)
# P_topo (ms)      =  714.471035802255  +/- 0.000237
# P'_topo (s/s)    =  -0                +/- 1.25e-10
# P''_topo (s/s^2) =  0                 +/- 5.52e-14
# P_bary (ms)      =  N/A
# P'_bary (s/s)    =  N/A
# P''_bary (s/s^2) =  N/A
# P_orb (s)        =  N/A
# asin(i)/c (s)    =  N/A
# eccentricity     =  N/A
# w (rad)          =  N/A
# T_peri           =  N/A
######################################################
   0  1217.74
   1  1257.215
   2  1012.863
   3  908.7577
   4  851.178
   5  699.2613
   6  731.2678
   7  772.4292
   8  781.5039
   9  739.4499
  10  762.3505
  11  759.5156
  12  747.8103
  13  720.4194
  14  783.6628
  15  723.5684
  16  701.593
  17  660.0804
  18  653.6316
  19  714.6025
  20  768.2222
  21  786.0272
  22  719.433
  23  774.9766
  24  751.0336
  25  619.1514
  26  661.277
  27  625.85
  28  665.5958
  29  641.1633
  30  632.7563
  31  610.8441
  32  664.953
  33  624.0392
  34  697.2681
  35  682.6544
  36  738.6797
  37  665.8622
  38  597.4116
  39  599.1833
  40  665.4401
  41  687.5471
  42  758.6465
  43  734.8896
  44  730.0804
  45  750.1921
  46  780.8326
  47  861.9097
  48  780.5916
  49  754.617
  50  787.4993
  51  791.8113
  52  894.0839
  53  828.2219
  54  850.7267
  55  912.1964
  56  831.3043
  57  854.7151
  58  903.4965
  59  779.3959
  60  761.2886
  61  831.1882
  62  709.5112
  63  677.3376
  64  753.9991
  65  788.0551
  66  866.1721
  67  837.9724
  68  761.7673
  69  728.1821
  70  777.1392
  71  829.6835
  72  854.3088
  73  765.067
  74  751.408
  75  752.3389
  76  763.1743
  77  679.3233
  78  612.5927
  79  644.3563
  80  653.0264
  81  774.7649
  82  821.6923
  83  686.2833
  84  644.8698
  85  632.5772
  86  656.6769
  87  642.9598
  88  653.1716
  89  583.4609
  90  629.7328
  91  609.959
  92  574.4745
  93  617.4332
  94  563.0729
  95  498.3463
  96  494.8164
  97  635.9337
  98  651.514
  99  580.8265
 100  619.5992
 101  652.0302
 102  583.9714
 103  644.4747
 104  636.9485
 105  612.0124
 106  653.4753
 107  649.4097
 108  502.6311
 109  591.5504
 110  716.0275
 111  780.2341
 112  795.6011
 113  745.4372
 114  698.3171
 115  663.761
 116  715.2881
 117  773.5549
 118  794.308
 119  758.5983
 120  751.2544
 121  787.1146
 122  720.6987
 123  674.7462
 124  622.757
 125  721.3491
 126  728.9891
 127  703.7938
 128  761.5792
 129  811.2784
 130  812.9551
 131  772.5977
 132  734.3098
 133  704.4013
 134  671.0294
 135  625.8838
 136  724.5584
 137  774.3721
 138  702.6286
 139  741.8458
 140  707.6275
 141  607.3439
 142  588.5006
 143  706.1489
 144  678.6533
 145  635.4502
 146  680.9966
 147  656.9252
 148  608.4799
 149  582.8904
 150  647.4017
 151  640.0962
 152  628.2361
 153  585.9197
 154  686.1452
 155  680.4982
 156  564.3979
 157  686.754
 158  622.1836
 159  470.3275
 160  562.7517
 161  553.6164
 162  596.2642
 163  588.6965
 164  610.0426
 165  596.5573
 166  650.728
 167  729.7887
 168  776.8317
 169  706.3785
 170  681.065
 171  694.4817
 172  567.0055
 173  555.5096
 174  560.7885
 175  596.0587
 176  653.3788
 177  659.4931
 178  653.4106
 179  616.684
 180  608.9894
 181  648.3499
 182  673.7212
 183  618.8497
 184  682.874
 185  635.3994
 186  464.3371
 187  581.3391
 188  698.3277
 189  727.4111
 190  684.1856
 191  685.6464
 192  610.8329
 193  634.0744
 194  665.0942
 195  646.5338
 196  721.313
 197  748.1292
 198  754.1309
 199  728.5004
 200  796.7138
 201  847.2743
 202  904.451
 203  917.2229
 204  879.5006
 205  876.1057
 206  926.46
 207  925.8649
 208  904.9261
 209  909.0035
 210  877.3397
 211  799.1653
 212  835.3719
 213  812.1341
 214  674.9888
 215  795.8381
 216  791.6838
 217  646.1189
 218  650.8169
 219  688.0917
 220  674.4217
 221  665.8221
 222  707.7621
 223  762.1115
 224  720.2651
 225  751.4844
 226  721.3754
 227  665.9172
 228  680.4365
 229  697.7896
 230  696.0991
 231  679.6301
 232  771.323
 233  605.3679
 234  653.0387
 235  741.5309
 236  691.9822
 237  603.4363
 238  594.1564
 239  702.0667
 240  596.4883
 241  541.6776
 242  475.4825
 243  535.7297
 244  515.3459
 245  478.9211
 246  547.4587
 247  702.4419
 248  730.6614
 249  692.522
 250  610.9123
 251  621.8399
 252  710.8038
 253  734.2552
 254  681.7379
 255  554.0669
 256  784.9185
 257  805.5956
 258  708.3273
 259  631.7017
 260  598.2082
 261  578.5844
 262  642.1995
 263  698.3835
 264  775.89
 265  721.3154
 266  764.9618
 267  726.1968
 268  695.1396
 269  688.4025
 270  675.4214
 271  759.5052
 272  830.1174
 273  880.0618
 274  831.1111
 275  813.5141
 276  878.0234
 277  840.4948
 278  758.3338
 279  829.418
 280  961.8977
 281  822.3452
 282  744.8556
 283  788.405
 284  749.1608
 285  716.426
 286  769.8535
 287  733.9331
 288  702.7864
 289  787.4853
 290  762.4233
 291  757.2421
 292  688.2595
 293  721.9611
 294  705.6716
 295  648.5668
 296  694.2631
 297  681.2797
 298  685.4652
 299  670.3035
 300  638.0948
 301  695.4398
 302  750.2726
 303  690.2503
 304  656.4272
 305  677.5677
 306  705.7726
 307  739.1178
 308  689.8275
 309  623.3692
 310  535.1078
 311  503.6801
 312  578.6789
 313  661.9223
 314  722.0215
 315  668.3539
 316  630.0624
 317  616.5107
 318  597.1015
 319  634.4744
 320  566.3724
 321  611.6074
 322  634.4337
 323  621.136
 324  535.161
 325  591.0424
 326  689.9289
 327  571.1439
 328  459.6425
 329  555.3144
 330  617.4615
 331  556.7781
 332  668.7418
 333  698.324
 334  639.6735
 335  597.8368
 336  720.4067
 337  716.5814
 338  725.5998
 339  773.2925
 340  673.3728
 341  683.3945
 342  613.5181
 343  700.8011
 344  717.2488
 345  671.2991
 346  678.9845
 347  741.1358
 348  793.4641
 349  771.9918
 350  684.2117
 351  652.8874
 352  637.5377
 353  608.3434
 354  584.4967
 355  703.4025
 356  666.9179
 357  706.1114
 358  643.3513
 359  724.8969
 360  753.7719
 361  705.5671
 362  662.6087
 363  625.4815
 364  622.4413
 365  621.0956
 366  671.6368
 367  694.6428
 368  693.5599
 369  681.1973
 370  574.5445
 371  519.9155
 372  557.1791
 373  599.9697
 374  527.5138
 375  469.8293
 376  499.646
 377  509.7534
 378  426.1147
 379  410.89
 380  477.1206
 381  509.9549
 382  447.9385
 383  482.7227
 384  473.0801
 385  441.1755
 386  504.8102
 387  569.4678
 388  546.9083
 389  504.8801
 390  536.6271
 391  553.9963
 392  554.0819
 393  568.2361
 394  600.0995
 395  550.4864
 396  501.3243
 397  559.0083
 398  568.9631
 399  599.9497
 400  473.6619
 401  451.7848
 402  517.5607
 403  570.9818
 404  583.5023
 405  617.9829
 406  545.2068
 407  522.1645
 408  466.7985
 409  576.1905
 410  603.2955
 411  621.0625
 412  697.0906
 413  716.3233
 414  726.1546
 415  660.5178
 416  708.9717
 417  761.8284
 418  729.5095
 419  746.1589
 420  674.6716
 421  724.0829
 422  901.7646
 423  861.7722
 424  709.1537
 425  708.0267
 426  697.0061
 427  792.8387
 428  707.4952
 429  731.6164
 430  698.1086
 431  671.835
 432  672.9732
 433  810.4434
 434  714.8768
 435  637.2295
 436  572.1908
 437  628.8578
 438  611.4604
 439  673.0078
 440  698.8641
 441  696.4404
 442  608.7339
 443  620.2875
 444  688.0048
 445  569.3605
 446  488.4005
 447  597.9553
 448  468.1935
 449  486.5974
 450  609.07
 451  546.9677
 452  476.9238
 453  530.2903
 454  517.0317
 455  453.9219
 456  532.6578
 457  582.3022
 458  616.404
 459  619.5054
 460  538.1872
 461  518.026
 462  451.8515
 463  401.9456
 464  447.5625
 465  422.9521
 466  384.0361
 467  485.5748
 468  574.1613
 469  559.499
 470  541.3705
 471  695.7941
 472  646.0817
 473  527.765
 474  575.2984
 475  654.3019
 476  598.8345
 477  569.6467
 478  586.3247
 479  582.1824
 480  699.2316
 481  635.3099
 482  539.7049
 483  553.3738
 484  608.4551
 485  604.5828
 486  697.3226
 487  649.9459
 488  601.6297
 489  667.6779
 490  665.1135
 491  810.5937
 492  822.694
 493  856.4055
 494  757.2869
 495  660.7048
 496  780.1259
 497  854.9128
 498  696.5413
 499  698.8328
 500  837.3286
 501  888.5648
 502  880.8118
 503  779.2027
 504  790.1689
 505  946.0435
 506  777.6357
 507  792.7686
 508  895.9479
 509  1095.82
 510  1250.424
 511  1216.91
