# Input file       =  1186799925.14863_cleaned.dat
# Candidate        =  PSR_0332+5434
# Telescope        =  AR
# Epoch_topo       =  57980.110036442478
# Epoch_bary       =  N/A
# T_sample         =  0.002
# Data Folded      =  7340032
# Data Avg         =  0.00741621497492868
# Data StdDev      =  1.00007937360534 
# Profile Bins     =  512
# Profile Avg      =  106.314482903296 
# Profile StdDev   =  119.742540019542 
# Reduced chi-sqr  =  1.577
# Prob(Noise)      <  1.35e-15   (~7.9 sigma)
# P_topo (ms)      =  714.464853581711  +/- 0.000119
# P'_topo (s/s)    =  -0                +/- 6.27e-11
# P''_topo (s/s^2) =  0                 +/- 2.77e-14
# P_bary (ms)      =  N/A
# P'_bary (s/s)    =  N/A
# P''_bary (s/s^2) =  N/A
# P_orb (s)        =  N/A
# asin(i)/c (s)    =  N/A
# eccentricity     =  N/A
# w (rad)          =  N/A
# T_peri           =  N/A
######################################################
   0  867.574
   1  700.3977
   2  469.1672
   3  253.7208
   4  244.6927
   5  145.6586
   6  57.54318
   7  31.52687
   8  114.7896
   9  76.01601
  10  104.9129
  11  7.252462
  12  99.2776
  13  22.49042
  14  45.82467
  15  195.6515
  16  158.7124
  17  -29.97432
  18  -19.95974
  19  62.08303
  20  8.821036
  21  131.0453
  22  218.7258
  23  113.4331
  24  54.70273
  25  172.7018
  26  151.4499
  27  103.7285
  28  139.7462
  29  136.4629
  30  183.779
  31  190.5158
  32  122.9667
  33  36.23349
  34  113.3063
  35  165.481
  36  25.34913
  37  71.58941
  38  38.38192
  39  -78.88736
  40  62.48467
  41  241.4244
  42  77.18958
  43  25.41525
  44  102.2723
  45  42.54545
  46  -37.95552
  47  108.1288
  48  122.0529
  49  224.4436
  50  82.46576
  51  22.98747
  52  -59.33768
  53  -22.65696
  54  63.67383
  55  135.6674
  56  52.87207
  57  55.74187
  58  1.509432
  59  -159.7642
  60  -48.03475
  61  22.46075
  62  73.12441
  63  82.03343
  64  -56.9611
  65  157.6026
  66  37.88396
  67  68.6837
  68  117.5962
  69  -63.1559
  70  50.03262
  71  31.64073
  72  51.17898
  73  227.4273
  74  127.9829
  75  158.0907
  76  116.5071
  77  170.8192
  78  142.8442
  79  138.6404
  80  177.6611
  81  107.527
  82  66.74207
  83  150.5571
  84  169.3188
  85  110.8609
  86  -25.40736
  87  -27.76323
  88  95.64696
  89  146.6626
  90  36.70483
  91  -81.97691
  92  101.4369
  93  55.75886
  94  82.7874
  95  -43.06742
  96  -4.628217
  97  80.32004
  98  75.63662
  99  156.7757
 100  62.47811
 101  112.6927
 102  123.9133
 103  159.1048
 104  43.69957
 105  0.4427085
 106  -64.38543
 107  76.95624
 108  129.0097
 109  -118.1483
 110  -67.23976
 111  48.58523
 112  14.69082
 113  63.31736
 114  187.0309
 115  143.6498
 116  -27.00826
 117  15.21797
 118  144.2247
 119  66.69804
 120  50.26773
 121  65.86975
 122  80.20813
 123  184.1074
 124  158.3172
 125  147.2467
 126  174.8156
 127  225.5096
 128  166.1712
 129  -3.732718
 130  44.56853
 131  216.0163
 132  230.3371
 133  145.2426
 134  32.15867
 135  167.1578
 136  82.81511
 137  43.03414
 138  128.2988
 139  131.3902
 140  121.6019
 141  109.556
 142  237.6983
 143  233.6654
 144  64.2149
 145  114.9821
 146  112.7746
 147  -55.08959
 148  5.733263
 149  -0.2944168
 150  68.09809
 151  6.144775
 152  48.37255
 153  53.01078
 154  57.32843
 155  49.32339
 156  222.2362
 157  223.8975
 158  254.1016
 159  257.1568
 160  134.4017
 161  155.1372
 162  81.97286
 163  10.16337
 164  -19.25449
 165  27.97334
 166  208.929
 167  62.18145
 168  70.43398
 169  104.006
 170  79.83777
 171  5.603452
 172  -4.064849
 173  28.54902
 174  58.08306
 175  -16.86717
 176  101.871
 177  62.55134
 178  274.9629
 179  255.5879
 180  67.56302
 181  63.31429
 182  79.4031
 183  19.79166
 184  -12.78323
 185  61.04483
 186  19.82945
 187  -52.95982
 188  -11.3609
 189  43.16113
 190  20.31942
 191  -93.43604
 192  -114.2528
 193  83.45644
 194  -125.1895
 195  -20.11115
 196  -26.24517
 197  110.2749
 198  230.497
 199  167.6425
 200  94.51479
 201  58.93879
 202  267.8606
 203  6.721089
 204  2.895003
 205  96.69541
 206  294.6012
 207  164.9946
 208  -52.21128
 209  -7.740639
 210  86.27671
 211  63.59474
 212  137.7776
 213  131.4059
 214  159.8241
 215  190.3768
 216  158.8568
 217  194.4691
 218  243.88
 219  227.8616
 220  181.9723
 221  221.1534
 222  205.5734
 223  155.5406
 224  178.1997
 225  241.3842
 226  267.2216
 227  90.48023
 228  36.96156
 229  26.52235
 230  14.27467
 231  134.0124
 232  152.2525
 233  40.30827
 234  54.04756
 235  166.4241
 236  271.1974
 237  133.9691
 238  100.3157
 239  85.11806
 240  83.36922
 241  259.7388
 242  298.5643
 243  84.91233
 244  13.10177
 245  232.0497
 246  298.9282
 247  207.2679
 248  262.5269
 249  215.637
 250  61.61043
 251  30.3666
 252  92.57226
 253  205.7107
 254  151.0521
 255  97.05091
 256  118.3238
 257  153.0448
 258  20.74716
 259  79.95753
 260  95.32984
 261  105.4294
 262  80.61729
 263  61.23339
 264  90.53187
 265  -10.01203
 266  18.0057
 267  33.81668
 268  164.4602
 269  121.2151
 270  86.96181
 271  24.94532
 272  -2.735722
 273  84.73318
 274  44.68122
 275  119.6923
 276  223.6345
 277  110.5534
 278  32.73833
 279  137.371
 280  230.9746
 281  -6.867255
 282  -83.05605
 283  76.08853
 284  163.2946
 285  147.9232
 286  167.6997
 287  198.6515
 288  232.0127
 289  230.3422
 290  90.32407
 291  112.0032
 292  111.8535
 293  139.1904
 294  8.069176
 295  5.289835
 296  125.5838
 297  78.4921
 298  36.23008
 299  139.2118
 300  148.3511
 301  -4.045672
 302  -107.716
 303  124.1473
 304  208.2525
 305  157.2401
 306  -21.12321
 307  81.25527
 308  200.6048
 309  108.8337
 310  121.6505
 311  187.6516
 312  116.3119
 313  203.825
 314  273.1715
 315  258.8318
 316  121.3894
 317  64.42455
 318  83.06595
 319  72.70135
 320  -2.665899
 321  65.69841
 322  240.3505
 323  284.7856
 324  201.1992
 325  186.0274
 326  269.4589
 327  247.4918
 328  82.47987
 329  196.3568
 330  256.1291
 331  -29.52769
 332  -62.62225
 333  39.34682
 334  205.1341
 335  163.5956
 336  0.8197775
 337  132.8813
 338  234.8314
 339  221.5571
 340  130.9975
 341  46.32379
 342  161.5722
 343  129.3764
 344  106.6106
 345  288.6247
 346  195.4048
 347  251.9713
 348  256.0607
 349  131.0491
 350  69.40125
 351  154.965
 352  146.8996
 353  69.71421
 354  182.8093
 355  221.659
 356  50.91112
 357  107.0051
 358  147.1372
 359  124.5114
 360  75.70647
 361  24.67747
 362  61.52024
 363  111.3447
 364  327.9468
 365  185.8944
 366  91.29115
 367  178.7653
 368  97.19728
 369  109.8531
 370  137.6502
 371  145.28
 372  61.69596
 373  98.31145
 374  270.0705
 375  145.4904
 376  54.44008
 377  191.2354
 378  232.4085
 379  156.1857
 380  185.0918
 381  209.561
 382  151.1563
 383  184.3979
 384  140.5938
 385  216.8496
 386  -10.59052
 387  31.04539
 388  38.96225
 389  178.417
 390  194.4054
 391  124.6447
 392  128.6819
 393  156.7695
 394  66.40691
 395  39.68531
 396  165.2584
 397  27.5068
 398  138.8519
 399  135.6444
 400  116.1743
 401  195.0357
 402  215.2583
 403  43.561
 404  91.61814
 405  135.0343
 406  132.0472
 407  104.5561
 408  145.1745
 409  51.03961
 410  37.26068
 411  21.23415
 412  56.68343
 413  134.1718
 414  124.3546
 415  108.0078
 416  22.53824
 417  -27.24751
 418  60.0199
 419  94.44342
 420  218.7542
 421  68.34756
 422  99.8223
 423  149.5343
 424  115.5844
 425  135.4063
 426  53.89392
 427  -4.235967
 428  25.60895
 429  31.06323
 430  -110.6684
 431  -63.44635
 432  147.7244
 433  155.4756
 434  18.16951
 435  94.36181
 436  291.8839
 437  215.7155
 438  172.0926
 439  -22.07758
 440  77.18103
 441  166.4894
 442  84.9203
 443  60.03186
 444  5.226532
 445  130.6145
 446  110.0293
 447  151.8548
 448  167.0937
 449  272.5305
 450  196.0523
 451  48.41873
 452  72.86184
 453  -15.99051
 454  16.82277
 455  -10.51608
 456  33.01443
 457  11.93893
 458  -48.58521
 459  -55.53416
 460  28.23839
 461  40.66021
 462  41.85977
 463  17.85401
 464  70.89466
 465  142.2711
 466  79.17392
 467  -0.522547
 468  -29.62735
 469  -11.28894
 470  -38.93741
 471  203.998
 472  199.9333
 473  58.46828
 474  85.24667
 475  257.6544
 476  249.8313
 477  88.44055
 478  87.71445
 479  18.26984
 480  21.89574
 481  62.50265
 482  104.7375
 483  -99.1253
 484  -91.41962
 485  35.47917
 486  73.50909
 487  -66.09383
 488  -111.4593
 489  -24.33263
 490  -7.281386
 491  7.511395
 492  121.0093
 493  203.8761
 494  289.7985
 495  162.1798
 496  -18.62572
 497  87.60899
 498  51.65656
 499  123.0605
 500  36.00802
 501  189.1223
 502  176.649
 503  153.9655
 504  120.7527
 505  96.99879
 506  219.5916
 507  174.483
 508  150.5147
 509  405.4148
 510  700.3992
 511  879.774
