# Input file       =  1187503992.109945_cleaned.dat
# Candidate        =  PSR_0332+5434
# Telescope        =  AR
# Epoch_topo       =  57988.258959605846
# Epoch_bary       =  N/A
# T_sample         =  0.002
# Data Folded      =  7340032
# Data Avg         =  0.00841313800774841
# Data StdDev      =  1.00002108701649 
# Profile Bins     =  512
# Profile Avg      =  120.564776357611 
# Profile StdDev   =  119.735561189278 
# Reduced chi-sqr  =  1.420
# Prob(Noise)      <  1.2e-09   (~6.0 sigma)
# P_topo (ms)      =  714.463906280869  +/- 0.000205
# P'_topo (s/s)    =  -0                +/- 1.08e-10
# P''_topo (s/s^2) =  0                 +/- 4.77e-14
# P_bary (ms)      =  N/A
# P'_bary (s/s)    =  N/A
# P''_bary (s/s^2) =  N/A
# P_orb (s)        =  N/A
# asin(i)/c (s)    =  N/A
# eccentricity     =  N/A
# w (rad)          =  N/A
# T_peri           =  N/A
######################################################
   0  712.5298
   1  669.0539
   2  471.0631
   3  327.3999
   4  -16.51062
   5  -54.69691
   6  -3.802733
   7  76.07182
   8  19.07922
   9  50.64053
  10  153.7402
  11  138.1567
  12  94.01359
  13  245.3075
  14  323.6444
  15  280.6807
  16  150.4628
  17  138.2251
  18  176.9456
  19  123.9773
  20  95.43148
  21  30.81182
  22  41.79556
  23  234.5137
  24  214.979
  25  189.8941
  26  224.9109
  27  138.9508
  28  107.7434
  29  212.1423
  30  150.8448
  31  143.5717
  32  159.3634
  33  39.67171
  34  -6.407058
  35  111.7852
  36  71.78271
  37  116.9167
  38  98.03523
  39  77.57071
  40  86.54639
  41  41.56329
  42  163.0533
  43  65.43286
  44  -2.671723
  45  169.8411
  46  292.8589
  47  208.0663
  48  136.9557
  49  97.70682
  50  -13.71919
  51  100.2086
  52  100.7542
  53  102.1931
  54  146.5041
  55  197.4062
  56  219.4747
  57  -5.848914
  58  138.3037
  59  228.78
  60  216.1921
  61  41.94538
  62  -42.22245
  63  33.46463
  64  88.18752
  65  96.07845
  66  142.0863
  67  62.49445
  68  -17.88311
  69  72.55865
  70  182.4771
  71  274.6828
  72  157.9352
  73  75.28968
  74  44.99852
  75  -20.86852
  76  176.0396
  77  198.6587
  78  38.24714
  79  21.24861
  80  193.24
  81  85.27891
  82  97.99981
  83  179.5608
  84  167.7589
  85  87.364
  86  202.5144
  87  196.539
  88  139.2387
  89  142.2171
  90  170.0071
  91  101.9114
  92  -47.64411
  93  17.54029
  94  110.1002
  95  195.4385
  96  23.21137
  97  -47.7039
  98  2.148895
  99  64.11908
 100  204.5239
 101  150.6601
 102  60.39042
 103  71.4782
 104  34.24891
 105  -8.282016
 106  10.08243
 107  32.20522
 108  158.8927
 109  126.297
 110  -5.333006
 111  -27.81677
 112  115.6565
 113  367.8981
 114  338.2691
 115  103.9267
 116  120.6192
 117  131.5455
 118  36.64787
 119  6.571734
 120  15.14103
 121  128.9604
 122  111.082
 123  36.46284
 124  157.2204
 125  174.9431
 126  210.7048
 127  147.3613
 128  149.4999
 129  194.2222
 130  148.2688
 131  67.78686
 132  175.2298
 133  113.4695
 134  32.71787
 135  112.1724
 136  -64.83462
 137  34.83818
 138  124.2331
 139  245.4969
 140  304.7786
 141  294.0526
 142  254.3218
 143  73.21516
 144  45.67596
 145  62.40817
 146  118.0808
 147  243.9211
 148  86.12514
 149  -24.84158
 150  53.77237
 151  -55.40316
 152  34.60987
 153  51.14681
 154  22.44069
 155  105.6738
 156  99.38952
 157  35.8305
 158  50.74252
 159  -45.45117
 160  36.73263
 161  74.0993
 162  18.41776
 163  80.49632
 164  60.57586
 165  9.505127
 166  169.9181
 167  192.4816
 168  192.8356
 169  105.3029
 170  127.2224
 171  236.2281
 172  231.0909
 173  190.7346
 174  256.8875
 175  248.4181
 176  108.7557
 177  32.96943
 178  68.97627
 179  185.2134
 180  225.2537
 181  85.73351
 182  218.2069
 183  189.5166
 184  181.8274
 185  125.1216
 186  218.4802
 187  133.6443
 188  223.1052
 189  328.7181
 190  256.0172
 191  192.9344
 192  199.3942
 193  138.0986
 194  228.9489
 195  295.9771
 196  214.9819
 197  77.4556
 198  25.41623
 199  148.8847
 200  131.7034
 201  80.11163
 202  51.84012
 203  29.73207
 204  -12.11003
 205  62.70071
 206  111.432
 207  42.57196
 208  108.1887
 209  115.4026
 210  101.5884
 211  57.09407
 212  56.84053
 213  11.40273
 214  27.57207
 215  115.2313
 216  135.9913
 217  154.7489
 218  97.63105
 219  168.5221
 220  187.714
 221  138.7716
 222  26.23985
 223  166.8019
 224  171.7662
 225  194.3436
 226  148.6613
 227  119.1611
 228  77.80576
 229  203.3099
 230  5.520215
 231  50.68768
 232  134.3836
 233  162.3608
 234  245.2159
 235  68.54893
 236  108.5266
 237  25.55591
 238  90.69398
 239  108.9237
 240  149.8395
 241  159.1234
 242  180.5977
 243  37.44493
 244  41.84129
 245  136.7192
 246  36.47068
 247  -71.43102
 248  4.229472
 249  -27.06944
 250  -29.47765
 251  93.36436
 252  81.74524
 253  70.75845
 254  128.7996
 255  278.1851
 256  142.3451
 257  -28.85565
 258  66.04939
 259  195.9003
 260  215.2422
 261  129.4414
 262  6.715475
 263  25.06078
 264  126.0988
 265  137.5535
 266  110.4285
 267  30.88399
 268  44.44986
 269  143.5331
 270  107.837
 271  61.33637
 272  144.9775
 273  144.8224
 274  94.58022
 275  17.60913
 276  119.2687
 277  168.6548
 278  146.4696
 279  169.2016
 280  139.2031
 281  142.6218
 282  167.8046
 283  189.6982
 284  36.19284
 285  118.198
 286  151.5052
 287  225.1605
 288  185.6246
 289  65.61053
 290  164.0346
 291  155.0663
 292  56.23549
 293  -43.50416
 294  -119.523
 295  89.65215
 296  110.5411
 297  50.77075
 298  80.78155
 299  170.58
 300  136.2183
 301  55.1267
 302  126.5576
 303  188.3015
 304  -70.36286
 305  33.13686
 306  135.3123
 307  113.3073
 308  87.57373
 309  102.8134
 310  80.80452
 311  69.75267
 312  179.4523
 313  31.91913
 314  10.73027
 315  73.74787
 316  126.5042
 317  69.91563
 318  107.3852
 319  179.3674
 320  100.1148
 321  94.91633
 322  105.6181
 323  100.9411
 324  141.2804
 325  36.22063
 326  52.16205
 327  109.3757
 328  73.39939
 329  -14.2067
 330  35.17627
 331  1.402737
 332  138.8858
 333  121.1485
 334  33.0632
 335  45.08156
 336  -25.25647
 337  43.36228
 338  152.3708
 339  148.4841
 340  153.6277
 341  12.51437
 342  -20.3033
 343  2.44106
 344  41.45432
 345  -49.79497
 346  -105.0898
 347  8.581871
 348  28.06368
 349  12.98982
 350  49.51405
 351  207.9264
 352  95.63795
 353  57.50907
 354  -44.57635
 355  13.02121
 356  60.44915
 357  17.18424
 358  95.40839
 359  23.19387
 360  107.4281
 361  30.83664
 362  -154.2188
 363  -33.99719
 364  2.105556
 365  236.7195
 366  153.7974
 367  -15.60632
 368  67.86242
 369  50.69671
 370  60.87024
 371  62.25817
 372  113.191
 373  100.7655
 374  201.7687
 375  97.67184
 376  136.7734
 377  66.00575
 378  205.3425
 379  78.74497
 380  79.71194
 381  102.9382
 382  117.2888
 383  147.8542
 384  26.84571
 385  46.25369
 386  47.69586
 387  50.04264
 388  88.28632
 389  212.0474
 390  209.7668
 391  284.6152
 392  163.6161
 393  40.5501
 394  187.4719
 395  155.1354
 396  151.8411
 397  52.72289
 398  133.8895
 399  270.396
 400  60.57702
 401  100.6223
 402  218.0717
 403  318.4359
 404  83.1358
 405  -15.1692
 406  39.28867
 407  72.61914
 408  87.90884
 409  105.0953
 410  163.4052
 411  222.7975
 412  227.5127
 413  285.7733
 414  316.296
 415  305.2899
 416  182.6078
 417  72.05569
 418  187.627
 419  81.6883
 420  98.09995
 421  144.5622
 422  90.53598
 423  174.7643
 424  186.4922
 425  86.99622
 426  93.16651
 427  6.051798
 428  -68.42478
 429  66.99032
 430  181.882
 431  301.9633
 432  200.7755
 433  228.5976
 434  210.4211
 435  188.426
 436  105.3525
 437  123.0717
 438  129.1808
 439  337.2502
 440  169.9166
 441  145.0124
 442  -76.22828
 443  9.936935
 444  67.21481
 445  14.80609
 446  49.45414
 447  197.4786
 448  189.4922
 449  302.3432
 450  179.2058
 451  -13.97112
 452  151.5452
 453  220.254
 454  198.2342
 455  209.8045
 456  19.74901
 457  81.65627
 458  119.9683
 459  274.5578
 460  369.9893
 461  111.0577
 462  89.05634
 463  182.2121
 464  188.6761
 465  145.8896
 466  153.9265
 467  123.6441
 468  90.52293
 469  134.9853
 470  220.9819
 471  173.8518
 472  90.80839
 473  -21.83318
 474  153.1771
 475  225.0762
 476  171.0131
 477  38.95678
 478  154.6614
 479  180.692
 480  66.53964
 481  186.1208
 482  222.8044
 483  140.6684
 484  88.80626
 485  64.91331
 486  317.6307
 487  148.6736
 488  73.10526
 489  108.4067
 490  97.86591
 491  66.63579
 492  194.1203
 493  260.2838
 494  231.9337
 495  190.9131
 496  244.0666
 497  232.2054
 498  165.9984
 499  78.4508
 500  69.79063
 501  84.17788
 502  61.82578
 503  106.8268
 504  206.9965
 505  126.1096
 506  169.036
 507  340.8464
 508  408.5764
 509  547.0316
 510  653.925
 511  730.6024
