# Input file       =  1188451331.12315_cleaned.dat
# Candidate        =  PSR_0332+5434
# Telescope        =  AR
# Epoch_topo       =  57999.223531517942
# Epoch_bary       =  N/A
# T_sample         =  0.002
# Data Folded      =  7340032
# Data Avg         =  0.0108513745389284
# Data StdDev      =  1.0000173546811  
# Profile Bins     =  512
# Profile Avg      =  155.317013381242 
# Profile StdDev   =  119.73511430543  
# Reduced chi-sqr  =  1.272
# Prob(Noise)      <  2.83e-05   (~4.0 sigma)
# P_topo (ms)      =  714.463973242201  +/- 0.000191
# P'_topo (s/s)    =  -0                +/- 1.01e-10
# P''_topo (s/s^2) =  0                 +/- 4.46e-14
# P_bary (ms)      =  N/A
# P'_bary (s/s)    =  N/A
# P''_bary (s/s^2) =  N/A
# P_orb (s)        =  N/A
# asin(i)/c (s)    =  N/A
# eccentricity     =  N/A
# w (rad)          =  N/A
# T_peri           =  N/A
######################################################
   0  520.0496
   1  581.9321
   2  643.2131
   3  373.4631
   4  234.0851
   5  250.2271
   6  24.98625
   7  138.3241
   8  120.2449
   9  9.022423
  10  159.1953
  11  217.9289
  12  317.8492
  13  443.5833
  14  370.7379
  15  384.2024
  16  334.6793
  17  234.9826
  18  202.3112
  19  91.46393
  20  235.1944
  21  204.1927
  22  68.33425
  23  73.44147
  24  53.86994
  25  66.26195
  26  315.4815
  27  225.6939
  28  234.1096
  29  216.126
  30  338.2856
  31  381.7758
  32  189.2056
  33  52.52523
  34  156.685
  35  233.3708
  36  303.8039
  37  197.591
  38  147.9477
  39  -7.470394
  40  60.46054
  41  150.0867
  42  110.4775
  43  283.9005
  44  292.1968
  45  238.2341
  46  120.5141
  47  191.2423
  48  61.00909
  49  29.14179
  50  55.26778
  51  231.7162
  52  249.9978
  53  262.0076
  54  245.8684
  55  213.2585
  56  69.4601
  57  -32.89032
  58  19.95347
  59  53.44894
  60  64.54107
  61  122.1832
  62  -21.98784
  63  14.0182
  64  40.92503
  65  104.856
  66  158.2822
  67  121.4216
  68  32.96892
  69  -74.39485
  70  44.17434
  71  105.5435
  72  1.309909
  73  72.23118
  74  69.8593
  75  177.0902
  76  -34.66648
  77  -6.777874
  78  172.9542
  79  306.4976
  80  296.9772
  81  183.3757
  82  226.9005
  83  193.3843
  84  193.7433
  85  163.2231
  86  287.1019
  87  231.131
  88  308.8379
  89  208.8059
  90  198.2018
  91  138.5017
  92  168.4599
  93  190.6925
  94  177.5729
  95  141.0335
  96  95.67091
  97  227.0916
  98  206.7582
  99  155.1606
 100  129.7415
 101  185.6955
 102  184.9841
 103  58.38366
 104  35.01717
 105  49.71639
 106  74.41187
 107  34.64821
 108  26.98223
 109  258.9962
 110  378.1175
 111  215.6949
 112  215.2179
 113  174.3584
 114  139.7763
 115  270.2687
 116  143.3278
 117  190.4878
 118  115.0619
 119  121.5311
 120  119.9363
 121  139.4505
 122  151.5804
 123  202.7071
 124  269.7164
 125  189.0289
 126  34.09573
 127  -12.67925
 128  108.1054
 129  148.7905
 130  96.20835
 131  170.9621
 132  59.11931
 133  227.7825
 134  205.1536
 135  125.7095
 136  112.158
 137  193.9849
 138  196.5148
 139  83.08657
 140  59.8049
 141  150.4623
 142  150.3222
 143  143.7753
 144  166.7001
 145  20.22094
 146  46.31343
 147  142.2459
 148  103.3405
 149  186.882
 150  363.1067
 151  208.2314
 152  132.2582
 153  297.9479
 154  281.5872
 155  69.39763
 156  279.0136
 157  254.0288
 158  167.1093
 159  102.759
 160  265.7067
 161  260.8194
 162  195.7091
 163  231.5388
 164  110.3221
 165  122.2484
 166  229.3804
 167  218.4925
 168  90.04466
 169  115.1451
 170  165.4482
 171  198.9038
 172  140.2403
 173  116.7485
 174  69.78402
 175  84.67997
 176  26.45411
 177  93.84447
 178  238.9566
 179  269.0496
 180  160.0159
 181  111.9248
 182  91.04455
 183  95.86465
 184  161.6983
 185  170.4437
 186  114.3983
 187  151.6085
 188  79.72106
 189  61.39745
 190  130.313
 191  121.3448
 192  78.37271
 193  129.2386
 194  167.9937
 195  163.2714
 196  14.52262
 197  52.83615
 198  -80.61568
 199  -66.97417
 200  13.51099
 201  157.4602
 202  76.94447
 203  20.47624
 204  11.72227
 205  126.4164
 206  150.9339
 207  103.2306
 208  36.24364
 209  -77.8797
 210  96.08474
 211  31.82313
 212  127.0959
 213  140.2299
 214  77.04677
 215  142.2506
 216  219.3808
 217  153.0535
 218  59.2403
 219  94.5232
 220  38.25442
 221  133.1431
 222  186.7766
 223  213.6133
 224  169.7327
 225  304.9977
 226  286.2516
 227  105.4321
 228  179.043
 229  125.5008
 230  130.9249
 231  156.3364
 232  126.9207
 233  197.0148
 234  22.45232
 235  56.40264
 236  149.2313
 237  140.1715
 238  80.28252
 239  89.1579
 240  138.464
 241  166.7896
 242  92.98335
 243  30.21824
 244  145.4391
 245  90.54935
 246  188.3313
 247  39.23548
 248  23.49732
 249  176.2032
 250  222.4124
 251  100.4945
 252  70.7172
 253  85.76987
 254  145.1714
 255  39.69234
 256  98.16393
 257  109.5681
 258  150.5858
 259  57.05939
 260  117.1101
 261  118.8842
 262  116.8724
 263  -24.03864
 264  14.13029
 265  -17.78566
 266  21.98192
 267  220.0712
 268  166.8116
 269  191.8245
 270  264.0403
 271  159.7209
 272  107.0407
 273  91.20837
 274  115.7582
 275  42.76537
 276  33.25238
 277  84.33816
 278  234.7591
 279  -16.73911
 280  1.626718
 281  113.9772
 282  -55.36087
 283  37.90591
 284  233.8259
 285  222.3169
 286  183.1711
 287  147.5955
 288  104.9588
 289  251.2423
 290  180.9222
 291  193.5529
 292  266.4016
 293  166.8419
 294  140.9553
 295  296.2772
 296  219.28
 297  210.0333
 298  245.7271
 299  377.9845
 300  308.6443
 301  153.4446
 302  17.60047
 303  185.9726
 304  192.1301
 305  274.3609
 306  261.2
 307  219.9738
 308  215.4458
 309  193.142
 310  73.27769
 311  246.2346
 312  299.4664
 313  250.4283
 314  136.9778
 315  189.0164
 316  267.5232
 317  201.4953
 318  51.89249
 319  104.6471
 320  165.542
 321  163.1611
 322  158.4752
 323  81.62417
 324  63.40955
 325  165.8195
 326  75.65022
 327  62.1949
 328  65.61588
 329  155.5639
 330  185.0008
 331  188.3544
 332  200.0179
 333  194.1959
 334  -16.30183
 335  15.00751
 336  131.5937
 337  272.8596
 338  244.0461
 339  202.3985
 340  132.1801
 341  50.23368
 342  140.3064
 343  177.7558
 344  161.114
 345  228.0609
 346  214.0278
 347  144.3411
 348  313.4726
 349  349.0114
 350  220.1817
 351  132.3671
 352  232.2764
 353  201.7389
 354  273.2713
 355  259.9462
 356  190.039
 357  131.6451
 358  243.7357
 359  276.1228
 360  197.6189
 361  149.0003
 362  156.7629
 363  39.63985
 364  43.44177
 365  158.8769
 366  148.953
 367  137.2424
 368  231.7386
 369  180.2618
 370  133.1279
 371  110.871
 372  182.2863
 373  226.015
 374  266.6412
 375  133.0279
 376  123.5051
 377  198.3396
 378  164.1238
 379  113.5544
 380  106.2474
 381  222.3781
 382  217.0407
 383  164.2842
 384  176.9246
 385  219.5686
 386  287.4977
 387  244.8691
 388  181.4834
 389  254.6525
 390  236.739
 391  126.853
 392  312.3217
 393  387.4861
 394  347.3906
 395  197.7335
 396  170.5092
 397  272.6056
 398  114.7038
 399  160.3469
 400  153.7119
 401  157.3615
 402  257.6288
 403  103.391
 404  -45.73836
 405  37.02501
 406  101.3078
 407  48.47914
 408  139.8137
 409  185.5056
 410  149.2888
 411  104.6575
 412  175.1709
 413  246.4926
 414  160.1041
 415  76.58122
 416  95.55248
 417  197.5115
 418  234.7628
 419  106.1707
 420  19.09505
 421  -37.27502
 422  173.7025
 423  179.7922
 424  68.8014
 425  73.87469
 426  69.69275
 427  78.73233
 428  60.07514
 429  -4.01049
 430  -33.63665
 431  86.89184
 432  280.9631
 433  246.0598
 434  14.68443
 435  -54.45289
 436  -60.06898
 437  118.4001
 438  313.7625
 439  259.6967
 440  159.1597
 441  77.62412
 442  138.2186
 443  66.37985
 444  143.2369
 445  170.7262
 446  106.7082
 447  132.6211
 448  183.5444
 449  247.8005
 450  332.4416
 451  169.9772
 452  203.8229
 453  152.2291
 454  172.0306
 455  198.306
 456  160.9938
 457  114.0808
 458  189.7113
 459  218.7601
 460  201.3828
 461  -34.24112
 462  -8.485447
 463  173.1076
 464  143.8586
 465  195.9102
 466  294.1184
 467  224.5834
 468  116.0701
 469  201.7669
 470  222.6213
 471  146.9387
 472  104.4101
 473  152.5256
 474  173.1968
 475  150.9004
 476  54.58805
 477  68.93572
 478  203.2837
 479  140.4899
 480  34.61929
 481  109.4498
 482  103.1058
 483  24.00332
 484  -24.57951
 485  145.2406
 486  249.5912
 487  234.2421
 488  257.7284
 489  137.8132
 490  140.9587
 491  148.5194
 492  155.2761
 493  184.3849
 494  252.7374
 495  189.8932
 496  263.9274
 497  199.2327
 498  134.0555
 499  121.9865
 500  95.08823
 501  194.2359
 502  168.5703
 503  189.2603
 504  270.11
 505  229.7947
 506  125.099
 507  188.2092
 508  280.3327
 509  328.1841
 510  438.7105
 511  549.8365
