# Input file       =  1189728850.110648_cleaned.dat
# Candidate        =  PSR_0332+5434
# Telescope        =  AR
# Epoch_topo       =  58014.009630910274
# Epoch_bary       =  N/A
# T_sample         =  0.002
# Data Folded      =  7340032
# Data Avg         =  0.0122934618300557
# Data StdDev      =  1.00001470976705 
# Profile Bins     =  512
# Profile Avg      =  176.275861342499 
# Profile StdDev   =  119.734797621839 
# Reduced chi-sqr  =  1.304
# Prob(Noise)      <  4.05e-06   (~4.5 sigma)
# P_topo (ms)      =  714.466817490019  +/- 0.000149
# P'_topo (s/s)    =  -0                +/- 7.87e-11
# P''_topo (s/s^2) =  0                 +/- 3.48e-14
# P_bary (ms)      =  N/A
# P'_bary (s/s)    =  N/A
# P''_bary (s/s^2) =  N/A
# P_orb (s)        =  N/A
# asin(i)/c (s)    =  N/A
# eccentricity     =  N/A
# w (rad)          =  N/A
# T_peri           =  N/A
######################################################
   0  750.6966
   1  759.7382
   2  630.2742
   3  384.3198
   4  295.3863
   5  328.631
   6  228.373
   7  95.76807
   8  207.0841
   9  153.2045
  10  210.8965
  11  213.0739
  12  188.748
  13  143.7137
  14  161.9235
  15  228.2244
  16  119.9818
  17  256.0347
  18  222.8399
  19  164.2134
  20  117.5697
  21  292.748
  22  309.9434
  23  181.2528
  24  213.7854
  25  44.33898
  26  27.57778
  27  153.1277
  28  195.7619
  29  173.5307
  30  202.6677
  31  274.0298
  32  240.8283
  33  184.4566
  34  156.1732
  35  204.5792
  36  134.3518
  37  123.0206
  38  230.776
  39  314.7235
  40  182.163
  41  95.98161
  42  93.87582
  43  130.5965
  44  150.5115
  45  208.1658
  46  198.4864
  47  202.9469
  48  115.0361
  49  174.5395
  50  170.4133
  51  262.1198
  52  250.3812
  53  327.0324
  54  127.6211
  55  141.5371
  56  198.1581
  57  130.8692
  58  239.9718
  59  227.491
  60  136.1917
  61  189.989
  62  232.0097
  63  208.2104
  64  -27.2528
  65  78.43602
  66  192.6809
  67  125.887
  68  233.1733
  69  39.61247
  70  1.088112
  71  56.0722
  72  104.6514
  73  1.9618
  74  50.89964
  75  52.06156
  76  171.2317
  77  92.8295
  78  228.1107
  79  195.215
  80  253.0921
  81  261.0256
  82  41.73944
  83  187.3534
  84  256.2882
  85  188.1946
  86  285.0757
  87  202.7264
  88  301.3019
  89  211.3295
  90  103.5519
  91  62.69265
  92  154.097
  93  256.0049
  94  284.2746
  95  119.7455
  96  189.7195
  97  180.3893
  98  115.7415
  99  188.8471
 100  279.5965
 101  255.9436
 102  275.5828
 103  223.4983
 104  294.2444
 105  258.3809
 106  166.5617
 107  66.54262
 108  104.8181
 109  137.7048
 110  239.4388
 111  396.9574
 112  284.9936
 113  311.1738
 114  131.8042
 115  226.595
 116  242.5511
 117  113.3731
 118  12.01058
 119  103.303
 120  113.1089
 121  196.6921
 122  238.0355
 123  179.0009
 124  273.7198
 125  155.0612
 126  37.46501
 127  114.9814
 128  116.9356
 129  186.912
 130  163.5558
 131  256.7983
 132  281.23
 133  98.54871
 134  51.51025
 135  144.9865
 136  157.8126
 137  237.9449
 138  107.849
 139  97.39845
 140  126.7871
 141  108.0046
 142  126.481
 143  168.1781
 144  259.5149
 145  220.8362
 146  123.9164
 147  -8.088011
 148  92.13179
 149  200.6394
 150  119.4592
 151  276.0865
 152  191.6523
 153  153.5707
 154  16.56658
 155  135.6735
 156  214.99
 157  219.2088
 158  109.4484
 159  69.07588
 160  162.6502
 161  174.6023
 162  112.7584
 163  -0.6166562
 164  37.77907
 165  167.4764
 166  170.7361
 167  122.4005
 168  65.37257
 169  221.6592
 170  324.0874
 171  206.6786
 172  198.6158
 173  249.8916
 174  224.208
 175  295.3907
 176  220.2386
 177  82.46169
 178  -54.4757
 179  42.44833
 180  177.4389
 181  167.6832
 182  220.6901
 183  157.7458
 184  144.5497
 185  143.1521
 186  196.1266
 187  165.9325
 188  110.3662
 189  196.3202
 190  185.5039
 191  167.6324
 192  231.9846
 193  175.9728
 194  177.9507
 195  269.224
 196  164.1444
 197  124.4687
 198  269.5562
 199  342.4951
 200  162.2288
 201  147.5924
 202  83.19402
 203  57.32835
 204  153.9073
 205  313.905
 206  91.95808
 207  114.0122
 208  193.3001
 209  126.3337
 210  129.6858
 211  167.0826
 212  61.45163
 213  100.4094
 214  138.8637
 215  176.2587
 216  224.6942
 217  113.3192
 218  40.20913
 219  91.44486
 220  192.3326
 221  243.3845
 222  108.5623
 223  180.3905
 224  232.4725
 225  114.1333
 226  141.047
 227  240.2545
 228  164.2919
 229  114.9438
 230  259.9191
 231  154.5383
 232  207.0232
 233  183.2359
 234  306.5399
 235  169.9531
 236  220.0092
 237  307.9386
 238  291.23
 239  114.9006
 240  155.7231
 241  253.4044
 242  331.653
 243  280.3433
 244  147.5092
 245  89.84557
 246  157.6642
 247  151.9955
 248  73.7287
 249  90.40756
 250  132.3433
 251  124.795
 252  159.8096
 253  166.919
 254  240.8656
 255  149.0775
 256  170.8959
 257  89.74725
 258  196.4572
 259  175.1984
 260  219.8845
 261  367.7053
 262  144.2366
 263  64.22279
 264  -28.39241
 265  88.80169
 266  211.2104
 267  151.8221
 268  302.5329
 269  184.1892
 270  189.9883
 271  177.5489
 272  90.05872
 273  171.7787
 274  170.848
 275  118.2085
 276  192.5672
 277  256.3568
 278  125.3583
 279  44.05592
 280  100.4664
 281  271.7068
 282  174.9265
 283  -37.91157
 284  131.2705
 285  251.4253
 286  185.828
 287  313.4534
 288  299.842
 289  193.8259
 290  182.2113
 291  172.9174
 292  144.2428
 293  146.1604
 294  205.8902
 295  204.9897
 296  153.4623
 297  247.4457
 298  227.5706
 299  199.1465
 300  161.7245
 301  144.0561
 302  187.4474
 303  139.4551
 304  175.0499
 305  169.0286
 306  185.4892
 307  80.11462
 308  234.6988
 309  177.4616
 310  149.6329
 311  72.24989
 312  180.3265
 313  140.5354
 314  59.09358
 315  141.9961
 316  180.3482
 317  186.5524
 318  180.1378
 319  180.5591
 320  182.4917
 321  157.4368
 322  23.67967
 323  96.52975
 324  325.793
 325  303.8988
 326  120.4553
 327  50.7233
 328  135.7203
 329  215.2912
 330  191.4148
 331  190.7351
 332  270.6407
 333  256.3719
 334  207.0657
 335  96.951
 336  142.1951
 337  175.0521
 338  234.7175
 339  122.8835
 340  142.7161
 341  268.0863
 342  196.0192
 343  36.02736
 344  8.297305
 345  18.9794
 346  22.00963
 347  80.02061
 348  158.1772
 349  111.9323
 350  71.80278
 351  168.3629
 352  161.7974
 353  237.7279
 354  254.9845
 355  318.7994
 356  261.2643
 357  303.4639
 358  197.1895
 359  54.50561
 360  240.059
 361  109.9911
 362  112.3374
 363  151.672
 364  53.01851
 365  172.8824
 366  198.7012
 367  182.2758
 368  200.994
 369  131.0635
 370  145.0655
 371  188.0718
 372  190.9098
 373  295.5841
 374  237.532
 375  180.7215
 376  335.763
 377  141.0387
 378  148.9825
 379  101.8823
 380  101.0114
 381  195.0582
 382  305.6088
 383  238.9886
 384  162.4824
 385  197.7554
 386  173.425
 387  170.3479
 388  152.5936
 389  297.299
 390  138.1185
 391  187.7952
 392  143.1801
 393  121.7074
 394  138.1264
 395  123.1208
 396  290.8689
 397  304.96
 398  97.55272
 399  2.614362
 400  120.2407
 401  88.97539
 402  74.06253
 403  183.9432
 404  42.1388
 405  51.39071
 406  150.9859
 407  142.8518
 408  138.3992
 409  243.7778
 410  346.8292
 411  255.4334
 412  204.7918
 413  103.2373
 414  140.1345
 415  51.07722
 416  45.33661
 417  119.952
 418  135.8595
 419  180.934
 420  204.824
 421  308.1598
 422  158.9713
 423  32.943
 424  202.1553
 425  181.4674
 426  110.4561
 427  29.23354
 428  58.02896
 429  126.653
 430  178.3051
 431  183.2551
 432  152.7474
 433  67.11105
 434  32.07662
 435  241.0454
 436  276.8576
 437  185.1179
 438  230.4205
 439  108.5035
 440  147.256
 441  163.2535
 442  387.7612
 443  248.9044
 444  64.49915
 445  65.0414
 446  264.653
 447  138.7137
 448  -52.97081
 449  9.174955
 450  147.1748
 451  214.6709
 452  103.057
 453  212.1201
 454  311.9505
 455  235.2405
 456  66.1874
 457  10.63284
 458  90.22261
 459  134.8854
 460  58.12563
 461  138.4047
 462  275.3785
 463  339.4926
 464  208.0935
 465  199.7389
 466  87.87351
 467  65.62487
 468  102.6172
 469  185.8766
 470  210.1793
 471  237.8555
 472  141.7522
 473  57.39663
 474  154.2338
 475  145.5356
 476  110.8064
 477  259.2595
 478  234.6861
 479  231.0372
 480  237.8751
 481  314.9551
 482  92.68943
 483  171.2468
 484  178.0321
 485  110.1972
 486  320.926
 487  144.4964
 488  100.4523
 489  140.7727
 490  75.8518
 491  133.3745
 492  178.1943
 493  226.7388
 494  162.3933
 495  276.93
 496  269.9982
 497  99.64455
 498  210.4521
 499  81.60184
 500  34.88705
 501  68.62311
 502  298.4113
 503  310.0667
 504  86.97069
 505  271.8671
 506  421.1182
 507  367.1358
 508  380.6943
 509  493.4264
 510  707.9908
 511  821.7291
