# Input file       =  1191897833.137104_cleaned.dat
# Candidate        =  PSR_0332+5434
# Telescope        =  AR
# Epoch_topo       =  58039.113601123892
# Epoch_bary       =  N/A
# T_sample         =  0.002
# Data Folded      =  7340032
# Data Avg         =  0.0102440284794252
# Data StdDev      =  1.0000699977071  
# Profile Bins     =  512
# Profile Avg      =  146.592963066931 
# Profile StdDev   =  119.741417414777 
# Reduced chi-sqr  =  1.795
# Prob(Noise)      <  1.63e-25   (~10.4 sigma)
# P_topo (ms)      =  714.480518144867  +/- 0.000319
# P'_topo (s/s)    =  -0                +/- 1.69e-10
# P''_topo (s/s^2) =  0                 +/- 7.44e-14
# P_bary (ms)      =  N/A
# P'_bary (s/s)    =  N/A
# P''_bary (s/s^2) =  N/A
# P_orb (s)        =  N/A
# asin(i)/c (s)    =  N/A
# eccentricity     =  N/A
# w (rad)          =  N/A
# T_peri           =  N/A
######################################################
   0  885.4882
   1  1072.189
   2  775.2211
   3  448.5137
   4  315.6185
   5  188.9029
   6  178.6828
   7  137.1162
   8  219.2138
   9  212.2412
  10  259.2104
  11  405.631
  12  407.4934
  13  225.8216
  14  162.522
  15  315.7532
  16  310.0452
  17  273.5465
  18  311.8507
  19  291.6172
  20  195.1245
  21  190.4647
  22  179.7414
  23  208.8604
  24  108.0965
  25  102.4537
  26  168.3673
  27  220.2355
  28  157.4958
  29  94.40287
  30  232.4759
  31  264.3983
  32  211.3773
  33  185.1373
  34  118.8528
  35  241.2341
  36  182.5969
  37  -16.31791
  38  155.711
  39  253.9668
  40  102.7784
  41  107.3043
  42  157.2476
  43  164.2513
  44  148.1322
  45  188.7184
  46  145.8887
  47  185.5752
  48  171.1319
  49  231.8855
  50  179.6184
  51  188.6177
  52  374.6781
  53  242.9702
  54  129.5733
  55  63.62021
  56  57.58595
  57  34.01326
  58  -8.351768
  59  31.63772
  60  44.49228
  61  112.2199
  62  45.52626
  63  150.4
  64  157.9257
  65  116.5647
  66  243.8561
  67  237.1929
  68  193.8701
  69  75.87296
  70  -62.54284
  71  91.61031
  72  202.8219
  73  144.5635
  74  5.819219
  75  15.47895
  76  -70.34077
  77  40.20602
  78  50.51001
  79  136.756
  80  83.1421
  81  107.9485
  82  136.867
  83  116.06
  84  168.5122
  85  243.1924
  86  159.0625
  87  134.0438
  88  240.1266
  89  232.5876
  90  144.8667
  91  82.69601
  92  24.66251
  93  7.097787
  94  99.17017
  95  158.9901
  96  61.25109
  97  17.83968
  98  7.089942
  99  60.64047
 100  -16.83348
 101  17.08331
 102  99.78453
 103  119.1622
 104  61.93686
 105  236.2008
 106  151.4201
 107  133.9546
 108  100.5281
 109  246.805
 110  271.831
 111  240.3039
 112  115.8845
 113  203.3599
 114  129.3291
 115  193.0579
 116  274.6639
 117  237.0463
 118  127.3421
 119  60.87424
 120  212.575
 121  133.4893
 122  186.0085
 123  201.1039
 124  120.6452
 125  219.2412
 126  106.4389
 127  245.8937
 128  234.6643
 129  103.3286
 130  148.7853
 131  165.8615
 132  230.6617
 133  219.0257
 134  186.6768
 135  120.4388
 136  111.7011
 137  32.54384
 138  39.09812
 139  66.29703
 140  69.15009
 141  199.4459
 142  224.9341
 143  132.5758
 144  84.53392
 145  236.0938
 146  225.3851
 147  212.5299
 148  229.7296
 149  155.7539
 150  146.2507
 151  91.22379
 152  162.4346
 153  150.4442
 154  70.46685
 155  162.5147
 156  186.1631
 157  63.99617
 158  51.73716
 159  124.3976
 160  208.5968
 161  186.2309
 162  109.354
 163  198.2006
 164  232.9304
 165  304.6276
 166  226.0614
 167  189.4604
 168  157.3602
 169  52.27416
 170  17.23332
 171  190.9094
 172  204.4504
 173  168.3834
 174  167.4025
 175  104.4904
 176  72.78701
 177  122.1234
 178  205.4896
 179  146.1185
 180  52.62991
 181  142.2029
 182  205.4923
 183  143.2684
 184  203.8861
 185  170.2468
 186  84.77216
 187  97.65011
 188  171.7231
 189  187.8033
 190  90.806
 191  68.37307
 192  199.5848
 193  142.8216
 194  102.8838
 195  88.61121
 196  147.8966
 197  216.4255
 198  174.4009
 199  150.5644
 200  163.4596
 201  144.5241
 202  124.0186
 203  205.7078
 204  202.0542
 205  136.4037
 206  34.39016
 207  69.41891
 208  182.4364
 209  117.5876
 210  174.3547
 211  177.1098
 212  145.7094
 213  222.5155
 214  246.7803
 215  227.1715
 216  187.1748
 217  199.2981
 218  238.5942
 219  100.8791
 220  85.02555
 221  216.8243
 222  178.3986
 223  182.1301
 224  94.48248
 225  50.18877
 226  93.93874
 227  72.97996
 228  143.6924
 229  113.2234
 230  177.4313
 231  199.6954
 232  31.41957
 233  38.62445
 234  2.470121
 235  2.226406
 236  160.6824
 237  129.7111
 238  119.076
 239  217.2361
 240  182.4474
 241  197.6543
 242  95.15959
 243  -8.340992
 244  138.6059
 245  187.8808
 246  34.33204
 247  134.6851
 248  174.0631
 249  50.32395
 250  -53.62959
 251  29.19511
 252  66.74702
 253  119.6599
 254  181.4937
 255  114.39
 256  200.4312
 257  193.555
 258  13.64444
 259  110.014
 260  166.245
 261  74.91618
 262  10.9717
 263  10.21002
 264  94.0873
 265  149.6359
 266  154.0886
 267  61.68639
 268  49.95001
 269  31.88821
 270  -20.72355
 271  121.2967
 272  39.27036
 273  -24.66087
 274  -19.64624
 275  -91.42391
 276  60.82932
 277  94.47232
 278  118.9912
 279  115.8231
 280  13.01338
 281  172.0449
 282  179.7565
 283  63.33375
 284  103.6639
 285  137.9049
 286  91.89355
 287  112.2196
 288  85.23379
 289  152.1831
 290  53.04831
 291  129.7936
 292  198.7062
 293  186.5788
 294  106.48
 295  106.8846
 296  248.6033
 297  223.626
 298  183.5784
 299  120.9832
 300  102.1488
 301  112.1897
 302  65.85088
 303  -4.790918
 304  -16.1933
 305  31.19729
 306  107.3113
 307  123.1287
 308  -111.88
 309  -159.3546
 310  33.97961
 311  40.33041
 312  84.60233
 313  91.87793
 314  -14.53187
 315  88.21745
 316  143.5784
 317  196.9703
 318  95.56931
 319  12.09094
 320  13.0644
 321  49.13505
 322  11.38311
 323  -87.5685
 324  8.93632
 325  112.6038
 326  148.3707
 327  49.16203
 328  38.83118
 329  78.21666
 330  23.11336
 331  53.79576
 332  13.2577
 333  17.03216
 334  62.82743
 335  51.449
 336  82.05
 337  127.0263
 338  124.254
 339  104.2398
 340  68.64364
 341  -36.5088
 342  -61.72343
 343  182.3058
 344  81.51582
 345  -23.70817
 346  90.06503
 347  89.6454
 348  110.4116
 349  82.47205
 350  99.44862
 351  122.6396
 352  129.2811
 353  148.6219
 354  133.4156
 355  86.57187
 356  90.92505
 357  137.2001
 358  207.5487
 359  135.5261
 360  39.24837
 361  -25.21715
 362  97.83582
 363  157.0432
 364  79.63847
 365  185.6232
 366  113.0804
 367  205.6959
 368  167.6386
 369  110.7451
 370  305.7467
 371  204.2844
 372  141.7946
 373  141.5607
 374  220.9391
 375  205.9137
 376  -5.657095
 377  1.305074
 378  99.8317
 379  184.7573
 380  192.0806
 381  19.25471
 382  125.941
 383  157.9458
 384  98.32632
 385  80.45625
 386  265.8709
 387  246.5403
 388  123.2902
 389  194.682
 390  166.1731
 391  40.21121
 392  37.42266
 393  159.1963
 394  -39.23568
 395  -11.48023
 396  20.14633
 397  40.86583
 398  126.0453
 399  194.7638
 400  1.019837
 401  -0.1176435
 402  192.021
 403  132.3911
 404  175.8493
 405  199.0215
 406  242.4066
 407  270.0085
 408  111.5985
 409  136.7352
 410  35.73886
 411  53.83559
 412  119.1803
 413  108.4044
 414  99.85046
 415  228.9529
 416  182.4537
 417  111.8091
 418  182.6991
 419  76.80071
 420  43.1338
 421  107.9154
 422  192.0823
 423  91.01361
 424  123.6053
 425  171.8666
 426  87.99465
 427  58.27866
 428  130.7984
 429  226.1128
 430  130.3493
 431  208.2522
 432  176.187
 433  141.4551
 434  136.0802
 435  243.0291
 436  282.6331
 437  170.6732
 438  113.7304
 439  237.7321
 440  187.6303
 441  210.6005
 442  182.2515
 443  52.39654
 444  216.2137
 445  323.8758
 446  381.3756
 447  305.7294
 448  196.2213
 449  344.1555
 450  221.2051
 451  149.1935
 452  158.5363
 453  107.0795
 454  108.9684
 455  255.6713
 456  300.1047
 457  31.86125
 458  -53.94505
 459  37.61568
 460  191.2365
 461  66.77837
 462  35.02615
 463  181.8658
 464  193.9514
 465  59.63445
 466  200.8186
 467  10.35661
 468  53.10891
 469  107.3998
 470  202.856
 471  84.37434
 472  98.14442
 473  120.5093
 474  38.95138
 475  133.5143
 476  170.3892
 477  217.0404
 478  362.9058
 479  304.6224
 480  230.0776
 481  101.04
 482  204.7518
 483  176.1315
 484  115.6059
 485  94.75738
 486  210.0154
 487  142.7999
 488  189.2383
 489  199.1193
 490  226.422
 491  263.7882
 492  286.5083
 493  235.3841
 494  199.4924
 495  137.8005
 496  219.3409
 497  307.495
 498  219.0495
 499  209.4571
 500  231.541
 501  357.1272
 502  254.7561
 503  292.8274
 504  216.964
 505  361.9218
 506  416.9155
 507  469.3465
 508  454.0109
 509  561.3351
 510  712.2056
 511  846.3113
