# Input file       =  1193519894.150377_cleaned.dat
# Candidate        =  PSR_0332+5434
# Telescope        =  AR
# Epoch_topo       =  58057.887455444179
# Epoch_bary       =  N/A
# T_sample         =  0.002
# Data Folded      =  7340032
# Data Avg         =  0.0267749229806738
# Data StdDev      =  1.00016313819483 
# Profile Bins     =  512
# Profile Avg      =  383.821700363973 
# Profile StdDev   =  119.752569408182 
# Reduced chi-sqr  =  1.505
# Prob(Noise)      <  1.04e-12   (~7.0 sigma)
# P_topo (ms)      =  714.495609338293  +/- 0.000222
# P'_topo (s/s)    =  -0                +/- 1.17e-10
# P''_topo (s/s^2) =  0                 +/- 5.18e-14
# P_bary (ms)      =  N/A
# P'_bary (s/s)    =  N/A
# P''_bary (s/s^2) =  N/A
# P_orb (s)        =  N/A
# asin(i)/c (s)    =  N/A
# eccentricity     =  N/A
# w (rad)          =  N/A
# T_peri           =  N/A
######################################################
   0  1103.171
   1  1094.667
   2  934.1689
   3  743.2529
   4  614.4305
   5  574.3208
   6  440.3622
   7  397.7032
   8  346.2754
   9  429.8845
  10  446.5515
  11  495.3178
  12  554.017
  13  469.7172
  14  474.6207
  15  332.176
  16  335.0645
  17  480.9809
  18  371.6396
  19  217.663
  20  323.7668
  21  373.2975
  22  419.5404
  23  295.4403
  24  367.0334
  25  380.061
  26  446.6465
  27  363.4671
  28  461.9464
  29  399.7487
  30  410.1836
  31  344.3834
  32  360.9185
  33  417.5489
  34  395.5853
  35  286.3615
  36  337.2025
  37  461.5983
  38  545.0037
  39  484.7527
  40  343.0678
  41  450.5198
  42  509.4828
  43  423.3185
  44  353.3068
  45  337.1362
  46  246.3529
  47  317.4619
  48  350.7205
  49  483.8542
  50  466.8876
  51  368.0062
  52  365.0652
  53  307.6297
  54  327.574
  55  415.9523
  56  377.3197
  57  366.5866
  58  473.666
  59  464.8964
  60  531.5308
  61  518.1737
  62  399.1951
  63  426.6995
  64  367.8391
  65  283.4024
  66  299.4528
  67  282.5805
  68  247.8592
  69  260.8806
  70  238.3624
  71  215.5658
  72  342.9545
  73  495.9637
  74  399.8112
  75  416.102
  76  443.5409
  77  394.369
  78  427.3234
  79  356.2894
  80  313.3117
  81  382.8563
  82  335.0578
  83  305.6281
  84  306.9184
  85  301.0398
  86  229.0006
  87  245.5815
  88  274.4871
  89  387.814
  90  357.0616
  91  460.7847
  92  549.9969
  93  647.6694
  94  511.8005
  95  353.5523
  96  346.2733
  97  322.6038
  98  228.8571
  99  228.7228
 100  388.2
 101  328.8907
 102  283.7995
 103  227.3604
 104  171.3671
 105  401.7681
 106  470.764
 107  465.8813
 108  305.3338
 109  296.8313
 110  352.2699
 111  390.6551
 112  420.5808
 113  257.4647
 114  133.0327
 115  241.8603
 116  317.9205
 117  368.5945
 118  266.0539
 119  321.3939
 120  272.6915
 121  292.7209
 122  264.8724
 123  373.2103
 124  471.6671
 125  469.47
 126  377.3555
 127  433.0242
 128  288.6806
 129  382.7782
 130  393.2571
 131  376.8578
 132  358.4397
 133  488.4655
 134  425.0158
 135  283.3407
 136  179.8391
 137  269.9065
 138  304.616
 139  378.3535
 140  384.9633
 141  353.4775
 142  358.5066
 143  266.4064
 144  202.4176
 145  237.2187
 146  220.566
 147  230.0585
 148  308.0945
 149  331.0449
 150  348.9371
 151  394.2682
 152  364.3145
 153  353.5246
 154  454.2098
 155  316.9623
 156  356.291
 157  398.8459
 158  376.7006
 159  354.9245
 160  274.6889
 161  390.5605
 162  326.059
 163  200.0151
 164  208.2307
 165  218.2384
 166  278.174
 167  385.618
 168  323.6637
 169  332.3126
 170  375.8307
 171  414.9855
 172  468.5789
 173  369.7745
 174  285.9524
 175  339.2851
 176  322.5392
 177  515.0795
 178  479.9731
 179  402.4426
 180  343.7663
 181  402.3417
 182  460.8064
 183  326.1708
 184  160.5882
 185  270.4341
 186  343.1539
 187  392.0503
 188  388.4156
 189  374.0393
 190  293.4118
 191  222.1488
 192  339.734
 193  318.7401
 194  386.9991
 195  345.4636
 196  335.0979
 197  252.779
 198  319.8504
 199  435.0873
 200  459.0991
 201  452.4615
 202  450.4207
 203  353.2439
 204  496.109
 205  432.4291
 206  287.9333
 207  397.5017
 208  450.9559
 209  385.9488
 210  410.0893
 211  279.072
 212  188.1778
 213  117.1939
 214  240.5354
 215  162.5147
 216  306.8975
 217  298.0532
 218  311.7686
 219  272.9431
 220  343.1521
 221  325.4239
 222  449.6421
 223  427.4804
 224  461.0689
 225  461.4727
 226  344.4221
 227  362.9899
 228  418.2141
 229  436.2943
 230  352.6454
 231  461.5724
 232  444.2062
 233  580.8925
 234  510.7453
 235  343.1387
 236  353.2864
 237  418.1805
 238  452.7028
 239  401.9245
 240  322.8864
 241  234.8869
 242  269.2503
 243  412.8529
 244  466.3826
 245  454.5049
 246  370.7745
 247  379.6858
 248  370.4854
 249  394.2805
 250  431.669
 251  395.3727
 252  354.157
 253  531.652
 254  393.7767
 255  391.4403
 256  383.7105
 257  483.8648
 258  382.798
 259  390.3008
 260  444.8464
 261  299.0503
 262  253.4526
 263  367.3847
 264  399.5042
 265  288.8817
 266  291.8769
 267  438.4043
 268  439.8054
 269  322.6277
 270  278.2317
 271  316.6083
 272  423.5343
 273  444.3275
 274  425.6186
 275  393.5944
 276  410.2895
 277  427.4173
 278  366.6999
 279  465.6952
 280  430.4312
 281  427.6922
 282  385.6853
 283  329.36
 284  253.3887
 285  215.9266
 286  393.5636
 287  275.778
 288  193.6431
 289  283.9152
 290  394.0965
 291  237.4774
 292  321.5527
 293  361.0164
 294  398.3506
 295  477.6046
 296  559.9929
 297  388.4755
 298  317.1086
 299  380.5231
 300  452.5307
 301  388.3044
 302  399.888
 303  422.3366
 304  427.7584
 305  377.3384
 306  251.7395
 307  269.2026
 308  344.8044
 309  437.0476
 310  358.4894
 311  438.2309
 312  500.1809
 313  452.7557
 314  405.8966
 315  410.9967
 316  503.8754
 317  326.3407
 318  305.1898
 319  287.4081
 320  371.8096
 321  362.9794
 322  358.7798
 323  372.6632
 324  374.7562
 325  417.8345
 326  493.356
 327  478.2926
 328  386.1306
 329  369.1794
 330  359.2929
 331  489.6313
 332  527.8071
 333  442.6414
 334  373.3138
 335  331.3757
 336  430.748
 337  385.1005
 338  349.2272
 339  365.284
 340  356.4619
 341  451.1979
 342  377.3272
 343  451.3298
 344  504.1636
 345  541.799
 346  448.2241
 347  350.3748
 348  352.0558
 349  402.9893
 350  474.0947
 351  461.8131
 352  387.2235
 353  427.1876
 354  400.8838
 355  335.5898
 356  367.379
 357  370.157
 358  258.7048
 359  331.4784
 360  315.0826
 361  323.5352
 362  395.8971
 363  483.267
 364  455.1371
 365  398.4645
 366  394.4109
 367  353.529
 368  346.9903
 369  303.4538
 370  280.4763
 371  210.099
 372  331.8086
 373  359.7725
 374  481.2314
 375  445.1469
 376  380.5389
 377  384.8698
 378  445.2057
 379  503.3013
 380  544.2078
 381  446.2099
 382  367.1584
 383  401.4347
 384  339.1296
 385  339.9894
 386  412.3214
 387  551.6292
 388  545.3156
 389  463.9871
 390  416.6055
 391  429.0828
 392  294.8425
 393  403.2282
 394  453.1294
 395  404.3021
 396  347.0407
 397  529.7029
 398  402.4156
 399  487.5499
 400  414.0308
 401  417.7336
 402  435.3901
 403  372.2138
 404  323.1432
 405  334.7888
 406  355.7916
 407  360.7389
 408  331.1468
 409  407.4151
 410  396.6875
 411  396.4998
 412  350.2296
 413  335.0579
 414  359.9566
 415  374.6046
 416  231.3095
 417  270.1237
 418  295.5888
 419  371.0871
 420  412.4191
 421  332.7945
 422  310.4109
 423  342.3464
 424  327.2159
 425  271.6016
 426  267.5465
 427  325.6882
 428  365.4371
 429  354.0552
 430  387.7954
 431  478.0679
 432  439.4207
 433  410.5729
 434  456.5845
 435  452.4767
 436  451.2936
 437  393.2087
 438  397.4688
 439  286.9352
 440  222.2252
 441  248.237
 442  384.3894
 443  374.6003
 444  415.2523
 445  331.4868
 446  347.7193
 447  401.3099
 448  455.2629
 449  447.5395
 450  454.5187
 451  494.6154
 452  439.2607
 453  367.7325
 454  382.5343
 455  353.4376
 456  410.8642
 457  401.7358
 458  480.0568
 459  358.4931
 460  276.3375
 461  449.8871
 462  501.0756
 463  484.4683
 464  375.7971
 465  323.5668
 466  296.8423
 467  371.3571
 468  387.7982
 469  324.3397
 470  435.1344
 471  459.9169
 472  314.0987
 473  361.9403
 474  437.0707
 475  341.7276
 476  466.1288
 477  542.7997
 478  424.2391
 479  340.5416
 480  330.108
 481  283.0603
 482  271.0706
 483  315.2731
 484  377.4107
 485  346.8628
 486  266.6066
 487  206.0613
 488  263.0439
 489  301.3228
 490  478.1887
 491  531.447
 492  442.7343
 493  407.5632
 494  332.1392
 495  382.4364
 496  316.7967
 497  372.4387
 498  384.8362
 499  441.3819
 500  463.5138
 501  299.7068
 502  317.6471
 503  424.732
 504  576.3815
 505  580.8199
 506  554.7567
 507  627.6195
 508  621.1044
 509  707.8856
 510  814.9766
 511  1084.556
