# Input file       =  1194899111.10159_cleaned.dat
# Candidate        =  PSR_0332+5434
# Telescope        =  AR
# Epoch_topo       =  58073.850614601732
# Epoch_bary       =  N/A
# T_sample         =  0.002
# Data Folded      =  7340032
# Data Avg         =  0.0567371421896635
# Data StdDev      =  1.00042522969732 
# Profile Bins     =  512
# Profile Avg      =  813.376506210641 
# Profile StdDev   =  119.783950419584 
# Reduced chi-sqr  =  0.864
# Prob(Noise)      <  0.988   (~0.0 sigma)
# P_topo (ms)      =  714.511079934483  +/- 0.000182
# P'_topo (s/s)    =  -0                +/- 9.58e-11
# P''_topo (s/s^2) =  0                 +/- 4.23e-14
# P_bary (ms)      =  N/A
# P'_bary (s/s)    =  N/A
# P''_bary (s/s^2) =  N/A
# P_orb (s)        =  N/A
# asin(i)/c (s)    =  N/A
# eccentricity     =  N/A
# w (rad)          =  N/A
# T_peri           =  N/A
######################################################
   0  1138.178
   1  1164.985
   2  1126.737
   3  976.6064
   4  909.4977
   5  725.7363
   6  747.7381
   7  751.5001
   8  787.7322
   9  898.2562
  10  841.825
  11  856.3093
  12  754.585
  13  818.0456
  14  873.5355
  15  878.7033
  16  925.1296
  17  946.8356
  18  886.7316
  19  921.9852
  20  850.4313
  21  876.0582
  22  849.4952
  23  956.3435
  24  883.8355
  25  754.1416
  26  757.7841
  27  762.4028
  28  674.1019
  29  683.1519
  30  774.2944
  31  805.2026
  32  808.961
  33  760.4787
  34  723.751
  35  699.4641
  36  823.5647
  37  800.9453
  38  861.3727
  39  775.8259
  40  783.9291
  41  836.4171
  42  874.8942
  43  796.9121
  44  678.2579
  45  840.4561
  46  849.1434
  47  781.6107
  48  762.129
  49  784.4925
  50  775.5708
  51  818.4882
  52  752.9994
  53  763.7401
  54  867.1714
  55  812.4442
  56  701.8031
  57  637.1969
  58  695.1745
  59  847.6792
  60  798.1761
  61  821.8664
  62  921.1709
  63  843.7388
  64  790.1746
  65  793.309
  66  752.9391
  67  698.8837
  68  764.4163
  69  961.2002
  70  915.2267
  71  804.0589
  72  757.9026
  73  754.7001
  74  700.3507
  75  743.887
  76  801.1015
  77  838.6836
  78  732.608
  79  721.9498
  80  747.9265
  81  870.243
  82  883.6631
  83  877.3229
  84  828.0302
  85  801.0864
  86  778.5036
  87  832.9996
  88  828.9752
  89  807.4512
  90  798.9171
  91  733.5568
  92  729.7758
  93  667.8828
  94  677.7781
  95  750.3882
  96  682.4459
  97  754.6308
  98  846.9639
  99  817.1565
 100  788.3772
 101  723.5601
 102  792.6092
 103  731.0207
 104  729.5571
 105  751.642
 106  709.9196
 107  683.3442
 108  813.5864
 109  786.3232
 110  781.2715
 111  769.7242
 112  773.4095
 113  802.5124
 114  862.2439
 115  835.8364
 116  703.1398
 117  712.8738
 118  796.4111
 119  786.8825
 120  828.9065
 121  739.4729
 122  763.5828
 123  796.4877
 124  768.8069
 125  841.5607
 126  908.4954
 127  797.3245
 128  694.9191
 129  744.1187
 130  821.1828
 131  781.013
 132  687.7172
 133  754.9965
 134  745.8206
 135  738.1687
 136  674.0566
 137  762.1348
 138  889.0743
 139  801.5038
 140  805.211
 141  774.7524
 142  728.3926
 143  667.8148
 144  685.5212
 145  682.9906
 146  792.2253
 147  777.5448
 148  829.9725
 149  863.9798
 150  817.7882
 151  683.6846
 152  747.0236
 153  656.8072
 154  795.164
 155  897.5027
 156  873.2825
 157  859.6655
 158  868.2127
 159  776.0969
 160  641.7065
 161  699.7521
 162  930.9727
 163  932.0396
 164  732.8553
 165  770.7192
 166  780.7943
 167  804.5792
 168  746.2624
 169  756.5358
 170  756.6252
 171  712.0741
 172  622.5229
 173  677.9619
 174  722.8959
 175  645.3618
 176  819.4551
 177  820.3873
 178  884.7158
 179  757.9197
 180  738.5406
 181  790.2977
 182  805.7163
 183  794.2692
 184  809.2867
 185  670.6508
 186  640.7504
 187  665.8634
 188  699.0134
 189  832.5434
 190  827.3571
 191  707.9542
 192  729.2846
 193  797.2938
 194  728.0667
 195  737.3256
 196  759.4351
 197  825.864
 198  798.7042
 199  755.797
 200  779.7919
 201  734.3963
 202  736.3151
 203  831.3874
 204  763.9379
 205  813.6428
 206  826.6437
 207  800.7039
 208  803.466
 209  837.202
 210  689.4548
 211  676.8109
 212  796.2635
 213  815.0974
 214  824.7765
 215  864.2633
 216  781.5765
 217  774.3217
 218  778.2601
 219  800.528
 220  779.2916
 221  767.708
 222  806.7019
 223  893.6537
 224  862.6501
 225  729.6348
 226  766.1484
 227  902.7404
 228  872.2861
 229  887.2163
 230  915.1775
 231  799.5169
 232  733.252
 233  688.0369
 234  796.9952
 235  852.2589
 236  907.323
 237  1003.086
 238  819.8483
 239  870.8215
 240  887.1056
 241  758.0154
 242  740.8548
 243  686.9424
 244  740.0467
 245  753.4326
 246  697.933
 247  740.9155
 248  655.4685
 249  790.7983
 250  811.9408
 251  832.4171
 252  852.849
 253  850.1559
 254  821.733
 255  757.5167
 256  802.0042
 257  812.007
 258  858.4088
 259  953.4392
 260  910.3574
 261  850.8885
 262  848.7132
 263  878.4787
 264  902.8864
 265  894.4996
 266  956.7473
 267  850.9753
 268  784.6905
 269  812.4788
 270  831.3548
 271  778.6278
 272  896.8619
 273  956.5869
 274  847.8961
 275  794.3179
 276  815.8401
 277  945.8305
 278  1000.774
 279  873.4561
 280  824.7239
 281  766.683
 282  762.0493
 283  859.9211
 284  839.3701
 285  765.9399
 286  779.277
 287  812.0112
 288  813.9927
 289  765.2288
 290  851.485
 291  912.7031
 292  743.0057
 293  675.3676
 294  849.9678
 295  769.5908
 296  799.2741
 297  789.7111
 298  698.4824
 299  643.3698
 300  751.0562
 301  724.2285
 302  755.7
 303  914.0406
 304  889.5168
 305  861.4695
 306  826.5851
 307  791.5408
 308  861.4034
 309  885.0276
 310  959.5568
 311  893.1968
 312  765.4814
 313  765.4936
 314  723.1517
 315  812.3871
 316  813.5436
 317  845.637
 318  771.1525
 319  874.2722
 320  825.035
 321  865.2851
 322  858.2426
 323  759.4385
 324  851.7673
 325  692.0212
 326  801.6427
 327  930.4987
 328  874.2438
 329  812.7291
 330  883.7858
 331  839.5091
 332  989.2459
 333  910.6011
 334  842.3019
 335  1003.437
 336  937.133
 337  863.1524
 338  879.0593
 339  948.8779
 340  903.1627
 341  827.5175
 342  722.8
 343  683.1483
 344  850.5918
 345  975.9559
 346  1022.825
 347  976.8901
 348  860.7132
 349  787.6509
 350  763.899
 351  845.9419
 352  931.8657
 353  834.8918
 354  788.7238
 355  919.9672
 356  836.4442
 357  773.2988
 358  775.1035
 359  742.5967
 360  829.4205
 361  767.4762
 362  706.418
 363  712.3607
 364  753.2151
 365  674.4548
 366  647.9771
 367  625.033
 368  778.038
 369  858.6342
 370  859.7021
 371  843.1602
 372  771.9395
 373  850.0757
 374  891.0173
 375  794.9663
 376  799.2444
 377  822.3596
 378  849.7058
 379  873.6743
 380  925.3566
 381  902.1169
 382  911.1469
 383  835.8958
 384  846.1866
 385  851.7213
 386  707.8071
 387  862.9658
 388  898.1786
 389  881.486
 390  868.5114
 391  800.5605
 392  904.313
 393  920.5534
 394  919.788
 395  865.4061
 396  828.7117
 397  795.6572
 398  809.2612
 399  779.9888
 400  793.8673
 401  815.9354
 402  885.0217
 403  867.6357
 404  878.9807
 405  779.6663
 406  896.9224
 407  758.3107
 408  821.1398
 409  854.0657
 410  832.1815
 411  750.1959
 412  820.7759
 413  881.5212
 414  854.5198
 415  801.1356
 416  874.4726
 417  845.2393
 418  833.3738
 419  752.002
 420  782.0902
 421  864.5479
 422  841.8834
 423  788.7674
 424  765.1654
 425  735.1464
 426  812.7514
 427  840.0508
 428  841.9952
 429  793.0301
 430  751.9193
 431  859.1445
 432  1061.569
 433  903.6913
 434  856.0624
 435  797.0221
 436  799.6022
 437  869.5128
 438  850.9976
 439  745.0381
 440  738.7504
 441  860.2408
 442  823.5767
 443  809.9749
 444  731.0389
 445  822.4994
 446  857.1819
 447  885.936
 448  799.9373
 449  772.7642
 450  883.2401
 451  919.5368
 452  840.0672
 453  808.501
 454  773.1219
 455  694.9427
 456  772.072
 457  787.7468
 458  785.3875
 459  844.84
 460  841.6524
 461  808.5127
 462  920.5126
 463  805.4257
 464  734.127
 465  868.3732
 466  888.5295
 467  804.6646
 468  818.8217
 469  869.2404
 470  851.64
 471  840.05
 472  821.2439
 473  788.2695
 474  783.8625
 475  763.8436
 476  735.2289
 477  855.662
 478  829.5899
 479  809.666
 480  811.8337
 481  836.5991
 482  745.1314
 483  810.923
 484  869.7707
 485  789.9614
 486  775.96
 487  779.1508
 488  824.793
 489  678.7808
 490  747.5255
 491  822.8544
 492  792.468
 493  811.8994
 494  939.8085
 495  979.1063
 496  906.2719
 497  839.0029
 498  917.0505
 499  932.2852
 500  885.6414
 501  913.8508
 502  860.4993
 503  830.5983
 504  913.9139
 505  983.4772
 506  905.2712
 507  878.7442
 508  858.6501
 509  988.4266
 510  1107.52
 511  1169.086
