# Input file       =  1194985250.121086_cleaned.dat
# Candidate        =  PSR_0332+5434
# Telescope        =  AR
# Epoch_topo       =  58074.847593994047
# Epoch_bary       =  N/A
# T_sample         =  0.002
# Data Folded      =  7340032
# Data Avg         =  0.0663541904439826
# Data StdDev      =  1.00019301809966 
# Profile Bins     =  512
# Profile Avg      =  951.214364540806 
# Profile StdDev   =  119.756147019914 
# Reduced chi-sqr  =  0.534
# Prob(Noise)      <  1   (~0.0 sigma)
# P_topo (ms)      =  714.512097150673  +/- 0.00205
# P'_topo (s/s)    =  -0                +/- 1.08e-09
# P''_topo (s/s^2) =  0                 +/- 4.77e-13
# P_bary (ms)      =  N/A
# P'_bary (s/s)    =  N/A
# P''_bary (s/s^2) =  N/A
# P_orb (s)        =  N/A
# asin(i)/c (s)    =  N/A
# eccentricity     =  N/A
# w (rad)          =  N/A
# T_peri           =  N/A
######################################################
   0  1206.081
   1  1195.528
   2  1161.189
   3  1046.956
   4  1122.33
   5  1044.45
   6  927.1272
   7  893.3148
   8  937.8121
   9  967.3353
  10  967.6755
  11  1017.076
  12  993.9116
  13  929.4134
  14  978.4086
  15  1028.727
  16  967.3908
  17  906.2274
  18  965.9485
  19  996.9271
  20  958.2354
  21  926.5665
  22  892.9165
  23  928.8461
  24  1011.174
  25  921.4276
  26  929.8198
  27  963.9556
  28  905.2468
  29  896.1249
  30  895.5435
  31  905.3349
  32  951.3848
  33  942.2224
  34  942.3288
  35  1008.493
  36  1049.623
  37  1047.706
  38  938.1659
  39  976.7188
  40  1028.182
  41  926.5668
  42  841.0636
  43  951.0485
  44  990.6978
  45  915.0425
  46  837.4341
  47  861.2117
  48  917.457
  49  888.2843
  50  927.3594
  51  884.0662
  52  919.7756
  53  917.1199
  54  1002.783
  55  1054.175
  56  1023.807
  57  1050.27
  58  989.0881
  59  906.2174
  60  949.2303
  61  959.6176
  62  963.6038
  63  841.7222
  64  888.5526
  65  995.2294
  66  1008.044
  67  871.7952
  68  883.7896
  69  918.0173
  70  890.5963
  71  877.8729
  72  924.5383
  73  929.7536
  74  845.9178
  75  956.1467
  76  905.9694
  77  861.3995
  78  892.7156
  79  761.2428
  80  796.3435
  81  885.4079
  82  996.6691
  83  1052.743
  84  963.9572
  85  917.2033
  86  990.0942
  87  901.46
  88  799.5185
  89  943.8757
  90  916.3338
  91  905.9247
  92  925.0739
  93  928.2676
  94  893.3777
  95  863.5514
  96  896.9331
  97  887.0707
  98  965.5131
  99  1023.738
 100  980.9202
 101  876.1738
 102  820.6575
 103  905.7874
 104  950.3611
 105  976.0505
 106  958.2947
 107  967.7813
 108  1090.302
 109  1052.348
 110  917.299
 111  875.7855
 112  960.5898
 113  955.1713
 114  964.3553
 115  949.7682
 116  988.7774
 117  933.8544
 118  1012.917
 119  994.1104
 120  856.6381
 121  852.0151
 122  1009.91
 123  1054.939
 124  970.4902
 125  949.8612
 126  934.1104
 127  985.623
 128  821.5784
 129  837.2101
 130  874.1642
 131  872.4925
 132  902.8242
 133  977.1816
 134  1038.645
 135  964.8335
 136  900.9542
 137  994.9432
 138  1002.323
 139  1010.451
 140  966.1899
 141  973.8262
 142  885.3104
 143  894.7925
 144  907.7511
 145  898.1636
 146  937.3236
 147  963.8114
 148  953.8491
 149  900.4902
 150  924.6428
 151  969.1075
 152  922.2369
 153  871.091
 154  973.6235
 155  984.8828
 156  951.8591
 157  968.358
 158  913.2746
 159  928.9117
 160  882.3455
 161  897.0953
 162  883.9952
 163  825.4778
 164  799.0333
 165  832.5637
 166  932.9582
 167  967.871
 168  917.4928
 169  936.116
 170  1015.839
 171  995.6427
 172  1025.436
 173  987.8156
 174  1020.871
 175  1016.166
 176  1025.256
 177  916.5586
 178  932.8903
 179  944.7255
 180  1009.855
 181  991.0279
 182  963.207
 183  915.9166
 184  868.7762
 185  835.4856
 186  939.8445
 187  977.2431
 188  786.398
 189  835.1044
 190  980.7104
 191  1004.658
 192  898.3979
 193  895.902
 194  948.0001
 195  1023.694
 196  982.0315
 197  892.3394
 198  1000.963
 199  939.6829
 200  914.722
 201  955.3254
 202  957.153
 203  852.8116
 204  947.5496
 205  949.4261
 206  899.8604
 207  867.2233
 208  1008.636
 209  1030.708
 210  954.5787
 211  889.424
 212  977.3393
 213  1028.683
 214  893.6579
 215  968.0559
 216  945.8635
 217  918.4636
 218  906.9686
 219  968.2482
 220  927.5585
 221  901.3615
 222  881.777
 223  942.6672
 224  905.4338
 225  948.4094
 226  909.3546
 227  936.939
 228  805.2681
 229  762.3631
 230  895.9417
 231  963.0237
 232  1031.822
 233  937.8967
 234  927.1404
 235  947.4177
 236  886.4861
 237  812.5696
 238  861.6303
 239  909.6353
 240  977.4815
 241  863.5685
 242  969.6578
 243  974.4117
 244  923.6305
 245  900.4255
 246  925.3668
 247  904.2112
 248  956.2572
 249  965.5172
 250  946.0652
 251  899.092
 252  944.7574
 253  968.3411
 254  930.0565
 255  816.6962
 256  876.8202
 257  1008.392
 258  1015.249
 259  883.818
 260  810.3724
 261  859.2396
 262  999.3452
 263  995.4535
 264  977.1393
 265  966.5651
 266  960.2214
 267  936.3823
 268  989.4472
 269  939.7126
 270  974.7757
 271  1033.782
 272  1017.927
 273  982.3721
 274  922.0939
 275  955.8315
 276  974.4406
 277  952.7457
 278  892.2861
 279  843.8532
 280  1016.548
 281  1121.946
 282  1025.335
 283  1018.72
 284  1001.371
 285  963.6567
 286  926.6213
 287  916.5896
 288  987.9918
 289  927.0599
 290  916.8141
 291  911.8701
 292  962.3508
 293  968.3516
 294  917.263
 295  958.9993
 296  947.4033
 297  979.4864
 298  983.4861
 299  988.6985
 300  962.8047
 301  1067.932
 302  1075.528
 303  1075.045
 304  1079.165
 305  1019.927
 306  999.3988
 307  940.2284
 308  974.8696
 309  949.7478
 310  924.9155
 311  999.0978
 312  1020.264
 313  1082.119
 314  1017.067
 315  973.6875
 316  942.8187
 317  988.2338
 318  993.3517
 319  979.1548
 320  1053.003
 321  1034.004
 322  1089.787
 323  1061.521
 324  1049.168
 325  992.9396
 326  1012.059
 327  1072.365
 328  1059.299
 329  1039.798
 330  1027.357
 331  886.8486
 332  853.7375
 333  943.5131
 334  996.5169
 335  949.0997
 336  866.7825
 337  877.1848
 338  915.616
 339  950.4654
 340  1028.57
 341  853.8623
 342  870.5833
 343  910.9568
 344  903.8026
 345  940.1393
 346  949.4472
 347  933.6074
 348  902.9603
 349  898.7269
 350  983.2795
 351  936.0301
 352  917.4965
 353  883.2511
 354  944.8217
 355  961.5983
 356  966.2278
 357  1011.999
 358  960.4452
 359  935.827
 360  937.7761
 361  983.203
 362  860.5576
 363  916.0264
 364  1044.66
 365  939.004
 366  934.9089
 367  916.4044
 368  937.9475
 369  841.8535
 370  911.0124
 371  822.345
 372  945.8314
 373  1002.629
 374  1046.564
 375  1038.053
 376  982.7556
 377  983.9974
 378  974.4387
 379  952.7138
 380  996.3491
 381  968.4298
 382  852.9984
 383  875.5723
 384  881.0758
 385  953.9095
 386  924.9468
 387  943.9697
 388  928.9788
 389  797.99
 390  891.7827
 391  893.4119
 392  922.302
 393  924.7512
 394  904.8426
 395  1012.614
 396  950.1678
 397  953.1622
 398  1062.823
 399  1000.953
 400  969.2209
 401  980.7955
 402  969.4771
 403  991.0862
 404  1030.499
 405  997.5836
 406  1008.65
 407  1016.989
 408  962.1354
 409  981.9564
 410  967.3693
 411  931.1883
 412  926.3879
 413  884.5346
 414  952.4373
 415  969.5158
 416  894.4614
 417  916.5126
 418  908.192
 419  916.1091
 420  937.9572
 421  973.1112
 422  938.1184
 423  960.3138
 424  959.4551
 425  933.7018
 426  897.6793
 427  886.4273
 428  963.0034
 429  967.4863
 430  891.4753
 431  914.9116
 432  875.4596
 433  961.616
 434  950.0181
 435  876.5212
 436  949.5367
 437  907.126
 438  978.42
 439  913.2209
 440  923.587
 441  956.8709
 442  921.0309
 443  1005.411
 444  949.472
 445  884.1249
 446  869.5864
 447  908.2287
 448  961.1431
 449  938.1131
 450  905.1797
 451  919.336
 452  1001.177
 453  991.6313
 454  983.7664
 455  1004.876
 456  1046.411
 457  1016.793
 458  1030.158
 459  951.8655
 460  874.865
 461  881.5878
 462  1004.905
 463  1068.916
 464  1003.192
 465  951.501
 466  987.0344
 467  878.8671
 468  897.8438
 469  893.611
 470  964.3203
 471  946.7672
 472  971.7229
 473  973.7854
 474  944.0731
 475  1039.354
 476  947.7565
 477  971.6047
 478  979.5932
 479  953.9997
 480  983.4489
 481  1039.075
 482  1062.927
 483  1017.148
 484  1027.101
 485  1041.708
 486  924.2247
 487  898.817
 488  963.2134
 489  1052.945
 490  995.7513
 491  977.618
 492  949.249
 493  929.2224
 494  879.5096
 495  937.9565
 496  979.5341
 497  978.277
 498  975.9171
 499  983.1541
 500  1030.195
 501  993.1168
 502  1002.972
 503  1030.92
 504  984.1124
 505  996.2176
 506  1062.465
 507  1029.549
 508  991.5262
 509  1041.248
 510  1157.846
 511  1149.039
