# Input file       =  1194899111.10159_cleaned.dat
# Candidate        =  PSR_0332+5434
# Telescope        =  AR
# Epoch_topo       =  58073.850614601732
# Epoch_bary       =  N/A
# T_sample         =  0.002
# Data Folded      =  7340032
# Data Avg         =  0.0567371421896635
# Data StdDev      =  1.00042522969732 
# Profile Bins     =  512
# Profile Avg      =  813.376506301926 
# Profile StdDev   =  119.783950419584 
# Reduced chi-sqr  =  0.857
# Prob(Noise)      <  0.991   (~0.0 sigma)
# P_topo (ms)      =  714.511080074942  +/- 0.000168
# P'_topo (s/s)    =  -0                +/- 8.87e-11
# P''_topo (s/s^2) =  0                 +/- 3.92e-14
# P_bary (ms)      =  N/A
# P'_bary (s/s)    =  N/A
# P''_bary (s/s^2) =  N/A
# P_orb (s)        =  N/A
# asin(i)/c (s)    =  N/A
# eccentricity     =  N/A
# w (rad)          =  N/A
# T_peri           =  N/A
######################################################
   0  1145.703
   1  1170.75
   2  1042.801
   3  947.8426
   4  795.8456
   5  719.6744
   6  755.7466
   7  747.9567
   8  874.4163
   9  863.6553
  10  853.2758
  11  797.6551
  12  777.0526
  13  864.9831
  14  872.8911
  15  890.6682
  16  953.4742
  17  916.1884
  18  905.0459
  19  887.7667
  20  866.794
  21  838.0974
  22  911.0194
  23  938.608
  24  804.7761
  25  745.1752
  26  782.7156
  27  700.2571
  28  666.7808
  29  732.7839
  30  804.3322
  31  803.3948
  32  789.4787
  33  751.0768
  34  676.5934
  35  778.611
  36  801.4725
  37  850.2054
  38  807.1704
  39  769.9236
  40  824.0804
  41  851.92
  42  865.936
  43  686.0948
  44  775.0117
  45  864.1339
  46  807.7968
  47  769.3558
  48  778.1154
  49  779.1691
  50  795.07
  51  801.9597
  52  721.7526
  53  839.3038
  54  832.1493
  55  773.894
  56  647.4392
  57  656.5529
  58  774.5037
  59  853.9549
  60  786.9267
  61  883.3542
  62  908.267
  63  779.7944
  64  819.7275
  65  744.0993
  66  738.7676
  67  706.2961
  68  898.6387
  69  953.7523
  70  841.0797
  71  770.5516
  72  772.2006
  73  704.3766
  74  714.4838
  75  771.3461
  76  845.6636
  77  777.2837
  78  714.8702
  79  736.9645
  80  808.9639
  81  884.0784
  82  890.0428
  83  846.5745
  84  825.2578
  85  767.9692
  86  815.7094
  87  833.2902
  88  805.9088
  89  802.1832
  90  773.228
  91  722.3341
  92  724.5858
  93  627.454
  94  758.687
  95  696.8513
  96  703.8877
  97  810.7061
  98  844.9022
  99  816.8029
 100  739.235
 101  754.8154
 102  758.8125
 103  730.8046
 104  737.9541
 105  745.9233
 106  667.7507
 107  774.7231
 108  799.8491
 109  782.2766
 110  770.291
 111  780.2951
 112  763.667
 113  853.1139
 114  853.2094
 115  781.3369
 116  663.9798
 117  777.1166
 118  798.3503
 119  810.5627
 120  801.087
 121  711.6764
 122  814.1281
 123  752.1591
 124  797.708
 125  901.8574
 126  863.6157
 127  726.7776
 128  701.3894
 129  784.6713
 130  841.5915
 131  684.2648
 132  753.5927
 133  729.4171
 134  770.9833
 135  688.9161
 136  694.2852
 137  865.3841
 138  840.7278
 139  793.0319
 140  783.06
 141  765.5573
 142  684.4347
 143  681.2112
 144  663.7558
 145  761.6122
 146  783.359
 147  817.2206
 148  839.0974
 149  883.1587
 150  709.4258
 151  717.0455
 152  694.5023
 153  705.6773
 154  891.3254
 155  866.0493
 156  865.1367
 157  855.9981
 158  847.6119
 159  686.2448
 160  641.5578
 161  838.3091
 162  975.6234
 163  804.3104
 164  744.1766
 165  788.1762
 166  796.7773
 167  765.3907
 168  740.5606
 169  773.0829
 170  732.2968
 171  662.3567
 172  618.2233
 173  743.9099
 174  649.6111
 175  741.7053
 176  828.8326
 177  865.0206
 178  832.7822
 179  717.5596
 180  771.5024
 181  802.6951
 182  792.4088
 183  811.3311
 184  748.1879
 185  631.3301
 186  667.5483
 187  661.798
 188  790.0291
 189  839.0571
 190  765.1768
 191  686.1959
 192  791.9485
 193  760.3916
 194  713.2419
 195  752.6385
 196  796.0284
 197  824.7999
 198  766.584
 199  769.1816
 200  771.8255
 201  707.3797
 202  812.7654
 203  775.1136
 204  802.1982
 205  809.5564
 206  835.391
 207  772.2725
 208  844.0952
 209  765.2997
 210  643.1275
 211  756.8762
 212  812.0558
 213  829.0799
 214  841.2098
 215  831.129
 216  757.5234
 217  786.0344
 218  792.251
 219  798.5224
 220  772.5645
 221  776.2227
 222  852.9349
 223  904.7554
 224  773.8951
 225  725.7079
 226  839.775
 227  916.9155
 228  863.5193
 229  914.4683
 230  853.2194
 231  755.6732
 232  703.4416
 233  729.495
 234  841.9758
 235  850.3691
 236  1012.017
 237  894.1199
 238  831.352
 239  903.2076
 240  811.4169
 241  744.8487
 242  690.9474
 243  740.1135
 244  734.2737
 245  731.8691
 246  718.376
 247  692.0465
 248  724.214
 249  809.9407
 250  828.8881
 251  836.6167
 252  874.4712
 253  800.8534
 254  807.2808
 255  737.8894
 256  847.9078
 257  814.2648
 258  931.4048
 259  951.0997
 260  864.4951
 261  846.6575
 262  848.4095
 263  908.9074
 264  884.8334
 265  939.7419
 266  927.1738
 267  781.9076
 268  813.5037
 269  813.9824
 270  799.5282
 271  821.4404
 272  958.5696
 273  892.4471
 274  812.7691
 275  794.7821
 276  886.5438
 277  993.4099
 278  938.6757
 279  838.9099
 280  796.65
 281  737.0318
 282  813.2444
 283  881.5151
 284  787.4067
 285  765.9354
 286  799.8174
 287  832.3061
 288  769.1395
 289  793.1461
 290  911.9371
 291  849.9164
 292  644.7516
 293  792.883
 294  811.4218
 295  769.8699
 296  815.3251
 297  741.5169
 298  651.5974
 299  705.6301
 300  741.2409
 301  725.4093
 302  844.192
 303  926.4865
 304  852.7198
 305  856.7549
 306  795.7354
 307  832.7286
 308  877.2638
 309  920.8607
 310  952.6832
 311  796.7445
 312  765.329
 313  741.0446
 314  775.977
 315  814.8159
 316  840.4178
 317  786.8091
 318  835.2264
 319  842.9582
 320  842.4145
 321  883.4432
 322  784.7791
 323  809.6469
 324  776.35
 325  719.488
 326  901.2328
 327  915.0848
 328  807.612
 329  867.5601
 330  842.5428
 331  924.711
 332  980.2574
 333  842.832
 334  933.372
 335  992.0493
 336  868.3397
 337  878.4855
 338  912.1515
 339  947.6707
 340  848.1207
 341  783.8942
 342  664.5628
 343  770.7618
 344  929.7483
 345  1030.244
 346  986.6123
 347  934.1709
 348  796.4005
 349  777.0074
 350  780.7434
 351  906.0786
 352  902.1927
 353  784.9067
 354  864.3892
 355  893.0345
 356  789.4949
 357  784.0222
 358  749.0873
 359  776.3695
 360  813.8553
 361  736.5885
 362  693.9556
 363  742.3421
 364  711.445
 365  657.6197
 366  625.1832
 367  699.2982
 368  850.0374
 369  860.1594
 370  853.7983
 371  790.6504
 372  806.2227
 373  895.0935
 374  846.2005
 375  773.6914
 376  829.3967
 377  813.6807
 378  873.403
 379  894.5171
 380  934.5011
 381  897.0729
 382  867.4828
 383  814.3394
 384  897.113
 385  743.5632
 386  785.3141
 387  894.8961
 388  902.9882
 389  876.8361
 390  823.8478
 391  833.6151
 392  939.5441
 393  909.693
 394  904.2356
 395  829.6082
 396  814.2451
 397  794.7194
 398  806.8625
 399  778.8632
 400  813.4559
 401  848.287
 402  887.7186
 403  874.7633
 404  814.2242
 405  838.5614
 406  831.0347
 407  765.4637
 408  858.4213
 409  854.046
 410  775.9921
 411  778.7187
 412  864.6834
 413  880.6228
 414  802.4109
 415  850.3221
 416  863.5027
 417  840.0228
 418  786.4268
 419  745.367
 420  846.6827
 421  841.7426
 422  826.6179
 423  756.6139
 424  760.1017
 425  763.2858
 426  850.6544
 427  839.0733
 428  824.0385
 429  759.9613
 430  780.9855
 431  1009.243
 432  997.4659
 433  847.3264
 434  829.1711
 435  789.7881
 436  834.5751
 437  875.287
 438  793.9729
 439  713.9814
 440  816.2585
 441  837.4167
 442  834.3804
 443  745.1262
 444  788.2861
 445  827.8204
 446  895.6135
 447  845.8712
 448  758.9279
 449  838.7875
 450  909.1703
 451  898.4707
 452  782.0392
 453  819.0508
 454  711.4293
 455  731.5714
 456  809.5494
 457  748.6716
 458  836.338
 459  865.9908
 460  801.9005
 461  869.0386
 462  877.4389
 463  744.3439
 464  802.3757
 465  905.1403
 466  837.9963
 467  804.1515
 468  853.2278
 469  852.6676
 470  838.6682
 471  832.8788
 472  795.9941
 473  793.2226
 474  778.7911
 475  727.7477
 476  798.3116
 477  860.0197
 478  817.4655
 479  801.9423
 480  834.6432
 481  793.0444
 482  759.1795
 483  865.8254
 484  825.0042
 485  782.2287
 486  765.9792
 487  826.3893
 488  731.7156
 489  684.3984
 490  828.3163
 491  797.3351
 492  799.3129
 493  874.1432
 494  982.4973
 495  952.2858
 496  842.2028
 497  891.3445
 498  926.5107
 499  896.7425
 500  900.4973
 501  893.8606
 502  846.238
 503  846.8306
 504  973.1298
 505  944.9059
 506  894.957
 507  856.0217
 508  910.6998
 509  1070.356
 510  1147.094
 511  1152.978
