# Input file       =  1194553880.107303_cleaned.dat
# Candidate        =  PSR_0332+5434
# Telescope        =  AR
# Epoch_topo       =  58069.854885501190
# Epoch_bary       =  N/A
# T_sample         =  0.002
# Data Folded      =  7340032
# Data Avg         =  0.0440630286333198
# Data StdDev      =  1.00031873142652 
# Profile Bins     =  512
# Profile Avg      =  631.862172802832 
# Profile StdDev   =  119.771199058252 
# Reduced chi-sqr  =  0.994
# Prob(Noise)      <  0.533   (~0.0 sigma)
# P_topo (ms)      =  714.507041695702  +/- 0.000546
# P'_topo (s/s)    =  -0                +/- 2.88e-10
# P''_topo (s/s^2) =  0                 +/- 1.27e-13
# P_bary (ms)      =  N/A
# P'_bary (s/s)    =  N/A
# P''_bary (s/s^2) =  N/A
# P_orb (s)        =  N/A
# asin(i)/c (s)    =  N/A
# eccentricity     =  N/A
# w (rad)          =  N/A
# T_peri           =  N/A
######################################################
   0  1059.763
   1  1003.788
   2  937.362
   3  869.894
   4  736.0212
   5  640.418
   6  701.204
   7  830.8001
   8  769.0616
   9  683.8956
  10  710.1273
  11  660.924
  12  675.1364
  13  645.3771
  14  651.0981
  15  632.808
  16  620.7781
  17  621.3292
  18  560.42
  19  529.8133
  20  563.6281
  21  593.2071
  22  605.329
  23  622.9789
  24  666.0802
  25  761.9044
  26  735.4546
  27  588.3734
  28  485.5258
  29  551.9736
  30  626.3474
  31  662.5566
  32  539.6003
  33  606.8456
  34  572.6267
  35  595.7457
  36  645.6776
  37  601.2782
  38  588.3707
  39  588.1863
  40  511.8744
  41  556.0731
  42  682.6686
  43  682.0568
  44  672.0566
  45  698.02
  46  624.3481
  47  512.4405
  48  429.7153
  49  592.7681
  50  552.0402
  51  538.7167
  52  648.9642
  53  605.3271
  54  551.0615
  55  575.7872
  56  618.9317
  57  629.7997
  58  596.7921
  59  692.611
  60  552.5944
  61  602.9583
  62  546.4728
  63  605.6866
  64  625.7098
  65  669.0186
  66  628.0662
  67  594.0944
  68  578.4081
  69  675.8413
  70  770.9533
  71  828.4896
  72  620.883
  73  635.6608
  74  723.5678
  75  614.5745
  76  684.9858
  77  837.7032
  78  685.1763
  79  567.9702
  80  593.9487
  81  612.8326
  82  666.4859
  83  599.4448
  84  674.3004
  85  633.4177
  86  608.5813
  87  566.423
  88  497.0588
  89  531.9918
  90  550.9313
  91  531.942
  92  429.3804
  93  477.948
  94  587.5918
  95  680.5077
  96  485.3129
  97  460.9852
  98  527.239
  99  644.0381
 100  648.0852
 101  643.0013
 102  562.6168
 103  642.4834
 104  606.2192
 105  724.9843
 106  618.8295
 107  559.1427
 108  593.8004
 109  621.4168
 110  528.2747
 111  607.5846
 112  744.825
 113  698.9535
 114  532.9089
 115  526.2238
 116  555.417
 117  667.132
 118  706.6329
 119  666.3536
 120  653.9772
 121  583.5726
 122  741.5766
 123  768.5937
 124  661.3359
 125  575.8511
 126  587.5728
 127  673.6288
 128  648.4025
 129  585.5822
 130  586.5118
 131  735.953
 132  671.7561
 133  491.9729
 134  495.8123
 135  505.5996
 136  565.3297
 137  606.1462
 138  622.4731
 139  602.8697
 140  561.0788
 141  530.4277
 142  543.317
 143  554.8571
 144  591.5421
 145  562.629
 146  565.5018
 147  630.9836
 148  603.6418
 149  538.7177
 150  578.1074
 151  595.5949
 152  585.3083
 153  707.5303
 154  720.4899
 155  648.1876
 156  586.5029
 157  569.1918
 158  647.3198
 159  578.5833
 160  633.3895
 161  661.556
 162  725.3977
 163  719.645
 164  684.5165
 165  546.4756
 166  492.51
 167  513.0732
 168  638.2509
 169  684.7967
 170  622.2828
 171  774.1006
 172  660.5722
 173  597.1735
 174  675.5263
 175  642.5138
 176  572.5287
 177  557.0485
 178  644.5414
 179  725.5114
 180  697.0211
 181  689.0205
 182  577.5694
 183  587.4999
 184  643.1929
 185  676.2597
 186  667.9969
 187  664.0009
 188  681.0544
 189  675.3062
 190  598.3805
 191  544.6483
 192  580.6025
 193  615.5792
 194  592.1349
 195  625.3995
 196  733.3735
 197  713.4586
 198  678.5553
 199  675.1365
 200  611.0922
 201  475.5937
 202  603.0012
 203  631.5563
 204  695.3748
 205  680.6208
 206  754.522
 207  679.0259
 208  672.5461
 209  786.0756
 210  704.7358
 211  739.972
 212  777.6888
 213  804.4703
 214  832.7076
 215  876.2194
 216  818.3324
 217  604.3691
 218  658.2067
 219  731.2858
 220  750.4114
 221  710.1171
 222  637.4578
 223  624.785
 224  684.3187
 225  648.8641
 226  597.4089
 227  650.4005
 228  565.2117
 229  614.143
 230  653.2134
 231  675.1181
 232  627.8125
 233  627.5335
 234  694.0652
 235  646.5118
 236  508.6872
 237  638.8984
 238  703.5896
 239  684.5995
 240  662.7106
 241  641.6721
 242  678.6364
 243  637.3784
 244  518.5873
 245  591.8234
 246  693.4511
 247  682.778
 248  697.4
 249  660.6022
 250  599.7941
 251  606.4547
 252  640.3119
 253  574.0399
 254  617.9596
 255  643.8054
 256  599.9291
 257  609.6073
 258  499.9924
 259  633.3967
 260  656.6326
 261  619.0928
 262  637.228
 263  643.3926
 264  661.055
 265  560.2721
 266  471.0132
 267  504.0329
 268  489.1987
 269  673.5023
 270  697.6304
 271  551.1382
 272  427.5495
 273  543.925
 274  605.9691
 275  523.4156
 276  594.934
 277  643.8131
 278  571.5291
 279  665.3646
 280  604.201
 281  548.4452
 282  584.8857
 283  651.3427
 284  683.6941
 285  633.1825
 286  600.9351
 287  584.8059
 288  542.0272
 289  584.7181
 290  580.3969
 291  549.4509
 292  602.7076
 293  637.8481
 294  573.4562
 295  601.0355
 296  787.3698
 297  682.4868
 298  490.0103
 299  603.2578
 300  622.8123
 301  579.683
 302  723.3647
 303  737.3692
 304  708.8087
 305  558.2398
 306  573.6209
 307  506.1758
 308  596.8317
 309  738.7188
 310  691.278
 311  685.3818
 312  553.8279
 313  533.4757
 314  574.13
 315  456.7864
 316  524.6821
 317  453.978
 318  478.6707
 319  466.1122
 320  543.2637
 321  555.0846
 322  541.0364
 323  505.7467
 324  588.2009
 325  615.5043
 326  564.5186
 327  493.1582
 328  567.0601
 329  600.6877
 330  575.5557
 331  552.6241
 332  571.0112
 333  464.2948
 334  552.8045
 335  571.7159
 336  581.8599
 337  547.0275
 338  681.2444
 339  736.1517
 340  677.2729
 341  748.249
 342  759.25
 343  738.1132
 344  620.5007
 345  646.6622
 346  641.2705
 347  681.9767
 348  634.324
 349  626.0936
 350  676.7401
 351  657.5774
 352  641.9096
 353  746.6372
 354  573.6212
 355  617.4614
 356  626.0839
 357  550.9311
 358  560.2986
 359  553.8394
 360  548.6282
 361  601.298
 362  637.6092
 363  612.9388
 364  589.3909
 365  636.2025
 366  567.4219
 367  555.7109
 368  622.7971
 369  687.7937
 370  615.2089
 371  589.5173
 372  657.7001
 373  649.7654
 374  651.8207
 375  801.3479
 376  748.5476
 377  612.3571
 378  667.827
 379  601.8862
 380  527.0658
 381  606.9116
 382  583.6813
 383  723.4914
 384  730.7358
 385  797.8244
 386  609.222
 387  549.9587
 388  581.0795
 389  613.5441
 390  656.4399
 391  718.6093
 392  701.9971
 393  638.9379
 394  567.7359
 395  527.1617
 396  678.7905
 397  781.1679
 398  779.6564
 399  689.7556
 400  601.1336
 401  628.6363
 402  614.3259
 403  736.6663
 404  658.2558
 405  639.7841
 406  648.7076
 407  566.7996
 408  644.3867
 409  604.0348
 410  642.8122
 411  586.5626
 412  574.3601
 413  620.2121
 414  668.5023
 415  697.7847
 416  599.5469
 417  546.5802
 418  572.7646
 419  555.1639
 420  590.7269
 421  655.4458
 422  724.9743
 423  630.8852
 424  513.4874
 425  542.4556
 426  691.6236
 427  771.0923
 428  840.1133
 429  744.6392
 430  649.7002
 431  616.653
 432  617.6076
 433  697.0764
 434  700.5818
 435  723.4441
 436  854.8182
 437  647.4923
 438  607.8167
 439  713.9008
 440  567.6352
 441  562.6672
 442  589.8775
 443  562.1377
 444  530.5638
 445  523.2306
 446  616.1861
 447  637.7818
 448  564.1103
 449  720.3873
 450  638.2856
 451  555.7535
 452  637.8784
 453  583.0067
 454  551.192
 455  485.3174
 456  624.9658
 457  684.9034
 458  674.7996
 459  624.9517
 460  667.1658
 461  680.0757
 462  537.2925
 463  710.4351
 464  685.4721
 465  609.9805
 466  616.2562
 467  609.4828
 468  604.311
 469  632.2334
 470  590.5949
 471  674.0012
 472  645.0551
 473  619.7811
 474  629.8579
 475  646.8391
 476  645.8768
 477  587.7577
 478  635.923
 479  589.68
 480  603.2896
 481  605.9418
 482  577.2507
 483  567.0925
 484  568.8311
 485  634.4997
 486  722.4479
 487  587.5657
 488  563.7021
 489  600.8727
 490  633.2445
 491  672.8282
 492  652.9225
 493  688.794
 494  654.923
 495  652.9055
 496  651.3777
 497  706.9407
 498  641.231
 499  671.5297
 500  716.5692
 501  718.6294
 502  617.5869
 503  618.666
 504  671.7776
 505  740.0075
 506  693.7448
 507  757.2243
 508  880.3018
 509  933.4553
 510  1092.106
 511  1081.791
