# Input file       =  1194970650.113932_cleaned.dat
# Candidate        =  PSR_0332+5434
# Telescope        =  AR
# Epoch_topo       =  58074.678612429765
# Epoch_bary       =  N/A
# T_sample         =  0.002
# Data Folded      =  7143424
# Data Avg         =  0.0999673054638694
# Data StdDev      =  1.00050829157495 
# Profile Bins     =  512
# Profile Avg      =  1394.8337868068  
# Profile StdDev   =  118.178623163204 
# Reduced chi-sqr  =  0.685
# Prob(Noise)      <  1   (~0.0 sigma)
# P_topo (ms)      =  714.511900043998  +/- 5.39e-05
# P'_topo (s/s)    =  -0                +/- 2.92e-11
# P''_topo (s/s^2) =  0                 +/- 1.32e-14
# P_bary (ms)      =  N/A
# P'_bary (s/s)    =  N/A
# P''_bary (s/s^2) =  N/A
# P_orb (s)        =  N/A
# asin(i)/c (s)    =  N/A
# eccentricity     =  N/A
# w (rad)          =  N/A
# T_peri           =  N/A
######################################################
   0  1702.369
   1  1690.069
   2  1628.114
   3  1473.356
   4  1419.382
   5  1492.775
   6  1507.008
   7  1416.91
   8  1457.583
   9  1501.301
  10  1371.36
  11  1361.703
  12  1432.453
  13  1473.691
  14  1471.864
  15  1428.548
  16  1433.777
  17  1404.339
  18  1461.621
  19  1426.987
  20  1400.031
  21  1420.185
  22  1355.801
  23  1351.081
  24  1380.538
  25  1339.33
  26  1298.936
  27  1332.678
  28  1314.996
  29  1291.009
  30  1360.298
  31  1434.922
  32  1384.702
  33  1307.648
  34  1421.581
  35  1372.183
  36  1416.453
  37  1437.859
  38  1414.747
  39  1410.033
  40  1328.834
  41  1384.267
  42  1399.361
  43  1346.681
  44  1312.664
  45  1378.62
  46  1355.542
  47  1430.165
  48  1515.656
  49  1444.118
  50  1318.405
  51  1354.238
  52  1520.042
  53  1500.029
  54  1416.306
  55  1440.892
  56  1363.085
  57  1333.633
  58  1328.414
  59  1400.667
  60  1333.82
  61  1379.473
  62  1353.863
  63  1363.74
  64  1313.103
  65  1313.169
  66  1415.466
  67  1414.145
  68  1321.047
  69  1277.338
  70  1326.526
  71  1443.665
  72  1400.679
  73  1444.608
  74  1490.506
  75  1504.167
  76  1531.935
  77  1474.963
  78  1392.562
  79  1370.401
  80  1444.894
  81  1421.026
  82  1355.456
  83  1328.808
  84  1273.993
  85  1342.584
  86  1367.082
  87  1422.127
  88  1521.624
  89  1468.241
  90  1467.594
  91  1378.128
  92  1403.155
  93  1325.506
  94  1333.568
  95  1411.296
  96  1357.1
  97  1340.573
  98  1289.583
  99  1288.901
 100  1302.891
 101  1375.368
 102  1407.81
 103  1414.093
 104  1270.603
 105  1291.627
 106  1321.847
 107  1335.21
 108  1196.329
 109  1238.227
 110  1374.377
 111  1356.117
 112  1318.897
 113  1286.757
 114  1329.294
 115  1270.862
 116  1338.557
 117  1360.061
 118  1359.754
 119  1452.157
 120  1446.451
 121  1486.116
 122  1493.264
 123  1421.284
 124  1354.427
 125  1359.875
 126  1401.701
 127  1524.213
 128  1473.158
 129  1420.904
 130  1447.295
 131  1409.378
 132  1419.859
 133  1337.132
 134  1328.862
 135  1429.169
 136  1419.318
 137  1410.901
 138  1513.205
 139  1457.123
 140  1381.833
 141  1384.163
 142  1324.996
 143  1411.826
 144  1464.551
 145  1454.415
 146  1301.7
 147  1247.575
 148  1380.646
 149  1448.142
 150  1373.689
 151  1201.021
 152  1205.152
 153  1328.123
 154  1413.742
 155  1375.34
 156  1473.742
 157  1442.627
 158  1400.243
 159  1446.722
 160  1427.617
 161  1316.079
 162  1406.835
 163  1399.124
 164  1373.226
 165  1337.732
 166  1255.437
 167  1366.397
 168  1381.611
 169  1427.394
 170  1321.32
 171  1250.663
 172  1358.489
 173  1398.231
 174  1439.532
 175  1317.024
 176  1333.834
 177  1447.599
 178  1451.025
 179  1375.09
 180  1310.014
 181  1327.655
 182  1285.984
 183  1311.6
 184  1461.276
 185  1514.869
 186  1475.347
 187  1392.739
 188  1448.219
 189  1391.312
 190  1399.39
 191  1461.271
 192  1442.305
 193  1398.932
 194  1447.373
 195  1524.377
 196  1438.779
 197  1373.041
 198  1343.616
 199  1339.66
 200  1344.135
 201  1415.607
 202  1487.851
 203  1439.238
 204  1394.449
 205  1412.931
 206  1493.004
 207  1433.039
 208  1296.922
 209  1277.934
 210  1309.187
 211  1386.983
 212  1364.715
 213  1369.764
 214  1439.853
 215  1450.752
 216  1447.536
 217  1450.383
 218  1436.144
 219  1459.49
 220  1479.405
 221  1470.295
 222  1329.286
 223  1345.725
 224  1481.382
 225  1473.728
 226  1449.172
 227  1474.278
 228  1369.282
 229  1493.88
 230  1535.695
 231  1462.648
 232  1419.452
 233  1338.929
 234  1365.157
 235  1433.829
 236  1396.617
 237  1545.113
 238  1526.981
 239  1454.983
 240  1364.202
 241  1321.865
 242  1423.159
 243  1390.143
 244  1404.306
 245  1459.642
 246  1440.955
 247  1320.991
 248  1345.072
 249  1479.019
 250  1432.428
 251  1337.181
 252  1366.916
 253  1362.233
 254  1392.514
 255  1376.475
 256  1380.794
 257  1421.301
 258  1343.912
 259  1370.804
 260  1392.636
 261  1318.306
 262  1369.075
 263  1510.004
 264  1534.515
 265  1459.08
 266  1476.831
 267  1459.677
 268  1424.264
 269  1297.847
 270  1376.639
 271  1463.755
 272  1444.826
 273  1447.781
 274  1440.535
 275  1375.956
 276  1298.666
 277  1361.923
 278  1422.881
 279  1281.7
 280  1343.553
 281  1439.067
 282  1419.161
 283  1304.3
 284  1336.987
 285  1432.489
 286  1467.518
 287  1414.468
 288  1367.822
 289  1361.148
 290  1371.463
 291  1383.807
 292  1294.952
 293  1390.976
 294  1409.196
 295  1427.117
 296  1364.612
 297  1288.169
 298  1260.748
 299  1320.288
 300  1364.824
 301  1358.146
 302  1453.443
 303  1520.726
 304  1425.572
 305  1326.689
 306  1404.867
 307  1350.779
 308  1310.99
 309  1320.805
 310  1405.21
 311  1496.442
 312  1388.583
 313  1413.151
 314  1372.459
 315  1320.505
 316  1318.658
 317  1402.203
 318  1381.275
 319  1383.396
 320  1471.896
 321  1422.224
 322  1510.718
 323  1440.862
 324  1387.746
 325  1417.973
 326  1311.359
 327  1367.444
 328  1402.842
 329  1450.304
 330  1440.428
 331  1426.437
 332  1412.143
 333  1424.506
 334  1489.711
 335  1501.809
 336  1445.022
 337  1452.051
 338  1540.103
 339  1409.759
 340  1310.698
 341  1425.193
 342  1399.489
 343  1319.117
 344  1445.537
 345  1470.514
 346  1377.374
 347  1378.088
 348  1429.745
 349  1430.342
 350  1284.868
 351  1248.567
 352  1398.386
 353  1488.255
 354  1473.027
 355  1296.674
 356  1279.561
 357  1229.651
 358  1245.438
 359  1358.083
 360  1402.747
 361  1463.075
 362  1438.729
 363  1425.254
 364  1408.225
 365  1284.853
 366  1302.893
 367  1420.672
 368  1466.292
 369  1384.848
 370  1412.393
 371  1375.708
 372  1344.627
 373  1300.283
 374  1432.279
 375  1340.691
 376  1314.288
 377  1390.554
 378  1469.989
 379  1473.178
 380  1364.22
 381  1405.424
 382  1373.997
 383  1337.995
 384  1411.622
 385  1448.224
 386  1357.334
 387  1392.567
 388  1356.108
 389  1304.97
 390  1216.391
 391  1333.126
 392  1341.97
 393  1379.605
 394  1424.937
 395  1391.516
 396  1406.612
 397  1339.535
 398  1226.645
 399  1397.509
 400  1355.496
 401  1418.72
 402  1371.614
 403  1388.956
 404  1372.046
 405  1377.058
 406  1471.362
 407  1421.535
 408  1446.769
 409  1549.026
 410  1439.889
 411  1290.255
 412  1262.073
 413  1310.94
 414  1371.54
 415  1357.475
 416  1412.922
 417  1465.345
 418  1457.276
 419  1345.397
 420  1356.597
 421  1402.341
 422  1448.916
 423  1384.286
 424  1383.172
 425  1384.05
 426  1348.545
 427  1444.885
 428  1470.342
 429  1478.074
 430  1433.832
 431  1416.915
 432  1424.707
 433  1374.961
 434  1372.844
 435  1444.115
 436  1525.145
 437  1371.25
 438  1400.813
 439  1490.71
 440  1440.285
 441  1272.996
 442  1329.567
 443  1445.668
 444  1403.889
 445  1457.552
 446  1392.63
 447  1371.055
 448  1309.403
 449  1384.389
 450  1359.768
 451  1411.411
 452  1378.644
 453  1405.999
 454  1427.44
 455  1454.834
 456  1335.701
 457  1283.796
 458  1278.921
 459  1359.736
 460  1457.635
 461  1373.239
 462  1405.221
 463  1366.424
 464  1393.083
 465  1429.387
 466  1336.54
 467  1282.383
 468  1352.017
 469  1318.349
 470  1401.895
 471  1480.495
 472  1433.74
 473  1384.664
 474  1396.933
 475  1465.813
 476  1448.639
 477  1372.542
 478  1407.479
 479  1332.506
 480  1278.81
 481  1474.325
 482  1537.885
 483  1460.097
 484  1435.325
 485  1546.902
 486  1569.44
 487  1447.458
 488  1323.425
 489  1309.333
 490  1334.387
 491  1413.609
 492  1377.364
 493  1320.952
 494  1285.435
 495  1355.62
 496  1492.883
 497  1461.51
 498  1364.652
 499  1293.675
 500  1380.303
 501  1398.986
 502  1397.791
 503  1374.678
 504  1377.01
 505  1328.908
 506  1320.477
 507  1364.941
 508  1413.187
 509  1509.593
 510  1542.801
 511  1674.33
