# Input file       =  1195846833.110793_cleaned.dat
# Candidate        =  PSR_0332+5434
# Telescope        =  AR
# Epoch_topo       =  58084.819619337883
# Epoch_bary       =  N/A
# T_sample         =  0.002
# Data Folded      =  7340032
# Data Avg         =  0.106154376804126
# Data StdDev      =  1.00048223492046 
# Profile Bins     =  512
# Profile Avg      =  1521.86925495525 
# Profile StdDev   =  119.79077582804  
# Reduced chi-sqr  =  0.589
# Prob(Noise)      <  1   (~0.0 sigma)
# P_topo (ms)      =  714.522398416469  +/- 0.000243
# P'_topo (s/s)    =  -0                +/- 1.28e-10
# P''_topo (s/s^2) =  0                 +/- 5.66e-14
# P_bary (ms)      =  N/A
# P'_bary (s/s)    =  N/A
# P''_bary (s/s^2) =  N/A
# P_orb (s)        =  N/A
# asin(i)/c (s)    =  N/A
# eccentricity     =  N/A
# w (rad)          =  N/A
# T_peri           =  N/A
######################################################
   0  1674.618
   1  1721.911
   2  1636.248
   3  1518.171
   4  1493.59
   5  1500.913
   6  1582.917
   7  1588.639
   8  1631.772
   9  1618.826
  10  1589.026
  11  1602.976
  12  1638.613
  13  1492.738
  14  1407.105
  15  1476
  16  1490.635
  17  1461.568
  18  1405.133
  19  1403.848
  20  1512.978
  21  1405.212
  22  1409.594
  23  1439.141
  24  1489.68
  25  1466.89
  26  1416.314
  27  1516.45
  28  1494.513
  29  1420.987
  30  1449.898
  31  1436.688
  32  1430.465
  33  1420.265
  34  1419.254
  35  1362.65
  36  1335.997
  37  1441.972
  38  1471.406
  39  1478.169
  40  1419.932
  41  1500.325
  42  1529.153
  43  1490.021
  44  1459.02
  45  1411.049
  46  1490.708
  47  1472.648
  48  1472.92
  49  1518.836
  50  1431.182
  51  1502.79
  52  1482.673
  53  1457.837
  54  1461.354
  55  1428.423
  56  1523.652
  57  1468.855
  58  1453.065
  59  1564.719
  60  1502.555
  61  1431.269
  62  1398.123
  63  1461.072
  64  1480.921
  65  1619.981
  66  1581.969
  67  1596.784
  68  1580.818
  69  1583.213
  70  1565.327
  71  1492.707
  72  1526.62
  73  1546.775
  74  1464.435
  75  1458.635
  76  1517.861
  77  1505.208
  78  1507.058
  79  1474.11
  80  1590.91
  81  1526.97
  82  1539.868
  83  1515.723
  84  1552.399
  85  1499.636
  86  1542.895
  87  1584.627
  88  1610.353
  89  1628.392
  90  1530.167
  91  1524.898
  92  1618.353
  93  1415.761
  94  1370.663
  95  1474.406
  96  1515.865
  97  1475.846
  98  1424.107
  99  1561.357
 100  1496.842
 101  1516.413
 102  1523.967
 103  1524.596
 104  1569.364
 105  1599.361
 106  1583.348
 107  1475.076
 108  1518.885
 109  1535.644
 110  1435.849
 111  1494.012
 112  1565.516
 113  1561.05
 114  1510.495
 115  1493.957
 116  1528.141
 117  1512.195
 118  1499.024
 119  1577.598
 120  1604.725
 121  1575.266
 122  1437.977
 123  1509.023
 124  1492.563
 125  1468.816
 126  1478.64
 127  1468.119
 128  1525.092
 129  1519.363
 130  1475.381
 131  1462.639
 132  1504.631
 133  1525.449
 134  1487.859
 135  1422.682
 136  1452.186
 137  1482.355
 138  1528.399
 139  1538.585
 140  1661.483
 141  1569.267
 142  1588.137
 143  1538.916
 144  1506.632
 145  1486.319
 146  1497.177
 147  1542.126
 148  1562.21
 149  1528.397
 150  1439.704
 151  1439.913
 152  1439.573
 153  1491.815
 154  1502.499
 155  1480.51
 156  1558.318
 157  1507.566
 158  1483.358
 159  1554.081
 160  1572.765
 161  1495.133
 162  1488.578
 163  1557.06
 164  1546.748
 165  1431.983
 166  1437.921
 167  1604.101
 168  1701.406
 169  1643.546
 170  1641.038
 171  1584.396
 172  1572.696
 173  1525.032
 174  1577.668
 175  1649.261
 176  1679.526
 177  1620.15
 178  1570.667
 179  1429.599
 180  1517.459
 181  1560.871
 182  1551.639
 183  1609.389
 184  1556.73
 185  1512.317
 186  1450.645
 187  1486.009
 188  1636.11
 189  1569.178
 190  1509.946
 191  1506.063
 192  1522.102
 193  1516.885
 194  1491.486
 195  1494.179
 196  1637.482
 197  1632.25
 198  1617.876
 199  1531.939
 200  1506.304
 201  1571.691
 202  1615.807
 203  1613.386
 204  1562.309
 205  1552.033
 206  1503.726
 207  1498.706
 208  1488.009
 209  1470.923
 210  1432.092
 211  1543.209
 212  1579.23
 213  1559.532
 214  1514.028
 215  1509.88
 216  1578.256
 217  1562.733
 218  1456.805
 219  1541.414
 220  1572.879
 221  1625.487
 222  1512.417
 223  1509.405
 224  1596.48
 225  1559.502
 226  1537.79
 227  1510.681
 228  1605.279
 229  1629.375
 230  1585.48
 231  1588.385
 232  1547.403
 233  1521.978
 234  1512.779
 235  1581.979
 236  1527.565
 237  1586.519
 238  1569.091
 239  1624.03
 240  1587.702
 241  1598.784
 242  1531.875
 243  1578.249
 244  1507.643
 245  1397.535
 246  1354.854
 247  1498.504
 248  1567.172
 249  1547.922
 250  1505.674
 251  1456.327
 252  1549.92
 253  1519.44
 254  1477.856
 255  1527.249
 256  1627.083
 257  1590.833
 258  1556.525
 259  1565.324
 260  1526.193
 261  1452.464
 262  1520.539
 263  1581.881
 264  1531.763
 265  1443.733
 266  1530.651
 267  1668.714
 268  1646.255
 269  1596.372
 270  1705.038
 271  1653.597
 272  1596.954
 273  1613.953
 274  1461.335
 275  1372.733
 276  1570.712
 277  1582.201
 278  1622.656
 279  1520.729
 280  1506.498
 281  1498.002
 282  1495.307
 283  1484.31
 284  1530.397
 285  1460.837
 286  1402.6
 287  1477.64
 288  1500.592
 289  1528.75
 290  1506.159
 291  1606.564
 292  1629.275
 293  1594.143
 294  1527.6
 295  1617.661
 296  1586.496
 297  1507.182
 298  1520.721
 299  1524.057
 300  1553.07
 301  1602.469
 302  1589.969
 303  1482.987
 304  1472.74
 305  1560.739
 306  1495.039
 307  1524.763
 308  1485.243
 309  1550.782
 310  1547.32
 311  1629.902
 312  1624.502
 313  1591.047
 314  1604.947
 315  1590.481
 316  1479.345
 317  1573.105
 318  1492.318
 319  1571.985
 320  1591.557
 321  1544.329
 322  1373.761
 323  1406.033
 324  1528.592
 325  1590.593
 326  1644.184
 327  1593.074
 328  1529.032
 329  1587.748
 330  1500.13
 331  1529.046
 332  1571.714
 333  1569.566
 334  1545.317
 335  1489.238
 336  1473.265
 337  1440.069
 338  1460.446
 339  1485.125
 340  1421.835
 341  1532.461
 342  1577.968
 343  1594.767
 344  1504.258
 345  1503.038
 346  1511.811
 347  1449.337
 348  1515.62
 349  1529.77
 350  1555.939
 351  1590.912
 352  1615.693
 353  1609.36
 354  1557.024
 355  1540.332
 356  1590.026
 357  1527.947
 358  1444.053
 359  1472.954
 360  1538.758
 361  1450.692
 362  1467.347
 363  1464.134
 364  1444.992
 365  1487.584
 366  1496.74
 367  1498.596
 368  1528.76
 369  1553.888
 370  1576.736
 371  1570.579
 372  1593.404
 373  1514.369
 374  1520.562
 375  1484.645
 376  1494.165
 377  1540.295
 378  1554.5
 379  1564.11
 380  1454.961
 381  1482.076
 382  1500.465
 383  1612.541
 384  1561.455
 385  1535.657
 386  1481.698
 387  1522.611
 388  1549.687
 389  1433.881
 390  1426.32
 391  1483.707
 392  1513.918
 393  1595.579
 394  1484.242
 395  1388.131
 396  1418.703
 397  1449.869
 398  1483.222
 399  1461.538
 400  1557.16
 401  1578.513
 402  1422.424
 403  1537.661
 404  1528.464
 405  1543.396
 406  1477.699
 407  1457.585
 408  1430.639
 409  1466.697
 410  1479.967
 411  1499.148
 412  1437.489
 413  1405.462
 414  1338.753
 415  1527.903
 416  1542.558
 417  1460.327
 418  1407.479
 419  1438.342
 420  1514.714
 421  1505.528
 422  1453.186
 423  1455.838
 424  1633.181
 425  1558.021
 426  1504.337
 427  1503.538
 428  1443.095
 429  1556.842
 430  1650.696
 431  1652.608
 432  1486.508
 433  1365.164
 434  1439.276
 435  1542.725
 436  1557.496
 437  1472.236
 438  1459.504
 439  1479.733
 440  1401.721
 441  1423.294
 442  1518.162
 443  1579.749
 444  1594.132
 445  1629.597
 446  1596.541
 447  1549.816
 448  1584.645
 449  1615.793
 450  1559.431
 451  1574.275
 452  1538.765
 453  1550.37
 454  1571.081
 455  1569.085
 456  1538.144
 457  1488.134
 458  1544.929
 459  1516.45
 460  1607.225
 461  1553.604
 462  1418.3
 463  1503.627
 464  1550.594
 465  1490.581
 466  1507.014
 467  1560.899
 468  1471.736
 469  1413.158
 470  1463.292
 471  1509.204
 472  1498.055
 473  1537.842
 474  1580.352
 475  1602.07
 476  1538.568
 477  1511.679
 478  1508.932
 479  1571.971
 480  1579.492
 481  1582.95
 482  1564.942
 483  1626.922
 484  1584.249
 485  1493.399
 486  1434.085
 487  1477.538
 488  1489.701
 489  1481.051
 490  1389.901
 491  1419.924
 492  1415.068
 493  1445.942
 494  1402.053
 495  1440.564
 496  1417.556
 497  1378.803
 498  1373.669
 499  1525.818
 500  1608.96
 501  1512.243
 502  1458.086
 503  1523.364
 504  1531.97
 505  1581.366
 506  1658.455
 507  1603.393
 508  1615.387
 509  1531.572
 510  1594.353
 511  1628.988
