# Input file       =  1195588322.105109_cleaned.dat
# Candidate        =  PSR_0332+5434
# Telescope        =  AR
# Epoch_topo       =  58081.827593809132
# Epoch_bary       =  N/A
# T_sample         =  0.002
# Data Folded      =  7340032
# Data Avg         =  0.0681863657961874
# Data StdDev      =  1.00022764718781 
# Profile Bins     =  512
# Profile Avg      =  977.498965247232 
# Profile StdDev   =  119.760293265786 
# Reduced chi-sqr  =  0.722
# Prob(Noise)      <  1   (~0.0 sigma)
# P_topo (ms)      =  714.519296734644  +/- 0.000153
# P'_topo (s/s)    =  -0                +/- 8.07e-11
# P''_topo (s/s^2) =  0                 +/- 3.56e-14
# P_bary (ms)      =  N/A
# P'_bary (s/s)    =  N/A
# P''_bary (s/s^2) =  N/A
# P_orb (s)        =  N/A
# asin(i)/c (s)    =  N/A
# eccentricity     =  N/A
# w (rad)          =  N/A
# T_peri           =  N/A
######################################################
   0  1432.093
   1  1445.206
   2  1238.241
   3  1064.764
   4  998.0729
   5  1042.05
   6  985.8069
   7  947.9417
   8  906.4304
   9  857.6675
  10  910.2728
  11  927.5093
  12  983.6397
  13  914.5074
  14  1060.845
  15  1062.577
  16  985.9764
  17  938.4278
  18  968.1833
  19  884.2895
  20  993.0801
  21  1029.199
  22  972.5812
  23  1050.732
  24  993.1684
  25  972.6235
  26  1056.573
  27  953.9127
  28  961.1543
  29  1129.507
  30  1136.302
  31  959.7289
  32  878.9821
  33  956.3023
  34  971.6327
  35  954.7352
  36  953.0169
  37  977.9757
  38  920.9693
  39  986.6646
  40  1015.897
  41  1027.749
  42  1019.314
  43  1120.861
  44  1041.504
  45  920.8513
  46  1022.101
  47  978.8788
  48  1008.615
  49  964.06
  50  1036.938
  51  937.5712
  52  878.6929
  53  969.0155
  54  925.1
  55  985.5853
  56  960.4465
  57  1114.141
  58  1080.048
  59  1047.465
  60  909.4927
  61  873.1077
  62  971.8724
  63  964.1103
  64  885.2661
  65  903.992
  66  952.9169
  67  909.8012
  68  967.4345
  69  1071.163
  70  1085.867
  71  1027.571
  72  953.064
  73  970.4024
  74  951.9579
  75  877.2333
  76  809.3149
  77  901.7507
  78  989.4774
  79  1023.265
  80  1017.963
  81  943.8266
  82  950.9047
  83  980.5954
  84  1042.598
  85  919.8784
  86  930.3459
  87  915.4891
  88  919.3377
  89  922.33
  90  925.4016
  91  985.3323
  92  890.7234
  93  968.026
  94  893.3729
  95  886.9626
  96  943.269
  97  965.1033
  98  980.4337
  99  826.4471
 100  964.7975
 101  962.9792
 102  925.8545
 103  974.1936
 104  939.2023
 105  941.4226
 106  913.5005
 107  1003.538
 108  936.6375
 109  993.5801
 110  976.7327
 111  964.2053
 112  970.4933
 113  904.8275
 114  926.5231
 115  944.8201
 116  974.7032
 117  965.0966
 118  961.931
 119  894.3705
 120  918.4868
 121  950.7001
 122  938.467
 123  1023.672
 124  987.9838
 125  1042.031
 126  1047.882
 127  1025.81
 128  1022.121
 129  1018.216
 130  972.9234
 131  933.8397
 132  966.1947
 133  918.2285
 134  845.1764
 135  846.1516
 136  906.7241
 137  921.328
 138  905.0352
 139  962.9327
 140  899.7759
 141  952.7635
 142  892.1893
 143  977.3842
 144  931.5638
 145  880.4636
 146  862.1821
 147  909.7058
 148  1001.801
 149  938.4531
 150  960.479
 151  891.7582
 152  865.6358
 153  876.5846
 154  972.2208
 155  958.3621
 156  984.1738
 157  922.6553
 158  925.6437
 159  997.092
 160  1025.184
 161  988.9918
 162  944.7533
 163  998.9897
 164  1088.064
 165  1082.748
 166  1045.064
 167  1001.383
 168  981.9841
 169  970.9998
 170  1010.665
 171  1026.055
 172  1085.505
 173  1040.101
 174  962.3013
 175  1031.913
 176  909.0876
 177  860.0751
 178  919.4702
 179  1062.554
 180  1087.967
 181  1081.537
 182  989.03
 183  1035.111
 184  1033.49
 185  1017.482
 186  1101.97
 187  1049.896
 188  1050.222
 189  1004.182
 190  956.2671
 191  944.6465
 192  884.3441
 193  1000.604
 194  1043
 195  1047.156
 196  1010.209
 197  1000.891
 198  942.3
 199  928.8361
 200  978.5634
 201  1102.263
 202  1089.213
 203  1014.018
 204  1085.114
 205  1056.424
 206  1024.362
 207  939.909
 208  969.6013
 209  1031.077
 210  1042.227
 211  1098.128
 212  1035.552
 213  1086.559
 214  999.3647
 215  1011.941
 216  946.4363
 217  963.7511
 218  934.3416
 219  899.2215
 220  950.031
 221  954.6132
 222  980.4646
 223  1016.258
 224  875.4497
 225  965.4947
 226  1050.801
 227  1087.571
 228  941.0523
 229  918.5735
 230  971.1158
 231  1006.341
 232  1081.147
 233  1006.625
 234  945.2209
 235  916.7438
 236  983.988
 237  1037.74
 238  1020.99
 239  970.8961
 240  853.8729
 241  897.1453
 242  940.2237
 243  978.5217
 244  1007.485
 245  1042.566
 246  991.0709
 247  1001.337
 248  1014.379
 249  934.8401
 250  983.9808
 251  1079.008
 252  1072.711
 253  1031.685
 254  1104.334
 255  1007.411
 256  965.3137
 257  847.0035
 258  959.8684
 259  940.0073
 260  1007.394
 261  1113.703
 262  1035.256
 263  1016.187
 264  1029.946
 265  1062.868
 266  1026.142
 267  977.1633
 268  977.4409
 269  939.1767
 270  1007.628
 271  883.764
 272  897.1666
 273  992.8679
 274  927.9568
 275  941.8556
 276  867.8032
 277  941.1151
 278  891.726
 279  1013.945
 280  979.6279
 281  934.819
 282  955.8748
 283  956.6027
 284  969.6034
 285  923.2334
 286  902.4349
 287  1010.601
 288  1074.626
 289  1032.289
 290  962.814
 291  895.7899
 292  882.009
 293  945.3134
 294  959.3848
 295  968.3612
 296  957.0076
 297  950.9485
 298  1002.69
 299  924.1989
 300  905.1852
 301  989.8305
 302  1017.881
 303  1015.016
 304  999.0696
 305  907.7339
 306  882.4057
 307  958.119
 308  1057.829
 309  1113.316
 310  900.1381
 311  961.7205
 312  939.3762
 313  943.7827
 314  905.1626
 315  1013.549
 316  1018.985
 317  1038.281
 318  992.7255
 319  1025.126
 320  1032.531
 321  992.7409
 322  969.813
 323  1034.666
 324  1091.471
 325  1020.297
 326  957.4041
 327  977.5422
 328  1011.092
 329  967.3705
 330  1024.15
 331  1029.404
 332  934.6491
 333  934.395
 334  975.3782
 335  966.0607
 336  1043.165
 337  1093.745
 338  1082.274
 339  934.0515
 340  1012.133
 341  942.2333
 342  867.1699
 343  904.0437
 344  1059.278
 345  1021.538
 346  1062.154
 347  995.6439
 348  931.2377
 349  930.7719
 350  927.5543
 351  952.424
 352  975.2977
 353  967.5515
 354  1078.362
 355  1077.505
 356  1035.059
 357  950.2831
 358  980.4401
 359  996.0649
 360  975.7743
 361  902.4007
 362  892.4302
 363  886.2037
 364  927.3409
 365  941.9179
 366  933.1403
 367  824.9819
 368  858.9894
 369  888.6732
 370  994.8714
 371  1005.464
 372  1018.725
 373  1042.928
 374  985.9065
 375  962.413
 376  943.4084
 377  903.8766
 378  938.965
 379  948.9811
 380  983.3337
 381  968.2858
 382  913.7578
 383  1001.184
 384  886.8084
 385  850.923
 386  878.1042
 387  928.862
 388  955.3538
 389  1002.892
 390  985.0165
 391  907.6366
 392  909.1282
 393  958.0231
 394  986.4971
 395  958.2628
 396  903.6862
 397  961.4548
 398  895.6202
 399  899.9456
 400  928.2535
 401  1023.283
 402  994.6909
 403  929.4636
 404  971.4001
 405  981.6634
 406  1004.015
 407  900.4635
 408  937.1788
 409  1007.395
 410  1017.413
 411  1036.473
 412  1044.561
 413  1063.954
 414  979.5951
 415  1037.67
 416  1008.599
 417  973.9556
 418  996.2126
 419  963.957
 420  959.2517
 421  953.6539
 422  1025.458
 423  955.1454
 424  917.9078
 425  880.0237
 426  1013.942
 427  934.2642
 428  879.1479
 429  860.59
 430  905.8046
 431  998.0035
 432  981.8005
 433  931.9332
 434  851.4789
 435  821.0986
 436  824.5012
 437  916.1348
 438  807.3976
 439  802.9595
 440  860.5365
 441  875.8009
 442  944.3253
 443  963.4079
 444  900.7048
 445  961.4333
 446  1013.386
 447  1101.007
 448  1040.4
 449  1017.421
 450  1045.961
 451  1139.449
 452  1098.494
 453  1039.187
 454  979.2787
 455  1018.817
 456  1018.412
 457  1018.31
 458  972.0103
 459  997.8732
 460  910.1638
 461  977.974
 462  1031.544
 463  1036.073
 464  978.3878
 465  951.3041
 466  1028.867
 467  1030.888
 468  886.6238
 469  1035.693
 470  1116.789
 471  1007.43
 472  925.402
 473  817.7034
 474  935.3021
 475  971.6897
 476  1044.602
 477  945.0016
 478  963.399
 479  990.3768
 480  1017.123
 481  990.8593
 482  936.935
 483  952.3306
 484  976.0278
 485  946.6608
 486  850.8095
 487  972.747
 488  870.8427
 489  885.6732
 490  960.3797
 491  998.5256
 492  966.9446
 493  991.9844
 494  1072.318
 495  1014.444
 496  1007.338
 497  993.5149
 498  1050.529
 499  961.2559
 500  886.5242
 501  880.192
 502  917.0343
 503  1066.604
 504  1097.394
 505  1044.614
 506  1124.669
 507  1040.342
 508  1139.164
 509  1201.022
 510  1287.206
 511  1282.897
