# Input file       =  1195846833.110793_cleaned.dat
# Candidate        =  PSR_0332+5434
# Telescope        =  AR
# Epoch_topo       =  58084.819619337883
# Epoch_bary       =  N/A
# T_sample         =  0.002
# Data Folded      =  7340032
# Data Avg         =  0.106154376804126
# Data StdDev      =  1.00048223492046 
# Profile Bins     =  512
# Profile Avg      =  1521.86925507105 
# Profile StdDev   =  119.79077582804  
# Reduced chi-sqr  =  0.591
# Prob(Noise)      <  1   (~0.0 sigma)
# P_topo (ms)      =  714.522398399394  +/- 0.000243
# P'_topo (s/s)    =  -0                +/- 1.28e-10
# P''_topo (s/s^2) =  0                 +/- 5.66e-14
# P_bary (ms)      =  N/A
# P'_bary (s/s)    =  N/A
# P''_bary (s/s^2) =  N/A
# P_orb (s)        =  N/A
# asin(i)/c (s)    =  N/A
# eccentricity     =  N/A
# w (rad)          =  N/A
# T_peri           =  N/A
######################################################
   0  1729.394
   1  1667.718
   2  1582.196
   3  1492.758
   4  1484.789
   5  1562.457
   6  1577.659
   7  1616.256
   8  1620.668
   9  1601.557
  10  1588.379
  11  1644.832
  12  1567.009
  13  1435.436
  14  1421.517
  15  1502.999
  16  1467.208
  17  1434.119
  18  1395.405
  19  1468.641
  20  1482.389
  21  1369.573
  22  1445.526
  23  1459.747
  24  1499.984
  25  1421.798
  26  1457.151
  27  1536.586
  28  1428.573
  29  1446.491
  30  1432.911
  31  1435.83
  32  1429.683
  33  1416.972
  34  1414.566
  35  1301.801
  36  1421.451
  37  1438.405
  38  1506.068
  39  1418.046
  40  1450.995
  41  1547.963
  42  1486.361
  43  1497.307
  44  1406.892
  45  1460.333
  46  1487.333
  47  1453.617
  48  1527.181
  49  1467.777
  50  1464.185
  51  1488.954
  52  1465.129
  53  1468.449
  54  1430.217
  55  1478.906
  56  1516.752
  57  1436.142
  58  1528.201
  59  1539.098
  60  1462.45
  61  1406.008
  62  1429.781
  63  1468.723
  64  1557.44
  65  1621.292
  66  1576.418
  67  1594.876
  68  1569.064
  69  1584.217
  70  1519.713
  71  1499.732
  72  1553.254
  73  1507.957
  74  1438.102
  75  1518.038
  76  1484.943
  77  1536.192
  78  1454.804
  79  1564.609
  80  1553.455
  81  1528.228
  82  1517.778
  83  1543.657
  84  1527.057
  85  1504.446
  86  1577.996
  87  1596.031
  88  1627.711
  89  1593.079
  90  1478.265
  91  1616.707
  92  1517.958
  93  1356.49
  94  1418.13
  95  1519.817
  96  1494.696
  97  1435.312
  98  1498.269
  99  1541.549
 100  1492.079
 101  1528.784
 102  1533.474
 103  1539.273
 104  1587.803
 105  1593.725
 106  1530.881
 107  1472.676
 108  1561.707
 109  1470.557
 110  1452.255
 111  1552.258
 112  1545.454
 113  1552.385
 114  1484.169
 115  1522.786
 116  1526.263
 117  1481.782
 118  1558.142
 119  1578.926
 120  1611.626
 121  1481.494
 122  1476.271
 123  1519.779
 124  1467.214
 125  1463.604
 126  1486.209
 127  1482.795
 128  1542.871
 129  1476.942
 130  1488.155
 131  1473.577
 132  1524.069
 133  1502.389
 134  1453.449
 135  1443.377
 136  1457.656
 137  1507.422
 138  1511.618
 139  1621.983
 140  1627.473
 141  1562.584
 142  1590.016
 143  1502.057
 144  1508.487
 145  1461.884
 146  1527.594
 147  1568.161
 148  1543.131
 149  1489.104
 150  1415.755
 151  1450.044
 152  1461.998
 153  1520.752
 154  1462.362
 155  1535.416
 156  1530.104
 157  1495.608
 158  1513.046
 159  1577.803
 160  1531.485
 161  1485.268
 162  1523.025
 163  1559.152
 164  1484.676
 165  1415.786
 166  1519.733
 167  1684.843
 168  1661.807
 169  1656.616
 170  1610.004
 171  1564.11
 172  1544.968
 173  1538.628
 174  1629.843
 175  1671.44
 176  1651.775
 177  1601.688
 178  1488.159
 179  1452.511
 180  1555.089
 181  1559.276
 182  1571.127
 183  1607.758
 184  1512.584
 185  1489.583
 186  1438.638
 187  1589.13
 188  1611.574
 189  1530.927
 190  1502.575
 191  1527.481
 192  1520.118
 193  1505.949
 194  1454.436
 195  1597.174
 196  1635.76
 197  1646.058
 198  1550.427
 199  1517.134
 200  1529.841
 201  1613.608
 202  1610.62
 203  1578.691
 204  1576.605
 205  1516.562
 206  1509.587
 207  1464.733
 208  1505.866
 209  1422.74
 210  1493.176
 211  1568.663
 212  1580.128
 213  1534.91
 214  1496.164
 215  1535.339
 216  1610
 217  1481.668
 218  1501.25
 219  1541.09
 220  1624.246
 221  1562.215
 222  1502.296
 223  1555.067
 224  1598.205
 225  1538.151
 226  1529.669
 227  1541.65
 228  1645.731
 229  1597.191
 230  1588.763
 231  1565.626
 232  1532.411
 233  1496.759
 234  1569.858
 235  1548.514
 236  1560.186
 237  1580.055
 238  1591.267
 239  1620.86
 240  1591.12
 241  1557.758
 242  1546.623
 243  1565.778
 244  1441.789
 245  1354.386
 246  1413.548
 247  1561.581
 248  1553.006
 249  1542.566
 250  1455.584
 251  1508.779
 252  1559.691
 253  1473.851
 254  1492.101
 255  1590.692
 256  1628.954
 257  1557.653
 258  1562.483
 259  1554.381
 260  1471.678
 261  1477.606
 262  1551.415
 263  1582.52
 264  1468.158
 265  1484.885
 266  1606.02
 267  1680.011
 268  1589.677
 269  1667.12
 270  1692.583
 271  1601.014
 272  1625.64
 273  1544.786
 274  1374.825
 275  1463.586
 276  1616.811
 277  1595.745
 278  1593.889
 279  1492.468
 280  1509.085
 281  1498.651
 282  1479.812
 283  1498.399
 284  1505.582
 285  1414.115
 286  1454.212
 287  1488.605
 288  1527.201
 289  1487.749
 290  1578.273
 291  1621.322
 292  1629.266
 293  1524.711
 294  1586.144
 295  1615.259
 296  1537.265
 297  1493.475
 298  1539.74
 299  1527.723
 300  1590.792
 301  1598.213
 302  1536.057
 303  1448.516
 304  1539.654
 305  1516.937
 306  1514.956
 307  1502.129
 308  1528.185
 309  1544.143
 310  1590.389
 311  1645.564
 312  1596.529
 313  1587.264
 314  1621.676
 315  1502.764
 316  1544.29
 317  1531.956
 318  1508.397
 319  1609.876
 320  1559.907
 321  1474.961
 322  1346.904
 323  1487.995
 324  1571.834
 325  1614.039
 326  1642.213
 327  1521.765
 328  1572.996
 329  1559.332
 330  1485.741
 331  1568.822
 332  1552.812
 333  1588.404
 334  1491.418
 335  1491.988
 336  1441.945
 337  1451.401
 338  1495.383
 339  1426.001
 340  1481.351
 341  1559.07
 342  1610.202
 343  1535.754
 344  1487.487
 345  1527.498
 346  1471.812
 347  1474.976
 348  1525.236
 349  1540.721
 350  1578.728
 351  1618.457
 352  1600.83
 353  1601.145
 354  1518.657
 355  1579.024
 356  1568.169
 357  1464.187
 358  1460.486
 359  1518.009
 360  1504.356
 361  1429.463
 362  1483.329
 363  1438.917
 364  1477.629
 365  1492.399
 366  1488.607
 367  1518.512
 368  1553.079
 369  1569.188
 370  1569.156
 371  1575.886
 372  1573.695
 373  1491.204
 374  1518.856
 375  1466.631
 376  1538.034
 377  1537.791
 378  1571.361
 379  1491.074
 380  1473.064
 381  1487.797
 382  1571.483
 383  1575.434
 384  1560.661
 385  1495.928
 386  1497.513
 387  1551.806
 388  1491.559
 389  1403.583
 390  1476.201
 391  1486.895
 392  1570.395
 393  1549.151
 394  1417.417
 395  1391.382
 396  1439.387
 397  1474.683
 398  1473.161
 399  1497.482
 400  1611.426
 401  1460.307
 402  1481.115
 403  1540.963
 404  1536.684
 405  1510.038
 406  1481.439
 407  1422.722
 408  1461.774
 409  1452.912
 410  1508.291
 411  1474.587
 412  1426.34
 413  1354.303
 414  1412.184
 415  1586.435
 416  1471.031
 417  1433.471
 418  1407.219
 419  1501.827
 420  1511.832
 421  1494.904
 422  1402.338
 423  1571.538
 424  1619.753
 425  1503.923
 426  1512.808
 427  1460.5
 428  1497.36
 429  1623.627
 430  1662.078
 431  1576.002
 432  1396.707
 433  1393.843
 434  1487.64
 435  1590.667
 436  1490.23
 437  1476.96
 438  1446.125
 439  1454.671
 440  1386.705
 441  1480.635
 442  1570.713
 443  1575.051
 444  1632.256
 445  1607.586
 446  1574.489
 447  1542.928
 448  1623.692
 449  1592.579
 450  1566.02
 451  1552.571
 452  1525.554
 453  1572.624
 454  1577.344
 455  1557.005
 456  1494.226
 457  1516.383
 458  1542.534
 459  1554.629
 460  1618.572
 461  1440.72
 462  1462.227
 463  1543.987
 464  1522.014
 465  1473.094
 466  1550.37
 467  1524.452
 468  1432.996
 469  1417.206
 470  1525.1
 471  1478.987
 472  1530.286
 473  1537.058
 474  1617.117
 475  1558.732
 476  1534.337
 477  1485.878
 478  1562.221
 479  1572.382
 480  1592.508
 481  1559.153
 482  1603.754
 483  1616.641
 484  1530.011
 485  1455.037
 486  1447.499
 487  1498.523
 488  1482.002
 489  1432.42
 490  1393.916
 491  1426.368
 492  1431.663
 493  1429.676
 494  1413.902
 495  1438.668
 496  1393.079
 497  1360.339
 498  1438.682
 499  1599.891
 500  1563.561
 501  1474.324
 502  1478.772
 503  1550.788
 504  1527.17
 505  1660.965
 506  1616.285
 507  1611.378
 508  1566.488
 509  1544.498
 510  1642.702
 511  1624.993
