# Input file       =  1195573752.099748_cleaned.dat
# Candidate        =  PSR_0332+5434
# Telescope        =  AR
# Epoch_topo       =  58081.658959487824
# Epoch_bary       =  N/A
# T_sample         =  0.002
# Data Folded      =  7143424
# Data Avg         =  0.051912043459774
# Data StdDev      =  1.00021519998701 
# Profile Bins     =  512
# Profile Avg      =  724.291854582954 
# Profile StdDev   =  118.144003599713 
# Reduced chi-sqr  =  0.567
# Prob(Noise)      <  1   (~0.0 sigma)
# P_topo (ms)      =  714.519098987485  +/- 6.67e-05
# P'_topo (s/s)    =  -0                +/- 3.62e-11
# P''_topo (s/s^2) =  0                 +/- 1.64e-14
# P_bary (ms)      =  N/A
# P'_bary (s/s)    =  N/A
# P''_bary (s/s^2) =  N/A
# P_orb (s)        =  N/A
# asin(i)/c (s)    =  N/A
# eccentricity     =  N/A
# w (rad)          =  N/A
# T_peri           =  N/A
######################################################
   0  957.4164
   1  920.7245
   2  866.0193
   3  738.3553
   4  688.1227
   5  697.4325
   6  730.3624
   7  697.4912
   8  686.4263
   9  766.259
  10  801.6133
  11  708.2468
  12  727.0995
  13  725.2018
  14  680.1793
  15  722.5312
  16  806.6702
  17  780.5931
  18  707.1496
  19  711.8146
  20  684.7183
  21  744.2565
  22  768.3737
  23  771.1894
  24  815.2305
  25  807.275
  26  713.8523
  27  676.7133
  28  713.2398
  29  649.5901
  30  691.9178
  31  748.6882
  32  718.2856
  33  784.587
  34  739.8556
  35  753.252
  36  737.5939
  37  783.3827
  38  773.9075
  39  614.2151
  40  648.5101
  41  688.2809
  42  710.5286
  43  610.4425
  44  679.3865
  45  771.3567
  46  778.9344
  47  757.4005
  48  739.1401
  49  733.9909
  50  731.4749
  51  697.3406
  52  796.5128
  53  768.6783
  54  757.6033
  55  814.1454
  56  829.592
  57  757.196
  58  677.084
  59  723.4153
  60  722.6083
  61  799.9918
  62  872.2156
  63  849.3187
  64  753.3629
  65  736.9913
  66  815.0668
  67  749.7477
  68  687.0657
  69  661.6204
  70  753.5207
  71  775.3547
  72  758.4208
  73  693.0065
  74  722.6089
  75  684.5856
  76  675.5404
  77  746.7332
  78  680.6687
  79  649.074
  80  698.3552
  81  780.9633
  82  741.8765
  83  627.9809
  84  681.6134
  85  623.1297
  86  598.5894
  87  617.8499
  88  714.1923
  89  795.0527
  90  773.976
  91  702.1483
  92  641.1298
  93  668.679
  94  688.9531
  95  766.2742
  96  706.6172
  97  728.0129
  98  790.4638
  99  736.6411
 100  678.1887
 101  656.3276
 102  698.4877
 103  726.3806
 104  706.5392
 105  759.964
 106  869.894
 107  874.074
 108  814.2428
 109  772.1093
 110  742.3567
 111  757.1559
 112  740.5127
 113  755.6295
 114  772.0027
 115  587.1793
 116  569.3019
 117  628.4727
 118  658.6332
 119  758.5057
 120  728.0894
 121  731.6661
 122  697.2065
 123  717.571
 124  792.2545
 125  674.9112
 126  685.984
 127  708.2866
 128  674.1885
 129  722.1041
 130  779.1705
 131  700.8903
 132  678.2975
 133  705.2279
 134  687.7131
 135  623.6978
 136  706.8842
 137  708.4291
 138  708.482
 139  773.034
 140  704.8027
 141  712.9166
 142  644.2295
 143  704.7593
 144  703.111
 145  680.111
 146  771.4302
 147  780.765
 148  818.278
 149  648.1925
 150  582.7056
 151  685.0247
 152  774.3004
 153  787.0761
 154  761.8934
 155  776.1071
 156  787.604
 157  699.5271
 158  725.5856
 159  731.2084
 160  787.7901
 161  743.5555
 162  774.8194
 163  685.3296
 164  704.3913
 165  697.3409
 166  802.4633
 167  870.48
 168  728.3914
 169  633.7985
 170  633.467
 171  656.3101
 172  696.4529
 173  658.7299
 174  653.2827
 175  637.692
 176  662.6696
 177  697.3698
 178  680.7753
 179  691.2793
 180  747.3414
 181  769.9475
 182  648.938
 183  530.225
 184  600.2592
 185  649.7935
 186  715.7172
 187  681.139
 188  657.9271
 189  697.9659
 190  723.8854
 191  674.4589
 192  655.2128
 193  767.2379
 194  783.9154
 195  796.0453
 196  792.6055
 197  698.2702
 198  715.4092
 199  717.6365
 200  680.9206
 201  751.5806
 202  704.3038
 203  770.0746
 204  802.2783
 205  750.2689
 206  809.1577
 207  698.2867
 208  818.6389
 209  817.994
 210  846.4645
 211  791.8513
 212  791.3871
 213  751.5269
 214  705.5497
 215  773.449
 216  732.0612
 217  749.1098
 218  801.7253
 219  829.9552
 220  733.6549
 221  656.5139
 222  659.0921
 223  657.1509
 224  721.8159
 225  692.0809
 226  658.0673
 227  769.4289
 228  714.5112
 229  652.3953
 230  604.8748
 231  692.8655
 232  749.2613
 233  727.7239
 234  790.0801
 235  752.5367
 236  727.5791
 237  748.5189
 238  733.2003
 239  726.0931
 240  697.4637
 241  666.3213
 242  787.1473
 243  805.6675
 244  703.7493
 245  629.9672
 246  756.9581
 247  847.9297
 248  877.125
 249  848.4771
 250  744.5128
 251  677.6431
 252  678.7827
 253  720.4976
 254  675.5909
 255  717.0323
 256  811.6184
 257  795.238
 258  725.7669
 259  768.4771
 260  756.4254
 261  722.7645
 262  703.706
 263  765.1318
 264  794.8586
 265  710.6866
 266  721.837
 267  748.158
 268  712.8412
 269  694.9368
 270  677.6194
 271  756.1319
 272  747.5935
 273  757.8992
 274  700.752
 275  698.9607
 276  657.2015
 277  712.567
 278  697.7815
 279  677.1296
 280  810.5983
 281  801.0396
 282  714.3116
 283  552.6724
 284  633.0505
 285  752.9611
 286  713.3621
 287  664.662
 288  681.8792
 289  614.8643
 290  676.4756
 291  745.1468
 292  709.1509
 293  707.6367
 294  745.0221
 295  629.5704
 296  641.5046
 297  628.2875
 298  696.4701
 299  734.2816
 300  728.0898
 301  742.7778
 302  649.2177
 303  624.0456
 304  689.0595
 305  697.8871
 306  716.0616
 307  681.394
 308  743.2227
 309  792.812
 310  826.0696
 311  778.7457
 312  670.3066
 313  698.4915
 314  772.519
 315  808.0236
 316  742.3171
 317  678.3362
 318  677.3384
 319  667.4946
 320  733.2188
 321  758.8613
 322  745.68
 323  801.1653
 324  848.9039
 325  821.0508
 326  786.8112
 327  721.3705
 328  699.0038
 329  674.0875
 330  701.1619
 331  650.0221
 332  633.5939
 333  715.4398
 334  620.2298
 335  628.0521
 336  630.1003
 337  767.7735
 338  750.246
 339  718.5814
 340  729.4007
 341  751.5239
 342  780.5979
 343  768.4904
 344  747.2381
 345  755.7295
 346  706.2039
 347  767.0269
 348  781.3397
 349  812.9244
 350  735.1008
 351  717.3503
 352  679.8282
 353  669.959
 354  681.8961
 355  691.9322
 356  704.887
 357  691.7251
 358  750.621
 359  747.4327
 360  755.7894
 361  744.605
 362  743.7879
 363  738.6106
 364  689.6285
 365  715.0651
 366  796.4543
 367  819.9617
 368  792.3663
 369  701.6036
 370  669.1575
 371  734.1968
 372  693.5375
 373  613.9944
 374  672.4075
 375  739.2777
 376  813.1647
 377  729.2225
 378  629.6074
 379  635.0449
 380  642.892
 381  736.2451
 382  773.4158
 383  715.642
 384  716.1084
 385  722.2618
 386  665.1762
 387  608.2446
 388  604.9919
 389  575.505
 390  629.9987
 391  738.0879
 392  759.8604
 393  746.7786
 394  787.4654
 395  809.7878
 396  760.7701
 397  768.0615
 398  759.0414
 399  799.1019
 400  757.3051
 401  686.3907
 402  758.8297
 403  751.2331
 404  769.3267
 405  764.3837
 406  768.6666
 407  760.8794
 408  728.4976
 409  765.3303
 410  808.7066
 411  689.1102
 412  632.0726
 413  593.1703
 414  733.1628
 415  728.3239
 416  757.1099
 417  755.4461
 418  817.5106
 419  812.0098
 420  801.6241
 421  754.5414
 422  582.7158
 423  692.6409
 424  794.7026
 425  819.5372
 426  708.7997
 427  639.4602
 428  706.8419
 429  697.9565
 430  828.0087
 431  772.2894
 432  649.5359
 433  663.6692
 434  623.2526
 435  645.47
 436  660.4063
 437  658.9487
 438  755.3576
 439  783.1733
 440  790.3771
 441  743.4923
 442  764.0162
 443  762.6606
 444  731.1161
 445  703.6115
 446  695.4832
 447  694.7698
 448  790.4155
 449  907.6083
 450  836.8309
 451  656.5498
 452  662.202
 453  709.632
 454  777.2421
 455  729.9752
 456  676.585
 457  722.8538
 458  656.1285
 459  689.4407
 460  605.266
 461  629.1225
 462  672.9846
 463  615.2064
 464  633.9099
 465  668.2421
 466  695.8868
 467  763.5673
 468  728.767
 469  689.5159
 470  558.0432
 471  657.1821
 472  681.8126
 473  634.8505
 474  703.2202
 475  714.7191
 476  772.3284
 477  713.9336
 478  751.8553
 479  719.7744
 480  680.8862
 481  656.3409
 482  740.8744
 483  724.8323
 484  642.2126
 485  675.7529
 486  626.0857
 487  556.2498
 488  652.1784
 489  645.9799
 490  797.3708
 491  808.3513
 492  767.5753
 493  771.7629
 494  699.2235
 495  721.4261
 496  731.7468
 497  757.0394
 498  688.6152
 499  696.651
 500  725.6568
 501  785.7744
 502  878.9866
 503  746.5383
 504  614.9346
 505  713.562
 506  846.4481
 507  874.7212
 508  838.3835
 509  856.952
 510  888.9825
 511  1001.299
