# Input file       =  1195142387.113752_cleaned.dat
# Candidate        =  PSR_0332+5434
# Telescope        =  AR
# Epoch_topo       =  58076.666309186941
# Epoch_bary       =  N/A
# T_sample         =  0.002
# Data Folded      =  7143424
# Data Avg         =  0.0649630166856422
# Data StdDev      =  1.00026028951031 
# Profile Bins     =  512
# Profile Avg      =  906.355121113321 
# Profile StdDev   =  118.149329510381 
# Reduced chi-sqr  =  0.534
# Prob(Noise)      <  1   (~0.0 sigma)
# P_topo (ms)      =  714.513945503363  +/- 0.000132
# P'_topo (s/s)    =  -0                +/- 7.17e-11
# P''_topo (s/s^2) =  0                 +/- 3.25e-14
# P_bary (ms)      =  N/A
# P'_bary (s/s)    =  N/A
# P''_bary (s/s^2) =  N/A
# P_orb (s)        =  N/A
# asin(i)/c (s)    =  N/A
# eccentricity     =  N/A
# w (rad)          =  N/A
# T_peri           =  N/A
######################################################
   0  1033.595
   1  1050.949
   2  1055.055
   3  1047.453
   4  982.4007
   5  941.0675
   6  910.2694
   7  912.8314
   8  889.7346
   9  906.8881
  10  945.3674
  11  935.7275
  12  965.165
  13  849.8036
  14  875.2276
  15  933.3079
  16  929.7681
  17  932.9217
  18  903.7715
  19  873.9357
  20  856.8062
  21  911.4145
  22  910.7656
  23  957.23
  24  862.0353
  25  907.4395
  26  856.5546
  27  903.2365
  28  904.4617
  29  942.8323
  30  975.9181
  31  881.4854
  32  827.9958
  33  867.4646
  34  853.6413
  35  922.2855
  36  963.4022
  37  989.2282
  38  904.4861
  39  908.2171
  40  781.4633
  41  834.2534
  42  815.1185
  43  859.7095
  44  918.1627
  45  934.4316
  46  907.5303
  47  827.3834
  48  920.9808
  49  900.031
  50  997.0069
  51  944.3448
  52  923.3001
  53  985.9342
  54  974.5761
  55  1004.015
  56  956.4111
  57  978.6937
  58  984.5005
  59  908.0515
  60  924.7693
  61  925.7211
  62  931.7786
  63  930.0538
  64  873.1264
  65  758.1671
  66  803.9045
  67  837.1639
  68  943.3279
  69  921.5352
  70  951.9917
  71  985.3479
  72  918.4244
  73  940.0727
  74  940.0623
  75  935.8392
  76  885.8833
  77  872.5678
  78  880.514
  79  906.6462
  80  874.3362
  81  759.8133
  82  751.2113
  83  841.0242
  84  932.0471
  85  970.9632
  86  943.5239
  87  958.3708
  88  935.6635
  89  871.7963
  90  857.3594
  91  834.2045
  92  906.2017
  93  965.307
  94  933.0369
  95  942.3432
  96  957.8292
  97  968.6995
  98  907.0698
  99  916.1091
 100  1005.169
 101  972.0784
 102  971.184
 103  1048.243
 104  977.2921
 105  969.7202
 106  937.8851
 107  941.3926
 108  988.9531
 109  1053.782
 110  943.0186
 111  916.9397
 112  859.025
 113  836.6994
 114  835.1208
 115  873.2211
 116  936.9614
 117  942.6805
 118  1009.45
 119  951.9761
 120  948.6347
 121  964.9906
 122  1008.215
 123  944.8534
 124  883.6931
 125  909.1612
 126  946.1917
 127  895.3278
 128  877.1399
 129  967.9193
 130  956.2679
 131  899.1368
 132  906.5146
 133  972.5729
 134  942.4774
 135  892.3766
 136  864.0673
 137  920.0149
 138  930.2372
 139  853.8685
 140  847.7885
 141  830.2332
 142  840.6977
 143  893.528
 144  882.1523
 145  942.4153
 146  905.7335
 147  909.0716
 148  842.5822
 149  826.9725
 150  923.9777
 151  919.9984
 152  1011.486
 153  989.7927
 154  959.7866
 155  945.7898
 156  960.4023
 157  912.6529
 158  871.6746
 159  882.4626
 160  857.8199
 161  836.075
 162  861.3758
 163  869.8942
 164  762.4361
 165  913.8196
 166  990.4081
 167  952.1309
 168  898.0259
 169  921.7494
 170  905.64
 171  804.5097
 172  812.6818
 173  807.5959
 174  847.7257
 175  864.3298
 176  883.8497
 177  960.4504
 178  889.3453
 179  868.4567
 180  904.6809
 181  942.636
 182  904.11
 183  822.4337
 184  836.6077
 185  874.0406
 186  932.494
 187  949.2161
 188  893.1122
 189  839.3958
 190  788.9933
 191  832.0759
 192  854.3994
 193  960.8601
 194  943.4758
 195  998.8395
 196  990.626
 197  971.4514
 198  914.4757
 199  872.1663
 200  1016.142
 201  890.0732
 202  886.0471
 203  884.7036
 204  895.3177
 205  880.6796
 206  938.9409
 207  977.5125
 208  859.8978
 209  907.8994
 210  914.8785
 211  1021.661
 212  1039.859
 213  1032.444
 214  1012.959
 215  959.9937
 216  915.5212
 217  861.9735
 218  825.0533
 219  829.3135
 220  921.6032
 221  920.6317
 222  868.5433
 223  912.7247
 224  895.4816
 225  924.2736
 226  916.665
 227  917.3788
 228  943.6054
 229  956.1818
 230  872.1732
 231  827.6492
 232  811.584
 233  808.8327
 234  922.6635
 235  878.4971
 236  949.6558
 237  915.86
 238  941.9117
 239  916.7507
 240  877.3146
 241  862.6047
 242  860.5573
 243  959.0081
 244  927.5971
 245  953.1798
 246  969.0101
 247  952.4606
 248  906.0746
 249  900.5543
 250  928.7565
 251  945.637
 252  1002.014
 253  1019.771
 254  918.8871
 255  916.545
 256  905.8607
 257  840.2129
 258  847.5774
 259  897.3522
 260  926.6338
 261  903.1229
 262  1024.531
 263  1000.94
 264  927.0461
 265  1002.208
 266  963.5634
 267  1011.014
 268  937.4959
 269  989.9247
 270  994.3411
 271  857.3301
 272  940.796
 273  955.527
 274  943.2645
 275  1011.189
 276  995.9106
 277  923.9463
 278  810.7975
 279  883.8843
 280  905.1068
 281  971.5944
 282  1015.197
 283  1012.661
 284  933.8575
 285  893.5208
 286  933.063
 287  926.1583
 288  923.5167
 289  887.7203
 290  838.3457
 291  850.126
 292  911.9363
 293  910.0455
 294  838.8529
 295  878.3986
 296  877.2639
 297  963.7365
 298  851.6143
 299  835.5134
 300  929.5173
 301  923.3599
 302  915.3064
 303  801.9252
 304  855.4262
 305  831.8865
 306  828.501
 307  786.9341
 308  772.3223
 309  842.6313
 310  853.6033
 311  898.2961
 312  954.6323
 313  947.5663
 314  966.6608
 315  1016.015
 316  983.4794
 317  977.0598
 318  996.3011
 319  895.7729
 320  866.0952
 321  804.1816
 322  898.9637
 323  877.8238
 324  860.8642
 325  906.9811
 326  931.9631
 327  960.3604
 328  799.9652
 329  776.6008
 330  765.3219
 331  866.968
 332  929.6981
 333  959.5277
 334  934.6548
 335  906.884
 336  904.6858
 337  889.6942
 338  942.9522
 339  1011.524
 340  1027.938
 341  972.0016
 342  906.6609
 343  863.6799
 344  835.9829
 345  874.739
 346  869.348
 347  1018.875
 348  1056.215
 349  978.716
 350  856.9467
 351  850.8996
 352  881.1174
 353  898.5988
 354  1008.419
 355  948.695
 356  853.4692
 357  791.3424
 358  905.8178
 359  852.3938
 360  792.5683
 361  899.1688
 362  838.6193
 363  888.5669
 364  853.5231
 365  873.0569
 366  851.176
 367  912.2935
 368  905.626
 369  887.0171
 370  870.6376
 371  788.9557
 372  879.264
 373  910.8383
 374  843.3038
 375  847.6357
 376  920.9261
 377  893.9438
 378  812.4502
 379  844.5246
 380  882.985
 381  894.6855
 382  894.8393
 383  939.9258
 384  972.8721
 385  946.5881
 386  1018.746
 387  944.6864
 388  887.1981
 389  977.8718
 390  955.533
 391  963.8472
 392  961.7653
 393  920.3405
 394  843.1602
 395  873.0516
 396  917.1436
 397  971.0588
 398  931.8506
 399  867.882
 400  856.5785
 401  921.3469
 402  990.5201
 403  918.0657
 404  895.3331
 405  911.7983
 406  895.3419
 407  758.8771
 408  759.0776
 409  839.9727
 410  934.8597
 411  871.476
 412  832.5582
 413  903.6502
 414  822.6097
 415  924.3318
 416  857.4249
 417  896.3561
 418  908.1901
 419  880.8074
 420  885.0361
 421  887.8546
 422  886.9783
 423  869.7357
 424  907.2313
 425  881.4619
 426  824.9579
 427  861.2945
 428  810.6338
 429  900.8836
 430  998.4932
 431  1039.083
 432  1019.788
 433  972.5333
 434  925.0413
 435  950.9263
 436  941.7271
 437  927.5078
 438  908.669
 439  910.6884
 440  911.2545
 441  906.9655
 442  884.8056
 443  878.6828
 444  925.533
 445  882.9016
 446  795.5268
 447  914.6733
 448  871.2961
 449  941.2891
 450  853.9247
 451  832.7205
 452  851.7442
 453  865.4835
 454  829.9139
 455  803.0862
 456  871.4097
 457  860.6555
 458  792.4639
 459  748.8137
 460  808.4276
 461  822.9709
 462  880.3535
 463  881.8446
 464  828.4525
 465  851.9584
 466  842.2023
 467  879.72
 468  885.6246
 469  914.8374
 470  931.9397
 471  872.5046
 472  854.1668
 473  880.3251
 474  923.0932
 475  862.9248
 476  951.3464
 477  902.977
 478  732.7252
 479  784.3629
 480  772.8296
 481  844.5219
 482  847.667
 483  978.7052
 484  962.1583
 485  864.7356
 486  927.0561
 487  863.9996
 488  835.036
 489  857.9719
 490  868.3664
 491  779.4401
 492  828.1697
 493  771.3533
 494  782.2502
 495  816.4784
 496  826.0978
 497  896.7665
 498  962.1879
 499  988.4213
 500  893.9723
 501  930.2514
 502  888.0329
 503  924.709
 504  965.7779
 505  946.5453
 506  996.4111
 507  1016.779
 508  1034.587
 509  1103.183
 510  1060.993
 511  1061.759
