# Input file       =  1195171863.10669_cleaned.dat
# Candidate        =  PSR_0332+5434
# Telescope        =  AR
# Epoch_topo       =  58077.007466512616
# Epoch_bary       =  N/A
# T_sample         =  0.002
# Data Folded      =  7340032
# Data Avg         =  0.0538775324022636
# Data StdDev      =  1.00018415710507 
# Profile Bins     =  512
# Profile Avg      =  772.388848376545 
# Profile StdDev   =  119.755086066126 
# Reduced chi-sqr  =  0.606
# Prob(Noise)      <  1   (~0.0 sigma)
# P_topo (ms)      =  714.514636530304  +/- 3.04e-05
# P'_topo (s/s)    =  -0                +/- 1.61e-11
# P''_topo (s/s^2) =  0                 +/- 7.09e-15
# P_bary (ms)      =  N/A
# P'_bary (s/s)    =  N/A
# P''_bary (s/s^2) =  N/A
# P_orb (s)        =  N/A
# asin(i)/c (s)    =  N/A
# eccentricity     =  N/A
# w (rad)          =  N/A
# T_peri           =  N/A
######################################################
   0  993.79
   1  888.0249
   2  797.5859
   3  790.6694
   4  804.7875
   5  737.6467
   6  763.0045
   7  818.6552
   8  785.7199
   9  786.9335
  10  885.4641
  11  929.5627
  12  901.6434
  13  882.59
  14  877.1298
  15  873.1035
  16  847.2062
  17  890.2324
  18  888.3678
  19  834.8504
  20  834.1646
  21  797.6558
  22  836.9628
  23  794.0813
  24  730.7762
  25  761.2955
  26  850.5604
  27  769.9484
  28  731.0704
  29  808.0526
  30  709.2734
  31  693.7617
  32  771.1819
  33  844.3076
  34  843.6348
  35  818.9295
  36  819.6717
  37  694.8661
  38  681.9371
  39  861.4577
  40  790.7952
  41  743.5372
  42  760.233
  43  846.2086
  44  828.1781
  45  707.2283
  46  735.4795
  47  703.2058
  48  638.7339
  49  779.5836
  50  801.7104
  51  688.7064
  52  642.7686
  53  695.6769
  54  763.0349
  55  689.2953
  56  811.3781
  57  863.9142
  58  867.943
  59  816.3199
  60  743.8544
  61  803.8942
  62  780.13
  63  700.2106
  64  765.3297
  65  839.9992
  66  809.4189
  67  699.0266
  68  817.859
  69  804.5588
  70  631.5661
  71  718.5281
  72  776.0754
  73  757.4996
  74  740.2978
  75  760.6095
  76  801.6282
  77  723.8499
  78  742.3252
  79  685.8406
  80  669.8329
  81  698.9732
  82  778.6934
  83  789.1743
  84  701.7604
  85  657.4379
  86  719.2602
  87  619.4853
  88  726.6354
  89  758.7935
  90  743.8436
  91  746.9611
  92  825.2957
  93  913.7158
  94  776.2683
  95  780.4422
  96  836.0123
  97  837.7909
  98  764.1614
  99  775.782
 100  795.9847
 101  815.2037
 102  683.0898
 103  704.1265
 104  798.3336
 105  839.5026
 106  866.1417
 107  837.071
 108  870.9189
 109  780.2004
 110  662.5596
 111  789.6998
 112  823.5034
 113  825.879
 114  916.0112
 115  979.4715
 116  960.1237
 117  827.0386
 118  881.2191
 119  747.6893
 120  702.9608
 121  802.1385
 122  798.3672
 123  795.8881
 124  836.1638
 125  864.5977
 126  769.0018
 127  726.0441
 128  777.2155
 129  857.9185
 130  891.6849
 131  861.1433
 132  793.8628
 133  853.0912
 134  815.8825
 135  762.1052
 136  743.2946
 137  749.3141
 138  648.7913
 139  648.1271
 140  741.434
 141  712.9904
 142  686.0423
 143  722.7995
 144  735.5865
 145  752.1073
 146  801.4749
 147  786.8269
 148  743.5638
 149  740.3347
 150  789.4137
 151  781.2946
 152  771.8913
 153  708.7766
 154  712.6714
 155  742.2534
 156  728.8916
 157  745.5308
 158  761.9352
 159  780.6744
 160  774.4447
 161  803.2587
 162  767.1417
 163  729.0267
 164  749.1494
 165  732.9758
 166  674.1388
 167  716.0377
 168  817.4264
 169  776.5734
 170  740.7534
 171  804.746
 172  808.5509
 173  691.2036
 174  670.185
 175  722.1706
 176  840.2719
 177  784.3072
 178  819.0435
 179  791.9448
 180  702.8251
 181  660.245
 182  690.0529
 183  764.7429
 184  744.5912
 185  789.931
 186  800.0483
 187  801.66
 188  726.9705
 189  774.0455
 190  800.6525
 191  772.9424
 192  651.9369
 193  823.1641
 194  876.7897
 195  764.9615
 196  769.2433
 197  871.0084
 198  811.6259
 199  813.7311
 200  826.9931
 201  787.1989
 202  676.9613
 203  716.1542
 204  716.0938
 205  778.7481
 206  680.8062
 207  721.0745
 208  702.951
 209  608.057
 210  630.0863
 211  739.3231
 212  784.428
 213  761.4769
 214  782.479
 215  771.2001
 216  651.7563
 217  752.9729
 218  804.2305
 219  736.7654
 220  659.097
 221  661.6604
 222  743.6521
 223  686.7076
 224  639.8981
 225  691.8925
 226  738.458
 227  664.0653
 228  719.5388
 229  709.4894
 230  752.8633
 231  638.8925
 232  756.0922
 233  793.9407
 234  717.1494
 235  702.5594
 236  636.317
 237  660.1534
 238  657.2538
 239  665.758
 240  690.493
 241  702.819
 242  789.3755
 243  771.2401
 244  820.8883
 245  684.2242
 246  725.6206
 247  784.7159
 248  802.2078
 249  731.1235
 250  745.2395
 251  718.8903
 252  711.0798
 253  695.7899
 254  742.4907
 255  717.7417
 256  762.4892
 257  853.8796
 258  868.5181
 259  770.5723
 260  786.8792
 261  794.0383
 262  845.5381
 263  741.1785
 264  714.8427
 265  824.3975
 266  817.2401
 267  790.2026
 268  729.7934
 269  822.4265
 270  786.6632
 271  799.1041
 272  794.5197
 273  813.9092
 274  749.1464
 275  698.5527
 276  668.535
 277  729.3475
 278  746.0007
 279  788.994
 280  700.0523
 281  644.0223
 282  726.4609
 283  756.5941
 284  726.0994
 285  673.3548
 286  841.6099
 287  823.7929
 288  610.5483
 289  643.8095
 290  794.3189
 291  767.7316
 292  650.9996
 293  755.7413
 294  805.5131
 295  771.9055
 296  691.1103
 297  676.1385
 298  779.0087
 299  791.0615
 300  847.7193
 301  835.5485
 302  656.2731
 303  732.6137
 304  790.4869
 305  829.5771
 306  703.3861
 307  724.6969
 308  781.4684
 309  739.0262
 310  686.3679
 311  800.8071
 312  813.0945
 313  722.6198
 314  743.1213
 315  797.1379
 316  815.9567
 317  817.4014
 318  849.7879
 319  870.5327
 320  831.3937
 321  791.7486
 322  762.1255
 323  811.823
 324  815.6287
 325  785.0847
 326  755.6353
 327  805.2639
 328  768.6989
 329  775.2271
 330  747.6523
 331  775.1127
 332  843.1785
 333  889.9794
 334  813.806
 335  709.7123
 336  750.6006
 337  749.8041
 338  796.332
 339  844.9601
 340  862.2244
 341  872.3995
 342  829.3532
 343  831.7076
 344  816.9218
 345  747.7042
 346  750.0645
 347  846.8417
 348  849.8525
 349  717.647
 350  589.967
 351  661.1293
 352  712.0653
 353  702.042
 354  785.1949
 355  870.1872
 356  876.4406
 357  781.8883
 358  828.5825
 359  724.8771
 360  729.7043
 361  789.5676
 362  777.5579
 363  732.1331
 364  707.5775
 365  766.0123
 366  731.8401
 367  671.7394
 368  799.1932
 369  728.9083
 370  686.6036
 371  653.5894
 372  728.2209
 373  739.3727
 374  738.9581
 375  751.1038
 376  870.755
 377  817.3425
 378  703.9539
 379  770.6836
 380  827.0213
 381  772.9324
 382  832.7014
 383  878.7819
 384  836.9813
 385  874.3725
 386  847.6075
 387  796.0954
 388  699.6044
 389  798.9047
 390  936.96
 391  831.989
 392  739.774
 393  772.9008
 394  752.6899
 395  663.4902
 396  686.3061
 397  845.534
 398  820.287
 399  739.4911
 400  754.2151
 401  861.5698
 402  857.2
 403  799.823
 404  905.1638
 405  904.2653
 406  862.848
 407  776.8006
 408  782.6755
 409  858.4404
 410  836.3639
 411  794.8464
 412  826.3093
 413  771.7798
 414  729.3762
 415  796.8607
 416  772.7272
 417  807.9894
 418  833.0668
 419  883.0415
 420  820.6791
 421  713.7839
 422  778.8689
 423  828.061
 424  841.7136
 425  830.0972
 426  816.097
 427  811.0587
 428  794.3516
 429  818.3494
 430  843.8245
 431  728.6126
 432  772.0956
 433  903.8248
 434  843.9493
 435  761.1718
 436  691.0966
 437  787.034
 438  745.5675
 439  792.8817
 440  807.2273
 441  705.9854
 442  758.3671
 443  712.0314
 444  778.1971
 445  807.1102
 446  768.9824
 447  821.5085
 448  851.7966
 449  812.1323
 450  735.9592
 451  776.5815
 452  677.287
 453  690.035
 454  817.8972
 455  945.8658
 456  874.9132
 457  757.4171
 458  776.7929
 459  780.1625
 460  757.7684
 461  738.262
 462  658.3888
 463  669.2463
 464  645.2097
 465  753.3353
 466  658.1763
 467  625.6262
 468  648.5128
 469  838.9492
 470  824.1732
 471  772.3079
 472  853.36
 473  813.8891
 474  709.6636
 475  717.3569
 476  812.8036
 477  801.1537
 478  775.7859
 479  687.7271
 480  823.9698
 481  747.9884
 482  608.6855
 483  717.6646
 484  824.6769
 485  760.1222
 486  720.7769
 487  838.4835
 488  817.2425
 489  716.8683
 490  738.9568
 491  786.1047
 492  745.0292
 493  733.8121
 494  846.6057
 495  754.0085
 496  714.9837
 497  796.4666
 498  813.6682
 499  830.0027
 500  834.5458
 501  845.1457
 502  779.3511
 503  734.726
 504  831.7587
 505  954.6276
 506  800.0227
 507  734.4973
 508  849.9441
 509  873.577
 510  896.8403
 511  962.3275
