# Input file       =  1195746036.118177_cleaned.dat
# Candidate        =  PSR_0332+5434
# Telescope        =  AR
# Epoch_topo       =  58083.652987478898
# Epoch_bary       =  N/A
# T_sample         =  0.002
# Data Folded      =  7208960
# Data Avg         =  0.0780569567406341
# Data StdDev      =  1.0002864513209  
# Profile Bins     =  512
# Profile Avg      =  1098.97822398525 
# Profile StdDev   =  118.693165871173 
# Reduced chi-sqr  =  0.913
# Prob(Noise)      <  0.921   (~0.0 sigma)
# P_topo (ms)      =  714.521167043876  +/- 0.000204
# P'_topo (s/s)    =  -0                +/- 1.09e-10
# P''_topo (s/s^2) =  0                 +/- 4.92e-14
# P_bary (ms)      =  N/A
# P'_bary (s/s)    =  N/A
# P''_bary (s/s^2) =  N/A
# P_orb (s)        =  N/A
# asin(i)/c (s)    =  N/A
# eccentricity     =  N/A
# w (rad)          =  N/A
# T_peri           =  N/A
######################################################
   0  1424.082
   1  1331.364
   2  1355.364
   3  1283.254
   4  1207.92
   5  1152.006
   6  1169.351
   7  1199.338
   8  1169.065
   9  1092.598
  10  1154.17
  11  1141.642
  12  1085.362
  13  1117.982
  14  1176.891
  15  1081.185
  16  1070.78
  17  1121.274
  18  1019.002
  19  1004.713
  20  1013.399
  21  1097.968
  22  1215.1
  23  1032.15
  24  1140.625
  25  1060.093
  26  1085.181
  27  1123.461
  28  1087.871
  29  997.1216
  30  968.08
  31  1044.931
  32  998.6566
  33  1027.347
  34  1123.781
  35  1040.147
  36  967.9889
  37  989.9584
  38  1024.181
  39  981.6601
  40  1117.08
  41  1164.641
  42  1054.16
  43  955.1265
  44  808.8859
  45  937.3351
  46  925.8628
  47  962.1517
  48  1067.249
  49  1082.731
  50  1084.794
  51  1071.073
  52  1163.561
  53  1194.977
  54  1118.461
  55  1133.177
  56  1141.137
  57  1053.996
  58  1039.815
  59  1142.324
  60  1165.521
  61  1109.961
  62  1131.009
  63  1156.839
  64  959.1716
  65  1022.615
  66  1076.438
  67  1045.347
  68  1004.804
  69  1045.647
  70  1025.334
  71  1057.068
  72  1139.026
  73  1199.046
  74  1106.306
  75  987.9525
  76  960.6804
  77  1066.176
  78  1028.038
  79  1012.414
  80  918.202
  81  1000.347
  82  933.2884
  83  1025.705
  84  1056.612
  85  1043.193
  86  1008.553
  87  983.15
  88  976.2613
  89  947.6553
  90  917.9227
  91  1087.015
  92  1180.642
  93  1131.563
  94  1031.258
  95  1059.294
  96  1185.513
  97  1181.734
  98  1132.07
  99  1026.865
 100  1064.103
 101  1172.465
 102  1173.083
 103  1106.984
 104  1062.006
 105  1080.567
 106  1188.051
 107  1106.579
 108  1170.924
 109  1155.815
 110  1145.606
 111  1043.279
 112  1162.812
 113  1120.849
 114  1091.158
 115  1117.98
 116  1219.655
 117  1238.44
 118  1211.222
 119  1106.435
 120  1121.288
 121  1102.51
 122  1150.44
 123  1148.207
 124  1160.83
 125  1224.593
 126  1209.609
 127  1153.934
 128  1033.189
 129  1045.033
 130  1030.362
 131  1044.498
 132  1126.288
 133  1032.952
 134  1090.224
 135  1097.61
 136  1154.423
 137  1220.921
 138  1177.129
 139  1203.286
 140  1278.474
 141  1186.094
 142  1149.611
 143  1120.449
 144  1146.135
 145  1092.926
 146  1147.13
 147  1137.107
 148  1134.434
 149  1206.957
 150  1192.734
 151  1250.426
 152  1169.362
 153  1175.653
 154  1138.91
 155  1197.27
 156  1214.46
 157  1140.708
 158  1168.763
 159  1127.891
 160  1122.663
 161  1167.711
 162  1149.977
 163  1186.623
 164  1138.598
 165  1185.342
 166  1167.251
 167  1079.75
 168  1057.203
 169  1137.827
 170  1141.39
 171  1134.271
 172  1222.327
 173  1141.984
 174  1043.731
 175  1043.974
 176  1063.957
 177  986.1143
 178  1046.11
 179  1045.485
 180  1117.042
 181  1158.03
 182  1131.336
 183  1103.777
 184  1133.731
 185  1127.419
 186  1109.169
 187  1028.803
 188  1087.564
 189  1039.052
 190  978.3944
 191  1006.561
 192  1049.505
 193  944.5276
 194  1041.274
 195  1135.243
 196  1092.026
 197  1093.901
 198  1159.358
 199  1121.625
 200  1079.475
 201  1070.888
 202  992.8104
 203  977.3843
 204  949.9978
 205  1081.004
 206  1140.29
 207  1117.5
 208  1065.169
 209  1030.217
 210  968.7046
 211  1002.651
 212  1037.132
 213  1184.236
 214  1152.602
 215  1111.518
 216  1062.839
 217  1098.457
 218  1136.638
 219  971.0737
 220  1038.279
 221  1211.713
 222  1186.921
 223  1170.777
 224  1162.385
 225  1055.824
 226  1094.601
 227  1041.822
 228  1137.8
 229  1102.239
 230  1026.095
 231  1050.501
 232  1075.189
 233  1181.805
 234  1198.712
 235  1218.152
 236  1172.931
 237  1189.708
 238  1138.211
 239  1078.858
 240  1159.936
 241  1169.649
 242  1051.734
 243  1100.755
 244  1126.648
 245  1090.403
 246  1023.233
 247  1024.614
 248  1070.087
 249  1187.233
 250  1133.629
 251  1037.552
 252  1082.477
 253  1135.096
 254  1148.009
 255  1099.854
 256  1111.011
 257  1125.461
 258  1026.187
 259  1096.566
 260  1115.102
 261  1148.994
 262  1156.42
 263  1112.992
 264  1038.401
 265  993.6156
 266  1006.701
 267  1120.447
 268  1178.974
 269  1201.903
 270  1205.031
 271  1115.094
 272  1161.875
 273  1123.128
 274  1060.265
 275  1150.029
 276  1111.356
 277  1043.467
 278  988.5391
 279  959.1657
 280  1070.39
 281  1040.213
 282  986.3929
 283  1006.478
 284  962.8073
 285  978.9083
 286  958.5934
 287  1102.166
 288  1109.492
 289  1052.618
 290  946.5111
 291  902.448
 292  1085.632
 293  1005.922
 294  1030.55
 295  1176.208
 296  1134.344
 297  1013.327
 298  990.1105
 299  1061.97
 300  968.7162
 301  919.1187
 302  1017.43
 303  1191.516
 304  1123.424
 305  1110.001
 306  1181.975
 307  1200.66
 308  1160.197
 309  1102.364
 310  1085.767
 311  1092.749
 312  1056.134
 313  1028.411
 314  997.7303
 315  1100.391
 316  1045.606
 317  1004.213
 318  995.8477
 319  1064.282
 320  1122.824
 321  1304.202
 322  1311.137
 323  1309.981
 324  1323.139
 325  1256.823
 326  1231.409
 327  1158.566
 328  1105.391
 329  1216.999
 330  1304.165
 331  1255.572
 332  1125.349
 333  1101.286
 334  1113.472
 335  1124.514
 336  1094.764
 337  1116.643
 338  1118.684
 339  1087.966
 340  1126.142
 341  1130.764
 342  1141.196
 343  1066.412
 344  966.5219
 345  1088.862
 346  1136.986
 347  1147.256
 348  1108.371
 349  1047.523
 350  1093.62
 351  1106.554
 352  1086.557
 353  1170.517
 354  1223.669
 355  1150.762
 356  1139.517
 357  1077.162
 358  1038.648
 359  995.0184
 360  971.864
 361  1113.883
 362  1107.606
 363  1185.373
 364  1157.277
 365  1025.905
 366  1018.392
 367  1055.831
 368  1095.855
 369  1166.279
 370  1215.357
 371  1118.562
 372  1069.981
 373  1056.899
 374  1043.788
 375  1027.267
 376  995.5463
 377  1069.726
 378  1079.486
 379  1079.833
 380  1060.827
 381  1197.828
 382  1155.176
 383  991.6122
 384  1049.705
 385  1150.944
 386  1166.104
 387  1164.829
 388  1159.305
 389  1250.767
 390  1214.518
 391  1160.778
 392  1128.187
 393  1082.797
 394  1107.101
 395  1188.418
 396  1246.459
 397  1218.204
 398  1210.99
 399  1107.567
 400  1086.193
 401  972.4167
 402  1117.142
 403  1133.18
 404  1068.316
 405  1100.18
 406  1054.995
 407  1082.456
 408  1137.772
 409  1128.634
 410  1076.792
 411  1119.64
 412  1137.51
 413  1160.797
 414  1217.512
 415  1189.593
 416  1173.043
 417  1173.73
 418  1026.71
 419  1045.888
 420  1113.762
 421  1142.248
 422  1050.142
 423  1033.66
 424  1061.245
 425  1183.91
 426  1161.955
 427  1221.632
 428  1124.204
 429  1145.293
 430  1032.848
 431  969.9994
 432  1101.437
 433  1017.064
 434  1098.839
 435  1128.332
 436  1114.781
 437  1089.379
 438  1128.586
 439  1075.413
 440  1025.59
 441  1025.155
 442  1017.141
 443  1099.975
 444  1119.009
 445  1114.612
 446  1174.192
 447  1095.253
 448  1086.547
 449  1057.817
 450  1065.027
 451  978.4521
 452  1051.575
 453  1136.677
 454  1035.313
 455  1172.686
 456  1089.766
 457  1041.72
 458  1049.25
 459  1215.194
 460  1286.426
 461  1075.016
 462  1051.78
 463  1067.224
 464  1008.245
 465  976.0504
 466  1110.479
 467  1216.61
 468  1125.353
 469  1157.406
 470  1045.85
 471  1029.378
 472  1012.713
 473  1008.173
 474  1097.171
 475  1061.977
 476  1128.161
 477  1072.295
 478  1006.766
 479  998.7222
 480  926.0503
 481  1044.686
 482  960.4343
 483  1022.933
 484  1036.099
 485  1071.091
 486  1159.738
 487  1088.093
 488  1070.945
 489  1049.12
 490  998.6097
 491  1038.703
 492  1065.347
 493  1108.777
 494  1075.57
 495  1067.587
 496  1051.164
 497  963.5939
 498  931.3258
 499  1019.51
 500  1021.229
 501  1020.188
 502  996.8022
 503  1122.352
 504  1099.27
 505  1059.625
 506  1120.036
 507  1191.803
 508  1186.657
 509  1337.184
 510  1408.883
 511  1388.068
