# Input file       =  1195775573.11255_cleaned.dat
# Candidate        =  PSR_0332+5434
# Telescope        =  AR
# Epoch_topo       =  58083.994850839699
# Epoch_bary       =  N/A
# T_sample         =  0.002
# Data Folded      =  7340032
# Data Avg         =  0.105169691871933
# Data StdDev      =  1.00061276285663 
# Profile Bins     =  512
# Profile Avg      =  1507.64801763821 
# Profile StdDev   =  119.80640433417  
# Reduced chi-sqr  =  0.793
# Prob(Noise)      <  1   (~0.0 sigma)
# P_topo (ms)      =  714.521882206288  +/- 0.000491
# P'_topo (s/s)    =  -0                +/- 2.59e-10
# P''_topo (s/s^2) =  0                 +/- 1.14e-13
# P_bary (ms)      =  N/A
# P'_bary (s/s)    =  N/A
# P''_bary (s/s^2) =  N/A
# P_orb (s)        =  N/A
# asin(i)/c (s)    =  N/A
# eccentricity     =  N/A
# w (rad)          =  N/A
# T_peri           =  N/A
######################################################
   0  1836.877
   1  1837.429
   2  1713.4
   3  1549.212
   4  1440.575
   5  1561.993
   6  1600.762
   7  1591.155
   8  1516.95
   9  1492.416
  10  1388.5
  11  1423.979
  12  1505.59
  13  1468.084
  14  1527.82
  15  1478.915
  16  1489.212
  17  1507.36
  18  1581.575
  19  1626.436
  20  1508.893
  21  1596.584
  22  1648.501
  23  1610.154
  24  1628.76
  25  1625.443
  26  1552.974
  27  1445.6
  28  1547.302
  29  1595.42
  30  1540.205
  31  1558.389
  32  1579.5
  33  1459.923
  34  1521.66
  35  1513.543
  36  1453.71
  37  1514.199
  38  1535.08
  39  1463.319
  40  1454.691
  41  1493.714
  42  1487.79
  43  1488.88
  44  1547.029
  45  1483.149
  46  1491.706
  47  1527.027
  48  1534.529
  49  1497.759
  50  1517.712
  51  1478.179
  52  1437.837
  53  1492.866
  54  1535.186
  55  1508.514
  56  1546.035
  57  1579.571
  58  1667.139
  59  1549.771
  60  1527.488
  61  1554.966
  62  1519.955
  63  1533.811
  64  1591.557
  65  1495.444
  66  1511.725
  67  1471.939
  68  1528.612
  69  1562.385
  70  1474.087
  71  1399.539
  72  1499.425
  73  1574.173
  74  1483.416
  75  1440.329
  76  1511.655
  77  1539.155
  78  1578.513
  79  1559.074
  80  1477.117
  81  1495.717
  82  1413.997
  83  1453.5
  84  1392.151
  85  1461.838
  86  1547.894
  87  1521.338
  88  1508.666
  89  1421.024
  90  1331.512
  91  1491.533
  92  1521.582
  93  1570.547
  94  1449.11
  95  1442.212
  96  1486.657
  97  1567.074
  98  1506.898
  99  1481.75
 100  1625.967
 101  1592.604
 102  1510.986
 103  1510.763
 104  1435.384
 105  1398.967
 106  1461.724
 107  1433.65
 108  1481.864
 109  1492.303
 110  1441.615
 111  1438.339
 112  1367.822
 113  1465.151
 114  1562.739
 115  1492.563
 116  1291.905
 117  1368.451
 118  1414.595
 119  1441.698
 120  1458.06
 121  1558.253
 122  1528.468
 123  1435.986
 124  1409.536
 125  1440.716
 126  1404.222
 127  1349.345
 128  1329.652
 129  1468.846
 130  1590.922
 131  1487.104
 132  1422.549
 133  1416.361
 134  1520.171
 135  1504.162
 136  1516.603
 137  1564.581
 138  1581.886
 139  1511.969
 140  1538.953
 141  1480.877
 142  1414.707
 143  1423.091
 144  1456.776
 145  1405.777
 146  1489.352
 147  1522.632
 148  1653.841
 149  1569.62
 150  1515.096
 151  1451.462
 152  1491.172
 153  1516.83
 154  1466.244
 155  1388.65
 156  1363.489
 157  1434.013
 158  1479.139
 159  1495.837
 160  1417.27
 161  1498.431
 162  1475.881
 163  1520.442
 164  1472.924
 165  1450.711
 166  1461.495
 167  1411.59
 168  1406.633
 169  1429.703
 170  1386.026
 171  1399.527
 172  1472.632
 173  1437.087
 174  1522.602
 175  1569.344
 176  1515.124
 177  1495.341
 178  1516.576
 179  1559.825
 180  1577.999
 181  1551.195
 182  1553.179
 183  1482.021
 184  1492.041
 185  1531.593
 186  1518.123
 187  1529.194
 188  1518.891
 189  1550.744
 190  1488.686
 191  1506.368
 192  1485.004
 193  1535.16
 194  1590.538
 195  1579.673
 196  1540.571
 197  1480.768
 198  1400.748
 199  1410.181
 200  1508.102
 201  1564.143
 202  1499.958
 203  1514.006
 204  1532.904
 205  1465.623
 206  1447.244
 207  1408.826
 208  1451.573
 209  1534.709
 210  1542.333
 211  1432.968
 212  1421.238
 213  1440.798
 214  1416.223
 215  1377.8
 216  1375.607
 217  1350.648
 218  1383.659
 219  1393.074
 220  1444.576
 221  1385.659
 222  1238.315
 223  1312.245
 224  1377.369
 225  1468.831
 226  1572.839
 227  1561.332
 228  1465.299
 229  1492.283
 230  1561.793
 231  1502.476
 232  1555.61
 233  1661.07
 234  1716.773
 235  1599.855
 236  1576.223
 237  1641.51
 238  1488.525
 239  1328.137
 240  1534.091
 241  1638.035
 242  1552.192
 243  1487.732
 244  1513.569
 245  1513.687
 246  1534.126
 247  1551.673
 248  1533.137
 249  1538.936
 250  1543.808
 251  1601.778
 252  1470.966
 253  1557.272
 254  1652.557
 255  1607.377
 256  1550.176
 257  1596.702
 258  1599.642
 259  1544.69
 260  1562.667
 261  1598.593
 262  1548.53
 263  1552.735
 264  1550.763
 265  1619.282
 266  1593.487
 267  1539.134
 268  1475.991
 269  1541.157
 270  1593.857
 271  1581.762
 272  1465.347
 273  1520.22
 274  1580.623
 275  1527.217
 276  1434.97
 277  1486.74
 278  1400.608
 279  1481.121
 280  1506.077
 281  1527.628
 282  1492.486
 283  1500.906
 284  1407.647
 285  1407.873
 286  1450.239
 287  1524.962
 288  1490.25
 289  1478.467
 290  1443.068
 291  1432.874
 292  1392.664
 293  1426.023
 294  1490.991
 295  1369.439
 296  1395.23
 297  1464.771
 298  1555.139
 299  1466.324
 300  1507.253
 301  1529.123
 302  1477.441
 303  1438.858
 304  1581.446
 305  1510.597
 306  1461.265
 307  1546.157
 308  1606.359
 309  1607.93
 310  1527.417
 311  1466.748
 312  1512.861
 313  1572.511
 314  1640.072
 315  1525.301
 316  1474.64
 317  1486.059
 318  1466.344
 319  1394.73
 320  1462.295
 321  1515.08
 322  1625.14
 323  1539.687
 324  1481.79
 325  1620.77
 326  1546.406
 327  1466.635
 328  1478.885
 329  1572.3
 330  1497.84
 331  1375.807
 332  1422.688
 333  1443.686
 334  1476.082
 335  1488.339
 336  1480.624
 337  1571.612
 338  1669.706
 339  1609.643
 340  1544.373
 341  1582.333
 342  1658.113
 343  1594.504
 344  1567.459
 345  1592.713
 346  1516.493
 347  1587.511
 348  1519.052
 349  1463.251
 350  1540.87
 351  1485.278
 352  1442.804
 353  1512.567
 354  1513.107
 355  1590.28
 356  1584.973
 357  1532.919
 358  1457.74
 359  1457.622
 360  1669.582
 361  1661.543
 362  1541.78
 363  1640.366
 364  1538.238
 365  1633.817
 366  1557.604
 367  1441.769
 368  1469.213
 369  1517.673
 370  1542.995
 371  1405.884
 372  1429.456
 373  1506.446
 374  1566.366
 375  1542.574
 376  1587.682
 377  1527.285
 378  1476.495
 379  1574.836
 380  1593.735
 381  1510.573
 382  1463.662
 383  1519.779
 384  1501.037
 385  1489.272
 386  1510.395
 387  1489.516
 388  1541.254
 389  1551.246
 390  1569.257
 391  1456.608
 392  1457.043
 393  1442.806
 394  1503.938
 395  1503.815
 396  1565.944
 397  1562.143
 398  1412.763
 399  1527.944
 400  1643.367
 401  1587.148
 402  1574.3
 403  1522.592
 404  1606.685
 405  1517.583
 406  1589.339
 407  1491.089
 408  1543.57
 409  1469.242
 410  1445.112
 411  1478.297
 412  1478.381
 413  1465.013
 414  1482.87
 415  1533.685
 416  1520.659
 417  1500.588
 418  1422.334
 419  1398.949
 420  1501.637
 421  1585.045
 422  1578.709
 423  1473.205
 424  1560.633
 425  1556.599
 426  1452.229
 427  1459.85
 428  1460.021
 429  1501.55
 430  1472.465
 431  1531.588
 432  1407.034
 433  1463.242
 434  1532.206
 435  1504.338
 436  1565.988
 437  1639.808
 438  1578.387
 439  1469.515
 440  1506.653
 441  1558.777
 442  1462.17
 443  1396.81
 444  1485.154
 445  1518.516
 446  1506.675
 447  1499.578
 448  1498.029
 449  1453.487
 450  1476.06
 451  1532.72
 452  1484.838
 453  1340.95
 454  1412.408
 455  1474.239
 456  1463.025
 457  1448.758
 458  1451.246
 459  1510.746
 460  1534.066
 461  1498.841
 462  1455.548
 463  1380.028
 464  1465.937
 465  1562.109
 466  1577.794
 467  1547.929
 468  1639.281
 469  1592.949
 470  1470.513
 471  1306.708
 472  1405.176
 473  1533.559
 474  1534.78
 475  1449.726
 476  1537.505
 477  1519.095
 478  1371.184
 479  1353.493
 480  1346.351
 481  1408.322
 482  1524.181
 483  1602.031
 484  1436.398
 485  1379.85
 486  1435.022
 487  1423.803
 488  1490.474
 489  1503.208
 490  1521.843
 491  1488.641
 492  1418.186
 493  1504.204
 494  1538.722
 495  1487.64
 496  1494.138
 497  1530.327
 498  1561.756
 499  1500.687
 500  1585.35
 501  1639.619
 502  1677.213
 503  1608.031
 504  1598.233
 505  1639.428
 506  1595.278
 507  1510.471
 508  1557.972
 509  1705.924
 510  1829.314
 511  1868.96
