# Input file       =  1195142387.113752_cleaned.dat
# Candidate        =  PSR_0332+5434
# Telescope        =  AR
# Epoch_topo       =  58076.666309186941
# Epoch_bary       =  N/A
# T_sample         =  0.002
# Data Folded      =  7143424
# Data Avg         =  0.0649630166856422
# Data StdDev      =  1.00026028951031 
# Profile Bins     =  512
# Profile Avg      =  906.355121113321 
# Profile StdDev   =  118.149329510381 
# Reduced chi-sqr  =  0.541
# Prob(Noise)      <  1   (~0.0 sigma)
# P_topo (ms)      =  714.513945595669  +/- 0.000134
# P'_topo (s/s)    =  -0                +/- 7.25e-11
# P''_topo (s/s^2) =  0                 +/- 3.29e-14
# P_bary (ms)      =  N/A
# P'_bary (s/s)    =  N/A
# P''_bary (s/s^2) =  N/A
# P_orb (s)        =  N/A
# asin(i)/c (s)    =  N/A
# eccentricity     =  N/A
# w (rad)          =  N/A
# T_peri           =  N/A
######################################################
   0  1063.278
   1  1028.07
   2  1071.698
   3  1041.84
   4  1022.706
   5  960.5773
   6  924.2541
   7  917.1032
   8  895.4536
   9  899.6073
  10  925.1586
  11  939.5021
  12  950.134
  13  927.5988
  14  839.0965
  15  905.9037
  16  947.6786
  17  910.5309
  18  939.8581
  19  865.2669
  20  892.038
  21  868.9421
  22  910.5792
  23  937.6837
  24  904.4606
  25  895.1249
  26  871.7749
  27  887.0886
  28  898.4537
  29  925.0242
  30  955.0995
  31  946.3373
  32  841.1658
  33  839.7203
  34  881.6748
  35  848.359
  36  974.9512
  37  958.701
  38  969.9889
  39  898.4127
  40  857.9363
  41  799.4104
  42  818.3259
  43  833.5291
  44  875.9146
  45  945.8554
  46  923.5145
  47  856.2281
  48  881.2227
  49  894.9362
  50  959.5985
  51  967.5671
  52  946.4951
  53  928.2031
  54  1004.306
  55  968.5609
  56  1006.898
  57  944.7917
  58  988.5683
  59  961.1736
  60  888.7664
  61  951.114
  62  915.4789
  63  937.0352
  64  915.1796
  65  804.3206
  66  768.7619
  67  816.0069
  68  899.5493
  69  930.525
  70  935.1084
  71  976.7826
  72  958.6505
  73  924.0556
  74  927.2875
  75  961.2267
  76  893.3097
  77  905.4385
  78  839.407
  79  930.6161
  80  872.7838
  81  833.5457
  82  737.7184
  83  779.8895
  84  906.3425
  85  929.7479
  86  979.7692
  87  921.2876
  88  987.4109
  89  887.8906
  90  874.817
  91  837.317
  92  855.1865
  93  952.8286
  94  943.4637
  95  948.6494
  96  919.5465
  97  998.4864
  98  921.6568
  99  906.4577
 100  954.7194
 101  993.011
 102  980.2399
 103  994.8014
 104  1040.634
 105  939.2474
 106  981.9225
 107  920.2936
 108  972.8469
 109  1018.458
 110  1013.461
 111  926.165
 112  886.7419
 113  849.9546
 114  827.8531
 115  859.3873
 116  903.0553
 117  939.9144
 118  967.9723
 119  992.2908
 120  949.5087
 121  928.0264
 122  1011.48
 123  977.8781
 124  932.5259
 125  861.7415
 126  947.5062
 127  923.8697
 128  864.9072
 129  924.4099
 130  963.1323
 131  956.8495
 132  870.3044
 133  946.4422
 134  975.8423
 135  909.2307
 136  896.9472
 137  846.1514
 138  963.3171
 139  873.8257
 140  859.897
 141  840.5276
 142  823.9401
 143  884.0199
 144  874.5284
 145  928.9246
 146  899.7174
 147  928.4742
 148  864.3663
 149  834.8293
 150  867.8463
 151  913.8945
 152  973.5275
 153  1005.974
 154  998.0112
 155  922.5462
 156  963.4311
 157  937.6943
 158  900.7435
 159  871.8315
 160  871.3444
 161  849.4106
 162  831.428
 163  893.2369
 164  798.375
 165  814.6214
 166  970.8786
 167  978.3276
 168  927.1412
 169  891.8783
 170  946.0092
 171  847.0948
 172  809.57
 173  802.5089
 174  825.7223
 175  847.1445
 176  874.8625
 177  923.801
 178  952.4016
 179  867.4009
 180  873.371
 181  924.1562
 182  929.1152
 183  868.2264
 184  816.5153
 185  851.222
 186  899.707
 187  948.6805
 188  947.0209
 189  858.6166
 190  816.6716
 191  787.4561
 192  850.3807
 193  895.0528
 194  967.4001
 195  953.1613
 196  1013.565
 197  976.9495
 198  948.6807
 199  879.8588
 200  934.9202
 201  989.2275
 202  860.7385
 203  885.5415
 204  919.4684
 205  868.2261
 206  902.4448
 207  956.4013
 208  927.7833
 209  867.3337
 210  916.6484
 211  954.7922
 212  1051.433
 213  1027.988
 214  1030.116
 215  997.0195
 216  933.4539
 217  904.6677
 218  826.5536
 219  814.4319
 220  876.23
 221  928.5983
 222  904.557
 223  858.5111
 224  939.7989
 225  874.0866
 226  954.3661
 227  897.3863
 228  929.9249
 229  956.8675
 230  921.9717
 231  855.8871
 232  823.0316
 233  809.6897
 234  839.3269
 235  927.3985
 236  894.3951
 237  939.3378
 238  928.5104
 239  926.0204
 240  917.2964
 241  849.0816
 242  869.4846
 243  888.5263
 244  971.2112
 245  913.916
 246  967.704
 247  982.6666
 248  915.7355
 249  916.2196
 250  878.4766
 251  957.2275
 252  958.4031
 253  1024.603
 254  986.6197
 255  888.4697
 256  941.71
 257  854.0011
 258  859.7114
 259  851.2967
 260  931.7104
 261  899.1423
 262  933.6014
 263  1073.87
 264  915.1368
 265  993.7345
 266  959.3553
 267  1007.594
 268  970.0748
 269  941.5254
 270  1033.778
 271  912.0753
 272  899.014
 273  931.9864
 274  972.9194
 275  943.9005
 276  1043.765
 277  950.7421
 278  857.6457
 279  850.2878
 280  873.8982
 281  963.1042
 282  963.4058
 283  1059.385
 284  950.4676
 285  923.3948
 286  902.0296
 287  929.874
 288  938.2212
 289  880.4103
 290  902.6794
 291  805.545
 292  907.9265
 293  899.8089
 294  879.5843
 295  857.1659
 296  849.4419
 297  945.1404
 298  912.5787
 299  842.8636
 300  860.5532
 301  943.6302
 302  925.0532
 303  866.6919
 304  811.0655
 305  853.3323
 306  834.3342
 307  803.1848
 308  777.5503
 309  787.225
 310  875.6573
 311  845.5969
 312  946.6653
 313  949.6926
 314  944.9904
 315  993.0936
 316  999.4172
 317  988.8328
 318  986.5804
 319  953.8453
 320  878.8682
 321  821.2695
 322  853.7241
 323  887.1302
 324  891.8264
 325  862.2439
 326  940.9691
 327  931.7083
 328  909.5405
 329  768.2915
 330  769.1789
 331  803.1893
 332  885.3062
 333  968.377
 334  932.6707
 335  944.3775
 336  887.1451
 337  910.0957
 338  899.6453
 339  965.3118
 340  1047.227
 341  984.9149
 342  965.7401
 343  860.3631
 344  865.1325
 345  843.0481
 346  874.8223
 347  914.2761
 348  1059.494
 349  1042.178
 350  911.9224
 351  844.0302
 352  864.301
 353  883.5525
 354  939.0458
 355  1011.778
 356  911.214
 357  800.1106
 358  848.2869
 359  890.0993
 360  824.5292
 361  829.5229
 362  887.6216
 363  848.3701
 364  874.0314
 365  874.5251
 366  837.4884
 367  903.5449
 368  896.4765
 369  905.957
 370  876.7875
 371  832.4056
 372  826.4354
 373  896.5475
 374  907.5782
 375  784.1302
 376  918.1088
 377  893.2227
 378  879.7399
 379  790.9651
 380  894.4485
 381  879.7042
 382  890.2025
 383  918.3246
 384  953.8442
 385  974.4427
 386  954.707
 387  1014.336
 388  891.0803
 389  935.1605
 390  988.824
 391  934.9172
 392  989.7894
 393  921.2357
 394  901.1351
 395  829.0805
 396  917.3026
 397  921.5421
 398  972.0752
 399  899.7118
 400  854.886
 401  889.3981
 402  938.3472
 403  993.6695
 404  881.6041
 405  908.905
 406  909.2878
 407  838.6247
 408  748.1866
 409  777.2021
 410  901.514
 411  914.3134
 412  848.1916
 413  866.6838
 414  865.4057
 415  859.4835
 416  904.3962
 417  872.5784
 418  888.644
 419  917.2404
 420  867.6281
 421  895.81
 422  873.9282
 423  880.2556
 424  896.92
 425  894.4343
 426  859.3986
 427  825.8885
 428  856.9757
 429  823.8129
 430  950.1849
 431  1025.957
 432  1030.157
 433  1024.386
 434  908.9617
 435  974.3777
 436  906.3782
 437  970.8837
 438  894.5598
 439  928.0428
 440  903.9592
 441  908.6204
 442  901.9618
 443  866.3464
 444  912.1078
 445  918.3408
 446  833.6699
 447  833.8898
 448  910.5316
 449  889.6783
 450  922.957
 451  833.2722
 452  840.3914
 453  865.5385
 454  855.5622
 455  808.6749
 456  819.0913
 457  887.1721
 458  837.645
 459  753.4482
 460  779.5497
 461  798.8131
 462  859.4262
 463  893.3746
 464  853.4244
 465  829.796
 466  852.6324
 467  865.3119
 468  864.9611
 469  910.2746
 470  898.2118
 471  955.5912
 472  814.9633
 473  900.83
 474  884.5391
 475  907.3288
 476  875.8208
 477  967.0566
 478  829.7368
 479  714.7227
 480  808.2758
 481  771.0647
 482  873.4332
 483  883.5727
 484  1004.27
 485  909.3101
 486  871.0707
 487  937.3367
 488  820.5434
 489  867.1823
 490  856.7928
 491  832.3571
 492  783.0458
 493  807.4769
 494  785.4006
 495  771.8428
 496  854.2324
 497  821.1812
 498  964.1062
 499  957.7702
 500  951.3782
 501  906.2874
 502  923.0977
 503  892.4513
 504  934.5179
 505  965.5564
 506  955.5565
 507  1024.558
 508  1002.932
 509  1071.184
 510  1098.725
 511  1047.201
