# Input file       =  1195603227.108312_cleaned.dat
# Candidate        =  PSR_0332+5434
# Telescope        =  AR
# Epoch_topo       =  58082.000105420273
# Epoch_bary       =  N/A
# T_sample         =  0.002
# Data Folded      =  7340032
# Data Avg         =  0.0873649678253105
# Data StdDev      =  1.00038443336647 
# Profile Bins     =  512
# Profile Avg      =  1252.48880248665 
# Profile StdDev   =  119.779065751018 
# Reduced chi-sqr  =  0.936
# Prob(Noise)      <  0.848   (~0.0 sigma)
# P_topo (ms)      =  714.519813785569  +/- 4.87e-05
# P'_topo (s/s)    =  -0                +/- 2.57e-11
# P''_topo (s/s^2) =  0                 +/- 1.13e-14
# P_bary (ms)      =  N/A
# P'_bary (s/s)    =  N/A
# P''_bary (s/s^2) =  N/A
# P_orb (s)        =  N/A
# asin(i)/c (s)    =  N/A
# eccentricity     =  N/A
# w (rad)          =  N/A
# T_peri           =  N/A
######################################################
   0  1729.765
   1  1609.59
   2  1503.05
   3  1495.79
   4  1470.448
   5  1381.084
   6  1323.393
   7  1292.14
   8  1251.035
   9  1289.953
  10  1293.333
  11  1393.515
  12  1300.905
  13  1219.844
  14  1338.942
  15  1424.735
  16  1336.416
  17  1346.462
  18  1354.803
  19  1304.534
  20  1302.988
  21  1468.024
  22  1366.502
  23  1212.648
  24  1258.813
  25  1375.167
  26  1302.989
  27  1268.842
  28  1268.631
  29  1283.073
  30  1255.241
  31  1215.871
  32  1268.978
  33  1371.9
  34  1333.049
  35  1326.025
  36  1345.56
  37  1315.39
  38  1264.359
  39  1311.974
  40  1264.407
  41  1232.74
  42  1294.424
  43  1359.391
  44  1255.647
  45  1307.465
  46  1184.782
  47  1138.128
  48  1295.896
  49  1303.468
  50  1368.209
  51  1299.871
  52  1190.842
  53  1184.421
  54  1278.539
  55  1253.793
  56  1217.328
  57  1371.179
  58  1375.284
  59  1278.163
  60  1276.734
  61  1223.29
  62  1295.292
  63  1416.144
  64  1394.705
  65  1244.425
  66  1195.513
  67  1187.07
  68  1212.984
  69  1137.877
  70  1249.902
  71  1304.606
  72  1264.204
  73  1196.518
  74  1267.093
  75  1273.199
  76  1216.397
  77  1099.694
  78  1237.592
  79  1315.532
  80  1371.889
  81  1186.388
  82  1159.612
  83  1267.119
  84  1349.205
  85  1337.015
  86  1194.68
  87  1191.605
  88  1139.938
  89  1204.751
  90  1177.227
  91  1203.968
  92  1202.021
  93  1229.51
  94  1344.498
  95  1215.608
  96  1267.219
  97  1216.101
  98  1172.468
  99  1217.456
 100  1225.293
 101  1200.125
 102  1180.406
 103  1145.538
 104  1180.298
 105  1101.569
 106  1198.218
 107  1272.037
 108  1231.535
 109  1206.608
 110  1176.188
 111  1186.011
 112  1145.37
 113  1040.202
 114  1141.296
 115  1194.365
 116  1064.775
 117  1154.486
 118  1223.054
 119  1163.803
 120  1155.401
 121  1248.192
 122  1299.391
 123  1341.949
 124  1223.633
 125  1272.856
 126  1252.363
 127  1296.359
 128  1227.379
 129  1233.501
 130  1301.656
 131  1270.842
 132  1314.115
 133  1307.979
 134  1325.111
 135  1304.053
 136  1251.028
 137  1289.114
 138  1367.054
 139  1320.647
 140  1314.024
 141  1249.771
 142  1142.949
 143  1270.344
 144  1348.777
 145  1217.353
 146  1190.403
 147  1312.638
 148  1217.214
 149  1198.502
 150  1352.52
 151  1332.861
 152  1179.816
 153  1222.292
 154  1286.53
 155  1103.853
 156  1234.178
 157  1316.487
 158  1242.946
 159  1211.518
 160  1171.774
 161  1181.184
 162  1197.552
 163  1189.412
 164  1294.998
 165  1219.29
 166  1113.859
 167  1036.155
 168  1202.347
 169  1273.357
 170  1279.309
 171  1245.442
 172  1291.183
 173  1255.003
 174  1163.794
 175  1121.366
 176  1261.925
 177  1303.199
 178  1311.616
 179  1301.132
 180  1337.267
 181  1212.897
 182  1270.667
 183  1201.226
 184  1241.426
 185  1164.213
 186  1177.902
 187  1196.024
 188  1146.941
 189  1085.437
 190  1374.706
 191  1339.489
 192  1306.557
 193  1297.519
 194  1201.971
 195  1213.349
 196  1181.063
 197  1220.38
 198  1190.683
 199  1198.37
 200  1274.982
 201  1350.841
 202  1297.858
 203  1342.2
 204  1309.38
 205  1316.433
 206  1246.106
 207  1205.61
 208  1203.098
 209  1172.287
 210  1137.781
 211  1232.516
 212  1196.447
 213  1151.513
 214  1130.392
 215  1252.51
 216  1190.409
 217  1171.108
 218  1200.51
 219  1278.596
 220  1275.698
 221  1246.128
 222  1316.438
 223  1354.88
 224  1282.995
 225  1187.885
 226  1196.549
 227  1198.681
 228  1205.101
 229  1142.556
 230  1159.569
 231  1239.392
 232  1223.079
 233  1305.79
 234  1276.083
 235  1261.969
 236  1199.299
 237  1009.153
 238  1139.575
 239  1277.559
 240  1187.246
 241  1091.036
 242  1262.042
 243  1252.284
 244  1314.307
 245  1248.521
 246  1246.78
 247  1182.598
 248  1200.43
 249  1243.576
 250  1247.964
 251  1243.575
 252  1200.146
 253  1225.189
 254  1181.304
 255  1225.343
 256  1275.516
 257  1263.515
 258  1318.749
 259  1272.39
 260  1207.629
 261  1392.594
 262  1355.775
 263  1177.667
 264  1208.047
 265  1290.32
 266  1287.398
 267  1224.544
 268  1249.013
 269  1213.897
 270  1098.794
 271  1165.682
 272  1261.066
 273  1205.248
 274  1066.521
 275  1125.07
 276  1294.75
 277  1143.721
 278  1144.061
 279  1214.985
 280  1336.462
 281  1293.627
 282  1150.388
 283  1190.777
 284  1224.662
 285  1172.051
 286  1199.234
 287  1229.26
 288  1120.871
 289  1229.775
 290  1337.533
 291  1298.89
 292  1245.072
 293  1286.474
 294  1252.828
 295  1204.268
 296  1162.646
 297  1249.507
 298  1201.889
 299  1161.185
 300  1270.867
 301  1269.416
 302  1316.265
 303  1217.111
 304  1236.726
 305  1274.086
 306  1220.022
 307  1308.472
 308  1308.09
 309  1314.076
 310  1125.422
 311  1195.443
 312  1158.653
 313  1152.704
 314  1242.347
 315  1207.734
 316  1306.992
 317  1311.48
 318  1372.873
 319  1296.599
 320  1333
 321  1302.623
 322  1364.434
 323  1340.488
 324  1380.026
 325  1348.166
 326  1315.757
 327  1201.639
 328  1172.117
 329  1297.845
 330  1322.624
 331  1339.457
 332  1320.927
 333  1261.418
 334  1298.081
 335  1159.374
 336  1277.822
 337  1362.62
 338  1283.025
 339  1111.98
 340  1218.596
 341  1264.697
 342  1259.913
 343  1297.764
 344  1410.501
 345  1386.041
 346  1362.469
 347  1264.431
 348  1298.758
 349  1244.07
 350  1299.494
 351  1351.796
 352  1311.193
 353  1379.424
 354  1324.438
 355  1262.749
 356  1308.993
 357  1225.009
 358  1300.624
 359  1224.387
 360  1188.854
 361  1309.486
 362  1406.826
 363  1275.601
 364  1376.708
 365  1361.119
 366  1221.94
 367  1150.619
 368  1234.179
 369  1315.689
 370  1201.904
 371  1283.886
 372  1402.467
 373  1235.542
 374  1262.583
 375  1211.492
 376  1244.437
 377  1203.464
 378  1234.449
 379  1181.524
 380  1151.109
 381  1105.879
 382  1139.778
 383  1216.192
 384  1240.835
 385  1274.12
 386  1309.07
 387  1259.268
 388  1161.408
 389  1157.641
 390  1319.095
 391  1331.312
 392  1188.071
 393  1285.92
 394  1198.757
 395  1111.294
 396  1133.693
 397  1162.336
 398  1246.433
 399  1178.271
 400  1176.15
 401  1254.623
 402  1191.063
 403  1175.101
 404  1302.952
 405  1277.958
 406  1218.351
 407  1248.872
 408  1243.058
 409  1249.42
 410  1268.575
 411  1247.337
 412  1207.919
 413  1085.731
 414  1228.152
 415  1159.947
 416  1162.688
 417  1097.753
 418  1190.753
 419  1190.292
 420  1233.536
 421  1150.867
 422  1180.616
 423  1263.766
 424  1170.164
 425  1112.066
 426  1167.825
 427  1253.427
 428  1192.043
 429  1162.276
 430  1225.647
 431  1197.247
 432  1181.632
 433  1176.076
 434  1246.578
 435  1164.051
 436  1185.683
 437  1119.43
 438  1173.628
 439  1150.316
 440  1258.111
 441  1282.983
 442  1178.417
 443  1256.094
 444  1325.401
 445  1281.933
 446  1170.42
 447  1155.567
 448  1229.03
 449  1266.952
 450  1164.355
 451  1239.73
 452  1222.855
 453  1275.981
 454  1359.251
 455  1284.346
 456  1280.53
 457  1299.585
 458  1147.007
 459  1137.305
 460  1131.665
 461  1198.266
 462  1235.078
 463  1178.721
 464  1113.789
 465  1291.176
 466  1284.303
 467  1225.308
 468  1230.746
 469  1411.255
 470  1306.439
 471  1193.58
 472  1259.373
 473  1293.345
 474  1208.718
 475  1257.645
 476  1255.146
 477  1312.448
 478  1209.739
 479  1203.832
 480  1303.397
 481  1325.547
 482  1327.046
 483  1384.648
 484  1325.848
 485  1207.371
 486  1283.966
 487  1303.756
 488  1238.447
 489  1312.038
 490  1307.908
 491  1282.526
 492  1203.017
 493  1296.543
 494  1277.688
 495  1285.111
 496  1197.964
 497  1300.841
 498  1441.41
 499  1367.312
 500  1342.831
 501  1345.365
 502  1333.077
 503  1293.555
 504  1406.085
 505  1461.973
 506  1314.207
 507  1340.664
 508  1441.26
 509  1414.954
 510  1498.068
 511  1689.255
