# Input file       =  1195502192.101845_cleaned.dat
# Candidate        =  PSR_0332+5434
# Telescope        =  AR
# Epoch_topo       =  58080.830718771358
# Epoch_bary       =  N/A
# T_sample         =  0.002
# Data Folded      =  7340032
# Data Avg         =  0.0601848189979186
# Data StdDev      =  1.00011082207458 
# Profile Bins     =  512
# Profile Avg      =  862.549788673725 
# Profile StdDev   =  119.746305440253 
# Reduced chi-sqr  =  0.717
# Prob(Noise)      <  1   (~0.0 sigma)
# P_topo (ms)      =  714.518263982065  +/- 0.000943
# P'_topo (s/s)    =  -0                +/- 4.97e-10
# P''_topo (s/s^2) =  0                 +/- 2.2e-13
# P_bary (ms)      =  N/A
# P'_bary (s/s)    =  N/A
# P''_bary (s/s^2) =  N/A
# P_orb (s)        =  N/A
# asin(i)/c (s)    =  N/A
# eccentricity     =  N/A
# w (rad)          =  N/A
# T_peri           =  N/A
######################################################
   0  1208.798
   1  1033.075
   2  1006.966
   3  906.2371
   4  836.0989
   5  837.4327
   6  901.2515
   7  924.1794
   8  833.6277
   9  802.5275
  10  822.0121
  11  925.6775
  12  897.5864
  13  926.1664
  14  908.4594
  15  902.0424
  16  831.0676
  17  865.3848
  18  884.9671
  19  833.3936
  20  815.4631
  21  815.4506
  22  847.5944
  23  915.2334
  24  898.066
  25  844.9854
  26  837.8215
  27  883.3583
  28  917.306
  29  965.9968
  30  830.2569
  31  758.9377
  32  832.4066
  33  809.4009
  34  874.9727
  35  866.1157
  36  909.6565
  37  838.2595
  38  774.2048
  39  875.468
  40  1033.534
  41  846.676
  42  810.8058
  43  844.9431
  44  901.3539
  45  927.0629
  46  879.4052
  47  901.9769
  48  859.3121
  49  872.2628
  50  876.3917
  51  808.8603
  52  848.9703
  53  891.9158
  54  875.2014
  55  893.0969
  56  922.8205
  57  897.7321
  58  951.1003
  59  871.4851
  60  836.0672
  61  889.9566
  62  831.2568
  63  740.3635
  64  701.6651
  65  785.5746
  66  799.0304
  67  791.3817
  68  789.4429
  69  812.8934
  70  782.1371
  71  748.9603
  72  703.9672
  73  706.4804
  74  731.3621
  75  738.2997
  76  750.8526
  77  727.278
  78  823.0325
  79  781.8749
  80  766.9083
  81  785.0512
  82  814.8483
  83  856.8561
  84  808.498
  85  856.5885
  86  801.7734
  87  743.3864
  88  772.6456
  89  752.7556
  90  772.9595
  91  663.5777
  92  654.7924
  93  790.8262
  94  817.4293
  95  733.8145
  96  802.1593
  97  812.4973
  98  824.5916
  99  796.2192
 100  806.8427
 101  794.0662
 102  638.6279
 103  747.2895
 104  856.5317
 105  713.8771
 106  820.0187
 107  973.1245
 108  981.3629
 109  929.8209
 110  881.1959
 111  929.0932
 112  874.0941
 113  857.0615
 114  933.9836
 115  963.7166
 116  861.6532
 117  816.218
 118  760.2495
 119  796.2093
 120  793.2399
 121  859.8176
 122  867.8417
 123  838.9323
 124  829.9543
 125  842.994
 126  839.7658
 127  850.2491
 128  846.5624
 129  890.9394
 130  927.8418
 131  838.7574
 132  847.7307
 133  999.7769
 134  921.0625
 135  935.1264
 136  955.6095
 137  899.8961
 138  925.9457
 139  865.8021
 140  825.183
 141  712.6732
 142  734.4863
 143  826.5201
 144  900.1215
 145  818.6385
 146  783.2048
 147  834.9748
 148  788.8304
 149  815.7302
 150  850.0659
 151  884.5203
 152  820.0149
 153  782.8721
 154  898.2613
 155  846.0945
 156  784.0464
 157  811.4574
 158  834.9236
 159  798.9858
 160  897.7654
 161  1011.756
 162  896.6145
 163  901.0205
 164  888.7341
 165  880.5095
 166  893.7305
 167  813.2772
 168  870.7845
 169  787.308
 170  867.379
 171  954.4997
 172  912.6212
 173  929.6716
 174  921.2935
 175  866.8265
 176  764.2029
 177  746.2919
 178  830.2343
 179  895.8223
 180  855.6778
 181  789.8958
 182  845.093
 183  870.1804
 184  816.2057
 185  901.99
 186  897.8767
 187  943.4016
 188  784.2274
 189  776.8213
 190  833.9127
 191  815.9559
 192  780.5512
 193  824.6794
 194  950.5252
 195  945.2867
 196  972.6068
 197  870.2006
 198  890.3547
 199  846.5493
 200  740.1422
 201  879.6917
 202  950.9831
 203  788.5466
 204  834.7051
 205  887.4636
 206  944.2857
 207  853.7575
 208  885.9223
 209  888.4607
 210  862.3931
 211  841.0547
 212  830.0927
 213  871.9399
 214  827.9891
 215  889.5286
 216  847.6632
 217  827.2856
 218  906.501
 219  947.0571
 220  905.5787
 221  884.874
 222  857.5839
 223  943.2866
 224  899.4025
 225  874.6857
 226  891.5511
 227  852.3141
 228  906.692
 229  915.7972
 230  855.9338
 231  881.2957
 232  821.5064
 233  869.7049
 234  826.4324
 235  834.5321
 236  924.4227
 237  981.9537
 238  893.048
 239  902.2088
 240  891.9272
 241  832.0951
 242  841.816
 243  1038.891
 244  1066.638
 245  930.6166
 246  927.3568
 247  940.6665
 248  892.522
 249  936.1314
 250  863.899
 251  869.5651
 252  881.4456
 253  936.8087
 254  885.8278
 255  800.8621
 256  894.7906
 257  924.536
 258  947.3003
 259  816.3606
 260  809.7368
 261  886.2059
 262  903.367
 263  903.5607
 264  809.0535
 265  776.4916
 266  778.0385
 267  844.3352
 268  875.8293
 269  811.068
 270  778.1652
 271  824.7931
 272  761.5129
 273  788.9069
 274  770.272
 275  816.1895
 276  856.8428
 277  842.2872
 278  881.4387
 279  814.4735
 280  754.3392
 281  738.5109
 282  861.4637
 283  891.8533
 284  821.3181
 285  767.0776
 286  865.2525
 287  918.4443
 288  957.6491
 289  963.6699
 290  1008.722
 291  1022.327
 292  929.9001
 293  893.4145
 294  823.1187
 295  845.362
 296  900.6508
 297  850.3881
 298  830.0389
 299  808.8926
 300  871.1174
 301  925.4539
 302  884.87
 303  885.1995
 304  851.3489
 305  916.0422
 306  910.5617
 307  900.0042
 308  910.9569
 309  810.9865
 310  895.9134
 311  979.1099
 312  905.4545
 313  887.5772
 314  854.7739
 315  1014.145
 316  946.984
 317  892.6813
 318  928.0606
 319  918.983
 320  903.1924
 321  879.565
 322  886.8627
 323  935.283
 324  925.778
 325  973.9474
 326  959.1138
 327  864.7123
 328  854.0201
 329  851.735
 330  818.2707
 331  837.7433
 332  947.9489
 333  963.5969
 334  958.6202
 335  922.0352
 336  858.7985
 337  895.2536
 338  875.028
 339  956.3156
 340  972.8961
 341  919.2062
 342  842.8506
 343  821.8745
 344  932.7289
 345  819.7361
 346  819.8707
 347  916.3373
 348  863.079
 349  855.0105
 350  853.659
 351  937.2554
 352  860.0842
 353  837.6029
 354  883.2686
 355  813.8322
 356  771.6428
 357  768.779
 358  868.1583
 359  833.5162
 360  869.0751
 361  862.0687
 362  874.7569
 363  882.0844
 364  881.4157
 365  904.0193
 366  872.4348
 367  799.3081
 368  808.1066
 369  871.3578
 370  859.6752
 371  846.0787
 372  886.5259
 373  901.7271
 374  937.0316
 375  884.2639
 376  867.5851
 377  835.8076
 378  861.9537
 379  903.173
 380  940.7905
 381  905.5386
 382  955.1786
 383  967.3207
 384  854.1345
 385  885.4792
 386  891.9112
 387  884.3984
 388  914.7842
 389  881.0681
 390  928.9427
 391  926.3403
 392  948.1765
 393  970.0732
 394  865.608
 395  786.7215
 396  717.3718
 397  716.3298
 398  736.6041
 399  715.1547
 400  794.1434
 401  843.7484
 402  800.4224
 403  700.7206
 404  773.7186
 405  834.9481
 406  824.2192
 407  809.8738
 408  829.5011
 409  783.5423
 410  749.8594
 411  806.1242
 412  823.2903
 413  886.7554
 414  830.3259
 415  779.7558
 416  787.0776
 417  782.6122
 418  777.3682
 419  775.3555
 420  817.4977
 421  869.3399
 422  883.7437
 423  946.066
 424  814.2717
 425  789.0145
 426  852.8814
 427  798.675
 428  791.3573
 429  791.428
 430  769.4224
 431  751.4538
 432  787.3557
 433  826.2499
 434  914.7488
 435  894.8096
 436  922.3603
 437  974.521
 438  950.2386
 439  958.8274
 440  894.873
 441  915.7023
 442  951.4929
 443  956.2548
 444  1037.352
 445  1008.748
 446  919.8937
 447  840.5978
 448  789.9952
 449  861.9915
 450  883.7864
 451  899.7044
 452  930.6448
 453  832.6759
 454  904.5627
 455  926.6306
 456  851.9022
 457  867.5596
 458  964.8745
 459  954.2449
 460  928.8987
 461  933.5505
 462  925.7321
 463  767.8556
 464  746.4014
 465  800.392
 466  806.5379
 467  805.308
 468  782.9322
 469  887.007
 470  819.9301
 471  903.3192
 472  991.8093
 473  985.9529
 474  950.8173
 475  986.4088
 476  951.0506
 477  898.7065
 478  821.0479
 479  907.6745
 480  935.3773
 481  833.7683
 482  773.0031
 483  819.9603
 484  919.6438
 485  807.4698
 486  786.9645
 487  870.4537
 488  842.6887
 489  742.1134
 490  742.2894
 491  844.8459
 492  877.5759
 493  857.8332
 494  871.716
 495  865.6586
 496  848.5471
 497  822.1377
 498  870.7501
 499  906.1292
 500  838.7789
 501  777.0331
 502  721.5323
 503  784.4308
 504  842.328
 505  804.6052
 506  823.2553
 507  947.0096
 508  976.579
 509  998.6929
 510  1207.363
 511  1269.727
