# Input file       =  1195573752.099748_cleaned.dat
# Candidate        =  PSR_0332+5434
# Telescope        =  AR
# Epoch_topo       =  58081.658959487824
# Epoch_bary       =  N/A
# T_sample         =  0.002
# Data Folded      =  7143424
# Data Avg         =  0.051912043459774
# Data StdDev      =  1.00021519998701 
# Profile Bins     =  512
# Profile Avg      =  724.291854540671 
# Profile StdDev   =  118.144003599713 
# Reduced chi-sqr  =  0.577
# Prob(Noise)      <  1   (~0.0 sigma)
# P_topo (ms)      =  714.519099170249  +/- 6.44e-05
# P'_topo (s/s)    =  -0                +/- 3.49e-11
# P''_topo (s/s^2) =  0                 +/- 1.58e-14
# P_bary (ms)      =  N/A
# P'_bary (s/s)    =  N/A
# P''_bary (s/s^2) =  N/A
# P_orb (s)        =  N/A
# asin(i)/c (s)    =  N/A
# eccentricity     =  N/A
# w (rad)          =  N/A
# T_peri           =  N/A
######################################################
   0  987.333
   1  945.679
   2  883.0257
   3  828.4324
   4  694.6461
   5  689.3897
   6  714.815
   7  734.3441
   8  672.6931
   9  720.4534
  10  792.8289
  11  774.6909
  12  692.7186
  13  749.5321
  14  677.189
  15  703.6097
  16  754.0701
  17  827.0595
  18  727.144
  19  723.2902
  20  683.7442
  21  705.0566
  22  758.2253
  23  764.8065
  24  795.6815
  25  818.8416
  26  772.5037
  27  672.5488
  28  704.056
  29  696.4858
  30  645.9025
  31  735.0964
  32  718.3096
  33  754.0325
  34  778.861
  35  732.3228
  36  752.967
  37  723.4559
  38  826.8317
  39  689.9811
  40  621.0461
  41  661.211
  42  717.334
  43  667.4542
  44  627.9141
  45  718.5096
  46  790.903
  47  759.1086
  48  756.1526
  49  729.804
  50  739.744
  51  705.646
  52  733.1649
  53  800.7648
  54  752.2259
  55  786.8685
  56  822.8068
  57  809.881
  58  708.922
  59  702.7999
  60  721.7006
  61  736.2574
  62  836.6434
  63  886.697
  64  803.2371
  65  739.1765
  66  769.7581
  67  810.3766
  68  714.564
  69  654.8145
  70  696.832
  71  762.5372
  72  789.8143
  73  721.8005
  74  704.2632
  75  716.8199
  76  657.8608
  77  727.9338
  78  715.9978
  79  656.3083
  80  660.637
  81  736.2043
  82  794.1813
  83  674.8992
  84  650.4354
  85  677.1633
  86  600.3771
  87  603.4781
  88  635.6997
  89  776.4498
  90  776.8201
  91  757.0332
  92  647.4791
  93  665.9542
  94  674.1625
  95  721.1244
  96  755.6815
  97  677.3802
  98  791.9556
  99  768.8915
 100  715.3393
 101  652.8536
 102  672.425
 103  714.374
 104  722.2684
 105  704.6829
 106  826.4872
 107  880.8715
 108  851.2999
 109  787.3612
 110  758.009
 111  744.7076
 112  753.8605
 113  731.3069
 114  794.0908
 115  689.9639
 116  555.6537
 117  601.5399
 118  634.1361
 119  710.2306
 120  756.8072
 121  715.5867
 122  727.7834
 123  679.2467
 124  783.8414
 125  744.3937
 126  662.141
 127  696.4802
 128  705.6377
 129  676.743
 130  766.1321
 131  742.9228
 132  684.28
 133  670.1696
 134  723.6356
 135  633.5503
 136  666.3479
 137  725.886
 138  689.9985
 139  739.3932
 140  754.7988
 141  704.6426
 142  684.0024
 143  654.309
 144  715.0258
 145  690.7895
 146  721.2773
 147  785.2902
 148  803.5706
 149  754.0343
 150  585.1357
 151  626.1913
 152  725.8655
 153  794.4302
 154  780.4458
 155  753.0009
 156  799.2034
 157  749.3046
 158  701.6331
 159  722.1977
 160  769.1072
 161  754.6589
 162  778.4075
 163  729.2091
 164  687.8992
 165  699.3224
 166  723.7324
 167  864.9453
 168  820.2311
 169  665.9706
 170  629.5463
 171  638.2557
 172  687.768
 173  680.7537
 174  643.2184
 175  651.8356
 176  641.5818
 177  674.1367
 178  690.5637
 179  681.8226
 180  716.2018
 181  775.7051
 182  723.3649
 183  586.6838
 184  537.618
 185  642.63
 186  666.5583
 187  726.2433
 188  656.6284
 189  680.7961
 190  704.1593
 191  710.4096
 192  651.4284
 193  690.3747
 194  802.6185
 195  772.873
 196  816.7773
 197  753.3708
 198  686.7843
 199  734.4614
 200  680.6246
 201  714.205
 202  747.5095
 203  708.8602
 204  820.0016
 205  744.0982
 206  807.1934
 207  732.7238
 208  746.5209
 209  825.8248
 210  835.8154
 211  826.407
 212  782.3656
 213  785.507
 214  725.2092
 215  744.3538
 216  754.302
 217  721.5004
 218  764.9425
 219  842.1101
 220  784.5871
 221  703.9178
 222  633.8793
 223  665.9304
 224  678.4675
 225  712.5014
 226  677.9154
 227  693.2565
 228  782.1395
 229  665.3423
 230  632.4019
 231  623.7504
 232  731.8324
 233  749.1265
 234  738.6393
 235  812.9347
 236  711.1301
 237  748.2672
 238  729.4244
 239  730.4637
 240  723.9099
 241  673.4826
 242  709.9269
 243  823.8135
 244  770.3019
 245  650.8563
 246  665.9823
 247  811.4078
 248  868.281
 249  874.7256
 250  806.5762
 251  699.7162
 252  672.2978
 253  699.2592
 254  708.0627
 255  672.7974
 256  763.8279
 257  828.0534
 258  756.631
 259  729.497
 260  773.5554
 261  742.2484
 262  714.2369
 263  720.5243
 264  785.0968
 265  761.5191
 266  701.7116
 267  752.991
 268  723.6745
 269  708.7356
 270  664.4615
 271  730.6074
 272  750.815
 273  766.4321
 274  732.5131
 275  690.3763
 276  686.2507
 277  654.9279
 278  751.561
 279  641.3879
 280  747.8231
 281  799.6526
 282  798.7653
 283  628.3785
 284  564.2613
 285  701.0547
 286  752.8492
 287  677.2987
 288  675.6407
 289  660.4752
 290  613.485
 291  726.6203
 292  735.2696
 293  698.2173
 294  737.4175
 295  693.5598
 296  624.3844
 297  631.4135
 298  660.8666
 299  716.1135
 300  727.1334
 301  750.9452
 302  708.9879
 303  626.2867
 304  633.0013
 305  702.3414
 306  693.7521
 307  713.3706
 308  698.3001
 309  778.7823
 310  807.1797
 311  816.906
 312  713.4109
 313  669.5552
 314  732.8304
 315  789.3119
 316  810.8387
 317  690.8234
 318  687.6399
 319  661.3436
 320  693.6577
 321  766.7804
 322  734.7264
 323  772.646
 324  814.8045
 325  851.1425
 326  801.5474
 327  763.7807
 328  718.1564
 329  683.1273
 330  684.8394
 331  686.6846
 332  621.8464
 333  676.3306
 334  685.5896
 335  610.6672
 336  619.5576
 337  691.334
 338  773.9529
 339  745.514
 340  717.0149
 341  744.4679
 342  760.3534
 343  768.1115
 344  771.8991
 345  739.8427
 346  738.0848
 347  715.0952
 348  786.6453
 349  795.4753
 350  784.5037
 351  717.9222
 352  707.2382
 353  664.7726
 354  684.7008
 355  681.3753
 356  705.1684
 357  698.6317
 358  709.6754
 359  754.2883
 360  746.2258
 361  755.8946
 362  731.2576
 363  762.0379
 364  707.8844
 365  699.144
 366  740.8735
 367  821.8853
 368  799.494
 369  773.164
 370  661.4174
 371  708.7645
 372  722.0065
 373  656.6948
 374  631.2854
 375  684.5646
 376  796.756
 377  769.6268
 378  702.2186
 379  611.8876
 380  640.8793
 381  669.5535
 382  777.8882
 383  755.8976
 384  702.504
 385  715.4871
 386  701.3835
 387  646.4426
 388  596.2693
 389  606.8929
 390  569.8476
 391  694.6848
 392  751.5405
 393  747.8159
 394  765.4347
 395  798.4317
 396  794.5427
 397  732.2866
 398  793.9369
 399  751.6265
 400  834.1638
 401  690.913
 402  717.5897
 403  769.7948
 404  731.48
 405  789.1198
 406  750.0737
 407  783.3309
 408  731.0082
 409  745.9878
 410  785.418
 411  775.4506
 412  653.9783
 413  603.7369
 414  655.7737
 415  740.0228
 416  738.9202
 417  755.8419
 418  772.9128
 419  836.0119
 420  794.0232
 421  818.5089
 422  649.8024
 423  607.3251
 424  739.2675
 425  833.2776
 426  776.5072
 427  659.1295
 428  665.4795
 429  696.3734
 430  768.0867
 431  817.4995
 432  715.925
 433  635.1859
 434  680.13
 435  590.1337
 436  682.959
 437  632.9039
 438  715.5139
 439  766.9001
 440  786.2692
 441  773.0515
 442  736.8054
 443  786.8255
 444  745.9265
 445  714.3676
 446  700.8105
 447  679.9289
 448  740.5791
 449  839.0598
 450  921.4314
 451  743.7302
 452  628.9597
 453  671.5116
 454  749.0175
 455  783.5302
 456  681.942
 457  710.8096
 458  683.707
 459  674.6603
 460  659.2345
 461  586.0026
 462  683.7499
 463  635.1768
 464  633.2675
 465  639.5758
 466  682.9977
 467  717.1299
 468  755.8057
 469  726.2884
 470  616.4464
 471  580.359
 472  700.3577
 473  654.0609
 474  654.0693
 475  708.0824
 476  738.5645
 477  771.6105
 478  696.7332
 479  760.7094
 480  691.9307
 481  670.6927
 482  690.8008
 483  750.8213
 484  688.1072
 485  640.3757
 486  682.3368
 487  555.9236
 488  606.5273
 489  650.1965
 490  702.239
 491  840.7358
 492  764.3318
 493  790.296
 494  735.3343
 495  692.155
 496  733.1766
 497  739.0648
 498  754.5485
 499  657.3248
 500  727.5333
 501  715.6408
 502  852.1365
 503  858.1066
 504  649.2621
 505  651.1948
 506  760.0257
 507  907.5352
 508  834.0219
 509  858.0864
 510  841.2144
 511  961.9033
