# Input file       =  1195588322.105109_cleaned.dat
# Candidate        =  PSR_0332+5434
# Telescope        =  AR
# Epoch_topo       =  58081.827593809132
# Epoch_bary       =  N/A
# T_sample         =  0.002
# Data Folded      =  7340032
# Data Avg         =  0.0681863657961874
# Data StdDev      =  1.00022764718781 
# Profile Bins     =  512
# Profile Avg      =  977.498965246643 
# Profile StdDev   =  119.760293265786 
# Reduced chi-sqr  =  0.729
# Prob(Noise)      <  1   (~0.0 sigma)
# P_topo (ms)      =  714.519296644229  +/- 0.000151
# P'_topo (s/s)    =  -0                +/- 7.99e-11
# P''_topo (s/s^2) =  0                 +/- 3.53e-14
# P_bary (ms)      =  N/A
# P'_bary (s/s)    =  N/A
# P''_bary (s/s^2) =  N/A
# P_orb (s)        =  N/A
# asin(i)/c (s)    =  N/A
# eccentricity     =  N/A
# w (rad)          =  N/A
# T_peri           =  N/A
######################################################
   0  1462.87
   1  1343.067
   2  1116.34
   3  1028.667
   4  1015.658
   5  1027.732
   6  952.2534
   7  934.1464
   8  858.4093
   9  879.6354
  10  925.6411
  11  976.0104
  12  940.5875
  13  975.868
  14  1085.864
  15  1027.632
  16  930.0882
  17  981.2722
  18  893.212
  19  942.2125
  20  1044.759
  21  980.4227
  22  1029.818
  23  1015.766
  24  974.3154
  25  1008.974
  26  1039.906
  27  895.2656
  28  1078.289
  29  1153.568
  30  1059.278
  31  889.6106
  32  894.6509
  33  1013.227
  34  935.0744
  35  962.8077
  36  949.5233
  37  953.7336
  38  964.8848
  39  984.4214
  40  1052.976
  41  981.2515
  42  1118.969
  43  1069.731
  44  971.5382
  45  952.9199
  46  1032.488
  47  978.577
  48  969.066
  49  1011.98
  50  998.2362
  51  890.2834
  52  908.8483
  53  966.7946
  54  945.8293
  55  979.8642
  56  1036.662
  57  1105.77
  58  1075.307
  59  966.6978
  60  884.21
  61  897.3188
  62  1017.621
  63  901.494
  64  888.9249
  65  938.1956
  66  922.3113
  67  933.3751
  68  1026.619
  69  1105.371
  70  1046.112
  71  997.4263
  72  942.038
  73  976.1472
  74  906.0598
  75  820.884
  76  865.893
  77  956.4497
  78  1012.227
  79  1022.503
  80  974.9584
  81  949.8452
  82  947.2882
  83  1041.135
  84  976.7568
  85  915.3182
  86  918.7624
  87  920.4366
  88  920.3797
  89  924.1702
  90  964.0376
  91  912.8611
  92  939.1861
  93  943.537
  94  877.2721
  95  913.1481
  96  946.9344
  97  1015.713
  98  875.2802
  99  885.7112
 100  963.3303
 101  954.1121
 102  931.9216
 103  977.3398
 104  924.7027
 105  930.6663
 106  965.1412
 107  967.4534
 108  963.4709
 109  982.6801
 110  991.8102
 111  947.3595
 112  963.2437
 113  881.0048
 114  955.8453
 115  969.0109
 116  957.808
 117  981.4303
 118  894.7908
 119  930.048
 120  923.4231
 121  951.5436
 122  968.7655
 123  1025.465
 124  1019.152
 125  1028.758
 126  1053.522
 127  991.1777
 128  1062.274
 129  961.0581
 130  963.2106
 131  950.7595
 132  963.8171
 133  862.0079
 134  809.4781
 135  894.5337
 136  920.1474
 137  920.8388
 138  928.0857
 139  936.9933
 140  939.2047
 141  911.835
 142  941.4895
 143  950.9746
 144  906.4537
 145  852.6688
 146  881.0824
 147  964.4014
 148  977.3375
 149  952.5692
 150  930.9648
 151  871.2078
 152  842.4177
 153  952.8312
 154  958.7519
 155  1002.96
 156  919.9628
 157  934.2225
 158  958.4923
 159  1029.847
 160  1009.919
 161  942.6772
 162  982.1953
 163  1040.378
 164  1103.817
 165  1050.186
 166  1034.182
 167  992.7454
 168  962.5378
 169  999.7273
 170  996.228
 171  1092.459
 172  1048.941
 173  998.431
 174  988.5805
 175  996.9713
 176  850.2796
 177  860.1831
 178  1025.069
 179  1075.697
 180  1118.943
 181  990.9728
 182  1025.186
 183  1041.63
 184  1012.925
 185  1071.789
 186  1065.609
 187  1058.057
 188  1026.657
 189  978.6649
 190  942.259
 191  907.296
 192  931.5353
 193  1043.495
 194  1049.604
 195  1018.623
 196  1017.258
 197  970.334
 198  932.5699
 199  939.86
 200  1050.974
 201  1124.131
 202  1032.865
 203  1045.247
 204  1078.398
 205  1050.4
 206  978.0821
 207  929.8104
 208  1010.928
 209  1028.221
 210  1106.657
 211  1026.535
 212  1086.049
 213  1019.068
 214  1028.524
 215  955.6516
 216  961.2468
 217  951.0508
 218  913.2673
 219  925.1053
 220  944.287
 221  966.231
 222  1013.823
 223  949.403
 224  879.1482
 225  1034.442
 226  1095.988
 227  1017.225
 228  901.1147
 229  940.0441
 230  999.8762
 231  1049.087
 232  1057.767
 233  957.1283
 234  923.6686
 235  953.9945
 236  1015.332
 237  1039.831
 238  982.1832
 239  924.2321
 240  841.488
 241  954.3568
 242  937.2705
 243  1005.4
 244  1039.807
 245  1005.298
 246  995.5174
 247  1002.71
 248  993.1132
 249  930.6355
 250  1048.984
 251  1093.509
 252  1015.326
 253  1122.737
 254  1006.351
 255  1031.826
 256  855.734
 257  928.2234
 258  947.684
 259  943.3457
 260  1096.72
 261  1070.964
 262  1017.8
 263  1004.918
 264  1071.187
 265  1044.796
 266  1008.581
 267  951.0225
 268  958.261
 269  977.0252
 270  967.421
 271  852.5314
 272  960.0322
 273  974.5618
 274  916.0999
 275  920.0444
 276  878.0654
 277  922.6533
 278  959.7872
 279  1001.84
 280  976.7374
 281  901.809
 282  1002.98
 283  928.4263
 284  986.5498
 285  870.6505
 286  971.1335
 287  1056.141
 288  1052.995
 289  1014.25
 290  893.8433
 291  909.5344
 292  893.364
 293  972.2238
 294  949.2091
 295  969.7953
 296  963.8309
 297  964.6778
 298  983.2912
 299  872.0265
 300  976.2772
 301  1000.773
 302  1018.817
 303  1015.978
 304  950.9129
 305  878.3816
 306  903.0438
 307  1027.187
 308  1119.382
 309  995.5034
 310  890.2836
 311  975.3592
 312  935.9858
 313  914.6699
 314  964.207
 315  1017.295
 316  1041.927
 317  1007.176
 318  1004.353
 319  1037.506
 320  1020.109
 321  978.5184
 322  985.3716
 323  1089.437
 324  1041.712
 325  998.5617
 326  944.2645
 327  1020.77
 328  976.5363
 329  986.4362
 330  1055.234
 331  965.9933
 332  944.787
 333  931.1032
 334  991.2548
 335  986.0392
 336  1081.62
 337  1103.333
 338  986.7123
 339  973.877
 340  992.1558
 341  886.9017
 342  861.5738
 343  1011.596
 344  1043.756
 345  1024.135
 346  1058.932
 347  930.8245
 348  955.9842
 349  887.7573
 350  966.2792
 351  964.1122
 352  967.2454
 353  1021.111
 354  1081.382
 355  1068.986
 356  974.8461
 357  973.0643
 358  981.1544
 359  1011.717
 360  921.8896
 361  892.835
 362  889.7477
 363  890.8697
 364  956.5183
 365  932.2772
 366  889.0845
 367  810.9219
 368  892.4335
 369  929.9761
 370  1032.327
 371  992.3162
 372  1039.424
 373  1034.089
 374  948.1934
 375  974.4531
 376  894.4958
 377  931.0016
 378  955.775
 379  944.4933
 380  1005.264
 381  899.7537
 382  1009.312
 383  911.7105
 384  866.0339
 385  848.6711
 386  929.0407
 387  935.2956
 388  972.0305
 389  1011.417
 390  940.0887
 391  893.3779
 392  924.0781
 393  991.4398
 394  978.9113
 395  931.1664
 396  924.3235
 397  938.6608
 398  891.4077
 399  891.2379
 400  1005.333
 401  993.0911
 402  978.6816
 403  921.0665
 404  997.9659
 405  993.4342
 406  959.0381
 407  895.0573
 408  990.5483
 409  1016.916
 410  1016.574
 411  1048.52
 412  1066.773
 413  1026.542
 414  993.6774
 415  1036.962
 416  987.5814
 417  969.7065
 418  995.7673
 419  937.4261
 420  965.8496
 421  1009.995
 422  973.4296
 423  950.1989
 424  855.7595
 425  994.8517
 426  966.5876
 427  900.7492
 428  858.1851
 429  878.9745
 430  969.2672
 431  981.5452
 432  973.4157
 433  874.6758
 434  850.71
 435  767.5972
 436  913.8176
 437  855.2393
 438  794.9573
 439  823.8029
 440  875.9387
 441  921.1354
 442  974.1235
 443  913.1484
 444  904.1647
 445  1005.689
 446  1061.632
 447  1086.473
 448  1017.174
 449  1016.569
 450  1116.425
 451  1125.061
 452  1071.122
 453  994.3336
 454  997.3314
 455  1031.441
 456  1021.558
 457  987.0705
 458  971.9586
 459  976.4938
 460  911.546
 461  1035.482
 462  1019.381
 463  1023.793
 464  959.8311
 465  969.1844
 466  1059.296
 467  925.4277
 468  970.1636
 469  1094.832
 470  1075.753
 471  944.8632
 472  863.8168
 473  862.1121
 474  945.1761
 475  1034.053
 476  990.708
 477  949.6877
 478  972.9723
 479  1007.844
 480  1017.493
 481  945.6992
 482  944.3759
 483  950.0514
 484  1003.213
 485  860.8333
 486  929.5215
 487  915.0497
 488  881.0546
 489  913.6064
 490  1004.869
 491  984.4987
 492  946.2253
 493  1066.907
 494  1018.048
 495  1036.168
 496  976.2323
 497  1053.101
 498  1011.786
 499  910.3572
 500  870.6123
 501  873.8904
 502  1023.561
 503  1087.58
 504  1083.16
 505  1062.49
 506  1113.517
 507  1056.971
 508  1178.678
 509  1247.358
 510  1287.901
 511  1363.473
