# Input file       =  1195517101.114235_cleaned.dat
# Candidate        =  PSR_0332+5434
# Telescope        =  AR
# Epoch_topo       =  58081.003276785130
# Epoch_bary       =  N/A
# T_sample         =  0.002
# Data Folded      =  7340032
# Data Avg         =  0.0376891367586257
# Data StdDev      =  1.00018301220822 
# Profile Bins     =  512
# Profile Avg      =  540.305377016516 
# Profile StdDev   =  119.754948984151 
# Reduced chi-sqr  =  0.916
# Prob(Noise)      <  0.914   (~0.0 sigma)
# P_topo (ms)      =  714.518781463094  +/- 0.000343
# P'_topo (s/s)    =  -0                +/- 1.81e-10
# P''_topo (s/s^2) =  0                 +/- 7.98e-14
# P_bary (ms)      =  N/A
# P'_bary (s/s)    =  N/A
# P''_bary (s/s^2) =  N/A
# P_orb (s)        =  N/A
# asin(i)/c (s)    =  N/A
# eccentricity     =  N/A
# w (rad)          =  N/A
# T_peri           =  N/A
######################################################
   0  961.9746
   1  948.0112
   2  884.3365
   3  743.5568
   4  646.3961
   5  594.6359
   6  546.4958
   7  498.8995
   8  518.0328
   9  480.0457
  10  473.3747
  11  511.0973
  12  585.6606
  13  550.8976
  14  564.4266
  15  481.1724
  16  646.1458
  17  644.5499
  18  598.262
  19  501.8683
  20  540.1468
  21  485.3892
  22  443.0018
  23  530.1924
  24  547.1902
  25  477.2301
  26  451.3941
  27  445.1597
  28  416.1495
  29  423.5338
  30  506.5421
  31  462.7422
  32  461.9096
  33  526.1571
  34  552.9998
  35  551.0339
  36  469.1227
  37  510.2389
  38  540.0453
  39  439.8203
  40  480.9542
  41  568.2479
  42  534.7211
  43  473.4608
  44  553.5479
  45  527.1469
  46  431.5875
  47  492.3277
  48  500.7362
  49  503.2834
  50  416.7549
  51  512.8634
  52  583.0874
  53  690.1388
  54  614.5142
  55  504.5991
  56  528.285
  57  527.0861
  58  430.0039
  59  520.825
  60  600.2174
  61  458.3849
  62  426.616
  63  490.5032
  64  433.1848
  65  461.7257
  66  611.2452
  67  664.6561
  68  507.7796
  69  515.2126
  70  600.9701
  71  524.7938
  72  664.8619
  73  642.3512
  74  560.4005
  75  626.3282
  76  624.8713
  77  486.0248
  78  320.5589
  79  414.3184
  80  554.5275
  81  608.723
  82  610.8017
  83  468.6726
  84  474.7149
  85  632.178
  86  503.2383
  87  513.5938
  88  528.3182
  89  592.4824
  90  590.0424
  91  533.044
  92  571.2032
  93  567.3829
  94  622.8082
  95  747.765
  96  620.3088
  97  506.5922
  98  462.7462
  99  434.9716
 100  447.0931
 101  504.8062
 102  544.4246
 103  346.6782
 104  383.3564
 105  469.6074
 106  580.6532
 107  565.7792
 108  518.7562
 109  581.9472
 110  670.2852
 111  683.507
 112  573.4823
 113  572.6722
 114  607.1876
 115  634.8281
 116  597.6226
 117  486.3825
 118  536.1199
 119  447.8289
 120  533.9232
 121  532.3099
 122  543.6431
 123  563.4745
 124  527.9819
 125  464.028
 126  432.4641
 127  547.5402
 128  564.3521
 129  421.7077
 130  404.741
 131  557.3087
 132  504.3463
 133  395.2272
 134  396.1363
 135  385.7657
 136  540.7257
 137  472.295
 138  518.242
 139  462.0439
 140  384.3428
 141  477.4493
 142  477.6041
 143  571.518
 144  509.1784
 145  555.9328
 146  511.8781
 147  448.8944
 148  435.1353
 149  494.1331
 150  604.1075
 151  595.1154
 152  474.9574
 153  459.2444
 154  456.6565
 155  505.8848
 156  489.4472
 157  418.93
 158  441.193
 159  492.7325
 160  586.048
 161  509.9283
 162  508.2338
 163  509.9828
 164  554.9783
 165  624.8661
 166  626.6121
 167  613.5076
 168  578.9457
 169  514.2191
 170  564.7311
 171  580.0324
 172  652.5272
 173  568.1864
 174  493.9244
 175  506.4377
 176  445.0311
 177  511.943
 178  510.5634
 179  504.6786
 180  594.7514
 181  527.5248
 182  499.8036
 183  566.7164
 184  543.0126
 185  529.4149
 186  500.6882
 187  477.1256
 188  423.5647
 189  433.8152
 190  529.4365
 191  539.6314
 192  566.8713
 193  610.5946
 194  610.1783
 195  530.7826
 196  456.5924
 197  556.1967
 198  607.5018
 199  642.2849
 200  594.912
 201  548.6361
 202  497.8289
 203  578.2985
 204  566.9117
 205  629.4356
 206  562.0775
 207  603.3945
 208  612.5923
 209  597.9929
 210  459.5656
 211  511.7139
 212  529.3981
 213  547.6261
 214  553.4176
 215  581.2123
 216  609.2284
 217  692.1722
 218  670.3156
 219  622.7852
 220  581.5495
 221  506.0197
 222  386.7922
 223  512.2394
 224  617.8329
 225  620.0032
 226  608.0549
 227  517.693
 228  532.1108
 229  530.2791
 230  461.9857
 231  466.6726
 232  424.2642
 233  562.6011
 234  517.0351
 235  550.1743
 236  605.8621
 237  569.382
 238  549.9368
 239  440.6195
 240  448.7097
 241  449.6396
 242  524.139
 243  603.0117
 244  546.2625
 245  582.8599
 246  486.921
 247  546.8292
 248  566.6766
 249  544.9048
 250  573.7525
 251  537.428
 252  495.8546
 253  511.431
 254  477.8622
 255  529.6035
 256  605.6995
 257  548.21
 258  541.1556
 259  591.7032
 260  696.2477
 261  609.2804
 262  514.0144
 263  408.9651
 264  500.3926
 265  564.3878
 266  486.5444
 267  440.6276
 268  488.2794
 269  425.7414
 270  501.1746
 271  561.5181
 272  522.4171
 273  514.8962
 274  471.2035
 275  480.4792
 276  526.1546
 277  555.5047
 278  561.0683
 279  562.7809
 280  542.8875
 281  628.6506
 282  566.5549
 283  500.9016
 284  652.9971
 285  689.0662
 286  609.8835
 287  585.0095
 288  557.6991
 289  556.9556
 290  514.5523
 291  533.178
 292  624.1667
 293  569.4862
 294  562.0984
 295  588.1403
 296  511.0093
 297  572.056
 298  595.4885
 299  448.2913
 300  452.6642
 301  511.6486
 302  512.2433
 303  543.8658
 304  481.4933
 305  380.1411
 306  494.8794
 307  433.0353
 308  449.0152
 309  515.2493
 310  533.0306
 311  510.7753
 312  435.3916
 313  441.0156
 314  473.037
 315  593.4628
 316  567.0573
 317  504.6109
 318  468.2058
 319  325.0145
 320  489.9013
 321  602.5237
 322  577.2095
 323  668.0948
 324  614.8708
 325  451.0471
 326  451.5479
 327  605.4324
 328  521.8541
 329  530.226
 330  627.9659
 331  768.41
 332  669.9731
 333  478.3528
 334  463.8561
 335  498.883
 336  503.3895
 337  556.8015
 338  569.0611
 339  545.0955
 340  490.0433
 341  561.2595
 342  520.4481
 343  511.0896
 344  542.0604
 345  571.8226
 346  549.5063
 347  591.8113
 348  664.6114
 349  622.5109
 350  627.2091
 351  549.2131
 352  584.3554
 353  626.6215
 354  628.809
 355  599.2194
 356  640.9489
 357  559.559
 358  527.9274
 359  577.8911
 360  516.4202
 361  542.8656
 362  590.0413
 363  494.3582
 364  481.1367
 365  562.1866
 366  378.8727
 367  304.6693
 368  483.7184
 369  407.7507
 370  516.1876
 371  615.6562
 372  592.871
 373  514.0317
 374  606.0103
 375  493.6125
 376  393.1328
 377  444.0027
 378  459.2428
 379  471.1858
 380  505.8161
 381  539.1496
 382  558.4125
 383  544.2598
 384  622.3193
 385  554.9886
 386  456.8394
 387  500.6968
 388  676.2717
 389  702.9077
 390  591.3521
 391  600.9928
 392  572.169
 393  562.296
 394  534.7531
 395  618.1772
 396  652.3477
 397  577.6766
 398  500.0904
 399  538.7415
 400  583.6608
 401  477.8912
 402  557.8262
 403  543.3792
 404  519.556
 405  473.6181
 406  477.838
 407  470.3303
 408  449.831
 409  506.7799
 410  465.6191
 411  450.4825
 412  607.2379
 413  614.9272
 414  645.255
 415  607.8856
 416  632.9204
 417  655.1479
 418  640.5004
 419  599.0526
 420  590.343
 421  655.6767
 422  607.8118
 423  467.6217
 424  521.7945
 425  474.6521
 426  515.8488
 427  526.4136
 428  517.437
 429  513.1198
 430  613.9338
 431  633.7656
 432  514.4229
 433  503.0591
 434  403.6693
 435  453.296
 436  567.1517
 437  507.1194
 438  491.8138
 439  518.0737
 440  525.8605
 441  507.463
 442  508.5183
 443  571.1487
 444  614.9986
 445  449.9632
 446  529.353
 447  571.6545
 448  593.9852
 449  552.1481
 450  533.4444
 451  579.2728
 452  484.2576
 453  513.6794
 454  615.2859
 455  580.2156
 456  571.9547
 457  543.5554
 458  489.5146
 459  436.3148
 460  437.2733
 461  413.3499
 462  525.441
 463  593.7215
 464  641.2215
 465  617.2039
 466  547.3372
 467  524.0723
 468  481.5526
 469  464.3105
 470  544.8397
 471  566.0213
 472  637.8981
 473  562.7665
 474  670.46
 475  709.1296
 476  495.7526
 477  514.0023
 478  556.9396
 479  549.1251
 480  508.1913
 481  605.3092
 482  532.176
 483  508.2293
 484  589.5801
 485  722.5443
 486  541.5886
 487  419.5325
 488  483.2463
 489  488.4344
 490  494.936
 491  524.0186
 492  537.4796
 493  576.9305
 494  490.5683
 495  419.6371
 496  457.5974
 497  519.0148
 498  486.6288
 499  456.315
 500  492.7876
 501  500.9831
 502  533.1045
 503  669.4652
 504  541.9475
 505  524.9598
 506  662.6487
 507  755.0715
 508  812.0511
 509  823.8384
 510  942.2908
 511  953.3828
