# Input file       =  1195156967.112164_cleaned.dat
# Candidate        =  PSR_0332+5434
# Telescope        =  AR
# Epoch_topo       =  58076.835059168567
# Epoch_bary       =  N/A
# T_sample         =  0.002
# Data Folded      =  7340032
# Data Avg         =  0.0573536789368944
# Data StdDev      =  1.00014884991658 
# Profile Bins     =  512
# Profile Avg      =  822.1767550122   
# Profile StdDev   =  119.750858629243 
# Reduced chi-sqr  =  0.652
# Prob(Noise)      <  1   (~0.0 sigma)
# P_topo (ms)      =  714.514127427183  +/- 0.000345
# P'_topo (s/s)    =  -0                +/- 1.82e-10
# P''_topo (s/s^2) =  0                 +/- 8.04e-14
# P_bary (ms)      =  N/A
# P'_bary (s/s)    =  N/A
# P''_bary (s/s^2) =  N/A
# P_orb (s)        =  N/A
# asin(i)/c (s)    =  N/A
# eccentricity     =  N/A
# w (rad)          =  N/A
# T_peri           =  N/A
######################################################
   0  1119.861
   1  1069.386
   2  1039.134
   3  979.0809
   4  876.608
   5  776.8729
   6  818.3936
   7  874.6494
   8  899.5369
   9  790.1919
  10  729.5
  11  788.5457
  12  788.0823
  13  778.3118
  14  807.0274
  15  779.4259
  16  872.8011
  17  817.5822
  18  869.9985
  19  823.6453
  20  726.881
  21  822.7322
  22  898.1138
  23  730.743
  24  710.5355
  25  839.1213
  26  838.2451
  27  773.1184
  28  726.0538
  29  819.4529
  30  839.746
  31  925.6957
  32  901.4299
  33  830.6372
  34  768.9875
  35  750.7625
  36  767.046
  37  720.8555
  38  818.7386
  39  898.4402
  40  803.8993
  41  772.5786
  42  846.0034
  43  887.6527
  44  795.8682
  45  766.9623
  46  733.2476
  47  760.0854
  48  819.9661
  49  812.0557
  50  818.0086
  51  781.2849
  52  725.2226
  53  713.4922
  54  813.8873
  55  806.4522
  56  767.3759
  57  809.7911
  58  774.4044
  59  746.1333
  60  822.004
  61  815.2994
  62  753.0883
  63  775.3489
  64  864.5088
  65  862.3705
  66  812.2573
  67  864.0376
  68  853.1917
  69  736.7349
  70  782.4681
  71  912.5893
  72  827.9593
  73  770.0314
  74  797.8427
  75  819.0439
  76  775.7529
  77  810.5096
  78  810.8987
  79  753.1152
  80  707.6896
  81  758.7087
  82  788.4376
  83  749.0468
  84  785.0031
  85  860.7029
  86  870.3923
  87  828.3606
  88  851.4388
  89  848.0148
  90  827.1505
  91  811.2462
  92  799.1216
  93  842.4318
  94  844.5541
  95  887.9105
  96  822.1758
  97  745.3909
  98  758.2308
  99  773.8939
 100  835.2774
 101  859.7402
 102  859.0594
 103  779.7414
 104  792.0568
 105  779.7556
 106  768.9846
 107  868.5762
 108  877.8972
 109  837.2382
 110  877.709
 111  847.8484
 112  786.4094
 113  715.0492
 114  805.2699
 115  825.6454
 116  835.2243
 117  818.9509
 118  817.7166
 119  803.7264
 120  894.1886
 121  959.9798
 122  925.2133
 123  813.2502
 124  793.1439
 125  795.6086
 126  828.8594
 127  800.3491
 128  811.1517
 129  832.9874
 130  826.7449
 131  831.8015
 132  912.5483
 133  833.3779
 134  723.5189
 135  807.4086
 136  954.5619
 137  920.442
 138  882.9601
 139  893.2703
 140  935.1913
 141  827.5626
 142  894.9178
 143  969.1995
 144  912.8519
 145  905.867
 146  859.2932
 147  870.1874
 148  943.1186
 149  905.2247
 150  1007.485
 151  871.7208
 152  768.6295
 153  745.3947
 154  786.823
 155  781.3979
 156  791.7686
 157  798.5741
 158  870.4618
 159  817.7651
 160  797.7145
 161  849.4953
 162  872.9064
 163  824.881
 164  827.7882
 165  879.2282
 166  876.0034
 167  819.5161
 168  814.6889
 169  836.3323
 170  765.8683
 171  776.1989
 172  841.9207
 173  793.9718
 174  841.2812
 175  896.4769
 176  861.991
 177  794.2939
 178  692.824
 179  766.2551
 180  693.2997
 181  680.3796
 182  761.4432
 183  759.0429
 184  793.0246
 185  743.0444
 186  741.3524
 187  764.0048
 188  818.9868
 189  834.6936
 190  820.9379
 191  819.0748
 192  733.7196
 193  773.1376
 194  723.264
 195  747.6415
 196  788.9207
 197  878.2086
 198  796.2603
 199  792.9319
 200  844.1941
 201  908.661
 202  929.1063
 203  828.4891
 204  849.7526
 205  875.2433
 206  893.2463
 207  885.7587
 208  829.7427
 209  795.2742
 210  867.6749
 211  872.2826
 212  831.9742
 213  772.9886
 214  759.3842
 215  804.9993
 216  765.0016
 217  775.0727
 218  807.9673
 219  825.5391
 220  882.3099
 221  867.6565
 222  857.5817
 223  809.5582
 224  822.9799
 225  909.9717
 226  899.862
 227  832.8171
 228  729.3944
 229  820.6642
 230  857.2474
 231  747.2772
 232  716.6357
 233  792.0681
 234  849.8004
 235  877.9598
 236  937.6601
 237  890.5425
 238  755.4946
 239  754.5282
 240  814.8188
 241  876.465
 242  871.5425
 243  915.304
 244  867.1829
 245  762.1085
 246  927.2137
 247  943.4376
 248  864.5991
 249  835.4068
 250  843.3339
 251  873.3635
 252  757.9505
 253  743.549
 254  756.1543
 255  827.8962
 256  840.5624
 257  823.9526
 258  837.6
 259  899.7299
 260  853.9592
 261  764.9683
 262  781.2565
 263  719.0993
 264  752.235
 265  827.6949
 266  829.1903
 267  775.5605
 268  794.795
 269  774.3871
 270  713.2632
 271  715.3624
 272  864.3389
 273  740.9756
 274  776.0852
 275  888.0757
 276  800.5345
 277  661.8908
 278  735.4426
 279  847.8535
 280  848.9235
 281  791.6514
 282  883.7257
 283  957.1137
 284  809.6847
 285  819.9764
 286  802.4186
 287  793.3422
 288  728.2067
 289  795.0668
 290  866.2499
 291  823.509
 292  809.8493
 293  800.8472
 294  836.3271
 295  875.6217
 296  875.2984
 297  837.5491
 298  702.7413
 299  664.5146
 300  666.012
 301  706.2802
 302  735.0714
 303  705.1252
 304  737.7909
 305  725.0548
 306  652.1722
 307  670.7433
 308  795.708
 309  816.7401
 310  696.6831
 311  713.2071
 312  730.4719
 313  724.9451
 314  689.7786
 315  695.7066
 316  656.2285
 317  710.1696
 318  702.8776
 319  739.1734
 320  620.2189
 321  758.9877
 322  793.8157
 323  695.6313
 324  721.7879
 325  761.1974
 326  784.7444
 327  716.0259
 328  717.6312
 329  758.9894
 330  828.4666
 331  801.0186
 332  842.063
 333  802.4203
 334  809.5382
 335  870.0166
 336  851.7952
 337  874.5397
 338  749.8771
 339  830.4475
 340  823.379
 341  765.3877
 342  722.6791
 343  727.8759
 344  632.5865
 345  634.827
 346  706.3687
 347  778.3672
 348  754.3169
 349  729.9955
 350  731.124
 351  732.121
 352  786.9365
 353  800.1744
 354  797.1918
 355  898.7003
 356  869.7649
 357  786.9657
 358  815.0687
 359  790.2856
 360  796.0481
 361  775.3672
 362  789.8331
 363  814.2625
 364  850.2406
 365  782.3927
 366  874.1972
 367  878.3694
 368  816.9401
 369  814.7196
 370  861.3101
 371  821.4028
 372  802.8749
 373  818.2745
 374  846.4852
 375  819.7737
 376  811.076
 377  841.762
 378  824.6876
 379  798.3362
 380  839.3251
 381  903.9291
 382  820.3279
 383  870.677
 384  933.8475
 385  972.4953
 386  903.4694
 387  868.2355
 388  773.4635
 389  759.7892
 390  825.1151
 391  942.4017
 392  970.5047
 393  929.9886
 394  908.1671
 395  829.5687
 396  770.8428
 397  862.6995
 398  907.0388
 399  897.1074
 400  928.3895
 401  906.6288
 402  755.7823
 403  774.5602
 404  771.5775
 405  754.3638
 406  869.8865
 407  811.273
 408  762.0222
 409  773.6421
 410  836.4332
 411  819.0378
 412  796.1447
 413  836.1748
 414  834.6702
 415  870.4099
 416  782.9617
 417  698.6907
 418  803.1481
 419  856.9838
 420  827.9573
 421  762.7056
 422  819.886
 423  810.8947
 424  842.6723
 425  874.0629
 426  941.2547
 427  931.9047
 428  862.6871
 429  825.4084
 430  833.3595
 431  810.1691
 432  801.8881
 433  890.2326
 434  898.5128
 435  860.5935
 436  856.0787
 437  865.5815
 438  923.113
 439  1005.569
 440  1000.024
 441  989.1539
 442  874.931
 443  781.2949
 444  805.9094
 445  769.4921
 446  888.045
 447  862.2955
 448  918.8866
 449  910.4817
 450  812.8253
 451  845.9506
 452  787.3064
 453  796.3645
 454  858.093
 455  883.0503
 456  949.7107
 457  918.2218
 458  925.9212
 459  867.5747
 460  864.0997
 461  895.4471
 462  801.0834
 463  763.2639
 464  795.9032
 465  920.7438
 466  894.9431
 467  890.1121
 468  919.3461
 469  837.9559
 470  862.6816
 471  933.4609
 472  984.8513
 473  901.0333
 474  786.3832
 475  784.2331
 476  914.3024
 477  872.1819
 478  813.9142
 479  832.1443
 480  831.8178
 481  884.629
 482  833.6224
 483  876.4517
 484  811.7465
 485  799.7621
 486  821.2145
 487  866.683
 488  800.8393
 489  860.947
 490  988.6895
 491  896.9697
 492  790.0779
 493  775.7803
 494  745.9107
 495  805.3662
 496  826.5932
 497  819.902
 498  769.4699
 499  810.7773
 500  862.2265
 501  880.1466
 502  788.241
 503  880.9909
 504  931.7628
 505  845.9962
 506  915.2221
 507  896.0919
 508  925.58
 509  837.8287
 510  926.543
 511  1089.972
