# Input file       =  1195344761.110509_cleaned.dat
# Candidate        =  PSR_0332+5434
# Telescope        =  AR
# Epoch_topo       =  58079.008600816072
# Epoch_bary       =  N/A
# T_sample         =  0.002
# Data Folded      =  7340032
# Data Avg         =  0.071478935622096
# Data StdDev      =  1.00008615325966 
# Profile Bins     =  512
# Profile Avg      =  1024.84951042123 
# Profile StdDev   =  119.743351768139 
# Reduced chi-sqr  =  0.815
# Prob(Noise)      <  0.999   (~0.0 sigma)
# P_topo (ms)      =  714.516716222369  +/- 0.000438
# P'_topo (s/s)    =  -0                +/- 2.31e-10
# P''_topo (s/s^2) =  0                 +/- 1.02e-13
# P_bary (ms)      =  N/A
# P'_bary (s/s)    =  N/A
# P''_bary (s/s^2) =  N/A
# P_orb (s)        =  N/A
# asin(i)/c (s)    =  N/A
# eccentricity     =  N/A
# w (rad)          =  N/A
# T_peri           =  N/A
######################################################
   0  1461.993
   1  1375.327
   2  1318.369
   3  1267.976
   4  1141.575
   5  1063.619
   6  1063.53
   7  1075.777
   8  1010.86
   9  1042.225
  10  1025.122
  11  1012.001
  12  983.45
  13  1044.158
  14  1149.603
  15  1076.941
  16  1090.063
  17  1041.388
  18  1104.161
  19  993.4001
  20  940.5073
  21  950.942
  22  994.1482
  23  1044.226
  24  1090.329
  25  1066.98
  26  1052.288
  27  1065.394
  28  1055.99
  29  957.8903
  30  1038.617
  31  1123.192
  32  1141.564
  33  1099.313
  34  1079.796
  35  987.843
  36  903.3434
  37  1021.38
  38  971.3
  39  912.9225
  40  941.77
  41  981.2094
  42  997.4593
  43  965.671
  44  922.4181
  45  1052.138
  46  1048.416
  47  1024.495
  48  987.0004
  49  971.0143
  50  933.7688
  51  883.5827
  52  828.5908
  53  890.7063
  54  867.7636
  55  922.4553
  56  998.2429
  57  981.4164
  58  924.2723
  59  982.4715
  60  1067.926
  61  1058.571
  62  1065.051
  63  1053.604
  64  994.0995
  65  890.2399
  66  979.3304
  67  934.2094
  68  937.0566
  69  980.3776
  70  953.1453
  71  967.4082
  72  989.9814
  73  1011.386
  74  1059.57
  75  1130.127
  76  1019.755
  77  1071.09
  78  1049.761
  79  1088.811
  80  1191.227
  81  1073.126
  82  1061.302
  83  1055.243
  84  1072.395
  85  1092.585
  86  1092.167
  87  1064.496
  88  1023.469
  89  1030.675
  90  1045.368
  91  1029.853
  92  1031.242
  93  1044.132
  94  1028.441
  95  969.7369
  96  992.4175
  97  892.8636
  98  976.6197
  99  1037.006
 100  997.3512
 101  943.0224
 102  1055.45
 103  1097.275
 104  1024.268
 105  940.4725
 106  1004.961
 107  1079.814
 108  1048.29
 109  1098.251
 110  1101.291
 111  1078.195
 112  990.0735
 113  940.3647
 114  1026.129
 115  1118.249
 116  1170.325
 117  1016.452
 118  970.6581
 119  991.7551
 120  1074.26
 121  994.7142
 122  1059.139
 123  966.4951
 124  995.35
 125  1081.502
 126  1047.204
 127  1120.674
 128  1110.171
 129  1048.191
 130  958.0316
 131  937.8857
 132  1095.819
 133  1046.523
 134  1019.915
 135  967.3264
 136  941.222
 137  1015.12
 138  1207.198
 139  1132.643
 140  1048.227
 141  1087.468
 142  1098.876
 143  1146.028
 144  1108.191
 145  1157.934
 146  1157.698
 147  1287.635
 148  1152.913
 149  1044.82
 150  1045.431
 151  1034.176
 152  1045.799
 153  1086.602
 154  988.2826
 155  1024.579
 156  1048.23
 157  1069.695
 158  1075.103
 159  1119.56
 160  1179.862
 161  1115.25
 162  970.9896
 163  985.865
 164  1040.303
 165  1134.677
 166  1052.979
 167  956.9268
 168  1007.737
 169  990.8465
 170  996.1757
 171  959.9438
 172  891.2049
 173  885.8497
 174  1112.065
 175  1105.607
 176  1104.6
 177  1018.289
 178  1010.406
 179  1025.996
 180  924.0079
 181  908.1143
 182  905.2043
 183  996.8456
 184  1068.766
 185  1082.858
 186  1008.432
 187  891.6978
 188  959.6328
 189  1068.477
 190  1061.396
 191  1090.728
 192  998.5892
 193  997.4745
 194  957.7584
 195  916.9097
 196  929.2318
 197  917.8484
 198  970.1172
 199  1079.717
 200  1106.69
 201  1146.781
 202  1108.859
 203  1081.214
 204  1070.284
 205  1072.555
 206  1055.124
 207  989.9448
 208  990.5681
 209  986.6221
 210  1069.011
 211  1057.299
 212  1066.88
 213  1111.132
 214  1053.151
 215  1089.351
 216  1114.265
 217  1110.436
 218  1110.156
 219  1185.399
 220  1136.749
 221  1063.676
 222  1034.279
 223  1022.76
 224  1016.728
 225  1080.285
 226  1051.173
 227  1121.977
 228  1080.823
 229  1032.313
 230  935.8367
 231  1011.906
 232  1090.937
 233  1129.286
 234  1057.832
 235  1019.311
 236  1073.313
 237  1037.956
 238  994.2897
 239  937.5963
 240  992.0416
 241  950.3749
 242  1008.325
 243  1075.06
 244  1003.961
 245  838.5385
 246  962.5474
 247  1012.109
 248  887.6718
 249  992.0981
 250  1021.359
 251  1017.67
 252  983.8181
 253  991.6912
 254  949.0779
 255  1008.094
 256  1053.334
 257  1030.903
 258  1041.759
 259  1011.253
 260  985.063
 261  1014.872
 262  943.4155
 263  884.6793
 264  877.7136
 265  962.4426
 266  1053.886
 267  1074.602
 268  1053.254
 269  1040.418
 270  1092.556
 271  1046.278
 272  978.7548
 273  962.7936
 274  1012.6
 275  1012.967
 276  981.9191
 277  1001.345
 278  993.8318
 279  921.7355
 280  935.2342
 281  865.563
 282  896.9222
 283  1022.294
 284  1127.614
 285  1070.746
 286  1084.325
 287  912.9337
 288  796.3416
 289  828.3798
 290  873.4126
 291  827.6757
 292  935.2719
 293  991.1298
 294  973.2709
 295  990.3242
 296  909.1125
 297  964.2753
 298  1017.113
 299  1076.253
 300  1017.616
 301  1071.377
 302  1090.274
 303  1027.782
 304  1082.114
 305  1063.033
 306  1128.682
 307  1037.445
 308  1006.488
 309  989.2968
 310  912.8584
 311  942.9368
 312  989.9359
 313  1034.299
 314  970.3736
 315  884.1021
 316  979.7689
 317  999.6805
 318  919.0559
 319  963.9722
 320  1022.187
 321  1032.357
 322  996.5657
 323  1049.427
 324  1096.459
 325  1133.218
 326  1146.831
 327  1121.128
 328  1195.719
 329  1091.967
 330  1041.679
 331  1071.922
 332  1020.951
 333  1037.692
 334  1013.089
 335  1095.813
 336  1101.675
 337  931.3646
 338  1013.218
 339  1036.87
 340  1064.384
 341  986.8447
 342  1018.989
 343  975.5782
 344  933.799
 345  942.2604
 346  1001.497
 347  1109.192
 348  1003.125
 349  1010.157
 350  1051.068
 351  1023.615
 352  993.9931
 353  960.7413
 354  955.4056
 355  1000.016
 356  1008.056
 357  1005.143
 358  1030.158
 359  1001.101
 360  974.1844
 361  972.9088
 362  1077.519
 363  1019.566
 364  962.0789
 365  959.7928
 366  1061.359
 367  1007.636
 368  971.2563
 369  996.6747
 370  961.3317
 371  980.3299
 372  1006.783
 373  893.9052
 374  914.2165
 375  975.7233
 376  979.046
 377  941.3503
 378  968.404
 379  1037.585
 380  1019.752
 381  1088.947
 382  994.1258
 383  888.2929
 384  837.3171
 385  882.5868
 386  932.1191
 387  960.6787
 388  987.6145
 389  974.5527
 390  983.8648
 391  967.0319
 392  948.2385
 393  902.2383
 394  964.7775
 395  1052.804
 396  1076.998
 397  1145.145
 398  1107.308
 399  1050.772
 400  979.4951
 401  1015.546
 402  1088.497
 403  1123.928
 404  1115.169
 405  1046.763
 406  996.942
 407  978.7504
 408  976.5502
 409  899.3555
 410  909.7328
 411  900.4457
 412  1025.56
 413  1043.146
 414  1034.039
 415  1023.601
 416  979.1047
 417  1025.543
 418  1034.536
 419  1078.608
 420  1039.203
 421  1138.053
 422  1110.154
 423  1054.041
 424  1010.346
 425  1063.619
 426  1099.046
 427  1012.012
 428  958.5166
 429  905.6944
 430  1010.981
 431  1132.578
 432  1076.945
 433  1099.184
 434  943.6492
 435  949.2776
 436  955.1155
 437  1039.002
 438  1109.443
 439  1097.97
 440  1146.818
 441  1032.917
 442  972.7739
 443  934.6471
 444  946.8768
 445  930.0063
 446  993.6414
 447  1012.844
 448  1006.245
 449  1037.14
 450  1017.009
 451  989.9299
 452  1026.036
 453  1090.513
 454  1030.958
 455  1053.44
 456  1019.523
 457  1074.917
 458  1050.794
 459  1026.326
 460  1036.429
 461  1016.802
 462  1013.977
 463  918.7747
 464  934.9313
 465  990.0415
 466  1044.382
 467  1086.551
 468  1028.324
 469  969.3029
 470  967.8352
 471  1033.502
 472  1064.101
 473  1153.084
 474  1072.502
 475  1137.772
 476  1155.035
 477  1045.923
 478  1073.856
 479  1040.703
 480  939.3076
 481  960.8802
 482  1014.839
 483  963.2167
 484  924.0906
 485  1146.127
 486  1155.065
 487  1055.252
 488  1073.589
 489  1055.782
 490  1088.959
 491  1031.49
 492  1004.949
 493  929.4097
 494  985.1374
 495  1013.444
 496  1033.719
 497  956.4311
 498  852.9434
 499  977.1002
 500  995.3648
 501  1079.962
 502  1085.853
 503  1130.528
 504  1073.924
 505  1053.999
 506  1059.754
 507  1107.42
 508  1102.838
 509  1188.904
 510  1273.608
 511  1289.93
