# Input file       =  1195229060.104711_cleaned.dat
# Candidate        =  PSR_0332+5434
# Telescope        =  AR
# Epoch_topo       =  58077.669468804525
# Epoch_bary       =  N/A
# T_sample         =  0.002
# Data Folded      =  7208960
# Data Avg         =  0.0930344098668329
# Data StdDev      =  1.00051133684816 
# Profile Bins     =  512
# Profile Avg      =  1309.87379611845 
# Profile StdDev   =  118.719850602486 
# Reduced chi-sqr  =  0.448
# Prob(Noise)      <  1   (~0.0 sigma)
# P_topo (ms)      =  714.514972317872  +/- 0.000974
# P'_topo (s/s)    =  -0                +/- 5.23e-10
# P''_topo (s/s^2) =  0                 +/- 2.35e-13
# P_bary (ms)      =  N/A
# P'_bary (s/s)    =  N/A
# P''_bary (s/s^2) =  N/A
# P_orb (s)        =  N/A
# asin(i)/c (s)    =  N/A
# eccentricity     =  N/A
# w (rad)          =  N/A
# T_peri           =  N/A
######################################################
   0  1467.01
   1  1461.491
   2  1368.367
   3  1246.484
   4  1282.776
   5  1288.988
   6  1301.926
   7  1298.789
   8  1299.092
   9  1301.491
  10  1278.892
  11  1292.314
  12  1362.801
  13  1396.612
  14  1389.526
  15  1355.593
  16  1365.935
  17  1290.649
  18  1303.812
  19  1294.539
  20  1333.237
  21  1310.09
  22  1314.674
  23  1280.704
  24  1223.707
  25  1209.54
  26  1227.443
  27  1239.883
  28  1228.904
  29  1239.806
  30  1306.134
  31  1189.013
  32  1182.078
  33  1318.708
  34  1317.016
  35  1277.133
  36  1309.396
  37  1322.041
  38  1314.752
  39  1247.317
  40  1264.855
  41  1282.409
  42  1320.143
  43  1322.779
  44  1351.402
  45  1383.257
  46  1336.912
  47  1337.183
  48  1282.121
  49  1318.349
  50  1339.055
  51  1360.696
  52  1335.145
  53  1319.638
  54  1341.452
  55  1342.246
  56  1348.007
  57  1306.754
  58  1310.879
  59  1306.325
  60  1203.807
  61  1261.675
  62  1316.372
  63  1379.057
  64  1282.167
  65  1203.829
  66  1248.346
  67  1293.754
  68  1301.511
  69  1307.873
  70  1299.708
  71  1237.674
  72  1189.56
  73  1201.451
  74  1287.058
  75  1295.214
  76  1302.265
  77  1370.624
  78  1365.167
  79  1297.198
  80  1235.237
  81  1234.509
  82  1290.609
  83  1344.695
  84  1285.614
  85  1213.308
  86  1250.569
  87  1285.204
  88  1363.269
  89  1337.994
  90  1316.903
  91  1329.633
  92  1326.214
  93  1288.898
  94  1288.763
  95  1308.942
  96  1281.469
  97  1338.855
  98  1333.186
  99  1340.042
 100  1248.17
 101  1281.863
 102  1366.675
 103  1345.338
 104  1316.97
 105  1275.708
 106  1219.979
 107  1281.723
 108  1277.571
 109  1225.334
 110  1242.098
 111  1268.136
 112  1220.195
 113  1228.206
 114  1175.89
 115  1164.203
 116  1259.441
 117  1242.267
 118  1279.378
 119  1300.758
 120  1385.893
 121  1374.105
 122  1294.966
 123  1241.426
 124  1292.436
 125  1313.882
 126  1327.56
 127  1349.244
 128  1297.626
 129  1313.73
 130  1356.479
 131  1387.66
 132  1349.863
 133  1320.215
 134  1285.658
 135  1373.913
 136  1329.668
 137  1250.087
 138  1270.826
 139  1298.203
 140  1339.229
 141  1331.407
 142  1379.575
 143  1387.048
 144  1328.87
 145  1339.457
 146  1328.976
 147  1293.333
 148  1272.692
 149  1301.339
 150  1325.229
 151  1361.796
 152  1408.609
 153  1419.29
 154  1391.375
 155  1388.382
 156  1368.904
 157  1252.472
 158  1299.335
 159  1335.098
 160  1355.191
 161  1316.569
 162  1277.663
 163  1289.689
 164  1285.72
 165  1309.229
 166  1293.009
 167  1293.21
 168  1259.261
 169  1308.476
 170  1258.004
 171  1298.98
 172  1298.709
 173  1426.138
 174  1464.944
 175  1321.092
 176  1391.866
 177  1278.683
 178  1295.735
 179  1254.898
 180  1275.838
 181  1308.918
 182  1312.941
 183  1363.6
 184  1377.643
 185  1389.54
 186  1345.407
 187  1386.155
 188  1373.244
 189  1275.936
 190  1343.222
 191  1324.108
 192  1324.534
 193  1301.549
 194  1379.499
 195  1311.861
 196  1190.646
 197  1218.341
 198  1278.197
 199  1260.889
 200  1251.365
 201  1260.739
 202  1222.028
 203  1249.652
 204  1241.37
 205  1193.578
 206  1260.096
 207  1270.278
 208  1294.681
 209  1231.94
 210  1311.23
 211  1411.007
 212  1328.338
 213  1319.011
 214  1337.873
 215  1306.225
 216  1348.994
 217  1400.722
 218  1350.95
 219  1292.292
 220  1244.007
 221  1206.235
 222  1228.665
 223  1241.654
 224  1293.519
 225  1360.672
 226  1327.716
 227  1349.54
 228  1339.266
 229  1324.734
 230  1298.997
 231  1234.465
 232  1258.345
 233  1352.463
 234  1367.596
 235  1353.802
 236  1274.233
 237  1294.923
 238  1357.531
 239  1333.289
 240  1355.114
 241  1352.428
 242  1388.025
 243  1337.079
 244  1309.893
 245  1359.514
 246  1304.495
 247  1407.311
 248  1389.601
 249  1376.34
 250  1361.576
 251  1276.389
 252  1212.953
 253  1259.601
 254  1324.156
 255  1335.711
 256  1313.547
 257  1263.967
 258  1352.04
 259  1378.24
 260  1378.996
 261  1341.753
 262  1292.568
 263  1262.892
 264  1254.694
 265  1232.708
 266  1250.027
 267  1299.18
 268  1300.394
 269  1323.327
 270  1278.784
 271  1205.554
 272  1220.989
 273  1270.744
 274  1344.251
 275  1294.459
 276  1248.327
 277  1284.518
 278  1238.342
 279  1194.848
 280  1188.927
 281  1237.204
 282  1281.138
 283  1321.675
 284  1273.118
 285  1285.711
 286  1221.607
 287  1268.307
 288  1315.242
 289  1324.418
 290  1354.038
 291  1344.566
 292  1366.141
 293  1369.31
 294  1402.627
 295  1383.445
 296  1405.966
 297  1414.581
 298  1443.525
 299  1368.736
 300  1339.953
 301  1373.548
 302  1410.458
 303  1451.652
 304  1321.71
 305  1236.251
 306  1243.162
 307  1352.072
 308  1390.863
 309  1280.008
 310  1330.516
 311  1348.602
 312  1408.007
 313  1443.696
 314  1431.838
 315  1397.17
 316  1406.545
 317  1377.289
 318  1261.474
 319  1329.232
 320  1374.269
 321  1426.563
 322  1404.669
 323  1364.616
 324  1372.536
 325  1283.241
 326  1301.614
 327  1299.163
 328  1342.61
 329  1319.204
 330  1330.434
 331  1306.256
 332  1300.327
 333  1293.611
 334  1284.224
 335  1306.886
 336  1290.085
 337  1263.322
 338  1239.464
 339  1310.772
 340  1305.548
 341  1327.245
 342  1345.424
 343  1230.093
 344  1202.56
 345  1226.47
 346  1298.156
 347  1228.232
 348  1281.146
 349  1355.792
 350  1353.305
 351  1381.799
 352  1379.898
 353  1388.849
 354  1366.809
 355  1377.249
 356  1358.431
 357  1335.492
 358  1384.275
 359  1343.575
 360  1337.531
 361  1371.259
 362  1400.936
 363  1309.952
 364  1345.241
 365  1344.066
 366  1372.984
 367  1411.547
 368  1300.801
 369  1378.598
 370  1336.446
 371  1383.61
 372  1350.546
 373  1369.411
 374  1369.694
 375  1287.033
 376  1330.848
 377  1270.415
 378  1299.245
 379  1371.981
 380  1415.759
 381  1378.684
 382  1319.758
 383  1343.107
 384  1360.739
 385  1350.188
 386  1292.552
 387  1325.957
 388  1408.742
 389  1344.281
 390  1392.435
 391  1399.902
 392  1357.911
 393  1363.748
 394  1420.094
 395  1371.849
 396  1386.724
 397  1364.991
 398  1385.132
 399  1358.592
 400  1306.332
 401  1312.163
 402  1400.331
 403  1337.605
 404  1312.108
 405  1313.392
 406  1320.227
 407  1336.395
 408  1322.057
 409  1286.487
 410  1304.869
 411  1263.447
 412  1287.904
 413  1309.047
 414  1276.376
 415  1288.806
 416  1326.811
 417  1373.295
 418  1308.697
 419  1372.434
 420  1309.03
 421  1308.861
 422  1305.145
 423  1310.135
 424  1317.838
 425  1284.024
 426  1338.648
 427  1376.162
 428  1314.222
 429  1140.627
 430  1146.997
 431  1253.412
 432  1336.132
 433  1281.565
 434  1324.452
 435  1278.15
 436  1278.484
 437  1261.688
 438  1234.017
 439  1289.38
 440  1277.143
 441  1301.62
 442  1278.255
 443  1321.099
 444  1312.892
 445  1307.928
 446  1319.979
 447  1299.114
 448  1410.785
 449  1317.161
 450  1365.275
 451  1321.401
 452  1347.016
 453  1373.193
 454  1291.274
 455  1301.247
 456  1276.879
 457  1282.16
 458  1252.662
 459  1242.476
 460  1294.418
 461  1365.59
 462  1361.93
 463  1270.212
 464  1328.488
 465  1294.797
 466  1273.239
 467  1254.437
 468  1267.643
 469  1264.482
 470  1242.633
 471  1297.129
 472  1329.213
 473  1346.061
 474  1277.661
 475  1325.089
 476  1322.837
 477  1241.437
 478  1257.586
 479  1278.809
 480  1299.366
 481  1227.22
 482  1201.759
 483  1203.52
 484  1196.438
 485  1189.528
 486  1182.999
 487  1277.565
 488  1309.18
 489  1257.688
 490  1274.734
 491  1275.812
 492  1203.435
 493  1192.714
 494  1234.334
 495  1197.953
 496  1195.841
 497  1217.614
 498  1173.76
 499  1207.007
 500  1257.051
 501  1242.056
 502  1197.466
 503  1262.665
 504  1256.836
 505  1291.623
 506  1343.042
 507  1359.233
 508  1366.376
 509  1374.47
 510  1381.964
 511  1400.547
