# Input file       =  1195315227.114825_cleaned.dat
# Candidate        =  PSR_0332+5434
# Telescope        =  AR
# Epoch_topo       =  58078.666772162323
# Epoch_bary       =  N/A
# T_sample         =  0.002
# Data Folded      =  7143424
# Data Avg         =  0.104093533936849
# Data StdDev      =  1.00040949891502 
# Profile Bins     =  512
# Profile Avg      =  1452.31717208566 
# Profile StdDev   =  118.166953914057 
# Reduced chi-sqr  =  0.639
# Prob(Noise)      <  1   (~0.0 sigma)
# P_topo (ms)      =  714.516001876883  +/- 3.85e-05
# P'_topo (s/s)    =  -0                +/- 2.09e-11
# P''_topo (s/s^2) =  0                 +/- 9.47e-15
# P_bary (ms)      =  N/A
# P'_bary (s/s)    =  N/A
# P''_bary (s/s^2) =  N/A
# P_orb (s)        =  N/A
# asin(i)/c (s)    =  N/A
# eccentricity     =  N/A
# w (rad)          =  N/A
# T_peri           =  N/A
######################################################
   0  1802.43
   1  1681.383
   2  1439.527
   3  1416.753
   4  1406.567
   5  1489.981
   6  1461.156
   7  1512.916
   8  1564.902
   9  1476.266
  10  1423.972
  11  1384.69
  12  1424.364
  13  1520.328
  14  1606.121
  15  1575.256
  16  1390.186
  17  1337.235
  18  1434.827
  19  1516.885
  20  1565.4
  21  1518.723
  22  1539.105
  23  1409.662
  24  1460.382
  25  1501.494
  26  1471.895
  27  1427.472
  28  1383.508
  29  1489.183
  30  1560.391
  31  1495.09
  32  1463.744
  33  1470.255
  34  1490.972
  35  1443.376
  36  1502.009
  37  1481.398
  38  1483.752
  39  1497.406
  40  1485.961
  41  1399.037
  42  1413.605
  43  1466.761
  44  1433.446
  45  1373.372
  46  1388.085
  47  1515.251
  48  1625.978
  49  1524.59
  50  1458.273
  51  1491.068
  52  1456.414
  53  1498.801
  54  1526.14
  55  1491.408
  56  1387.355
  57  1335.828
  58  1349.951
  59  1296.959
  60  1350.323
  61  1342.53
  62  1323.316
  63  1474.001
  64  1493.676
  65  1569.288
  66  1415.407
  67  1508.72
  68  1494.576
  69  1372.539
  70  1418.401
  71  1426.343
  72  1518.732
  73  1388.426
  74  1375.572
  75  1412.49
  76  1472.363
  77  1454.923
  78  1469.02
  79  1546.747
  80  1520.823
  81  1483.027
  82  1425.739
  83  1390.292
  84  1354.358
  85  1377.548
  86  1503.852
  87  1518.232
  88  1415.376
  89  1345.413
  90  1376.88
  91  1459.191
  92  1449.342
  93  1511.998
  94  1567.974
  95  1501.747
  96  1465.728
  97  1446.108
  98  1433.447
  99  1406.851
 100  1467.114
 101  1488.777
 102  1326.206
 103  1385.536
 104  1543.733
 105  1537.751
 106  1520.03
 107  1503.897
 108  1486.945
 109  1425.126
 110  1343.773
 111  1498.574
 112  1389.522
 113  1398.175
 114  1438.923
 115  1513.274
 116  1469.835
 117  1355.753
 118  1317.558
 119  1428.74
 120  1505.491
 121  1482.036
 122  1542.556
 123  1534.016
 124  1478.312
 125  1541.412
 126  1556.726
 127  1572.849
 128  1561.043
 129  1486.524
 130  1431.012
 131  1371.136
 132  1442.869
 133  1498.593
 134  1502.335
 135  1462.431
 136  1456.501
 137  1426.788
 138  1441.072
 139  1538.363
 140  1468.355
 141  1385.772
 142  1400.663
 143  1498.141
 144  1484.844
 145  1344.348
 146  1380.091
 147  1498.219
 148  1437.584
 149  1447.771
 150  1401.282
 151  1481.977
 152  1437.82
 153  1517.044
 154  1525.787
 155  1432.662
 156  1399.511
 157  1376.401
 158  1506.09
 159  1451.291
 160  1424.188
 161  1483.864
 162  1509.118
 163  1468.284
 164  1488.975
 165  1426.983
 166  1347.851
 167  1354.487
 168  1484.688
 169  1517.008
 170  1465.455
 171  1419.06
 172  1380.642
 173  1340.568
 174  1340.314
 175  1480.028
 176  1513.562
 177  1433.563
 178  1427.746
 179  1467.02
 180  1483.362
 181  1484.138
 182  1480.862
 183  1551.095
 184  1439.134
 185  1327.192
 186  1388.428
 187  1473.125
 188  1455.032
 189  1411.27
 190  1467.096
 191  1449.821
 192  1484.915
 193  1465.504
 194  1551.462
 195  1505.478
 196  1510.1
 197  1524.441
 198  1432.165
 199  1495.116
 200  1515.906
 201  1564.877
 202  1486.515
 203  1402.664
 204  1438.117
 205  1403.091
 206  1446.598
 207  1448.434
 208  1503.071
 209  1492.788
 210  1494.974
 211  1499.129
 212  1441.359
 213  1408.021
 214  1399.503
 215  1447.184
 216  1515.959
 217  1441.224
 218  1504.001
 219  1494.981
 220  1398.57
 221  1465.49
 222  1490.029
 223  1546.035
 224  1458.649
 225  1539.171
 226  1578.816
 227  1440.685
 228  1515.86
 229  1556.814
 230  1487.61
 231  1434.977
 232  1446.203
 233  1526.773
 234  1508.095
 235  1420.477
 236  1384.657
 237  1454.132
 238  1379.476
 239  1365.419
 240  1448.031
 241  1468.446
 242  1473.178
 243  1481.101
 244  1525.983
 245  1453.975
 246  1397.393
 247  1480.52
 248  1514.888
 249  1476.307
 250  1441.245
 251  1484.445
 252  1562.388
 253  1498.333
 254  1583.279
 255  1582.543
 256  1499.049
 257  1509.353
 258  1527.023
 259  1538.074
 260  1337.836
 261  1385.779
 262  1452.776
 263  1459.85
 264  1553.699
 265  1463.623
 266  1402.118
 267  1341.986
 268  1435.208
 269  1471.824
 270  1428.208
 271  1373.747
 272  1377.133
 273  1444.766
 274  1475.375
 275  1405.554
 276  1377.578
 277  1302.554
 278  1339.581
 279  1358.744
 280  1488.779
 281  1446.675
 282  1373.543
 283  1432.414
 284  1411.685
 285  1414.434
 286  1439.263
 287  1516.259
 288  1500.633
 289  1462.792
 290  1482.366
 291  1344.654
 292  1369.238
 293  1421.388
 294  1417.049
 295  1461.514
 296  1387.57
 297  1448.601
 298  1454.331
 299  1377.634
 300  1377.914
 301  1380.756
 302  1432.32
 303  1390.276
 304  1392.296
 305  1470.83
 306  1438.431
 307  1417.254
 308  1363.218
 309  1384.047
 310  1390.898
 311  1509.514
 312  1473.487
 313  1436.088
 314  1378.01
 315  1390.409
 316  1497.613
 317  1462.504
 318  1509.149
 319  1507.308
 320  1395.977
 321  1353.562
 322  1407.618
 323  1398.151
 324  1384.568
 325  1444.318
 326  1501.398
 327  1475.334
 328  1485.378
 329  1468.646
 330  1464.81
 331  1369.607
 332  1308.686
 333  1397.974
 334  1408.864
 335  1446.527
 336  1432.21
 337  1389.865
 338  1372.095
 339  1347.867
 340  1425.999
 341  1485.118
 342  1386.279
 343  1377.517
 344  1415.852
 345  1386.779
 346  1288.702
 347  1332.203
 348  1394.319
 349  1369.542
 350  1394.989
 351  1388.18
 352  1410.986
 353  1425.174
 354  1408.777
 355  1463.378
 356  1398.302
 357  1369.703
 358  1487.585
 359  1546.865
 360  1508.085
 361  1359.709
 362  1409.211
 363  1407.85
 364  1413.636
 365  1389.097
 366  1415.741
 367  1411.302
 368  1339.832
 369  1397.254
 370  1406.647
 371  1423.018
 372  1463.353
 373  1578.936
 374  1480.182
 375  1393.931
 376  1474.485
 377  1461.439
 378  1447.479
 379  1510.658
 380  1464.827
 381  1392.25
 382  1352.355
 383  1478.34
 384  1425.868
 385  1355.465
 386  1339.506
 387  1341.592
 388  1374.978
 389  1333.188
 390  1399.382
 391  1434.565
 392  1389.402
 393  1418.15
 394  1447.661
 395  1370.868
 396  1285.126
 397  1414.48
 398  1516.936
 399  1438.577
 400  1376.975
 401  1426.297
 402  1470.657
 403  1517.044
 404  1473.816
 405  1534.879
 406  1489.887
 407  1484.166
 408  1475.255
 409  1413.439
 410  1385.705
 411  1436.443
 412  1496.469
 413  1447.011
 414  1450.291
 415  1503.008
 416  1514.1
 417  1390.463
 418  1415.277
 419  1451.537
 420  1492.386
 421  1461.463
 422  1391.234
 423  1395.883
 424  1410.536
 425  1480.429
 426  1458.036
 427  1478.487
 428  1446.944
 429  1370.353
 430  1319.221
 431  1400.769
 432  1453.497
 433  1504.733
 434  1456.872
 435  1419.023
 436  1457.22
 437  1389.285
 438  1414.345
 439  1343.498
 440  1424.325
 441  1457.85
 442  1380.781
 443  1453.408
 444  1404.719
 445  1471.842
 446  1477.928
 447  1396.523
 448  1456.661
 449  1437.784
 450  1441.107
 451  1486.89
 452  1395.548
 453  1426.331
 454  1431.922
 455  1559.678
 456  1405.719
 457  1384.04
 458  1408
 459  1468.977
 460  1458.053
 461  1466.937
 462  1543.614
 463  1468.943
 464  1405.442
 465  1390.935
 466  1413.412
 467  1441.416
 468  1406.505
 469  1514.411
 470  1523.051
 471  1321.16
 472  1352.02
 473  1385.463
 474  1415.763
 475  1378.487
 476  1506.184
 477  1489.584
 478  1412.371
 479  1445.297
 480  1472.101
 481  1402.94
 482  1417.766
 483  1483.138
 484  1568.637
 485  1483.042
 486  1472.596
 487  1539.831
 488  1504.243
 489  1399.612
 490  1462.745
 491  1556.779
 492  1479.307
 493  1479.039
 494  1588.117
 495  1640.638
 496  1642.39
 497  1640.258
 498  1666.371
 499  1558.467
 500  1505.194
 501  1528.338
 502  1554.348
 503  1542.403
 504  1564.692
 505  1603.136
 506  1539.875
 507  1441.203
 508  1565.88
 509  1608.765
 510  1633.472
 511  1706.357
