# Input file       =  1195243722.108974_cleaned.dat
# Candidate        =  PSR_0332+5434
# Telescope        =  AR
# Epoch_topo       =  58077.839167927938
# Epoch_bary       =  N/A
# T_sample         =  0.002
# Data Folded      =  7340032
# Data Avg         =  0.0524157933180441
# Data StdDev      =  1.000103262193   
# Profile Bins     =  512
# Profile Avg      =  751.701445182404 
# Profile StdDev   =  119.745400272677 
# Reduced chi-sqr  =  0.848
# Prob(Noise)      <  0.994   (~0.0 sigma)
# P_topo (ms)      =  714.515170526663  +/- 4.72e-05
# P'_topo (s/s)    =  -0                +/- 2.49e-11
# P''_topo (s/s^2) =  0                 +/- 1.1e-14
# P_bary (ms)      =  N/A
# P'_bary (s/s)    =  N/A
# P''_bary (s/s^2) =  N/A
# P_orb (s)        =  N/A
# asin(i)/c (s)    =  N/A
# eccentricity     =  N/A
# w (rad)          =  N/A
# T_peri           =  N/A
######################################################
   0  1185.215
   1  1152.514
   2  1130.266
   3  966.8118
   4  820.2455
   5  761.4
   6  759.1776
   7  834.298
   8  747.1255
   9  747.1518
  10  769.0035
  11  755.8985
  12  724.942
  13  730.6472
  14  749.4833
  15  638.1768
  16  707.922
  17  833.7753
  18  687.205
  19  726.6225
  20  704.0839
  21  706.9151
  22  686.8237
  23  687.2925
  24  739.2236
  25  710.4854
  26  712.9898
  27  798.3717
  28  781.1473
  29  798.1995
  30  765.0105
  31  765.7767
  32  788.1884
  33  782.5729
  34  708.3367
  35  759.3413
  36  750.5891
  37  840.1163
  38  751.616
  39  631.0396
  40  669.4109
  41  668.8302
  42  743.5792
  43  768.4473
  44  776.1763
  45  850.0923
  46  755.6613
  47  717.1967
  48  811.3567
  49  757.511
  50  826.8027
  51  830.1895
  52  846.1782
  53  916.9492
  54  728.4069
  55  617.9548
  56  678.2291
  57  680.7348
  58  728.3571
  59  736.6204
  60  867.7324
  61  819.2066
  62  757.59
  63  765.0219
  64  735.6699
  65  681.4031
  66  807.5759
  67  886.3121
  68  801.7883
  69  706.4003
  70  749.3594
  71  819.6677
  72  808.1773
  73  783.7549
  74  757.1053
  75  765.0656
  76  838.3654
  77  840.0457
  78  763.6614
  79  725.7855
  80  754.0727
  81  802.0094
  82  818.725
  83  828.3933
  84  896.9479
  85  844.996
  86  797.5788
  87  839.7115
  88  861.259
  89  866.4613
  90  764.0547
  91  763.4931
  92  807.0732
  93  766.0151
  94  735.9371
  95  748.0864
  96  847.6462
  97  807.7361
  98  777.603
  99  825.1039
 100  726.0831
 101  619.9424
 102  756.2567
 103  927.9111
 104  875.986
 105  803.8746
 106  690.3702
 107  644.3881
 108  601.2772
 109  736.0354
 110  800.3782
 111  782.0292
 112  722.705
 113  681.2289
 114  713.4938
 115  661.9293
 116  656.1937
 117  694.944
 118  661.096
 119  647.0133
 120  712.0319
 121  876.6628
 122  797.0909
 123  753.2036
 124  847.1915
 125  816.9918
 126  833.7548
 127  825.855
 128  768.2458
 129  730.4374
 130  788.0312
 131  836.0704
 132  821.3015
 133  703.0605
 134  624.8177
 135  769.5065
 136  706.5986
 137  668.293
 138  733.5873
 139  715.908
 140  657.7821
 141  696.6215
 142  736.9169
 143  727.239
 144  688.0847
 145  730.415
 146  757.3961
 147  598.568
 148  593.0009
 149  668.8289
 150  837.6823
 151  719.0541
 152  637.0737
 153  663.5922
 154  638.6738
 155  630.0907
 156  705.0331
 157  727.4141
 158  699.1054
 159  675.9164
 160  701.187
 161  722.6835
 162  709.2161
 163  681.2224
 164  745.6434
 165  841.0848
 166  751.6837
 167  640.3661
 168  598.648
 169  569.1344
 170  596.7178
 171  719.4628
 172  705.4033
 173  635.304
 174  785.0359
 175  836.163
 176  797.4923
 177  739.1343
 178  816.1182
 179  747.3682
 180  724.5103
 181  738.3174
 182  811.6171
 183  687.8948
 184  641.4601
 185  679.8779
 186  776.2797
 187  723.7863
 188  772.7599
 189  905.533
 190  704.4683
 191  694.4174
 192  773.9946
 193  785.3951
 194  656.4282
 195  740.0034
 196  836.0363
 197  862.1934
 198  774.0929
 199  768.1356
 200  761.0532
 201  708.8495
 202  706.6911
 203  738.8326
 204  652.2613
 205  706.7144
 206  776.3684
 207  811.4028
 208  645.4141
 209  639.9469
 210  830.4686
 211  724.2167
 212  691.5213
 213  751.6782
 214  862.5196
 215  816.1974
 216  712.7453
 217  670.3514
 218  623.6902
 219  634.1671
 220  735.4188
 221  840.9754
 222  834.6914
 223  769.7171
 224  770.1151
 225  804.2441
 226  717.6452
 227  717.6555
 228  835.7687
 229  823.1353
 230  739.5699
 231  785.1846
 232  850.1423
 233  710.0724
 234  678.8932
 235  709.2822
 236  706.3839
 237  595.5503
 238  719.7401
 239  844.9495
 240  797.0295
 241  701.4791
 242  635.5363
 243  631.3167
 244  714.3047
 245  716.7936
 246  786.5706
 247  786.7559
 248  789.4412
 249  740.9047
 250  774.7942
 251  653.598
 252  704.5092
 253  816.0975
 254  760.2226
 255  649.1505
 256  723.1215
 257  784.2941
 258  834.5878
 259  776.4349
 260  851.004
 261  995.4137
 262  784.2886
 263  635.3692
 264  728.9581
 265  686.4847
 266  706.4285
 267  684.7124
 268  644.808
 269  740.9381
 270  770.1491
 271  778.2168
 272  799.8354
 273  746.0076
 274  673.6086
 275  715.2938
 276  723.0683
 277  741.3541
 278  845.2412
 279  870.1225
 280  860.6425
 281  802.9908
 282  864.8351
 283  836.858
 284  719.3706
 285  739.252
 286  846.9111
 287  811.1085
 288  843.8204
 289  824.5579
 290  770.2406
 291  750.7195
 292  793.5524
 293  821.3907
 294  786.8457
 295  723.2695
 296  762.2624
 297  810.5186
 298  852.5251
 299  764.624
 300  841.3239
 301  877.5177
 302  819.6042
 303  748.4028
 304  726.2514
 305  733.8073
 306  642.16
 307  743.7022
 308  797.4674
 309  695.729
 310  630.4861
 311  641.6084
 312  710.1902
 313  720.9487
 314  754.8989
 315  746.7723
 316  696.7391
 317  773.3029
 318  808.9564
 319  757.0144
 320  667.8557
 321  669.7185
 322  721.7867
 323  689.9675
 324  715.5182
 325  695.7087
 326  739.1953
 327  718.9019
 328  705.2088
 329  726.0348
 330  655.7216
 331  705.3272
 332  770.3942
 333  755.218
 334  706.1487
 335  710.9286
 336  814.0251
 337  836.3206
 338  834.4434
 339  797.1171
 340  729.6528
 341  633.8046
 342  670.0047
 343  830.0919
 344  864.2243
 345  814.2766
 346  865.8212
 347  755.847
 348  730.7623
 349  749.7724
 350  770.184
 351  845.019
 352  813.2132
 353  770.67
 354  683.0494
 355  618.0292
 356  536.7094
 357  725.412
 358  835.6375
 359  773.0765
 360  787.0708
 361  781.9426
 362  679.1159
 363  607.4004
 364  743.0222
 365  754.4113
 366  686.2943
 367  785.8845
 368  811.9521
 369  789.8732
 370  797.7043
 371  717.0361
 372  692.3408
 373  751.3408
 374  802.9694
 375  846.5378
 376  790.3041
 377  691.036
 378  802.1875
 379  890.3328
 380  855.212
 381  821.1447
 382  727.7833
 383  698.4741
 384  730.5314
 385  801.6626
 386  824.1159
 387  793.197
 388  820.4194
 389  814.1817
 390  731.1312
 391  757.2138
 392  822.9048
 393  690.5437
 394  706.7542
 395  813.441
 396  831.0262
 397  789.4579
 398  745.3806
 399  740.9729
 400  786.574
 401  749.9766
 402  774.6941
 403  778.1917
 404  698.5427
 405  644.4209
 406  661.824
 407  732.1758
 408  793.1111
 409  723.6946
 410  719.1006
 411  805.5187
 412  728.6772
 413  783.6641
 414  848.725
 415  726.6901
 416  644.2281
 417  690.322
 418  737.1065
 419  720.0694
 420  733.6549
 421  806.5311
 422  767.2
 423  608.9103
 424  589.8975
 425  600.0944
 426  721.5842
 427  698.9583
 428  706.4039
 429  764.8359
 430  697.71
 431  681.2385
 432  707.506
 433  780.3428
 434  704.119
 435  678.396
 436  890.3436
 437  836.7927
 438  785.2247
 439  848.9296
 440  848.3867
 441  709.1339
 442  728.6027
 443  804.5462
 444  782.6501
 445  759.7145
 446  779.1196
 447  799.9811
 448  654.8392
 449  614.9901
 450  717.5219
 451  668.0799
 452  639.8423
 453  683.1484
 454  810.0881
 455  829.91
 456  784.3823
 457  777.3085
 458  797.6945
 459  813.9961
 460  959.8035
 461  861.9848
 462  762.2227
 463  816.4256
 464  788.969
 465  790.1508
 466  699.7797
 467  609.1782
 468  715.1906
 469  672.3008
 470  623.5599
 471  645.7609
 472  706.2198
 473  687.6384
 474  683.6808
 475  609.6207
 476  560.8876
 477  670.7102
 478  781.2221
 479  853.6776
 480  823.6656
 481  748.7261
 482  747.4556
 483  644.2772
 484  553.1284
 485  654.9114
 486  731.0516
 487  647.7078
 488  494.717
 489  574.0652
 490  690.6806
 491  674.5997
 492  780.509
 493  722.8712
 494  738.7911
 495  799.7894
 496  760.4612
 497  767.5886
 498  769.2418
 499  736.2674
 500  768.15
 501  805.0717
 502  736.7495
 503  737.1212
 504  844.4871
 505  869.3353
 506  761.3401
 507  840.5976
 508  868.1095
 509  829.57
 510  930.0799
 511  1026.555
