# Input file       =  1195487547.307883_cleaned.dat
# Candidate        =  PSR_0332+5434
# Telescope        =  AR
# Epoch_topo       =  58080.661218841240
# Epoch_bary       =  N/A
# T_sample         =  0.002
# Data Folded      =  7143424
# Data Avg         =  0.0987667432944225
# Data StdDev      =  1.00032249224849 
# Profile Bins     =  512
# Profile Avg      =  1377.98801075015 
# Profile StdDev   =  118.156676809765 
# Reduced chi-sqr  =  0.669
# Prob(Noise)      <  1   (~0.0 sigma)
# P_topo (ms)      =  714.518065690782  +/- 8.69e-05
# P'_topo (s/s)    =  -0                +/- 4.71e-11
# P''_topo (s/s^2) =  0                 +/- 2.14e-14
# P_bary (ms)      =  N/A
# P'_bary (s/s)    =  N/A
# P''_bary (s/s^2) =  N/A
# P_orb (s)        =  N/A
# asin(i)/c (s)    =  N/A
# eccentricity     =  N/A
# w (rad)          =  N/A
# T_peri           =  N/A
######################################################
   0  1649.203
   1  1605.482
   2  1626.464
   3  1569.259
   4  1457.956
   5  1351.789
   6  1326.429
   7  1389.797
   8  1419.72
   9  1425.216
  10  1462.184
  11  1465.493
  12  1381.583
  13  1310.672
  14  1333.73
  15  1345.693
  16  1410.982
  17  1537.999
  18  1472.943
  19  1395.258
  20  1348.245
  21  1304.873
  22  1290.969
  23  1330.12
  24  1330.586
  25  1405.357
  26  1457.87
  27  1478.299
  28  1406.661
  29  1304.194
  30  1434.064
  31  1484.79
  32  1445.017
  33  1428.444
  34  1377.947
  35  1373.731
  36  1385.889
  37  1476.874
  38  1466.002
  39  1349.694
  40  1334.938
  41  1386.431
  42  1409.564
  43  1377.534
  44  1393.418
  45  1465.518
  46  1443.479
  47  1381.429
  48  1301.182
  49  1311.554
  50  1405.228
  51  1467.818
  52  1413.977
  53  1460.099
  54  1430.189
  55  1445.741
  56  1401.728
  57  1264.582
  58  1257.101
  59  1428.256
  60  1509.7
  61  1422.035
  62  1468.676
  63  1361.013
  64  1431.737
  65  1323.078
  66  1256.521
  67  1360.667
  68  1319.677
  69  1274.375
  70  1304.565
  71  1301.911
  72  1252.893
  73  1161.722
  74  1311.142
  75  1418.337
  76  1365.103
  77  1326.171
  78  1334.344
  79  1320.974
  80  1363.233
  81  1303.97
  82  1327.336
  83  1410.648
  84  1372.162
  85  1349.359
  86  1340.078
  87  1409.207
  88  1305.952
  89  1268.609
  90  1303.899
  91  1324.721
  92  1384.155
  93  1445.127
  94  1426.554
  95  1484.837
  96  1339.13
  97  1274.007
  98  1274.501
  99  1329.573
 100  1350.566
 101  1359.128
 102  1403.147
 103  1407.28
 104  1306.873
 105  1334.013
 106  1378.616
 107  1362.403
 108  1402.319
 109  1381.931
 110  1293.917
 111  1224.506
 112  1320.636
 113  1325.767
 114  1338.388
 115  1359.175
 116  1395.344
 117  1409.63
 118  1321.591
 119  1318.644
 120  1333.939
 121  1278.657
 122  1303.986
 123  1345.529
 124  1369.619
 125  1433.265
 126  1444.392
 127  1468.196
 128  1433.433
 129  1345.438
 130  1275.637
 131  1368.644
 132  1374.975
 133  1280.031
 134  1254.724
 135  1404.505
 136  1398.416
 137  1393.515
 138  1397.318
 139  1321.331
 140  1340.061
 141  1372.886
 142  1373.468
 143  1344.87
 144  1464.481
 145  1485.454
 146  1365.716
 147  1237.924
 148  1331.056
 149  1344.638
 150  1399.716
 151  1420.566
 152  1424.479
 153  1441.337
 154  1343.984
 155  1306.177
 156  1333.012
 157  1314.426
 158  1372.792
 159  1284.554
 160  1381.889
 161  1422.894
 162  1295.473
 163  1261.149
 164  1274.163
 165  1389.352
 166  1466.618
 167  1486.335
 168  1423.335
 169  1360.57
 170  1323.522
 171  1313.602
 172  1266.425
 173  1309.414
 174  1353.286
 175  1338.66
 176  1325.03
 177  1301.801
 178  1352.437
 179  1343.869
 180  1388.939
 181  1386.232
 182  1406.13
 183  1366.233
 184  1369.104
 185  1447.693
 186  1414.986
 187  1388.691
 188  1402.013
 189  1369.65
 190  1302.407
 191  1293.792
 192  1319.653
 193  1331.707
 194  1347.167
 195  1370.37
 196  1426.516
 197  1320.834
 198  1297.017
 199  1394.318
 200  1419.311
 201  1382.793
 202  1421.534
 203  1391.952
 204  1279.47
 205  1288.042
 206  1327.704
 207  1305.08
 208  1338.175
 209  1393.167
 210  1382.627
 211  1233.267
 212  1384.575
 213  1451.582
 214  1445.837
 215  1323.389
 216  1253.661
 217  1335.081
 218  1243.729
 219  1268.908
 220  1329.351
 221  1320.07
 222  1392.894
 223  1350.326
 224  1371.913
 225  1339.31
 226  1315.396
 227  1360.765
 228  1405.681
 229  1300.388
 230  1296.623
 231  1342.28
 232  1334.095
 233  1329.16
 234  1302.798
 235  1359.643
 236  1283.887
 237  1329.835
 238  1378.958
 239  1397.086
 240  1276.089
 241  1266.95
 242  1397.65
 243  1409.295
 244  1417.094
 245  1425.586
 246  1422.736
 247  1352.942
 248  1316.086
 249  1263.197
 250  1270.542
 251  1350.972
 252  1444.142
 253  1462.971
 254  1287.108
 255  1323.776
 256  1361.629
 257  1351.498
 258  1354.824
 259  1415.635
 260  1496.141
 261  1365.44
 262  1325.92
 263  1335.199
 264  1384.726
 265  1355.099
 266  1437.308
 267  1424.748
 268  1367.335
 269  1306.033
 270  1290.5
 271  1335.122
 272  1257.342
 273  1351.838
 274  1423.096
 275  1508.23
 276  1472.314
 277  1401.755
 278  1474.025
 279  1384.118
 280  1395.102
 281  1369.497
 282  1387.253
 283  1350.06
 284  1455.524
 285  1487.775
 286  1469.832
 287  1416.043
 288  1326.824
 289  1507.481
 290  1462.459
 291  1390.322
 292  1402.137
 293  1480.937
 294  1470.216
 295  1467.781
 296  1455.672
 297  1328.724
 298  1296.004
 299  1359.585
 300  1316.719
 301  1316.289
 302  1348.185
 303  1423.253
 304  1371.776
 305  1327.069
 306  1306.275
 307  1334.079
 308  1359.833
 309  1344.875
 310  1312.027
 311  1331.774
 312  1207.181
 313  1329.526
 314  1401.328
 315  1380.602
 316  1378.374
 317  1432.813
 318  1401.881
 319  1308.75
 320  1331.407
 321  1431.879
 322  1450.691
 323  1437.722
 324  1468.562
 325  1416.963
 326  1267.64
 327  1218.117
 328  1338.998
 329  1307.891
 330  1303.108
 331  1284.755
 332  1326.063
 333  1349.943
 334  1289.33
 335  1285.671
 336  1306.382
 337  1286.051
 338  1432.866
 339  1396.799
 340  1283.77
 341  1247.123
 342  1320.423
 343  1365.84
 344  1391.663
 345  1415.863
 346  1453.449
 347  1448.587
 348  1339.393
 349  1404.908
 350  1384.106
 351  1302.511
 352  1284.683
 353  1302.663
 354  1311.042
 355  1310.606
 356  1425.231
 357  1446.199
 358  1432.427
 359  1426.456
 360  1412.996
 361  1469.519
 362  1449.776
 363  1421.247
 364  1420.171
 365  1409.182
 366  1369.326
 367  1325.723
 368  1439.08
 369  1448.77
 370  1372.834
 371  1429.384
 372  1386.272
 373  1289.719
 374  1344.688
 375  1445.288
 376  1409.632
 377  1376.797
 378  1407.293
 379  1454.923
 380  1331.711
 381  1365.05
 382  1443.799
 383  1465.392
 384  1488.206
 385  1446.296
 386  1383.276
 387  1315.396
 388  1346.052
 389  1423.917
 390  1411.684
 391  1386.637
 392  1431.776
 393  1379.331
 394  1482.157
 395  1510.031
 396  1461.513
 397  1358.038
 398  1417.018
 399  1423.772
 400  1420.884
 401  1351.585
 402  1309.381
 403  1279.214
 404  1392.948
 405  1396.937
 406  1425.301
 407  1483.962
 408  1456.419
 409  1400.109
 410  1327.271
 411  1369.153
 412  1285.41
 413  1349.458
 414  1475.427
 415  1383.223
 416  1380.978
 417  1356.647
 418  1402.041
 419  1367.179
 420  1397.011
 421  1544.081
 422  1591.062
 423  1432.34
 424  1400.341
 425  1446.729
 426  1504.831
 427  1456.65
 428  1504.179
 429  1537.448
 430  1402.038
 431  1471.033
 432  1487.659
 433  1435.883
 434  1406.969
 435  1406.81
 436  1418.414
 437  1399.501
 438  1454.969
 439  1431.836
 440  1394.274
 441  1381.198
 442  1377.804
 443  1407.704
 444  1353.928
 445  1327.957
 446  1344.314
 447  1368.571
 448  1411.251
 449  1450.097
 450  1527.194
 451  1437.309
 452  1421.521
 453  1425.695
 454  1386.192
 455  1365.245
 456  1424.825
 457  1490.293
 458  1392.532
 459  1343.153
 460  1269.563
 461  1309.209
 462  1350.128
 463  1299.1
 464  1199.489
 465  1248.292
 466  1284.12
 467  1291.022
 468  1291.324
 469  1321.867
 470  1361.591
 471  1402.143
 472  1456.052
 473  1412.689
 474  1385.232
 475  1379.293
 476  1352.047
 477  1346.367
 478  1358.613
 479  1313.792
 480  1392.289
 481  1350.047
 482  1335.043
 483  1323.944
 484  1357.748
 485  1374.381
 486  1448.977
 487  1365.22
 488  1341.698
 489  1301.995
 490  1331.489
 491  1368.878
 492  1376.723
 493  1416.616
 494  1312.937
 495  1364.03
 496  1443.254
 497  1423.417
 498  1523.246
 499  1520.332
 500  1502.612
 501  1496.024
 502  1506.238
 503  1419.149
 504  1433.411
 505  1471.044
 506  1446.433
 507  1459.067
 508  1462.488
 509  1422.589
 510  1516.437
 511  1631.924
