# Input file       =  1195487547.307883_cleaned.dat
# Candidate        =  PSR_0332+5434
# Telescope        =  AR
# Epoch_topo       =  58080.661218841240
# Epoch_bary       =  N/A
# T_sample         =  0.002
# Data Folded      =  7143424
# Data Avg         =  0.0987667432944225
# Data StdDev      =  1.00032249224849 
# Profile Bins     =  512
# Profile Avg      =  1377.98801060834 
# Profile StdDev   =  118.156676809765 
# Reduced chi-sqr  =  0.663
# Prob(Noise)      <  1   (~0.0 sigma)
# P_topo (ms)      =  714.518065848162  +/- 8.85e-05
# P'_topo (s/s)    =  -0                +/- 4.8e-11
# P''_topo (s/s^2) =  0                 +/- 2.18e-14
# P_bary (ms)      =  N/A
# P'_bary (s/s)    =  N/A
# P''_bary (s/s^2) =  N/A
# P_orb (s)        =  N/A
# asin(i)/c (s)    =  N/A
# eccentricity     =  N/A
# w (rad)          =  N/A
# T_peri           =  N/A
######################################################
   0  1646.354
   1  1591.777
   2  1635.008
   3  1479.834
   4  1420.092
   5  1300.395
   6  1379.626
   7  1398.789
   8  1417.189
   9  1454.255
  10  1458.282
  11  1446.47
  12  1310.674
  13  1344.537
  14  1322.169
  15  1375.581
  16  1483.105
  17  1531.905
  18  1421.687
  19  1361.343
  20  1335.802
  21  1268.212
  22  1340.977
  23  1306.036
  24  1380.499
  25  1433.812
  26  1464.623
  27  1477.024
  28  1327.795
  29  1353.16
  30  1491.052
  31  1451.619
  32  1447.719
  33  1391.189
  34  1370.967
  35  1376.534
  36  1428.98
  37  1486.216
  38  1408.908
  39  1326.646
  40  1359.873
  41  1415.289
  42  1379.687
  43  1397.21
  44  1410.959
  45  1488.983
  46  1392.321
  47  1349.718
  48  1277.248
  49  1359.422
  50  1467.837
  51  1423.635
  52  1454.273
  53  1430.016
  54  1457.67
  55  1412.847
  56  1338.774
  57  1224.748
  58  1349.089
  59  1518.782
  60  1428.06
  61  1470.056
  62  1387.441
  63  1402.222
  64  1394.135
  65  1249.469
  66  1331.781
  67  1338.342
  68  1301.031
  69  1282.016
  70  1315.022
  71  1282.614
  72  1177.267
  73  1233.894
  74  1382.962
  75  1413.152
  76  1318.458
  77  1347.593
  78  1309.406
  79  1355.608
  80  1326.974
  81  1308.686
  82  1381.916
  83  1389.716
  84  1360.687
  85  1321.433
  86  1408.055
  87  1350.066
  88  1282.678
  89  1275.83
  90  1318.36
  91  1355.364
  92  1430.838
  93  1426.994
  94  1466.103
  95  1420.158
  96  1285.422
  97  1262.198
  98  1315.658
  99  1334.564
 100  1369.343
 101  1371.801
 102  1429.442
 103  1338.677
 104  1316.834
 105  1353.441
 106  1376.238
 107  1365.859
 108  1411.866
 109  1343.984
 110  1240.816
 111  1266.682
 112  1339.003
 113  1325.965
 114  1350.5
 115  1381.052
 116  1401.332
 117  1373.963
 118  1306.239
 119  1330.417
 120  1303.689
 121  1280.792
 122  1337.435
 123  1345.13
 124  1416.267
 125  1434.913
 126  1467.112
 127  1445.931
 128  1395.258
 129  1292.34
 130  1306.468
 131  1403.236
 132  1314.782
 133  1268.392
 134  1311.707
 135  1439.099
 136  1378.494
 137  1405.785
 138  1363.994
 139  1300.331
 140  1372.634
 141  1367.098
 142  1360.298
 143  1398.972
 144  1505.122
 145  1432.914
 146  1268.976
 147  1282.168
 148  1340.49
 149  1379.657
 150  1410.805
 151  1425.174
 152  1435.591
 153  1403.992
 154  1292.856
 155  1341.717
 156  1298.377
 157  1367.615
 158  1314.223
 159  1318.587
 160  1442.944
 161  1344.015
 162  1267.883
 163  1266.912
 164  1326.237
 165  1445.886
 166  1475.819
 167  1461.504
 168  1391.209
 169  1319.439
 170  1330.256
 171  1273.971
 172  1295.092
 173  1343.07
 174  1344.448
 175  1339.899
 176  1297.039
 177  1333.773
 178  1340.404
 179  1382.072
 180  1381.043
 181  1413.157
 182  1367.751
 183  1368.134
 184  1404.171
 185  1442.819
 186  1396.99
 187  1395.963
 188  1397.155
 189  1317.156
 190  1292.983
 191  1306.648
 192  1333.749
 193  1336.186
 194  1350.747
 195  1421.014
 196  1370.834
 197  1282.076
 198  1353.72
 199  1421.122
 200  1408.498
 201  1392.17
 202  1419.899
 203  1331.915
 204  1266.675
 205  1308.75
 206  1339.97
 207  1287.446
 208  1385.229
 209  1396.643
 210  1289.577
 211  1291.426
 212  1445.302
 213  1449.372
 214  1394.325
 215  1262.061
 216  1301.552
 217  1297.992
 218  1223.602
 219  1330.994
 220  1305.982
 221  1370.136
 222  1370.171
 223  1354.803
 224  1367.633
 225  1315.301
 226  1344.094
 227  1396.642
 228  1343.573
 229  1278.716
 230  1339.061
 231  1341.882
 232  1322.594
 233  1306.332
 234  1339.286
 235  1336.628
 236  1299.127
 237  1346.558
 238  1418.515
 239  1325.02
 240  1263.906
 241  1321.621
 242  1427.94
 243  1390.745
 244  1440.434
 245  1415.812
 246  1391.641
 247  1333.705
 248  1275.382
 249  1267.991
 250  1297.009
 251  1420.558
 252  1471.252
 253  1367.361
 254  1281.378
 255  1366.66
 256  1353.184
 257  1340.869
 258  1380.804
 259  1460.971
 260  1452.854
 261  1312.708
 262  1345.448
 263  1361.756
 264  1356.625
 265  1411.679
 266  1433.357
 267  1400.579
 268  1321.668
 269  1292.097
 270  1330.179
 271  1293.125
 272  1282.927
 273  1393.506
 274  1482.644
 275  1495.15
 276  1430.958
 277  1442.664
 278  1433.26
 279  1380.058
 280  1362.971
 281  1397.608
 282  1357.938
 283  1404.442
 284  1473.429
 285  1481.577
 286  1464.958
 287  1335.031
 288  1429.198
 289  1505.536
 290  1422.827
 291  1372.311
 292  1467.106
 293  1454.207
 294  1486.588
 295  1459.877
 296  1399.088
 297  1289.418
 298  1331.892
 299  1353.39
 300  1293.001
 301  1336.137
 302  1383.091
 303  1413.906
 304  1344.033
 305  1313.121
 306  1315.773
 307  1333.401
 308  1379.874
 309  1296.988
 310  1355.39
 311  1246.766
 312  1267.672
 313  1385.254
 314  1389.18
 315  1378.195
 316  1396.173
 317  1445.453
 318  1320.712
 319  1326.921
 320  1377.943
 321  1461.505
 322  1428.324
 323  1452.21
 324  1471.093
 325  1329.146
 326  1213.335
 327  1289.426
 328  1332.129
 329  1308.106
 330  1284.274
 331  1299.312
 332  1356.558
 333  1313.659
 334  1264.636
 335  1326.258
 336  1268.547
 337  1382.932
 338  1424.172
 339  1338.853
 340  1242.933
 341  1286.766
 342  1355.403
 343  1363.849
 344  1424.207
 345  1412.107
 346  1482.822
 347  1367.562
 348  1365.595
 349  1413.881
 350  1336.293
 351  1289.453
 352  1289.861
 353  1313.353
 354  1297.588
 355  1381.976
 356  1448.103
 357  1441.428
 358  1421.782
 359  1414.36
 360  1441.37
 361  1470.92
 362  1439.168
 363  1411.262
 364  1412.781
 365  1385.246
 366  1344.004
 367  1378.642
 368  1476.99
 369  1397.236
 370  1392.639
 371  1436.956
 372  1298.476
 373  1319.993
 374  1392.694
 375  1460.113
 376  1369.335
 377  1384.613
 378  1454.919
 379  1384.439
 380  1320.365
 381  1419.289
 382  1453.085
 383  1486.46
 384  1463.423
 385  1422.261
 386  1336.656
 387  1331.634
 388  1373.005
 389  1446.022
 390  1375.357
 391  1430.737
 392  1394.971
 393  1410.624
 394  1531.747
 395  1490.341
 396  1399.413
 397  1371.384
 398  1438.835
 399  1415.191
 400  1396.137
 401  1317.641
 402  1278.808
 403  1346.739
 404  1397.436
 405  1413.884
 406  1455.759
 407  1479.435
 408  1422.961
 409  1347.422
 410  1363.32
 411  1330.141
 412  1293.457
 413  1437.544
 414  1435.531
 415  1373.159
 416  1360.601
 417  1390.06
 418  1379.327
 419  1376.651
 420  1461.378
 421  1605.874
 422  1507.188
 423  1383.7
 424  1438.125
 425  1473.763
 426  1495.894
 427  1449.966
 428  1559.341
 429  1434.932
 430  1441.601
 431  1488.768
 432  1456.089
 433  1421.427
 434  1389.71
 435  1448.997
 436  1387.331
 437  1440.262
 438  1440.235
 439  1411.006
 440  1376.718
 441  1381.764
 442  1403.369
 443  1369.182
 444  1345.759
 445  1320.27
 446  1377.442
 447  1381.332
 448  1431.8
 449  1501.397
 450  1492.807
 451  1407.497
 452  1420.216
 453  1422.149
 454  1353.342
 455  1405.402
 456  1462.033
 457  1453.991
 458  1349.12
 459  1296.28
 460  1290.011
 461  1337.091
 462  1348.47
 463  1210.372
 464  1221.598
 465  1283.854
 466  1284.82
 467  1303.575
 468  1282.416
 469  1371.46
 470  1351.74
 471  1451.082
 472  1431.411
 473  1416.104
 474  1369.041
 475  1361.442
 476  1335.978
 477  1361.664
 478  1338.399
 479  1355.208
 480  1378.966
 481  1330.885
 482  1330.721
 483  1346.478
 484  1361.719
 485  1423.761
 486  1407.276
 487  1336.403
 488  1335.966
 489  1293.25
 490  1374.277
 491  1350.199
 492  1422.353
 493  1355.589
 494  1316.964
 495  1433.292
 496  1422.295
 497  1464.933
 498  1554.251
 499  1482.484
 500  1515.584
 501  1497.661
 502  1456.518
 503  1423.857
 504  1456.268
 505  1479.195
 506  1429.421
 507  1484.438
 508  1422.206
 509  1462.437
 510  1590.26
 511  1633.46
