# Input file       =  1195315227.114825_cleaned.dat
# Candidate        =  PSR_0332+5434
# Telescope        =  AR
# Epoch_topo       =  58078.666772162323
# Epoch_bary       =  N/A
# T_sample         =  0.002
# Data Folded      =  7143424
# Data Avg         =  0.104093533936849
# Data StdDev      =  1.00040949891502 
# Profile Bins     =  512
# Profile Avg      =  1452.31717225622 
# Profile StdDev   =  118.166953914057 
# Reduced chi-sqr  =  0.646
# Prob(Noise)      <  1   (~0.0 sigma)
# P_topo (ms)      =  714.516001833153  +/- 3.84e-05
# P'_topo (s/s)    =  -0                +/- 2.08e-11
# P''_topo (s/s^2) =  0                 +/- 9.44e-15
# P_bary (ms)      =  N/A
# P'_bary (s/s)    =  N/A
# P''_bary (s/s^2) =  N/A
# P_orb (s)        =  N/A
# asin(i)/c (s)    =  N/A
# eccentricity     =  N/A
# w (rad)          =  N/A
# T_peri           =  N/A
######################################################
   0  1752.284
   1  1791.237
   2  1566.944
   3  1399.889
   4  1419.168
   5  1430.85
   6  1500.898
   7  1456.339
   8  1549.274
   9  1539.169
  10  1446.052
  11  1398.843
  12  1393.476
  13  1453.209
  14  1582.188
  15  1601.545
  16  1509.455
  17  1329.358
  18  1381.411
  19  1469.87
  20  1557.12
  21  1531.861
  22  1539.23
  23  1485.426
  24  1393.185
  25  1512.567
  26  1476.343
  27  1473.234
  28  1395.412
  29  1413.515
  30  1541.258
  31  1534.368
  32  1477.895
  33  1463.934
  34  1481.78
  35  1469.564
  36  1457.109
  37  1504.867
  38  1479.434
  39  1497.523
  40  1496.025
  41  1441.91
  42  1381.699
  43  1453.356
  44  1459.407
  45  1408.65
  46  1365.652
  47  1431.762
  48  1581.433
  49  1604.155
  50  1467.556
  51  1478.032
  52  1473.738
  53  1470.511
  54  1506.517
  55  1530.436
  56  1444.05
  57  1361.62
  58  1344.909
  59  1329.653
  60  1306.156
  61  1354.422
  62  1321.119
  63  1385.588
  64  1496.981
  65  1526.884
  66  1520.009
  67  1408.357
  68  1553.446
  69  1408.499
  70  1413.752
  71  1401.33
  72  1485.771
  73  1465.252
  74  1367.052
  75  1392.478
  76  1437.723
  77  1473.392
  78  1446.583
  79  1513.159
  80  1543.937
  81  1503.959
  82  1438.01
  83  1421.653
  84  1368.922
  85  1359.306
  86  1415.458
  87  1540.884
  88  1482.181
  89  1384.801
  90  1338.064
  91  1412.23
  92  1459.455
  93  1466.25
  94  1553.423
  95  1551.594
  96  1478.159
  97  1449.201
  98  1449.324
  99  1404.745
 100  1441.855
 101  1484.735
 102  1431.948
 103  1306.347
 104  1472.268
 105  1546.004
 106  1527.984
 107  1513.742
 108  1503.122
 109  1486.664
 110  1346.724
 111  1410.781
 112  1472.815
 113  1375.417
 114  1420.454
 115  1474.774
 116  1494.281
 117  1426.107
 118  1320.11
 119  1358.523
 120  1492.277
 121  1488.265
 122  1505.557
 123  1546.042
 124  1510.579
 125  1493.041
 126  1567.063
 127  1547.56
 128  1571.167
 129  1536.302
 130  1471.822
 131  1403.012
 132  1371.241
 133  1488.994
 134  1495.818
 135  1496.471
 136  1440.335
 137  1453.178
 138  1420.742
 139  1498.448
 140  1523.578
 141  1415.596
 142  1373.044
 143  1440.573
 144  1523.975
 145  1421.093
 146  1330.633
 147  1447.016
 148  1478.068
 149  1433.629
 150  1434.208
 151  1429.4
 152  1478.397
 153  1437.43
 154  1556.308
 155  1480.566
 156  1420.811
 157  1362.664
 158  1443.565
 159  1501.771
 160  1422.144
 161  1443.706
 162  1517.773
 163  1484.828
 164  1481.432
 165  1466.707
 166  1393.837
 167  1323.267
 168  1407.087
 169  1528.115
 170  1502.933
 171  1440.246
 172  1388.205
 173  1365.299
 174  1327.231
 175  1397.381
 176  1526.188
 177  1454.777
 178  1429.503
 179  1431.678
 180  1493.19
 181  1485.363
 182  1482.956
 183  1517.575
 184  1513.485
 185  1377.48
 186  1332.133
 187  1443.54
 188  1478.034
 189  1428.017
 190  1425.472
 191  1465.492
 192  1455.905
 193  1480.337
 194  1495.652
 195  1555.099
 196  1487.977
 197  1530.905
 198  1482.758
 199  1432.007
 200  1529.773
 201  1525.058
 202  1558.751
 203  1428.895
 204  1415.201
 205  1445.922
 206  1396.691
 207  1460.596
 208  1454.468
 209  1521.158
 210  1481.261
 211  1497.559
 212  1489.582
 213  1405.865
 214  1417.753
 215  1388.056
 216  1512.55
 217  1473.624
 218  1466.631
 219  1511.121
 220  1446.717
 221  1418.036
 222  1467.36
 223  1533.995
 224  1492.408
 225  1501.465
 226  1567.513
 227  1518.876
 228  1439.457
 229  1561.787
 230  1527.502
 231  1471.516
 232  1410.988
 233  1492.497
 234  1529.033
 235  1476.063
 236  1396.79
 237  1407.506
 238  1447.466
 239  1335
 240  1405.165
 241  1468.268
 242  1470.194
 243  1489.196
 244  1493.959
 245  1505.713
 246  1412.052
 247  1417.888
 248  1529.519
 249  1480.179
 250  1479.263
 251  1427.372
 252  1546.324
 253  1523.311
 254  1523.738
 255  1607.207
 256  1541.795
 257  1492.684
 258  1514.333
 259  1559.14
 260  1446.512
 261  1326.116
 262  1426.624
 263  1445.396
 264  1523.517
 265  1510.787
 266  1448.847
 267  1339.187
 268  1395.845
 269  1456.521
 270  1462.724
 271  1397.036
 272  1364.735
 273  1400.731
 274  1473.034
 275  1449.001
 276  1389.768
 277  1348.498
 278  1309.686
 279  1346.779
 280  1412.448
 281  1501.093
 282  1384.343
 283  1405.785
 284  1428.657
 285  1410.646
 286  1417.039
 287  1478.337
 288  1530.396
 289  1459.452
 290  1485.097
 291  1425.759
 292  1332.482
 293  1407.472
 294  1409.278
 295  1444.34
 296  1432.434
 297  1391.328
 298  1489.299
 299  1399.326
 300  1392.662
 301  1354.603
 302  1414.778
 303  1420.334
 304  1364.213
 305  1446.863
 306  1452.822
 307  1443.244
 308  1379.57
 309  1374.523
 310  1378.983
 311  1450.166
 312  1500.054
 313  1463.602
 314  1399.623
 315  1376.148
 316  1443.354
 317  1492.023
 318  1472.124
 319  1525.06
 320  1461.26
 321  1348.857
 322  1376.946
 323  1411.214
 324  1400.723
 325  1387.063
 326  1492.25
 327  1488.739
 328  1478.17
 329  1476.795
 330  1472.644
 331  1433.068
 332  1335.645
 333  1316.008
 334  1433.634
 335  1399.192
 336  1476.966
 337  1398.45
 338  1375.645
 339  1366.844
 340  1343.806
 341  1510.137
 342  1422.253
 343  1393.318
 344  1368.096
 345  1434.06
 346  1330.882
 347  1286.039
 348  1387.555
 349  1368.19
 350  1393.77
 351  1371.655
 352  1400.804
 353  1423.674
 354  1422.34
 355  1432.753
 356  1438.818
 357  1365.099
 358  1414.921
 359  1533.704
 360  1546.272
 361  1439.231
 362  1359.723
 363  1425.366
 364  1403.341
 365  1408.128
 366  1387.702
 367  1429.635
 368  1368.443
 369  1363.806
 370  1401.68
 371  1426.518
 372  1413.647
 373  1537.693
 374  1547.55
 375  1428.647
 376  1410.077
 377  1497.722
 378  1439.548
 379  1481.287
 380  1508.293
 381  1420.267
 382  1366.427
 383  1386.82
 384  1501.791
 385  1370.277
 386  1354.945
 387  1332.689
 388  1353.347
 389  1365.75
 390  1336.727
 391  1434.209
 392  1415.828
 393  1390.682
 394  1449.327
 395  1420.67
 396  1331.214
 397  1297.273
 398  1503.641
 399  1483.158
 400  1402.769
 401  1392.056
 402  1449.615
 403  1497.745
 404  1495.771
 405  1477.249
 406  1543.175
 407  1463.503
 408  1496.948
 409  1452.882
 410  1395.496
 411  1397.414
 412  1466.624
 413  1489.472
 414  1435.924
 415  1476.353
 416  1516.136
 417  1460.569
 418  1383.168
 419  1444.763
 420  1471.073
 421  1485.024
 422  1426.289
 423  1385.992
 424  1398.332
 425  1448.136
 426  1474.631
 427  1463.705
 428  1467.807
 429  1423.916
 430  1326.004
 431  1340.978
 432  1442.938
 433  1456.717
 434  1523.567
 435  1397.63
 436  1465.377
 437  1423.754
 438  1399.819
 439  1383.894
 440  1349.418
 441  1468.364
 442  1420.917
 443  1401.7
 444  1453.168
 445  1399.57
 446  1521.434
 447  1408.748
 448  1422.992
 449  1465.59
 450  1410.319
 451  1488.447
 452  1431.141
 453  1426.438
 454  1409.209
 455  1503.673
 456  1507.718
 457  1367.666
 458  1402.633
 459  1417.356
 460  1489.344
 461  1437.968
 462  1522.779
 463  1525.02
 464  1429.614
 465  1390.052
 466  1406.146
 467  1416.86
 468  1442.803
 469  1412.613
 470  1578.857
 471  1412.62
 472  1319.445
 473  1361.078
 474  1410.899
 475  1386.509
 476  1425.479
 477  1527.584
 478  1450.018
 479  1423.946
 480  1461.211
 481  1443.947
 482  1392.858
 483  1447.233
 484  1523.745
 485  1555.249
 486  1451.018
 487  1505.26
 488  1542.73
 489  1454.902
 490  1408.625
 491  1518.373
 492  1532.128
 493  1444.799
 494  1534.464
 495  1620.188
 496  1646.934
 497  1634.448
 498  1662.686
 499  1622.177
 500  1525.687
 501  1511.92
 502  1541.817
 503  1561.246
 504  1532.919
 505  1600.922
 506  1582.377
 507  1482.599
 508  1472.359
 509  1610.797
 510  1599.048
 511  1671.88
