# Input file       =  1195171863.10669_cleaned.dat
# Candidate        =  PSR_0332+5434
# Telescope        =  AR
# Epoch_topo       =  58077.007466512616
# Epoch_bary       =  N/A
# T_sample         =  0.002
# Data Folded      =  7340032
# Data Avg         =  0.0538775324022636
# Data StdDev      =  1.00018415710507 
# Profile Bins     =  512
# Profile Avg      =  772.388848376022 
# Profile StdDev   =  119.755086066126 
# Reduced chi-sqr  =  0.602
# Prob(Noise)      <  1   (~0.0 sigma)
# P_topo (ms)      =  714.51463653735   +/- 3.03e-05
# P'_topo (s/s)    =  -0                +/- 1.6e-11
# P''_topo (s/s^2) =  0                 +/- 7.07e-15
# P_bary (ms)      =  N/A
# P'_bary (s/s)    =  N/A
# P''_bary (s/s^2) =  N/A
# P_orb (s)        =  N/A
# asin(i)/c (s)    =  N/A
# eccentricity     =  N/A
# w (rad)          =  N/A
# T_peri           =  N/A
######################################################
   0  983.9673
   1  971.4847
   2  833.7648
   3  780.9926
   4  800.3082
   5  776.2959
   6  741.7645
   7  788.6536
   8  813.8797
   9  776.2772
  10  824.618
  11  920.7103
  12  906.298
  13  905.6443
  14  873.4838
  15  875.5914
  16  865.5767
  17  858.2317
  18  904.528
  19  851.9242
  20  827.5845
  21  831.7825
  22  800.7408
  23  836.2801
  24  758.9932
  25  744.006
  26  793.8769
  27  835.9678
  28  722.6656
  29  790.8906
  30  767.3514
  31  676.1381
  32  727.3661
  33  815.2683
  34  855.2081
  35  819.8333
  36  828.9797
  37  788.2965
  38  642.9587
  39  772.7482
  40  846.3072
  41  764.2973
  42  739.7943
  43  792.7081
  44  874.4513
  45  756.1754
  46  716.7335
  47  731.269
  48  670.6815
  49  670.168
  50  827.1949
  51  735.5753
  52  677.7213
  53  642.8335
  54  739.9269
  55  718.6859
  56  734.7301
  57  857.306
  58  856.571
  59  858.7269
  60  779.809
  61  757.9765
  62  815.0839
  63  735.3156
  64  716.777
  65  806.2418
  66  831.7766
  67  767.5051
  68  720.3486
  69  869.0042
  70  686.976
  71  663.4048
  72  765.1205
  73  770.5346
  74  732.2446
  75  745.243
  76  789.1062
  77  768.6847
  78  726.399
  79  725.3856
  80  684.179
  81  666.8727
  82  721.4831
  83  802.0674
  84  758.605
  85  656.8511
  86  690.9647
  87  686.7642
  88  642.4968
  89  758.0148
  90  742.313
  91  756.0116
  92  764.9037
  93  893.3037
  94  854.1514
  95  778.8834
  96  790.507
  97  855.2787
  98  781.2369
  99  778.3035
 100  775.3298
 101  823.149
 102  757.8353
 103  674.4573
 104  748.3929
 105  808.9858
 106  866.402
 107  844.3836
 108  864.0729
 109  845.759
 110  710.9977
 111  712.0457
 112  814.5612
 113  815.416
 114  849.696
 115  959.808
 116  987.727
 117  886.6902
 118  844.5562
 119  861.6639
 120  683.998
 121  743.7888
 122  814.4121
 123  798.9025
 124  822.6168
 125  828.5853
 126  858.4611
 127  707.6053
 128  768.6247
 129  781.4103
 130  908.3182
 131  887.2877
 132  820.9987
 133  816.6982
 134  855.403
 135  779.6697
 136  749.3623
 137  737.7512
 138  725.7618
 139  617.1799
 140  690.8806
 141  744.9407
 142  700.8667
 143  700.9911
 144  721.8619
 145  743.08
 146  774.5746
 147  812.6874
 148  752.4095
 149  732.6063
 150  772.2197
 151  794.1829
 152  769.3131
 153  741.7147
 154  714.5444
 155  733.8745
 156  725.3964
 157  731.0876
 158  751.6859
 159  785.6337
 160  764.5389
 161  793.7192
 162  803.8284
 163  728.4526
 164  731.5853
 165  755.3018
 166  716.3854
 167  687.4618
 168  741.737
 169  832.6672
 170  740.5248
 171  763.3126
 172  813.6729
 173  770.6479
 174  664.4354
 175  685.7674
 176  765.9233
 177  843.3265
 178  781.6521
 179  837.426
 180  732.3651
 181  688.5301
 182  656.587
 183  724.3896
 184  763.6729
 185  770.8281
 186  791.6977
 187  802.6497
 188  754.9046
 189  746.2833
 190  791.4236
 191  811.9666
 192  694.5374
 193  724.1199
 194  868.717
 195  829.9922
 196  734.7271
 197  836.8782
 198  847.8631
 199  796.2654
 200  820.8918
 201  844.3453
 202  717.9208
 203  690.3972
 204  696.4904
 205  770.9069
 206  738.1663
 207  676.3253
 208  734.944
 209  667.8716
 210  588.9064
 211  677.9977
 212  767.1324
 213  783.5898
 214  758.7526
 215  794.5579
 216  715.0109
 217  679.7828
 218  791.5199
 219  765.6285
 220  716.6175
 221  638.7673
 222  709.9824
 223  728.7966
 224  649.8465
 225  656.6639
 226  720.2978
 227  699.8929
 228  694.7059
 229  711.222
 230  742.5682
 231  693.7502
 232  685.9933
 233  785.0536
 234  749.7942
 235  702.7577
 236  699.952
 237  629.5749
 238  659.8504
 239  650.8406
 240  690.6362
 241  687.8344
 242  728.927
 243  792.8918
 244  795.2314
 245  788.7759
 246  650.4352
 247  776.6423
 248  798.9269
 249  771.7554
 250  722.3676
 251  732.8785
 252  733.1658
 253  689.9559
 254  717.037
 255  733.1819
 256  734.8469
 257  797.6209
 258  875.1434
 259  829.878
 260  764.9075
 261  789.3895
 262  821.3738
 263  816.7787
 264  703.9193
 265  763.2761
 266  832.8298
 267  811.0656
 268  744.014
 269  763.2117
 270  824.725
 271  789.5381
 272  792.3745
 273  811.9469
 274  784.4911
 275  745.686
 276  649.6357
 277  702.5162
 278  721.5873
 279  798.7929
 280  748.4725
 281  652.5037
 282  678.4987
 283  758.5855
 284  761.474
 285  653.4266
 286  760.4294
 287  863.538
 288  742.1732
 289  569.2333
 290  729.4588
 291  813.5989
 292  701.6673
 293  678.9857
 294  786.1713
 295  807.7275
 296  724.7175
 297  665.6363
 298  725.4432
 299  802.8329
 300  804.4095
 301  871.8926
 302  746.0121
 303  664.1746
 304  771.1808
 305  803.9655
 306  788.5088
 307  685.5118
 308  767.7806
 309  764.6788
 310  712.7551
 311  725.6608
 312  829.8292
 313  770.3729
 314  714.1234
 315  769.5027
 316  799.2637
 317  822.1548
 318  822.7146
 319  876.3599
 320  844.186
 321  835.5923
 322  770.1405
 323  774.3167
 324  804.2664
 325  822.0419
 326  761.4634
 327  791.6808
 328  773.769
 329  772.9482
 330  769.6256
 331  742.7137
 332  795.3394
 333  880.441
 334  887.9669
 335  759.8783
 336  707.8495
 337  752.8882
 338  760.8145
 339  822.426
 340  854.7048
 341  868.4601
 342  869.931
 343  806.0075
 344  847.4561
 345  773.4847
 346  749.4896
 347  786.1748
 348  865.9681
 349  809.7577
 350  629.1437
 351  614.6312
 352  686.6498
 353  723.4624
 354  712.4069
 355  838.1036
 356  874.6873
 357  843.2328
 358  786.0484
 359  798.0341
 360  711.4897
 361  771.3958
 362  786.0595
 363  751.6771
 364  703.899
 365  755.8959
 366  756.6782
 367  683.7195
 368  726.4561
 369  794.9033
 370  698.6465
 371  648.92
 372  703.0787
 373  735.5153
 374  742.3769
 375  720.3223
 376  805.0698
 377  895.1266
 378  753.8188
 379  696.6243
 380  829.7522
 381  796.0049
 382  777.9505
 383  854.8254
 384  860.0129
 385  861.224
 386  875.1368
 387  825.4277
 388  749.8686
 389  707.6602
 390  890.9769
 391  906.1914
 392  786.0085
 393  741.7383
 394  780.2234
 395  692.8759
 396  668.8869
 397  748.9794
 398  868.3941
 399  771.5244
 400  731.1258
 401  806.5928
 402  872.4459
 403  821.8297
 404  838.4991
 405  923.2073
 406  883.5098
 407  821.8843
 408  774.5842
 409  816.2668
 410  854.9681
 411  808.1138
 412  816.4257
 413  819.1652
 414  728.6304
 415  750.0126
 416  811.2901
 417  777.9102
 418  812.7342
 419  860.1506
 420  871.9397
 421  770.8851
 422  709.8478
 423  820.8566
 424  853.6517
 425  826.8075
 426  820.662
 427  796.2498
 428  829.7569
 429  789.2861
 430  841.4172
 431  795.4603
 432  710.9559
 433  855.3425
 434  889.6871
 435  806.3948
 436  707.7321
 437  728.5937
 438  781.7816
 439  757.5641
 440  834.8809
 441  736.2917
 442  730.2213
 443  725.6219
 444  743.1063
 445  796.043
 446  793.9196
 447  782.5942
 448  843.8679
 449  831.2855
 450  772.0229
 451  773.3441
 452  749.915
 453  647.3317
 454  732.7021
 455  901.811
 456  930.9934
 457  803.2225
 458  758.6602
 459  803.3787
 460  755.5751
 461  751.0291
 462  698.5825
 463  672.8776
 464  645.8245
 465  697.8331
 466  723.9942
 467  646.9956
 468  596.3314
 469  734.025
 470  861.8981
 471  796.5231
 472  793.2037
 473  869.9799
 474  748.2051
 475  709.1468
 476  746.0865
 477  814.2375
 478  805.2973
 479  709.5054
 480  751.9376
 481  812.6465
 482  685.8395
 483  628.3382
 484  777.8177
 485  826.2184
 486  702.2116
 487  790.5657
 488  823.4227
 489  786.9828
 490  700.8726
 491  777.3873
 492  773.8828
 493  716.0916
 494  815.1984
 495  814.4128
 496  715.7234
 497  736.7491
 498  831.682
 499  796.0725
 500  836.1685
 501  838.498
 502  842.4128
 503  747.8388
 504  740.1627
 505  911.4026
 506  918.5417
 507  732.1301
 508  784.6873
 509  868.6059
 510  889.9485
 511  915.851
