# Input file       =  1195156967.112164_cleaned.dat
# Candidate        =  PSR_0332+5434
# Telescope        =  AR
# Epoch_topo       =  58076.835059168567
# Epoch_bary       =  N/A
# T_sample         =  0.002
# Data Folded      =  7340032
# Data Avg         =  0.0573536789368944
# Data StdDev      =  1.00014884991658 
# Profile Bins     =  512
# Profile Avg      =  822.176754996423 
# Profile StdDev   =  119.750858629243 
# Reduced chi-sqr  =  0.649
# Prob(Noise)      <  1   (~0.0 sigma)
# P_topo (ms)      =  714.514127240111  +/- 0.000349
# P'_topo (s/s)    =  -0                +/- 1.84e-10
# P''_topo (s/s^2) =  0                 +/- 8.13e-14
# P_bary (ms)      =  N/A
# P'_bary (s/s)    =  N/A
# P''_bary (s/s^2) =  N/A
# P_orb (s)        =  N/A
# asin(i)/c (s)    =  N/A
# eccentricity     =  N/A
# w (rad)          =  N/A
# T_peri           =  N/A
######################################################
   0  1081.309
   1  1069.147
   2  1007.447
   3  929.8925
   4  799.8627
   5  794.4091
   6  849.2429
   7  900.4416
   8  843.5932
   9  740.7215
  10  769.4705
  11  794.0747
  12  765.34
  13  804.9824
  14  786.8004
  15  834.7363
  16  842.9213
  17  834.8237
  18  868.8475
  19  755.9601
  20  755.398
  21  897.1879
  22  827.0482
  23  670.1961
  24  785.1949
  25  859.3705
  26  809.6176
  27  733.8137
  28  778.9473
  29  830.1634
  30  882.4818
  31  931.2378
  32  858.9913
  33  800.2905
  34  738.6741
  35  772.9799
  36  726.053
  37  778.9167
  38  865.3126
  39  861.2938
  40  770.7053
  41  808.0577
  42  888.5661
  43  827.8131
  44  782.3751
  45  748.3379
  46  736.8923
  47  792.3549
  48  821.1508
  49  823.8334
  50  802.9364
  51  740.9288
  52  702.8183
  53  777.6399
  54  822.8929
  55  771.3853
  56  781.8087
  57  806.3694
  58  738.2137
  59  788.2695
  60  834.2316
  61  791.3342
  62  746.4412
  63  825.511
  64  884.2722
  65  818.3773
  66  839.1135
  67  871.5595
  68  786.1786
  69  735.1429
  70  869.0582
  71  891.7549
  72  780.0148
  73  780.7233
  74  829.6116
  75  771.788
  76  805.8693
  77  803.607
  78  792.8746
  79  712.717
  80  733.8056
  81  781.3357
  82  768.4322
  83  772.6393
  84  824.2543
  85  875.0754
  86  827.1467
  87  843.8341
  88  863.0072
  89  835.8035
  90  813.3498
  91  810.3929
  92  813.6065
  93  847.5566
  94  851.4933
  95  881.2105
  96  769.4196
  97  738.9268
  98  767.5759
  99  794.6215
 100  870.8116
 101  856.472
 102  825.4897
 103  755.7094
 104  821.9791
 105  740.5018
 106  829.0751
 107  893.1417
 108  850.7614
 109  865.2357
 110  853.5323
 111  824.4512
 112  731.7913
 113  757.8823
 114  839.5756
 115  830.3983
 116  817.4497
 117  820.2343
 118  802.6448
 119  855.0046
 120  931.3955
 121  958.3913
 122  848.3846
 123  814.0753
 124  769.1753
 125  827.4131
 126  814.8696
 127  806.2424
 128  821.612
 129  827.4489
 130  830.0607
 131  867.5028
 132  908.0814
 133  735.6053
 134  769.024
 135  890.6862
 136  953.9469
 137  895.8366
 138  869.4801
 139  948.9372
 140  858.1536
 141  845.3812
 142  958.8342
 143  932.6544
 144  923.4647
 145  867.598
 146  854.4795
 147  905.1494
 148  930.6851
 149  950.5901
 150  975.4685
 151  787.1128
 152  757.5081
 153  767.6077
 154  787.6451
 155  784.7265
 156  786.0832
 157  852.6349
 158  841.4553
 159  791.1717
 160  816.4365
 161  883.7386
 162  856.8495
 163  810.5915
 164  851.8403
 165  888.2908
 166  847.9844
 167  802.1328
 168  829.0503
 169  808.9393
 170  750.4943
 171  829.7076
 172  808.8893
 173  819.488
 174  883.7825
 175  876.4341
 176  831.0696
 177  724.5793
 178  732.3595
 179  744.5287
 180  653.9953
 181  734.129
 182  767.4096
 183  772.5709
 184  770.4639
 185  731.8911
 186  755.8526
 187  793.1879
 188  835.2568
 189  824.67
 190  834.4501
 191  756.0948
 192  747.4781
 193  752.3318
 194  742.8356
 195  757.6716
 196  854.7064
 197  838.0208
 198  777.3948
 199  823.568
 200  880.1186
 201  940.2144
 202  875.345
 203  822.7682
 204  871.2177
 205  880.8796
 206  895.9371
 207  851.5668
 208  804.2162
 209  828.9479
 210  882.0148
 211  852.6075
 212  802.5966
 213  758.4868
 214  781.4617
 215  784.6969
 216  770.9182
 217  786.1523
 218  820.4322
 219  841.1989
 220  896.149
 221  863.5872
 222  826.3072
 223  796.3943
 224  868.2182
 225  942.077
 226  857.9118
 227  767.9853
 228  753.7881
 229  867.8397
 230  804.0223
 231  704.5853
 232  753.9285
 233  840.4575
 234  861.8295
 235  917.6074
 236  933.4855
 237  815.454
 238  730.9394
 239  777.5017
 240  860.0167
 241  866.0322
 242  898.9371
 243  915.5711
 244  791.2155
 245  828.9442
 246  981.7055
 247  880.98
 248  862.6798
 249  811.0474
 250  887.9405
 251  794.1172
 252  762.7402
 253  725.1115
 254  803.543
 255  849.1108
 256  819.8617
 257  831.5267
 258  865.1235
 259  905.0574
 260  786.4686
 261  765.7606
 262  749.4634
 263  725.8564
 264  804.7971
 265  836.9108
 266  788.6758
 267  785.4871
 268  796.2991
 269  734.9047
 270  686.1606
 271  811.3016
 272  822.6157
 273  724.9669
 274  845.5847
 275  869.9197
 276  716.6337
 277  672.064
 278  811.225
 279  853.4108
 280  828.1166
 281  809.8893
 282  961.418
 283  864.9532
 284  806.5735
 285  816.6121
 286  798.0927
 287  762.4711
 288  737.7541
 289  860.3915
 290  836.9672
 291  823.7759
 292  792.164
 293  816.0607
 294  867.582
 295  885.5439
 296  855.9539
 297  758.2514
 298  675.5916
 299  672.3256
 300  678.6251
 301  725.2654
 302  726.5018
 303  709.5594
 304  748.7383
 305  675.1775
 306  652.5688
 307  737.3081
 308  833.093
 309  727.0566
 310  701.9104
 311  728.1517
 312  737.824
 313  695.6441
 314  693.7435
 315  671.1541
 316  686.1906
 317  708.3415
 318  738.038
 319  666.8666
 320  667.5217
 321  812.7156
 322  739.5905
 323  693.0324
 324  755.6212
 325  766.6585
 326  762.0568
 327  706.196
 328  724.6514
 329  813.1061
 330  811.4069
 331  823.221
 332  829.9634
 333  774.2687
 334  872.5151
 335  835.0276
 336  892.6042
 337  800.6044
 338  785.3221
 339  844.6198
 340  782.0198
 341  752.4609
 342  722.0073
 343  682.6813
 344  592.1422
 345  687.7745
 346  753.2388
 347  763.1942
 348  748.0796
 349  721.3511
 350  758.5645
 351  728.041
 352  825.5716
 353  766.2379
 354  876.3709
 355  884.9206
 356  804.5452
 357  802.2708
 358  805.7195
 359  801.9387
 360  783.9816
 361  779.7042
 362  797.3331
 363  846.6669
 364  799.5205
 365  833.045
 366  897.2599
 367  832.1274
 368  814.4061
 369  840.4019
 370  854.5359
 371  797.8544
 372  801.5466
 373  839.6061
 374  833.5568
 375  811.0207
 376  841.449
 377  832.7527
 378  810.0665
 379  785.3229
 380  914.5116
 381  854.8568
 382  837.1456
 383  891.701
 384  966.057
 385  933.1018
 386  901.7219
 387  803.8397
 388  771.0891
 389  772.4325
 390  898.2654
 391  961.4122
 392  955.8006
 393  921.1323
 394  877.7066
 395  766.7213
 396  819.2413
 397  903.1116
 398  897.9995
 399  901.9452
 400  943.2874
 401  815.1483
 402  748.0139
 403  786.6033
 404  750.1722
 405  831.0629
 406  854.5421
 407  765.4659
 408  761.5103
 409  814.8046
 410  838.4347
 411  798.4572
 412  808.3812
 413  835.1512
 414  852.3781
 415  852.6815
 416  708.646
 417  752.3436
 418  846.457
 419  849.5143
 420  788.5804
 421  782.9708
 422  818.4932
 423  817.9198
 424  852.7222
 425  926.5953
 426  944.0114
 427  907.7311
 428  831.451
 429  823.5978
 430  824.0275
 431  786.275
 432  868.3009
 433  886.2813
 434  887.4713
 435  842.6541
 436  877.8858
 437  877.5563
 438  976.4039
 439  997.8911
 440  1011.157
 441  932.1091
 442  794.7726
 443  811.1248
 444  772.7714
 445  845.6589
 446  881.2525
 447  872.726
 448  944.8699
 449  842.7305
 450  825.0576
 451  836.2426
 452  770.8771
 453  834.3027
 454  862.3262
 455  926.4742
 456  938.7366
 457  921
 458  904.2149
 459  849.2864
 460  885.1309
 461  852.5919
 462  768.7693
 463  781.321
 464  857.5547
 465  925.7139
 466  875.3535
 467  926.0654
 468  872.2911
 469  818.9336
 470  909.4257
 471  969.213
 472  963.9662
 473  824.6965
 474  775.5732
 475  849.8328
 476  912.2668
 477  816.8946
 478  828.629
 479  840.6368
 480  858.9557
 481  853.3129
 482  859.7169
 483  850.1248
 484  789.501
 485  801.6291
 486  864.7537
 487  830.5968
 488  814.576
 489  942.5463
 490  966.4023
 491  818.0638
 492  785.3036
 493  749.2682
 494  772.4445
 495  827.5219
 496  827.4401
 497  790.3726
 498  789.0009
 499  827.818
 500  887.5856
 501  822.699
 502  826.29
 503  937.3942
 504  876.5854
 505  873.6373
 506  919.92
 507  905.425
 508  879.4607
 509  854.7903
 510  1024.141
 511  1133.057
