# Input file       =  1196292583.114135_cleaned.dat
# Candidate        =  PSR_0332+5434
# Telescope        =  AR
# Epoch_topo       =  58089.978762895080
# Epoch_bary       =  N/A
# T_sample         =  0.002
# Data Folded      =  7340032
# Data Avg         =  0.069517044659121
# Data StdDev      =  1.00022554269698 
# Profile Bins     =  512
# Profile Avg      =  996.59341165119  
# Profile StdDev   =  119.760041288709 
# Reduced chi-sqr  =  0.701
# Prob(Noise)      <  1   (~0.0 sigma)
# P_topo (ms)      =  714.528062956661  +/- 0.000475
# P'_topo (s/s)    =  -0                +/- 2.51e-10
# P''_topo (s/s^2) =  0                 +/- 1.11e-13
# P_bary (ms)      =  N/A
# P'_bary (s/s)    =  N/A
# P''_bary (s/s^2) =  N/A
# P_orb (s)        =  N/A
# asin(i)/c (s)    =  N/A
# eccentricity     =  N/A
# w (rad)          =  N/A
# T_peri           =  N/A
######################################################
   0  1258.065
   1  1267.921
   2  1165.263
   3  1048.809
   4  1009.236
   5  999.1896
   6  986.5519
   7  952.7659
   8  921.4736
   9  862.1552
  10  849.4457
  11  930.7217
  12  940.0052
  13  1050.305
  14  1051.473
  15  1120.541
  16  1102.993
  17  994.8294
  18  995.0468
  19  988.4271
  20  1008
  21  971.8987
  22  1045.93
  23  1084.281
  24  1023.285
  25  916.7703
  26  900.1443
  27  996.1644
  28  981.7598
  29  877.8679
  30  945.6224
  31  964.8547
  32  924.1346
  33  937.147
  34  1014.963
  35  1008.165
  36  1015.017
  37  1054.615
  38  1049.741
  39  1092.075
  40  1021.552
  41  946.2011
  42  967.8473
  43  1010.159
  44  1118.561
  45  1088.584
  46  953.5424
  47  886.1475
  48  900.3391
  49  935.0057
  50  940.2697
  51  950.3323
  52  1011.705
  53  1009.183
  54  1012.717
  55  912.0495
  56  1005.917
  57  952.5533
  58  1071.384
  59  950.067
  60  917.5734
  61  963.8834
  62  1016.243
  63  1021.917
  64  973.2659
  65  948.7215
  66  972.1923
  67  1079.437
  68  1067.104
  69  1005.867
  70  1026.477
  71  937.198
  72  903.2079
  73  952.9141
  74  994.6064
  75  957.1574
  76  1038.701
  77  1123.639
  78  1097.49
  79  1106.25
  80  1041.93
  81  1056.358
  82  1110.22
  83  1058.422
  84  1049.711
  85  1046.031
  86  1118.234
  87  1110.485
  88  1095.257
  89  1095.413
  90  1011.38
  91  1091.641
  92  1086.758
  93  1044.051
  94  1054.27
  95  1123.462
  96  1142.826
  97  1001.763
  98  1039.951
  99  1021.404
 100  1037.882
 101  978.0963
 102  955.1594
 103  863.2771
 104  909.587
 105  1032.325
 106  923.5532
 107  819.7801
 108  854.1641
 109  977.9567
 110  955.4968
 111  880.6505
 112  964.4924
 113  1053.202
 114  928.9043
 115  1008.95
 116  1033.561
 117  1014.103
 118  937.71
 119  1025.355
 120  1026.574
 121  1011.728
 122  1022.716
 123  1003.06
 124  937.7665
 125  937.9581
 126  957.7893
 127  992.8328
 128  996.2492
 129  991.4336
 130  1024.635
 131  1000.683
 132  857.3505
 133  923.2824
 134  945.6759
 135  890.0485
 136  982.1034
 137  969.2564
 138  1008.44
 139  1035.983
 140  1011.487
 141  1153.023
 142  1207.096
 143  1164.412
 144  1052.574
 145  1066.596
 146  1084.408
 147  1075.543
 148  1090.035
 149  1021.593
 150  970.2493
 151  1012.323
 152  1086.682
 153  1083.562
 154  1106.334
 155  1084.585
 156  1036.932
 157  1008.5
 158  974.6182
 159  982.1674
 160  1040.871
 161  966.5746
 162  1003.652
 163  1075.924
 164  965.8697
 165  908.2855
 166  908.109
 167  983.4941
 168  865.6136
 169  932.4481
 170  968.7914
 171  944.6871
 172  949.5707
 173  849.4683
 174  911.7808
 175  979.8471
 176  976.1462
 177  955.2441
 178  1032.63
 179  1135.766
 180  1119.073
 181  1086.768
 182  987.5411
 183  909.2695
 184  840.0039
 185  874.8931
 186  922.7618
 187  1058.143
 188  1041.734
 189  982.3727
 190  941.0709
 191  908.7157
 192  816.8474
 193  874.4305
 194  844.1552
 195  945.7092
 196  972.2749
 197  991.4592
 198  925.2325
 199  1030.084
 200  1017.885
 201  974.5933
 202  1033.003
 203  1022.548
 204  957.1759
 205  981.2865
 206  1025.352
 207  932.7908
 208  925.6135
 209  826.9111
 210  898.4291
 211  917.426
 212  952.4861
 213  966.5544
 214  914.829
 215  959.3266
 216  1008.589
 217  1044.512
 218  997.7399
 219  992.1724
 220  970.6906
 221  986.1113
 222  868.3267
 223  877.0432
 224  1053.059
 225  1053.08
 226  979.1572
 227  950.7032
 228  1008.145
 229  1033.743
 230  1034.66
 231  1062.554
 232  1044.438
 233  957.7785
 234  990.6722
 235  1028.904
 236  981.2278
 237  903.9842
 238  1015.081
 239  1106.12
 240  1058.445
 241  995.0983
 242  995.7368
 243  1021.872
 244  1051.448
 245  1066.287
 246  1030.707
 247  914.4867
 248  979.1291
 249  1130.67
 250  1033.088
 251  988.861
 252  1082.605
 253  1036.661
 254  960.2861
 255  937.9507
 256  1003.223
 257  1005.43
 258  1045.456
 259  1060.374
 260  1026.295
 261  1031.143
 262  1002.471
 263  935.3337
 264  946.1302
 265  1047.526
 266  1017.917
 267  963.5089
 268  911.9085
 269  979.5984
 270  1047.268
 271  1088.87
 272  948.3621
 273  967.0253
 274  892.946
 275  829.1534
 276  918.7877
 277  944.1458
 278  952.4875
 279  1049.796
 280  979.5535
 281  963.88
 282  977.558
 283  941.426
 284  1032.804
 285  1059.369
 286  910.3224
 287  896.0632
 288  1044.444
 289  1119.229
 290  1070.278
 291  1097.909
 292  1095.144
 293  1127.682
 294  1087.674
 295  1116.844
 296  1067.113
 297  947.8694
 298  972.1551
 299  956.2867
 300  979.4745
 301  973.5295
 302  929.8791
 303  1042.39
 304  1090.093
 305  1023.559
 306  1026.598
 307  1016.905
 308  1038.039
 309  1069.221
 310  997.0035
 311  983.9184
 312  1015.229
 313  1060.607
 314  1001.208
 315  884.0076
 316  822.8372
 317  918.8293
 318  973.889
 319  1008.315
 320  1050.47
 321  1046.098
 322  1090.916
 323  991.4063
 324  987.0487
 325  968.4613
 326  887.7522
 327  963.3276
 328  1040.139
 329  1009.462
 330  973.8423
 331  929.9678
 332  915.6284
 333  954.0643
 334  887.3482
 335  923.1324
 336  915.1458
 337  918.495
 338  839.3973
 339  917.4685
 340  930.6152
 341  892.1848
 342  915.8213
 343  897.9733
 344  894.7012
 345  814.7321
 346  925.9389
 347  904.0012
 348  962.5318
 349  1073.026
 350  1017.705
 351  958.6144
 352  937.697
 353  991.9455
 354  968.4299
 355  998.2289
 356  959.2449
 357  975.8193
 358  982.4242
 359  901.8763
 360  903.9239
 361  935.9092
 362  925.3267
 363  1038.556
 364  947.382
 365  1054.497
 366  990.669
 367  975.9576
 368  1030.015
 369  1010.678
 370  967.6581
 371  1010.274
 372  1039.454
 373  1080.276
 374  1076.266
 375  1081.296
 376  1087.495
 377  974.0261
 378  1031.638
 379  1062.809
 380  1102.44
 381  1052.759
 382  902.2656
 383  898.9086
 384  958.7288
 385  1040.194
 386  1080.298
 387  951.0939
 388  938.0402
 389  958.3828
 390  873.5466
 391  982.4186
 392  1025.909
 393  1007.12
 394  995.1231
 395  941.5239
 396  957.3826
 397  941.414
 398  903.8912
 399  865.7263
 400  972.0146
 401  935.0592
 402  920.8737
 403  954.7397
 404  1016.24
 405  972.347
 406  954.7426
 407  1021.045
 408  894.6539
 409  822.7267
 410  885.2468
 411  840.452
 412  887.8578
 413  945.7065
 414  975.127
 415  904.0153
 416  891.4464
 417  954.2494
 418  961.9825
 419  891.4236
 420  1018.673
 421  1078.767
 422  928.4489
 423  875.7773
 424  886.6217
 425  1043.129
 426  963.1315
 427  1058.113
 428  1103.436
 429  1028.854
 430  1016.523
 431  1035.576
 432  1019.245
 433  1029.094
 434  1054.389
 435  1036.909
 436  1148.876
 437  1150.805
 438  1114.7
 439  1097.61
 440  1033.936
 441  1008.034
 442  1084.382
 443  1073.514
 444  1034.908
 445  1122.272
 446  1063.679
 447  967.2602
 448  993.0516
 449  1043.086
 450  1027.018
 451  1064.013
 452  1125.16
 453  1103.962
 454  1037.066
 455  1066.699
 456  968.8841
 457  908.3776
 458  898.7451
 459  925.6901
 460  1008.311
 461  1034.4
 462  960.7756
 463  906.7196
 464  991.0527
 465  901.4395
 466  921.523
 467  1036.896
 468  1053.33
 469  1102.792
 470  1099.57
 471  1047.17
 472  1021.356
 473  1021.751
 474  1042.396
 475  1021.784
 476  1038.926
 477  1006.903
 478  1082.234
 479  1069.252
 480  988.7666
 481  935.8214
 482  1003.415
 483  959.699
 484  1001.025
 485  1012.344
 486  922.7767
 487  911.0026
 488  987.455
 489  1052.118
 490  1111.135
 491  1025.02
 492  1016.181
 493  1062.138
 494  1032.891
 495  1029.829
 496  1149.003
 497  1115.879
 498  1038.345
 499  1044.902
 500  1097.328
 501  1099.222
 502  1043.673
 503  960.1824
 504  1027.397
 505  1020.358
 506  994.3047
 507  1023.417
 508  1042.912
 509  1095.588
 510  1056.963
 511  1174.117
