# Input file       =  1196966586.130779_cleaned.dat
# Candidate        =  PSR_0332+5434
# Telescope        =  AR
# Epoch_topo       =  58097.779723735868
# Epoch_bary       =  N/A
# T_sample         =  0.002
# Data Folded      =  7340032
# Data Avg         =  0.0750022491117903
# Data StdDev      =  1.00017054630012 
# Profile Bins     =  512
# Profile Avg      =  1075.50569125042 
# Profile StdDev   =  119.753456403123 
# Reduced chi-sqr  =  0.740
# Prob(Noise)      <  1   (~0.0 sigma)
# P_topo (ms)      =  714.535689297096  +/- 0.000243
# P'_topo (s/s)    =  -0                +/- 1.28e-10
# P''_topo (s/s^2) =  0                 +/- 5.66e-14
# P_bary (ms)      =  N/A
# P'_bary (s/s)    =  N/A
# P''_bary (s/s^2) =  N/A
# P_orb (s)        =  N/A
# asin(i)/c (s)    =  N/A
# eccentricity     =  N/A
# w (rad)          =  N/A
# T_peri           =  N/A
######################################################
   0  1485.847
   1  1374.291
   2  1273.779
   3  1221.992
   4  1096.568
   5  1059.769
   6  1193.878
   7  1092.861
   8  1056.698
   9  1088.011
  10  1095.681
  11  1053.302
  12  1027.492
  13  1092.669
  14  1072.243
  15  1075.075
  16  1123.886
  17  1166.788
  18  1070.87
  19  1087.401
  20  1122.91
  21  1136.374
  22  1163.571
  23  1122.489
  24  1025.558
  25  1016.045
  26  1026.628
  27  1138.846
  28  1197.873
  29  1111.695
  30  994.613
  31  1036.485
  32  1091.171
  33  1174.327
  34  1227.93
  35  1091.898
  36  1060.967
  37  1177.537
  38  1198.934
  39  1141.527
  40  1099.195
  41  1068.637
  42  921.8804
  43  976.4778
  44  1034.953
  45  1087.997
  46  1111.082
  47  1055.867
  48  1153.384
  49  1112.396
  50  1034.307
  51  1037.894
  52  1172.807
  53  1091.401
  54  1102.42
  55  1216.182
  56  1116.755
  57  1101.956
  58  1039.218
  59  1056.617
  60  1018.88
  61  1048.91
  62  1109.552
  63  1108.514
  64  1075.094
  65  1131.518
  66  1068.216
  67  950.1663
  68  947.5303
  69  1015.886
  70  1069.835
  71  1027.034
  72  1079.12
  73  1090.484
  74  1057.614
  75  1047.732
  76  983.0501
  77  1059.325
  78  935.6335
  79  1021.662
  80  1028.895
  81  996.6911
  82  1010.111
  83  992.3017
  84  1028.753
  85  1071.109
  86  1034.937
  87  1036.437
  88  1055.11
  89  1037.867
  90  1172.045
  91  1255.37
  92  1222.799
  93  1050.173
  94  978.2621
  95  1027.187
  96  1120.651
  97  1081.961
  98  1010.065
  99  956.1682
 100  1107.527
 101  1234.051
 102  1179.582
 103  1116.391
 104  1168.106
 105  1146.849
 106  1042.97
 107  1046.388
 108  1038.64
 109  1110.713
 110  1064.321
 111  1083.412
 112  1157.64
 113  1117.083
 114  1121.274
 115  1110.725
 116  1132.549
 117  1123.639
 118  976.2272
 119  1033.422
 120  1074.763
 121  1055.92
 122  1097.22
 123  1134.291
 124  1113.417
 125  1085.125
 126  1076.667
 127  1064.793
 128  1058.531
 129  1018.046
 130  1037.948
 131  1115.136
 132  1219.318
 133  1148.11
 134  1207.05
 135  1174.413
 136  1065.757
 137  994.4017
 138  1053.108
 139  1010.075
 140  1014.628
 141  1040.166
 142  1039.495
 143  1089.516
 144  1169.24
 145  1120.387
 146  1100.955
 147  1106.27
 148  1041.211
 149  1023.377
 150  981.9574
 151  973.8848
 152  1037.532
 153  1131.901
 154  1096.336
 155  1118.421
 156  1204.386
 157  1144.332
 158  1092.83
 159  1089.67
 160  1193.11
 161  1188.598
 162  1164.396
 163  1043.536
 164  985.9636
 165  958.4714
 166  1034.589
 167  989.1733
 168  1106.729
 169  1132.906
 170  1129.975
 171  1109.156
 172  934.6296
 173  999.4624
 174  1138.112
 175  1142.125
 176  1197.687
 177  1167.037
 178  1090.96
 179  1063.926
 180  1072.8
 181  1105.274
 182  1106.582
 183  1069.555
 184  1108.065
 185  1183.513
 186  1142.311
 187  1172.97
 188  1106.731
 189  1101.595
 190  1149.547
 191  1116.517
 192  1096.451
 193  1061.239
 194  1002.888
 195  1051.003
 196  1131.717
 197  1171.469
 198  1232.342
 199  1151.961
 200  991.6685
 201  1084.282
 202  1128.817
 203  1156.962
 204  1158.902
 205  1160.8
 206  1115.185
 207  1103.035
 208  1163.658
 209  1153.391
 210  1068.7
 211  1007.675
 212  1005.839
 213  1083.446
 214  1059.687
 215  1062.767
 216  1138.227
 217  1149.971
 218  1074.456
 219  965.8623
 220  1072.759
 221  1092.017
 222  1003.542
 223  1141.718
 224  1047.906
 225  900.8177
 226  962.7458
 227  1025.767
 228  1048.082
 229  987.8408
 230  919.2544
 231  1028.07
 232  1142.769
 233  1212.938
 234  1136.943
 235  1115.976
 236  1018.074
 237  1005.758
 238  1132.351
 239  1194.512
 240  1145.585
 241  1214.992
 242  1097.123
 243  1081.476
 244  1035.864
 245  1098.384
 246  1110.254
 247  1011.586
 248  1054.528
 249  1095.545
 250  1011.352
 251  982.4232
 252  999.6036
 253  978.2991
 254  957.8322
 255  963.5134
 256  1058.978
 257  1055.839
 258  1102.223
 259  1078.276
 260  994.2297
 261  992.6421
 262  1000.832
 263  1059.03
 264  1161.282
 265  976.2057
 266  1067.502
 267  1074.096
 268  1058.904
 269  1007.228
 270  1021.958
 271  1070.092
 272  1120.812
 273  1088.034
 274  1074.54
 275  1017.668
 276  1089.091
 277  1128.814
 278  1075.545
 279  1033.911
 280  1029.725
 281  1062.44
 282  1021.325
 283  1041.796
 284  1048.606
 285  987.2802
 286  999.7391
 287  1061.415
 288  1099.987
 289  1013.27
 290  1009.331
 291  967.3535
 292  1121.675
 293  1113.709
 294  1046.848
 295  1038.141
 296  961.2008
 297  910.4656
 298  922.8987
 299  1023.638
 300  1143.996
 301  1049.313
 302  1082.388
 303  1075.958
 304  1061.12
 305  1140.918
 306  1129.402
 307  1136.228
 308  1043.535
 309  934.929
 310  998.3881
 311  1034.505
 312  1033.59
 313  1051.233
 314  1088.432
 315  1015.27
 316  1005.623
 317  1039.62
 318  1031.715
 319  1100.399
 320  1015.076
 321  1073.306
 322  1094.005
 323  1100.147
 324  1089.391
 325  1091.511
 326  1018.935
 327  1098.702
 328  1133.735
 329  1013.445
 330  987.9937
 331  1043.14
 332  1068.048
 333  1004.643
 334  1065.059
 335  1076.313
 336  1014.083
 337  994.0352
 338  940.3015
 339  975.3907
 340  1028.487
 341  979.1448
 342  962.8996
 343  1011.231
 344  1032.335
 345  1034.448
 346  1033.329
 347  1009.713
 348  1003.005
 349  1087.047
 350  1047.129
 351  1011.237
 352  1024.598
 353  997.3987
 354  976.7852
 355  959.6315
 356  1086.625
 357  991.7879
 358  1008.568
 359  1087.276
 360  1076.096
 361  980.9598
 362  1038.972
 363  1036.465
 364  1075.438
 365  1005.863
 366  1007.893
 367  1013.755
 368  1132.521
 369  1169.887
 370  1082.604
 371  1056.071
 372  1067.08
 373  1017.887
 374  1083.112
 375  1020.726
 376  926.0305
 377  941.8875
 378  926.7549
 379  917.5888
 380  927.1532
 381  962.03
 382  982.5158
 383  927.7583
 384  984.0696
 385  1035.028
 386  1057.03
 387  1022.358
 388  1027.421
 389  982.7612
 390  893.7059
 391  917.3798
 392  1023.864
 393  1028.375
 394  983.8517
 395  1004.442
 396  997.954
 397  1027.849
 398  973.7318
 399  1056.694
 400  1124.407
 401  1080.814
 402  1078.427
 403  1029.212
 404  995.3653
 405  1039.139
 406  1098.459
 407  1118.566
 408  1010.943
 409  1056.791
 410  1171.843
 411  1122.205
 412  1138.722
 413  1106.306
 414  1043.041
 415  1162.088
 416  1180.226
 417  1154.653
 418  1108.49
 419  1133.96
 420  1044.909
 421  1048.937
 422  989.6442
 423  1051.73
 424  1134.567
 425  1131.624
 426  1050.748
 427  1009.259
 428  1094.188
 429  1071.128
 430  1055.815
 431  1113.56
 432  985.6783
 433  982.8784
 434  1072.179
 435  1147.165
 436  1193.412
 437  1146.622
 438  1136.316
 439  1247.036
 440  1209.726
 441  1226.275
 442  1239.964
 443  1200.707
 444  1137.094
 445  1167.911
 446  1167.145
 447  1118.59
 448  1115.315
 449  1199.565
 450  1156.96
 451  1046.068
 452  1066.775
 453  1115.52
 454  1019.023
 455  1041.811
 456  1058.019
 457  1138.792
 458  1119.044
 459  1077.64
 460  1155.47
 461  1118.574
 462  1122.338
 463  1015.365
 464  1071.832
 465  1150.846
 466  1086.43
 467  1082.074
 468  1051.728
 469  1132.304
 470  1119.604
 471  1083.636
 472  1040.034
 473  1093.142
 474  1081.011
 475  1044.691
 476  964.4647
 477  1099.23
 478  1108.485
 479  1054.948
 480  1108.85
 481  1047.154
 482  1069.52
 483  1084.183
 484  1048.202
 485  1097.178
 486  1058.419
 487  1008.269
 488  1049.218
 489  1215.965
 490  1228.413
 491  1197.438
 492  1086.098
 493  998.7128
 494  975.4315
 495  1086.812
 496  1111.024
 497  1105.211
 498  984.7711
 499  1124.258
 500  1223.973
 501  1096.459
 502  1178.461
 503  1202.959
 504  1104.857
 505  1022.4
 506  1094.802
 507  1153.119
 508  1163.165
 509  1215.04
 510  1258.152
 511  1383.311
