# Input file       =  1196895256.11244_cleaned.dat
# Candidate        =  PSR_0332+5434
# Telescope        =  AR
# Epoch_topo       =  58096.954144819909
# Epoch_bary       =  N/A
# T_sample         =  0.002
# Data Folded      =  7340032
# Data Avg         =  0.0478417906880629
# Data StdDev      =  1.00018126208563 
# Profile Bins     =  512
# Profile Avg      =  685.929197548301 
# Profile StdDev   =  119.754739436658 
# Reduced chi-sqr  =  0.827
# Prob(Noise)      <  0.998   (~0.0 sigma)
# P_topo (ms)      =  714.535183533515  +/- 0.000309
# P'_topo (s/s)    =  -0                +/- 1.63e-10
# P''_topo (s/s^2) =  0                 +/- 7.21e-14
# P_bary (ms)      =  N/A
# P'_bary (s/s)    =  N/A
# P''_bary (s/s^2) =  N/A
# P_orb (s)        =  N/A
# asin(i)/c (s)    =  N/A
# eccentricity     =  N/A
# w (rad)          =  N/A
# T_peri           =  N/A
######################################################
   0  1049.561
   1  1078.345
   2  952.4726
   3  824.3325
   4  711.7418
   5  744.7646
   6  745.5599
   7  688.9802
   8  759.0917
   9  777.8499
  10  807.3913
  11  623.2946
  12  507.0282
  13  718.475
  14  794.244
  15  766.4811
  16  733.0597
  17  767.4678
  18  651.3812
  19  587.2405
  20  573.9663
  21  668.1428
  22  722.3083
  23  763.6708
  24  786.3105
  25  729.5558
  26  814.838
  27  713.5349
  28  667.4962
  29  776.3116
  30  727.4237
  31  662.7994
  32  587.1001
  33  463.9693
  34  599.1637
  35  633.9974
  36  603.9252
  37  698.5953
  38  604.1235
  39  671.7717
  40  756.8177
  41  646.0582
  42  691.759
  43  754.8531
  44  805.3333
  45  674.0598
  46  673.5333
  47  649.7493
  48  685.9678
  49  650.5438
  50  562.0128
  51  622.2248
  52  708.2034
  53  693.5607
  54  828.6143
  55  874.3578
  56  623.3922
  57  577.5453
  58  592.0049
  59  520.1827
  60  549.8032
  61  661.7556
  62  653.0852
  63  636.4699
  64  622.1105
  65  762.6541
  66  748.908
  67  636.2739
  68  730.039
  69  761.8879
  70  718.1942
  71  767.8222
  72  704.4547
  73  717.1461
  74  707.6344
  75  638.3708
  76  735.3649
  77  800.2884
  78  769.1489
  79  692.5153
  80  662.452
  81  728.3012
  82  685.5527
  83  584.0594
  84  612.9285
  85  765.0879
  86  751.5079
  87  749.896
  88  683.3309
  89  634.2524
  90  691.236
  91  648.9124
  92  745.9167
  93  825.5978
  94  714.5527
  95  677.756
  96  611.7372
  97  560.4284
  98  613.3741
  99  682.3337
 100  722.9102
 101  612.1717
 102  670.9623
 103  758.668
 104  648.6437
 105  667.3535
 106  679.9751
 107  627.6392
 108  729.3535
 109  727.4511
 110  673.0325
 111  551.3668
 112  557.9113
 113  624.141
 114  646.6016
 115  713.0496
 116  692.2939
 117  686.5644
 118  737.5909
 119  729.2812
 120  654.0127
 121  732.9396
 122  739.5914
 123  703.0888
 124  702.481
 125  680.5052
 126  717.794
 127  743.1005
 128  746.8098
 129  679.4932
 130  758.4423
 131  789.8068
 132  795.451
 133  670.8589
 134  674.3348
 135  669.8325
 136  751.5068
 137  799.9788
 138  751.4719
 139  767.3741
 140  711.5757
 141  743.8871
 142  732.3967
 143  757.4803
 144  761.339
 145  770.634
 146  677.7911
 147  543.4165
 148  700.0121
 149  662.9354
 150  630.8525
 151  584.7004
 152  541.2777
 153  634.0571
 154  591.2407
 155  593.6262
 156  626.9326
 157  638.1237
 158  636.2435
 159  630.9339
 160  610.7684
 161  582.889
 162  627.5183
 163  732.9907
 164  679.9708
 165  677.7418
 166  670.6523
 167  693.6921
 168  673.3566
 169  697.981
 170  635.5547
 171  552.0204
 172  636.285
 173  740.5783
 174  733.8002
 175  632.0161
 176  578.8712
 177  602.7177
 178  573.1726
 179  538.9648
 180  532.1209
 181  643.7783
 182  697.4016
 183  698.079
 184  554.8694
 185  669.8438
 186  639.0311
 187  665.4116
 188  727.9059
 189  757.6124
 190  778.2056
 191  589.78
 192  626.3961
 193  596.0406
 194  629.459
 195  577.7748
 196  588.8663
 197  607.7995
 198  611.0804
 199  559.8995
 200  451.0778
 201  490.8173
 202  598.1274
 203  717.4889
 204  738.1912
 205  590.4971
 206  617.3441
 207  591.6129
 208  633.2747
 209  559.9818
 210  611.1657
 211  665.8661
 212  611.6444
 213  647.6934
 214  636.1307
 215  554.8292
 216  503.9
 217  622.9236
 218  764.7775
 219  715.8062
 220  648.9755
 221  586.5353
 222  716.5357
 223  676.8405
 224  622.8448
 225  645.6226
 226  567.3393
 227  525.8
 228  656.1241
 229  698.6808
 230  639.4995
 231  711.2947
 232  672.8958
 233  766.9487
 234  580.7543
 235  650.1141
 236  649.7748
 237  561.0114
 238  640.8815
 239  711.336
 240  772.0862
 241  720.3682
 242  755.3407
 243  736.2697
 244  658.344
 245  736.4305
 246  844.2789
 247  765.1171
 248  642.7677
 249  639.8678
 250  666.0678
 251  728.1934
 252  664.1652
 253  713.6093
 254  778.3123
 255  686.4808
 256  715.0385
 257  841.913
 258  756.096
 259  768.0203
 260  653.4698
 261  648.8445
 262  683.4075
 263  754.3458
 264  768.7277
 265  677.9361
 266  599.3212
 267  641.4882
 268  679.499
 269  658.1821
 270  658.1355
 271  621.9589
 272  711.0371
 273  747.623
 274  701.7369
 275  654.9645
 276  675.3233
 277  762.025
 278  691.0189
 279  714.3956
 280  697.2618
 281  671.5638
 282  757.7326
 283  681.4063
 284  736.5954
 285  860.0368
 286  789.7683
 287  751.7119
 288  716.1545
 289  676.2408
 290  684.0864
 291  619.8837
 292  669.2801
 293  771.2687
 294  671.4077
 295  665.9802
 296  783.9182
 297  722.207
 298  603.4687
 299  800.3809
 300  742.0933
 301  710.3787
 302  668.5721
 303  634.9935
 304  653.8933
 305  717.6314
 306  811.5489
 307  820.7062
 308  840.8851
 309  924.5491
 310  691.7923
 311  658.7849
 312  717.3856
 313  716.1186
 314  793.1347
 315  704.1512
 316  728.4594
 317  735.0096
 318  762.2178
 319  760.384
 320  733.7256
 321  723.2178
 322  715.6418
 323  652.6519
 324  611.5795
 325  670.4218
 326  738.4594
 327  735.1625
 328  662.332
 329  581.0157
 330  543.2164
 331  468.6908
 332  586.5226
 333  724.9396
 334  770.2225
 335  690.9145
 336  674.4122
 337  653.6476
 338  658.4161
 339  691.8069
 340  622.7407
 341  612.723
 342  640.9091
 343  654.3588
 344  589.5068
 345  640.2094
 346  694.1901
 347  662.2451
 348  742.0466
 349  746.7545
 350  675.9249
 351  725.3533
 352  664.2001
 353  653.2037
 354  631.4417
 355  698.3155
 356  692.4961
 357  757.6189
 358  630.2655
 359  537.3186
 360  589.8616
 361  582.8237
 362  571.4832
 363  601.4562
 364  687.6262
 365  608.7466
 366  682.1251
 367  700.7465
 368  814.7944
 369  682.5882
 370  683.392
 371  684.5956
 372  778.9787
 373  814.9044
 374  727.627
 375  633.9307
 376  700.7362
 377  797.084
 378  763.2968
 379  672.5993
 380  664.5161
 381  686.1948
 382  717.9816
 383  607.2887
 384  610.5488
 385  661.1199
 386  647.6357
 387  740.6451
 388  658.312
 389  584.6506
 390  583.3033
 391  643.0454
 392  727.1964
 393  745.8724
 394  772.2114
 395  789.8434
 396  724.9243
 397  704.7302
 398  759.8964
 399  793.3011
 400  718.4368
 401  706.6976
 402  756.2562
 403  727.8049
 404  664.9584
 405  651.1713
 406  631.1947
 407  735.4411
 408  820.9154
 409  777.8263
 410  659.2072
 411  689.3926
 412  732.5571
 413  617.4263
 414  661.1027
 415  679.8263
 416  710.6639
 417  735.0905
 418  684.5807
 419  623.4402
 420  639.6565
 421  706.3635
 422  600.0443
 423  581.5407
 424  679.6789
 425  738.3168
 426  720.6946
 427  828.7737
 428  761.9482
 429  708.5452
 430  664.8015
 431  732.6155
 432  670.272
 433  708.4769
 434  874.3911
 435  867.4332
 436  820.219
 437  753.7482
 438  673.633
 439  603.6147
 440  611.9446
 441  607.6185
 442  640.2573
 443  680.23
 444  683.957
 445  596.5335
 446  596.0236
 447  641.2871
 448  586.6486
 449  595.4971
 450  759.9025
 451  604.5162
 452  735.0054
 453  712.0901
 454  757.2475
 455  769.1948
 456  677.5273
 457  696.4996
 458  721.5912
 459  723.4025
 460  664.6879
 461  752.2427
 462  696.8958
 463  726.9548
 464  726.8003
 465  623.3443
 466  580.8181
 467  729.0535
 468  675.6223
 469  613.6887
 470  678.5281
 471  648.7124
 472  722.7049
 473  689.9808
 474  687.3862
 475  651.8035
 476  623.5032
 477  621.7287
 478  642.4352
 479  689.4929
 480  724.1101
 481  630.4689
 482  618.1973
 483  614.1595
 484  534.0648
 485  538.0435
 486  741.629
 487  728.2353
 488  678.4935
 489  684.9218
 490  693.271
 491  716.5557
 492  768.3416
 493  646.21
 494  660.1736
 495  705.9434
 496  653.1335
 497  641.2805
 498  576.3139
 499  566.9048
 500  624.5944
 501  614.238
 502  733.7469
 503  669.8932
 504  750.811
 505  739.9236
 506  783.7263
 507  835.0891
 508  811.592
 509  843.5582
 510  932.2097
 511  974.2813
