# Input file       =  1196693364.105924_cleaned.dat
# Candidate        =  PSR_0332+5434
# Telescope        =  AR
# Epoch_topo       =  58094.617431781524
# Epoch_bary       =  N/A
# T_sample         =  0.002
# Data Folded      =  7208960
# Data Avg         =  0.110379544458657
# Data StdDev      =  1.00035171019772 
# Profile Bins     =  512
# Profile Avg      =  1554.14375048188 
# Profile StdDev   =  118.70090943571  
# Reduced chi-sqr  =  0.949
# Prob(Noise)      <  0.793   (~0.0 sigma)
# P_topo (ms)      =  714.532459335006  +/- 5.29e-05
# P'_topo (s/s)    =  -0                +/- 2.84e-11
# P''_topo (s/s^2) =  0                 +/- 1.28e-14
# P_bary (ms)      =  N/A
# P'_bary (s/s)    =  N/A
# P''_bary (s/s^2) =  N/A
# P_orb (s)        =  N/A
# asin(i)/c (s)    =  N/A
# eccentricity     =  N/A
# w (rad)          =  N/A
# T_peri           =  N/A
######################################################
   0  1847.274
   1  1822.417
   2  1697.026
   3  1699.843
   4  1670.198
   5  1563.269
   6  1541.106
   7  1468.986
   8  1397.294
   9  1456.75
  10  1631.6
  11  1719.459
  12  1618.294
  13  1550.223
  14  1610.866
  15  1489.039
  16  1401.22
  17  1512.438
  18  1552.863
  19  1590.069
  20  1547.925
  21  1650.329
  22  1683.848
  23  1555.447
  24  1590.129
  25  1470.514
  26  1562.617
  27  1664.591
  28  1579.952
  29  1441.218
  30  1495.279
  31  1515.408
  32  1553.478
  33  1593.831
  34  1545.612
  35  1540.81
  36  1660.243
  37  1595.477
  38  1600.839
  39  1562.483
  40  1516.885
  41  1508.706
  42  1483.989
  43  1477.666
  44  1403.306
  45  1450.01
  46  1530.427
  47  1542.456
  48  1570.045
  49  1540.199
  50  1558.832
  51  1537.191
  52  1599.584
  53  1666.244
  54  1766.218
  55  1602.727
  56  1523.41
  57  1581.619
  58  1462.304
  59  1496.418
  60  1623.968
  61  1657.324
  62  1604.722
  63  1505.246
  64  1563.91
  65  1609.781
  66  1530.136
  67  1522.227
  68  1714.221
  69  1662.005
  70  1579.087
  71  1651.804
  72  1581.415
  73  1491.698
  74  1468.625
  75  1501.664
  76  1549.778
  77  1508.757
  78  1558.497
  79  1659.864
  80  1556.161
  81  1523.462
  82  1571.412
  83  1566.243
  84  1650.436
  85  1721.307
  86  1756.974
  87  1716.7
  88  1635.172
  89  1625.478
  90  1587.439
  91  1496.302
  92  1490.253
  93  1522.343
  94  1630.44
  95  1665.042
  96  1633.12
  97  1616.453
  98  1598.663
  99  1583.756
 100  1566.418
 101  1629.626
 102  1707.58
 103  1656.955
 104  1581.807
 105  1552.598
 106  1498.3
 107  1425.261
 108  1432.894
 109  1449.067
 110  1533.801
 111  1585.041
 112  1488.385
 113  1432.467
 114  1493.73
 115  1551
 116  1486.686
 117  1475.206
 118  1549.019
 119  1636.37
 120  1574.336
 121  1534.604
 122  1582.676
 123  1464.792
 124  1456.706
 125  1571.787
 126  1708.22
 127  1609.959
 128  1552.226
 129  1597.128
 130  1509.636
 131  1489.313
 132  1426.093
 133  1451.186
 134  1504.249
 135  1667.846
 136  1710.594
 137  1577.082
 138  1520.517
 139  1475.907
 140  1572.009
 141  1562.234
 142  1569.122
 143  1661.186
 144  1536.404
 145  1454.328
 146  1506.355
 147  1511.596
 148  1471.704
 149  1570.597
 150  1666.34
 151  1670.562
 152  1522.432
 153  1552.949
 154  1574.311
 155  1486.97
 156  1545.954
 157  1550.448
 158  1522.673
 159  1382.83
 160  1367.542
 161  1460.216
 162  1521.882
 163  1498.409
 164  1486.125
 165  1569.074
 166  1497.89
 167  1530.411
 168  1551.605
 169  1641.66
 170  1507.424
 171  1553.203
 172  1529.163
 173  1454.857
 174  1480.515
 175  1618.075
 176  1654.948
 177  1587.163
 178  1540.782
 179  1535.125
 180  1448.985
 181  1365.083
 182  1591.757
 183  1651.924
 184  1600.688
 185  1601.255
 186  1559.622
 187  1522.727
 188  1405.411
 189  1388.517
 190  1463.704
 191  1382.215
 192  1491.973
 193  1647.284
 194  1528.628
 195  1535.864
 196  1454.619
 197  1399.866
 198  1383.349
 199  1466.237
 200  1636.258
 201  1624.369
 202  1537.964
 203  1543.145
 204  1586.527
 205  1518.276
 206  1485.587
 207  1537.259
 208  1655.974
 209  1598.778
 210  1579.694
 211  1648.026
 212  1590.579
 213  1358.536
 214  1429.165
 215  1502.007
 216  1527.835
 217  1584.011
 218  1576.33
 219  1537.993
 220  1530.87
 221  1506.771
 222  1589.365
 223  1578.089
 224  1534.719
 225  1659.635
 226  1649.329
 227  1526.044
 228  1522.031
 229  1557.984
 230  1591.058
 231  1476.339
 232  1431.435
 233  1584.965
 234  1631.682
 235  1611.399
 236  1657.186
 237  1523.503
 238  1437.331
 239  1405.313
 240  1413.387
 241  1474.018
 242  1485.731
 243  1459.893
 244  1491.749
 245  1437.678
 246  1328.425
 247  1471.219
 248  1487
 249  1511.027
 250  1539.16
 251  1587.016
 252  1574.402
 253  1599.817
 254  1509.202
 255  1404.037
 256  1320.839
 257  1429.048
 258  1582.173
 259  1535.592
 260  1499.299
 261  1451.472
 262  1491.85
 263  1492.76
 264  1511.883
 265  1675.916
 266  1691.322
 267  1724.844
 268  1796.229
 269  1650.062
 270  1569.355
 271  1504.433
 272  1420.839
 273  1525.571
 274  1525.547
 275  1492.406
 276  1482.608
 277  1571.075
 278  1653.847
 279  1455.853
 280  1506.807
 281  1579.32
 282  1543.96
 283  1563.767
 284  1563.02
 285  1548.571
 286  1638.479
 287  1557.009
 288  1505.634
 289  1431.903
 290  1454.328
 291  1512.563
 292  1512.538
 293  1548.684
 294  1656.74
 295  1532.896
 296  1571.959
 297  1573.181
 298  1622.206
 299  1655.065
 300  1597.123
 301  1608.951
 302  1642.353
 303  1590.389
 304  1570.816
 305  1551.331
 306  1524.774
 307  1616.601
 308  1560.11
 309  1484.466
 310  1567.916
 311  1583.973
 312  1443.165
 313  1419.896
 314  1470.211
 315  1551.985
 316  1574.226
 317  1671.91
 318  1732.849
 319  1654.888
 320  1563.862
 321  1578.827
 322  1571.595
 323  1533.325
 324  1550.168
 325  1640.294
 326  1709.452
 327  1619.548
 328  1508.894
 329  1535.593
 330  1459.008
 331  1441.719
 332  1553.137
 333  1737.15
 334  1720.552
 335  1737.307
 336  1579.181
 337  1465.658
 338  1405.163
 339  1482.785
 340  1547.05
 341  1588.338
 342  1524.726
 343  1511.32
 344  1516.759
 345  1462.376
 346  1463.688
 347  1558.709
 348  1608.836
 349  1593.642
 350  1652.42
 351  1605.94
 352  1542.745
 353  1565.289
 354  1545.786
 355  1499.198
 356  1390.014
 357  1458.829
 358  1512.248
 359  1541.544
 360  1496.415
 361  1507.113
 362  1552.852
 363  1641.835
 364  1594.444
 365  1563.87
 366  1588.276
 367  1614.298
 368  1647.77
 369  1634.573
 370  1592.615
 371  1603.655
 372  1631.115
 373  1586.23
 374  1538.607
 375  1557.615
 376  1632.487
 377  1641.422
 378  1568.12
 379  1459.135
 380  1540.68
 381  1557.653
 382  1589.039
 383  1672.39
 384  1741.927
 385  1536.367
 386  1529.283
 387  1498.7
 388  1373.452
 389  1297.05
 390  1441.01
 391  1639.14
 392  1612.603
 393  1538.558
 394  1456.748
 395  1446.611
 396  1512.172
 397  1508.088
 398  1509.41
 399  1549.932
 400  1505.934
 401  1594.908
 402  1587.967
 403  1586.486
 404  1580.4
 405  1422.921
 406  1363.048
 407  1421.203
 408  1512.485
 409  1608.891
 410  1472.942
 411  1464.099
 412  1508.262
 413  1501.338
 414  1525.603
 415  1616.834
 416  1613.428
 417  1557.768
 418  1558.456
 419  1666.793
 420  1629.618
 421  1564.021
 422  1577.417
 423  1622.508
 424  1635.846
 425  1549.384
 426  1440.574
 427  1488.892
 428  1515.934
 429  1562.662
 430  1640.937
 431  1620.83
 432  1696.114
 433  1676.964
 434  1666.468
 435  1653.867
 436  1586.576
 437  1571.583
 438  1516.609
 439  1472.155
 440  1589.604
 441  1622.099
 442  1445.287
 443  1457.378
 444  1488.904
 445  1498.647
 446  1391.305
 447  1558.053
 448  1650.955
 449  1653.826
 450  1595.288
 451  1619.189
 452  1553.197
 453  1481.719
 454  1493.203
 455  1522.367
 456  1529.282
 457  1524.135
 458  1620.157
 459  1512.165
 460  1567.823
 461  1486.934
 462  1531.397
 463  1621.123
 464  1675.034
 465  1624.767
 466  1679.875
 467  1656.609
 468  1540.394
 469  1562.761
 470  1574.722
 471  1450.54
 472  1426.129
 473  1477.436
 474  1499.019
 475  1449.897
 476  1543.221
 477  1555.591
 478  1515.91
 479  1575.543
 480  1677.758
 481  1701.621
 482  1610.405
 483  1701.114
 484  1547.485
 485  1493.451
 486  1487.772
 487  1494.563
 488  1565.566
 489  1544.098
 490  1575.785
 491  1621.094
 492  1615.54
 493  1534.866
 494  1442.244
 495  1405.254
 496  1426.365
 497  1586.38
 498  1616.127
 499  1548.732
 500  1536.053
 501  1621.639
 502  1593.69
 503  1528.039
 504  1562.12
 505  1663.841
 506  1694.235
 507  1654.176
 508  1715.821
 509  1735.658
 510  1724.954
 511  1796.267
