# Input file       =  1196981508.116393_cleaned.dat
# Candidate        =  PSR_0332+5434
# Telescope        =  AR
# Epoch_topo       =  58097.952431902697
# Epoch_bary       =  N/A
# T_sample         =  0.002
# Data Folded      =  7340032
# Data Avg         =  0.0979359011040849
# Data StdDev      =  1.00059497885517 
# Profile Bins     =  512
# Profile Avg      =  1403.87652248544 
# Profile StdDev   =  119.804275001676 
# Reduced chi-sqr  =  0.789
# Prob(Noise)      <  1   (~0.0 sigma)
# P_topo (ms)      =  714.536198694856  +/- 0.000134
# P'_topo (s/s)    =  -0                +/- 7.05e-11
# P''_topo (s/s^2) =  0                 +/- 3.11e-14
# P_bary (ms)      =  N/A
# P'_bary (s/s)    =  N/A
# P''_bary (s/s^2) =  N/A
# P_orb (s)        =  N/A
# asin(i)/c (s)    =  N/A
# eccentricity     =  N/A
# w (rad)          =  N/A
# T_peri           =  N/A
######################################################
   0  1659.945
   1  1559.026
   2  1602.985
   3  1508.448
   4  1442.69
   5  1373.654
   6  1395.379
   7  1463.228
   8  1403.775
   9  1374.136
  10  1393.397
  11  1371.016
  12  1421.064
  13  1463.09
  14  1499.575
  15  1451.937
  16  1271.723
  17  1472.565
  18  1493.408
  19  1416.211
  20  1457.509
  21  1466.847
  22  1578.435
  23  1427.488
  24  1393.772
  25  1456.721
  26  1474.668
  27  1505.027
  28  1422.501
  29  1443.009
  30  1428.682
  31  1469.559
  32  1383.338
  33  1371.085
  34  1377.978
  35  1443.504
  36  1444.066
  37  1448.082
  38  1439.021
  39  1386.348
  40  1408.964
  41  1452.067
  42  1594.633
  43  1561.428
  44  1462.721
  45  1428.211
  46  1504.995
  47  1509.522
  48  1417.286
  49  1420.728
  50  1515.623
  51  1418.393
  52  1330.87
  53  1249.414
  54  1271.842
  55  1253.939
  56  1410.308
  57  1521.613
  58  1509.6
  59  1526.362
  60  1501.691
  61  1467.661
  62  1458.444
  63  1403.803
  64  1464.796
  65  1462.286
  66  1520.925
  67  1500.632
  68  1482.772
  69  1486.149
  70  1527.529
  71  1467.559
  72  1441.399
  73  1460.297
  74  1427.321
  75  1491.214
  76  1495.518
  77  1427.959
  78  1370.863
  79  1291.052
  80  1311.37
  81  1325.363
  82  1378.699
  83  1422.58
  84  1380.461
  85  1394.907
  86  1433.539
  87  1426.071
  88  1309.059
  89  1383.576
  90  1350.141
  91  1368.866
  92  1411.843
  93  1539.112
  94  1535.648
  95  1445.829
  96  1383.868
  97  1372.308
  98  1372.168
  99  1388.247
 100  1395.138
 101  1447.646
 102  1455.477
 103  1510.647
 104  1456.783
 105  1362.223
 106  1383.381
 107  1388.983
 108  1478.79
 109  1502.932
 110  1396.474
 111  1472.971
 112  1403.194
 113  1369.048
 114  1256.152
 115  1477.38
 116  1465.411
 117  1317.169
 118  1318.936
 119  1410.033
 120  1341.933
 121  1443.667
 122  1439.64
 123  1419.784
 124  1349.406
 125  1272.369
 126  1352.782
 127  1449.317
 128  1426.72
 129  1368.898
 130  1364.728
 131  1385.313
 132  1279.594
 133  1283.337
 134  1317.768
 135  1317.417
 136  1385.432
 137  1369.922
 138  1319.955
 139  1400.497
 140  1441.004
 141  1376.525
 142  1457.843
 143  1411.406
 144  1428.794
 145  1446.447
 146  1568.316
 147  1494.025
 148  1445.685
 149  1443.152
 150  1539.768
 151  1554.183
 152  1488.913
 153  1392.369
 154  1465.074
 155  1474.584
 156  1504.603
 157  1436.874
 158  1436.391
 159  1470.667
 160  1464.153
 161  1414.033
 162  1372.773
 163  1353.873
 164  1432.336
 165  1395.614
 166  1498.902
 167  1475.295
 168  1408.895
 169  1386.084
 170  1458.815
 171  1479.818
 172  1437.98
 173  1421.186
 174  1419.134
 175  1429.482
 176  1369.261
 177  1302.942
 178  1359.83
 179  1286.413
 180  1295.01
 181  1375.819
 182  1420.857
 183  1406.733
 184  1366.872
 185  1415.555
 186  1382.464
 187  1421.216
 188  1394.66
 189  1313.931
 190  1341.631
 191  1374.327
 192  1361.319
 193  1409.844
 194  1542.814
 195  1576.119
 196  1377.938
 197  1291.499
 198  1319.884
 199  1400.388
 200  1314.423
 201  1338.045
 202  1407.524
 203  1435.823
 204  1361.402
 205  1411.595
 206  1390.152
 207  1398.371
 208  1364.698
 209  1416.831
 210  1469.708
 211  1426.145
 212  1480.137
 213  1393.754
 214  1278.229
 215  1266.069
 216  1359.595
 217  1438.567
 218  1497.266
 219  1556.898
 220  1532.356
 221  1497.007
 222  1461.174
 223  1435.529
 224  1445.757
 225  1382.328
 226  1328.819
 227  1367.509
 228  1451.016
 229  1485.587
 230  1403.664
 231  1294.87
 232  1311.913
 233  1286.809
 234  1283.449
 235  1330.168
 236  1275.816
 237  1236.16
 238  1422.056
 239  1288.596
 240  1302.211
 241  1368.775
 242  1402.061
 243  1336.926
 244  1336.836
 245  1296.952
 246  1321.701
 247  1299.348
 248  1258.72
 249  1300.849
 250  1448.927
 251  1407.182
 252  1289.383
 253  1309.026
 254  1363.407
 255  1317.905
 256  1265.075
 257  1370.418
 258  1392.34
 259  1346.311
 260  1333.01
 261  1355.755
 262  1372.535
 263  1284.304
 264  1215.22
 265  1199.33
 266  1289.442
 267  1357.721
 268  1384.671
 269  1436.019
 270  1489.295
 271  1469.674
 272  1440.424
 273  1388.073
 274  1402.357
 275  1406.56
 276  1331.656
 277  1460.548
 278  1447.486
 279  1512.854
 280  1489.885
 281  1447.479
 282  1385.732
 283  1368.476
 284  1398.452
 285  1471.634
 286  1514.78
 287  1473.293
 288  1404.186
 289  1320.915
 290  1226.477
 291  1256.232
 292  1250.493
 293  1336.145
 294  1460.584
 295  1553.426
 296  1546.267
 297  1446.117
 298  1373.751
 299  1352.923
 300  1227.478
 301  1284.337
 302  1413.348
 303  1485.775
 304  1510.172
 305  1511.544
 306  1394.47
 307  1389.623
 308  1409.825
 309  1357.888
 310  1339.752
 311  1351.157
 312  1454.855
 313  1413.425
 314  1305.981
 315  1256.624
 316  1356.697
 317  1309.732
 318  1353.547
 319  1325.71
 320  1362.175
 321  1418.876
 322  1474.808
 323  1366.555
 324  1452.728
 325  1400.932
 326  1498.218
 327  1465.805
 328  1398.549
 329  1386.759
 330  1417.941
 331  1519.296
 332  1523.166
 333  1411.155
 334  1426.867
 335  1416.848
 336  1465.338
 337  1501.283
 338  1467.79
 339  1410.527
 340  1427.105
 341  1424.448
 342  1448.412
 343  1389.272
 344  1399.914
 345  1477.338
 346  1455.122
 347  1519.552
 348  1416.058
 349  1331.751
 350  1302.388
 351  1293.913
 352  1385.75
 353  1462.875
 354  1389.094
 355  1239.378
 356  1242.605
 357  1362.729
 358  1428.814
 359  1353.323
 360  1371.933
 361  1460.114
 362  1521.876
 363  1415.723
 364  1305.958
 365  1428.037
 366  1386.19
 367  1421.242
 368  1530.095
 369  1473.283
 370  1482.051
 371  1495.804
 372  1484.625
 373  1444.54
 374  1458.026
 375  1477.802
 376  1454.113
 377  1380.762
 378  1384.989
 379  1456.573
 380  1385.688
 381  1349.69
 382  1384.063
 383  1373.011
 384  1383.596
 385  1487.814
 386  1499.352
 387  1378.167
 388  1300.162
 389  1258.819
 390  1394.028
 391  1473.427
 392  1423.406
 393  1390.872
 394  1420.248
 395  1359.174
 396  1376.681
 397  1385.819
 398  1404.443
 399  1436.527
 400  1358.746
 401  1305.06
 402  1325.976
 403  1350.026
 404  1438.558
 405  1345.951
 406  1326.672
 407  1428.184
 408  1379.797
 409  1383.863
 410  1388.542
 411  1413.101
 412  1391.212
 413  1350.066
 414  1448.134
 415  1419.617
 416  1409.027
 417  1379.302
 418  1337.604
 419  1287.271
 420  1360.173
 421  1410.07
 422  1450.436
 423  1502.601
 424  1463.433
 425  1389.366
 426  1368.663
 427  1347.376
 428  1384.102
 429  1549.282
 430  1448.031
 431  1397.663
 432  1388.188
 433  1407.543
 434  1440.359
 435  1342.456
 436  1271.121
 437  1328.628
 438  1284.71
 439  1391.001
 440  1414.599
 441  1422.439
 442  1421.811
 443  1466.524
 444  1484.167
 445  1526.193
 446  1540.685
 447  1523.841
 448  1422.873
 449  1443.359
 450  1377.586
 451  1465.7
 452  1463.426
 453  1446.908
 454  1360.472
 455  1413.892
 456  1430.957
 457  1432.692
 458  1339.131
 459  1310.92
 460  1313.942
 461  1341.495
 462  1241.772
 463  1363.153
 464  1377.717
 465  1410.6
 466  1324.708
 467  1329.02
 468  1373.856
 469  1384.621
 470  1289.535
 471  1182.597
 472  1232.978
 473  1324.152
 474  1311.385
 475  1297.432
 476  1370.226
 477  1290.29
 478  1196.458
 479  1258.87
 480  1416.582
 481  1441.886
 482  1345.212
 483  1339.247
 484  1330.214
 485  1344.085
 486  1408.567
 487  1496.661
 488  1424.514
 489  1350.821
 490  1359.744
 491  1311.984
 492  1330.308
 493  1332.025
 494  1396.352
 495  1430.912
 496  1536.269
 497  1458.748
 498  1308.112
 499  1291.851
 500  1321.973
 501  1388.066
 502  1395.912
 503  1399.985
 504  1382
 505  1527.604
 506  1525.052
 507  1462.853
 508  1525.58
 509  1532.932
 510  1560.164
 511  1696.696
