# Input file       =  1196521562.110791_cleaned.dat
# Candidate        =  PSR_0332+5434
# Telescope        =  AR
# Epoch_topo       =  58092.628982763781
# Epoch_bary       =  N/A
# T_sample         =  0.002
# Data Folded      =  7208960
# Data Avg         =  0.0628958333400131
# Data StdDev      =  1.00002591253278 
# Profile Bins     =  512
# Profile Avg      =  885.553182150695 
# Profile StdDev   =  118.662250553313 
# Reduced chi-sqr  =  0.921
# Prob(Noise)      <  0.9   (~0.0 sigma)
# P_topo (ms)      =  714.530419777293  +/- 0.000146
# P'_topo (s/s)    =  -0                +/- 7.82e-11
# P''_topo (s/s^2) =  0                 +/- 3.51e-14
# P_bary (ms)      =  N/A
# P'_bary (s/s)    =  N/A
# P''_bary (s/s^2) =  N/A
# P_orb (s)        =  N/A
# asin(i)/c (s)    =  N/A
# eccentricity     =  N/A
# w (rad)          =  N/A
# T_peri           =  N/A
######################################################
   0  1141.503
   1  1148.005
   2  1015.015
   3  1065.478
   4  912.2292
   5  838.2405
   6  811.1483
   7  819.2656
   8  829.3746
   9  916.9014
  10  875.0111
  11  919.0222
  12  912.713
  13  861.2435
  14  881.3367
  15  909.4724
  16  983.4086
  17  945.6345
  18  811.7678
  19  754.96
  20  815.682
  21  842.3495
  22  828.1642
  23  906.2257
  24  920.7548
  25  944.4637
  26  952.1829
  27  1010.187
  28  1030.455
  29  976.9388
  30  899.4622
  31  767.5109
  32  768.9661
  33  863.9062
  34  850.6652
  35  873.9855
  36  1016.543
  37  917.4112
  38  970.5934
  39  983.3831
  40  780.1243
  41  797.6572
  42  845.1171
  43  940.5147
  44  933.6855
  45  824.0488
  46  865.9415
  47  913.3745
  48  899.733
  49  815.8477
  50  786.2656
  51  907.3085
  52  1010.186
  53  1021.534
  54  929.4717
  55  859.7326
  56  895.747
  57  894.1321
  58  901.2849
  59  941.0743
  60  887.785
  61  961.3338
  62  832.6767
  63  928.5318
  64  804.5371
  65  786.9623
  66  716.3085
  67  800.772
  68  907.3665
  69  966.3845
  70  974.707
  71  1013.045
  72  994.8568
  73  930.7363
  74  839.1334
  75  819.3572
  76  862.5346
  77  995.6367
  78  1112.454
  79  918.5634
  80  804.5553
  81  820.9023
  82  764.1747
  83  785.6083
  84  861.1657
  85  1019.44
  86  961.5416
  87  868.2888
  88  828.2674
  89  751.5475
  90  760.8126
  91  857.2029
  92  855.8162
  93  820.8104
  94  854.2974
  95  967.6421
  96  963.543
  97  802.7836
  98  758.4859
  99  814.7245
 100  812.4527
 101  851.9957
 102  979.5695
 103  817.0284
 104  713.3438
 105  858.9607
 106  859.2256
 107  831.4729
 108  859.0294
 109  812.408
 110  917.7457
 111  1008.857
 112  1024.647
 113  932.1506
 114  827.1101
 115  962.0121
 116  988.4044
 117  895.8607
 118  866.0741
 119  923.9019
 120  965.4269
 121  960.4
 122  877.905
 123  858.1903
 124  940.1335
 125  1015.905
 126  983.2416
 127  933.683
 128  1019.445
 129  916.0554
 130  860.032
 131  892.633
 132  809.4579
 133  746.1498
 134  702.4282
 135  829.4491
 136  893.8744
 137  945.2685
 138  774.6422
 139  763.8131
 140  817.5586
 141  808.4299
 142  782.1975
 143  818.5697
 144  973.261
 145  1039.309
 146  930.6448
 147  853.415
 148  869.701
 149  797.8671
 150  886.8744
 151  912.0267
 152  819.0969
 153  903.1331
 154  934.1234
 155  989.6685
 156  934.35
 157  923.3448
 158  1032.869
 159  976.6354
 160  896.8982
 161  836.5829
 162  890.1213
 163  926.4787
 164  952.7369
 165  943.9954
 166  891.3118
 167  869.1317
 168  956.41
 169  923.4822
 170  844.2033
 171  808.0484
 172  738.9977
 173  889.7939
 174  943.0376
 175  815.6204
 176  923.2202
 177  970.1393
 178  1003.12
 179  987.6444
 180  1020.361
 181  799.357
 182  919.63
 183  1021.589
 184  1040.316
 185  987.2726
 186  1029.654
 187  1015.416
 188  900.1629
 189  972.058
 190  999.6478
 191  943.2873
 192  999.9946
 193  968.978
 194  849.7304
 195  877.689
 196  1002.578
 197  939.3022
 198  797.4325
 199  745.3554
 200  876.8395
 201  771.5171
 202  724.7932
 203  734.4676
 204  791.9766
 205  844.4488
 206  734.0405
 207  674.6783
 208  714.3702
 209  751.292
 210  897.8727
 211  939.9377
 212  798.5366
 213  785.5319
 214  863.9675
 215  825.1007
 216  777.3041
 217  791.4803
 218  877.0357
 219  974.6772
 220  932.1082
 221  859.4016
 222  866.8403
 223  842.5079
 224  734.824
 225  893.0711
 226  898.8683
 227  892.2538
 228  982.216
 229  965.846
 230  891.276
 231  786.915
 232  790.9364
 233  700.509
 234  842.1333
 235  846.5269
 236  826.5761
 237  955.2067
 238  892.3888
 239  939.3561
 240  947.1542
 241  941.6845
 242  873.6151
 243  809.1675
 244  756.7416
 245  757.1669
 246  819.057
 247  761.9383
 248  840.2479
 249  898.0438
 250  990.9876
 251  986.8745
 252  886.3458
 253  865.4901
 254  918.5354
 255  888.4022
 256  991.1748
 257  969.7332
 258  971.5066
 259  1022.937
 260  963.8036
 261  970.4661
 262  869.6774
 263  850.9709
 264  866.0041
 265  888.6881
 266  902.6577
 267  875.536
 268  946.1993
 269  851.159
 270  897.1343
 271  785.1241
 272  816.4904
 273  794.467
 274  711.9343
 275  810.5471
 276  795.7301
 277  938.3741
 278  859.2908
 279  767.6881
 280  777.7157
 281  765.9905
 282  858.6561
 283  946.7545
 284  943.9513
 285  951.8456
 286  981.2733
 287  830.8589
 288  734.3234
 289  717.1187
 290  820.5118
 291  735.0532
 292  819.3155
 293  866.6857
 294  834.2267
 295  845.7175
 296  867.4356
 297  771.3322
 298  728.9986
 299  853.424
 300  783.6753
 301  836.6409
 302  937.4442
 303  915.8902
 304  816.8146
 305  841.7656
 306  864.5295
 307  949.4382
 308  927.7912
 309  837.8917
 310  833.6967
 311  912.6417
 312  901.5605
 313  836.819
 314  879.6331
 315  897.6909
 316  982.6892
 317  1077.545
 318  1039.6
 319  954.6661
 320  911.4641
 321  843.3229
 322  876.0607
 323  880.7403
 324  756.3661
 325  829.739
 326  846.8812
 327  848.2854
 328  789.968
 329  786.8945
 330  814.6041
 331  846.5646
 332  808.5814
 333  781.9631
 334  759.7009
 335  777.588
 336  815.9747
 337  848.8915
 338  773.1569
 339  753.7164
 340  871.8054
 341  913.0875
 342  902.3043
 343  804.1981
 344  891.9976
 345  871.9843
 346  837.43
 347  821.769
 348  795.5789
 349  777.5947
 350  888.7079
 351  843.1426
 352  886.0585
 353  909.0964
 354  875.4528
 355  846.8584
 356  865.5839
 357  882.6255
 358  813.6052
 359  856.9402
 360  863.2355
 361  852.6421
 362  818.8929
 363  828.5741
 364  936.5514
 365  976.3091
 366  859.9091
 367  834.7073
 368  817.9058
 369  752.525
 370  922.5596
 371  991.0017
 372  1000.1
 373  934.181
 374  891.5768
 375  849.7717
 376  732.7657
 377  802.2062
 378  818.358
 379  829.1053
 380  862.8329
 381  910.8989
 382  949.8109
 383  932.1185
 384  918.4493
 385  933.4167
 386  925.5349
 387  856.4877
 388  881.5414
 389  853.7619
 390  828.6407
 391  1043.259
 392  1085.934
 393  1039.525
 394  942.1588
 395  896.67
 396  978.1132
 397  1059.621
 398  865.7584
 399  842.5969
 400  810.2284
 401  733.1213
 402  806.7544
 403  865.4691
 404  929.8935
 405  851.3771
 406  850.9294
 407  951.6341
 408  966.3
 409  861.1345
 410  891.7079
 411  810.792
 412  776.5818
 413  911.1232
 414  989.1541
 415  1063.392
 416  1032.024
 417  889.653
 418  939.5879
 419  907.5413
 420  890.1289
 421  855.0309
 422  891.5895
 423  1049.089
 424  887.1762
 425  868.1302
 426  966.1607
 427  869.2104
 428  854.2676
 429  877.4495
 430  841.47
 431  896.4371
 432  964.3994
 433  825.1953
 434  816.4235
 435  887.6788
 436  857.5161
 437  818.7972
 438  824.8476
 439  846.1729
 440  902.8483
 441  946.9821
 442  1016.646
 443  957.3956
 444  913.8565
 445  891.7233
 446  857.9651
 447  960.3111
 448  947.0356
 449  884.9269
 450  900.7803
 451  890.3978
 452  844.4644
 453  806.5758
 454  955.3395
 455  958.9515
 456  1089.093
 457  1032.882
 458  894.651
 459  924.3901
 460  931.8793
 461  939.0019
 462  953.8511
 463  974.8368
 464  869.8334
 465  841.9344
 466  940.5674
 467  846.0707
 468  830.7471
 469  858.8226
 470  816.8353
 471  940.0198
 472  936.4772
 473  900.3335
 474  829.2673
 475  833.1859
 476  927.3663
 477  921.2707
 478  1013.3
 479  987.2099
 480  809.3628
 481  830.3678
 482  797.6192
 483  854.2839
 484  823.2766
 485  853.686
 486  907.5642
 487  934.7994
 488  978.2491
 489  883.3872
 490  930.763
 491  847.6897
 492  822.3069
 493  875.4821
 494  998.4888
 495  890.9775
 496  739.9828
 497  890.0258
 498  844.0063
 499  869.5879
 500  885.0078
 501  807.3212
 502  845.8387
 503  892.406
 504  898.8405
 505  1011.545
 506  1042.721
 507  951.9223
 508  1115.955
 509  1147.293
 510  1090.527
 511  1078.185
