# Input file       =  1196206442.107451_cleaned.dat
# Candidate        =  PSR_0332+5434
# Telescope        =  AR
# Epoch_topo       =  58088.981760502902
# Epoch_bary       =  N/A
# T_sample         =  0.002
# Data Folded      =  7340032
# Data Avg         =  0.0945348793870758
# Data StdDev      =  1.00026092232174 
# Profile Bins     =  512
# Profile Avg      =  1355.23356254289 
# Profile StdDev   =  119.764277398606 
# Reduced chi-sqr  =  0.785
# Prob(Noise)      <  1   (~0.0 sigma)
# P_topo (ms)      =  714.527037866056  +/- 4.03e-05
# P'_topo (s/s)    =  -0                +/- 2.13e-11
# P''_topo (s/s^2) =  0                 +/- 9.38e-15
# P_bary (ms)      =  N/A
# P'_bary (s/s)    =  N/A
# P''_bary (s/s^2) =  N/A
# P_orb (s)        =  N/A
# asin(i)/c (s)    =  N/A
# eccentricity     =  N/A
# w (rad)          =  N/A
# T_peri           =  N/A
######################################################
   0  1739.741
   1  1668.231
   2  1571.149
   3  1417.437
   4  1331.613
   5  1358.57
   6  1401.638
   7  1361.274
   8  1398.106
   9  1322.838
  10  1333.318
  11  1311.051
  12  1389.487
  13  1365.976
  14  1363.98
  15  1379.331
  16  1338.002
  17  1341.412
  18  1327.378
  19  1363.273
  20  1328.257
  21  1206.822
  22  1316.826
  23  1338.984
  24  1310.252
  25  1378.771
  26  1399.679
  27  1393.604
  28  1313.46
  29  1347.119
  30  1381.774
  31  1347.519
  32  1276.478
  33  1312.796
  34  1415.809
  35  1356.56
  36  1377.296
  37  1371.555
  38  1470.824
  39  1349.374
  40  1297.683
  41  1400.825
  42  1411.22
  43  1390.32
  44  1405.294
  45  1481.433
  46  1431.522
  47  1428.839
  48  1338.958
  49  1244.803
  50  1346.976
  51  1377.605
  52  1348.696
  53  1223.598
  54  1299.997
  55  1334.028
  56  1334.27
  57  1435.761
  58  1447.821
  59  1371.478
  60  1243.41
  61  1278.307
  62  1362.158
  63  1407.844
  64  1442.539
  65  1374.733
  66  1449.78
  67  1463.432
  68  1405.026
  69  1470.982
  70  1577.771
  71  1519.707
  72  1447.545
  73  1419.658
  74  1313.204
  75  1337.734
  76  1368.923
  77  1428.75
  78  1343.456
  79  1317.412
  80  1406.535
  81  1349.259
  82  1354.551
  83  1284.926
  84  1269.269
  85  1307.459
  86  1288.672
  87  1415.656
  88  1403.822
  89  1246.303
  90  1291.994
  91  1449.895
  92  1549.207
  93  1507.591
  94  1431.66
  95  1399.976
  96  1349.273
  97  1313.308
  98  1326.156
  99  1328.662
 100  1239.54
 101  1430.323
 102  1352.995
 103  1382.825
 104  1343.689
 105  1361.859
 106  1346.983
 107  1311.442
 108  1332.628
 109  1379.075
 110  1350.213
 111  1255.076
 112  1346.117
 113  1355.841
 114  1400.407
 115  1308.965
 116  1303.936
 117  1385.604
 118  1480.205
 119  1358.727
 120  1326.193
 121  1365.089
 122  1395.687
 123  1346.699
 124  1307.891
 125  1299.329
 126  1359.583
 127  1425.653
 128  1417.817
 129  1296.413
 130  1324.114
 131  1347.851
 132  1230.745
 133  1367.369
 134  1382.365
 135  1344.099
 136  1297.862
 137  1320.904
 138  1330.756
 139  1313.889
 140  1290.973
 141  1308.075
 142  1292.615
 143  1192.72
 144  1269.964
 145  1273.348
 146  1158.026
 147  1252.203
 148  1260.718
 149  1338.669
 150  1300.487
 151  1372.295
 152  1319.618
 153  1257.299
 154  1198.69
 155  1301.309
 156  1392.787
 157  1351.54
 158  1257.734
 159  1292.118
 160  1352.163
 161  1256.572
 162  1329.989
 163  1409.843
 164  1291.1
 165  1253.634
 166  1284.295
 167  1282.957
 168  1306.75
 169  1371.133
 170  1400.782
 171  1434.733
 172  1400.79
 173  1358.017
 174  1244.965
 175  1319.697
 176  1325.005
 177  1356.756
 178  1365.74
 179  1280.643
 180  1319.854
 181  1314.49
 182  1300.075
 183  1365.57
 184  1331.815
 185  1294.048
 186  1293.671
 187  1418.293
 188  1463.98
 189  1438.863
 190  1402.91
 191  1461.082
 192  1382.865
 193  1358.444
 194  1465.783
 195  1486.903
 196  1439.301
 197  1325.433
 198  1423.907
 199  1432.156
 200  1380.431
 201  1404.551
 202  1373.87
 203  1291.376
 204  1289.832
 205  1364.572
 206  1387.926
 207  1345.957
 208  1426.424
 209  1437.071
 210  1370.615
 211  1384.491
 212  1399.259
 213  1445.864
 214  1338.404
 215  1318.565
 216  1416.133
 217  1410.851
 218  1323.17
 219  1303.328
 220  1442.942
 221  1529.105
 222  1507.263
 223  1511.514
 224  1401.605
 225  1376.114
 226  1462.554
 227  1436.531
 228  1397.533
 229  1358.325
 230  1376.427
 231  1371.939
 232  1310.875
 233  1447.53
 234  1464.51
 235  1298.311
 236  1301.462
 237  1279.471
 238  1439.331
 239  1381.728
 240  1401.519
 241  1473.535
 242  1443.646
 243  1337.227
 244  1263.14
 245  1395.029
 246  1479.744
 247  1424.462
 248  1547.655
 249  1432.084
 250  1353.997
 251  1369.944
 252  1399.459
 253  1351.411
 254  1331.886
 255  1451.806
 256  1497.431
 257  1335.113
 258  1330.791
 259  1384.028
 260  1235.118
 261  1241.527
 262  1359.897
 263  1415.57
 264  1433.666
 265  1321.626
 266  1307.945
 267  1303.551
 268  1489.386
 269  1467.35
 270  1471.23
 271  1409.73
 272  1362.885
 273  1435.625
 274  1362.759
 275  1364.619
 276  1459.623
 277  1536.874
 278  1423.428
 279  1284.812
 280  1219.557
 281  1300.917
 282  1273.937
 283  1218.121
 284  1249.083
 285  1375.934
 286  1325.629
 287  1317.245
 288  1378.889
 289  1376.018
 290  1343.946
 291  1304.533
 292  1250.238
 293  1351.993
 294  1395.038
 295  1445.859
 296  1402.886
 297  1345.136
 298  1351.132
 299  1323.083
 300  1212.914
 301  1217.034
 302  1349.307
 303  1310.702
 304  1248.054
 305  1304.102
 306  1382.911
 307  1413.532
 308  1372.047
 309  1328.454
 310  1291.369
 311  1325.696
 312  1306.418
 313  1256.217
 314  1305.75
 315  1218.497
 316  1352.044
 317  1380.439
 318  1316.528
 319  1337.391
 320  1402.285
 321  1310.677
 322  1365.023
 323  1440.149
 324  1307.257
 325  1272.217
 326  1385.447
 327  1480.98
 328  1389.244
 329  1297.363
 330  1354.201
 331  1346.493
 332  1245.461
 333  1261.904
 334  1394.433
 335  1498.883
 336  1289.342
 337  1247.451
 338  1302.44
 339  1275.755
 340  1275.479
 341  1408.455
 342  1384.848
 343  1286.542
 344  1256.549
 345  1290.263
 346  1244.733
 347  1197.281
 348  1172.912
 349  1298.146
 350  1324.767
 351  1324.84
 352  1268.852
 353  1214.782
 354  1177.423
 355  1288.766
 356  1395.269
 357  1300.304
 358  1347.776
 359  1356.531
 360  1320.963
 361  1271.474
 362  1276.492
 363  1425.177
 364  1408.025
 365  1326.518
 366  1502.202
 367  1544.013
 368  1428.677
 369  1335.999
 370  1396.566
 371  1458.625
 372  1391.077
 373  1362.823
 374  1296.812
 375  1311.868
 376  1341.603
 377  1361.58
 378  1290.691
 379  1230.61
 380  1285.08
 381  1209.309
 382  1279.955
 383  1239.25
 384  1439.82
 385  1502.416
 386  1347.405
 387  1321.468
 388  1354.317
 389  1371.733
 390  1320.329
 391  1325.425
 392  1418.735
 393  1370.492
 394  1333.279
 395  1345.608
 396  1235.846
 397  1171.945
 398  1291.173
 399  1384.872
 400  1328.26
 401  1158.44
 402  1276.584
 403  1316.64
 404  1296.256
 405  1277.167
 406  1328.249
 407  1330.845
 408  1301.172
 409  1357.008
 410  1354.721
 411  1298.511
 412  1275.712
 413  1339.182
 414  1395.605
 415  1296.425
 416  1415.731
 417  1449.692
 418  1365.886
 419  1393.203
 420  1384.221
 421  1377.711
 422  1364.613
 423  1463.514
 424  1376.013
 425  1344.682
 426  1429.898
 427  1521.552
 428  1386.701
 429  1314.557
 430  1259.464
 431  1424.696
 432  1416.37
 433  1438.176
 434  1419.14
 435  1346.986
 436  1259.386
 437  1347.761
 438  1391.681
 439  1295.726
 440  1220.97
 441  1290.702
 442  1366.595
 443  1359.266
 444  1254.94
 445  1302.179
 446  1402.785
 447  1373.876
 448  1429.594
 449  1497.606
 450  1379.332
 451  1313.257
 452  1352.081
 453  1458.269
 454  1354.516
 455  1361.677
 456  1416.47
 457  1397.776
 458  1281.235
 459  1289.293
 460  1461.084
 461  1355.22
 462  1359.325
 463  1389.013
 464  1356.924
 465  1373.078
 466  1397.303
 467  1507.606
 468  1252.995
 469  1236.354
 470  1378.291
 471  1380.959
 472  1364.553
 473  1329.665
 474  1408.604
 475  1307.459
 476  1257.946
 477  1294.336
 478  1342.703
 479  1281.493
 480  1240.071
 481  1312.226
 482  1380.055
 483  1373.634
 484  1456.458
 485  1355.368
 486  1263.418
 487  1286.89
 488  1415.522
 489  1417.689
 490  1368.532
 491  1297.002
 492  1252.754
 493  1262.146
 494  1307.486
 495  1357.677
 496  1367.412
 497  1353.23
 498  1340.561
 499  1295.49
 500  1313.106
 501  1229.297
 502  1286.553
 503  1367.716
 504  1399.98
 505  1373.169
 506  1366.105
 507  1420.248
 508  1395.941
 509  1450.007
 510  1590.628
 511  1710.324
