# Input file       =  1196895256.11244_cleaned.dat
# Candidate        =  PSR_0332+5434
# Telescope        =  AR
# Epoch_topo       =  58096.954144819909
# Epoch_bary       =  N/A
# T_sample         =  0.002
# Data Folded      =  7340032
# Data Avg         =  0.0478417906880629
# Data StdDev      =  1.00018126208563 
# Profile Bins     =  512
# Profile Avg      =  685.929197465015 
# Profile StdDev   =  119.754739436658 
# Reduced chi-sqr  =  0.837
# Prob(Noise)      <  0.997   (~0.0 sigma)
# P_topo (ms)      =  714.535183235251  +/- 0.000302
# P'_topo (s/s)    =  -0                +/- 1.59e-10
# P''_topo (s/s^2) =  0                 +/- 7.03e-14
# P_bary (ms)      =  N/A
# P'_bary (s/s)    =  N/A
# P''_bary (s/s^2) =  N/A
# P_orb (s)        =  N/A
# asin(i)/c (s)    =  N/A
# eccentricity     =  N/A
# w (rad)          =  N/A
# T_peri           =  N/A
######################################################
   0  997.7239
   1  1087.46
   2  1030.211
   3  905.7561
   4  754.8589
   5  712.7429
   6  760.3892
   7  705.5277
   8  721.2552
   9  756.2302
  10  796.0118
  11  768.4716
  12  532.4269
  13  578.8099
  14  775.8398
  15  784.6862
  16  758.7633
  17  755.8655
  18  721.161
  19  613.3111
  20  573.1173
  21  605.0232
  22  701.8953
  23  730.1832
  24  799.3706
  25  733.4902
  26  774.1624
  27  789.0329
  28  679.8318
  29  699.1522
  30  792.6003
  31  677.2125
  32  667.8378
  33  507.4813
  34  485.9542
  35  663.6391
  36  580.3998
  37  671.5319
  38  650.4092
  39  608.4124
  40  740.7745
  41  710.8754
  42  648.5531
  43  717.936
  44  797.663
  45  751.0852
  46  654.7626
  47  666.476
  48  663.6938
  49  678.6186
  50  607.5232
  51  579.2946
  52  662.3446
  53  701.2574
  54  721.1602
  55  911.0553
  56  765.1075
  57  570.9907
  58  605.7927
  59  557.8589
  60  507.5102
  61  587.2938
  62  686.8585
  63  640.5378
  64  632.4631
  65  663.045
  66  800.5143
  67  677.2733
  68  659.8535
  69  774.3235
  70  717.3306
  71  765.545
  72  725.8117
  73  708.0358
  74  716.9086
  75  682.7328
  76  659.5059
  77  769.3835
  78  809.9398
  79  721.6285
  80  678.3592
  81  683.0552
  82  731.1178
  83  642.1478
  84  556.5475
  85  698.5056
  86  773.8116
  87  757.1143
  88  718.3293
  89  650.1768
  90  651.584
  91  687.7374
  92  647.946
  93  826.702
  94  769.879
  95  696.7019
  96  652.762
  97  574.7714
  98  592.3716
  99  633.8079
 100  721.2574
 101  673.3337
 102  616.0958
 103  729.2632
 104  725.1097
 105  620.9952
 106  703.7527
 107  627.1009
 108  676.0418
 109  740.4647
 110  712.412
 111  622.2724
 112  528.2839
 113  599.0202
 114  628.5462
 115  669.3007
 116  720.7633
 117  667.6217
 118  729.4372
 119  739.9011
 120  693.4418
 121  664.3858
 122  764.6537
 123  718.3928
 124  683.3127
 125  707.1184
 126  683.57
 127  738.8387
 128  754.1956
 129  712.2843
 130  719.5132
 131  758.6263
 132  832.8989
 133  704.9415
 134  688.7361
 135  638.3646
 136  705.198
 137  797.0711
 138  774.1304
 139  760.8672
 140  738.8983
 141  719.5601
 142  750.1127
 143  732.4071
 144  780.3917
 145  745.9551
 146  764.4888
 147  571.0814
 148  615.6244
 149  713.819
 150  638.287
 151  622.9745
 152  528.1146
 153  603.2601
 154  609.2612
 155  593.0934
 156  606.4467
 157  649.283
 158  633.5732
 159  635.1749
 160  617.6472
 161  591.2843
 162  588.8621
 163  675.9673
 164  734.6291
 165  668.7131
 166  684.139
 167  666.6534
 168  694.975
 169  692.6788
 170  660.5599
 171  598.6599
 172  547.5411
 173  719.4896
 174  736.3357
 175  699.192
 176  594.8022
 177  576.489
 178  619.5916
 179  537.5816
 180  555.2689
 181  554.298
 182  682.5551
 183  717.2379
 184  619.3229
 185  604.103
 186  660.3448
 187  630.677
 188  715.8137
 189  719.8682
 190  797.9811
 191  676.0065
 192  612.9727
 193  605.1916
 194  609.5493
 195  608.2034
 196  586.9963
 197  605.0526
 198  607.8154
 199  609.7042
 200  488.564
 201  454.3193
 202  527.5322
 203  657.3449
 204  759.0244
 205  657.9883
 206  582.0976
 207  604.0438
 208  627.8121
 209  614.9796
 210  554.4928
 211  658.8109
 212  645.4133
 213  601.9021
 214  669.9316
 215  579.7932
 216  533.4545
 217  523.6191
 218  717.6715
 219  764.4341
 220  678.4598
 221  611.704
 222  635.7707
 223  728.191
 224  633.685
 225  618.7927
 226  636.701
 227  527.0832
 228  574.4773
 229  703.3436
 230  658.666
 231  681.6836
 232  678.1219
 233  721.265
 234  687.0897
 235  588.4651
 236  679.357
 237  595.6482
 238  586.759
 239  679.8671
 240  755.7169
 241  737.2517
 242  731.046
 243  769.5176
 244  696.9797
 245  667.1808
 246  796.5892
 247  847.701
 248  690.6921
 249  637.1923
 250  632.9216
 251  695.4051
 252  706.9759
 253  651.0571
 254  786.5081
 255  735.6302
 256  667.3981
 257  784.0318
 258  814.5712
 259  774.0209
 260  715.5824
 261  639.2519
 262  656.7623
 263  714.189
 264  763.4986
 265  747.5574
 266  638.5884
 267  603.9661
 268  666.9776
 269  653.2658
 270  673.1875
 271  636.2248
 272  661.591
 273  731.7734
 274  740.6578
 275  663.7568
 276  654.4377
 277  728.8344
 278  739.0331
 279  697.5976
 280  706.0322
 281  670.5445
 282  719.0417
 283  735.963
 284  675.8279
 285  805.4115
 286  853.3927
 287  754.298
 288  743.942
 289  695.4355
 290  676.249
 291  675.2167
 292  598.1713
 293  759.5555
 294  712.8876
 295  661.0005
 296  686.7271
 297  823.2697
 298  617.2501
 299  697.2935
 300  795.2727
 301  719.867
 302  711.6656
 303  629.9512
 304  649.0751
 305  651.4327
 306  773.5588
 307  826.2176
 308  810.7807
 309  906.1195
 310  841.2314
 311  623.4187
 312  711.8221
 313  707.6185
 314  753.5123
 315  758.4623
 316  688.9548
 317  746.6906
 318  750.5433
 319  769.0626
 320  753.4025
 321  714.5522
 322  742.4761
 323  675.5901
 324  636.546
 325  628.5736
 326  696.6624
 327  763.5211
 328  691.7043
 329  639.451
 330  547.6926
 331  511.572
 332  486.7853
 333  676.0636
 334  755.4771
 335  740.2254
 336  669.5652
 337  671.2721
 338  643.2392
 339  677.1294
 340  674.4842
 341  616.9368
 342  606.6703
 343  656.0038
 344  619.3743
 345  607.6218
 346  660.2916
 347  695.8646
 348  661.7742
 349  796.0115
 350  690.4786
 351  699.1514
 352  715.5876
 353  644.1987
 354  651.7745
 355  646.1885
 356  723.3992
 357  693.5917
 358  744.8835
 359  547.8253
 360  579.1472
 361  568.5045
 362  587.6113
 363  556.3076
 364  673.6155
 365  643.2465
 366  626.7592
 367  691.6347
 368  767.7028
 369  776.7178
 370  659.8205
 371  681.2265
 372  728.0396
 373  801.5198
 374  788.9548
 375  677.9366
 376  648.1971
 377  755.2477
 378  773.358
 379  743.3611
 380  645.5611
 381  672.1273
 382  702.9969
 383  695.6877
 384  582.8169
 385  642.6462
 386  647.9959
 387  685.4704
 388  739.4528
 389  603.203
 390  575.7197
 391  607.3139
 392  666.2501
 393  752.3309
 394  747.1133
 395  790.8928
 396  775.8521
 397  685.6127
 398  735.3504
 399  775.5043
 400  780.1388
 401  692.4619
 402  734.8531
 403  756.6719
 404  695.2101
 405  651.1285
 406  646.8913
 407  657.0961
 408  794.0938
 409  802.9036
 410  743.7854
 411  641.9245
 412  730.7514
 413  685.4637
 414  598.2604
 415  706.5618
 416  662.8915
 417  743.7808
 418  719.9567
 419  646.9156
 420  618.7051
 421  670.137
 422  681.1814
 423  579.9297
 424  595.9069
 425  745.4803
 426  697.7557
 427  797.9211
 428  784.6561
 429  760.998
 430  659.3222
 431  716.109
 432  702.3865
 433  650.6632
 434  789.2208
 435  891.7585
 436  861.8119
 437  765.916
 438  752.9282
 439  603.3641
 440  626.1818
 441  589.668
 442  645.1701
 443  637.2087
 444  699.8975
 445  650.6031
 446  583.0248
 447  632.2217
 448  613.5765
 449  553.2695
 450  703.8045
 451  696.0641
 452  626.663
 453  765.3813
 454  711.0699
 455  786.2137
 456  720.9919
 457  667.4925
 458  720.6082
 459  726.3756
 460  674.3553
 461  719.0402
 462  737.412
 463  704.8618
 464  717.7139
 465  701.0451
 466  578.6493
 467  638.707
 468  738.2062
 469  625.6129
 470  659.925
 471  650.5984
 472  676.4723
 473  715.2412
 474  698.1521
 475  665.7747
 476  620.0443
 477  627.9814
 478  627.2979
 479  677.11
 480  706.4278
 481  698.2982
 482  604.2116
 483  626.8441
 484  584.8983
 485  504.3753
 486  636.4578
 487  753.4071
 488  712.3667
 489  660.361
 490  706.6343
 491  670.7391
 492  758.7896
 493  738.3325
 494  618.5475
 495  698.9355
 496  681.647
 497  668.7185
 498  602.0236
 499  547.3423
 500  603.8953
 501  602.1241
 502  693.8148
 503  690.6865
 504  707.426
 505  750.027
 506  753.8123
 507  811.8503
 508  835.328
 509  809.1902
 510  876.3955
 511  956.5291
