# Input file       =  1196607167.098366_cleaned.dat
# Candidate        =  PSR_0332+5434
# Telescope        =  AR
# Epoch_topo       =  58093.619781231086
# Epoch_bary       =  N/A
# T_sample         =  0.002
# Data Folded      =  7208960
# Data Avg         =  0.0518669891337073
# Data StdDev      =  1.00059081430944 
# Profile Bins     =  512
# Profile Avg      =  730.294579944487 
# Profile StdDev   =  118.729281332536 
# Reduced chi-sqr  =  1.014
# Prob(Noise)      <  0.407   (~0.2 sigma)
# P_topo (ms)      =  714.531440344455  +/- 2.53e-05
# P'_topo (s/s)    =  -0                +/- 1.36e-11
# P''_topo (s/s^2) =  0                 +/- 6.11e-15
# P_bary (ms)      =  N/A
# P'_bary (s/s)    =  N/A
# P''_bary (s/s^2) =  N/A
# P_orb (s)        =  N/A
# asin(i)/c (s)    =  N/A
# eccentricity     =  N/A
# w (rad)          =  N/A
# T_peri           =  N/A
######################################################
   0  966.5187
   1  971.1492
   2  882.3752
   3  826.5956
   4  899.6727
   5  904.6251
   6  847.4839
   7  897.4138
   8  889.5909
   9  767.3176
  10  735.8224
  11  877.8575
  12  794.5955
  13  679.1531
  14  728.7825
  15  840.6303
  16  752.8267
  17  737.4589
  18  871.325
  19  862.1489
  20  771.2232
  21  873.0629
  22  874.7659
  23  775.8534
  24  852.144
  25  850.2429
  26  795.9531
  27  712.2894
  28  717.149
  29  969.4516
  30  887.1126
  31  817.566
  32  837.3886
  33  771.7372
  34  790.4236
  35  665.0255
  36  788.3655
  37  794.1752
  38  755.6154
  39  864.2952
  40  770.4372
  41  624.4385
  42  518.3951
  43  591.675
  44  707.0108
  45  640.3898
  46  755.0106
  47  725.1697
  48  658.7241
  49  751.6823
  50  762.3928
  51  783.3156
  52  737.7728
  53  768.7523
  54  844.234
  55  760.9061
  56  713.0897
  57  755.5624
  58  741.3644
  59  679.4828
  60  689.2137
  61  780.0922
  62  729.064
  63  753.3762
  64  847.3979
  65  810.3416
  66  676.3188
  67  632.0436
  68  814.4861
  69  895.0269
  70  822.8256
  71  692.981
  72  783.6848
  73  806.3355
  74  819.1208
  75  792.6562
  76  857.1462
  77  883.2397
  78  833.1239
  79  745.2635
  80  812.4271
  81  793.2131
  82  792.5194
  83  706.016
  84  711.7589
  85  626.9301
  86  766.489
  87  719.9333
  88  564.4969
  89  710.2795
  90  819.3301
  91  865.8135
  92  716.2642
  93  766.41
  94  898.332
  95  744.266
  96  777.6712
  97  841.8283
  98  780.0762
  99  690.5828
 100  592.7662
 101  636.4899
 102  574.0295
 103  606.5411
 104  747.4141
 105  885.1616
 106  816.8866
 107  724.0115
 108  763.2923
 109  646.6105
 110  645.3878
 111  704.5189
 112  726.2248
 113  738.5104
 114  753.1074
 115  822.1748
 116  798.1597
 117  674.7228
 118  621.6414
 119  788.4243
 120  755.4883
 121  715.9736
 122  725.6999
 123  796.013
 124  762.04
 125  664.5685
 126  651.842
 127  825.7404
 128  702.6704
 129  650.8339
 130  750.1062
 131  647.7973
 132  654.847
 133  706.1107
 134  660.5479
 135  684.1364
 136  828.1999
 137  836.9347
 138  683.4589
 139  645.2587
 140  710.6342
 141  616.315
 142  672.3121
 143  802.4315
 144  780.6088
 145  740.852
 146  712.0231
 147  761.1411
 148  716.3959
 149  678.7957
 150  624.1694
 151  685.6052
 152  695.7823
 153  723.4661
 154  756.6262
 155  777.0266
 156  712.0444
 157  766.6138
 158  878.229
 159  826.1651
 160  728.9366
 161  764.3587
 162  737.0441
 163  798.491
 164  672.9584
 165  610.0659
 166  706.9171
 167  669.4746
 168  700.1035
 169  727.2218
 170  741.3714
 171  662.3292
 172  673.2209
 173  681.0338
 174  576.1937
 175  673.2537
 176  776.1508
 177  768.7385
 178  593.9827
 179  624.0192
 180  691.0067
 181  747.6437
 182  762.1565
 183  787.4622
 184  759.8781
 185  740.299
 186  756.4026
 187  716.0518
 188  611.8533
 189  662.1157
 190  668.0083
 191  706.9208
 192  589.706
 193  660.9125
 194  861.2109
 195  794.9017
 196  734.8373
 197  836.267
 198  849.9666
 199  674.4795
 200  636.5615
 201  710.0393
 202  651.965
 203  670.8963
 204  785.8497
 205  719.3732
 206  570.7972
 207  671.1212
 208  776.3643
 209  710.0977
 210  664.0098
 211  686.9694
 212  693.395
 213  662.7728
 214  629.2319
 215  639.4794
 216  730.2443
 217  676.0444
 218  623.2707
 219  663.2554
 220  632.8212
 221  591.4066
 222  701.4836
 223  755.3506
 224  686.0276
 225  681.4925
 226  719.7464
 227  571.9191
 228  575.1644
 229  665.9412
 230  749.6656
 231  739.5117
 232  647.595
 233  648.3407
 234  686.255
 235  536.0234
 236  594.6138
 237  805.1151
 238  819.6313
 239  668.1961
 240  696.8064
 241  699.5209
 242  554.2756
 243  683.2211
 244  801.5641
 245  752.8011
 246  649.0422
 247  679.7619
 248  679.433
 249  649.2968
 250  714.5344
 251  700.448
 252  559.655
 253  533.6049
 254  739.0482
 255  805.8906
 256  644.348
 257  576.7575
 258  670.4242
 259  561.7681
 260  506.3367
 261  597.8656
 262  752.9841
 263  757.6659
 264  710.8068
 265  825.6229
 266  814.3555
 267  699.3171
 268  676.4978
 269  817.4448
 270  742.1984
 271  653.3045
 272  663.5633
 273  734.5973
 274  650.7548
 275  686.7075
 276  816.0888
 277  745.9473
 278  648.2413
 279  741.4946
 280  850.1636
 281  715.5013
 282  627.3387
 283  704.657
 284  815.3692
 285  773.4774
 286  823.3792
 287  794.5745
 288  676.4189
 289  772.5051
 290  818.8469
 291  763.7096
 292  662.7269
 293  703.04
 294  820.5815
 295  814.6274
 296  686.0858
 297  726.041
 298  790.8312
 299  719.6076
 300  803.8358
 301  833.6219
 302  823.6631
 303  692.1993
 304  692.1284
 305  757.8744
 306  639.1928
 307  565.2743
 308  641.7785
 309  714.1865
 310  621.5098
 311  673.5201
 312  820.2861
 313  622.5178
 314  563.0624
 315  659.1779
 316  710.0131
 317  684.0095
 318  607.3139
 319  656.0587
 320  721.6061
 321  675.4406
 322  717.1193
 323  606.6828
 324  552.9262
 325  642.5172
 326  573.0703
 327  610.9807
 328  676.0588
 329  703.3932
 330  758.2221
 331  553.9114
 332  579.5156
 333  617.4384
 334  668.9092
 335  726.6558
 336  719.1965
 337  784.5338
 338  775.195
 339  583.884
 340  614.5319
 341  686.4069
 342  663.1101
 343  784.4938
 344  857.3286
 345  684.2181
 346  584.7369
 347  649.5683
 348  770.7857
 349  807.5596
 350  713.608
 351  776.4067
 352  845.6726
 353  724.5872
 354  679.0036
 355  794.5989
 356  682.7228
 357  592.5986
 358  573.3598
 359  712.1004
 360  712.6689
 361  644.1803
 362  772.3748
 363  686.0014
 364  606.4795
 365  711.4371
 366  797.8645
 367  813.4284
 368  739.2588
 369  771.3972
 370  730.9653
 371  678.192
 372  661.4963
 373  640.3959
 374  594.5831
 375  620.2688
 376  740.7194
 377  766.5546
 378  783.8958
 379  780.4458
 380  837.9496
 381  790.7257
 382  702.3391
 383  719.7349
 384  699.8706
 385  720.486
 386  681.7703
 387  771.903
 388  659.7208
 389  612.7039
 390  699.0108
 391  765.4907
 392  809.8674
 393  749.0298
 394  746.3179
 395  734.9929
 396  645.0495
 397  663.8239
 398  782.303
 399  789.9597
 400  706.0115
 401  871.2131
 402  781.0569
 403  720.5403
 404  726.0396
 405  765.6028
 406  710.234
 407  745.3256
 408  746.5652
 409  854.4543
 410  733.5071
 411  785.2146
 412  813.244
 413  778.7261
 414  708.579
 415  787.167
 416  843.0343
 417  736.7137
 418  743.412
 419  820.3772
 420  807.0697
 421  734.4045
 422  750.7986
 423  741.5085
 424  762.3983
 425  723.4927
 426  803.6719
 427  871.5998
 428  768.0349
 429  786.9855
 430  842.8047
 431  753.1677
 432  738.5175
 433  911.2184
 434  810.2182
 435  759.7258
 436  861.3461
 437  869.5929
 438  842.3757
 439  709.3247
 440  685.137
 441  686.8245
 442  666.1718
 443  618.9921
 444  691.6177
 445  720.6953
 446  700.5596
 447  699.0129
 448  769.6662
 449  758.4424
 450  724.0713
 451  697.9843
 452  647.5265
 453  617.6059
 454  681.6769
 455  884.7778
 456  878.0798
 457  785.2646
 458  839.9796
 459  869.0233
 460  762.5096
 461  665.1516
 462  879.6605
 463  898.0818
 464  775.0095
 465  728.9219
 466  849.4351
 467  763.5924
 468  723.691
 469  668.1774
 470  596.8783
 471  612.1814
 472  590.9575
 473  707.3257
 474  788.2946
 475  831.3924
 476  749.8684
 477  710.5635
 478  690.9057
 479  727.8574
 480  786.7059
 481  748.9894
 482  777.2066
 483  819.1516
 484  767.6061
 485  723.1486
 486  716.6326
 487  788.8871
 488  758.8161
 489  656.6979
 490  561.2053
 491  653.1413
 492  719.5905
 493  649.732
 494  697.1943
 495  666.1693
 496  586.5333
 497  602.4852
 498  725.54
 499  648.4219
 500  558.964
 501  654.5634
 502  755.5677
 503  650.3452
 504  704.3696
 505  783.5268
 506  802.4304
 507  809.7507
 508  941.1377
 509  1080.512
 510  1114.36
 511  964.6541
