# Input file       =  1196951893.114437_cleaned.dat
# Candidate        =  PSR_0332+5434
# Telescope        =  AR
# Epoch_topo       =  58097.609665676355
# Epoch_bary       =  N/A
# T_sample         =  0.002
# Data Folded      =  7208960
# Data Avg         =  0.0901575051831015
# Data StdDev      =  1.00031747597575 
# Profile Bins     =  512
# Profile Avg      =  1269.41257872656 
# Profile StdDev   =  118.696847231147 
# Reduced chi-sqr  =  0.723
# Prob(Noise)      <  1   (~0.0 sigma)
# P_topo (ms)      =  714.535505329241  +/- 0.000538
# P'_topo (s/s)    =  -0                +/- 2.89e-10
# P''_topo (s/s^2) =  0                 +/- 1.3e-13
# P_bary (ms)      =  N/A
# P'_bary (s/s)    =  N/A
# P''_bary (s/s^2) =  N/A
# P_orb (s)        =  N/A
# asin(i)/c (s)    =  N/A
# eccentricity     =  N/A
# w (rad)          =  N/A
# T_peri           =  N/A
######################################################
   0  1387.073
   1  1375.881
   2  1331.045
   3  1346.366
   4  1212.028
   5  1264.022
   6  1273.253
   7  1263.45
   8  1167.938
   9  1180.751
  10  1154.587
  11  1276.318
  12  1276.806
  13  1208.812
  14  1246.788
  15  1304.196
  16  1260.331
  17  1229.037
  18  1248.923
  19  1230.672
  20  1278.671
  21  1318.894
  22  1356.689
  23  1410.311
  24  1359.953
  25  1263.154
  26  1207.527
  27  1271.028
  28  1293.578
  29  1312.847
  30  1276.702
  31  1239.974
  32  1258.039
  33  1341.306
  34  1411.601
  35  1391.993
  36  1310.379
  37  1312.07
  38  1282.897
  39  1369.654
  40  1315.219
  41  1366.413
  42  1324.934
  43  1374.506
  44  1272.716
  45  1422.326
  46  1391.628
  47  1293.558
  48  1338.296
  49  1335.003
  50  1281.93
  51  1333.864
  52  1261.443
  53  1194.952
  54  1240.983
  55  1300.345
  56  1309.224
  57  1373.046
  58  1396.234
  59  1411.644
  60  1338.569
  61  1252.446
  62  1265.33
  63  1263.246
  64  1206.01
  65  1333.691
  66  1431.158
  67  1287.286
  68  1216.663
  69  1194.378
  70  1303.841
  71  1211.002
  72  1189.989
  73  1220.764
  74  1088.981
  75  1179.696
  76  1306.673
  77  1298.074
  78  1277.474
  79  1225.239
  80  1212.705
  81  1135.501
  82  1195.578
  83  1152.376
  84  1086.527
  85  1187.147
  86  1250.607
  87  1276.87
  88  1285.416
  89  1343.201
  90  1315.688
  91  1243.081
  92  1225.706
  93  1135.139
  94  1262.036
  95  1313.821
  96  1247.583
  97  1246.023
  98  1228.582
  99  1213.555
 100  1333.261
 101  1360.015
 102  1358.792
 103  1205.862
 104  1191.464
 105  1247.005
 106  1252.143
 107  1296.114
 108  1318.875
 109  1333.945
 110  1322.19
 111  1386.415
 112  1323.885
 113  1339.98
 114  1266.245
 115  1242.055
 116  1118.19
 117  1241.612
 118  1195.604
 119  1247.158
 120  1361.495
 121  1290.224
 122  1184.557
 123  1092.244
 124  1236.148
 125  1214.648
 126  1139.093
 127  1174.634
 128  1190.805
 129  1206.151
 130  1222.546
 131  1207.363
 132  1217.719
 133  1126.175
 134  1169.076
 135  1241.483
 136  1215.376
 137  1203.281
 138  1297.917
 139  1243.021
 140  1285.699
 141  1324.228
 142  1334.362
 143  1298.211
 144  1169.297
 145  1311.259
 146  1313.773
 147  1366.487
 148  1366.048
 149  1333.771
 150  1298.071
 151  1311.496
 152  1187.57
 153  1269.475
 154  1396.843
 155  1369.504
 156  1285.241
 157  1275.632
 158  1274.308
 159  1261.343
 160  1301.998
 161  1300.604
 162  1419.33
 163  1444.724
 164  1268.891
 165  1224.573
 166  1187.026
 167  1270.349
 168  1266.13
 169  1285.231
 170  1376.235
 171  1430.147
 172  1333.936
 173  1171.527
 174  1216.457
 175  1249.945
 176  1249.046
 177  1331.993
 178  1256.922
 179  1246.589
 180  1267.251
 181  1284.031
 182  1235.114
 183  1277.964
 184  1360.384
 185  1235.345
 186  1242.415
 187  1309.992
 188  1274.708
 189  1321.204
 190  1318.508
 191  1322.004
 192  1285.249
 193  1271.912
 194  1384.179
 195  1346.515
 196  1294.105
 197  1276.502
 198  1325.202
 199  1215.395
 200  1230.645
 201  1251.272
 202  1255.636
 203  1370.443
 204  1269.758
 205  1204.757
 206  1305.439
 207  1288.625
 208  1163.427
 209  1248.852
 210  1310.331
 211  1183.223
 212  1185.751
 213  1208.244
 214  1208.717
 215  1209.143
 216  1236.486
 217  1218.01
 218  1319.37
 219  1293.377
 220  1205.085
 221  1210.076
 222  1224.527
 223  1279.675
 224  1334.821
 225  1296.397
 226  1379.02
 227  1349.016
 228  1301.358
 229  1166.656
 230  1100.017
 231  1192.889
 232  1244.674
 233  1340.866
 234  1215.527
 235  1206.109
 236  1273.852
 237  1253.05
 238  1299.088
 239  1303.398
 240  1300.156
 241  1215.355
 242  1236.001
 243  1375.306
 244  1287.9
 245  1269.225
 246  1334.503
 247  1218.752
 248  1187.24
 249  1190.463
 250  1254.341
 251  1352.859
 252  1325.192
 253  1300.789
 254  1285.296
 255  1196.701
 256  1296.778
 257  1245.003
 258  1221.447
 259  1319.644
 260  1338.947
 261  1329.219
 262  1247.486
 263  1342.163
 264  1313.736
 265  1296.875
 266  1264.662
 267  1181.862
 268  1294.889
 269  1308.13
 270  1365.642
 271  1151.547
 272  1235.12
 273  1282.917
 274  1316.977
 275  1167.554
 276  1193.061
 277  1276.62
 278  1323.666
 279  1393.667
 280  1440.528
 281  1288.59
 282  1268.669
 283  1321.792
 284  1270.25
 285  1278.626
 286  1266.781
 287  1105.086
 288  1197.687
 289  1212.307
 290  1153.726
 291  1157.766
 292  1230.192
 293  1235.089
 294  1197.79
 295  1214.098
 296  1316.138
 297  1378.281
 298  1269.175
 299  1116.035
 300  1141.572
 301  1242.271
 302  1287.156
 303  1181.476
 304  1161.841
 305  1171.566
 306  1342.031
 307  1279.816
 308  1231.334
 309  1233.308
 310  1089.918
 311  1175.941
 312  1245.008
 313  1260.209
 314  1252.175
 315  1219.211
 316  1155.881
 317  1246.392
 318  1404.725
 319  1264.264
 320  1272.856
 321  1271.883
 322  1231.368
 323  1281.492
 324  1354.089
 325  1371.719
 326  1263.069
 327  1232.503
 328  1166.421
 329  1184.228
 330  1263.926
 331  1184.292
 332  1182.271
 333  1166.9
 334  1173.913
 335  1401.35
 336  1375.52
 337  1295.992
 338  1253.562
 339  1271.64
 340  1218.07
 341  1146.417
 342  1251.757
 343  1121.179
 344  1201.434
 345  1206.394
 346  1167.766
 347  1154.656
 348  1241.915
 349  1257.734
 350  1149.858
 351  1170.577
 352  1287.137
 353  1241.075
 354  1190.765
 355  1223.052
 356  1195.59
 357  1257.701
 358  1328.357
 359  1283.655
 360  1236.786
 361  1162.35
 362  1234.913
 363  1169.122
 364  1280.749
 365  1241.728
 366  1278.055
 367  1317.146
 368  1257.1
 369  1244.882
 370  1239.346
 371  1263.591
 372  1207.855
 373  1177.062
 374  1221.74
 375  1240.254
 376  1282.796
 377  1314.982
 378  1367.535
 379  1241.283
 380  1300.314
 381  1330.352
 382  1337.872
 383  1261.561
 384  1289.721
 385  1346.465
 386  1360.33
 387  1403.605
 388  1438.828
 389  1453.512
 390  1326.927
 391  1393.815
 392  1420.191
 393  1388.51
 394  1313.965
 395  1191.597
 396  1263.132
 397  1317.843
 398  1314.776
 399  1293.552
 400  1199.665
 401  1195.907
 402  1186.921
 403  1226.651
 404  1305.795
 405  1352.131
 406  1283.896
 407  1299.972
 408  1133.409
 409  1110.715
 410  1217.207
 411  1237.071
 412  1253.038
 413  1303.012
 414  1302.06
 415  1209.131
 416  1243.515
 417  1189.962
 418  1279.901
 419  1273.458
 420  1262.98
 421  1302.459
 422  1266.411
 423  1196.214
 424  1149.219
 425  1242.079
 426  1259.135
 427  1269.085
 428  1223.844
 429  1212.271
 430  1257.004
 431  1299.807
 432  1271.243
 433  1253.949
 434  1326.681
 435  1385.982
 436  1308.446
 437  1253.644
 438  1338.125
 439  1341.241
 440  1177.47
 441  1255.121
 442  1209.728
 443  1203.389
 444  1140.143
 445  1229.119
 446  1389.852
 447  1277.39
 448  1086.199
 449  1248.874
 450  1390.091
 451  1375.978
 452  1388.219
 453  1299.8
 454  1310.34
 455  1290.602
 456  1278.135
 457  1292.538
 458  1250.395
 459  1240.005
 460  1217.045
 461  1216.605
 462  1180.971
 463  1136.422
 464  1119.732
 465  1093.2
 466  1167.84
 467  1262.373
 468  1224.094
 469  1241.499
 470  1252.268
 471  1342.643
 472  1218.183
 473  1163.22
 474  1271.977
 475  1332.488
 476  1313.554
 477  1307.127
 478  1285.783
 479  1320.953
 480  1245.106
 481  1356.464
 482  1269.193
 483  1292.513
 484  1255.738
 485  1305.231
 486  1381.75
 487  1351.612
 488  1363.382
 489  1440.773
 490  1445.128
 491  1335.691
 492  1320.485
 493  1339.717
 494  1284.042
 495  1114.627
 496  1309.251
 497  1365.52
 498  1387.79
 499  1432.499
 500  1359.671
 501  1318.621
 502  1207.049
 503  1215.068
 504  1257.455
 505  1363.762
 506  1426.59
 507  1422.032
 508  1355.336
 509  1248.143
 510  1346.73
 511  1478.974
