# Input file       =  1196090719.110027_cleaned.dat
# Candidate        =  PSR_0332+5434
# Telescope        =  AR
# Epoch_topo       =  58087.642373958646
# Epoch_bary       =  N/A
# T_sample         =  0.002
# Data Folded      =  7208960
# Data Avg         =  0.05685087459551 
# Data StdDev      =  1.00023102909578 
# Profile Bins     =  512
# Profile Avg      =  800.435826985771 
# Profile StdDev   =  118.68658951562  
# Reduced chi-sqr  =  0.838
# Prob(Noise)      <  0.997   (~0.0 sigma)
# P_topo (ms)      =  714.525295000559  +/- 0.000295
# P'_topo (s/s)    =  -0                +/- 1.58e-10
# P''_topo (s/s^2) =  0                 +/- 7.11e-14
# P_bary (ms)      =  N/A
# P'_bary (s/s)    =  N/A
# P''_bary (s/s^2) =  N/A
# P_orb (s)        =  N/A
# asin(i)/c (s)    =  N/A
# eccentricity     =  N/A
# w (rad)          =  N/A
# T_peri           =  N/A
######################################################
   0  1071.235
   1  1019.911
   2  1040.868
   3  794.5942
   4  719.2113
   5  663.2538
   6  784.2044
   7  682.9647
   8  605.5236
   9  667.257
  10  654.6196
  11  606.1368
  12  614.3304
  13  647.629
  14  677.9692
  15  651.6604
  16  775.5171
  17  699.8113
  18  653.7113
  19  608.8042
  20  744.2406
  21  788.7154
  22  701.0278
  23  687.1145
  24  746.0732
  25  733.8795
  26  702.8513
  27  723.1237
  28  730.3478
  29  672.1567
  30  655.8192
  31  728.04
  32  666.2848
  33  615.845
  34  674.3391
  35  783.0872
  36  783.6334
  37  724.0255
  38  854.8998
  39  815.8553
  40  715.4939
  41  732.8431
  42  739.2552
  43  784.6254
  44  671.3921
  45  704.9562
  46  782.6214
  47  844.2573
  48  833.0531
  49  794.2236
  50  797.9974
  51  804.6569
  52  930.8893
  53  933.088
  54  924.7072
  55  822.0853
  56  784.3723
  57  792.2144
  58  748.0859
  59  784.1576
  60  831.5453
  61  891.8893
  62  910.9273
  63  898.2266
  64  843.4922
  65  848.4523
  66  932.7858
  67  907.8782
  68  925.642
  69  788.762
  70  722.7568
  71  780.2151
  72  844.0184
  73  886.8737
  74  722.6215
  75  654.8304
  76  779.7652
  77  779.1377
  78  781.1943
  79  760.0344
  80  687.5283
  81  789.6745
  82  820.4838
  83  819.1401
  84  836.0967
  85  811.6334
  86  749.4425
  87  712.6304
  88  700.728
  89  756.9651
  90  790.7311
  91  697.7142
  92  655.8806
  93  811.2189
  94  847.902
  95  801.2437
  96  837.968
  97  861.3364
  98  762.2335
  99  748.1289
 100  833.7192
 101  722.8175
 102  761.0946
 103  749.9592
 104  754.6849
 105  817.72
 106  998.9584
 107  913.5178
 108  879.7738
 109  840.7952
 110  943.767
 111  956.283
 112  896.4281
 113  932.1241
 114  822.4788
 115  802.5918
 116  805.4949
 117  845.8718
 118  910.3337
 119  895.8556
 120  893.5264
 121  923.3985
 122  944.4637
 123  1006.741
 124  979.8282
 125  866.4606
 126  829.5068
 127  884.4497
 128  828.0825
 129  835.6666
 130  694.0773
 131  703.2126
 132  770.8093
 133  826.1072
 134  805.4925
 135  744.0827
 136  787.6824
 137  761.3599
 138  729.9479
 139  778.6682
 140  846.7178
 141  816.5099
 142  698.832
 143  810.6627
 144  795.5565
 145  715.769
 146  775.2942
 147  857.1507
 148  794.585
 149  832.4135
 150  915.344
 151  832.6066
 152  831.1738
 153  951.9835
 154  820.5992
 155  641.9617
 156  711.0358
 157  747.0344
 158  737.9109
 159  687.665
 160  766.5927
 161  655.9759
 162  684.0254
 163  862.554
 164  792.8062
 165  725.6285
 166  790.7848
 167  753.9471
 168  694.7032
 169  718.009
 170  805.8826
 171  792.6574
 172  716.6598
 173  718.0505
 174  744.2117
 175  731.1718
 176  695.772
 177  832.4385
 178  793.9829
 179  786.9357
 180  737.9635
 181  636.0327
 182  682.3181
 183  655.2315
 184  684.6413
 185  772.5941
 186  797.0269
 187  746.8605
 188  775.1144
 189  750.9941
 190  695.9295
 191  745.4707
 192  867.2192
 193  853.0157
 194  865.3928
 195  842.4382
 196  737.1136
 197  765.2953
 198  699.4664
 199  775.6284
 200  795.8192
 201  839.1218
 202  880.3148
 203  890.4954
 204  891.064
 205  848.3369
 206  827.2376
 207  756.0841
 208  741.3586
 209  713.9532
 210  772.1154
 211  713.2993
 212  630.0005
 213  734.4171
 214  811.4095
 215  812.081
 216  733.108
 217  793.2242
 218  800.0293
 219  837.2157
 220  846.3704
 221  812.2249
 222  775.8759
 223  747.9262
 224  736.0193
 225  877.2976
 226  804.3234
 227  811.1006
 228  833.7823
 229  858.6615
 230  846.1516
 231  763.8134
 232  793.8334
 233  694.7862
 234  698.2752
 235  795.1871
 236  643.1774
 237  719.0893
 238  732.2751
 239  756.0322
 240  812.9854
 241  746.7266
 242  782.9568
 243  815.4875
 244  811.7783
 245  774.9289
 246  818.2953
 247  724.0406
 248  600.2433
 249  752.1874
 250  751.0558
 251  734.7803
 252  762.2672
 253  771.2279
 254  746.1248
 255  729.5356
 256  797.2929
 257  758.9698
 258  766.7534
 259  748.6683
 260  781.3116
 261  827.1052
 262  822.6807
 263  838.3861
 264  827.7897
 265  859.729
 266  851.4514
 267  855.6306
 268  792.7552
 269  789.0029
 270  775.9722
 271  861.2738
 272  852.1038
 273  743.4655
 274  775.2064
 275  796.2098
 276  776.5732
 277  801.0956
 278  865.0027
 279  823.4556
 280  746.2993
 281  742.2681
 282  830.351
 283  808.7552
 284  844.5449
 285  902.2776
 286  810.9117
 287  726.2643
 288  816.757
 289  850.8075
 290  818.6349
 291  878.9047
 292  934.2081
 293  758.9138
 294  654.9214
 295  669.4597
 296  740.6755
 297  833.3629
 298  774.3102
 299  819.9946
 300  716.9191
 301  780.7742
 302  713.0921
 303  750.7529
 304  724.8627
 305  596.125
 306  699.921
 307  733.8298
 308  728.184
 309  736.1103
 310  783.9919
 311  827.6873
 312  796.2787
 313  741.6216
 314  742.235
 315  775.671
 316  838.2408
 317  739.3446
 318  757.7294
 319  734.8856
 320  735.1376
 321  665.6574
 322  683.6199
 323  728.3672
 324  858.1031
 325  816.9738
 326  758.4397
 327  728.5295
 328  829.3103
 329  861.4609
 330  834.1363
 331  700.7619
 332  772.6644
 333  759.6428
 334  798.1445
 335  908.0771
 336  855.9716
 337  886.7073
 338  774.5082
 339  810.4794
 340  826.1074
 341  705.9812
 342  760.9872
 343  829.1279
 344  797.4978
 345  812.4899
 346  930.182
 347  923.508
 348  862.1428
 349  860.4657
 350  948.1699
 351  822.5338
 352  769.569
 353  828.2003
 354  919.927
 355  931.8398
 356  953.7769
 357  886.4969
 358  831.7863
 359  930.1141
 360  975.2996
 361  922.8161
 362  953.7458
 363  864.595
 364  847.4152
 365  809.3646
 366  773.7195
 367  844.6404
 368  871.1506
 369  869.4899
 370  760.1982
 371  712.5931
 372  748.261
 373  804.6461
 374  865.3569
 375  872.1063
 376  865.3603
 377  838.2247
 378  936.9271
 379  728.1124
 380  708.4337
 381  809.3646
 382  850.9091
 383  820.0794
 384  827.6509
 385  831.101
 386  769.5816
 387  770.5288
 388  813.7035
 389  767.7281
 390  772.481
 391  623.862
 392  741.3116
 393  755.5089
 394  818.3691
 395  869.7098
 396  820.5619
 397  785.2071
 398  805.6572
 399  864.3149
 400  816.5543
 401  821.6657
 402  832.6709
 403  780.9898
 404  750.179
 405  834.4048
 406  752.7675
 407  786.5685
 408  843.2867
 409  797.5453
 410  906.5568
 411  941.1271
 412  940.291
 413  903.1357
 414  885.4777
 415  828.037
 416  870.8264
 417  927.688
 418  807.1517
 419  758.7372
 420  806.4576
 421  895.2563
 422  858.1213
 423  822.2494
 424  818.1937
 425  802.5251
 426  846.9244
 427  767.0294
 428  814.5385
 429  832
 430  761.807
 431  746.5462
 432  787.9266
 433  836.1298
 434  737.4589
 435  750.6491
 436  773.1029
 437  833.8298
 438  790.4725
 439  800.7809
 440  728.482
 441  796.1008
 442  863.7366
 443  819.1354
 444  781.3689
 445  774.3202
 446  723.5775
 447  652.7151
 448  740.2526
 449  824.1572
 450  809.3118
 451  812.8217
 452  741.8603
 453  922.3245
 454  944.3849
 455  935.4132
 456  947.3528
 457  906.8633
 458  850.3262
 459  750.9118
 460  890.6362
 461  926.8808
 462  926.8461
 463  866.7656
 464  855.8298
 465  862.8645
 466  907.7903
 467  821.3484
 468  800.6381
 469  893.2234
 470  897.1083
 471  914.5912
 472  856.808
 473  781.4059
 474  793.4855
 475  791.5355
 476  804.6175
 477  711.5497
 478  817.358
 479  868.7429
 480  896.4522
 481  872.5947
 482  899.063
 483  846.3384
 484  780.1388
 485  802.5203
 486  704.8484
 487  848.4421
 488  816.9741
 489  920.3732
 490  921.2397
 491  981.645
 492  880.6009
 493  813.9896
 494  866.6248
 495  858.4376
 496  848.1091
 497  880.7363
 498  896.19
 499  830.1049
 500  803.4726
 501  731.5624
 502  838.3333
 503  866.4429
 504  901.2354
 505  950.5488
 506  823.1455
 507  890.2004
 508  895.3419
 509  844.9928
 510  868.5226
 511  970.4053
