# Input file       =  1196981508.116393_cleaned.dat
# Candidate        =  PSR_0332+5434
# Telescope        =  AR
# Epoch_topo       =  58097.952431902697
# Epoch_bary       =  N/A
# T_sample         =  0.002
# Data Folded      =  7340032
# Data Avg         =  0.0979359011040849
# Data StdDev      =  1.00059497885517 
# Profile Bins     =  512
# Profile Avg      =  1403.87652248624 
# Profile StdDev   =  119.804275001676 
# Reduced chi-sqr  =  0.779
# Prob(Noise)      <  1   (~0.0 sigma)
# P_topo (ms)      =  714.536198856361  +/- 0.000137
# P'_topo (s/s)    =  -0                +/- 7.23e-11
# P''_topo (s/s^2) =  0                 +/- 3.19e-14
# P_bary (ms)      =  N/A
# P'_bary (s/s)    =  N/A
# P''_bary (s/s^2) =  N/A
# P_orb (s)        =  N/A
# asin(i)/c (s)    =  N/A
# eccentricity     =  N/A
# w (rad)          =  N/A
# T_peri           =  N/A
######################################################
   0  1581.776
   1  1574.728
   2  1572.085
   3  1468.632
   4  1402.862
   5  1372.509
   6  1433.436
   7  1436.836
   8  1376.748
   9  1390.528
  10  1388.962
  11  1389.782
  12  1439.915
  13  1474.77
  14  1517.813
  15  1320.727
  16  1363.477
  17  1521.231
  18  1428.867
  19  1435.807
  20  1456.578
  21  1530.038
  22  1525.573
  23  1381.107
  24  1448.073
  25  1464.241
  26  1490.225
  27  1455.519
  28  1431.835
  29  1442.266
  30  1444.688
  31  1425.47
  32  1373.94
  33  1380.764
  34  1392.528
  35  1467.543
  36  1414.238
  37  1489.5
  38  1376.326
  39  1412.311
  40  1414.37
  41  1543.518
  42  1600.053
  43  1489.876
  44  1443.134
  45  1448.536
  46  1537.649
  47  1451.774
  48  1394.71
  49  1493.589
  50  1468.17
  51  1373.416
  52  1271.218
  53  1269.234
  54  1251.908
  55  1324.663
  56  1495.105
  57  1517.141
  58  1514.126
  59  1520.211
  60  1472.483
  61  1472.434
  62  1418.707
  63  1442.539
  64  1453.441
  65  1485.912
  66  1533.685
  67  1492.252
  68  1491.726
  69  1492.862
  70  1500.695
  71  1445.462
  72  1458.104
  73  1444.822
  74  1440.4
  75  1521.72
  76  1455.944
  77  1383.53
  78  1335.035
  79  1276.405
  80  1345.129
  81  1335.747
  82  1410.537
  83  1416.064
  84  1372.965
  85  1420.766
  86  1446.941
  87  1351.8
  88  1340.284
  89  1370.713
  90  1343.1
  91  1395.78
  92  1483.282
  93  1565.285
  94  1476.05
  95  1412.52
  96  1368.29
  97  1369.839
  98  1377.44
  99  1391.825
 100  1428.315
 101  1444.178
 102  1498.462
 103  1491.721
 104  1392.333
 105  1365.479
 106  1392.223
 107  1440.615
 108  1496.407
 109  1436.523
 110  1436.365
 111  1458.611
 112  1380.988
 113  1275.016
 114  1360.288
 115  1538.239
 116  1353.134
 117  1297.876
 118  1385.888
 119  1380.29
 120  1380.396
 121  1455.31
 122  1423.985
 123  1394.761
 124  1280.485
 125  1303.3
 126  1423.165
 127  1455.284
 128  1382.38
 129  1357.409
 130  1386.955
 131  1340.06
 132  1260.886
 133  1310.361
 134  1312.372
 135  1353.976
 136  1400.65
 137  1318.003
 138  1361.264
 139  1438.87
 140  1399.814
 141  1417.044
 142  1453.127
 143  1407.62
 144  1434.512
 145  1501.32
 146  1550.678
 147  1452.431
 148  1436.838
 149  1512.265
 150  1555.114
 151  1527.072
 152  1416.63
 153  1435.271
 154  1478.985
 155  1486.314
 156  1467.411
 157  1416.6
 158  1476.574
 159  1460.428
 160  1431.765
 161  1407.571
 162  1333.833
 163  1415.542
 164  1401.84
 165  1449.368
 166  1522.964
 167  1425.384
 168  1383.395
 169  1418.079
 170  1480.331
 171  1456.459
 172  1428.759
 173  1418.633
 174  1436.873
 175  1398.399
 176  1327.623
 177  1327.805
 178  1331.469
 179  1261.157
 180  1342.389
 181  1410.865
 182  1424.225
 183  1380.516
 184  1393.352
 185  1402.868
 186  1381.235
 187  1436.372
 188  1327.862
 189  1333.519
 190  1355.922
 191  1375.75
 192  1381.518
 193  1474.535
 194  1593.43
 195  1462.573
 196  1321.328
 197  1286.21
 198  1384.489
 199  1349.101
 200  1327.753
 201  1377.132
 202  1433.817
 203  1377.803
 204  1385.308
 205  1421.07
 206  1375.719
 207  1383.356
 208  1377.504
 209  1472.004
 210  1426.807
 211  1466.169
 212  1448.568
 213  1324.617
 214  1258.376
 215  1300.229
 216  1434.812
 217  1458.159
 218  1536.427
 219  1538.935
 220  1504.633
 221  1484.699
 222  1429.121
 223  1457.168
 224  1412.521
 225  1356.328
 226  1329.907
 227  1433.67
 228  1466.299
 229  1456.993
 230  1329.878
 231  1302.445
 232  1312.031
 233  1249.428
 234  1316.716
 235  1329.425
 236  1222.521
 237  1345.244
 238  1368.306
 239  1273.616
 240  1350.729
 241  1382.295
 242  1370.839
 243  1335.436
 244  1320.622
 245  1294.473
 246  1324.421
 247  1282.389
 248  1266.106
 249  1381.922
 250  1445.681
 251  1333.099
 252  1291.242
 253  1337.748
 254  1349.7
 255  1270.266
 256  1324.736
 257  1401.374
 258  1369.843
 259  1321.641
 260  1352.116
 261  1360.617
 262  1347.269
 263  1236.471
 264  1201.57
 265  1228.713
 266  1344.25
 267  1363.482
 268  1420.567
 269  1457.479
 270  1509.282
 271  1431.039
 272  1417.78
 273  1384.516
 274  1435.55
 275  1350.831
 276  1369.681
 277  1473.148
 278  1463.184
 279  1529.382
 280  1455.439
 281  1413.204
 282  1394.604
 283  1367.572
 284  1433.361
 285  1498.329
 286  1504.021
 287  1441.868
 288  1357.311
 289  1256.768
 290  1247.217
 291  1252.329
 292  1279.619
 293  1399.459
 294  1519.058
 295  1573.704
 296  1494.37
 297  1406.167
 298  1368.347
 299  1282.693
 300  1233.308
 301  1349.377
 302  1467.094
 303  1490.488
 304  1530.564
 305  1447.819
 306  1384.86
 307  1403.328
 308  1384.571
 309  1337.861
 310  1340.223
 311  1400.304
 312  1450.092
 313  1361.117
 314  1247.196
 315  1336.509
 316  1320.803
 317  1346.558
 318  1324.875
 319  1338.706
 320  1377.603
 321  1481.947
 322  1405.453
 323  1407.085
 324  1440.795
 325  1442.443
 326  1517.108
 327  1391.218
 328  1398.04
 329  1386.866
 330  1489.413
 331  1539.524
 332  1449.457
 333  1421.651
 334  1420.013
 335  1422.429
 336  1506.137
 337  1487.241
 338  1435.229
 339  1414.572
 340  1413.333
 341  1453.833
 342  1417.961
 343  1372.344
 344  1457.506
 345  1462.499
 346  1503.607
 347  1460.203
 348  1364.644
 349  1308.83
 350  1305.005
 351  1316.53
 352  1454.896
 353  1441.786
 354  1301.109
 355  1221.552
 356  1294.16
 357  1426.883
 358  1370.767
 359  1360.78
 360  1420.968
 361  1516.959
 362  1466.394
 363  1323.185
 364  1388.152
 365  1420.161
 366  1370.968
 367  1490.659
 368  1505.988
 369  1493.234
 370  1475.849
 371  1502.83
 372  1452.449
 373  1464.142
 374  1458.82
 375  1466.489
 376  1407.95
 377  1378.26
 378  1427.16
 379  1436.069
 380  1346.462
 381  1372.43
 382  1376.803
 383  1377.016
 384  1422.158
 385  1535.081
 386  1414.868
 387  1338.76
 388  1269.078
 389  1313.587
 390  1469.049
 391  1433.185
 392  1397.801
 393  1413.283
 394  1398.437
 395  1359.635
 396  1386.245
 397  1389.138
 398  1426.46
 399  1413.135
 400  1319.637
 401  1308.47
 402  1333.985
 403  1397.666
 404  1426.147
 405  1281.708
 406  1407.751
 407  1405.131
 408  1373.849
 409  1386.357
 410  1396.982
 411  1411.206
 412  1364.884
 413  1375.771
 414  1479.846
 415  1394.36
 416  1414.271
 417  1337.562
 418  1294.331
 419  1338.68
 420  1390.207
 421  1431.774
 422  1470.877
 423  1502.491
 424  1423.867
 425  1355.985
 426  1365.157
 427  1328.44
 428  1521.666
 429  1487.598
 430  1418.309
 431  1370.722
 432  1406.966
 433  1434.81
 434  1405.746
 435  1272.177
 436  1310.414
 437  1298.568
 438  1346.509
 439  1408.688
 440  1428.237
 441  1413.075
 442  1463.806
 443  1455.334
 444  1515.26
 445  1522.572
 446  1561.852
 447  1461.96
 448  1421.523
 449  1412.664
 450  1407.752
 451  1484.556
 452  1451.844
 453  1393.083
 454  1389.538
 455  1415.795
 456  1444.499
 457  1371.917
 458  1338.096
 459  1309.693
 460  1330.842
 461  1278.842
 462  1287.108
 463  1400.215
 464  1385.399
 465  1375.979
 466  1311.58
 467  1366.974
 468  1377.476
 469  1342.62
 470  1215.84
 471  1196.64
 472  1291.88
 473  1326.656
 474  1281.269
 475  1364.977
 476  1325.204
 477  1230.118
 478  1202.795
 479  1348.883
 480  1462.351
 481  1374.724
 482  1344.023
 483  1338.987
 484  1335.348
 485  1374.062
 486  1464.741
 487  1462.637
 488  1373.636
 489  1363.313
 490  1341.09
 491  1306.878
 492  1327.309
 493  1372.63
 494  1406.886
 495  1489.266
 496  1526.154
 497  1366.715
 498  1287.084
 499  1282.86
 500  1375.131
 501  1388.925
 502  1431.926
 503  1354.753
 504  1460.38
 505  1552.4
 506  1480.021
 507  1485.719
 508  1545.991
 509  1532.259
 510  1647.118
 511  1702.347
