# Input file       =  1196464943.112988_cleaned.dat
# Candidate        =  PSR_0332+5434
# Telescope        =  AR
# Epoch_topo       =  58091.973670289211
# Epoch_bary       =  N/A
# T_sample         =  0.002
# Data Folded      =  7340032
# Data Avg         =  0.0463781783387885
# Data StdDev      =  1.00064457361088 
# Profile Bins     =  512
# Profile Avg      =  664.888076984038 
# Profile StdDev   =  119.810213132365 
# Reduced chi-sqr  =  0.714
# Prob(Noise)      <  1   (~0.0 sigma)
# P_topo (ms)      =  714.530111211058  +/- 5.59e-05
# P'_topo (s/s)    =  -0                +/- 2.95e-11
# P''_topo (s/s^2) =  0                 +/- 1.3e-14
# P_bary (ms)      =  N/A
# P'_bary (s/s)    =  N/A
# P''_bary (s/s^2) =  N/A
# P_orb (s)        =  N/A
# asin(i)/c (s)    =  N/A
# eccentricity     =  N/A
# w (rad)          =  N/A
# T_peri           =  N/A
######################################################
   0  896.0622
   1  795.3267
   2  798.7911
   3  786.2825
   4  639.2806
   5  700.3262
   6  734.3915
   7  509.83
   8  598.9967
   9  618.5409
  10  556.1031
  11  609.6727
  12  730.2422
  13  704.2147
  14  629.9728
  15  737.8706
  16  709.4775
  17  669.4777
  18  636.3436
  19  693.4515
  20  709.7274
  21  637.0944
  22  636.2408
  23  552.9294
  24  552.6846
  25  542.7565
  26  616.196
  27  697.2149
  28  703.662
  29  673.2529
  30  659.6315
  31  665.4631
  32  690.1973
  33  665.2942
  34  666.1076
  35  621.4669
  36  639.6044
  37  723.9753
  38  613.1252
  39  607.877
  40  662.1649
  41  730.0895
  42  752.1112
  43  644.7535
  44  692.3782
  45  665.8295
  46  637.5798
  47  651.1148
  48  631.0448
  49  702.3953
  50  688.846
  51  707.5149
  52  609.6912
  53  572.835
  54  651.5015
  55  685.4883
  56  705.2029
  57  652.6583
  58  586.5959
  59  645.7468
  60  678.371
  61  705.0616
  62  637.8338
  63  672.4971
  64  631.3694
  65  709.861
  66  792.6455
  67  861.5051
  68  842.5452
  69  715.5626
  70  655.5913
  71  659.7022
  72  704.1252
  73  635.0614
  74  603.0626
  75  537.9508
  76  701.5191
  77  786.3445
  78  747.5436
  79  788.7186
  80  754.8297
  81  761.7968
  82  696.3635
  83  724.2033
  84  583.5652
  85  556.8539
  86  655.08
  87  600.9411
  88  624.7549
  89  684.5795
  90  782.3637
  91  788.7528
  92  613.5234
  93  623.9852
  94  653.4274
  95  726.2787
  96  676.7427
  97  580.4288
  98  648.5475
  99  652.12
 100  604.8988
 101  608.1653
 102  683.9725
 103  753.0895
 104  690.9517
 105  657.6839
 106  720.0304
 107  662.8065
 108  573.9284
 109  576.3527
 110  763.6238
 111  680.1326
 112  807.1357
 113  845.4216
 114  628.8883
 115  662.3068
 116  566.6613
 117  710.2139
 118  708.8681
 119  692.5073
 120  594.7859
 121  624.6812
 122  685.4014
 123  729.6075
 124  780.2255
 125  682.0549
 126  631.7343
 127  601.0898
 128  613.3145
 129  664.7036
 130  701.6438
 131  668.8491
 132  603.6157
 133  598.9658
 134  668.2037
 135  693.3387
 136  616.0112
 137  597.8693
 138  678.5713
 139  616.9221
 140  693.598
 141  824.2685
 142  741.0902
 143  808.1553
 144  722.2999
 145  801.1989
 146  838.4713
 147  694.7023
 148  643.4518
 149  730.9354
 150  724.3735
 151  712.6009
 152  710.7178
 153  794.9959
 154  669.02
 155  684.6902
 156  732.8151
 157  652.8217
 158  681.4016
 159  731.872
 160  701.0643
 161  609.0549
 162  619.7875
 163  728.5386
 164  661.5747
 165  553.9483
 166  575.6772
 167  640.0198
 168  558.9367
 169  583.2598
 170  608.6536
 171  572.0577
 172  547.5765
 173  600.0149
 174  694.5432
 175  656.4559
 176  813.5364
 177  727.2046
 178  643.2333
 179  630.7856
 180  612.5957
 181  683.3409
 182  646.7042
 183  686.5013
 184  755.6691
 185  815.4432
 186  730.182
 187  619.1788
 188  644.8442
 189  726.0915
 190  723.4407
 191  683.9028
 192  657.4941
 193  649.2997
 194  609.7676
 195  655.5684
 196  758.6946
 197  719.2057
 198  689.3212
 199  651.86
 200  644.804
 201  616.9431
 202  603.5123
 203  676.7162
 204  733.5554
 205  744.6603
 206  683.8428
 207  540.5638
 208  577.816
 209  527.4474
 210  582.0783
 211  619.3136
 212  641.7609
 213  670.5449
 214  597.4107
 215  610.5746
 216  710.1523
 217  649.9111
 218  649.8236
 219  663.2608
 220  773.3835
 221  715.9667
 222  630.4393
 223  665.668
 224  644.9297
 225  632.833
 226  723.8575
 227  743.8678
 228  677.2303
 229  656.9499
 230  680.8444
 231  645.0052
 232  713.5056
 233  837.4925
 234  715.2631
 235  593.0179
 236  617.6873
 237  663.3198
 238  677.6502
 239  574.5519
 240  684.3849
 241  630.3617
 242  709.7715
 243  751.0601
 244  671.9733
 245  623.2601
 246  696.3297
 247  622.0593
 248  567.9352
 249  666.7742
 250  655.4084
 251  640.9508
 252  690.8238
 253  807.171
 254  652.2635
 255  727.4833
 256  832.5947
 257  650.0302
 258  659.5965
 259  667.8453
 260  705.5283
 261  720.4389
 262  739.5964
 263  770.5519
 264  694.995
 265  632.7534
 266  542.4199
 267  616.5224
 268  679.1797
 269  678.9577
 270  700.6902
 271  738.1803
 272  624.2168
 273  454.5243
 274  631.798
 275  788.1104
 276  716.1516
 277  680.5967
 278  653.4448
 279  711.9565
 280  778.0709
 281  740.2168
 282  688.4703
 283  634.912
 284  692.8278
 285  673.7421
 286  655.1875
 287  646.9271
 288  688.8765
 289  675.8459
 290  605.8423
 291  652.3911
 292  637.0689
 293  586.4641
 294  608.9835
 295  756.5805
 296  690.4041
 297  577.5715
 298  598.3184
 299  693.273
 300  799.0164
 301  736.8894
 302  729.0399
 303  782.3599
 304  652.886
 305  523.71
 306  542.9799
 307  641.7714
 308  667.6301
 309  699.9637
 310  653.3197
 311  539.389
 312  610.5064
 313  666.6189
 314  663.1259
 315  656.1479
 316  665.0595
 317  729.7693
 318  757.7161
 319  735.8386
 320  634.0912
 321  501.4131
 322  600.3013
 323  682.2382
 324  697.9398
 325  708.5123
 326  678.6189
 327  620.415
 328  674.3325
 329  600.0179
 330  608.5804
 331  669.1337
 332  740.4415
 333  656.2451
 334  627.4237
 335  724.7378
 336  651.1841
 337  637.3741
 338  666.9738
 339  643.203
 340  625.2742
 341  672.2935
 342  667.3505
 343  634.4664
 344  594.2715
 345  654.2492
 346  618.0637
 347  461.9345
 348  541.1309
 349  677.6422
 350  641.57
 351  608.1625
 352  764.8927
 353  818.8856
 354  699.7419
 355  653.9446
 356  714.914
 357  769.9475
 358  726.973
 359  704.3345
 360  769.0734
 361  588.1037
 362  591.7344
 363  598.8235
 364  798.3856
 365  764.043
 366  710.6051
 367  754.1902
 368  646.1129
 369  451.982
 370  501.7989
 371  596.8015
 372  567.0347
 373  728.9382
 374  692.6541
 375  660.3956
 376  561.5569
 377  524.4056
 378  578.7488
 379  592.1169
 380  572.5751
 381  592.3999
 382  615.254
 383  691.9415
 384  747.6941
 385  688.1974
 386  735.9905
 387  613.7868
 388  540.3126
 389  572.5539
 390  595.3056
 391  658.5519
 392  670.4044
 393  618.8611
 394  603.6519
 395  630.4706
 396  671.9803
 397  549.6836
 398  544.3695
 399  626.5223
 400  669.5906
 401  552.7745
 402  611.4786
 403  681.6202
 404  643.4028
 405  596.9539
 406  603.6591
 407  602.5365
 408  553.9977
 409  592.5851
 410  629.6484
 411  647.6235
 412  701.5861
 413  781.9866
 414  708.2869
 415  608.9921
 416  453.4564
 417  540.342
 418  653.7416
 419  606.4862
 420  646.2323
 421  667.1467
 422  605.7077
 423  597.7044
 424  631.0968
 425  695.9823
 426  683.5763
 427  673.3138
 428  758.8591
 429  674.2904
 430  621.8384
 431  562.253
 432  638.5311
 433  582.3231
 434  638.3774
 435  703.8461
 436  640.1597
 437  597.2394
 438  671.6859
 439  648.9537
 440  642.6066
 441  667.531
 442  757.2639
 443  725.7567
 444  657.168
 445  630.4603
 446  634.9507
 447  631.3084
 448  641.5081
 449  667.5357
 450  541.847
 451  521.7134
 452  549.2659
 453  661.7234
 454  542.7032
 455  531.5804
 456  685.1333
 457  812.4819
 458  715.6144
 459  725.4832
 460  715.0107
 461  702.0856
 462  632.8602
 463  614.7783
 464  598.8688
 465  554.383
 466  635.4659
 467  654.4113
 468  700.2982
 469  655.0778
 470  639.0353
 471  611.4065
 472  570.5512
 473  520.5203
 474  569.7992
 475  618.9727
 476  592.1868
 477  515.7272
 478  645.979
 479  660.7882
 480  659.791
 481  702.1031
 482  721.249
 483  682.6748
 484  619.9443
 485  680.7352
 486  665.4086
 487  686.1346
 488  548.4102
 489  597.9537
 490  661.4169
 491  647.2208
 492  669.0483
 493  600.0078
 494  593.7292
 495  630.1054
 496  747.6525
 497  817.6635
 498  825.1411
 499  799.3147
 500  742.9581
 501  684.0659
 502  702.3034
 503  746.5311
 504  766.1165
 505  768.5377
 506  765.2595
 507  748.3471
 508  754.0842
 509  876.859
 510  955.7098
 511  932.2727
