# Input file       =  1196951893.114437_cleaned.dat
# Candidate        =  PSR_0332+5434
# Telescope        =  AR
# Epoch_topo       =  58097.609665676355
# Epoch_bary       =  N/A
# T_sample         =  0.002
# Data Folded      =  7208960
# Data Avg         =  0.0901575051831015
# Data StdDev      =  1.00031747597575 
# Profile Bins     =  512
# Profile Avg      =  1269.41257855499 
# Profile StdDev   =  118.696847231147 
# Reduced chi-sqr  =  0.722
# Prob(Noise)      <  1   (~0.0 sigma)
# P_topo (ms)      =  714.535505410615  +/- 0.000538
# P'_topo (s/s)    =  -0                +/- 2.89e-10
# P''_topo (s/s^2) =  0                 +/- 1.3e-13
# P_bary (ms)      =  N/A
# P'_bary (s/s)    =  N/A
# P''_bary (s/s^2) =  N/A
# P_orb (s)        =  N/A
# asin(i)/c (s)    =  N/A
# eccentricity     =  N/A
# w (rad)          =  N/A
# T_peri           =  N/A
######################################################
   0  1361.088
   1  1351.196
   2  1353.432
   3  1259.472
   4  1238.632
   5  1261.853
   6  1294.553
   7  1189.665
   8  1183.186
   9  1151.173
  10  1216.362
  11  1304.475
  12  1222.516
  13  1229.826
  14  1279.278
  15  1302.956
  16  1212.971
  17  1265.428
  18  1217.255
  19  1268.744
  20  1286.112
  21  1338.832
  22  1396.824
  23  1390.823
  24  1318.283
  25  1205.244
  26  1251.564
  27  1271.187
  28  1322.06
  29  1279.257
  30  1264.471
  31  1245.43
  32  1289.305
  33  1403.51
  34  1392.049
  35  1358.048
  36  1298.728
  37  1299.816
  38  1329.472
  39  1344.103
  40  1353.139
  41  1321.913
  42  1381.359
  43  1293.058
  44  1358.298
  45  1425.355
  46  1335.206
  47  1294.51
  48  1359.406
  49  1290.448
  50  1299.505
  51  1338.296
  52  1189.958
  53  1228.221
  54  1258.685
  55  1314.748
  56  1334.715
  57  1417.695
  58  1402.096
  59  1368.83
  60  1285.79
  61  1230.855
  62  1314.36
  63  1200.935
  64  1252.249
  65  1410.813
  66  1361.134
  67  1254.57
  68  1170.996
  69  1271.149
  70  1267.931
  71  1185.271
  72  1222.747
  73  1139.594
  74  1105.451
  75  1275.912
  76  1309.169
  77  1301.004
  78  1235.073
  79  1228.823
  80  1157.336
  81  1142.111
  82  1216.444
  83  1076.06
  84  1156.794
  85  1225.487
  86  1261.047
  87  1288.833
  88  1313.834
  89  1346.252
  90  1248.189
  91  1256.266
  92  1167.695
  93  1189.715
  94  1311.053
  95  1266.999
  96  1243.989
  97  1246.071
  98  1205.935
  99  1278.88
 100  1345.647
 101  1390.257
 102  1258.181
 103  1195.039
 104  1204.24
 105  1282.884
 106  1243.961
 107  1334.733
 108  1310.985
 109  1324.824
 110  1354.235
 111  1363.246
 112  1330.385
 113  1297.806
 114  1272.83
 115  1136.678
 116  1204.205
 117  1219.603
 118  1208.204
 119  1327.963
 120  1315.386
 121  1257.96
 122  1091.134
 123  1197.511
 124  1227.167
 125  1179.576
 126  1129.662
 127  1204.641
 128  1174.881
 129  1236.31
 130  1197.055
 131  1223.983
 132  1184.472
 133  1107.634
 134  1247.226
 135  1209.52
 136  1213.901
 137  1258.973
 138  1291.95
 139  1229.865
 140  1326.251
 141  1312.689
 142  1344.761
 143  1201.22
 144  1237.625
 145  1326.294
 146  1336.981
 147  1367.431
 148  1359.058
 149  1301.298
 150  1335.426
 151  1225.292
 152  1213.405
 153  1349.862
 154  1404.147
 155  1311.766
 156  1278.322
 157  1277.896
 158  1252.327
 159  1295.56
 160  1283.129
 161  1377.981
 162  1442.477
 163  1348.111
 164  1224.748
 165  1211.994
 166  1230.741
 167  1275.76
 168  1268.021
 169  1328.622
 170  1425.549
 171  1388.792
 172  1239.227
 173  1167
 174  1276.421
 175  1210.354
 176  1321.645
 177  1283.191
 178  1245.772
 179  1255.054
 180  1281.856
 181  1268.596
 182  1228.297
 183  1357.576
 184  1280.222
 185  1214.941
 186  1300.032
 187  1283.618
 188  1306.132
 189  1315.452
 190  1326.773
 191  1311.298
 192  1255.606
 193  1327.781
 194  1365.945
 195  1339.843
 196  1257.335
 197  1343.505
 198  1231.861
 199  1231.884
 200  1228.517
 201  1258.265
 202  1312.161
 203  1352.483
 204  1206.546
 205  1257.604
 206  1325.231
 207  1206.258
 208  1182.605
 209  1315.271
 210  1245.899
 211  1161.287
 212  1207.699
 213  1212.126
 214  1194.969
 215  1249.987
 216  1195.803
 217  1285.628
 218  1313.335
 219  1249.634
 220  1189.753
 221  1221.483
 222  1239.91
 223  1329.056
 224  1306.118
 225  1335.637
 226  1395.328
 227  1292.479
 228  1262.959
 229  1084.32
 230  1171.088
 231  1208.358
 232  1311.714
 233  1285.348
 234  1180.638
 235  1270.65
 236  1245.758
 237  1281.516
 238  1290.276
 239  1321.227
 240  1255.418
 241  1196.928
 242  1332.618
 243  1335.189
 244  1264.492
 245  1299.493
 246  1303.348
 247  1157.927
 248  1211.939
 249  1203.688
 250  1318.056
 251  1369.944
 252  1278.854
 253  1327.386
 254  1193.021
 255  1272.82
 256  1283.74
 257  1217.29
 258  1275.808
 259  1329.728
 260  1356.968
 261  1245.848
 262  1308.349
 263  1321.657
 264  1326.341
 265  1261.578
 266  1226.553
 267  1219.333
 268  1304.792
 269  1378.308
 270  1219.964
 271  1199.459
 272  1251.558
 273  1334.212
 274  1232.589
 275  1158.799
 276  1244.28
 277  1305.732
 278  1351.639
 279  1434.35
 280  1375.241
 281  1240.331
 282  1323.639
 283  1282.946
 284  1277.806
 285  1290.303
 286  1163.089
 287  1137.646
 288  1208.862
 289  1205.166
 290  1114.677
 291  1235.64
 292  1210.742
 293  1223.396
 294  1188.234
 295  1267.448
 296  1376.704
 297  1330.257
 298  1198.713
 299  1078.673
 300  1214.069
 301  1261
 302  1258.032
 303  1153.657
 304  1166.096
 305  1252.823
 306  1341.988
 307  1221.176
 308  1256.764
 309  1163.777
 310  1090.48
 311  1244.93
 312  1238.369
 313  1267.01
 314  1242.668
 315  1189.25
 316  1173.277
 317  1355.263
 318  1352.109
 319  1226.569
 320  1312.915
 321  1203.033
 322  1280.476
 323  1298.341
 324  1400.589
 325  1301.804
 326  1229.502
 327  1225.831
 328  1123.894
 329  1280.089
 330  1191.177
 331  1191.381
 332  1181.026
 333  1157.267
 334  1301.92
 335  1405.4
 336  1325.564
 337  1253.645
 338  1282.98
 339  1249.957
 340  1156.89
 341  1213.128
 342  1175.295
 343  1171.871
 344  1193.587
 345  1218.473
 346  1109.474
 347  1228.305
 348  1248.769
 349  1225.549
 350  1118.879
 351  1251.756
 352  1278.829
 353  1181.965
 354  1225.434
 355  1201.943
 356  1219.883
 357  1309.913
 358  1293.265
 359  1277.104
 360  1165.678
 361  1237.205
 362  1168.477
 363  1255.287
 364  1246.006
 365  1261.815
 366  1301.994
 367  1290.569
 368  1251.693
 369  1216.547
 370  1272.248
 371  1229.659
 372  1204.303
 373  1169.706
 374  1260.196
 375  1235.991
 376  1315.96
 377  1350.538
 378  1304.837
 379  1248.271
 380  1339.035
 381  1328.837
 382  1298.13
 383  1268.348
 384  1329.688
 385  1363.366
 386  1362.898
 387  1428.522
 388  1462.258
 389  1384.827
 390  1339.447
 391  1419.031
 392  1415.746
 393  1345.685
 394  1251.403
 395  1197.322
 396  1315.04
 397  1312.716
 398  1304.713
 399  1251.426
 400  1176.595
 401  1210.82
 402  1188.281
 403  1274.111
 404  1342.23
 405  1316.119
 406  1297.821
 407  1224.287
 408  1086.678
 409  1160.897
 410  1250.28
 411  1236.846
 412  1289.044
 413  1315.269
 414  1231.923
 415  1234.104
 416  1192.046
 417  1252.305
 418  1275.226
 419  1278.122
 420  1265.689
 421  1309.939
 422  1220.339
 423  1150.853
 424  1207.456
 425  1237.951
 426  1312.898
 427  1195.561
 428  1257.459
 429  1189.989
 430  1312.945
 431  1287.9
 432  1259.819
 433  1280.432
 434  1361.071
 435  1370.685
 436  1242.692
 437  1316.553
 438  1355.511
 439  1242.88
 440  1192.5
 441  1263.896
 442  1187.215
 443  1178.945
 444  1147.752
 445  1336.16
 446  1382.687
 447  1130.088
 448  1166.808
 449  1344.124
 450  1381.714
 451  1374.316
 452  1349.49
 453  1299.75
 454  1298.016
 455  1280.634
 456  1272.525
 457  1301.183
 458  1227.384
 459  1236.731
 460  1201.266
 461  1217.683
 462  1154.203
 463  1121.845
 464  1086.732
 465  1116.53
 466  1253.724
 467  1234.294
 468  1236.295
 469  1225.62
 470  1336.067
 471  1290.385
 472  1159.906
 473  1216.664
 474  1313.113
 475  1324.26
 476  1313.146
 477  1285.58
 478  1315.234
 479  1258.639
 480  1320.445
 481  1312.336
 482  1277.209
 483  1271.062
 484  1272.558
 485  1347.759
 486  1394.945
 487  1332.839
 488  1418.202
 489  1454.965
 490  1373.841
 491  1325.359
 492  1306.738
 493  1365.989
 494  1130.312
 495  1237.449
 496  1351.713
 497  1370.151
 498  1423.817
 499  1378.17
 500  1368.583
 501  1238.448
 502  1210.231
 503  1216.997
 504  1323.211
 505  1404.862
 506  1431.545
 507  1384.378
 508  1284.69
 509  1287.536
 510  1440.182
 511  1448.828
