# Input file       =  1196090719.110027_cleaned.dat
# Candidate        =  PSR_0332+5434
# Telescope        =  AR
# Epoch_topo       =  58087.642373958646
# Epoch_bary       =  N/A
# T_sample         =  0.002
# Data Folded      =  7208960
# Data Avg         =  0.05685087459551 
# Data StdDev      =  1.00023102909578 
# Profile Bins     =  512
# Profile Avg      =  800.43582694708  
# Profile StdDev   =  118.68658951562  
# Reduced chi-sqr  =  0.850
# Prob(Noise)      <  0.994   (~0.0 sigma)
# P_topo (ms)      =  714.52529474056   +/- 0.000293
# P'_topo (s/s)    =  -0                +/- 1.57e-10
# P''_topo (s/s^2) =  0                 +/- 7.07e-14
# P_bary (ms)      =  N/A
# P'_bary (s/s)    =  N/A
# P''_bary (s/s^2) =  N/A
# P_orb (s)        =  N/A
# asin(i)/c (s)    =  N/A
# eccentricity     =  N/A
# w (rad)          =  N/A
# T_peri           =  N/A
######################################################
   0  1061.059
   1  1048.031
   2  907.2007
   3  734.5858
   4  664.782
   5  746.7451
   6  724.7396
   7  627.9673
   8  649.9141
   9  662.1096
  10  643.0624
  11  567.4816
  12  668.9484
  13  643.9285
  14  654.0651
  15  727.3627
  16  764.3187
  17  675.8846
  18  603.569
  19  671.4145
  20  804.8671
  21  743.5585
  22  665.5648
  23  736.9872
  24  736.0963
  25  723.0975
  26  699.2586
  27  738.6432
  28  708.0411
  29  612.2856
  30  734.3771
  31  689.117
  32  645.8897
  33  626.4172
  34  742.9036
  35  818.8843
  36  709.7122
  37  801.3976
  38  841.8336
  39  774.2144
  40  699.9819
  41  748.9037
  42  773.4526
  43  728.1128
  44  658.8973
  45  756.0073
  46  809.4067
  47  869.3204
  48  790.1693
  49  787.8976
  50  795.7921
  51  880.5429
  52  952.8719
  53  904.409
  54  891.5913
  55  784.8553
  56  800.9478
  57  762.0476
  58  753.5103
  59  830.191
  60  848.1013
  61  921.2906
  62  887.4999
  63  892.5821
  64  809.9345
  65  922.3907
  66  912.8748
  67  935.1315
  68  841.4695
  69  740.6774
  70  751.4785
  71  823.0043
  72  871.6433
  73  821.1926
  74  654.1506
  75  712.2751
  76  804.1491
  77  749.288
  78  814.0725
  79  690.8117
  80  735.8004
  81  810.6163
  82  824.7141
  83  835.8676
  84  818.0508
  85  788.3305
  86  725.9982
  87  694.1138
  88  719.3754
  89  791.5184
  90  761.8902
  91  645.9508
  92  722.2086
  93  861.4295
  94  831.9565
  95  788.6956
  96  878.9481
  97  797.7894
  98  749.5409
  99  792.7416
 100  774.7428
 101  726.6423
 102  779.6489
 103  753.4412
 104  743.3958
 105  957.8819
 106  962.2864
 107  900.1691
 108  835.4665
 109  885.884
 110  982.6879
 111  898.2599
 112  932.9587
 113  874.7762
 114  801.5982
 115  809.7679
 116  812.2693
 117  895.6906
 118  910.248
 119  885.4657
 120  910.7745
 121  934.2796
 122  976.6273
 123  1011.783
 124  903.5204
 125  844.7496
 126  848.8578
 127  859.287
 128  841.8136
 129  753.8943
 130  691.8763
 131  717.3334
 132  830.3646
 133  821.6439
 134  771.7443
 135  744.4518
 136  802.63
 137  734.9012
 138  740.864
 139  808.9056
 140  856.1714
 141  758.1451
 142  734.8184
 143  826.1711
 144  734.4498
 145  734.3644
 146  860.6922
 147  797.3303
 148  815.881
 149  873.6886
 150  908.3729
 151  786.0661
 152  921.0667
 153  915.8138
 154  679.6921
 155  660.0546
 156  739.7969
 157  761.2224
 158  685.4651
 159  750.6724
 160  706.6282
 161  642.8979
 162  803.1201
 163  834.6066
 164  765.2438
 165  724.71
 166  813.4484
 167  677.2579
 168  728.4271
 169  749.6172
 170  817.4058
 171  752.8359
 172  696.1997
 173  757.8342
 174  714.364
 175  725.7913
 176  750.463
 177  865.1246
 178  730.8035
 179  798.2931
 180  677.5002
 181  636.8756
 182  695.8258
 183  625.2969
 184  773.8837
 185  772.8978
 186  769.6407
 187  757.3047
 188  768.1388
 189  732.6554
 190  684.397
 191  848.1949
 192  859.3772
 193  853.6443
 194  861.5328
 195  775.4052
 196  757.2697
 197  724.3061
 198  731.3717
 199  797.2658
 200  812.6589
 201  859.5797
 202  896.191
 203  891.5358
 204  874.0121
 205  838.7002
 206  778.2038
 207  764.3965
 208  708.6843
 209  751.9694
 210  744.7383
 211  669.0747
 212  653.992
 213  789.707
 214  835.61
 215  754.477
 216  774.2887
 217  762.4952
 218  849.6957
 219  841.6306
 220  849.6632
 221  752.7051
 222  778.3091
 223  719.6426
 224  830.303
 225  848.6659
 226  775.1981
 227  870.3617
 228  793.5433
 229  902.4748
 230  765.0294
 231  807.7677
 232  743.1235
 233  650.4396
 234  807.0226
 235  682.7886
 236  691.5156
 237  722.1333
 238  749.5284
 239  796.1555
 240  753.9459
 241  774.7884
 242  784.4562
 243  854.5439
 244  743.2604
 245  835.9872
 246  773.4915
 247  634.2798
 248  677.6816
 249  763.6111
 250  754.07
 251  722.4899
 252  784.0767
 253  746.2857
 254  740.9255
 255  757.1993
 256  782.6572
 257  769.9476
 258  756.0415
 259  782.8925
 260  771.563
 261  856.6861
 262  806.9867
 263  856.243
 264  826.5507
 265  861.1859
 266  873.8964
 267  797.6686
 268  807.3271
 269  745.379
 270  859.2577
 271  835.0439
 272  809.6508
 273  734.2874
 274  815.7083
 275  778.1416
 276  770.828
 277  853.0674
 278  850.967
 279  784.3011
 280  715.0215
 281  803.7499
 282  847.055
 283  785.8218
 284  912.7484
 285  841.6628
 286  780.5004
 287  733.1385
 288  869.6871
 289  812.7393
 290  847.4368
 291  932.9496
 292  836.013
 293  701.2236
 294  635.45
 295  712.3526
 296  797.2132
 297  816.7911
 298  801.4874
 299  750.4707
 300  741.3385
 301  772.0487
 302  705.5912
 303  755.1698
 304  642.5409
 305  642.3586
 306  746.7296
 307  706.3672
 308  727.2635
 309  772.4158
 310  815.0539
 311  813.2372
 312  759.7292
 313  753.5424
 314  738.2766
 315  824.9278
 316  788.7007
 317  735.6276
 318  757.3757
 319  712.116
 320  727.8526
 321  650.7654
 322  712.741
 323  785.6666
 324  873.429
 325  784.0006
 326  707.2429
 327  794.9243
 328  832.6571
 329  902.0919
 330  713.9216
 331  761.0909
 332  752.1556
 333  786.4858
 334  847.2008
 335  890.566
 336  887.742
 337  817.7025
 338  780.0131
 339  838.1386
 340  765.3444
 341  707.7895
 342  803.0174
 343  828.2386
 344  784.001
 345  894.6959
 346  911.1031
 347  915.1188
 348  844.4616
 349  920.9118
 350  888.4728
 351  756.6238
 352  814.932
 353  863.8339
 354  935.8898
 355  932.0281
 356  961.106
 357  818.6845
 358  876.1699
 359  973.2941
 360  951.0493
 361  954.1516
 362  886.1403
 363  869.4058
 364  812.5134
 365  799.9637
 366  780.9996
 367  888.8265
 368  869.6076
 369  812.1863
 370  723.5395
 371  727.4913
 372  789.6971
 373  842.347
 374  858.4119
 375  892.7368
 376  811.4536
 377  921.4523
 378  823.7381
 379  692.9523
 380  762.103
 381  853.8574
 382  828.7789
 383  841.1021
 384  823.7675
 385  802.2015
 386  741.4691
 387  811.382
 388  775.364
 389  793.8441
 390  667.098
 391  699.525
 392  735.064
 393  790.4746
 394  842.728
 395  876.1063
 396  774.3525
 397  795.7936
 398  831.131
 399  859.2711
 400  808.9542
 401  821.3697
 402  844.88
 403  704.4656
 404  845.7593
 405  762.4284
 406  770.1683
 407  829.6193
 408  798.5782
 409  854.8384
 410  934.97
 411  965.7866
 412  897.9593
 413  914.5504
 414  841.7862
 415  842.84
 416  913.1166
 417  875.9019
 418  774.3007
 419  757.7456
 420  874.338
 421  861.1017
 422  861.6924
 423  795.8435
 424  812.535
 425  826.3035
 426  816.6019
 427  776.9923
 428  831.8485
 429  809.0613
 430  742.4994
 431  764.9315
 432  815.7775
 433  794.9988
 434  724.6503
 435  765.0811
 436  800.1833
 437  812.0022
 438  818.1096
 439  742.3566
 440  761.8571
 441  834.9098
 442  865.7321
 443  773.786
 444  774.7826
 445  768.2232
 446  661.8485
 447  710.9444
 448  778.0276
 449  840.1382
 450  801.3052
 451  765.6575
 452  810.3906
 453  978.6763
 454  933.7225
 455  934.3718
 456  937.1858
 457  873.2205
 458  793.7808
 459  794.1998
 460  945.6763
 461  926.7858
 462  889.3513
 463  869.6613
 464  827.3252
 465  942.2289
 466  835.9718
 467  793.7004
 468  852.67
 469  906.6119
 470  918.2921
 471  864.1532
 472  836.7736
 473  759.4502
 474  824.7753
 475  756.2701
 476  779.6937
 477  739.1769
 478  868.9387
 479  879.4336
 480  880.5069
 481  912.612
 482  868.6692
 483  793.5859
 484  788.9938
 485  746.6213
 486  770.1414
 487  839.7489
 488  871.752
 489  925.244
 490  978.0975
 491  911.3519
 492  838.9646
 493  834.8203
 494  880.1255
 495  854.1646
 496  859.103
 497  899.1539
 498  837.7193
 499  837.9424
 500  739.574
 501  808.0127
 502  840.6931
 503  895.9084
 504  929.8993
 505  886.7684
 506  845.6312
 507  900.142
 508  892.5938
 509  818.6389
 510  922.3995
 511  1031.291
