# Input file       =  1196521562.110791_cleaned.dat
# Candidate        =  PSR_0332+5434
# Telescope        =  AR
# Epoch_topo       =  58092.628982763781
# Epoch_bary       =  N/A
# T_sample         =  0.002
# Data Folded      =  7208960
# Data Avg         =  0.0628958333400131
# Data StdDev      =  1.00002591253278 
# Profile Bins     =  512
# Profile Avg      =  885.553182147148 
# Profile StdDev   =  118.662250553313 
# Reduced chi-sqr  =  0.926
# Prob(Noise)      <  0.885   (~0.0 sigma)
# P_topo (ms)      =  714.530419744131  +/- 0.000149
# P'_topo (s/s)    =  -0                +/- 7.99e-11
# P''_topo (s/s^2) =  0                 +/- 3.59e-14
# P_bary (ms)      =  N/A
# P'_bary (s/s)    =  N/A
# P''_bary (s/s^2) =  N/A
# P_orb (s)        =  N/A
# asin(i)/c (s)    =  N/A
# eccentricity     =  N/A
# w (rad)          =  N/A
# T_peri           =  N/A
######################################################
   0  1107.047
   1  1147.087
   2  1089.77
   3  1033.814
   4  1017.79
   5  841.5413
   6  842.6989
   7  824.5859
   8  806.8574
   9  884.533
  10  882.0512
  11  906.9318
  12  903.2576
  13  901.8844
  14  869.2219
  15  890.0037
  16  940.9217
  17  971.5302
  18  900.1365
  19  761.8573
  20  784.4116
  21  829.8746
  22  825.7484
  23  876.4225
  24  899.6984
  25  964.3239
  26  911.2216
  27  996.2218
  28  1002.005
  29  1036.104
  30  940.701
  31  843.5026
  32  733.294
  33  820.0618
  34  878.5802
  35  831.5527
  36  950.9872
  37  982.5499
  38  905.1129
  39  1014.968
  40  901.0748
  41  756.4823
  42  833.8361
  43  871.4485
  44  970.5835
  45  891.8447
  46  811.817
  47  911.3106
  48  891.2302
  49  888.0856
  50  780.613
  51  829.939
  52  954.5079
  53  1029.126
  54  986.7465
  55  893.928
  56  871.4243
  57  906.2135
  58  876.0013
  59  936.3644
  60  899.1432
  61  935.7443
  62  912.6689
  63  839.6066
  64  909.6519
  65  766.6829
  66  775.5374
  67  723.9086
  68  860.5397
  69  944.1674
  70  967.0245
  71  978.8356
  72  1034.7
  73  949.6137
  74  906.0255
  75  799.0204
  76  860.5492
  77  889.2621
  78  1076.601
  79  1043.079
  80  844.9617
  81  823.3759
  82  796.0584
  83  766.4218
  84  793.8077
  85  948.6201
  86  1005.153
  87  922.9039
  88  850.7757
  89  799.4951
  90  729.8061
  91  796.2004
  92  888.629
  93  819.9893
  94  845.9713
  95  877.8787
  96  1020.103
  97  883.8706
  98  765.1158
  99  778.4937
 100  820.6918
 101  814.4294
 102  914.3074
 103  948.6494
 104  718.5165
 105  789.7159
 106  864.55
 107  842.531
 108  856.8707
 109  815.018
 110  857.7856
 111  947.9537
 112  1056.793
 113  984.4227
 114  870.9081
 115  868.7119
 116  1011.871
 117  945.4771
 118  861.7776
 119  892.2571
 120  944.547
 121  972.361
 122  905.4552
 123  877.3571
 124  880.4457
 125  983.307
 126  1032.877
 127  933.4326
 128  990.9061
 129  974.4492
 130  853.9418
 131  888.2894
 132  876.6119
 133  770.8599
 134  704.1191
 135  753.034
 136  867.358
 137  941.5703
 138  868.5015
 139  758.5009
 140  789.6876
 141  818.4881
 142  786.7261
 143  781.1516
 144  883.2537
 145  1018.779
 146  1030.257
 147  862.6423
 148  885.4719
 149  809.2732
 150  838.4188
 151  917.6482
 152  859.9685
 153  835.763
 154  927.9076
 155  960.4072
 156  978.459
 157  913.0577
 158  967.0567
 159  1037.191
 160  928.786
 161  861.168
 162  857.7226
 163  907.0568
 164  954.345
 165  925.4307
 166  957.2066
 167  831.5431
 168  932.3642
 169  924.7462
 170  913.9165
 171  840.9525
 172  747.3481
 173  796.4733
 174  926.7297
 175  900.7508
 176  824.9543
 177  970.2593
 178  996.8673
 179  984.7728
 180  1022.688
 181  916.1448
 182  819.1871
 183  990.3073
 184  1040.381
 185  1002.159
 186  1007.519
 187  1046.884
 188  959.0988
 189  897.0369
 190  1013.671
 191  966.8021
 192  947.0443
 193  1013.29
 194  910.1328
 195  844.0298
 196  936.5335
 197  995.973
 198  894.9178
 199  724.4069
 200  822.3706
 201  838.6443
 202  749.9567
 203  708.7831
 204  758.1686
 205  822.225
 206  805.8764
 207  716.991
 208  656.7433
 209  773.4617
 210  753.1581
 211  999.22
 212  834.4322
 213  813.7109
 214  777.9333
 215  887.4139
 216  780.0249
 217  794.545
 218  824.1293
 219  914.8987
 220  971.1262
 221  888.5356
 222  869.2444
 223  863.5242
 224  776.1572
 225  786.5666
 226  924.0003
 227  887.295
 228  925.7498
 229  1001.758
 230  934.8805
 231  825.8386
 232  800.5452
 233  738.3664
 234  763.644
 235  856.6296
 236  823.724
 237  892.5184
 238  942.0914
 239  885.4383
 240  962.2643
 241  929.1278
 242  931.1518
 243  835.6465
 244  791.9584
 245  745.457
 246  782.5513
 247  802.9128
 248  786.5621
 249  875.8938
 250  935.7148
 251  994.2357
 252  950.2717
 253  848.9976
 254  908.1888
 255  874.9815
 256  941.3086
 257  996.051
 258  964.1077
 259  993.6155
 260  1027.18
 261  956.9398
 262  933.7736
 263  821.0126
 264  881.5214
 265  868.6139
 266  908.1096
 267  877.4916
 268  913.1355
 269  921.9849
 270  835.104
 271  887.0223
 272  759.0753
 273  858.9109
 274  716.1544
 275  772.4592
 276  793.9505
 277  842.5881
 278  945.1467
 279  781.5604
 280  797.2474
 281  764.165
 282  794.9071
 283  915.9075
 284  946.7856
 285  936.66
 286  967.3323
 287  937.998
 288  770.6004
 289  705.434
 290  771.0543
 291  793.3546
 292  766.2322
 293  822.9321
 294  885.6744
 295  802.8448
 296  900.2655
 297  813.5241
 298  727.2859
 299  805.6606
 300  813.1509
 301  799.8896
 302  850.9559
 303  995.6007
 304  835.5462
 305  838.1188
 306  843.2656
 307  893.5787
 308  979.8173
 309  855.6332
 310  842.0917
 311  857.8345
 312  936.1498
 313  854.2266
 314  855.5592
 315  893.8025
 316  932.481
 317  1023.894
 318  1061.455
 319  1000.445
 320  936.9041
 321  875.7556
 322  837.7759
 323  919.0417
 324  818.3177
 325  766.6198
 326  852.3052
 327  846.1741
 328  837.3099
 329  771.2137
 330  804.2357
 331  823.3142
 332  826.1121
 333  803.4598
 334  766.3675
 335  777.5491
 336  767.8696
 337  861.6146
 338  817.6831
 339  758.3536
 340  787.0953
 341  901.9072
 342  941.4395
 343  829.4068
 344  849.4794
 345  862.4135
 346  876.8514
 347  811.6129
 348  836.8777
 349  759.6517
 350  833.7365
 351  881.4443
 352  843.37
 353  914.9071
 354  890.0273
 355  854.8085
 356  841.0284
 357  903.7959
 358  846.1754
 359  826.7468
 360  850.5657
 361  862.9774
 362  835.2134
 363  830.7361
 364  869.7048
 365  976.2512
 366  940.5688
 367  796.5883
 368  871.2546
 369  748.1496
 370  837.0335
 371  956.1659
 372  998.6088
 373  984.4922
 374  904.3522
 375  893.8472
 376  778.0171
 377  765.8125
 378  812.0676
 379  817.1526
 380  831.3693
 381  900.094
 382  922.7533
 383  944.4623
 384  922.096
 385  914.6592
 386  953.3367
 387  869.087
 388  868.1454
 389  891.038
 390  819.9802
 391  919.6974
 392  1082.251
 393  1080.817
 394  985.3998
 395  921.1912
 396  903.9915
 397  1058.137
 398  989.0294
 399  812.2631
 400  852.2403
 401  759.4263
 402  778.4608
 403  812.6606
 404  907.3658
 405  899.6799
 406  834.0851
 407  896.8425
 408  969.0024
 409  927.2234
 410  844.435
 411  897.436
 412  760.6404
 413  841.778
 414  943.9655
 415  1011.861
 416  1086.827
 417  960.0335
 418  907.6695
 419  919.8135
 420  906.2391
 421  882.5738
 422  842.5467
 423  970.8199
 424  1006.477
 425  836.128
 426  930.2821
 427  938.7182
 428  838.8168
 429  881.8791
 430  840.593
 431  869.4625
 432  935.2877
 433  932.6102
 434  766.4336
 435  862.3016
 436  895.9772
 437  846.403
 438  805.5677
 439  825.6004
 440  860.5322
 441  922.4935
 442  993.501
 443  1000.932
 444  926.6252
 445  917.1238
 446  864.5759
 447  893.094
 448  981.2397
 449  910.6971
 450  872.3476
 451  903.5987
 452  879.2438
 453  802.0871
 454  883.6373
 455  957.7915
 456  1012.39
 457  1093.098
 458  962.401
 459  901.9014
 460  925.0135
 461  920.5671
 462  945.1099
 463  980.3385
 464  957.6334
 465  814.0472
 466  901.618
 467  928.3214
 468  798.8656
 469  862.4058
 470  796.0762
 471  887.2405
 472  954.1474
 473  930.4254
 474  864.3318
 475  803.8961
 476  897.0193
 477  930.9117
 478  938.4904
 479  1058.48
 480  871.1237
 481  828.2578
 482  788.1633
 483  848.1846
 484  828.464
 485  850.9075
 486  853.7645
 487  939.7604
 488  943.0766
 489  957.3654
 490  879.8533
 491  917.6336
 492  812.6974
 493  839.1914
 494  939.9709
 495  986.7718
 496  789.0866
 497  791.114
 498  907.1997
 499  826.2983
 500  894.2704
 501  852.9196
 502  806.0659
 503  882.1265
 504  873.9161
 505  949.093
 506  1054.127
 507  989.9872
 508  996.4708
 509  1150.981
 510  1144.444
 511  1069.195
