# Input file       =  1196708008.118209_cleaned.dat
# Candidate        =  PSR_0332+5434
# Telescope        =  AR
# Epoch_topo       =  58094.786922664454
# Epoch_bary       =  N/A
# T_sample         =  0.002
# Data Folded      =  7340032
# Data Avg         =  0.0523864044060718
# Data StdDev      =  1.00041736669069 
# Profile Bins     =  512
# Profile Avg      =  750.761117567683 
# Profile StdDev   =  119.783008957924 
# Reduced chi-sqr  =  0.782
# Prob(Noise)      <  1   (~0.0 sigma)
# P_topo (ms)      =  714.532642213479  +/- 0.000215
# P'_topo (s/s)    =  -0                +/- 1.14e-10
# P''_topo (s/s^2) =  0                 +/- 5.01e-14
# P_bary (ms)      =  N/A
# P'_bary (s/s)    =  N/A
# P''_bary (s/s^2) =  N/A
# P_orb (s)        =  N/A
# asin(i)/c (s)    =  N/A
# eccentricity     =  N/A
# w (rad)          =  N/A
# T_peri           =  N/A
######################################################
   0  1092.725
   1  1079.765
   2  1036.205
   3  872.2888
   4  719.2458
   5  745.0656
   6  680.2441
   7  683.0563
   8  657.9929
   9  645.7182
  10  735.8971
  11  736.4874
  12  763.9919
  13  716.793
  14  725.1006
  15  814.6996
  16  741.7624
  17  690.5143
  18  705.887
  19  720.2144
  20  747.4753
  21  767.7606
  22  850.3427
  23  813.3495
  24  775.5483
  25  758.8385
  26  824.7736
  27  855.7423
  28  817.4712
  29  812.3986
  30  701.4244
  31  749.3058
  32  672.3713
  33  803.5327
  34  761.5022
  35  786.6973
  36  847.4897
  37  818.559
  38  645.1816
  39  705.5526
  40  673.6174
  41  625.3367
  42  603.1287
  43  637.6528
  44  734.6531
  45  687.8769
  46  528.1654
  47  689.7952
  48  758.5416
  49  778.7878
  50  797.4023
  51  726.5381
  52  752.4255
  53  809.3721
  54  733.2407
  55  633.7868
  56  661.0384
  57  715.654
  58  710.8317
  59  696.1815
  60  685.8916
  61  646.2296
  62  633.6785
  63  679.2328
  64  736.7502
  65  836.6429
  66  863.3666
  67  757.2726
  68  692.4913
  69  684.3322
  70  700.1065
  71  796.9188
  72  761.2034
  73  774.816
  74  696.873
  75  800.0571
  76  791.1896
  77  752.6397
  78  742.6957
  79  796.3493
  80  773.5067
  81  713.6634
  82  655.877
  83  609.1853
  84  594.5244
  85  659.9658
  86  787.2861
  87  814.6752
  88  773.0681
  89  700.1912
  90  697.9254
  91  705.3774
  92  685.6302
  93  792.2337
  94  808.6582
  95  771.6924
  96  798.0289
  97  845.1635
  98  746.889
  99  684.7363
 100  765.9778
 101  826.3847
 102  845.8193
 103  845.9502
 104  704.0567
 105  561.289
 106  601.889
 107  706.6721
 108  750.1542
 109  726.6934
 110  668.5552
 111  620.163
 112  614.137
 113  710.2075
 114  810.9523
 115  900.8781
 116  966.5643
 117  666.1434
 118  652.6379
 119  781.2007
 120  707.5231
 121  673.3847
 122  688.8685
 123  760.6955
 124  753.7728
 125  674.2067
 126  756.1948
 127  742.8303
 128  775.119
 129  743.2651
 130  795.905
 131  865.0511
 132  813.738
 133  804.1909
 134  760.4849
 135  699.1039
 136  767.2351
 137  749.2439
 138  775.2523
 139  687.4373
 140  710.8898
 141  802.2127
 142  815.9028
 143  786.8467
 144  793.2798
 145  743.2682
 146  745.1924
 147  643.0646
 148  652.1119
 149  720.9421
 150  783.269
 151  864.3553
 152  809.0009
 153  787.0672
 154  866.7003
 155  751.8448
 156  686.7399
 157  728.3236
 158  761.3599
 159  769.3696
 160  723.1696
 161  764.0964
 162  747.1729
 163  779.3407
 164  697.0099
 165  769.592
 166  623.2162
 167  650.6219
 168  767.0446
 169  775.9564
 170  661.6939
 171  580.8564
 172  501.0616
 173  594.3139
 174  749.2411
 175  758.5047
 176  727.5638
 177  739.9742
 178  598.8814
 179  636.3818
 180  666.441
 181  698.1346
 182  810.7729
 183  774.2759
 184  730.9319
 185  775.1849
 186  782.4921
 187  671.3444
 188  615.9892
 189  755.8813
 190  790.8358
 191  760.2274
 192  797.1927
 193  746.5107
 194  659.9169
 195  723.5399
 196  767.3352
 197  778.3167
 198  757.1278
 199  804.0752
 200  761.2996
 201  735.0961
 202  636.5963
 203  574.6953
 204  654.8597
 205  631.4598
 206  650.9106
 207  740.6175
 208  783.2996
 209  696.2772
 210  653.9097
 211  721.2944
 212  784.2088
 213  769.3968
 214  854.4919
 215  865.6392
 216  719.1329
 217  709.7139
 218  906.538
 219  832.7404
 220  741.512
 221  749.8325
 222  884.8562
 223  804.1555
 224  723.7562
 225  767.7183
 226  802.1305
 227  757.5197
 228  848.0166
 229  903.6838
 230  739.7728
 231  655.0167
 232  749.8771
 233  736.0242
 234  783.1617
 235  820.1364
 236  700.5486
 237  688.5266
 238  717.2734
 239  761.1453
 240  798.5343
 241  776.9866
 242  786.8635
 243  846.6376
 244  833.3372
 245  862.645
 246  746.3067
 247  790.356
 248  735.691
 249  696.5084
 250  853.4794
 251  817.7789
 252  825.7798
 253  834.8883
 254  721.4587
 255  714.4885
 256  751.2898
 257  672.2891
 258  754.3168
 259  804.7606
 260  744.092
 261  611.8216
 262  736.3588
 263  834.5679
 264  740.2138
 265  798.4014
 266  785.921
 267  692.3978
 268  730.4702
 269  802.6346
 270  750.9954
 271  786.538
 272  826.3253
 273  759.992
 274  706.7367
 275  822.6926
 276  827.5898
 277  793.501
 278  707.2669
 279  665.9529
 280  786.1258
 281  753.7206
 282  772.5375
 283  807.944
 284  779.5399
 285  902.3421
 286  856.4844
 287  723.6224
 288  652.8469
 289  684.5242
 290  713.0345
 291  699.2262
 292  593.5842
 293  712.0872
 294  814.3964
 295  730.2856
 296  725.3641
 297  732.9965
 298  699.2921
 299  630.175
 300  728.573
 301  847.0571
 302  729.8201
 303  722.2383
 304  757.3192
 305  761.3104
 306  775.0185
 307  684.2955
 308  721.8811
 309  705.9883
 310  648.5209
 311  646.7115
 312  792.8537
 313  841.6498
 314  786.7498
 315  877.3998
 316  908.9135
 317  762.4326
 318  821.4526
 319  873.6701
 320  816.5817
 321  687.1931
 322  711.3096
 323  772.5023
 324  772.2686
 325  830.3112
 326  910.4945
 327  888.5115
 328  838.1494
 329  835.624
 330  915.4602
 331  747.6457
 332  665.9783
 333  704.7598
 334  723.8337
 335  743.5493
 336  744.6979
 337  779.7188
 338  717.1448
 339  673.9824
 340  720.7139
 341  788.9448
 342  832.7587
 343  706.7348
 344  617.0657
 345  598.7214
 346  744.4086
 347  715.8613
 348  750.5458
 349  715.711
 350  668.6344
 351  700.3483
 352  765.8877
 353  742.1213
 354  667.4575
 355  675.6285
 356  851.9128
 357  633.0067
 358  685.2886
 359  755.4259
 360  752.1229
 361  723.6094
 362  825.6479
 363  741.0374
 364  787.4949
 365  865.9012
 366  902.9215
 367  771.7394
 368  863.5017
 369  926.6131
 370  857.874
 371  731.8452
 372  794.0223
 373  800.7324
 374  665.0196
 375  644.656
 376  731.091
 377  717.7112
 378  782.7078
 379  742.5862
 380  802.7891
 381  762.2404
 382  768.9986
 383  855.2297
 384  781.3287
 385  695.1141
 386  806.9987
 387  864.7208
 388  818.3748
 389  748.447
 390  737.4031
 391  750.5321
 392  750.2549
 393  729.2856
 394  744.552
 395  748.608
 396  696.9176
 397  790.942
 398  875.7841
 399  785.1469
 400  687.0756
 401  770.6787
 402  757.7402
 403  681.4829
 404  770.2736
 405  821.775
 406  728.418
 407  718.8162
 408  694.2275
 409  676.7777
 410  666.3668
 411  691.0914
 412  725.2253
 413  794.3478
 414  880.0862
 415  799.3543
 416  736.0503
 417  660.6559
 418  723.8317
 419  768.3627
 420  770.0889
 421  843.6372
 422  845.129
 423  807.7269
 424  804.5602
 425  855.4921
 426  756.1935
 427  805.4386
 428  813.8594
 429  747.6556
 430  782.3907
 431  747.7209
 432  689.1523
 433  694.121
 434  737.7026
 435  760.6247
 436  836.1683
 437  828.3181
 438  826.5424
 439  814.1759
 440  839.4954
 441  720.9289
 442  715.7941
 443  662.9857
 444  732.9208
 445  731.3268
 446  750.4947
 447  841.319
 448  849.744
 449  840.0821
 450  798.4204
 451  762.9255
 452  735.4814
 453  730.4589
 454  679.8498
 455  798.5301
 456  850.6227
 457  857.6639
 458  780.043
 459  828.6148
 460  768.9242
 461  712.8417
 462  798.857
 463  865.4114
 464  795.7797
 465  712.5854
 466  723.5532
 467  794.5764
 468  713.0721
 469  759.5287
 470  704.1866
 471  620.7232
 472  677.1058
 473  607.7295
 474  598.5373
 475  674.3632
 476  692.4691
 477  591.1687
 478  581.6193
 479  646.1898
 480  710.1229
 481  603.7339
 482  722.7847
 483  673.6177
 484  752.9997
 485  643.6273
 486  645.5847
 487  711.6569
 488  732.8219
 489  657.2431
 490  686.1015
 491  734.0104
 492  708.1161
 493  787.4709
 494  822.1788
 495  796.3294
 496  699.6414
 497  635.6524
 498  754.3196
 499  788.0457
 500  746.1825
 501  729.8011
 502  820.4447
 503  805.8398
 504  832.6499
 505  730.7225
 506  787.8507
 507  874.0392
 508  856.7538
 509  850.6585
 510  933.8558
 511  1065.679
