# Input file       =  1196865738.117129_cleaned.dat
# Candidate        =  PSR_0332+5434
# Telescope        =  AR
# Epoch_topo       =  58096.612501355659
# Epoch_bary       =  N/A
# T_sample         =  0.002
# Data Folded      =  7143424
# Data Avg         =  0.0498928123322494
# Data StdDev      =  1.00024947073633 
# Profile Bins     =  512
# Profile Avg      =  696.144186541031 
# Profile StdDev   =  118.148051612112 
# Reduced chi-sqr  =  0.873
# Prob(Noise)      <  0.982   (~0.0 sigma)
# P_topo (ms)      =  714.534492283058  +/- 0.000105
# P'_topo (s/s)    =  -0                +/- 5.67e-11
# P''_topo (s/s^2) =  0                 +/- 2.57e-14
# P_bary (ms)      =  N/A
# P'_bary (s/s)    =  N/A
# P''_bary (s/s^2) =  N/A
# P_orb (s)        =  N/A
# asin(i)/c (s)    =  N/A
# eccentricity     =  N/A
# w (rad)          =  N/A
# T_peri           =  N/A
######################################################
   0  945.4685
   1  1008.823
   2  967.4481
   3  779.4337
   4  618.2984
   5  600.2852
   6  678.5309
   7  684.7138
   8  647.9704
   9  636.1967
  10  648.1425
  11  720.5404
  12  789.8723
  13  721.5585
  14  757.9224
  15  739.9669
  16  675.4907
  17  628.8131
  18  633.5862
  19  627.3423
  20  603.97
  21  617.9869
  22  700.4414
  23  691.6108
  24  746.8111
  25  653.9058
  26  679.4628
  27  708.7396
  28  626.3601
  29  635.9741
  30  691.7802
  31  734.0228
  32  642.6285
  33  635.751
  34  750.2491
  35  796.5488
  36  702.5393
  37  683.9285
  38  830.3409
  39  755.53
  40  724.733
  41  687.0333
  42  707.446
  43  732.5391
  44  684.0847
  45  663.7021
  46  735.8026
  47  682.9584
  48  764.5761
  49  711.4492
  50  651.1979
  51  612.9567
  52  669.5368
  53  749.2384
  54  769.16
  55  558.2382
  56  569.5391
  57  656.8547
  58  630.4901
  59  540.061
  60  613.0901
  61  601.8156
  62  637.8463
  63  737.3276
  64  821.65
  65  829.2528
  66  717.0975
  67  569.5947
  68  602.0287
  69  679.254
  70  657.9908
  71  769.1212
  72  786.3335
  73  680.3027
  74  644.889
  75  671.6511
  76  709.2253
  77  577.4685
  78  663.6226
  79  778.6906
  80  757.3387
  81  710.6203
  82  613.0834
  83  732.4891
  84  854.2558
  85  745.4767
  86  753.6846
  87  787.5884
  88  724.7194
  89  625.2645
  90  619.7189
  91  736.5001
  92  707.1707
  93  546.8497
  94  545.0637
  95  679.011
  96  692.3421
  97  619.8041
  98  658.627
  99  735.0469
 100  626.3933
 101  591.5075
 102  736.904
 103  674.1658
 104  568.0149
 105  560.8641
 106  685.137
 107  702.9804
 108  674.6105
 109  623.8069
 110  665.8004
 111  697.3237
 112  676.1254
 113  817.0919
 114  807.8994
 115  741.8125
 116  638.9896
 117  649.9809
 118  749.5647
 119  699.8339
 120  726.5522
 121  657.5634
 122  653.2163
 123  744.586
 124  754.6265
 125  695.9311
 126  634.2209
 127  601.0687
 128  564.3539
 129  652.1843
 130  666.9999
 131  734.0146
 132  696.5701
 133  749.4768
 134  654.9338
 135  631.0154
 136  708.4487
 137  627.1426
 138  740.4679
 139  755.1137
 140  659.5284
 141  632.3765
 142  672.6912
 143  678.145
 144  781.694
 145  800.0859
 146  652.6123
 147  686.7739
 148  700.0194
 149  766.671
 150  710.3181
 151  629.4104
 152  668.7305
 153  567.4191
 154  606.9951
 155  687.8003
 156  765.3937
 157  652.2483
 158  722.5383
 159  740.262
 160  654.9673
 161  756.4825
 162  765.8345
 163  718.7137
 164  588.7272
 165  641.0804
 166  649.4302
 167  622.0649
 168  624.0671
 169  693.0138
 170  747.6948
 171  828.4696
 172  734.8833
 173  639.669
 174  704.9999
 175  608.8446
 176  684.7621
 177  761.8477
 178  978.9734
 179  938.9342
 180  818.913
 181  709.5171
 182  578.0324
 183  640.9222
 184  592.2242
 185  633.6592
 186  683.1594
 187  728.772
 188  793.2495
 189  645.8434
 190  696.1202
 191  658.394
 192  714.2992
 193  756.3638
 194  882.18
 195  843.4716
 196  678.0139
 197  702.4943
 198  684.7437
 199  655.3737
 200  591.724
 201  581.2482
 202  608.6889
 203  676.9446
 204  691.9749
 205  713.4662
 206  755.6197
 207  702.3653
 208  594.6584
 209  536.6236
 210  677.4677
 211  750.9228
 212  810.3434
 213  689.0359
 214  642.204
 215  728.7027
 216  727.7233
 217  726.1269
 218  689.8666
 219  757.199
 220  733.3473
 221  788.7933
 222  786.4641
 223  755.1749
 224  759.0399
 225  652.5539
 226  602.9493
 227  584.2914
 228  715.9467
 229  750.3242
 230  729.4523
 231  698.5794
 232  611.3898
 233  491.2439
 234  681.2751
 235  707.2398
 236  644.6528
 237  812.9977
 238  947.5561
 239  799.0132
 240  709.6719
 241  628.0455
 242  707.8594
 243  612.2153
 244  693.8171
 245  744.4221
 246  749.2985
 247  582.0919
 248  606.8018
 249  649.4964
 250  771.5499
 251  674.4716
 252  739.2737
 253  763.0378
 254  779.4103
 255  817.7087
 256  721.9518
 257  837.7321
 258  747.7795
 259  661.6447
 260  647.876
 261  683.7382
 262  685.0681
 263  595.226
 264  580.8151
 265  674.1036
 266  593.6791
 267  642.6052
 268  641.066
 269  692.2323
 270  705.3761
 271  777.745
 272  711.6713
 273  648.3288
 274  661.9627
 275  667.0772
 276  539.9666
 277  573.8925
 278  682.2383
 279  688.8531
 280  620.8688
 281  620.0139
 282  682.1741
 283  745.9774
 284  733.1739
 285  661.3428
 286  708.9811
 287  724.2943
 288  691.8304
 289  687.6827
 290  681.4312
 291  656.3661
 292  631.0483
 293  636.6075
 294  689.0608
 295  770.4013
 296  700.8668
 297  589.7194
 298  622.6182
 299  767.4333
 300  734.3228
 301  752.6049
 302  796.3521
 303  808.6216
 304  726.4479
 305  614.3633
 306  567.3237
 307  638.82
 308  537.732
 309  594.0605
 310  606.9086
 311  676.6553
 312  734.4853
 313  714.4838
 314  776.8331
 315  702.2752
 316  611.2659
 317  641.6939
 318  690.6445
 319  865.1866
 320  815.2401
 321  760.6118
 322  736.7163
 323  654.452
 324  618.324
 325  691.9828
 326  557.8228
 327  482.6215
 328  605.8757
 329  702.0016
 330  682.7877
 331  743.1545
 332  790.5673
 333  763.8954
 334  757.6456
 335  701.4092
 336  742.5449
 337  649.9427
 338  767.4247
 339  795.2896
 340  672.2556
 341  687.7803
 342  611.6929
 343  680.8046
 344  731.1997
 345  637.5363
 346  616.1528
 347  631.8113
 348  587.4207
 349  690.3423
 350  717.0262
 351  841.8615
 352  790.3204
 353  812.2108
 354  687.3541
 355  612.2858
 356  614.2912
 357  752.4509
 358  708.7578
 359  653.5602
 360  712.3694
 361  680.7161
 362  769.9037
 363  709.0687
 364  758.8136
 365  598.945
 366  660.6768
 367  768.5099
 368  769.1808
 369  872.6981
 370  809.2571
 371  645.1774
 372  573.2117
 373  665.966
 374  615.1353
 375  706.165
 376  785.4758
 377  657.814
 378  615.7313
 379  637.2852
 380  744.3037
 381  723.913
 382  644.3721
 383  780.8511
 384  733.0454
 385  852.4683
 386  817.2037
 387  776.8797
 388  659.7548
 389  622.5204
 390  632.687
 391  612.3796
 392  642.101
 393  633.115
 394  727.4977
 395  657.6486
 396  772.7845
 397  589.6967
 398  542.0891
 399  671.8574
 400  739.5369
 401  780.5834
 402  667.4908
 403  853.4131
 404  731.4609
 405  712.789
 406  666.8438
 407  637.8088
 408  686.7649
 409  624.2332
 410  771.8393
 411  825.9095
 412  779.0159
 413  750.8429
 414  768.2914
 415  822.1017
 416  797.3885
 417  681.5414
 418  625.3254
 419  768.695
 420  760.3989
 421  664.1087
 422  521.7028
 423  626.8389
 424  590.4922
 425  658.3789
 426  738.5334
 427  749.419
 428  761.3749
 429  663.8185
 430  628.4877
 431  740.9356
 432  762.1466
 433  791.0214
 434  715.5867
 435  670.6931
 436  615.8698
 437  749.647
 438  590.4772
 439  628.7912
 440  705.4147
 441  528.5247
 442  510.0338
 443  728.5907
 444  661.3106
 445  588.6642
 446  652.9304
 447  669.3839
 448  713.9795
 449  665.1113
 450  779.0278
 451  783.506
 452  685.4871
 453  613.9318
 454  591.5412
 455  597.5219
 456  688.1656
 457  692.9484
 458  621.0008
 459  804.0068
 460  731.278
 461  707.6961
 462  635.488
 463  515.7886
 464  611.9557
 465  695.3727
 466  738.0077
 467  764.8162
 468  757.116
 469  703.1929
 470  655.4484
 471  633.8021
 472  604.7486
 473  679.4371
 474  639.9333
 475  744.1544
 476  825.1185
 477  827.6803
 478  651.2113
 479  642.1249
 480  763.7443
 481  717.657
 482  675.9688
 483  610.5939
 484  681.2225
 485  619.5436
 486  657.4325
 487  707.8942
 488  802.5967
 489  823.4955
 490  686.9183
 491  765.0414
 492  665.819
 493  702.4059
 494  711.0852
 495  791.5811
 496  842.6337
 497  855.0416
 498  742.6542
 499  711.3424
 500  650.1089
 501  687.1785
 502  706.7995
 503  719.8163
 504  659.0141
 505  739.0696
 506  714.5687
 507  747.8876
 508  761.366
 509  970.884
 510  988.1843
 511  1011.858
