# Input file       =  1196607167.098366_cleaned.dat
# Candidate        =  PSR_0332+5434
# Telescope        =  AR
# Epoch_topo       =  58093.619781231086
# Epoch_bary       =  N/A
# T_sample         =  0.002
# Data Folded      =  7208960
# Data Avg         =  0.0518669891337073
# Data StdDev      =  1.00059081430944 
# Profile Bins     =  512
# Profile Avg      =  730.294579905309 
# Profile StdDev   =  118.729281332536 
# Reduced chi-sqr  =  1.017
# Prob(Noise)      <  0.384   (~0.3 sigma)
# P_topo (ms)      =  714.531440462662  +/- 2.52e-05
# P'_topo (s/s)    =  -0                +/- 1.35e-11
# P''_topo (s/s^2) =  0                 +/- 6.09e-15
# P_bary (ms)      =  N/A
# P'_bary (s/s)    =  N/A
# P''_bary (s/s^2) =  N/A
# P_orb (s)        =  N/A
# asin(i)/c (s)    =  N/A
# eccentricity     =  N/A
# w (rad)          =  N/A
# T_peri           =  N/A
######################################################
   0  946.16
   1  984.7197
   2  944.6364
   3  840.7117
   4  853.0619
   5  914.8841
   6  876.822
   7  864.6149
   8  900.2328
   9  848.4868
  10  722.4757
  11  811.0756
  12  867.1708
  13  728.9489
  14  671.6179
  15  794.1741
  16  819.314
  17  716.7775
  18  794.2505
  19  886.5234
  20  816.9736
  21  803.2841
  22  894.8784
  23  830.6057
  24  775.1744
  25  907.6992
  26  790.4125
  27  793.4656
  28  656.2731
  29  847.0167
  30  982.1474
  31  802.3839
  32  864.7709
  33  783.1939
  34  811.6853
  35  702.2405
  36  717.8709
  37  797.2632
  38  778.0105
  39  782.0921
  40  870.1532
  41  685.4066
  42  592.85
  43  505.3039
  44  682.4615
  45  665.2755
  46  681.228
  47  761.6237
  48  663.7543
  49  705.2742
  50  767.2577
  51  786.4441
  52  761.9119
  53  734.912
  54  801.3264
  55  834.4842
  56  714.7175
  57  729.094
  58  768.3889
  59  702.1627
  60  686.3348
  61  715.7031
  62  784.1766
  63  710.9425
  64  810.2451
  65  838.2017
  66  762.5591
  67  627.3684
  68  706.6684
  69  863.0218
  70  881.4733
  71  747.218
  72  721.9471
  73  806.0244
  74  811.207
  75  808.5153
  76  825.9563
  77  864.624
  78  883.8864
  79  763.4028
  80  790.2949
  81  797.6193
  82  804.4538
  83  739.3085
  84  721.7231
  85  664.6489
  86  677.4503
  87  800.1024
  88  619.1613
  89  596.4482
  90  777.694
  91  846.9654
  92  820.2228
  93  690.2463
  94  862.7251
  95  833.6844
  96  731.2098
  97  811.6676
  98  838.2758
  99  729.6025
 100  647.9837
 101  590.9775
 102  639.004
 103  564.8474
 104  651.6047
 105  827.5978
 106  868.9662
 107  767.1132
 108  741.5316
 109  723.2134
 110  610.6381
 111  689.52
 112  710.6347
 113  741.9088
 114  735.4337
 115  789.7949
 116  817.2144
 117  759.2968
 118  612.4988
 119  708.8169
 120  781.4221
 121  736.2877
 122  702.5989
 123  775.7897
 124  784.7963
 125  722.4342
 126  639.5839
 127  722.9998
 128  820.8193
 129  619.2941
 130  719.5522
 131  717.3913
 132  634.3595
 133  678.4894
 134  697.55
 135  648.2651
 136  752.9493
 137  858.5857
 138  774.3091
 139  628.8954
 140  695.7422
 141  675.9064
 142  611.3869
 143  736.2642
 144  800.0621
 145  770.1857
 146  721.4772
 147  729.8726
 148  745.3657
 149  712.2933
 150  634.592
 151  663.4763
 152  675.0659
 153  722.3113
 154  729.3587
 155  774.3032
 156  741.9817
 157  711.9297
 158  837.8847
 159  884.3634
 160  758.9916
 161  753.5311
 162  740.1131
 163  768.9398
 164  748.7939
 165  630.0875
 166  650.0736
 167  722.0455
 168  648.1794
 169  715.7565
 170  751.0511
 171  701.516
 172  660.3754
 173  683.7291
 174  643.8037
 175  594.9623
 176  729.6696
 177  797.7743
 178  673.0215
 179  597.5641
 180  644.6146
 181  733.1603
 182  738.4245
 183  776.3044
 184  794.292
 185  747.7159
 186  755.3245
 187  742.6219
 188  669.0082
 189  620.3993
 190  665.2218
 191  677.9344
 192  687.4071
 193  561.0329
 194  778.231
 195  855.674
 196  729.3807
 197  807.3559
 198  833.8662
 199  817.0148
 200  594.35
 201  706.5072
 202  678.4863
 203  636.6801
 204  717.8079
 205  798.5391
 206  630.7643
 207  588.063
 208  726.5612
 209  757.2867
 210  697.3397
 211  663.4167
 212  702.3868
 213  677.116
 214  648.9371
 215  619.1508
 216  686.6069
 217  720.7585
 218  648.601
 219  624.6658
 220  670.5267
 221  592.5198
 222  648.4593
 223  736.0878
 224  732.5648
 225  653.7336
 226  721.6024
 227  659.2326
 228  548.7905
 229  611.9753
 230  711.9559
 231  764.4848
 232  700.5886
 233  618.8166
 234  678.6625
 235  642.3962
 236  510.5914
 237  701.8584
 238  835.4473
 239  756.7994
 240  661.9455
 241  735.2869
 242  615.4974
 243  566.7145
 244  770.0165
 245  790.1917
 246  712.9969
 247  627.916
 248  699.4918
 249  662.101
 250  665.6803
 251  735.0076
 252  637.7008
 253  536.35
 254  587.6916
 255  830.5978
 256  715.0669
 257  604.5109
 258  610.1165
 259  652.1793
 260  524.7482
 261  523.5183
 262  667.9282
 263  784.207
 264  726.0421
 265  753.6839
 266  850.9973
 267  753.7844
 268  660.7679
 269  739.8281
 270  810.4619
 271  703.9258
 272  630.4578
 273  699.3317
 274  722.309
 275  638.0787
 276  765.7101
 277  785.1064
 278  700.5726
 279  656.0725
 280  834.8936
 281  787.6332
 282  656.2888
 283  648.9507
 284  770.6887
 285  813.1526
 286  764.5894
 287  847.2383
 288  723.4055
 289  703.8251
 290  803.9706
 291  814.9855
 292  705.2186
 293  672.7329
 294  731.2451
 295  863.8904
 296  743.0568
 297  682.9051
 298  783.0043
 299  741.5131
 300  755.1923
 301  806.5993
 302  861.5312
 303  765.1478
 304  676.6858
 305  718.074
 306  728.5986
 307  579.6481
 308  586.4089
 309  712.0195
 310  668.6599
 311  606.1119
 312  755.3331
 313  757.3607
 314  572.7928
 315  593.3031
 316  695.9343
 317  707.1529
 318  664.0722
 319  594.5299
 320  703.3378
 321  692.8206
 322  700.8198
 323  680.9464
 324  545.787
 325  604.2759
 326  641.4045
 327  560.352
 328  654.0319
 329  656.7314
 330  770.4119
 331  666.4428
 332  533.8054
 333  604.6981
 334  646.8953
 335  688.7336
 336  728.593
 337  723.6271
 338  825.1199
 339  692.221
 340  560.4089
 341  655.1378
 342  687.9651
 343  682.0134
 344  868.6473
 345  769.674
 346  640.0315
 347  588.8937
 348  707.2764
 349  814.3741
 350  754.5926
 351  721.2125
 352  833.6871
 353  809.3927
 354  676.3438
 355  727.58
 356  775.0549
 357  611.8348
 358  588.9984
 359  611.9844
 360  764.2734
 361  654.9291
 362  687.7755
 363  784.7042
 364  607.6702
 365  656.8482
 366  745.2499
 367  808.6969
 368  787.7813
 369  745.4442
 370  786.9218
 371  678.4673
 372  673.7417
 373  656.4945
 374  616.3597
 375  585.9272
 376  668.9547
 377  778.2137
 378  763.7297
 379  787.9216
 380  786.955
 381  842.2521
 382  747.3012
 383  696.179
 384  723.3085
 385  689.6195
 386  721.7402
 387  719.9811
 388  747.9493
 389  601.4941
 390  650.5232
 391  730.1728
 392  797.1399
 393  786.3956
 394  743.5213
 395  740.7695
 396  711.9985
 397  610.9246
 398  728.0558
 399  811.5154
 400  729.951
 401  780.9249
 402  850.1116
 403  750.9606
 404  711.1951
 405  768.9807
 406  719.803
 407  733.8937
 408  720.1531
 409  824.1147
 410  788.0613
 411  747.0743
 412  806.7714
 413  808.3755
 414  734.834
 415  728.5753
 416  836.8856
 417  808.2165
 418  697.5178
 419  799.0695
 420  821.1442
 421  782.2396
 422  730.5344
 423  744.0805
 424  764.0067
 425  733.6193
 426  742.7596
 427  848.5956
 428  840.8813
 429  747.8983
 430  819.9565
 431  822.1771
 432  718.9302
 433  826.1678
 434  897.082
 435  754.5441
 436  795.5809
 437  881.4732
 438  863.3222
 439  795.641
 440  672.0976
 441  695.0465
 442  662.4974
 443  662.3557
 444  630.4059
 445  717.6082
 446  720.6643
 447  677.577
 448  741.7059
 449  777.5381
 450  730.9243
 451  730.3557
 452  662.1147
 453  640.9985
 454  618.1322
 455  784.1226
 456  915.7761
 457  825.7862
 458  787.6786
 459  866.4879
 460  855.0869
 461  669.6435
 462  753.7435
 463  924.1124
 464  853.4445
 465  724.468
 466  779.9818
 467  837.9951
 468  721.145
 469  716.3502
 470  618.4139
 471  614.699
 472  588.3845
 473  632.4822
 474  745.1823
 475  828.1974
 476  802.9556
 477  729.4202
 478  686.1966
 479  711.2838
 480  748.6262
 481  786.197
 482  735.1542
 483  811.9403
 484  794.4072
 485  762.1618
 486  693.5808
 487  767.4814
 488  762.9274
 489  748.8347
 490  589.0399
 491  598.7491
 492  695.1037
 493  684.1425
 494  664.7285
 495  686.5911
 496  634.4306
 497  579.5272
 498  667.0206
 499  706.9269
 500  584.0054
 501  578.3643
 502  739.2388
 503  704.998
 504  652.3375
 505  740.5399
 506  814.3115
 507  786.7095
 508  856.5619
 509  1001.701
 510  1125.307
 511  1047.031
