# Input file       =  1196292583.114135_cleaned.dat
# Candidate        =  PSR_0332+5434
# Telescope        =  AR
# Epoch_topo       =  58089.978762895080
# Epoch_bary       =  N/A
# T_sample         =  0.002
# Data Folded      =  7340032
# Data Avg         =  0.069517044659121
# Data StdDev      =  1.00022554269698 
# Profile Bins     =  512
# Profile Avg      =  996.593411611434 
# Profile StdDev   =  119.760041288709 
# Reduced chi-sqr  =  0.704
# Prob(Noise)      <  1   (~0.0 sigma)
# P_topo (ms)      =  714.528062999421  +/- 0.00047
# P'_topo (s/s)    =  -0                +/- 2.48e-10
# P''_topo (s/s^2) =  0                 +/- 1.1e-13
# P_bary (ms)      =  N/A
# P'_bary (s/s)    =  N/A
# P''_bary (s/s^2) =  N/A
# P_orb (s)        =  N/A
# asin(i)/c (s)    =  N/A
# eccentricity     =  N/A
# w (rad)          =  N/A
# T_peri           =  N/A
######################################################
   0  1271.451
   1  1218.833
   2  1098.108
   3  1017.078
   4  1015.718
   5  988.0009
   6  973.8867
   7  920.8548
   8  906.4316
   9  831.3601
  10  899.6514
  11  930.4373
  12  999.9969
  13  1067.014
  14  1067.03
  15  1138.593
  16  1049.227
  17  971.2385
  18  1005.308
  19  975.78
  20  1019.905
  21  992.4318
  22  1079.613
  23  1054.199
  24  965.5831
  25  901.6264
  26  922.4868
  27  1015.816
  28  925.3907
  29  904.2175
  30  972.9825
  31  908.3139
  32  958.9028
  33  971.0867
  34  1033.227
  35  979.1973
  36  1059.664
  37  1039.903
  38  1085.871
  39  1052.668
  40  971.2672
  41  959.9609
  42  979.0121
  43  1075.454
  44  1115.72
  45  1027.485
  46  894.6608
  47  903.3276
  48  896.5939
  49  968.2507
  50  919.9537
  51  1001.429
  52  1008.74
  53  1021.161
  54  945.3141
  55  958.1705
  56  965.6055
  57  1029.898
  58  1011.284
  59  929.5987
  60  931.7349
  61  993.9056
  62  1020.42
  63  1023.238
  64  942.3777
  65  944.3558
  66  1026.481
  67  1098.433
  68  1028.871
  69  1001.755
  70  995.7323
  71  905.2194
  72  943.7264
  73  953.4682
  74  990.4645
  75  970.9088
  76  1132.201
  77  1093.509
  78  1089.621
  79  1103.603
  80  1024.645
  81  1101.864
  82  1067.068
  83  1055.498
  84  1054.279
  85  1070.733
  86  1140.834
  87  1071.84
  88  1136.083
  89  1006.07
  90  1058.621
  91  1101.953
  92  1068.8
  93  1041.599
  94  1079.92
  95  1161.906
  96  1052.07
  97  1018.069
  98  1034.526
  99  1036.569
 100  995.166
 101  975.8599
 102  911.9427
 103  855.922
 104  999.7465
 105  987.6522
 106  861.088
 107  815.6032
 108  913.3954
 109  993.9951
 110  909.6821
 111  908.0759
 112  1028.672
 113  972.4495
 114  968.433
 115  1045.486
 116  1024.057
 117  958.9717
 118  983.7874
 119  1041.872
 120  1009.285
 121  1012.848
 122  1020.976
 123  981.6425
 124  918.3085
 125  958.4954
 126  948.8857
 127  1026.173
 128  964.8353
 129  1021.574
 130  1027.934
 131  923.2706
 132  870.4075
 133  954.8465
 134  906.2841
 135  932.0683
 136  991.1771
 137  975.5377
 138  1045.761
 139  1002.049
 140  1068.836
 141  1222.906
 142  1184.089
 143  1099.057
 144  1034.143
 145  1091
 146  1080.182
 147  1083.667
 148  1053.727
 149  998.2202
 150  977.7325
 151  1054.679
 152  1088.308
 153  1100.464
 154  1115.195
 155  1033.128
 156  1019.07
 157  995.3785
 158  986.8632
 159  1003.652
 160  1008.949
 161  958.9935
 162  1075.684
 163  1011.283
 164  925.1926
 165  901.0779
 166  975.5785
 167  908.0663
 168  879.5885
 169  966.6718
 170  977.4087
 171  933.3746
 172  899.8539
 173  849.1152
 174  973.9761
 175  978.7928
 176  951.0522
 177  993.2612
 178  1097.171
 179  1142.711
 180  1103.602
 181  1036.774
 182  935.1548
 183  871.131
 184  861.8076
 185  897.3108
 186  985.8759
 187  1060.796
 188  1020.507
 189  952.4694
 190  922.0906
 191  840.5332
 192  859.2857
 193  868.2726
 194  872.558
 195  966.8752
 196  1001.413
 197  951.6476
 198  964.131
 199  1038.8
 200  1002.013
 201  1011.002
 202  1023.187
 203  985.4305
 204  947.8176
 205  1043.498
 206  949.6102
 207  927.685
 208  873.8049
 209  864.6514
 210  922.017
 211  918.0651
 212  977.942
 213  934.9921
 214  924.9171
 215  987.0576
 216  1039.903
 217  1024.05
 218  984.229
 219  985.3567
 220  973.6684
 221  945.5737
 222  824.4894
 223  990.9172
 224  1063.807
 225  1018.051
 226  939.8949
 227  1007.053
 228  1005.279
 229  1052.88
 230  1027.173
 231  1084.884
 232  982.3029
 233  950.4915
 234  1029.226
 235  1016.39
 236  944.4684
 237  914.0462
 238  1096.348
 239  1084.581
 240  1035.897
 241  969.8197
 242  1012.319
 243  1045.689
 244  1072.796
 245  1037.382
 246  959.9271
 247  916.113
 248  1103.16
 249  1092.401
 250  981.3085
 251  1040.487
 252  1081.432
 253  982.7358
 254  937.0527
 255  966.5205
 256  1027.285
 257  1008.357
 258  1075.584
 259  1031.069
 260  1034.697
 261  1025.879
 262  953.3663
 263  922.8215
 264  1011.378
 265  1055.251
 266  977.9729
 267  931.0778
 268  925.5937
 269  1026.693
 270  1096.933
 271  1001.907
 272  956.4221
 273  925.7534
 274  857.535
 275  862.9887
 276  950.8395
 277  927.3693
 278  1026.174
 279  1031.49
 280  923.7548
 281  990.8896
 282  944.6014
 283  1009.315
 284  1055.332
 285  978.6152
 286  866.0503
 287  1001.948
 288  1082.716
 289  1093.069
 290  1083.228
 291  1099.396
 292  1113.869
 293  1094.039
 294  1107.864
 295  1126.998
 296  969.3337
 297  950.5029
 298  970.1171
 299  979.9437
 300  976.0587
 301  944.0972
 302  964.9456
 303  1106.091
 304  1047.754
 305  1025.967
 306  1026.484
 307  1024.701
 308  1050.381
 309  1046.684
 310  962.0386
 311  1005.195
 312  1036.11
 313  1057.538
 314  932.0048
 315  821.8535
 316  864.7178
 317  971.7606
 318  986.4063
 319  1036.347
 320  1041.941
 321  1090.534
 322  1048.392
 323  952.4774
 324  989.4057
 325  921.908
 326  924.4786
 327  998.0377
 328  1041.357
 329  985.9027
 330  975.0187
 331  888.9921
 332  937.2465
 333  917.0948
 334  918.2523
 335  913.9749
 336  932.8986
 337  858.3326
 338  886.8725
 339  923.5326
 340  902.5982
 341  910.2652
 342  907.775
 343  901.3073
 344  848.9167
 345  854.1713
 346  949.0748
 347  899.158
 348  1052.975
 349  1046.084
 350  975.1218
 351  941.7355
 352  970.5205
 353  984.0593
 354  975.0856
 355  991.0628
 356  956.8694
 357  991.0656
 358  924.6266
 359  886.1666
 360  952.9397
 361  899.5345
 362  1008.744
 363  977.0707
 364  1013.114
 365  1048.441
 366  934.6432
 367  1024.027
 368  1030.907
 369  994.4501
 370  954.3306
 371  1038.896
 372  1065.855
 373  1109.942
 374  1041.09
 375  1100.29
 376  1029.531
 377  986.6569
 378  1060.655
 379  1059.33
 380  1109.359
 381  970.0599
 382  884.9466
 383  928.6548
 384  995.3262
 385  1094.748
 386  1003.235
 387  919.9861
 388  967.3012
 389  895.5548
 390  930.4426
 391  1022.154
 392  1008.562
 393  1013.203
 394  956.5645
 395  961.9349
 396  938.0865
 397  934.3747
 398  845.9398
 399  957.8014
 400  954.9667
 401  910.8395
 402  922.4648
 403  1001.005
 404  1014.909
 405  931.1002
 406  1009.042
 407  974.7734
 408  840.5249
 409  844.6717
 410  864.4784
 411  855.6789
 412  930.579
 413  957.6997
 414  934.8031
 415  902.5223
 416  918.5339
 417  986.4485
 418  884.3662
 419  952.1302
 420  1096.377
 421  999.7332
 422  880.8906
 423  862.1927
 424  983.8612
 425  1010.698
 426  978.4081
 427  1108.064
 428  1084.934
 429  1005.918
 430  1036.374
 431  1023.388
 432  1013.134
 433  1067.759
 434  1024.391
 435  1092.142
 436  1168.72
 437  1117.82
 438  1124.913
 439  1042.978
 440  1007.58
 441  1036.967
 442  1130.947
 443  1011.342
 444  1098.097
 445  1085.349
 446  1034.011
 447  955.0067
 448  1030.945
 449  1027.255
 450  1036.682
 451  1124.892
 452  1097.956
 453  1055.161
 454  1065.811
 455  1035.018
 456  911.0001
 457  900.9481
 458  908.3525
 459  977.3115
 460  1026.979
 461  998.8759
 462  922.0878
 463  966.5386
 464  941.9058
 465  882.8862
 466  1002.253
 467  1065.862
 468  1060.691
 469  1111.983
 470  1061.921
 471  1034.524
 472  1024.43
 473  1033.127
 474  1029.898
 475  1042.972
 476  1001.629
 477  1048.757
 478  1078
 479  1046.559
 480  931.2109
 481  997.4778
 482  965.7427
 483  968.139
 484  1013.84
 485  988.8116
 486  876.4609
 487  973.9294
 488  994.7916
 489  1135.881
 490  1041.52
 491  1007.525
 492  1035.555
 493  1069.736
 494  1022.39
 495  1087.79
 496  1148.613
 497  1071.587
 498  1037.282
 499  1059.565
 500  1108.504
 501  1079.808
 502  998.3932
 503  969.8059
 504  1029.222
 505  1013.496
 506  1006.878
 507  1029.607
 508  1079.847
 509  1081.042
 510  1115.122
 511  1220.296
