# Input file       =  1196435398.113372_cleaned.dat
# Candidate        =  PSR_0332+5434
# Telescope        =  AR
# Epoch_topo       =  58091.631714275143
# Epoch_bary       =  N/A
# T_sample         =  0.002
# Data Folded      =  7208960
# Data Avg         =  0.0665225875690467
# Data StdDev      =  1.0002666863272  
# Profile Bins     =  512
# Profile Avg      =  936.579622272606 
# Profile StdDev   =  118.690820573312 
# Reduced chi-sqr  =  0.811
# Prob(Noise)      <  0.999   (~0.0 sigma)
# P_topo (ms)      =  714.529397737444  +/- 0.000193
# P'_topo (s/s)    =  -0                +/- 1.04e-10
# P''_topo (s/s^2) =  0                 +/- 4.67e-14
# P_bary (ms)      =  N/A
# P'_bary (s/s)    =  N/A
# P''_bary (s/s^2) =  N/A
# P_orb (s)        =  N/A
# asin(i)/c (s)    =  N/A
# eccentricity     =  N/A
# w (rad)          =  N/A
# T_peri           =  N/A
######################################################
   0  1265.929
   1  1193.857
   2  1102.451
   3  1074.034
   4  1100.957
   5  1075.79
   6  1015.184
   7  1022.821
   8  984.5887
   9  979.3905
  10  977.6605
  11  1008.595
  12  985.4091
  13  894.119
  14  889.4708
  15  1001.495
  16  949.5339
  17  935.2624
  18  933.1053
  19  945.1295
  20  899.9897
  21  952.172
  22  1011.682
  23  1008.012
  24  1226.862
  25  1097.706
  26  1130.786
  27  1047.354
  28  1029.733
  29  1026.347
  30  974.9496
  31  987.3851
  32  1000.131
  33  880.0221
  34  913.0838
  35  987.2831
  36  997.4714
  37  914.3671
  38  973.3095
  39  953.4159
  40  1028.858
  41  933.5396
  42  917.7358
  43  954.6157
  44  918.3923
  45  935.2397
  46  968.7166
  47  992.3868
  48  962.3712
  49  956.3221
  50  816.264
  51  866.4443
  52  974.9996
  53  962.0672
  54  967.1103
  55  1022.719
  56  1030.713
  57  967.139
  58  913.5698
  59  956.5657
  60  1090.162
  61  1022.826
  62  977.6275
  63  990.7711
  64  985.4634
  65  1020.221
  66  943.4794
  67  1029.781
  68  964.9557
  69  945.2528
  70  881.6121
  71  924.5705
  72  811.9656
  73  845.8931
  74  931.7054
  75  974.9082
  76  818.308
  77  918.2742
  78  1042.299
  79  1019.583
  80  984.6678
  81  959.7814
  82  999.4177
  83  1019.443
  84  1023.941
  85  1015.959
  86  947.7763
  87  936.8811
  88  1050.614
  89  1123.872
  90  1121.713
  91  1018.003
  92  784.632
  93  830.2758
  94  803.0391
  95  827.6853
  96  895.9448
  97  925.1345
  98  965.1249
  99  1075.264
 100  1001.242
 101  892.4033
 102  838.8293
 103  872.6886
 104  972.1857
 105  965.4143
 106  846.7097
 107  940.561
 108  833.2297
 109  932.3139
 110  1039.801
 111  951.8842
 112  902.4445
 113  961.1625
 114  952.4008
 115  879.654
 116  895.2885
 117  901.7161
 118  872.8368
 119  821.9201
 120  854.8329
 121  879.5219
 122  870.233
 123  943.0664
 124  904.355
 125  762.6971
 126  875.6658
 127  821.6221
 128  825.2003
 129  841.3621
 130  843.9863
 131  961.9768
 132  964.2916
 133  904.6456
 134  831.886
 135  825.9819
 136  919.6324
 137  843.0109
 138  857.7061
 139  899.9317
 140  962.8448
 141  970.3138
 142  891.6253
 143  952.0633
 144  807.1179
 145  726.6152
 146  852.9069
 147  864.3917
 148  938.4562
 149  999.3251
 150  908.9861
 151  818.9917
 152  851.5687
 153  885.0343
 154  867.2775
 155  951.0195
 156  910.2508
 157  954.855
 158  890.7899
 159  896.0146
 160  957.7258
 161  935.8567
 162  969.4875
 163  957.6877
 164  913.4221
 165  1015.182
 166  956.2047
 167  939.1547
 168  1083.837
 169  1107.787
 170  1026.894
 171  1017.201
 172  1022.403
 173  1072.581
 174  1043.732
 175  1004.306
 176  940.5519
 177  977.3549
 178  1018.117
 179  989.5755
 180  857.7361
 181  1004.044
 182  983.7203
 183  861.0644
 184  896.7957
 185  929.3387
 186  959.561
 187  877.9022
 188  851.3447
 189  903.9793
 190  989.0913
 191  953.3499
 192  938.7114
 193  836.4686
 194  857.3914
 195  763.2167
 196  903.9896
 197  1021.111
 198  1013.765
 199  983.6913
 200  976.183
 201  986.5715
 202  906.5563
 203  886.9479
 204  863.1793
 205  941.1777
 206  928.578
 207  831.7379
 208  915.9233
 209  961.152
 210  988.5393
 211  870.7336
 212  771.33
 213  781.9345
 214  834.4377
 215  818.3867
 216  846.8357
 217  957.4816
 218  1021.387
 219  949.837
 220  938.6525
 221  919.981
 222  930.033
 223  920.709
 224  954.6985
 225  930.7477
 226  959.179
 227  943.9257
 228  867.6653
 229  945.6818
 230  887.2261
 231  883.3502
 232  941.173
 233  946.4946
 234  942.7156
 235  1012.147
 236  957.7483
 237  919.3115
 238  913.8793
 239  966.675
 240  976.2214
 241  999.7479
 242  1022.78
 243  1042.104
 244  894.3655
 245  927.6726
 246  1001.891
 247  1020.736
 248  1050.413
 249  895.0879
 250  948.4456
 251  968.2017
 252  996.4686
 253  981.835
 254  998.637
 255  960.0718
 256  884.0203
 257  883.7136
 258  1066.365
 259  1051.302
 260  1022.933
 261  965.2347
 262  895.725
 263  889.8904
 264  953.3585
 265  880.5565
 266  841.5378
 267  960.3237
 268  1042.977
 269  983.8314
 270  978.726
 271  1000.572
 272  904.707
 273  827.16
 274  873.4149
 275  1085.909
 276  970.8904
 277  779.41
 278  758.0233
 279  837.3113
 280  767.7841
 281  723.958
 282  846.8308
 283  840.7526
 284  860.3041
 285  826.416
 286  855.7128
 287  871.0861
 288  914.1195
 289  903.7327
 290  961.1777
 291  1102.694
 292  1100.807
 293  978.9938
 294  855.4205
 295  887.1309
 296  1013.671
 297  922.6698
 298  953.316
 299  958.8233
 300  927.22
 301  866.2422
 302  972.2693
 303  1049.033
 304  1050.405
 305  965.1404
 306  835.7499
 307  878.9523
 308  799.8464
 309  878.1306
 310  934.0714
 311  951.4736
 312  961.67
 313  976.5792
 314  1001.423
 315  876.9136
 316  866.3988
 317  937.8938
 318  948.9888
 319  909.4243
 320  892.5644
 321  919.1666
 322  842.7319
 323  828.2475
 324  868.7427
 325  975.5732
 326  967.8574
 327  949.5018
 328  843.0681
 329  824.7034
 330  849.2961
 331  815.3365
 332  920.1415
 333  883.7608
 334  954.6636
 335  956.0158
 336  966.4346
 337  1032.77
 338  978.1249
 339  950.28
 340  829.5965
 341  923.9567
 342  940.4479
 343  892.2664
 344  972.2935
 345  915.592
 346  771.9697
 347  702.0892
 348  817.5396
 349  925.7922
 350  925.8006
 351  931.5458
 352  930.3435
 353  968.8374
 354  946.5356
 355  907.6491
 356  927.4331
 357  932.0898
 358  1016.261
 359  1100.793
 360  954.0717
 361  906.0094
 362  905.7489
 363  988.061
 364  971.9564
 365  954.8566
 366  931.2897
 367  865.3873
 368  958.1517
 369  913.0791
 370  1008.308
 371  939.9625
 372  980.3367
 373  833.8435
 374  812.119
 375  921.8608
 376  1017.63
 377  1055.816
 378  1021.042
 379  926.5627
 380  909.741
 381  885.3044
 382  866.8287
 383  829.7513
 384  927.3572
 385  990.0001
 386  1010.746
 387  879.787
 388  908.4963
 389  977.4857
 390  924.282
 391  937.2684
 392  911.1199
 393  857.46
 394  843.0891
 395  1003.13
 396  944.1816
 397  880.6307
 398  919.1747
 399  948.6921
 400  996.4822
 401  954.5086
 402  895.075
 403  769.3465
 404  813.324
 405  889.9894
 406  940.651
 407  996.7318
 408  1009.522
 409  977.356
 410  924.0581
 411  1030.823
 412  924.954
 413  890.0695
 414  799.0506
 415  884.502
 416  929.3714
 417  995.6372
 418  1104.212
 419  1062.029
 420  915.584
 421  978.2667
 422  995.209
 423  993.3612
 424  857.586
 425  949.8077
 426  967.8198
 427  923.9263
 428  837.0279
 429  808.9905
 430  832.0172
 431  928.8137
 432  982.0671
 433  1002.666
 434  973.9513
 435  894.0897
 436  842.3729
 437  946.7908
 438  1038.749
 439  1049.552
 440  936.2144
 441  963.9312
 442  1007.53
 443  866.6573
 444  777.6088
 445  833.3832
 446  865.4202
 447  898.0922
 448  897.4388
 449  859.0124
 450  904.2303
 451  937.6063
 452  934.9401
 453  955.7184
 454  948.2333
 455  855.0015
 456  820.5287
 457  941.7922
 458  1006.391
 459  996.4492
 460  1037.3
 461  1007.323
 462  907.2809
 463  938.1359
 464  945.4846
 465  973.7073
 466  966.5036
 467  955.4994
 468  1005.414
 469  974.873
 470  1000.978
 471  912.8298
 472  883.128
 473  936.8805
 474  841.8354
 475  902.3996
 476  991.0562
 477  897.1469
 478  994.4435
 479  991.9066
 480  946.0511
 481  957.9822
 482  985.1109
 483  1023.079
 484  951.6548
 485  891.9375
 486  959.5612
 487  983.0649
 488  974.2184
 489  798.886
 490  840.6367
 491  893.7679
 492  878.3838
 493  943.203
 494  895.691
 495  842.364
 496  822.5285
 497  834.2359
 498  867.8006
 499  913.157
 500  856.9975
 501  906.1494
 502  844.2935
 503  866.5132
 504  936.584
 505  925.7996
 506  910.5306
 507  948.2982
 508  1019.676
 509  1031.031
 510  1096.244
 511  1228.034
