# Input file       =  1196206442.107451_cleaned.dat
# Candidate        =  PSR_0332+5434
# Telescope        =  AR
# Epoch_topo       =  58088.981760502902
# Epoch_bary       =  N/A
# T_sample         =  0.002
# Data Folded      =  7340032
# Data Avg         =  0.0945348793870758
# Data StdDev      =  1.00026092232174 
# Profile Bins     =  512
# Profile Avg      =  1355.23356249225 
# Profile StdDev   =  119.764277398606 
# Reduced chi-sqr  =  0.784
# Prob(Noise)      <  1   (~0.0 sigma)
# P_topo (ms)      =  714.527037876186  +/- 4.04e-05
# P'_topo (s/s)    =  -0                +/- 2.13e-11
# P''_topo (s/s^2) =  0                 +/- 9.4e-15
# P_bary (ms)      =  N/A
# P'_bary (s/s)    =  N/A
# P''_bary (s/s^2) =  N/A
# P_orb (s)        =  N/A
# asin(i)/c (s)    =  N/A
# eccentricity     =  N/A
# w (rad)          =  N/A
# T_peri           =  N/A
######################################################
   0  1747.533
   1  1716.755
   2  1628.163
   3  1520.311
   4  1352.758
   5  1331.555
   6  1382.21
   7  1383.03
   8  1390.435
   9  1360.725
  10  1324.517
  11  1330.077
  12  1330.8
  13  1400.972
  14  1340.938
  15  1385.932
  16  1353.654
  17  1337.791
  18  1335.983
  19  1341.46
  20  1374.019
  21  1253.109
  22  1241.774
  23  1351.562
  24  1308.082
  25  1352.512
  26  1383.622
  27  1410.797
  28  1343.242
  29  1310.398
  30  1386.811
  31  1364.589
  32  1317.823
  33  1265.03
  34  1379.036
  35  1396.954
  36  1351.392
  37  1382.597
  38  1421.587
  39  1444.72
  40  1279.533
  41  1352.441
  42  1422.718
  43  1408.387
  44  1373.201
  45  1445.254
  46  1465.744
  47  1420.093
  48  1409.34
  49  1274.255
  50  1294.03
  51  1371.832
  52  1373.32
  53  1280.688
  54  1235.756
  55  1340.77
  56  1313.169
  57  1393.294
  58  1433.401
  59  1451.373
  60  1281.644
  61  1261.199
  62  1300.995
  63  1390.725
  64  1434.33
  65  1415.097
  66  1377.881
  67  1484.008
  68  1414.813
  69  1454.028
  70  1497.708
  71  1583.322
  72  1464.091
  73  1459.345
  74  1366.197
  75  1294.212
  76  1362.282
  77  1394.553
  78  1424.437
  79  1287.964
  80  1385.772
  81  1388.08
  82  1338.463
  83  1327.913
  84  1258.242
  85  1306.122
  86  1296.476
  87  1316.033
  88  1464.469
  89  1312.112
  90  1244.265
  91  1350.093
  92  1521.895
  93  1552.814
  94  1472.39
  95  1404.786
  96  1385.609
  97  1314.733
  98  1317.566
  99  1348.205
 100  1253.958
 101  1318.349
 102  1416.765
 103  1364.176
 104  1383.9
 105  1344.39
 106  1352.938
 107  1330.944
 108  1326.35
 109  1336.398
 110  1386.64
 111  1281.779
 112  1300.858
 113  1356.628
 114  1380.697
 115  1358.184
 116  1311.565
 117  1314.245
 118  1460.682
 119  1429.52
 120  1332.499
 121  1314.358
 122  1397.203
 123  1373.995
 124  1343.608
 125  1293.67
 126  1313.456
 127  1386.866
 128  1452.715
 129  1362.636
 130  1290.218
 131  1350.037
 132  1292.657
 133  1270.913
 134  1402.59
 135  1357.574
 136  1311.994
 137  1316.839
 138  1327.828
 139  1315.257
 140  1322.05
 141  1268.967
 142  1334.893
 143  1238.598
 144  1197.062
 145  1311.131
 146  1192.28
 147  1205.723
 148  1252.294
 149  1306.143
 150  1314.764
 151  1349.012
 152  1352.134
 153  1293.69
 154  1213.796
 155  1235.571
 156  1343.89
 157  1399.338
 158  1299.118
 159  1259.311
 160  1331.713
 161  1292.292
 162  1280.325
 163  1397
 164  1371.972
 165  1234.467
 166  1271.816
 167  1298.074
 168  1285.194
 169  1329.961
 170  1381.029
 171  1425.903
 172  1414.961
 173  1404.642
 174  1286.607
 175  1287.755
 176  1324.469
 177  1332.263
 178  1368.155
 179  1325.849
 180  1297.051
 181  1324.927
 182  1307.34
 183  1313.975
 184  1362.191
 185  1318.545
 186  1276.095
 187  1345.412
 188  1442.221
 189  1457.658
 190  1420.265
 191  1424.086
 192  1447.736
 193  1343.173
 194  1409.566
 195  1486.852
 196  1474.591
 197  1382.84
 198  1348.42
 199  1448.173
 200  1399.749
 201  1391.011
 202  1414.044
 203  1330.499
 204  1264.343
 205  1323.72
 206  1388.723
 207  1373.806
 208  1360.502
 209  1456.402
 210  1412.229
 211  1369.389
 212  1392.894
 213  1420.775
 214  1416.589
 215  1299.73
 216  1353.339
 217  1439.915
 218  1368.543
 219  1300.513
 220  1349.326
 221  1510.697
 222  1532.175
 223  1487.064
 224  1490.584
 225  1339.614
 226  1446.029
 227  1454.626
 228  1409.391
 229  1384.764
 230  1343.124
 231  1415.749
 232  1310.027
 233  1371.508
 234  1481.504
 235  1388.675
 236  1286.261
 237  1285.686
 238  1345.874
 239  1431.594
 240  1376.944
 241  1441.186
 242  1476.421
 243  1390.59
 244  1289.966
 245  1299.048
 246  1469.518
 247  1432.531
 248  1481.036
 249  1534.43
 250  1363.555
 251  1365.185
 252  1374.789
 253  1406.415
 254  1316.224
 255  1380.858
 256  1498.156
 257  1444.402
 258  1297.635
 259  1368.528
 260  1324.291
 261  1211.125
 262  1300.981
 263  1384.598
 264  1442.734
 265  1390.365
 266  1300.894
 267  1290.32
 268  1381.07
 269  1512.369
 270  1449.776
 271  1451.79
 272  1373.416
 273  1394.812
 274  1436.647
 275  1327.879
 276  1412.278
 277  1496.109
 278  1507.259
 279  1359.853
 280  1240.364
 281  1243.197
 282  1289.783
 283  1255.835
 284  1221.255
 285  1309.44
 286  1362.712
 287  1305.962
 288  1359.832
 289  1392.522
 290  1334.942
 291  1332.26
 292  1284.435
 293  1282.72
 294  1379.479
 295  1411.696
 296  1449.132
 297  1363.38
 298  1347.409
 299  1347.817
 300  1287.852
 301  1179.669
 302  1287.01
 303  1359.417
 304  1269.269
 305  1252.375
 306  1339.414
 307  1407.535
 308  1405.469
 309  1365.092
 310  1288.08
 311  1309.64
 312  1320.23
 313  1275.648
 314  1290.357
 315  1261.811
 316  1257.153
 317  1395.906
 318  1345.26
 319  1309.702
 320  1375.24
 321  1385.735
 322  1287.89
 323  1434.866
 324  1382.468
 325  1274.031
 326  1315.809
 327  1439.227
 328  1453.233
 329  1325.285
 330  1317.783
 331  1374.608
 332  1301.451
 333  1231.956
 334  1313.012
 335  1480.419
 336  1411.896
 337  1231.32
 338  1277.378
 339  1301.021
 340  1257.503
 341  1315.896
 342  1441.142
 343  1333.528
 344  1268.239
 345  1279.077
 346  1272.161
 347  1226.834
 348  1171.525
 349  1229.405
 350  1317.932
 351  1318.385
 352  1302.773
 353  1250.751
 354  1184.568
 355  1213.353
 356  1356.407
 357  1367.28
 358  1292.561
 359  1376.524
 360  1334.861
 361  1304.914
 362  1259.205
 363  1327.898
 364  1440.034
 365  1345.174
 366  1398.011
 367  1561.761
 368  1498.129
 369  1379.111
 370  1348.463
 371  1441.165
 372  1413.486
 373  1387.799
 374  1337.937
 375  1293.277
 376  1304.929
 377  1376.291
 378  1341.136
 379  1243.627
 380  1260.433
 381  1246.7
 382  1251.477
 383  1255.153
 384  1302.558
 385  1502.787
 386  1452.406
 387  1312.239
 388  1347.536
 389  1344.274
 390  1375.432
 391  1279.257
 392  1380.698
 393  1395.753
 394  1348.411
 395  1355.393
 396  1304.028
 397  1212.182
 398  1173.613
 399  1364.861
 400  1366.722
 401  1254.575
 402  1195.301
 403  1298.419
 404  1309.631
 405  1265.795
 406  1309.509
 407  1349.033
 408  1316.557
 409  1331.482
 410  1344.596
 411  1328.247
 412  1284.776
 413  1298.501
 414  1383.649
 415  1342.589
 416  1317.465
 417  1482.992
 418  1387.772
 419  1377.429
 420  1381.929
 421  1397.085
 422  1359.618
 423  1403.27
 424  1455.059
 425  1341.363
 426  1386.858
 427  1481.4
 428  1472.375
 429  1347.128
 430  1272.971
 431  1323.323
 432  1437.574
 433  1418.628
 434  1450.115
 435  1390.911
 436  1298.516
 437  1278.472
 438  1391.978
 439  1353.715
 440  1250.68
 441  1228.766
 442  1336.351
 443  1374.846
 444  1318.133
 445  1250.451
 446  1361.033
 447  1404.163
 448  1367.719
 449  1482.513
 450  1440.074
 451  1356.503
 452  1301.716
 453  1429.227
 454  1401.363
 455  1363.548
 456  1387.286
 457  1421.503
 458  1334.819
 459  1238.927
 460  1404.309
 461  1406.333
 462  1355.844
 463  1369.627
 464  1395.002
 465  1355.811
 466  1354.452
 467  1486.779
 468  1420.964
 469  1197.385
 470  1295.964
 471  1394.863
 472  1370.65
 473  1354.368
 474  1350.303
 475  1405.677
 476  1245.392
 477  1294.465
 478  1295.841
 479  1350.764
 480  1215.677
 481  1283.808
 482  1346.346
 483  1377.893
 484  1407.307
 485  1430.02
 486  1305.516
 487  1263.025
 488  1343.724
 489  1434.726
 490  1400.278
 491  1339.313
 492  1270.15
 493  1236.016
 494  1302.264
 495  1311.324
 496  1381.509
 497  1335.279
 498  1373.645
 499  1312.167
 500  1305.1
 501  1275.692
 502  1225.54
 503  1346.467
 504  1378.422
 505  1392.834
 506  1372.574
 507  1383.315
 508  1430.673
 509  1374.427
 510  1522.917
 511  1639.058
