# Input file       =  1197139048.114253_cleaned.dat
# Candidate        =  PSR_0332+5434
# Telescope        =  AR
# Epoch_topo       =  58099.775811507556
# Epoch_bary       =  N/A
# T_sample         =  0.002
# Data Folded      =  7340032
# Data Avg         =  0.0609373829851998
# Data StdDev      =  1.00019379598268 
# Profile Bins     =  512
# Profile Avg      =  873.444869413775 
# Profile StdDev   =  119.75624015821  
# Reduced chi-sqr  =  0.906
# Prob(Noise)      <  0.936   (~0.0 sigma)
# P_topo (ms)      =  714.537708748205  +/- 0.000356
# P'_topo (s/s)    =  -0                +/- 1.88e-10
# P''_topo (s/s^2) =  0                 +/- 8.3e-14
# P_bary (ms)      =  N/A
# P'_bary (s/s)    =  N/A
# P''_bary (s/s^2) =  N/A
# P_orb (s)        =  N/A
# asin(i)/c (s)    =  N/A
# eccentricity     =  N/A
# w (rad)          =  N/A
# T_peri           =  N/A
######################################################
   0  1291.162
   1  1265.063
   2  1164.251
   3  1070.172
   4  969.6444
   5  878.3294
   6  934.3015
   7  884.4354
   8  949.3806
   9  876.5472
  10  805.7524
  11  991.4985
  12  967.3873
  13  833.2826
  14  1025.753
  15  1168.777
  16  1005.22
  17  927.2137
  18  967.347
  19  906.7602
  20  929.666
  21  1019.185
  22  878.6031
  23  799.3593
  24  715.6376
  25  813.4008
  26  881.539
  27  826.9414
  28  810.6329
  29  831.3641
  30  863.4205
  31  985.0504
  32  936.064
  33  938.309
  34  917.2914
  35  798.5123
  36  862.1225
  37  917.5356
  38  854.087
  39  890.8297
  40  874.6545
  41  923.873
  42  893.6227
  43  812.1582
  44  839.1902
  45  893.9424
  46  860.8233
  47  858.9474
  48  849.1331
  49  850.8995
  50  965.5103
  51  898.6092
  52  802.819
  53  680.3555
  54  679.0979
  55  839.4503
  56  801.5762
  57  899.9831
  58  887.4771
  59  859.4767
  60  736.2504
  61  791.4857
  62  914.8618
  63  991.1917
  64  852.4148
  65  835.4827
  66  903.3381
  67  847.5149
  68  739.6091
  69  788.9492
  70  734.9178
  71  723.0775
  72  696.932
  73  841.6439
  74  928.3967
  75  843.9753
  76  859.8436
  77  843.5823
  78  773.7412
  79  792.0069
  80  858.5843
  81  838.0356
  82  838.8779
  83  813.5456
  84  807.4533
  85  710.3765
  86  731.9258
  87  730.5535
  88  810.1935
  89  808.3192
  90  907.5388
  91  917.3672
  92  871.4166
  93  839.6748
  94  824.7828
  95  933.441
  96  770.8899
  97  776.9929
  98  747.9969
  99  760.4542
 100  832.3016
 101  814.7495
 102  798.1321
 103  890.3814
 104  821.7567
 105  795.0397
 106  771.2619
 107  898.0704
 108  886.3306
 109  782.8561
 110  902.8223
 111  887.4454
 112  725.0898
 113  755.5173
 114  810.6326
 115  763.6065
 116  691.28
 117  788.9514
 118  867.0343
 119  931.8889
 120  789.1964
 121  851.1672
 122  886.2151
 123  868.2905
 124  902.692
 125  817.5916
 126  748.5892
 127  738.9735
 128  803.6353
 129  863.0093
 130  872.3069
 131  963.2138
 132  1046.244
 133  983.0299
 134  895.8259
 135  859.9709
 136  907.6822
 137  862.5493
 138  852.5267
 139  761.7871
 140  700.4705
 141  881.3467
 142  827.2204
 143  818.2478
 144  800.78
 145  768.9779
 146  804.4599
 147  787.6539
 148  920.6193
 149  909.1561
 150  853.3824
 151  888.7394
 152  907.8074
 153  865.9799
 154  862.2183
 155  823.9023
 156  750.6124
 157  821.8992
 158  950.7862
 159  890.3655
 160  910.858
 161  809.673
 162  819.6667
 163  769.321
 164  758.1382
 165  899.4695
 166  963.5884
 167  993.8509
 168  914.6206
 169  889.6553
 170  844.3336
 171  918.3183
 172  812.9902
 173  851.527
 174  843.8894
 175  870.6168
 176  852.6436
 177  811.9014
 178  879.04
 179  887.0199
 180  871.8936
 181  964.3979
 182  827.8183
 183  804.442
 184  863.7515
 185  943.5975
 186  913.3852
 187  827.7381
 188  806.5381
 189  779.2748
 190  784.9396
 191  974.775
 192  993.7153
 193  983.0575
 194  998.8809
 195  901.1418
 196  937.9401
 197  847.6921
 198  861.9105
 199  891.8429
 200  892.3856
 201  916.9174
 202  885.6284
 203  903.7036
 204  845.3015
 205  785.8834
 206  774.0743
 207  729.1752
 208  721.8853
 209  805.6519
 210  888.6531
 211  835.1503
 212  838.9483
 213  782.9089
 214  842.9009
 215  896.5911
 216  860.5815
 217  856.7133
 218  822.0379
 219  846.0159
 220  907.7688
 221  877.1002
 222  901.7341
 223  976.6882
 224  992.5396
 225  820.0607
 226  797.5526
 227  905.0802
 228  995.3235
 229  910.6036
 230  882.3115
 231  895.1121
 232  982.6539
 233  951.5645
 234  934.234
 235  879.6612
 236  872.4391
 237  871.7234
 238  820.0413
 239  800.6913
 240  797.2027
 241  794.2145
 242  825.5201
 243  842.7233
 244  858.9777
 245  757.2369
 246  844.8054
 247  781.016
 248  820.0665
 249  816.8928
 250  789.0748
 251  937.5019
 252  920.0684
 253  883.5764
 254  830.1264
 255  912.2274
 256  879.675
 257  977.9871
 258  886.6113
 259  922.5568
 260  781.041
 261  748.7578
 262  807.4193
 263  988.0026
 264  1026.599
 265  951.8848
 266  866.4605
 267  849.1044
 268  753.7609
 269  813.7234
 270  846.3685
 271  905.6827
 272  779.4637
 273  884.4983
 274  840.8808
 275  902.1252
 276  898.3221
 277  923.6002
 278  781.8619
 279  818.8693
 280  756.3332
 281  805.5517
 282  891.8765
 283  783.54
 284  708.8408
 285  812.394
 286  851.7477
 287  781.5709
 288  789.789
 289  941.3434
 290  846.6916
 291  696.3708
 292  766.587
 293  815.3157
 294  852.6369
 295  792.9905
 296  911.6007
 297  958.4365
 298  895.1843
 299  854.7061
 300  863.5416
 301  789.817
 302  904.1801
 303  893.2914
 304  887.3903
 305  943.1727
 306  1041.459
 307  1073.246
 308  918.2411
 309  828.8011
 310  867.3963
 311  837.452
 312  871.2963
 313  873.9155
 314  991.4493
 315  987.3013
 316  959.7515
 317  997.2452
 318  935.2816
 319  860.9759
 320  822.0021
 321  844.3777
 322  833.1776
 323  840.72
 324  988.8229
 325  887.7459
 326  753.3
 327  763.1259
 328  788.6922
 329  777.3073
 330  791.4459
 331  944.0327
 332  866.8799
 333  922.5407
 334  913.5797
 335  939.3483
 336  1005.698
 337  905.5386
 338  898.1606
 339  865.3761
 340  813.5526
 341  895.3321
 342  998.0663
 343  1026.914
 344  955.7416
 345  955.3456
 346  994.8364
 347  991.0389
 348  1102.272
 349  973.2083
 350  889.2421
 351  934.8082
 352  1046.545
 353  1059.93
 354  924.9131
 355  894.1909
 356  908.54
 357  850.3887
 358  813.2355
 359  838.3599
 360  937.7472
 361  925.7869
 362  926.5674
 363  905.5621
 364  912.7632
 365  937.196
 366  939.8199
 367  951.2468
 368  888.187
 369  841.2603
 370  846.8698
 371  899.4395
 372  954.3116
 373  874.7734
 374  817.1457
 375  841.593
 376  840.0059
 377  877.2245
 378  874.8175
 379  847.1646
 380  888.8746
 381  943.0871
 382  1024.474
 383  1049.016
 384  1005.93
 385  847.7379
 386  857.6251
 387  894.7991
 388  915.2034
 389  893.5199
 390  932.9517
 391  1002.627
 392  940.7023
 393  909.5245
 394  864.2081
 395  901.6512
 396  952.1743
 397  906.4601
 398  859.0037
 399  866.4149
 400  1038.281
 401  971.7524
 402  885.1118
 403  892.6754
 404  903.6513
 405  888.662
 406  910.6966
 407  799.7283
 408  820.6616
 409  950.579
 410  872.3728
 411  842.1436
 412  897.2138
 413  814.3516
 414  927.7797
 415  878.6846
 416  810.1967
 417  849.2421
 418  945.608
 419  949.3585
 420  859.1947
 421  859.0331
 422  813.3044
 423  866.1025
 424  832.02
 425  843.8608
 426  799.4445
 427  899.7029
 428  827.0746
 429  801.099
 430  819.9657
 431  770.5505
 432  842.4476
 433  844.6756
 434  832.0079
 435  791.4374
 436  760.0066
 437  824.0075
 438  861.2495
 439  904.014
 440  823.3823
 441  677.1224
 442  728.9931
 443  924.4536
 444  901.3746
 445  848.6942
 446  797.404
 447  846.4125
 448  889.3696
 449  881.1536
 450  875.9726
 451  957.4915
 452  1000.252
 453  892.9414
 454  843.5798
 455  833.9534
 456  850.8949
 457  855.8517
 458  900.4224
 459  948.4429
 460  903.3588
 461  895.0868
 462  890.3191
 463  854.1725
 464  902.1304
 465  942.2733
 466  832.7001
 467  815.4495
 468  915.9948
 469  902.2047
 470  1010.695
 471  952.8735
 472  817.7021
 473  908.6048
 474  826.0767
 475  856.6753
 476  902.4999
 477  905.6396
 478  848.8326
 479  787.2234
 480  775.1541
 481  812.9136
 482  773.6841
 483  761.8569
 484  832.8662
 485  867.6038
 486  777.0654
 487  732.285
 488  801.9187
 489  888.9122
 490  911.4254
 491  982.2117
 492  956.3583
 493  925.5643
 494  892.0187
 495  921.2228
 496  839.9875
 497  941.1403
 498  945.8515
 499  916.6525
 500  908.157
 501  948.2073
 502  794.0216
 503  906.2186
 504  933.077
 505  924.8416
 506  849.6859
 507  851.6586
 508  909.7824
 509  1057.103
 510  1139.36
 511  1306.16
