# Input file       =  1197038256.128744_cleaned.dat
# Candidate        =  PSR_0332+5434
# Telescope        =  AR
# Epoch_topo       =  58098.609237601202
# Epoch_bary       =  N/A
# T_sample         =  0.002
# Data Folded      =  7143424
# Data Avg         =  0.0969767872011389
# Data StdDev      =  1.00054722412869 
# Profile Bins     =  512
# Profile Avg      =  1352.96410083191 
# Profile StdDev   =  118.183221821343 
# Reduced chi-sqr  =  0.941
# Prob(Noise)      <  0.828   (~0.0 sigma)
# P_topo (ms)      =  714.536515421004  +/- 9.25e-05
# P'_topo (s/s)    =  -0                +/- 5.02e-11
# P''_topo (s/s^2) =  0                 +/- 2.28e-14
# P_bary (ms)      =  N/A
# P'_bary (s/s)    =  N/A
# P''_bary (s/s^2) =  N/A
# P_orb (s)        =  N/A
# asin(i)/c (s)    =  N/A
# eccentricity     =  N/A
# w (rad)          =  N/A
# T_peri           =  N/A
######################################################
   0  1717.804
   1  1433.471
   2  1396.428
   3  1352.061
   4  1343.518
   5  1331.107
   6  1425.229
   7  1376.239
   8  1311.927
   9  1307.485
  10  1357.573
  11  1283.423
  12  1211.12
  13  1303.653
  14  1356.468
  15  1317.911
  16  1260.652
  17  1236.481
  18  1289.957
  19  1262.4
  20  1400.928
  21  1461.432
  22  1329.339
  23  1406.429
  24  1460.981
  25  1371.428
  26  1327.933
  27  1383.524
  28  1516.062
  29  1495.964
  30  1339.841
  31  1361.593
  32  1402.963
  33  1394.824
  34  1326.661
  35  1383.477
  36  1389.457
  37  1452.985
  38  1485.055
  39  1476.301
  40  1487.801
  41  1383.971
  42  1360.098
  43  1375.936
  44  1420.079
  45  1465.266
  46  1488.458
  47  1306.82
  48  1271.6
  49  1405.553
  50  1366.027
  51  1294.028
  52  1280.249
  53  1334.536
  54  1353.723
  55  1346.146
  56  1304.311
  57  1351.398
  58  1281.758
  59  1170.898
  60  1297.796
  61  1334.863
  62  1273.845
  63  1265.823
  64  1317.466
  65  1257.908
  66  1162.851
  67  1246.483
  68  1335.042
  69  1237.208
  70  1228.747
  71  1375.907
  72  1406.944
  73  1294.428
  74  1255.267
  75  1258.012
  76  1344.229
  77  1375.796
  78  1396.116
  79  1415.686
  80  1457.304
  81  1312.402
  82  1267.196
  83  1246.059
  84  1333.445
  85  1298.781
  86  1428.202
  87  1492.506
  88  1509.136
  89  1464.262
  90  1446.77
  91  1304.412
  92  1404.382
  93  1432.492
  94  1433.432
  95  1476.266
  96  1467.56
  97  1488.306
  98  1381.562
  99  1372.109
 100  1356.821
 101  1277.273
 102  1282.02
 103  1328.714
 104  1356.507
 105  1358.223
 106  1414.892
 107  1374.084
 108  1266.191
 109  1274.708
 110  1270.263
 111  1297.128
 112  1392.874
 113  1362.997
 114  1456.134
 115  1421.738
 116  1313.72
 117  1268.338
 118  1285.961
 119  1254.272
 120  1359.732
 121  1472.48
 122  1430.9
 123  1320.267
 124  1254.318
 125  1316.567
 126  1273.591
 127  1252.582
 128  1365.56
 129  1393.961
 130  1339.322
 131  1260.788
 132  1287.231
 133  1293.168
 134  1295.863
 135  1166.842
 136  1237.66
 137  1330.539
 138  1353.593
 139  1277.332
 140  1381.891
 141  1303.927
 142  1279.199
 143  1389.621
 144  1335.032
 145  1429.668
 146  1305.392
 147  1198.756
 148  1211.318
 149  1272.17
 150  1200.066
 151  1101.873
 152  1161.974
 153  1194.55
 154  1204.926
 155  1140.941
 156  1286.967
 157  1356.266
 158  1271.392
 159  1164.161
 160  1194.579
 161  1255.805
 162  1323.587
 163  1380.211
 164  1404.759
 165  1399.71
 166  1330.834
 167  1299.07
 168  1281.738
 169  1396.401
 170  1480.869
 171  1588.165
 172  1538.917
 173  1439.285
 174  1378.112
 175  1382.592
 176  1395.283
 177  1379.205
 178  1400.305
 179  1346.595
 180  1267.919
 181  1282.344
 182  1284.244
 183  1185.993
 184  1260.263
 185  1272.705
 186  1298.022
 187  1219.523
 188  1238.078
 189  1298.597
 190  1273.155
 191  1322.783
 192  1442.303
 193  1417.981
 194  1345.217
 195  1289.093
 196  1323.749
 197  1264.753
 198  1342.36
 199  1295.179
 200  1286.195
 201  1257.425
 202  1311.082
 203  1400.151
 204  1372.549
 205  1452.977
 206  1401.352
 207  1336.656
 208  1352.568
 209  1469.374
 210  1416.068
 211  1429.546
 212  1461.966
 213  1471.454
 214  1546.369
 215  1447.027
 216  1259.96
 217  1282.653
 218  1336.583
 219  1396.752
 220  1339.448
 221  1405.465
 222  1474.89
 223  1305.642
 224  1281.348
 225  1287.062
 226  1433.223
 227  1499.745
 228  1472.789
 229  1478.74
 230  1412.511
 231  1408.149
 232  1364.109
 233  1281.985
 234  1212.844
 235  1373.926
 236  1379.936
 237  1554.019
 238  1546.336
 239  1412.957
 240  1307.429
 241  1261.867
 242  1409.692
 243  1407.273
 244  1393.409
 245  1384.112
 246  1494.85
 247  1337.904
 248  1251.627
 249  1318.067
 250  1384.692
 251  1414.313
 252  1340.032
 253  1491.46
 254  1491.323
 255  1334.406
 256  1311.444
 257  1261.931
 258  1199.988
 259  1266.32
 260  1439.138
 261  1498.86
 262  1441.238
 263  1372.401
 264  1378.467
 265  1347.572
 266  1353.244
 267  1292.66
 268  1344.629
 269  1284.654
 270  1420.775
 271  1409.911
 272  1379.565
 273  1294.533
 274  1321.128
 275  1365.438
 276  1404.295
 277  1423.487
 278  1324.35
 279  1431.54
 280  1459.345
 281  1391.556
 282  1349.891
 283  1392.417
 284  1391.568
 285  1323.716
 286  1379.873
 287  1381.518
 288  1329.556
 289  1417.28
 290  1429.332
 291  1386.402
 292  1341.187
 293  1297.567
 294  1320.112
 295  1341.383
 296  1365.067
 297  1397.929
 298  1361.962
 299  1415.754
 300  1379.29
 301  1310.1
 302  1282.471
 303  1363.888
 304  1349.013
 305  1285.616
 306  1267.046
 307  1287.955
 308  1340.374
 309  1367.306
 310  1288.425
 311  1239.14
 312  1174.239
 313  1172.914
 314  1185.054
 315  1220.607
 316  1244.111
 317  1252.862
 318  1340.26
 319  1275.728
 320  1394.111
 321  1455.848
 322  1411.893
 323  1346.134
 324  1444.157
 325  1424.158
 326  1361.327
 327  1354.175
 328  1377.87
 329  1334.782
 330  1338.612
 331  1339.931
 332  1413.684
 333  1375.71
 334  1308.554
 335  1358.108
 336  1442.736
 337  1445.454
 338  1369.129
 339  1341.157
 340  1278.31
 341  1279.694
 342  1358.474
 343  1498.113
 344  1456.564
 345  1400.754
 346  1371.706
 347  1404.045
 348  1375.401
 349  1275.245
 350  1289.296
 351  1260.304
 352  1370.119
 353  1264.932
 354  1294.66
 355  1423.562
 356  1423.809
 357  1326.543
 358  1407.069
 359  1423.916
 360  1467.225
 361  1379.395
 362  1260.858
 363  1354.708
 364  1360.197
 365  1353.291
 366  1327.225
 367  1401.6
 368  1343.685
 369  1328.922
 370  1318.882
 371  1205.327
 372  1290.504
 373  1325.677
 374  1302.156
 375  1421.542
 376  1352.281
 377  1467.131
 378  1379.435
 379  1271.043
 380  1382.998
 381  1440.152
 382  1368.909
 383  1322.949
 384  1303.626
 385  1510
 386  1456.587
 387  1407.279
 388  1360.696
 389  1310.724
 390  1177.071
 391  1225.109
 392  1378.203
 393  1360.11
 394  1410.486
 395  1481.267
 396  1384.906
 397  1308.055
 398  1196.064
 399  1198.375
 400  1235.535
 401  1319.688
 402  1315.635
 403  1296.711
 404  1353.588
 405  1380.841
 406  1305.634
 407  1274.673
 408  1445.746
 409  1381.047
 410  1450.09
 411  1310.192
 412  1240.999
 413  1319.985
 414  1255.236
 415  1209.489
 416  1304.115
 417  1361.262
 418  1295.342
 419  1363.665
 420  1397.383
 421  1394.901
 422  1302.171
 423  1249.057
 424  1307.609
 425  1432.958
 426  1447.427
 427  1332.295
 428  1265.266
 429  1378.171
 430  1357.469
 431  1285.867
 432  1369.615
 433  1441.527
 434  1439.704
 435  1440.797
 436  1389.776
 437  1380.148
 438  1401.561
 439  1478.85
 440  1442.28
 441  1302.321
 442  1325.876
 443  1372.615
 444  1344.877
 445  1342.885
 446  1355.217
 447  1367.102
 448  1332.815
 449  1311.339
 450  1354.329
 451  1370.192
 452  1477.719
 453  1532.589
 454  1477.437
 455  1396.813
 456  1350.296
 457  1277.907
 458  1314.482
 459  1321.91
 460  1307.729
 461  1435.327
 462  1364.27
 463  1322.759
 464  1300.134
 465  1292.821
 466  1331.441
 467  1294.807
 468  1329.589
 469  1314.872
 470  1266.974
 471  1406.488
 472  1456.254
 473  1453.411
 474  1298.516
 475  1318.338
 476  1289.084
 477  1279.779
 478  1241.763
 479  1276.686
 480  1323.752
 481  1258.832
 482  1318.706
 483  1316.38
 484  1290.637
 485  1376.43
 486  1444.762
 487  1469.903
 488  1359.349
 489  1344.42
 490  1352.655
 491  1349.367
 492  1412.886
 493  1371.207
 494  1338.537
 495  1375.732
 496  1344.422
 497  1316.761
 498  1430.122
 499  1379.667
 500  1449.777
 501  1495.848
 502  1456.404
 503  1404.28
 504  1395.788
 505  1338.305
 506  1372.995
 507  1526.986
 508  1526.278
 509  1502.853
 510  1685.66
 511  1712.212
