# Input file       =  1197555195.115929_cleaned.dat
# Candidate        =  PSR_0332+5434
# Telescope        =  AR
# Epoch_topo       =  58104.592327730657
# Epoch_bary       =  N/A
# T_sample         =  0.002
# Data Folded      =  7405568
# Data Avg         =  0.0577336637278543
# Data StdDev      =  1.00001703064204 
# Profile Bins     =  512
# Profile Avg      =  835.063166423808 
# Profile StdDev   =  120.268419240498 
# Reduced chi-sqr  =  0.955
# Prob(Noise)      <  0.763   (~0.0 sigma)
# P_topo (ms)      =  714.542487808645  +/- 0.000178
# P'_topo (s/s)    =  -0                +/- 9.29e-11
# P''_topo (s/s^2) =  0                 +/- 4.07e-14
# P_bary (ms)      =  N/A
# P'_bary (s/s)    =  N/A
# P''_bary (s/s^2) =  N/A
# P_orb (s)        =  N/A
# asin(i)/c (s)    =  N/A
# eccentricity     =  N/A
# w (rad)          =  N/A
# T_peri           =  N/A
######################################################
   0  1106.46
   1  1149.323
   2  1148.386
   3  997.0753
   4  874.194
   5  827.4034
   6  814.5978
   7  805.7292
   8  771.5103
   9  856.5639
  10  806.6375
  11  768.7496
  12  843.6202
  13  807.3562
  14  820.2333
  15  867.6523
  16  830.1602
  17  782.4645
  18  743.8472
  19  789.925
  20  788.5013
  21  684.3918
  22  709.8207
  23  767.8983
  24  791.5824
  25  931.9603
  26  908.6768
  27  740.2614
  28  760.6473
  29  817.123
  30  877.7528
  31  931.3657
  32  943.3732
  33  912.5988
  34  824.1615
  35  806.1027
  36  839.5294
  37  989.0064
  38  922.0316
  39  905.9822
  40  837.9189
  41  765.4455
  42  867.1776
  43  970.4892
  44  972.2667
  45  917.0418
  46  861.9853
  47  1000.719
  48  1042.964
  49  1041.654
  50  925.9649
  51  922.9953
  52  871.7809
  53  884.5964
  54  846.1033
  55  876.9123
  56  894.2155
  57  972.9041
  58  1018.378
  59  862.7413
  60  809.7762
  61  885.8632
  62  841.1733
  63  797.3039
  64  844.8179
  65  862.9776
  66  860.3897
  67  816.1719
  68  709.9446
  69  747.2006
  70  722.5107
  71  811.7418
  72  893.7472
  73  887.6927
  74  788.0991
  75  774.2289
  76  807.8237
  77  829.9614
  78  887.3896
  79  951.851
  80  1015.296
  81  977.9724
  82  839.3335
  83  837.4324
  84  856.3945
  85  696.3102
  86  861.4311
  87  921.6985
  88  926.886
  89  962.8942
  90  824.2502
  91  812.987
  92  822.3909
  93  720.2141
  94  768.4359
  95  842.3213
  96  916.225
  97  863.9298
  98  760.8948
  99  704.8647
 100  772.4269
 101  737.8285
 102  752.736
 103  726.3375
 104  793.4961
 105  765.0173
 106  692.1044
 107  781.332
 108  833.5172
 109  1009.962
 110  836.7562
 111  693.0266
 112  732.7452
 113  831.6931
 114  811.1266
 115  798.627
 116  944.5997
 117  913.449
 118  812.6526
 119  929.73
 120  914.2277
 121  766.8976
 122  806.2361
 123  684.3926
 124  767.0667
 125  846.2716
 126  802.819
 127  875.7994
 128  994.3857
 129  978.1418
 130  825.7664
 131  822.3939
 132  777.6704
 133  811.3316
 134  828.993
 135  846.5641
 136  727.0597
 137  862.0709
 138  944.5713
 139  917.0097
 140  837.5667
 141  833.1573
 142  854.8108
 143  880.9236
 144  878.9144
 145  857.6183
 146  865.1755
 147  853.4156
 148  886.7928
 149  854.8141
 150  845.8212
 151  917.235
 152  971.6241
 153  873.1
 154  872.7601
 155  846.3596
 156  938.8747
 157  914.6526
 158  894.6537
 159  867.1454
 160  805.7745
 161  922.8551
 162  1050.512
 163  1030.655
 164  860.5369
 165  877.1368
 166  883.3101
 167  835.2122
 168  936.0094
 169  882.768
 170  813.7086
 171  714.9691
 172  724.2234
 173  782.6851
 174  862.9961
 175  766.0528
 176  809.5729
 177  940.051
 178  963.1218
 179  946.1281
 180  842.2064
 181  792.6871
 182  782.7202
 183  743.1401
 184  852.0258
 185  798.4888
 186  878.2559
 187  955.3098
 188  952.2964
 189  855.1992
 190  827.0876
 191  952.881
 192  904.8132
 193  786.6415
 194  855.3946
 195  901.9753
 196  909.0573
 197  911.4031
 198  903.2313
 199  827.544
 200  790.4409
 201  877.6234
 202  833.986
 203  852.2897
 204  841.028
 205  968.2338
 206  925.9171
 207  843.5167
 208  827.6757
 209  914.0154
 210  940.4008
 211  761.9453
 212  769.4581
 213  809.0793
 214  742.4082
 215  831.0473
 216  855.2322
 217  805.7255
 218  685.3445
 219  778.9948
 220  902.8156
 221  975.7383
 222  853.876
 223  805.9378
 224  901.1998
 225  871.7388
 226  801.9067
 227  851.9473
 228  913.7016
 229  882.7194
 230  752.7733
 231  842.2315
 232  965.3791
 233  887.8982
 234  765.8076
 235  910.0089
 236  938.4416
 237  890.788
 238  881.1479
 239  849.9492
 240  936.1216
 241  890.7827
 242  924.4984
 243  924.384
 244  910.4625
 245  833.0526
 246  958.3801
 247  895.3855
 248  816.959
 249  749.0178
 250  706.8688
 251  806.9792
 252  921.319
 253  923.1759
 254  848.1742
 255  668.5871
 256  678.9072
 257  668.657
 258  802.0474
 259  827.3873
 260  857.1963
 261  760.8638
 262  957.8479
 263  834.6104
 264  748.7192
 265  840.5554
 266  838.2889
 267  872.2194
 268  832.0106
 269  845.1749
 270  804.2565
 271  808.43
 272  798.9385
 273  765.3629
 274  695.8011
 275  731.5716
 276  797.4151
 277  844.8818
 278  871.1381
 279  876.1063
 280  929.3005
 281  784.5868
 282  714.6931
 283  796.3201
 284  804.9597
 285  940.6303
 286  842.9073
 287  866.921
 288  891.032
 289  770.8301
 290  755.28
 291  906.827
 292  798.7361
 293  790.311
 294  895.1136
 295  952.6731
 296  756.2076
 297  670.4584
 298  726.2287
 299  697.4712
 300  778.6943
 301  876.4587
 302  842.7561
 303  728.6123
 304  751.0899
 305  789.9296
 306  835.3658
 307  847.7673
 308  769.9559
 309  818.129
 310  775.9213
 311  762.7465
 312  723.6439
 313  851.5392
 314  821.3137
 315  834.2703
 316  818.8825
 317  737.2134
 318  818.2305
 319  873.1241
 320  870.4258
 321  824.6658
 322  746.2331
 323  769.0588
 324  781.1599
 325  716.1882
 326  658.0374
 327  619.1671
 328  663.9946
 329  780.3755
 330  788.7
 331  751.4681
 332  762.568
 333  885.7997
 334  808.4378
 335  789.4363
 336  883.8028
 337  801.694
 338  792.7538
 339  819.2498
 340  820.9045
 341  825.1705
 342  887.5254
 343  964.7728
 344  884.4824
 345  848.3589
 346  815.3483
 347  772.8384
 348  859.965
 349  801.6052
 350  849.1871
 351  760.5659
 352  790.8464
 353  825.4542
 354  780.0048
 355  745.6313
 356  776.8278
 357  727.0021
 358  841.2596
 359  903.6072
 360  901.687
 361  814.9866
 362  939.3688
 363  806.3115
 364  707.226
 365  706.3777
 366  726.8533
 367  727.1829
 368  799.2432
 369  867.8391
 370  661.5981
 371  620.6855
 372  766.6552
 373  758.7819
 374  818.7784
 375  947.7889
 376  983.3702
 377  929.8414
 378  859.6356
 379  825.5884
 380  896.2316
 381  888.0815
 382  783.9983
 383  761.6014
 384  685.1035
 385  701.7832
 386  815.1594
 387  950.3721
 388  862.2614
 389  755.8416
 390  798.2614
 391  732.6381
 392  820.5395
 393  804.6249
 394  739.497
 395  828.0616
 396  753.4166
 397  788.0233
 398  790.7924
 399  842.1719
 400  848.6309
 401  914.1793
 402  972.7873
 403  996.3528
 404  804.2886
 405  713.5083
 406  732.5732
 407  776.504
 408  803.6406
 409  856.7061
 410  846.8531
 411  828.674
 412  760.9973
 413  740.3021
 414  908.2212
 415  809.1705
 416  774.9066
 417  795.6552
 418  827.241
 419  713.3253
 420  769.9752
 421  720.4066
 422  730.653
 423  838.0724
 424  830.7877
 425  913.7532
 426  911.5499
 427  879.6505
 428  788.5195
 429  766.9808
 430  895.1758
 431  755.8093
 432  564.4197
 433  610.6481
 434  805.814
 435  745.3871
 436  660.3418
 437  722.5591
 438  714.8498
 439  777.0322
 440  828.6193
 441  741.033
 442  774.1901
 443  820.2801
 444  864.6699
 445  845.4238
 446  829.8779
 447  711.3562
 448  806.2357
 449  843.8681
 450  750.6597
 451  851.4449
 452  918.5838
 453  906.6312
 454  830.7498
 455  890.4775
 456  904.5272
 457  821.395
 458  890.8176
 459  951.9045
 460  992.4168
 461  995.6293
 462  918.969
 463  942.7505
 464  911.1163
 465  720.3505
 466  767.7927
 467  896.0198
 468  862.0162
 469  699.5443
 470  774.6861
 471  775.2303
 472  708.8459
 473  812.692
 474  893.28
 475  776.9221
 476  764.3596
 477  945.7327
 478  1023.982
 479  895.8618
 480  763.002
 481  825.0588
 482  808.0054
 483  814.8408
 484  763.1589
 485  827.6606
 486  860.7018
 487  708.967
 488  766.4346
 489  796.6677
 490  756.1661
 491  717.6437
 492  788.7626
 493  937.5878
 494  864.429
 495  837.2585
 496  719.8127
 497  724.8875
 498  757.8992
 499  760.7498
 500  786.0663
 501  819.506
 502  917.7106
 503  880.0389
 504  858.0844
 505  861.2733
 506  853.5724
 507  948.8381
 508  999.3479
 509  951.1184
 510  1078.715
 511  1191.035
