# Input file       =  1197469409.100829_cleaned.dat
# Candidate        =  PSR_0332+5434
# Telescope        =  AR
# Epoch_topo       =  58103.599434037373
# Epoch_bary       =  N/A
# T_sample         =  0.002
# Data Folded      =  7340032
# Data Avg         =  0.100062366330523
# Data StdDev      =  1.00051673900415 
# Profile Bins     =  512
# Profile Avg      =  1434.49657329219 
# Profile StdDev   =  119.794907106747 
# Reduced chi-sqr  =  0.874
# Prob(Noise)      <  0.982   (~0.0 sigma)
# P_topo (ms)      =  714.541505476066  +/- 8.73e-05
# P'_topo (s/s)    =  -0                +/- 4.6e-11
# P''_topo (s/s^2) =  0                 +/- 2.03e-14
# P_bary (ms)      =  N/A
# P'_bary (s/s)    =  N/A
# P''_bary (s/s^2) =  N/A
# P_orb (s)        =  N/A
# asin(i)/c (s)    =  N/A
# eccentricity     =  N/A
# w (rad)          =  N/A
# T_peri           =  N/A
######################################################
   0  1678.085
   1  1708.927
   2  1729.696
   3  1571.499
   4  1371.579
   5  1341.924
   6  1348.163
   7  1379.004
   8  1391.439
   9  1480.934
  10  1563.362
  11  1552.282
  12  1482.525
  13  1431.313
  14  1502.285
  15  1505.71
  16  1532.384
  17  1397.131
  18  1495.406
  19  1498.224
  20  1535.799
  21  1491.617
  22  1438.276
  23  1431.291
  24  1446.499
  25  1517.565
  26  1581.418
  27  1525.59
  28  1496.22
  29  1545.428
  30  1480.009
  31  1415.59
  32  1416.739
  33  1480.892
  34  1326.344
  35  1354.665
  36  1344.305
  37  1372.89
  38  1416.986
  39  1423.771
  40  1500.395
  41  1502.396
  42  1449.742
  43  1374.831
  44  1459.313
  45  1454.907
  46  1337.407
  47  1383.931
  48  1384.618
  49  1310.754
  50  1308.324
  51  1412.497
  52  1343.43
  53  1342.842
  54  1490.346
  55  1487.392
  56  1291.881
  57  1306.048
  58  1423.693
  59  1500.36
  60  1462.845
  61  1456.332
  62  1466.523
  63  1464.952
  64  1427.924
  65  1393.157
  66  1420.593
  67  1372.712
  68  1450.265
  69  1487.769
  70  1366.318
  71  1333.302
  72  1294.235
  73  1339.178
  74  1314.832
  75  1372.389
  76  1348.081
  77  1365.246
  78  1428.94
  79  1443.839
  80  1478.182
  81  1474.733
  82  1525.171
  83  1487.567
  84  1507.549
  85  1475.636
  86  1509.213
  87  1497.338
  88  1465.524
  89  1389.637
  90  1430.155
  91  1469.682
  92  1478.738
  93  1545.899
  94  1483.173
  95  1390.699
  96  1368.572
  97  1390.234
  98  1453.2
  99  1341.434
 100  1436.212
 101  1404.397
 102  1401.616
 103  1387.186
 104  1355.621
 105  1335.25
 106  1342.63
 107  1416.35
 108  1578.702
 109  1582.117
 110  1506.519
 111  1343.329
 112  1326.127
 113  1434.268
 114  1393.688
 115  1316.286
 116  1378.706
 117  1396.896
 118  1464.885
 119  1439.044
 120  1444.621
 121  1518.032
 122  1464.732
 123  1402.13
 124  1345.29
 125  1353.709
 126  1425.828
 127  1491.55
 128  1486.04
 129  1451.421
 130  1469.586
 131  1488.588
 132  1393.263
 133  1318.774
 134  1407.851
 135  1387.165
 136  1446.262
 137  1372.842
 138  1284.091
 139  1305.195
 140  1284.602
 141  1350.718
 142  1386.121
 143  1417.817
 144  1415.962
 145  1455.041
 146  1369.166
 147  1292.367
 148  1327.24
 149  1449.56
 150  1429.297
 151  1343.754
 152  1507.167
 153  1440.579
 154  1295.445
 155  1395.513
 156  1406.398
 157  1434.475
 158  1451.2
 159  1427.958
 160  1454.694
 161  1464.341
 162  1490.281
 163  1496.706
 164  1318.392
 165  1268.422
 166  1381.53
 167  1398.209
 168  1528.686
 169  1473.909
 170  1409.39
 171  1404.441
 172  1341.549
 173  1418.277
 174  1394.627
 175  1489.926
 176  1532.896
 177  1541.709
 178  1364.323
 179  1437.359
 180  1351.683
 181  1383.201
 182  1395.265
 183  1405.226
 184  1357.895
 185  1266.454
 186  1347.371
 187  1319.594
 188  1397.718
 189  1325.725
 190  1499.67
 191  1529.146
 192  1522.309
 193  1441.557
 194  1284.037
 195  1268.425
 196  1316.551
 197  1330.417
 198  1291.843
 199  1397.799
 200  1462.725
 201  1436.127
 202  1483.184
 203  1553.796
 204  1554.809
 205  1457.017
 206  1450.122
 207  1394.059
 208  1414.554
 209  1571.075
 210  1590.048
 211  1457.734
 212  1391.081
 213  1378.415
 214  1308.457
 215  1379.202
 216  1451.001
 217  1509.833
 218  1395.29
 219  1273.497
 220  1311.654
 221  1517.927
 222  1408.691
 223  1310.633
 224  1479.746
 225  1541.276
 226  1569.984
 227  1585.879
 228  1396.618
 229  1391.017
 230  1426.351
 231  1607.825
 232  1601.701
 233  1518.479
 234  1429.655
 235  1355.042
 236  1297.932
 237  1291.016
 238  1243.538
 239  1267.054
 240  1322.821
 241  1421.409
 242  1523.019
 243  1540.451
 244  1491.991
 245  1516.784
 246  1589.375
 247  1516.779
 248  1471.378
 249  1534.2
 250  1487.513
 251  1388.569
 252  1479.009
 253  1498.349
 254  1465.172
 255  1469.622
 256  1549.228
 257  1503.679
 258  1549.425
 259  1583.019
 260  1618.517
 261  1502.747
 262  1440.152
 263  1403.187
 264  1454.709
 265  1477.557
 266  1409.233
 267  1427.911
 268  1456.219
 269  1546.076
 270  1474.829
 271  1365.386
 272  1379.246
 273  1435.917
 274  1560.537
 275  1531.753
 276  1610.874
 277  1498.348
 278  1494.532
 279  1430.622
 280  1355.029
 281  1444.462
 282  1457.851
 283  1577.697
 284  1478.319
 285  1493.235
 286  1450.776
 287  1495.375
 288  1405.059
 289  1407.905
 290  1466.281
 291  1408.545
 292  1512.923
 293  1464.012
 294  1520.925
 295  1419.266
 296  1455.337
 297  1495.783
 298  1564.345
 299  1463.049
 300  1522.693
 301  1528.453
 302  1448.304
 303  1440.349
 304  1360.203
 305  1409.487
 306  1368.97
 307  1324.68
 308  1385.503
 309  1485.651
 310  1571.713
 311  1424.896
 312  1400.868
 313  1354.065
 314  1376.807
 315  1545.11
 316  1509.107
 317  1484.434
 318  1488.69
 319  1434.64
 320  1331.125
 321  1344.665
 322  1329.905
 323  1453.427
 324  1510.299
 325  1440.653
 326  1398.829
 327  1397.234
 328  1439.849
 329  1490.399
 330  1491.558
 331  1524.418
 332  1530.363
 333  1572.505
 334  1405.369
 335  1409.765
 336  1406.969
 337  1408.065
 338  1352.19
 339  1371.018
 340  1480.838
 341  1528.316
 342  1579.012
 343  1516.611
 344  1557.35
 345  1463.429
 346  1467.673
 347  1339.859
 348  1341.596
 349  1495.886
 350  1507.467
 351  1388.254
 352  1371.042
 353  1337.722
 354  1338.225
 355  1434.99
 356  1399.733
 357  1396.303
 358  1533.688
 359  1452.913
 360  1534.64
 361  1427.651
 362  1244.173
 363  1287.866
 364  1373.012
 365  1398.025
 366  1435.675
 367  1470.417
 368  1512.736
 369  1460.992
 370  1395.585
 371  1358.195
 372  1415.162
 373  1437.672
 374  1453.411
 375  1439.046
 376  1362.389
 377  1377.132
 378  1393.177
 379  1426.759
 380  1430.765
 381  1474.693
 382  1468.425
 383  1492.45
 384  1460.343
 385  1395.012
 386  1366.955
 387  1444.631
 388  1393.663
 389  1347.429
 390  1427.982
 391  1420.517
 392  1530.722
 393  1581.49
 394  1636.832
 395  1472.322
 396  1429.905
 397  1508.081
 398  1460.517
 399  1539.604
 400  1600.301
 401  1622.257
 402  1445.854
 403  1416.931
 404  1467.481
 405  1460.46
 406  1472.458
 407  1591.713
 408  1655.174
 409  1540.014
 410  1441.066
 411  1500.065
 412  1463.81
 413  1380.234
 414  1428.295
 415  1419.429
 416  1386.438
 417  1435.472
 418  1346.837
 419  1247.679
 420  1333.92
 421  1339.698
 422  1425.405
 423  1391.806
 424  1396.426
 425  1461.765
 426  1400.614
 427  1397.291
 428  1383.297
 429  1457.721
 430  1327.007
 431  1275.248
 432  1321.553
 433  1363.205
 434  1282.353
 435  1359.958
 436  1377.341
 437  1381.428
 438  1355.698
 439  1325.216
 440  1373.339
 441  1482.155
 442  1526.043
 443  1575.863
 444  1437.079
 445  1326.11
 446  1380.401
 447  1360.627
 448  1412.722
 449  1446.954
 450  1418.26
 451  1397.731
 452  1386.246
 453  1415.754
 454  1490.213
 455  1492.77
 456  1279.121
 457  1345.235
 458  1396.676
 459  1452.556
 460  1573.732
 461  1506.306
 462  1331.875
 463  1360.902
 464  1439.945
 465  1436.291
 466  1327.251
 467  1467.343
 468  1473.306
 469  1412.348
 470  1380.58
 471  1383.094
 472  1289.841
 473  1434.6
 474  1509.632
 475  1469.003
 476  1342.924
 477  1257.749
 478  1294.38
 479  1385.543
 480  1440.301
 481  1320.103
 482  1430.862
 483  1369.166
 484  1353.236
 485  1412.201
 486  1410.369
 487  1324.937
 488  1360.677
 489  1556.196
 490  1517.759
 491  1513.586
 492  1523.305
 493  1429.687
 494  1469.382
 495  1542.085
 496  1544.132
 497  1476.641
 498  1444.515
 499  1436.168
 500  1426.708
 501  1373.674
 502  1380.428
 503  1449.874
 504  1454.557
 505  1559.363
 506  1528.467
 507  1456.873
 508  1431.559
 509  1436.51
 510  1510.763
 511  1656.816
