# Input file       =  1197067746.109697_cleaned.dat
# Candidate        =  PSR_0332+5434
# Telescope        =  AR
# Epoch_topo       =  58098.950556825199
# Epoch_bary       =  N/A
# T_sample         =  0.002
# Data Folded      =  7340032
# Data Avg         =  0.0513963236712931
# Data StdDev      =  1.00012614130438 
# Profile Bins     =  512
# Profile Avg      =  736.840260965345 
# Profile StdDev   =  119.748139658153 
# Reduced chi-sqr  =  0.809
# Prob(Noise)      <  0.999   (~0.0 sigma)
# P_topo (ms)      =  714.537210643099  +/- 0.000273
# P'_topo (s/s)    =  -0                +/- 1.44e-10
# P''_topo (s/s^2) =  0                 +/- 6.36e-14
# P_bary (ms)      =  N/A
# P'_bary (s/s)    =  N/A
# P''_bary (s/s^2) =  N/A
# P_orb (s)        =  N/A
# asin(i)/c (s)    =  N/A
# eccentricity     =  N/A
# w (rad)          =  N/A
# T_peri           =  N/A
######################################################
   0  1022.445
   1  1086.055
   2  872.2497
   3  714.3893
   4  710.5406
   5  740.221
   6  615.3914
   7  590.7755
   8  651.2734
   9  711.7535
  10  682.1846
  11  697.7761
  12  731.72
  13  745.8696
  14  691.1008
  15  694.1509
  16  781.3876
  17  793.5436
  18  813.9773
  19  822.0447
  20  768.7556
  21  764.1223
  22  844.5129
  23  854.7424
  24  623.8541
  25  658.6631
  26  712.2481
  27  768.8224
  28  759.3601
  29  753.1628
  30  825.5329
  31  830.0623
  32  821.2639
  33  730.1331
  34  802.4583
  35  916.671
  36  863.7015
  37  748.9128
  38  642.2755
  39  718.386
  40  674.4362
  41  699.6084
  42  681.0048
  43  771.0744
  44  776.9943
  45  728.4635
  46  724.2578
  47  654.7782
  48  497.4752
  49  707.8901
  50  829.8039
  51  708.1662
  52  683.4595
  53  699.4499
  54  802.9036
  55  761.4627
  56  737.183
  57  865.9653
  58  899.2595
  59  781.8378
  60  770.0976
  61  858.2833
  62  887.9133
  63  712.7998
  64  792.048
  65  849.0211
  66  742.6736
  67  826.5824
  68  762.7757
  69  654.7773
  70  717.0288
  71  726.7701
  72  792.1718
  73  722.8284
  74  717.751
  75  742.4222
  76  734.9126
  77  750.9756
  78  705.5336
  79  789.7645
  80  645.4317
  81  547.3486
  82  600.5245
  83  708.6516
  84  756.8137
  85  826.181
  86  839.7458
  87  776.2806
  88  777.0383
  89  726.0778
  90  622.1504
  91  658.295
  92  811.0585
  93  812.9114
  94  770.381
  95  780.0657
  96  737.9407
  97  619.264
  98  650.0378
  99  723.0607
 100  755.842
 101  754.1961
 102  741.8334
 103  813.2557
 104  682.0797
 105  678.2389
 106  777.3538
 107  858.865
 108  746.3953
 109  684.2678
 110  777.6015
 111  663.9403
 112  680.17
 113  837.4523
 114  825.7626
 115  776.3541
 116  800.5164
 117  729.1334
 118  681.148
 119  735.4842
 120  701.2975
 121  686.1107
 122  759.0986
 123  683.7509
 124  719.1022
 125  797.0884
 126  747.9944
 127  803.6268
 128  827.9031
 129  857.3698
 130  808.4864
 131  759.7641
 132  836.7079
 133  689.1318
 134  783.4396
 135  753.6439
 136  764.3781
 137  702.7392
 138  726.2261
 139  678.1252
 140  710.9042
 141  748.7966
 142  787.6259
 143  685.5934
 144  706.8812
 145  684.1009
 146  618.204
 147  732.1909
 148  736.1805
 149  730.8461
 150  725.3234
 151  795.7153
 152  740.8035
 153  741.9332
 154  899.5105
 155  731.5796
 156  600.8131
 157  714.9061
 158  708.5587
 159  725.4633
 160  733.1331
 161  735.6267
 162  678.0673
 163  732.3523
 164  736.7443
 165  780.3643
 166  782.4621
 167  828.2853
 168  834.227
 169  719.6733
 170  695.1251
 171  692.1414
 172  651.9986
 173  538.3912
 174  573.1567
 175  740.9844
 176  741.5817
 177  641.9673
 178  665.5672
 179  731.6416
 180  778.4774
 181  776.9315
 182  870.47
 183  861.7518
 184  797.0363
 185  806.1382
 186  628.1714
 187  599.6519
 188  761.5079
 189  744.0447
 190  702.4461
 191  705.739
 192  826.7459
 193  800.6619
 194  812.8237
 195  784.8512
 196  723.1597
 197  726.6999
 198  697.587
 199  784.3046
 200  801.3755
 201  970.774
 202  856.7618
 203  808.3017
 204  852.9158
 205  768.0595
 206  779.9003
 207  799.3652
 208  760.0487
 209  774.2207
 210  740.5512
 211  666.89
 212  605.109
 213  712.3763
 214  663.5748
 215  688.312
 216  703.0384
 217  721.8873
 218  733.9456
 219  580.2233
 220  574.2144
 221  686.5416
 222  636.5911
 223  673.3047
 224  697.3104
 225  715.8982
 226  842.4082
 227  698.3738
 228  655.5395
 229  660.4527
 230  756.1793
 231  712.8024
 232  653.9004
 233  755.5262
 234  748.4797
 235  715.6102
 236  831.521
 237  815.6644
 238  792.3478
 239  824.0536
 240  717.9384
 241  756.6607
 242  708.046
 243  760.1271
 244  760.7272
 245  717.9702
 246  750.3904
 247  766.4706
 248  852.1609
 249  696.5751
 250  618.4401
 251  801.2798
 252  746.1625
 253  697.6825
 254  745.4471
 255  742.9399
 256  720.4571
 257  829.4536
 258  871.1802
 259  805.2365
 260  819.9138
 261  801.8254
 262  728.697
 263  725.7444
 264  692.3345
 265  742.0961
 266  758.6105
 267  788.5087
 268  752.9272
 269  696.7462
 270  691.9509
 271  726.7925
 272  872.4439
 273  880.8819
 274  818.1218
 275  812.0932
 276  757.8704
 277  659.6791
 278  594.9815
 279  685.1519
 280  679.4308
 281  597.2455
 282  634.0661
 283  698.5602
 284  621.5156
 285  626.7416
 286  621.7981
 287  511.8081
 288  680.0944
 289  772.3811
 290  682.3999
 291  748.8001
 292  754.9782
 293  737.908
 294  716.5844
 295  726.5511
 296  821.8992
 297  707.901
 298  684.379
 299  712.0557
 300  721.2941
 301  806.5112
 302  702.4077
 303  668.9847
 304  660.986
 305  684.967
 306  636.7847
 307  603.0045
 308  719.5037
 309  728.3553
 310  767.2994
 311  744.83
 312  684.3476
 313  815.8453
 314  711.4469
 315  595.5325
 316  590.3774
 317  706.7065
 318  743.1561
 319  698.2654
 320  685.6664
 321  646.3319
 322  625.4886
 323  695.197
 324  669.9611
 325  694.6809
 326  711.9566
 327  735.9485
 328  771.3947
 329  755.6179
 330  756.8084
 331  806.4884
 332  818.585
 333  750.4304
 334  717.5032
 335  761.3439
 336  851.2849
 337  767.7659
 338  726.597
 339  785.239
 340  777.2026
 341  663.6445
 342  758.1259
 343  804.5324
 344  698.7227
 345  712.8699
 346  811.8058
 347  943.356
 348  870.7783
 349  783.0815
 350  743.7557
 351  682.744
 352  756.3704
 353  678.9026
 354  694.9425
 355  811.4332
 356  815.6393
 357  704.0168
 358  778.4879
 359  750.8756
 360  770.1027
 361  740.6329
 362  900.9761
 363  887.7349
 364  803.4014
 365  784.1166
 366  808.9946
 367  790.1576
 368  782.1389
 369  853.1774
 370  781.2462
 371  790.3159
 372  795.4562
 373  777.7927
 374  865.5312
 375  694.0688
 376  672.5082
 377  784.5255
 378  871.2345
 379  869.5321
 380  781.4738
 381  772.9365
 382  787.5503
 383  743.8269
 384  919.617
 385  854.7615
 386  818.7776
 387  774.1992
 388  700.8724
 389  662.5623
 390  626.4186
 391  710.4735
 392  830.4209
 393  807.6657
 394  881.6733
 395  790.4473
 396  858.8377
 397  855.6049
 398  714.8425
 399  713.994
 400  699.9046
 401  632.183
 402  540.6428
 403  726.2651
 404  750.8846
 405  816.2344
 406  798.7156
 407  799.5997
 408  644.1157
 409  682.6675
 410  680.0325
 411  679.5836
 412  740.9775
 413  817.7748
 414  797.726
 415  635.4852
 416  569.5962
 417  684.9741
 418  699.0328
 419  714.7697
 420  594.3195
 421  609.9685
 422  671.9557
 423  749.286
 424  672.7188
 425  668.6546
 426  769.203
 427  737.5476
 428  675.7078
 429  704.8184
 430  709.9703
 431  669.735
 432  679.3273
 433  717.8008
 434  675.5462
 435  649.1058
 436  743.4014
 437  756.3657
 438  688.9211
 439  657.4502
 440  646.542
 441  658.4482
 442  712.9903
 443  741.6512
 444  801.5317
 445  731.0165
 446  698.6556
 447  575.4661
 448  544.9547
 449  594.4076
 450  736.8983
 451  793.7301
 452  743.1942
 453  844.7462
 454  916.0866
 455  793.6886
 456  769.231
 457  720.8083
 458  661.5594
 459  668.2487
 460  701.1441
 461  807.9662
 462  858.3935
 463  658.6467
 464  748.9136
 465  637.532
 466  636.6177
 467  815.4775
 468  830.9355
 469  631.738
 470  705.8495
 471  777.4355
 472  772.6702
 473  595.6702
 474  663.4601
 475  858.6146
 476  789.5345
 477  661.601
 478  754.1158
 479  697.6729
 480  667.2854
 481  658.5081
 482  666.686
 483  676.1298
 484  752.6198
 485  685.363
 486  655.5925
 487  604.614
 488  563.5152
 489  645.2163
 490  598.8925
 491  680.6299
 492  745.2952
 493  721.8092
 494  720.3207
 495  696.1978
 496  661.456
 497  670.7081
 498  648.894
 499  692.5906
 500  597.6203
 501  619.8316
 502  717.7019
 503  761.1729
 504  742.947
 505  821.2338
 506  735.4115
 507  699.9964
 508  860.0563
 509  782.1091
 510  870.0908
 511  987.1038
