# Input file       =  1197052844.123184_cleaned.dat
# Candidate        =  PSR_0332+5434
# Telescope        =  AR
# Epoch_topo       =  58098.778080129443
# Epoch_bary       =  N/A
# T_sample         =  0.002
# Data Folded      =  7340032
# Data Avg         =  0.0574370177729787
# Data StdDev      =  1.00018148777514 
# Profile Bins     =  512
# Profile Avg      =  822.771158208811 
# Profile StdDev   =  119.754766459149 
# Reduced chi-sqr  =  0.743
# Prob(Noise)      <  1   (~0.0 sigma)
# P_topo (ms)      =  714.536701537144  +/- 7.69e-05
# P'_topo (s/s)    =  -0                +/- 4.06e-11
# P''_topo (s/s^2) =  0                 +/- 1.79e-14
# P_bary (ms)      =  N/A
# P'_bary (s/s)    =  N/A
# P''_bary (s/s^2) =  N/A
# P_orb (s)        =  N/A
# asin(i)/c (s)    =  N/A
# eccentricity     =  N/A
# w (rad)          =  N/A
# T_peri           =  N/A
######################################################
   0  1042.644
   1  1044.18
   2  869.1371
   3  822.0364
   4  791.0748
   5  671.3885
   6  678.1972
   7  822.861
   8  855.7797
   9  714.8358
  10  674.1642
  11  812.7452
  12  875.0405
  13  857.9688
  14  864.355
  15  896.3494
  16  913.9314
  17  843.3406
  18  829.1665
  19  830.2761
  20  809.7133
  21  806.3897
  22  851.7858
  23  819.4484
  24  755.3843
  25  779.8116
  26  768.0659
  27  795.0891
  28  780.6775
  29  830.5339
  30  818.361
  31  853.6688
  32  800.2702
  33  800.3832
  34  742.8088
  35  836.0935
  36  856.6301
  37  744.1945
  38  748.8326
  39  716.7473
  40  828.352
  41  834.5769
  42  893.2904
  43  960.8277
  44  909.8868
  45  828.0198
  46  775.0598
  47  884.9634
  48  811.3275
  49  814.8428
  50  952.4514
  51  1017.068
  52  955.5239
  53  799.2214
  54  769.3046
  55  672.2579
  56  909.4241
  57  907.5583
  58  907.5308
  59  854.2568
  60  821.2097
  61  869.9465
  62  827.3228
  63  821.0803
  64  744.6127
  65  824.7619
  66  798.6565
  67  787.0363
  68  772.6075
  69  806.5301
  70  796.4095
  71  779.6313
  72  881.6351
  73  844.5353
  74  787.8333
  75  762.304
  76  729.4807
  77  694.7257
  78  766.0681
  79  703.328
  80  710.8239
  81  828.7321
  82  774.7645
  83  820.7777
  84  826.412
  85  937.6068
  86  872.2646
  87  805.9185
  88  878.4031
  89  892.3148
  90  903.5363
  91  861.8643
  92  949.1068
  93  938.8135
  94  877.1424
  95  832.2783
  96  821.8668
  97  909.0209
  98  890.2401
  99  881.4321
 100  894.7194
 101  842.7775
 102  806.1124
 103  821.488
 104  854.8389
 105  805.4034
 106  804.5145
 107  837.4334
 108  865.9503
 109  785.875
 110  819.2869
 111  828.7185
 112  910.8419
 113  861.1985
 114  893.4369
 115  878.527
 116  908.4872
 117  1031.095
 118  1000.795
 119  915.5063
 120  895.1617
 121  985.8622
 122  999.1519
 123  954.8931
 124  889.6381
 125  866.2512
 126  796.4475
 127  848.1116
 128  908.0624
 129  929.5797
 130  856.5897
 131  816.2109
 132  812.2443
 133  795.7944
 134  835.6377
 135  801.7608
 136  891.564
 137  917.6959
 138  945.0573
 139  807.5528
 140  736.3798
 141  823.9141
 142  815.3613
 143  875.6315
 144  966.9929
 145  844.2377
 146  709.3353
 147  782.8284
 148  737.7771
 149  839.3159
 150  862.5101
 151  875.8547
 152  830.9335
 153  781.3972
 154  770.2597
 155  775.2111
 156  797.5314
 157  827.9847
 158  778.6516
 159  743.3231
 160  847.3999
 161  968.5195
 162  938.4099
 163  816.176
 164  810.799
 165  897.1531
 166  880.1016
 167  858.9872
 168  881.9442
 169  819.3193
 170  859.8903
 171  812.6729
 172  853.5851
 173  862.7993
 174  950.3877
 175  993.504
 176  989.4421
 177  919.9232
 178  845.5811
 179  870.7144
 180  905.717
 181  805.8427
 182  778.3598
 183  859.2941
 184  784.2698
 185  714.7112
 186  758.2921
 187  708.1318
 188  869.3713
 189  768.983
 190  801.8624
 191  782.8641
 192  733.3894
 193  755.2676
 194  868.1625
 195  926.1729
 196  861.7128
 197  776.8627
 198  814.5516
 199  849.1193
 200  971.1267
 201  897.0088
 202  922.6234
 203  843.9136
 204  797.4211
 205  762.8184
 206  832.7468
 207  786.4756
 208  836.3522
 209  875.7402
 210  951.95
 211  756.7392
 212  737.3082
 213  798.258
 214  841.6763
 215  850.4916
 216  865.06
 217  877.5936
 218  912.7929
 219  862.9236
 220  772.329
 221  766.6932
 222  742.4838
 223  912.0899
 224  828.8543
 225  898.9614
 226  915.1054
 227  884.931
 228  869.0219
 229  854.9312
 230  906.5367
 231  905.5273
 232  865.9618
 233  900.6464
 234  724.9842
 235  644.9868
 236  749.837
 237  922.8916
 238  980.0434
 239  852.3123
 240  784.5755
 241  738.5591
 242  730.2672
 243  789.3323
 244  883.5895
 245  870.193
 246  797.0694
 247  844.9061
 248  856.9021
 249  838.2886
 250  842.9014
 251  889.1608
 252  880.6459
 253  874.7642
 254  911.548
 255  907.1893
 256  759.6795
 257  796.2156
 258  934.1917
 259  840.686
 260  927.5145
 261  900.5304
 262  835.3192
 263  750.8209
 264  812.2252
 265  821.4506
 266  752.3858
 267  751.3558
 268  831.2193
 269  930.8415
 270  863.2927
 271  839.2764
 272  814.2523
 273  836.1803
 274  800.7288
 275  746.7247
 276  831.1502
 277  972.3909
 278  863.6577
 279  829.3934
 280  847.3886
 281  825.6472
 282  840.1215
 283  883.8582
 284  790.2967
 285  695.2086
 286  715.3998
 287  681.0669
 288  725.6852
 289  819.0612
 290  946.7613
 291  883.8488
 292  770.0359
 293  804.9594
 294  808.3233
 295  820.995
 296  887.8355
 297  808.4664
 298  881.3156
 299  932.0328
 300  872.7632
 301  890.1999
 302  831.5668
 303  765.8948
 304  819.199
 305  758.4613
 306  705.6371
 307  697.6973
 308  772.2629
 309  722.4279
 310  757.9448
 311  785.2498
 312  844.1252
 313  761.12
 314  779.6635
 315  832.4083
 316  769.1938
 317  798.4044
 318  825.4373
 319  875.418
 320  835.2322
 321  683.5402
 322  715.311
 323  745.6456
 324  824.8044
 325  777.0505
 326  858.3396
 327  859.8632
 328  817.5836
 329  827.0508
 330  925.0554
 331  879.9438
 332  835.2784
 333  851.5556
 334  868.5394
 335  789.6523
 336  778.0717
 337  750.6651
 338  818.8964
 339  836.6132
 340  838.1591
 341  785.2358
 342  783.4884
 343  872.3555
 344  764.9485
 345  729.2866
 346  823.1006
 347  954.8224
 348  870.1429
 349  726.3746
 350  754.3851
 351  779.1699
 352  913.8258
 353  851.0874
 354  702.974
 355  707.6583
 356  759.7629
 357  735.5881
 358  771.7347
 359  805.5877
 360  743.7048
 361  853.2239
 362  860.696
 363  655.7866
 364  610.1269
 365  694.4248
 366  812.4451
 367  774.4242
 368  836.6771
 369  888.3545
 370  781.3809
 371  802.554
 372  737.0722
 373  760.0662
 374  769.6201
 375  827.8737
 376  884.2917
 377  750.7111
 378  590.3854
 379  648.4763
 380  784.3499
 381  726.7544
 382  731.6921
 383  766.4734
 384  788.1489
 385  843.6738
 386  804.4514
 387  767.6334
 388  796.7687
 389  886.0087
 390  845.6915
 391  842.8691
 392  806.8238
 393  746.4835
 394  756.611
 395  779.6236
 396  762.5918
 397  843.5961
 398  882.4497
 399  828.1714
 400  777.7122
 401  759.0204
 402  693.0078
 403  683.8734
 404  766.5613
 405  850.3313
 406  912.7599
 407  858.5015
 408  797.3314
 409  819.3339
 410  844.7452
 411  845.5357
 412  899.6907
 413  866.6837
 414  762.7103
 415  833.9242
 416  776.8482
 417  776.9365
 418  807.8271
 419  836.7096
 420  805.075
 421  792.5112
 422  748.1118
 423  802.9243
 424  828.7473
 425  823.7606
 426  881.2132
 427  873.2323
 428  722.2473
 429  668.1325
 430  730.6022
 431  779.1506
 432  769.0098
 433  764.3594
 434  797.2849
 435  732.6523
 436  680.7864
 437  758.4904
 438  771.3376
 439  706.9435
 440  726.5781
 441  810.8732
 442  888.6594
 443  873.7709
 444  813.1392
 445  673.4763
 446  752.9041
 447  828.6841
 448  860.1355
 449  882.9476
 450  726.0007
 451  645.9164
 452  685.8444
 453  739.9964
 454  746.7667
 455  699.8101
 456  726.9636
 457  707.4053
 458  699.6609
 459  660.2655
 460  605.1722
 461  683.835
 462  783.8243
 463  803.8624
 464  721.7286
 465  762.1782
 466  741.5411
 467  647.653
 468  710.9069
 469  807.821
 470  765.4036
 471  814.8145
 472  726.5879
 473  795.4406
 474  742.3525
 475  790.3244
 476  844.3704
 477  932.7913
 478  889.0353
 479  845.4795
 480  917.6569
 481  972.1694
 482  827.8279
 483  799.4362
 484  884.5613
 485  875.8521
 486  817.0049
 487  836.4929
 488  797.0862
 489  880.0878
 490  877.1017
 491  868.9944
 492  885.4612
 493  917.6577
 494  970.1543
 495  922.595
 496  864.2117
 497  834.4518
 498  910.3519
 499  879.9533
 500  829.6232
 501  849.6076
 502  847.9503
 503  791.3745
 504  767.6132
 505  901.0093
 506  884.2938
 507  878.0054
 508  917.8306
 509  955.3712
 510  1024.412
 511  985.553
