# Input file       =  1197469409.100829_cleaned.dat
# Candidate        =  PSR_0332+5434
# Telescope        =  AR
# Epoch_topo       =  58103.599434037373
# Epoch_bary       =  N/A
# T_sample         =  0.002
# Data Folded      =  7340032
# Data Avg         =  0.100062366330523
# Data StdDev      =  1.00051673900415 
# Profile Bins     =  512
# Profile Avg      =  1434.49657328901 
# Profile StdDev   =  119.794907106747 
# Reduced chi-sqr  =  0.899
# Prob(Noise)      <  0.951   (~0.0 sigma)
# P_topo (ms)      =  714.541505366571  +/- 8.66e-05
# P'_topo (s/s)    =  -0                +/- 4.57e-11
# P''_topo (s/s^2) =  0                 +/- 2.02e-14
# P_bary (ms)      =  N/A
# P'_bary (s/s)    =  N/A
# P''_bary (s/s^2) =  N/A
# P_orb (s)        =  N/A
# asin(i)/c (s)    =  N/A
# eccentricity     =  N/A
# w (rad)          =  N/A
# T_peri           =  N/A
######################################################
   0  1659.66
   1  1680.896
   2  1733.558
   3  1681.312
   4  1481.22
   5  1329.895
   6  1360.829
   7  1356.37
   8  1384.414
   9  1403.807
  10  1538.259
  11  1569.192
  12  1530.695
  13  1448.066
  14  1439.891
  15  1526.579
  16  1511.504
  17  1485.704
  18  1399.594
  19  1528.484
  20  1508.07
  21  1531.569
  22  1462.002
  23  1414.302
  24  1470.761
  25  1456.285
  26  1546.451
  27  1585.042
  28  1465.169
  29  1560.011
  30  1492.118
  31  1470.44
  32  1382.792
  33  1480.709
  34  1402.111
  35  1312.875
  36  1374.131
  37  1333.536
  38  1416.698
  39  1401.738
  40  1464.032
  41  1516.481
  42  1485.099
  43  1397.363
  44  1398.046
  45  1490.705
  46  1390.11
  47  1346.515
  48  1393.193
  49  1364.868
  50  1296.63
  51  1360.782
  52  1397.281
  53  1306.226
  54  1412.352
  55  1528.576
  56  1402.572
  57  1238.045
  58  1384.411
  59  1462.451
  60  1501.826
  61  1428.482
  62  1480.047
  63  1463.584
  64  1470.125
  65  1393.154
  66  1402.117
  67  1403.855
  68  1377.542
  69  1501.046
  70  1444.826
  71  1333.361
  72  1328.88
  73  1278.25
  74  1356.838
  75  1317.627
  76  1407.712
  77  1302.744
  78  1410.417
  79  1422.042
  80  1479.005
  81  1468.853
  82  1499.19
  83  1515.754
  84  1491.817
  85  1503.904
  86  1470.913
  87  1513.62
  88  1479.404
  89  1451.075
  90  1379.335
  91  1455.688
  92  1473.745
  93  1510.522
  94  1556.396
  95  1397.962
  96  1401.083
  97  1342.734
  98  1466.548
  99  1367.46
 100  1376.084
 101  1443.86
 102  1396.259
 103  1415.61
 104  1348.831
 105  1363.031
 106  1323.073
 107  1377.638
 108  1457.404
 109  1620.663
 110  1563.409
 111  1451.823
 112  1290.676
 113  1368.773
 114  1451.634
 115  1337.315
 116  1336.223
 117  1393.675
 118  1417.709
 119  1477.654
 120  1406.161
 121  1491.891
 122  1514.149
 123  1440.195
 124  1376.316
 125  1327.38
 126  1377.517
 127  1467.844
 128  1498.811
 129  1459.591
 130  1451.07
 131  1494.292
 132  1461.313
 133  1356.539
 134  1336.982
 135  1415.465
 136  1406.267
 137  1429.419
 138  1327.856
 139  1262.519
 140  1322.792
 141  1289.453
 142  1392.945
 143  1380.79
 144  1438.075
 145  1428.518
 146  1423.002
 147  1321.295
 148  1283.381
 149  1392.928
 150  1463.207
 151  1359.687
 152  1411.567
 153  1527.553
 154  1351.501
 155  1320.416
 156  1423.452
 157  1402.278
 158  1484.667
 159  1393.034
 160  1459.878
 161  1447.779
 162  1494.717
 163  1484.182
 164  1427.983
 165  1272.126
 166  1321.603
 167  1394.365
 168  1440.136
 169  1548.432
 170  1442.173
 171  1407.66
 172  1360.68
 173  1349.571
 174  1434.06
 175  1407.464
 176  1533.969
 177  1539.383
 178  1470.598
 179  1392.178
 180  1398.973
 181  1363.87
 182  1372.396
 183  1414.19
 184  1406.508
 185  1283.644
 186  1306.63
 187  1322.786
 188  1369.716
 189  1369.37
 190  1372.161
 191  1542.847
 192  1535.627
 193  1498.14
 194  1362.173
 195  1247.849
 196  1301.12
 197  1335.689
 198  1293.012
 199  1328.738
 200  1441.129
 201  1468.678
 202  1423.581
 203  1534.118
 204  1583.517
 205  1500.839
 206  1443.919
 207  1420.196
 208  1383.726
 209  1484.922
 210  1612.082
 211  1529.181
 212  1412.757
 213  1402.469
 214  1339.78
 215  1333.716
 216  1402.356
 217  1505.154
 218  1456.095
 219  1339.596
 220  1236.279
 221  1432.619
 222  1515.987
 223  1330.908
 224  1359.89
 225  1528.708
 226  1550.465
 227  1605.796
 228  1493.211
 229  1369.184
 230  1406.517
 231  1501.764
 232  1631.307
 233  1554.911
 234  1476.726
 235  1418.317
 236  1311.4
 237  1297.4
 238  1266.74
 239  1247.634
 240  1315.038
 241  1321.902
 242  1499.106
 243  1508.183
 244  1566.44
 245  1445.312
 246  1580.274
 247  1567.976
 248  1475.836
 249  1499.561
 250  1524.371
 251  1445.823
 252  1398.9
 253  1516.535
 254  1479.475
 255  1458.15
 256  1521.799
 257  1518.597
 258  1531.932
 259  1535.973
 260  1622.272
 261  1568.039
 262  1479.576
 263  1399.268
 264  1436.865
 265  1464.788
 266  1457.66
 267  1402.216
 268  1434.209
 269  1515.188
 270  1519.655
 271  1420.385
 272  1356.039
 273  1394.871
 274  1523.276
 275  1527.919
 276  1583.136
 277  1564.625
 278  1489.99
 279  1480.204
 280  1366.105
 281  1397.403
 282  1456.84
 283  1515.408
 284  1534.661
 285  1477.785
 286  1464.912
 287  1510.702
 288  1428.111
 289  1414.475
 290  1422.492
 291  1456.513
 292  1441.445
 293  1490.382
 294  1501.519
 295  1489.208
 296  1430.937
 297  1422.739
 298  1562.903
 299  1520.111
 300  1474.827
 301  1546.781
 302  1466.85
 303  1474.443
 304  1398.221
 305  1379.931
 306  1396.436
 307  1334.959
 308  1345.254
 309  1416.398
 310  1557.277
 311  1505.887
 312  1407.027
 313  1399.748
 314  1316.575
 315  1461.481
 316  1552
 317  1500.584
 318  1480.897
 319  1475.952
 320  1373.093
 321  1353.866
 322  1312.746
 323  1374.508
 324  1500.894
 325  1482.403
 326  1434.19
 327  1361.602
 328  1425.857
 329  1460.101
 330  1519.937
 331  1488.51
 332  1519.939
 333  1563.359
 334  1508.902
 335  1376.849
 336  1417.55
 337  1417.2
 338  1399.252
 339  1319.776
 340  1426.726
 341  1496.701
 342  1573.24
 343  1545.551
 344  1533.899
 345  1518.698
 346  1462.49
 347  1435.354
 348  1304.74
 349  1399.607
 350  1542.061
 351  1448.522
 352  1380.877
 353  1344.349
 354  1324.766
 355  1389.536
 356  1444.94
 357  1360.937
 358  1455.056
 359  1519.81
 360  1467.992
 361  1543.955
 362  1297.881
 363  1259.146
 364  1331.522
 365  1403.54
 366  1382.534
 367  1468.838
 368  1481.488
 369  1516.111
 370  1401.832
 371  1389.509
 372  1366.491
 373  1455.958
 374  1425.813
 375  1467.721
 376  1403.245
 377  1346.852
 378  1396.28
 379  1391.468
 380  1435.886
 381  1447.675
 382  1494.186
 383  1453.505
 384  1510.92
 385  1415.77
 386  1394.376
 387  1376.495
 388  1449.358
 389  1343.902
 390  1395.36
 391  1423.329
 392  1455.848
 393  1562.254
 394  1618.389
 395  1570.385
 396  1425.055
 397  1466.565
 398  1514.832
 399  1469.019
 400  1568.89
 401  1614.072
 402  1565.806
 403  1411.86
 404  1440.52
 405  1479.11
 406  1434.079
 407  1544.576
 408  1614.864
 409  1645.458
 410  1452.6
 411  1466.782
 412  1512.206
 413  1396.537
 414  1396.864
 415  1448.667
 416  1410.115
 417  1369.315
 418  1437.673
 419  1270.918
 420  1302.588
 421  1338.984
 422  1343.699
 423  1457.127
 424  1366.949
 425  1450.292
 426  1436.484
 427  1383.825
 428  1395.408
 429  1409.251
 430  1425.754
 431  1270.459
 432  1281.366
 433  1392.276
 434  1297.904
 435  1330.135
 436  1342.139
 437  1396.595
 438  1366.639
 439  1345.422
 440  1318.315
 441  1443.888
 442  1499.817
 443  1551.087
 444  1538.99
 445  1352.595
 446  1376.79
 447  1364.013
 448  1360.815
 449  1437.386
 450  1441.339
 451  1428.869
 452  1345.109
 453  1428.974
 454  1421.317
 455  1558.863
 456  1365.657
 457  1286.199
 458  1380.02
 459  1422.409
 460  1488.107
 461  1568.953
 462  1425.904
 463  1315.022
 464  1428.384
 465  1433.381
 466  1396.561
 467  1343.614
 468  1539.135
 469  1402.416
 470  1431.42
 471  1357.835
 472  1347.995
 473  1308.573
 474  1501.921
 475  1500.03
 476  1434.949
 477  1284.258
 478  1269.474
 479  1311.563
 480  1451.776
 481  1361.228
 482  1377.395
 483  1408.598
 484  1355.181
 485  1381.621
 486  1408.677
 487  1382.337
 488  1304.165
 489  1472.896
 490  1549.867
 491  1501.083
 492  1524.608
 493  1495.187
 494  1427.585
 495  1500.34
 496  1562.873
 497  1503.838
 498  1486.339
 499  1406.398
 500  1458.72
 501  1386.343
 502  1386.248
 503  1395.522
 504  1447.188
 505  1502.632
 506  1565.084
 507  1510.139
 508  1412.264
 509  1456.196
 510  1426.789
 511  1606.385
