# Input file       =  1197641248.109297_cleaned.dat
# Candidate        =  PSR_0332+5434
# Telescope        =  AR
# Epoch_topo       =  58105.588311450199
# Epoch_bary       =  N/A
# T_sample         =  0.002
# Data Folded      =  7143424
# Data Avg         =  0.0437886650637009
# Data StdDev      =  1.00017262187894 
# Profile Bins     =  512
# Profile Avg      =  610.927622665434 
# Profile StdDev   =  118.138974333858 
# Reduced chi-sqr  =  1.285
# Prob(Noise)      <  1.31e-05   (~4.2 sigma)
# P_topo (ms)      =  714.543463681279  +/- 6.13e-05
# P'_topo (s/s)    =  -0                +/- 3.32e-11
# P''_topo (s/s^2) =  0                 +/- 1.51e-14
# P_bary (ms)      =  N/A
# P'_bary (s/s)    =  N/A
# P''_bary (s/s^2) =  N/A
# P_orb (s)        =  N/A
# asin(i)/c (s)    =  N/A
# eccentricity     =  N/A
# w (rad)          =  N/A
# T_peri           =  N/A
######################################################
   0  1033.472
   1  935.5996
   2  854.4951
   3  785.3316
   4  737.5081
   5  783.4927
   6  775.2831
   7  758.8245
   8  730.0956
   9  648.3378
  10  688.774
  11  681.5524
  12  705.7466
  13  722.6192
  14  660.8061
  15  723.6883
  16  721.2645
  17  687.8646
  18  652.129
  19  753.4517
  20  746.0646
  21  759.0908
  22  705.751
  23  590.2868
  24  680.1639
  25  622.768
  26  654.0051
  27  584.4301
  28  632.9056
  29  616.0693
  30  562.5776
  31  609.4758
  32  697.7322
  33  615.3966
  34  603.3572
  35  600.7114
  36  592.3965
  37  562.2477
  38  525.6843
  39  633.7645
  40  645.1219
  41  626.1625
  42  521.655
  43  503.616
  44  538.5665
  45  493.054
  46  523.0959
  47  532.8456
  48  574.869
  49  621.6573
  50  495.4697
  51  350.3971
  52  357.0263
  53  538.5763
  54  574.4492
  55  643.9253
  56  575.6465
  57  655.45
  58  575.1191
  59  610.7851
  60  627.7556
  61  640.4465
  62  612.6561
  63  575.3589
  64  569.6897
  65  590.2285
  66  625.468
  67  686.7043
  68  607.3781
  69  592.2265
  70  662.5432
  71  770.2894
  72  739.7433
  73  650.7182
  74  619.1592
  75  613.7668
  76  597.4692
  77  720.4632
  78  708.9916
  79  602.2356
  80  674.9203
  81  753.9351
  82  682.3059
  83  466.5949
  84  584.2328
  85  652.1834
  86  583.6631
  87  568.2194
  88  685.8411
  89  852.9044
  90  704.7335
  91  497.9933
  92  420.1638
  93  553.6989
  94  585.868
  95  629.9893
  96  633.2761
  97  624.3478
  98  689.1475
  99  761.6965
 100  602.265
 101  549.6581
 102  595.0898
 103  565.7607
 104  758.265
 105  731.7693
 106  622.7748
 107  669.0399
 108  510.3958
 109  592.0204
 110  663.7395
 111  625.5743
 112  663.3473
 113  769.4479
 114  719.9666
 115  689.5362
 116  699.7992
 117  560.4051
 118  609.6249
 119  589.2863
 120  572.7993
 121  664.2307
 122  747.5156
 123  525.105
 124  508.2314
 125  564.177
 126  552.3433
 127  624.305
 128  602.592
 129  676.3041
 130  664.6603
 131  713.0305
 132  605.7443
 133  573.7224
 134  481.5304
 135  527.0331
 136  669.7453
 137  594.9409
 138  658.8868
 139  644.6757
 140  742.7072
 141  664.4942
 142  546.9971
 143  539.5916
 144  496.6169
 145  558.0499
 146  623.8347
 147  628.5038
 148  685.9492
 149  602.9567
 150  530.3045
 151  502.7081
 152  466.2942
 153  645.3527
 154  699.7329
 155  621.3444
 156  571.407
 157  539.3208
 158  459.0317
 159  537.4455
 160  579.9767
 161  507.5294
 162  489.2541
 163  608.1591
 164  683.6791
 165  634.6146
 166  487.891
 167  588.7954
 168  515.3835
 169  410.0398
 170  456.1762
 171  560.0558
 172  538.5503
 173  577.4658
 174  584.2266
 175  595.9404
 176  544.4471
 177  506.2502
 178  676.9806
 179  762.3466
 180  762.0453
 181  700.601
 182  650.264
 183  608.5202
 184  578.274
 185  618.1362
 186  673.0295
 187  547.4891
 188  610.4677
 189  747.2248
 190  594.6604
 191  439.7731
 192  421.5381
 193  569.2742
 194  652.1861
 195  611.7172
 196  656.9937
 197  734.0215
 198  607.4946
 199  514.0678
 200  452.8619
 201  562.5629
 202  603.2712
 203  599.3096
 204  646.6
 205  591.598
 206  560.887
 207  513.3919
 208  501.5245
 209  593.0604
 210  637.9219
 211  621.6234
 212  529.5735
 213  515.7528
 214  607.152
 215  569.3867
 216  508.5571
 217  460.5746
 218  496.5475
 219  497.4514
 220  554.3292
 221  640.2901
 222  665.412
 223  544.4684
 224  396.3378
 225  611.9584
 226  688.3633
 227  632.8535
 228  709.1838
 229  614.3041
 230  532.2389
 231  598.0924
 232  612.6988
 233  569.0324
 234  520.8558
 235  457.5742
 236  571.4371
 237  609.8744
 238  612.5579
 239  611.3376
 240  553.2975
 241  645.8008
 242  642.68
 243  577.9811
 244  578.5356
 245  636.484
 246  684.0695
 247  619.7637
 248  594.4088
 249  609.3832
 250  699.6092
 251  573.6935
 252  486.1768
 253  587.3875
 254  690.78
 255  673.8773
 256  483.1915
 257  486.5005
 258  580.6195
 259  470.9507
 260  431.247
 261  538.8701
 262  454.7416
 263  444.836
 264  533.9681
 265  514.6027
 266  513.0573
 267  527.236
 268  488.6081
 269  408.3242
 270  548.0148
 271  545.4
 272  588.1734
 273  586.6937
 274  566.49
 275  648.9714
 276  534.9059
 277  572.601
 278  617.2468
 279  664.7848
 280  632.002
 281  499.2442
 282  556.9103
 283  587.9124
 284  625.9882
 285  525.4225
 286  532.6451
 287  526.5703
 288  591.8517
 289  630.6415
 290  580.7926
 291  590.0346
 292  574.2385
 293  614.2186
 294  679.368
 295  732.5519
 296  662.3386
 297  626.8066
 298  573.593
 299  583.3673
 300  611.6152
 301  594.441
 302  754.2014
 303  747.9404
 304  669.8503
 305  637.9109
 306  575.0383
 307  502.3075
 308  503.8687
 309  534.5851
 310  537.4391
 311  534.9348
 312  581.7181
 313  615.7867
 314  542.6111
 315  579.6757
 316  552.171
 317  464.334
 318  418.633
 319  426.3561
 320  566.7862
 321  604.196
 322  574.8531
 323  557.7954
 324  576.2552
 325  533.9235
 326  569.2921
 327  603.8516
 328  725.4725
 329  684.0781
 330  636.5576
 331  424.1152
 332  472.9794
 333  536.358
 334  533.0442
 335  508.7294
 336  590.4102
 337  586.1377
 338  550.7224
 339  543.4643
 340  566.4276
 341  543.6879
 342  610.3611
 343  632.6432
 344  560.0165
 345  550.8904
 346  648.5829
 347  689.837
 348  670.4376
 349  570.1899
 350  562.0323
 351  476.5602
 352  587.8973
 353  670.142
 354  603.7271
 355  551.7232
 356  601.9733
 357  573.1356
 358  649.3364
 359  570.6243
 360  561.4941
 361  588.0446
 362  599.998
 363  507.9179
 364  459.5205
 365  410.523
 366  489.8592
 367  635.0882
 368  586.6108
 369  560.5023
 370  565.3208
 371  473.6883
 372  282.8547
 373  440.0002
 374  535.1293
 375  556.5446
 376  690.9314
 377  698.1031
 378  641.0267
 379  578.7255
 380  516.4737
 381  537.4467
 382  530.9532
 383  539.4912
 384  539.017
 385  562.2689
 386  614.8046
 387  590.6391
 388  637.4927
 389  634.4778
 390  573.0515
 391  475.4927
 392  611.2999
 393  647.4183
 394  694.4039
 395  660.856
 396  678.3165
 397  608.7111
 398  500.905
 399  417.0037
 400  569.5536
 401  660.0603
 402  743.6486
 403  759.2585
 404  690.1839
 405  525.436
 406  502.6142
 407  574.1748
 408  598.918
 409  668.0291
 410  616.7714
 411  704.4933
 412  711.804
 413  619.9611
 414  499.746
 415  559.7068
 416  583.7791
 417  565.5853
 418  546.9602
 419  559.655
 420  508.1033
 421  458.7319
 422  567.3477
 423  620.447
 424  721.1742
 425  670.068
 426  691.3971
 427  738.6051
 428  765.0466
 429  591.5928
 430  621.7798
 431  533.0524
 432  486.0966
 433  583.2846
 434  613.4699
 435  530.7999
 436  636.7747
 437  718.2682
 438  612.0899
 439  523.4458
 440  607.5523
 441  612.6477
 442  573.9122
 443  549.2939
 444  761.2054
 445  631.5628
 446  482.1608
 447  509.2434
 448  463.437
 449  490.9394
 450  511.7381
 451  597.4798
 452  677.1948
 453  658.962
 454  549.1129
 455  551.9952
 456  542.3647
 457  680.7123
 458  786.7734
 459  844.1386
 460  815.0851
 461  867.951
 462  723.8013
 463  642.8956
 464  686.4801
 465  617.041
 466  554.9049
 467  573.8182
 468  757.918
 469  676.7194
 470  601.0366
 471  649.8251
 472  709.2304
 473  649.4896
 474  665.6956
 475  729.444
 476  796.423
 477  765.547
 478  724.0844
 479  754.1972
 480  677.7408
 481  705.4035
 482  771.6937
 483  670.5411
 484  727.4658
 485  729.6976
 486  673.6571
 487  663.0859
 488  588.3776
 489  645.7335
 490  702.7223
 491  663.174
 492  759.6392
 493  803.7085
 494  689.0504
 495  691.9993
 496  544.9905
 497  685.3881
 498  623.1409
 499  622.834
 500  773.0995
 501  840.7755
 502  773.7797
 503  726.1836
 504  774.4128
 505  729.1154
 506  766.4164
 507  830.7984
 508  841.2587
 509  833.0339
 510  944.3121
 511  1146.208
