# Input file       =  1197484280.100448_cleaned.dat
# Candidate        =  PSR_0332+5434
# Telescope        =  AR
# Epoch_topo       =  58103.771552088518
# Epoch_bary       =  N/A
# T_sample         =  0.002
# Data Folded      =  7340032
# Data Avg         =  0.0571061034877985
# Data StdDev      =  1.00003353875265 
# Profile Bins     =  512
# Profile Avg      =  818.383557608526 
# Profile StdDev   =  119.737052073457 
# Reduced chi-sqr  =  0.832
# Prob(Noise)      <  0.998   (~0.0 sigma)
# P_topo (ms)      =  714.541703725666  +/- 0.000396
# P'_topo (s/s)    =  -0                +/- 2.09e-10
# P''_topo (s/s^2) =  0                 +/- 9.23e-14
# P_bary (ms)      =  N/A
# P'_bary (s/s)    =  N/A
# P''_bary (s/s^2) =  N/A
# P_orb (s)        =  N/A
# asin(i)/c (s)    =  N/A
# eccentricity     =  N/A
# w (rad)          =  N/A
# T_peri           =  N/A
######################################################
   0  1210.239
   1  1216.938
   2  1089.547
   3  943.1757
   4  932.1342
   5  937.2957
   6  915.4132
   7  829.6288
   8  746.5677
   9  684.4127
  10  760.853
  11  753.5949
  12  791.3006
  13  836.0921
  14  838.2057
  15  910.7772
  16  915.3527
  17  962.0612
  18  913.9336
  19  765.9465
  20  805.6959
  21  706.0739
  22  724.6177
  23  850.4046
  24  902.5971
  25  836.4109
  26  818.8855
  27  800.3539
  28  764.9565
  29  784.6207
  30  716.9764
  31  714.9151
  32  772.8876
  33  876.5272
  34  829.5327
  35  747.4779
  36  827.563
  37  853.4831
  38  893.8284
  39  796.1349
  40  835.5352
  41  747.1437
  42  752.0591
  43  872.2465
  44  893.3381
  45  911.2276
  46  826.0103
  47  902.0583
  48  939.2606
  49  976.7101
  50  902.2042
  51  875.4156
  52  885.5244
  53  884.442
  54  829.0615
  55  771.8057
  56  838.908
  57  891.6962
  58  863.1567
  59  821.5285
  60  712.8784
  61  654.6429
  62  685.442
  63  784.5165
  64  811.4052
  65  873.8042
  66  757.1594
  67  665.6575
  68  722.5393
  69  775.1052
  70  895.6623
  71  917.6621
  72  880.0605
  73  917.7068
  74  801.8612
  75  832.2462
  76  902.5067
  77  938.1315
  78  825.0504
  79  744.6506
  80  707.1604
  81  766.7736
  82  781.3481
  83  741.0826
  84  778.7936
  85  831.757
  86  816.4703
  87  903.8153
  88  847.4779
  89  840.9167
  90  832.3909
  91  915.7593
  92  909.7186
  93  925.9728
  94  804.6535
  95  774.2747
  96  822.2243
  97  864.7216
  98  945.6593
  99  978.8262
 100  774.1099
 101  861.8851
 102  811.3993
 103  770.4504
 104  777.2708
 105  775.1448
 106  705.1194
 107  754.4789
 108  718.7509
 109  693.2292
 110  755.1632
 111  756.5516
 112  723.9346
 113  769.282
 114  754.247
 115  783.5656
 116  882.3212
 117  841.79
 118  795.1492
 119  873.6937
 120  872.9379
 121  883.2941
 122  782.1183
 123  733.048
 124  777.4423
 125  789.0588
 126  796.4969
 127  806.567
 128  788.7426
 129  781.9678
 130  773.8665
 131  739.3607
 132  769.198
 133  921.9615
 134  865.7889
 135  713.3677
 136  744.8401
 137  798.4575
 138  749.3558
 139  726.1014
 140  748.8361
 141  759.1731
 142  782.5344
 143  835.3427
 144  923.0253
 145  898.4872
 146  961.4253
 147  820.9779
 148  806.5363
 149  858.7545
 150  930.136
 151  884.4536
 152  857.2216
 153  820.5957
 154  887.7233
 155  815.1121
 156  821.7479
 157  828.4434
 158  945.7256
 159  906.91
 160  848.0552
 161  918.4869
 162  846.4152
 163  773.8721
 164  720.2959
 165  819.7899
 166  845.6843
 167  797.3969
 168  869.725
 169  937.8187
 170  844.493
 171  822.9605
 172  769.8679
 173  691.9636
 174  798.8312
 175  851.4581
 176  869.7821
 177  773.9937
 178  810.0702
 179  836.0756
 180  804.8946
 181  836.637
 182  860.451
 183  753.7618
 184  769.7545
 185  737.2209
 186  804.3403
 187  913.85
 188  888.1471
 189  833.7544
 190  797.6501
 191  754.4391
 192  824.5538
 193  899.2144
 194  818.2859
 195  775.893
 196  720.5085
 197  756.7053
 198  657.3687
 199  823.0596
 200  794.5087
 201  710.0188
 202  753.8465
 203  720.7091
 204  677.258
 205  683.5807
 206  665.8834
 207  726.4861
 208  744.762
 209  703.8373
 210  737.2689
 211  652.7864
 212  728.9282
 213  674.4328
 214  703.3043
 215  718.6854
 216  821.9593
 217  860.7734
 218  912.9342
 219  905.4625
 220  776.5981
 221  694.2375
 222  762.0432
 223  816.1506
 224  804.5449
 225  801.6918
 226  880.8607
 227  834.1144
 228  760.9528
 229  766.4711
 230  894.9297
 231  794.524
 232  775.3878
 233  836.3607
 234  824.4105
 235  951.9118
 236  840.434
 237  813.3962
 238  721.6804
 239  834.8608
 240  972.6688
 241  852.6135
 242  706.9576
 243  732.2186
 244  816.3539
 245  798.7794
 246  800.9067
 247  692.0212
 248  681.8544
 249  740.4132
 250  822.8391
 251  751.5684
 252  802.6371
 253  853.2062
 254  781.41
 255  717.8929
 256  741.5397
 257  763.3247
 258  841.2079
 259  849.2238
 260  772.8284
 261  795.8576
 262  830.749
 263  887.158
 264  789.6361
 265  844.5828
 266  753.1026
 267  776.2116
 268  863.7552
 269  836.4319
 270  854.1625
 271  827.8878
 272  718.9618
 273  777.9306
 274  743.0542
 275  779.7991
 276  852.582
 277  818.9584
 278  861.3049
 279  852.2136
 280  872.1698
 281  770.3926
 282  805.6496
 283  776.438
 284  815.7467
 285  917.9318
 286  908.8577
 287  840.1521
 288  853.1018
 289  888.2673
 290  773.3409
 291  715.1918
 292  707.1865
 293  785.2729
 294  731.894
 295  807.5333
 296  850.5081
 297  829.4144
 298  814.635
 299  805.1984
 300  737.8765
 301  861.7631
 302  875.8856
 303  814.8629
 304  762.8427
 305  734.9474
 306  800.7366
 307  794.4721
 308  876.6938
 309  796.225
 310  706.5659
 311  775.7715
 312  841.6053
 313  771.3148
 314  802.474
 315  786.1521
 316  877.8168
 317  843.1536
 318  923.2028
 319  809.639
 320  740.345
 321  807.2642
 322  834.3098
 323  805.7562
 324  763.6225
 325  733.0092
 326  650.9897
 327  732.9106
 328  756.6945
 329  750.1949
 330  736.3542
 331  810.9496
 332  798.2404
 333  777.5851
 334  775.862
 335  831.7202
 336  836.8339
 337  852.2737
 338  733.3082
 339  717.1911
 340  864.6791
 341  944.3192
 342  808.2356
 343  802.7339
 344  810.1364
 345  731.5532
 346  781.5993
 347  741.3682
 348  712.5763
 349  713.9709
 350  739.7794
 351  760.0983
 352  761.215
 353  730.0463
 354  725.3658
 355  752.5607
 356  740.2354
 357  709.0412
 358  823.6555
 359  861.0873
 360  813.4299
 361  735.9388
 362  678.8056
 363  678.4219
 364  741.7792
 365  780.0344
 366  723.0282
 367  706.4433
 368  766.2159
 369  876.8066
 370  943.9298
 371  938.7734
 372  805.3254
 373  784.6938
 374  853.1498
 375  880.4404
 376  829.5287
 377  853.6484
 378  884.3686
 379  837.8083
 380  684.5762
 381  799.0466
 382  831.2282
 383  810.9062
 384  817.2311
 385  732.2931
 386  651.3206
 387  779.2439
 388  808.0004
 389  899.1014
 390  788.3761
 391  789.5728
 392  816.2235
 393  821.6785
 394  713.7883
 395  811.5328
 396  775.3488
 397  818.8233
 398  826.3473
 399  735.9272
 400  798.5298
 401  816.2868
 402  806.5599
 403  808.9131
 404  867.6762
 405  838.1424
 406  771.2014
 407  863.536
 408  848.6122
 409  832.5352
 410  801.4615
 411  963.3892
 412  922.5244
 413  859.4162
 414  881.2123
 415  899.4722
 416  919.9324
 417  868.7145
 418  826.3021
 419  820.0462
 420  794.0694
 421  809.8708
 422  829.9517
 423  838.7098
 424  767.067
 425  807.2429
 426  867.7007
 427  830.3607
 428  861.2928
 429  929.0833
 430  1001.91
 431  973.1603
 432  752.3405
 433  799.4876
 434  831.8751
 435  855.4426
 436  884.9066
 437  917.7353
 438  968.2759
 439  900.2916
 440  795.4751
 441  855.8524
 442  896.7076
 443  872.7697
 444  937.0551
 445  740.3446
 446  675.2296
 447  645.4998
 448  840.4584
 449  871.6911
 450  811.7816
 451  817.586
 452  791.6185
 453  814.4698
 454  857.831
 455  865.7354
 456  869.9539
 457  826.7271
 458  878.2759
 459  883.5241
 460  684.9147
 461  717.484
 462  788.0887
 463  755.8289
 464  842.4542
 465  865.5908
 466  921.2109
 467  879.947
 468  796.6993
 469  753.8143
 470  801.3972
 471  737.6644
 472  758.7562
 473  855.6916
 474  864.1942
 475  903.182
 476  880.4332
 477  808.7407
 478  757.2618
 479  735.3961
 480  849.8676
 481  789.4772
 482  766.2825
 483  888.7636
 484  963.2153
 485  833.9604
 486  748.6369
 487  795.8896
 488  851.5414
 489  955.1638
 490  947.2541
 491  914.8102
 492  829.5407
 493  815.3254
 494  980.9901
 495  1097.464
 496  934.0391
 497  887.7032
 498  844.0823
 499  845.457
 500  924.132
 501  903.0359
 502  911.8026
 503  848.4708
 504  838.207
 505  923.334
 506  854.6016
 507  815.1384
 508  911.5235
 509  1037.11
 510  1114.614
 511  1165.46
