# Input file       =  1197499180.084148_cleaned.dat
# Candidate        =  PSR_0332+5434
# Telescope        =  AR
# Epoch_topo       =  58103.944005603567
# Epoch_bary       =  N/A
# T_sample         =  0.002
# Data Folded      =  7340032
# Data Avg         =  0.0492249471367914
# Data StdDev      =  1.00005261894729 
# Profile Bins     =  512
# Profile Avg      =  705.697442204373 
# Profile StdDev   =  119.739336603097 
# Reduced chi-sqr  =  0.937
# Prob(Noise)      <  0.844   (~0.0 sigma)
# P_topo (ms)      =  714.542215822299  +/- 0.000138
# P'_topo (s/s)    =  -0                +/- 7.26e-11
# P''_topo (s/s^2) =  0                 +/- 3.2e-14
# P_bary (ms)      =  N/A
# P'_bary (s/s)    =  N/A
# P''_bary (s/s^2) =  N/A
# P_orb (s)        =  N/A
# asin(i)/c (s)    =  N/A
# eccentricity     =  N/A
# w (rad)          =  N/A
# T_peri           =  N/A
######################################################
   0  1152.048
   1  1115.421
   2  1033.704
   3  917.8867
   4  860.1074
   5  730.0663
   6  707.745
   7  733.1897
   8  691.6714
   9  703.4496
  10  715.4383
  11  668.6315
  12  695.0532
  13  802.7242
  14  786.6636
  15  766.1648
  16  724.4367
  17  619.3019
  18  654.7232
  19  669.4365
  20  690.7139
  21  594.1481
  22  599.7908
  23  631.6233
  24  731.402
  25  796.8052
  26  751.1743
  27  745.8884
  28  559.1857
  29  594.4974
  30  509.1409
  31  536.2709
  32  535.1988
  33  647.91
  34  775.3759
  35  719.7583
  36  567.9117
  37  677.3401
  38  656.6429
  39  710.5516
  40  763.2015
  41  796.5958
  42  804.6489
  43  709.0087
  44  733.4776
  45  665.5469
  46  712.7767
  47  698.1924
  48  690.1453
  49  600.1179
  50  636.7733
  51  675.1006
  52  721.8124
  53  766.8051
  54  638.1605
  55  632.0308
  56  654.2027
  57  665.6281
  58  760.9333
  59  795.5211
  60  686.2875
  61  624.7235
  62  678.1785
  63  767.4869
  64  754.8525
  65  805.0083
  66  657.3303
  67  695.1201
  68  660.2651
  69  724.7864
  70  849.5973
  71  820.5441
  72  805.7837
  73  774.8071
  74  730.3743
  75  730.442
  76  833.0231
  77  795.0267
  78  828.1207
  79  780.0004
  80  713.304
  81  749.864
  82  625.6005
  83  740.5937
  84  826.2916
  85  749.364
  86  679.3868
  87  762.7598
  88  807.5278
  89  710.4808
  90  709.7298
  91  782.6943
  92  744.9501
  93  647.8898
  94  708.6422
  95  651.2618
  96  624.0275
  97  671.2131
  98  683.6904
  99  655.5355
 100  729.4739
 101  671.5859
 102  714.6627
 103  696.244
 104  735.1041
 105  741.8837
 106  668.5919
 107  628.7219
 108  710.835
 109  695.9722
 110  634.6524
 111  743.5545
 112  744.9233
 113  802.207
 114  945.7111
 115  998.9942
 116  894.0146
 117  782.0069
 118  744.3125
 119  688.8012
 120  592.6339
 121  605.3452
 122  718.9228
 123  734.5078
 124  748.0023
 125  794.8887
 126  848.2943
 127  798.285
 128  817.4795
 129  768.2743
 130  699.1219
 131  682.9717
 132  703.5416
 133  730.7054
 134  796.4869
 135  746.8048
 136  690.9308
 137  685.8856
 138  684.205
 139  684.236
 140  791.8212
 141  755.1407
 142  704.0392
 143  612.2695
 144  605.5383
 145  681.2532
 146  658.1523
 147  652.9879
 148  728.3545
 149  779.2846
 150  715.3688
 151  675.6104
 152  699.9556
 153  652.2556
 154  632.3148
 155  679.5421
 156  741.1832
 157  691.1955
 158  598.0945
 159  732.7608
 160  774.5787
 161  748.8823
 162  651.1854
 163  508.5742
 164  619.3692
 165  576.9033
 166  726.6243
 167  710.2573
 168  729.1375
 169  728.1641
 170  832.9678
 171  749.8498
 172  740.6414
 173  659.5125
 174  730.5565
 175  743.1176
 176  688.6192
 177  722.8759
 178  737.0155
 179  636.0303
 180  662.0134
 181  598.9579
 182  669.1703
 183  725.0716
 184  759.2198
 185  746.3977
 186  656.8209
 187  608.8192
 188  563.5198
 189  543.7578
 190  588.8871
 191  534.6577
 192  664.6104
 193  653.6706
 194  597.8366
 195  637.6194
 196  683.4618
 197  671.6366
 198  596.1855
 199  660.1391
 200  622.8362
 201  561.4988
 202  610.0437
 203  712.1868
 204  761.0632
 205  621.535
 206  657.7446
 207  679.9107
 208  705.3683
 209  594.1902
 210  651.8011
 211  738.3847
 212  679.9446
 213  633.6327
 214  630.9723
 215  712.1853
 216  771.0272
 217  686.4312
 218  664.9756
 219  673.8892
 220  770.1094
 221  752.6264
 222  712.3627
 223  715.8605
 224  677.7735
 225  633.2291
 226  627.0911
 227  699.2883
 228  877.6319
 229  816.09
 230  721.4847
 231  750.4526
 232  711.1034
 233  678.2521
 234  784.1354
 235  826.3066
 236  672.4217
 237  661.1355
 238  776.9461
 239  740.9968
 240  556.3795
 241  655.4167
 242  762.5961
 243  629.7222
 244  647.032
 245  648.5197
 246  743.2458
 247  758.8602
 248  640.3181
 249  633.5143
 250  718.2128
 251  788.3608
 252  730.1117
 253  737.853
 254  748.5272
 255  673.2827
 256  775.8356
 257  768.4537
 258  692.591
 259  624.0018
 260  599.679
 261  686.9687
 262  699.7507
 263  625.1586
 264  652.0565
 265  676.5552
 266  701.6068
 267  701.1633
 268  759.6913
 269  758.3085
 270  667.0608
 271  675.8167
 272  710.2462
 273  557.7095
 274  525.6855
 275  652.1423
 276  713.3713
 277  744.8517
 278  686.6269
 279  561.052
 280  588.5344
 281  719.7632
 282  770.5988
 283  681.2753
 284  694.7491
 285  737.043
 286  774.9978
 287  736.2593
 288  615.1772
 289  778.3602
 290  722.2054
 291  692.8066
 292  750.3328
 293  704.8531
 294  592.8365
 295  680.675
 296  750.9695
 297  688.3293
 298  669.3403
 299  833.5514
 300  749.1307
 301  727.8002
 302  789.1926
 303  833.7224
 304  755.6489
 305  773.5117
 306  757.9741
 307  720.058
 308  660.3135
 309  714.2543
 310  751.6936
 311  808.2511
 312  835.2551
 313  695.0367
 314  696.3911
 315  729.0305
 316  702.9899
 317  735.3445
 318  772.6805
 319  704.1502
 320  610.8051
 321  691.77
 322  705.6698
 323  689.0884
 324  676.585
 325  590.1031
 326  541.8994
 327  528.3543
 328  709.1324
 329  590.4073
 330  583.3387
 331  718.2333
 332  732.7296
 333  636.241
 334  617.5765
 335  749.8238
 336  672.2326
 337  738.039
 338  769.3182
 339  742.9069
 340  595.1348
 341  710.6243
 342  687.0693
 343  721.8771
 344  649.0398
 345  669.561
 346  734.1785
 347  687.8576
 348  584.5419
 349  692.1278
 350  681.8661
 351  617.1807
 352  550.949
 353  713.5268
 354  775.8224
 355  773.8847
 356  771.6021
 357  744.3525
 358  728.3947
 359  583.0923
 360  582.9736
 361  596.0403
 362  676.0918
 363  697.1975
 364  825.95
 365  803.1115
 366  749.2523
 367  657.6182
 368  623.1857
 369  762.0906
 370  718.0029
 371  848.658
 372  648.8798
 373  608.2432
 374  616.7375
 375  550.8721
 376  606.5614
 377  584.088
 378  673.6943
 379  709.0516
 380  661.6318
 381  710.2449
 382  715.6548
 383  589.2563
 384  665.4592
 385  666.2863
 386  709.4727
 387  652.0002
 388  665.1339
 389  720.832
 390  635.8419
 391  672.428
 392  643.8243
 393  693.0482
 394  741.1604
 395  700.2004
 396  703.3995
 397  743.3474
 398  686.248
 399  577.6681
 400  479.7735
 401  557.8141
 402  607.2846
 403  677.4429
 404  725.8881
 405  648.6711
 406  583.8741
 407  614.3071
 408  504.1145
 409  502.6733
 410  701.6021
 411  698.1432
 412  666.9494
 413  634.6602
 414  570.0449
 415  576.2675
 416  775.3066
 417  855.6085
 418  784.6344
 419  761.7428
 420  832.9713
 421  795.7097
 422  686.4707
 423  731.0068
 424  836.9417
 425  722.3049
 426  708.8014
 427  684.5831
 428  671.801
 429  622.4631
 430  615.9023
 431  704.3538
 432  703.4727
 433  611.7024
 434  678.1898
 435  658.3741
 436  634.6116
 437  633.9349
 438  809.5512
 439  880.7213
 440  698.3196
 441  647.0001
 442  585.1095
 443  714.7448
 444  892.5737
 445  901.1486
 446  669.02
 447  717.3809
 448  787.1245
 449  745.1248
 450  751.3223
 451  824.1428
 452  821.6896
 453  829.3956
 454  788.1871
 455  848.0297
 456  895.9465
 457  839.5853
 458  680.8124
 459  646.2377
 460  752.739
 461  832.4218
 462  767.7414
 463  751.6325
 464  796.9031
 465  705.3791
 466  725.3993
 467  844.0698
 468  820.2444
 469  641.9724
 470  565.702
 471  612.7822
 472  628.371
 473  657.8849
 474  777.2546
 475  885.9055
 476  761.5533
 477  548.848
 478  593.8939
 479  690.0365
 480  744.6914
 481  772.1646
 482  786.894
 483  737.2018
 484  697.2093
 485  670.8932
 486  731.9241
 487  657.5613
 488  681.1805
 489  633.1276
 490  658.8473
 491  685.4095
 492  810.6274
 493  802.6534
 494  765.1027
 495  730.2275
 496  703.0326
 497  702.3151
 498  773.3665
 499  826.6796
 500  741.0905
 501  650.9672
 502  797.5894
 503  706.6243
 504  718.1135
 505  721.1022
 506  746.5708
 507  807.8588
 508  828.7853
 509  736.2983
 510  813.0451
 511  992.2607
