# Input file       =  1197052844.123184_cleaned.dat
# Candidate        =  PSR_0332+5434
# Telescope        =  AR
# Epoch_topo       =  58098.778080129443
# Epoch_bary       =  N/A
# T_sample         =  0.002
# Data Folded      =  7340032
# Data Avg         =  0.0574370177729787
# Data StdDev      =  1.00018148777514 
# Profile Bins     =  512
# Profile Avg      =  822.771158233009 
# Profile StdDev   =  119.754766459149 
# Reduced chi-sqr  =  0.734
# Prob(Noise)      <  1   (~0.0 sigma)
# P_topo (ms)      =  714.536701451011  +/- 7.7e-05
# P'_topo (s/s)    =  -0                +/- 4.06e-11
# P''_topo (s/s^2) =  0                 +/- 1.79e-14
# P_bary (ms)      =  N/A
# P'_bary (s/s)    =  N/A
# P''_bary (s/s^2) =  N/A
# P_orb (s)        =  N/A
# asin(i)/c (s)    =  N/A
# eccentricity     =  N/A
# w (rad)          =  N/A
# T_peri           =  N/A
######################################################
   0  996.9609
   1  1080.711
   2  964.921
   3  834.52
   4  804.9763
   5  755.6224
   6  638.4113
   7  755.5234
   8  846.4754
   9  808.6371
  10  667.9584
  11  725.4291
  12  870.4181
  13  866.0867
  14  855.0696
  15  876.6157
  16  896.3608
  17  908.0979
  18  819.7292
  19  842.8957
  20  812.132
  21  802.8012
  22  827.9719
  23  847.4683
  24  776.6989
  25  762.3295
  26  779.7885
  27  783.8857
  28  782.2391
  29  810.8875
  30  818.7704
  31  849.2331
  32  829.2809
  33  793.4943
  34  774.1226
  35  770.2639
  36  871.8743
  37  806.1229
  38  732.2269
  39  729.2754
  40  773.0559
  41  837.1447
  42  843.066
  43  931.6165
  44  947.6586
  45  875.8675
  46  785.8565
  47  816.8033
  48  880.2776
  49  785.3647
  50  864.1055
  51  1009.177
  52  994.7288
  53  893.4183
  54  778.6311
  55  720.6097
  56  747.2054
  57  955.2659
  58  889.2113
  59  895.0057
  60  827.2909
  61  845.4237
  62  855.9851
  63  824.4631
  64  779.416
  65  779.5754
  66  819.1181
  67  783.5775
  68  788.5602
  69  774.5244
  70  823.0212
  71  757.2669
  72  850.8714
  73  876.7421
  74  823.0661
  75  750.5312
  76  768.0233
  77  685.4674
  78  740.517
  79  739.5286
  80  693.2239
  81  754.441
  82  829.3342
  83  778.6259
  84  836.1866
  85  862.825
  86  939.5689
  87  829.1781
  88  830.437
  89  901.9484
  90  883.2989
  91  885.2775
  92  893.5403
  93  954.8622
  94  920.468
  95  855.308
  96  819.4894
  97  852.9205
  98  918.6195
  99  867.9257
 100  908.9293
 101  864.4366
 102  821.2456
 103  804.9418
 104  846.4626
 105  831.5489
 106  798.6903
 107  829.9729
 108  846.9643
 109  834.5797
 110  775.0861
 111  823.9755
 112  874.2648
 113  896.3154
 114  870.4514
 115  900.3785
 116  867.1229
 117  977.8152
 118  1024.296
 119  980.9064
 120  873.7816
 121  944.5207
 122  985.3638
 123  987.1146
 124  918.2778
 125  879.7959
 126  840.5359
 127  817.0278
 128  870.7827
 129  937.6979
 130  892.385
 131  836.5532
 132  816.0885
 133  783.4557
 134  836.948
 135  816.5598
 136  823.9821
 137  915.7676
 138  929.5709
 139  904.8777
 140  753.342
 141  759.1978
 142  843.4057
 143  822.8196
 144  922.5528
 145  947.2198
 146  757.348
 147  748.4984
 148  765.9982
 149  759.2866
 150  861.1468
 151  870.2682
 152  866.6622
 153  806.1467
 154  763.6782
 155  785.0208
 156  769.6573
 157  812.2224
 158  822.9453
 159  732.5353
 160  802.7421
 161  879.0529
 162  998.9006
 163  869.2296
 164  790.7219
 165  867.6666
 166  892.8031
 167  884.8506
 168  848.1093
 169  877.6419
 170  811.7704
 171  863.0306
 172  801.3096
 173  874.2522
 174  884.9675
 175  983.8137
 176  985.3754
 177  972.7073
 178  881.642
 179  846.0873
 180  908.6982
 181  862.2092
 182  778.6508
 183  801.6923
 184  865.4986
 185  717.9766
 186  758.9517
 187  707.6459
 188  781.4889
 189  841.012
 190  776.4416
 191  796.5599
 192  771.6446
 193  717.7066
 194  812.116
 195  891.2113
 196  921.6113
 197  800.7903
 198  808.6912
 199  801.476
 200  929.7778
 201  933.6602
 202  907.6922
 203  898.6175
 204  821.1347
 205  766.0732
 206  798.4713
 207  811.2028
 208  801.2172
 209  858.6425
 210  911.8003
 211  892.6133
 212  716.4123
 213  767.6722
 214  834.4122
 215  833.3727
 216  879.5643
 217  845.6969
 218  892.0548
 219  899.6167
 220  812.9861
 221  791.0986
 222  718.038
 223  831.8724
 224  893.0433
 225  842.7963
 226  923.1168
 227  904.6635
 228  860.3408
 229  873.318
 230  860.3372
 231  920.7988
 232  878.6249
 233  890.2815
 234  848.4736
 235  650.1705
 236  680.3623
 237  824.5535
 238  976.9335
 239  930.5922
 240  806.2777
 241  787.5564
 242  711.9684
 243  757.4949
 244  827.9927
 245  890.3608
 246  823.0447
 247  804.477
 248  877.9529
 249  843.3239
 250  828.2233
 251  865.826
 252  888.1696
 253  889.429
 254  872.3303
 255  936.0342
 256  840.9616
 257  746.237
 258  863.7899
 259  915.1069
 260  852.9626
 261  951.8042
 262  850.999
 263  800.7107
 264  757.7387
 265  836.0429
 266  793.0721
 267  731.2813
 268  783.5302
 269  889.1161
 270  918.2585
 271  855.9
 272  816.5043
 273  816.3521
 274  831.6058
 275  771.8817
 276  764.5213
 277  901.1801
 278  946.2454
 279  824.7884
 280  851.1278
 281  838.1248
 282  822.2637
 283  871.5483
 284  858.8439
 285  732.8243
 286  700.9158
 287  700.2043
 288  687.309
 289  759.8984
 290  880.2646
 291  954.7196
 292  807.2449
 293  783.5192
 294  816.4767
 295  798.3711
 296  865.6651
 297  844.4208
 298  830.169
 299  917.3018
 300  918.0842
 301  871.9481
 302  879.0914
 303  789.9028
 304  777.4186
 305  810.8951
 306  728.1262
 307  691.6375
 308  724.1453
 309  762.3746
 310  732.8135
 311  779.7624
 312  813.6247
 313  805.0088
 314  761.682
 315  805.5238
 316  821.7438
 317  748.5859
 318  837.2264
 319  830.0923
 320  881.7769
 321  749.0151
 322  689.4988
 323  732.6268
 324  781.3719
 325  815.5983
 326  797.4606
 327  882.0708
 328  833.3508
 329  809.2388
 330  877.4507
 331  920.8303
 332  844.5507
 333  831.4616
 334  877.7957
 335  827.9296
 336  781.9327
 337  763.2192
 338  774.7615
 339  842.7179
 340  829.6574
 341  834.673
 342  746.3275
 343  848.7736
 344  821.4473
 345  749.2615
 346  736.6785
 347  902.2073
 348  937.1119
 349  802.1426
 350  741.2065
 351  740.1171
 352  839.0709
 353  901.8306
 354  801.7618
 355  675.9742
 356  760.8211
 357  729.8351
 358  758.6656
 359  778.0664
 360  788.9844
 361  761.4751
 362  905.6567
 363  762.4058
 364  614.5355
 365  634.6559
 366  758.2892
 367  808.165
 368  768.595
 369  902.3826
 370  834.3217
 371  797.5532
 372  768.8323
 373  728.5378
 374  770.5763
 375  778.2466
 376  868.9227
 377  854.023
 378  652.2156
 379  596.1988
 380  717.7891
 381  784.5684
 382  707.1498
 383  750.9554
 384  777.4767
 385  814.7235
 386  835.4979
 387  782.126
 388  753.3481
 389  864.5771
 390  856.3208
 391  854.9853
 392  816.9077
 393  792.6628
 394  727.6642
 395  782.7811
 396  783.1342
 397  770.1888
 398  890.0692
 399  836.6586
 400  826.8023
 401  761.3737
 402  729.6385
 403  672.3012
 404  719.9396
 405  812.248
 406  879.67
 407  901.77
 408  817.3165
 409  813.223
 410  824.6524
 411  849.5287
 412  859.97
 413  911.1307
 414  812.9645
 415  781.4915
 416  824.3639
 417  754.8788
 418  792.9835
 419  824.5912
 420  830.4189
 421  795.4495
 422  774.2968
 423  766.6783
 424  818.0228
 425  824.0947
 426  833.3619
 427  904.6693
 428  807.8218
 429  678.2881
 430  702.9752
 431  754.1843
 432  791.4197
 433  747.8778
 434  790.0477
 435  772.576
 436  706.3001
 437  699.2575
 438  778.9488
 439  738.453
 440  704.8863
 441  758.6345
 442  856.3608
 443  894.2432
 444  847.8801
 445  755.0721
 446  669.4533
 447  826.4568
 448  818.4219
 449  891.577
 450  827.012
 451  664.8336
 452  657.3127
 453  692.9316
 454  773.454
 455  718.4393
 456  712.1602
 457  724.3597
 458  692.0378
 459  705.1495
 460  619.5364
 461  622.795
 462  738.7321
 463  804.579
 464  772.0794
 465  727.9505
 466  772.3867
 467  698.0049
 468  633.7825
 469  776.3661
 470  787.9134
 471  798.6423
 472  767.4568
 473  747.002
 474  786.2526
 475  749.145
 476  821.3212
 477  886.7837
 478  921.3869
 479  868.2129
 480  843.3141
 481  980.5223
 482  916.498
 483  785.6351
 484  850.2549
 485  873.9293
 486  869.9459
 487  804.697
 488  829.6618
 489  817.8922
 490  897.9479
 491  868.7286
 492  871.9883
 493  893.9705
 494  954.6351
 495  958.7728
 496  900.4012
 497  825.8527
 498  877.068
 499  902.9339
 500  856.4496
 501  829.8517
 502  841.8278
 503  831.8971
 504  770.2208
 505  827.9153
 506  918.2104
 507  855.3405
 508  905.3687
 509  923.4077
 510  994.0142
 511  1005.211
