# Input file       =  1197139048.114253_cleaned.dat
# Candidate        =  PSR_0332+5434
# Telescope        =  AR
# Epoch_topo       =  58099.775811507556
# Epoch_bary       =  N/A
# T_sample         =  0.002
# Data Folded      =  7340032
# Data Avg         =  0.0609373829851998
# Data StdDev      =  1.00019379598268 
# Profile Bins     =  512
# Profile Avg      =  873.444869449675 
# Profile StdDev   =  119.75624015821  
# Reduced chi-sqr  =  0.903
# Prob(Noise)      <  0.944   (~0.0 sigma)
# P_topo (ms)      =  714.537708675452  +/- 0.000355
# P'_topo (s/s)    =  -0                +/- 1.87e-10
# P''_topo (s/s^2) =  0                 +/- 8.26e-14
# P_bary (ms)      =  N/A
# P'_bary (s/s)    =  N/A
# P''_bary (s/s^2) =  N/A
# P_orb (s)        =  N/A
# asin(i)/c (s)    =  N/A
# eccentricity     =  N/A
# w (rad)          =  N/A
# T_peri           =  N/A
######################################################
   0  1324.111
   1  1283.666
   2  1212.783
   3  1122.754
   4  1032.85
   5  916.9363
   6  913.2628
   7  898.0933
   8  918.6425
   9  935.8901
  10  823.8694
  11  868.4746
  12  1022.086
  13  886.4597
  14  873.1464
  15  1151.544
  16  1098.096
  17  962.4683
  18  920.0854
  19  968.7755
  20  871.1664
  21  1007.836
  22  970.0355
  23  842.195
  24  745.4323
  25  739.452
  26  860.5692
  27  870.4194
  28  802.2427
  29  826.3985
  30  828.426
  31  929.0106
  32  970.3108
  33  928.4079
  34  948.0568
  35  864.2883
  36  806.7629
  37  902.1216
  38  882.5598
  39  867.2774
  40  878.4142
  41  891.3841
  42  924.593
  43  859.1969
  44  816.7965
  45  858.3485
  46  911.4533
  47  828.2142
  48  882.832
  49  798.6089
  50  928.311
  51  942.1781
  52  867.711
  53  744.3507
  54  649.4187
  55  762.2869
  56  834.2807
  57  813.0129
  58  934.5739
  59  873.0853
  60  815.6068
  61  716.468
  62  849.8653
  63  960.5294
  64  955.7612
  65  813.925
  66  877.817
  67  910.879
  68  761.8457
  69  776.6257
  70  748.8855
  71  748.9325
  72  680.0286
  73  768.0569
  74  890.8479
  75  910.0337
  76  815.3105
  77  892.9467
  78  802.1414
  79  761.8716
  80  826.2369
  81  855.2307
  82  848.8535
  83  813.1616
  84  821.5872
  85  767.5084
  86  716.0232
  87  719.192
  88  767.4278
  89  805.8847
  90  860.9371
  91  916.9826
  92  894.3047
  93  852.4328
  94  835.6719
  95  863.9697
  96  892.3891
  97  730.375
  98  795.5698
  99  736.1591
 100  797.9006
 101  826.895
 102  795.5856
 103  842.4135
 104  885.0307
 105  794.5474
 106  777.3503
 107  816.0331
 108  934.5431
 109  811.3331
 110  830.0117
 111  925.7803
 112  807.1697
 113  711.9905
 114  794.0504
 115  812.2766
 116  708.5923
 117  738.3472
 118  794.9297
 119  936.4283
 120  859.7147
 121  803.2775
 122  879.0909
 123  865.0195
 124  894.6621
 125  880.3131
 126  780.8488
 127  733.1765
 128  762.3068
 129  843.0886
 130  866.3212
 131  879.7047
 132  1025.337
 133  1033.5
 134  954.3746
 135  850.1888
 136  879.0257
 137  898.8132
 138  853.0278
 139  843.6236
 140  688.9701
 141  783.9302
 142  874.7556
 143  808.6873
 144  816.6854
 145  784.8322
 146  785.7041
 147  790.189
 148  843.6213
 149  933.6644
 150  881.3909
 151  863.2542
 152  906.9149
 153  901.215
 154  836.8038
 155  878.6971
 156  768.2189
 157  757.164
 158  894.574
 159  935.2493
 160  899.6512
 161  868.5878
 162  789.6021
 163  835.4684
 164  740.5706
 165  824.6819
 166  911.164
 167  1001.234
 168  955.0029
 169  910.7331
 170  847.3177
 171  887.0673
 172  886.6035
 173  810.5944
 174  858.8321
 175  835.5574
 176  892.2452
 177  810.4648
 178  839.04
 179  902.4199
 180  861.2267
 181  929.8314
 182  918.2185
 183  797.7154
 184  832.4815
 185  893.881
 186  948.8724
 187  857.7346
 188  819.2559
 189  803.2682
 190  763.1367
 191  862.2634
 192  1016.505
 193  965.8647
 194  1022.219
 195  944.0952
 196  909.7587
 197  891.1871
 198  849.8065
 199  878.0367
 200  908.6305
 201  891.3166
 202  904.7579
 203  895.1196
 204  886.0009
 205  808.7178
 206  784.9656
 207  759.269
 208  717.1481
 209  746.3468
 210  857.4466
 211  871.2819
 212  829.6473
 213  810.7425
 214  803.0029
 215  874.0795
 216  890.6309
 217  838.6845
 218  856.8886
 219  826.5951
 220  869.5029
 221  908.4513
 222  855.2414
 223  948.9478
 224  997.8867
 225  931.2143
 226  781.6061
 227  841.7781
 228  957.5327
 229  970.5438
 230  871.9517
 231  887.5942
 232  935.3029
 233  981.7537
 234  950.0042
 235  905.6379
 236  869.9027
 237  887.9892
 238  841.9296
 239  820.9387
 240  776.6741
 241  811.6763
 242  784.6106
 243  846.9033
 244  858.233
 245  808.0504
 246  797.2101
 247  808.2421
 248  797.7687
 249  825.2996
 250  806.3745
 251  831.571
 252  971.9991
 253  895.9424
 254  842.7699
 255  869.141
 256  892.4885
 257  925.4186
 258  949.577
 259  894.2801
 260  879.8003
 261  739.0663
 262  766.1636
 263  876.8123
 264  1034.861
 265  1001.951
 266  903.449
 267  869.132
 268  802.2732
 269  771.3357
 270  828.4429
 271  888.5785
 272  833.677
 273  830.3054
 274  856.9667
 275  867.22
 276  892.499
 277  932.9218
 278  855.1074
 279  799.6913
 280  800.7582
 281  752.5549
 282  862.1394
 283  850.1702
 284  743.7601
 285  722.8127
 286  861.4183
 287  816.4918
 288  774.7787
 289  860.4261
 290  928.9908
 291  762.6469
 292  713.9271
 293  802.4468
 294  834.2579
 295  810.5564
 296  832.9904
 297  948.4724
 298  946.902
 299  855.3727
 300  870.2527
 301  831.8717
 302  817.8528
 303  932.2406
 304  863.9098
 305  923.2652
 306  970.4498
 307  1086.54
 308  1003.388
 309  858.7359
 310  849.3961
 311  854.6781
 312  840.2799
 313  892.0618
 314  897.6997
 315  1032.883
 316  938.2811
 317  1001.385
 318  972.2599
 319  902.0823
 320  828.5676
 321  826.0013
 322  848.122
 323  823.8246
 324  916.3699
 325  987.353
 326  799.8644
 327  735.9676
 328  780.9781
 329  784.7255
 330  767.1214
 331  868.5458
 332  936.7085
 333  857.0327
 334  948.538
 335  893.6168
 336  1003.155
 337  961.9915
 338  880.2849
 339  899.8974
 340  831.1116
 341  841.0281
 342  934.1785
 343  1043.555
 344  994.0599
 345  937.4045
 346  972.5234
 347  988.298
 348  1058.748
 349  1069.158
 350  903.6771
 351  896.3022
 352  984.2187
 353  1074.762
 354  1006.277
 355  908.3931
 356  890.2057
 357  895.9258
 358  804.3523
 359  822.1976
 360  884.767
 361  952.2972
 362  916.9446
 363  934.3597
 364  884.1423
 365  935.7756
 366  934.8176
 367  951.6203
 368  932.0189
 369  859.1288
 370  826.342
 371  878.0576
 372  930.5892
 373  943.0789
 374  822.9899
 375  841.9011
 376  820.9235
 377  863.6258
 378  873.8262
 379  873.5047
 380  861.3585
 381  898.6492
 382  983.8946
 383  1034.956
 384  1050.979
 385  923.2455
 386  848.5958
 387  877.4849
 388  901.7173
 389  901.8381
 390  888.5214
 391  993.8024
 392  974.0989
 393  928.2223
 394  885.0855
 395  865.9214
 396  942.2263
 397  935.8579
 398  893.5904
 399  826.8988
 400  959.032
 401  1018.971
 402  933.916
 403  862.3663
 404  922.4149
 405  879.2571
 406  899.8661
 407  888.6047
 408  764.8858
 409  921.5398
 410  913.3933
 411  846.9495
 412  862.5154
 413  873.7505
 414  832.7873
 415  953.6279
 416  831.6758
 417  804.0181
 418  909.4084
 419  938.6865
 420  922.1025
 421  836.4634
 422  844.7374
 423  843.9144
 424  858.0782
 425  846.0416
 426  808.6832
 427  835.586
 428  890.2642
 429  779.8996
 430  844.4529
 431  773.0839
 432  804.8176
 433  841.622
 434  863.126
 435  802.343
 436  783.6177
 437  771.9547
 438  854.5431
 439  879.3868
 440  885.6878
 441  750.0703
 442  661.2625
 443  841.5436
 444  926.1081
 445  877.9327
 446  816.5548
 447  812.4034
 448  871.5961
 449  882.6904
 450  865.0249
 451  920.472
 452  993.8181
 453  961.0782
 454  851.7988
 455  827.2752
 456  845.3325
 457  857.9355
 458  854.1559
 459  953.3787
 460  908.2206
 461  930.9493
 462  873.1721
 463  877.8699
 464  856.0917
 465  931.1595
 466  912.215
 467  797.3131
 468  879.8754
 469  911.3101
 470  934.6516
 471  1015.564
 472  869.65
 473  864.3019
 474  886.0225
 475  803.8677
 476  887.0464
 477  912.7388
 478  890.4042
 479  826.2191
 480  764.9607
 481  793.1243
 482  806.5611
 483  743.9579
 484  798.7562
 485  847.0281
 486  848.0624
 487  733.0237
 488  771.8394
 489  836.4639
 490  901.8284
 491  930.6952
 492  985.9023
 493  949.2922
 494  894.2087
 495  935.5868
 496  858.6148
 497  878.8284
 498  952.0331
 499  943.6219
 500  896.9
 501  948.1689
 502  874.4538
 503  827.9341
 504  941.9271
 505  918.0635
 506  898.7404
 507  832.5516
 508  883.2253
 509  957.0959
 510  1091.286
 511  1218.702
