# Input file       =  1198330917.113058_cleaned.dat
# Candidate        =  PSR_0332+5434
# Telescope        =  AR
# Epoch_topo       =  58113.570591586322
# Epoch_bary       =  N/A
# T_sample         =  0.002
# Data Folded      =  7143424
# Data Avg         =  0.0760017913471294
# Data StdDev      =  1.00031765667259 
# Profile Bins     =  512
# Profile Avg      =  1060.3344389108  
# Profile StdDev   =  118.156105638385 
# Reduced chi-sqr  =  1.209
# Prob(Noise)      <  0.00082   (~3.1 sigma)
# P_topo (ms)      =  714.550981256106  +/- 0.00024
# P'_topo (s/s)    =  -0                +/- 1.3e-10
# P''_topo (s/s^2) =  0                 +/- 5.91e-14
# P_bary (ms)      =  N/A
# P'_bary (s/s)    =  N/A
# P''_bary (s/s^2) =  N/A
# P_orb (s)        =  N/A
# asin(i)/c (s)    =  N/A
# eccentricity     =  N/A
# w (rad)          =  N/A
# T_peri           =  N/A
######################################################
   0  1569.537
   1  1516.034
   2  1419.04
   3  1260.134
   4  1219.698
   5  1112.767
   6  1039.919
   7  986.2385
   8  1025.636
   9  990.2877
  10  902.8831
  11  1077.436
  12  1078.467
  13  1002.159
  14  1093.418
  15  964.4524
  16  1084.17
  17  1138.086
  18  1101.714
  19  1049.554
  20  1035.296
  21  1004.22
  22  1046.414
  23  1034.574
  24  1056.113
  25  957.3334
  26  1104.089
  27  1091.848
  28  1101.031
  29  1193.282
  30  1047.597
  31  1104.527
  32  1077.23
  33  1067.271
  34  1005.753
  35  1097.023
  36  1215.304
  37  1059.115
  38  957.5195
  39  1017.246
  40  1144.068
  41  1221.653
  42  1169.016
  43  1047.917
  44  1081.638
  45  1142.168
  46  1015.416
  47  931.4301
  48  1095.151
  49  1132.457
  50  1099.765
  51  1252.233
  52  1174.807
  53  1076.623
  54  999.2853
  55  979.4442
  56  1018.13
  57  1098.013
  58  969.6945
  59  1054.7
  60  1026.332
  61  1003.998
  62  1054.916
  63  1062.799
  64  1088.431
  65  1001.6
  66  1132.812
  67  1012.599
  68  998.0735
  69  947.4106
  70  1021.735
  71  1131.138
  72  1154.248
  73  1165.16
  74  1087.667
  75  989.7162
  76  1064.626
  77  1059.968
  78  1119.747
  79  1142.253
  80  1200.195
  81  1153.636
  82  1166.656
  83  1081.76
  84  1116.302
  85  1067.617
  86  1133.881
  87  1138.294
  88  981.7911
  89  1002.53
  90  1029.26
  91  1158.024
  92  1031.86
  93  1070.215
  94  1035.72
  95  970.9614
  96  965.8707
  97  1072.415
  98  1016.513
  99  1118.474
 100  1178.22
 101  1257.587
 102  1270.795
 103  1144.277
 104  1129.686
 105  1018.717
 106  1015.053
 107  1091.08
 108  1142.224
 109  1083.729
 110  1037.147
 111  1181.105
 112  1122.973
 113  1126.498
 114  1137.375
 115  1119.948
 116  1283.225
 117  1176.601
 118  1008.855
 119  1051.723
 120  1168.975
 121  1103.027
 122  964.4289
 123  1087.979
 124  1092.342
 125  1098.017
 126  1061.815
 127  1048.052
 128  970.9683
 129  1100.32
 130  1134.984
 131  1014.09
 132  1034.335
 133  1149.898
 134  1187.643
 135  1075.274
 136  1009.745
 137  1134.189
 138  1010.873
 139  945.0295
 140  1016.035
 141  1069.149
 142  1078.166
 143  1070.955
 144  1037.767
 145  1098.187
 146  1025.919
 147  912.4114
 148  1014.799
 149  1137.359
 150  1060.651
 151  1098.647
 152  1154.78
 153  1100.931
 154  1074.561
 155  1177.118
 156  1051.727
 157  1073.787
 158  1264.467
 159  1193.508
 160  1149.903
 161  1101.596
 162  1165.034
 163  1191.727
 164  1109.821
 165  1033.628
 166  1071.936
 167  1139.363
 168  1093.383
 169  939.7776
 170  997.3568
 171  1018.565
 172  985.9614
 173  1015.301
 174  1179.153
 175  1137.603
 176  1106.228
 177  1094.851
 178  1208.93
 179  1131.937
 180  1037.722
 181  1213.838
 182  1189.197
 183  1175.71
 184  1124.472
 185  1166.056
 186  1063.948
 187  1040.119
 188  1070.039
 189  1004.676
 190  1068.196
 191  1066.484
 192  1096.139
 193  1036.316
 194  893.6564
 195  993.7453
 196  981.886
 197  1017.22
 198  1110.849
 199  1124.804
 200  998.2497
 201  1053.895
 202  896.0591
 203  926.5308
 204  884.9632
 205  1010.41
 206  1018.938
 207  1022.146
 208  1081.377
 209  1064.417
 210  951.917
 211  1054.247
 212  1036.437
 213  1039.451
 214  1037.019
 215  1030.731
 216  977.4019
 217  997.0873
 218  1085.474
 219  1056.256
 220  964.7859
 221  946.2256
 222  985.8681
 223  984.2131
 224  1102.443
 225  1081.701
 226  1013.914
 227  926.2214
 228  1073.839
 229  1173.655
 230  1169.035
 231  1027.018
 232  1019.567
 233  1094.221
 234  1058.978
 235  1073.358
 236  1010.671
 237  1005.136
 238  1008.813
 239  901.8034
 240  1060.153
 241  1085.59
 242  969.3475
 243  999.8815
 244  1111.352
 245  1132.071
 246  979.6524
 247  987.534
 248  1115.77
 249  1137.491
 250  1051.939
 251  1021.405
 252  895.5071
 253  1001.325
 254  964.8092
 255  1068.933
 256  965.729
 257  1055.488
 258  1148.132
 259  1010.704
 260  898.8594
 261  950.1795
 262  990.2497
 263  1117.405
 264  970.9875
 265  934.1125
 266  1052.665
 267  1079.161
 268  948.1636
 269  993.5048
 270  1049.85
 271  1031.787
 272  1052.63
 273  1095.33
 274  1076.421
 275  1157.868
 276  1192.814
 277  1167.605
 278  1172.066
 279  1064.821
 280  1067.942
 281  1102.498
 282  1038.862
 283  1060.6
 284  1071.481
 285  988.097
 286  976.4808
 287  1076.934
 288  1137.246
 289  1185.763
 290  1036.777
 291  1040.271
 292  1050.605
 293  1032.979
 294  1020.607
 295  983.5556
 296  981.8771
 297  1123.865
 298  1099.248
 299  1071.217
 300  1042.25
 301  1113.85
 302  1089.856
 303  1021.296
 304  1142.846
 305  1250.217
 306  1165.798
 307  1009.425
 308  990.2165
 309  886.625
 310  886.1252
 311  831.2989
 312  1124.386
 313  1185.356
 314  1235.024
 315  1123.662
 316  1081.138
 317  1165.937
 318  1093.044
 319  1069.125
 320  1102.723
 321  951.7444
 322  1026.25
 323  1020.97
 324  1025.375
 325  1066.18
 326  997.0032
 327  986.5964
 328  1059.406
 329  1086.49
 330  1135.403
 331  1133.918
 332  1114.889
 333  1079.253
 334  1008.281
 335  959.7439
 336  1045.044
 337  941.318
 338  987.2814
 339  1019.441
 340  893.4324
 341  1005.713
 342  1020.868
 343  1078.634
 344  1173.829
 345  1028.045
 346  1049.429
 347  941.8403
 348  840.0356
 349  1008.501
 350  1134.76
 351  1086.354
 352  967.5043
 353  1003.582
 354  967.2824
 355  1089.079
 356  923.2078
 357  1011.527
 358  1069.632
 359  1059.237
 360  1083.688
 361  923.9027
 362  1018.117
 363  1132.286
 364  1214.586
 365  1096.206
 366  1103.827
 367  1092.889
 368  961.0784
 369  1020.747
 370  1133.756
 371  1143.498
 372  976.0198
 373  1003.45
 374  1062.737
 375  1044.093
 376  987.8076
 377  975.1694
 378  1098.314
 379  1129.668
 380  1050.776
 381  1050.354
 382  1021.284
 383  1067.185
 384  1090.931
 385  1025.815
 386  1056.299
 387  1087.758
 388  961.2955
 389  1042.491
 390  1056.91
 391  958.0817
 392  957.3292
 393  924.0865
 394  858.7162
 395  906.9083
 396  969.9678
 397  956.5275
 398  1044.917
 399  1023.097
 400  1052.051
 401  1006.47
 402  982.3008
 403  1062.001
 404  946.4042
 405  915.5435
 406  1083.123
 407  1137.992
 408  1082.577
 409  1039.125
 410  974.2122
 411  864.5199
 412  903.437
 413  1038.86
 414  983.2603
 415  890.9905
 416  975.3353
 417  1049.765
 418  987.0221
 419  986.6532
 420  933.1539
 421  888.5957
 422  894.5845
 423  1020.261
 424  1000.592
 425  1046.817
 426  986.5268
 427  896.1222
 428  922.383
 429  1025.846
 430  1081.454
 431  1081.803
 432  982.5007
 433  961.9316
 434  1098.373
 435  1147.067
 436  1174.571
 437  1185.668
 438  1156.875
 439  1053.74
 440  1039.721
 441  1161.15
 442  1110.274
 443  1016.224
 444  1098.889
 445  1161.363
 446  1310.71
 447  1258.362
 448  1216.257
 449  1164.999
 450  1183.9
 451  1075.836
 452  956.9523
 453  998.5497
 454  994.5842
 455  1069.771
 456  1053.194
 457  1008.029
 458  1022.793
 459  959.0948
 460  937.7075
 461  1027.891
 462  1001.213
 463  1026.641
 464  1168.253
 465  1087.482
 466  935.6605
 467  875.5071
 468  1085.987
 469  1078.393
 470  1132.777
 471  1124.143
 472  1025.928
 473  949.2175
 474  1091.992
 475  1081.836
 476  1022.386
 477  975.4651
 478  1046.599
 479  1021.361
 480  972.4377
 481  898.3873
 482  872.7524
 483  924.1719
 484  937.5973
 485  951.7838
 486  1053.008
 487  1085.841
 488  943.1903
 489  1036.186
 490  957.5997
 491  940.2872
 492  1056.143
 493  1081.403
 494  1097.091
 495  1031.59
 496  969.4739
 497  1031.505
 498  1092
 499  973.5034
 500  1078.199
 501  1079.766
 502  1179.912
 503  1262.513
 504  1234.858
 505  1095.683
 506  1178.395
 507  1214.896
 508  1171.311
 509  1289.821
 510  1524.782
 511  1534.936
