# Input file       =  1198072487.096268_cleaned.dat
# Candidate        =  PSR_0332+5434
# Telescope        =  AR
# Epoch_topo       =  58110.579503429028
# Epoch_bary       =  N/A
# T_sample         =  0.002
# Data Folded      =  7143424
# Data Avg         =  0.07432329505944 
# Data StdDev      =  1.00078269335744 
# Profile Bins     =  512
# Profile Avg      =  1036.84212475139 
# Profile StdDev   =  118.211035113332 
# Reduced chi-sqr  =  0.792
# Prob(Noise)      <  1   (~0.0 sigma)
# P_topo (ms)      =  714.548228332006  +/- 6.84e-05
# P'_topo (s/s)    =  -0                +/- 3.71e-11
# P''_topo (s/s^2) =  0                 +/- 1.68e-14
# P_bary (ms)      =  N/A
# P'_bary (s/s)    =  N/A
# P''_bary (s/s^2) =  N/A
# P_orb (s)        =  N/A
# asin(i)/c (s)    =  N/A
# eccentricity     =  N/A
# w (rad)          =  N/A
# T_peri           =  N/A
######################################################
   0  1290.427
   1  1217.186
   2  1198.244
   3  1205.68
   4  1114.556
   5  1052.17
   6  1056.619
   7  1127.858
   8  1104.4
   9  1142.676
  10  1205.959
  11  1067.08
  12  966.3717
  13  1030.24
  14  961.493
  15  973.4804
  16  1085.837
  17  1078.778
  18  1014.552
  19  1139.551
  20  1071.082
  21  1025.203
  22  1040.134
  23  1022.564
  24  1046.212
  25  1004.716
  26  1008.109
  27  950.9741
  28  978.2679
  29  978.8004
  30  1008.127
  31  1112.511
  32  1094.62
  33  979.0287
  34  1017.583
  35  1079.186
  36  961.5184
  37  872.4704
  38  882.3715
  39  912.3391
  40  881.5059
  41  923.6714
  42  1005.879
  43  1043.185
  44  955.3884
  45  914.1705
  46  955.6898
  47  1055.721
  48  1027.413
  49  1046.951
  50  1036.027
  51  991.9872
  52  1053.724
  53  1037.48
  54  1008.839
  55  1103.335
  56  1139.097
  57  1128.462
  58  1117.104
  59  1069.083
  60  1040.171
  61  974.0249
  62  1086.21
  63  1067.261
  64  1055.843
  65  1084.749
  66  1233.365
  67  1125.523
  68  1010.321
  69  1125.307
  70  1043.641
  71  904.3595
  72  906.3729
  73  853.3837
  74  1046.793
  75  952.7263
  76  899.1911
  77  983.4708
  78  1078.395
  79  1030.237
  80  1020.889
  81  1134.295
  82  1040.448
  83  953.0126
  84  907.4282
  85  1047.635
  86  969.1797
  87  993.8134
  88  1027.704
  89  1116.531
  90  1056.379
  91  1012.892
  92  992.0928
  93  1002.96
  94  944.9948
  95  972.3585
  96  1018.003
  97  1031.629
  98  1015.755
  99  1087.53
 100  1094.547
 101  1032.505
 102  1110.745
 103  1117.147
 104  980.7266
 105  1016.578
 106  1120.383
 107  1149.19
 108  1128.474
 109  1075.696
 110  923.9005
 111  891.5052
 112  912.0956
 113  928.884
 114  1118.171
 115  1173.127
 116  1080.123
 117  1061.14
 118  1069.421
 119  1060.732
 120  1046.244
 121  1074.398
 122  1036.44
 123  1025.573
 124  1075.81
 125  1045.008
 126  1089.519
 127  1058.927
 128  984.8162
 129  1021.628
 130  979.9351
 131  1051.823
 132  1081.986
 133  1021.854
 134  1006.597
 135  1006.674
 136  1018.817
 137  1028.501
 138  1029.995
 139  1064.818
 140  1069.766
 141  1026.039
 142  1128.185
 143  1063.144
 144  973.8969
 145  988.5945
 146  994.7567
 147  1034.433
 148  1079.135
 149  1023.722
 150  1087.39
 151  1091.464
 152  999.5748
 153  1016.326
 154  968.745
 155  901.3508
 156  1059.792
 157  1114.742
 158  1038.186
 159  996.9863
 160  962.5981
 161  874.3167
 162  891.5724
 163  928.6469
 164  1034.508
 165  935.1868
 166  932.4764
 167  1011.147
 168  975.0375
 169  945.167
 170  1007.395
 171  1028.081
 172  912.8693
 173  891.7875
 174  944.1639
 175  898.1486
 176  1043.549
 177  981.9939
 178  991.86
 179  1041.419
 180  1112.125
 181  1107.519
 182  1051.841
 183  975.3632
 184  1050.861
 185  1063.639
 186  1074.063
 187  963.1121
 188  1006.148
 189  1086.527
 190  984.6166
 191  1025.682
 192  1017.996
 193  930.8543
 194  880.5418
 195  934.4266
 196  1006.658
 197  1080.145
 198  1002.221
 199  1051.44
 200  1045.117
 201  1016.669
 202  906.984
 203  1026.254
 204  1026.19
 205  1114.799
 206  1138.667
 207  1098.14
 208  960.8044
 209  982.902
 210  1072.149
 211  1043.511
 212  1069.727
 213  1039.002
 214  1042.004
 215  1063.72
 216  1099.859
 217  1035.584
 218  1056.226
 219  1036.913
 220  1003.056
 221  935.8276
 222  801.4478
 223  1000.071
 224  1108.289
 225  1031.814
 226  896.2887
 227  1025.665
 228  1122.589
 229  1030.263
 230  1035.558
 231  1076.14
 232  984.4833
 233  1004.899
 234  1002.364
 235  1015.168
 236  993.804
 237  1012.327
 238  1088.029
 239  1116.854
 240  1007.451
 241  840.9404
 242  961.2614
 243  955.7102
 244  908.9758
 245  989.6906
 246  1086.976
 247  921.0753
 248  896.8583
 249  990.5297
 250  1087.71
 251  1080.909
 252  1038.022
 253  1061.54
 254  1049.423
 255  1002.496
 256  1073.173
 257  1024.794
 258  984.4355
 259  994.8168
 260  1085.084
 261  1130.852
 262  1061.171
 263  1139.313
 264  1132.016
 265  1016.871
 266  926.7548
 267  1098.851
 268  1033.436
 269  988.3708
 270  1076.945
 271  1219.738
 272  986.1758
 273  865.6429
 274  1051.717
 275  1091.79
 276  1079.569
 277  1032.772
 278  1019.814
 279  984.0867
 280  1113.267
 281  1110.271
 282  1035.73
 283  1041.445
 284  1031.513
 285  1084.185
 286  1098.01
 287  1095.851
 288  1061.507
 289  1073.423
 290  1021.985
 291  976.827
 292  961.7889
 293  997.7822
 294  1065.622
 295  1055.886
 296  1109.729
 297  1060.388
 298  1044.194
 299  1017.167
 300  1017.879
 301  1020.843
 302  960.031
 303  1059.051
 304  1220.173
 305  1117.225
 306  1032.893
 307  1092.661
 308  1038.411
 309  958.767
 310  1028.16
 311  1108.945
 312  1045.188
 313  1140.082
 314  1189.31
 315  1046.187
 316  951.2181
 317  1082.111
 318  1108.276
 319  1090.728
 320  1128.919
 321  1061.1
 322  1056.939
 323  1032.031
 324  959.0245
 325  986.2599
 326  1079.181
 327  1105.947
 328  991.0224
 329  958.6003
 330  1001.23
 331  1126.069
 332  1191.563
 333  1071.136
 334  1059.479
 335  1032.662
 336  1020.402
 337  986.7618
 338  977.4962
 339  986.3486
 340  883.2258
 341  906.803
 342  977.4319
 343  977.1914
 344  1095.096
 345  985.4263
 346  955.4868
 347  883.2344
 348  977.2055
 349  1009.18
 350  968.5316
 351  939.5954
 352  1002.162
 353  1055.551
 354  1032.612
 355  903.6218
 356  914.594
 357  970.2936
 358  928.0289
 359  976.1388
 360  1037.047
 361  1014.697
 362  941.0054
 363  904.3393
 364  958.0211
 365  981.976
 366  1045.657
 367  1047.404
 368  1034.127
 369  902.9589
 370  953.4497
 371  1050.752
 372  991.2883
 373  995.5544
 374  1064.496
 375  1053.767
 376  995.033
 377  950.1865
 378  1034.219
 379  1111.144
 380  1029.686
 381  970.959
 382  1069.546
 383  1046.719
 384  1068.08
 385  1071.205
 386  1159.51
 387  992.8233
 388  904.4819
 389  1006.397
 390  948.7383
 391  951.4006
 392  1030.945
 393  1099.439
 394  1062.88
 395  1078.211
 396  1079.767
 397  979.0371
 398  1015.652
 399  1024.409
 400  1080.681
 401  1118.264
 402  1011.541
 403  898.3015
 404  1064.581
 405  1022.802
 406  939.0871
 407  1018.494
 408  867.7635
 409  835.6611
 410  1010.916
 411  1069.685
 412  1009.986
 413  1038.626
 414  1116.686
 415  1132.513
 416  1074.963
 417  1085.255
 418  1035.339
 419  1007.021
 420  1133.386
 421  1027.607
 422  936.2623
 423  1020.375
 424  1012.442
 425  1070.716
 426  976.6785
 427  1005.325
 428  1048.754
 429  1099.536
 430  1021.957
 431  1117.437
 432  1093.439
 433  1114.759
 434  1098.073
 435  1154.756
 436  1186.095
 437  1104.561
 438  1105.398
 439  1184.519
 440  1045.088
 441  1033.495
 442  1093.783
 443  1182.007
 444  1164.214
 445  1059.582
 446  1033.713
 447  957.4577
 448  1023.908
 449  1077.907
 450  965.1849
 451  997.4053
 452  1113.122
 453  1001.581
 454  1014.528
 455  1114.383
 456  1009.952
 457  905.7448
 458  1087.988
 459  1110.613
 460  1100.546
 461  1070.197
 462  1117.726
 463  1302.565
 464  1304.71
 465  1074.087
 466  1106.956
 467  1191.953
 468  1121.974
 469  1068.709
 470  1054.097
 471  1029.066
 472  937.631
 473  969.6473
 474  1044.58
 475  1007.867
 476  1074.757
 477  1100.387
 478  1082.132
 479  1193.03
 480  1157.323
 481  1040.118
 482  1157.7
 483  1118.568
 484  983.7283
 485  1054.811
 486  1215.776
 487  1212.959
 488  1093.45
 489  1069.374
 490  1148.194
 491  1080.741
 492  1114.346
 493  1170.771
 494  1062.84
 495  1102.369
 496  1184.743
 497  1137.453
 498  1099.479
 499  1041.107
 500  1051.593
 501  939.0574
 502  994.9404
 503  1030.363
 504  1018.577
 505  945.2278
 506  1032.102
 507  1128.551
 508  1112.806
 509  1171.419
 510  1233.661
 511  1242.33
