# Input file       =  1198101969.101099_cleaned.dat
# Candidate        =  PSR_0332+5434
# Telescope        =  AR
# Epoch_topo       =  58110.920730336795
# Epoch_bary       =  N/A
# T_sample         =  0.002
# Data Folded      =  7340032
# Data Avg         =  0.0513163905651861
# Data StdDev      =  1.00028522202769 
# Profile Bins     =  512
# Profile Avg      =  735.61644953193  
# Profile StdDev   =  119.767186876183 
# Reduced chi-sqr  =  0.746
# Prob(Noise)      <  1   (~0.0 sigma)
# P_topo (ms)      =  714.548906491641  +/- 0.000147
# P'_topo (s/s)    =  -0                +/- 7.76e-11
# P''_topo (s/s^2) =  0                 +/- 3.43e-14
# P_bary (ms)      =  N/A
# P'_bary (s/s)    =  N/A
# P''_bary (s/s^2) =  N/A
# P_orb (s)        =  N/A
# asin(i)/c (s)    =  N/A
# eccentricity     =  N/A
# w (rad)          =  N/A
# T_peri           =  N/A
######################################################
   0  1100.939
   1  1144.836
   2  959.243
   3  954.7752
   4  872.9993
   5  784.2112
   6  805.5145
   7  758.4296
   8  711.0031
   9  664.5753
  10  687.9806
  11  774.7438
  12  770.4011
  13  811.7407
  14  771.3605
  15  743.9644
  16  718.4468
  17  743.9445
  18  648.785
  19  814.7466
  20  887.9631
  21  825.1484
  22  747.1691
  23  692.887
  24  765.0656
  25  747.4736
  26  831.0197
  27  875.442
  28  836.4869
  29  720.3757
  30  670.4053
  31  820.4343
  32  731.1406
  33  709.1633
  34  730.3411
  35  793.7386
  36  824.2003
  37  767.8567
  38  852.6214
  39  801.7341
  40  660.004
  41  674.2343
  42  795.2344
  43  775.1953
  44  830.3577
  45  791.0668
  46  673.4664
  47  684.4523
  48  813.4487
  49  730.313
  50  707.8416
  51  692.7031
  52  766.7274
  53  694.3046
  54  586.0175
  55  807.3031
  56  799.6974
  57  753.288
  58  713.9759
  59  744.5043
  60  869.9396
  61  845.3686
  62  893.0229
  63  779.8696
  64  722.7954
  65  767.306
  66  826.5001
  67  866.7266
  68  770.1821
  69  858.6199
  70  890.9807
  71  746.4032
  72  695.2081
  73  795.9633
  74  815.1555
  75  794.1968
  76  784.9538
  77  676.1977
  78  708.1935
  79  723.9203
  80  665.738
  81  647.0569
  82  608.6089
  83  689.4661
  84  728.0443
  85  662.4416
  86  548.671
  87  673.6256
  88  726.315
  89  700.0171
  90  624.4603
  91  798.342
  92  749.3073
  93  608.7557
  94  701.9597
  95  654.1751
  96  725.9711
  97  724.1387
  98  769.2843
  99  701.4188
 100  676.688
 101  843.9874
 102  727.8049
 103  697.5582
 104  698.4603
 105  739.7853
 106  773.2948
 107  767.9524
 108  759.3601
 109  711.528
 110  700.7963
 111  697.364
 112  818.3362
 113  748.4356
 114  714.3781
 115  672.7015
 116  680.9478
 117  638.2372
 118  603.7355
 119  649.2607
 120  819.8213
 121  768.6499
 122  796.0187
 123  807.5042
 124  783.3865
 125  766.4268
 126  797.7074
 127  775.1693
 128  781.447
 129  726.243
 130  774.0242
 131  814.3373
 132  708.8029
 133  734.0399
 134  736.8852
 135  700.0355
 136  661.8935
 137  713.5776
 138  634.9582
 139  757.8186
 140  773.333
 141  756.3945
 142  693.0969
 143  671.1067
 144  823.0657
 145  831.2427
 146  670.8202
 147  653.6343
 148  741.8312
 149  689.8716
 150  669.0261
 151  738.6024
 152  660.7814
 153  669.9036
 154  650.4967
 155  607.0718
 156  713.7831
 157  692.9656
 158  644.9065
 159  609.2621
 160  670.6837
 161  728.9833
 162  745.3233
 163  644.1375
 164  682.9003
 165  589.5113
 166  478.7165
 167  539.5266
 168  599.3236
 169  689.3257
 170  779.6832
 171  685.4252
 172  666.6866
 173  747.0604
 174  748.8275
 175  707.3589
 176  646.1964
 177  697.418
 178  736.0968
 179  727.7626
 180  764.9142
 181  692.1755
 182  763.6411
 183  753.9059
 184  728.0828
 185  662.0895
 186  687.497
 187  832.5424
 188  750.3326
 189  646.804
 190  640.7852
 191  770.0079
 192  834.5518
 193  848.5016
 194  769.5472
 195  687.4641
 196  700.4007
 197  778.1288
 198  826.222
 199  840.8947
 200  824.3062
 201  740.6238
 202  679.3854
 203  793.5649
 204  714.2181
 205  727.6708
 206  720.6328
 207  766.3725
 208  779.7684
 209  761.0831
 210  726.9688
 211  754.6557
 212  807.5503
 213  739.6893
 214  675.2309
 215  629.1623
 216  758.1824
 217  733.062
 218  602.7301
 219  697.1067
 220  729.57
 221  632.7786
 222  604.4877
 223  654.3757
 224  638.8058
 225  702.4981
 226  696.8438
 227  682.3419
 228  679.77
 229  631.3667
 230  739.9468
 231  751.4956
 232  790.9482
 233  832.5443
 234  776.5415
 235  816.7652
 236  841.0266
 237  823.9739
 238  764.81
 239  766.6981
 240  735.039
 241  774.3224
 242  769.2547
 243  778.1164
 244  805.7953
 245  764.4583
 246  844.9248
 247  738.0027
 248  683.5848
 249  757.9683
 250  725.9223
 251  733.7894
 252  738.0066
 253  691.7745
 254  608.0941
 255  735.8793
 256  781.2803
 257  712.605
 258  756.1912
 259  795.0372
 260  798.542
 261  756.6229
 262  779.4128
 263  933.0766
 264  844.1754
 265  840.8459
 266  870.1202
 267  735.9214
 268  764.6592
 269  767.7229
 270  752.542
 271  810.7694
 272  788.1473
 273  889.2332
 274  818.3374
 275  699.9277
 276  816.2355
 277  898.4886
 278  685.121
 279  669.6135
 280  773.5313
 281  752.5881
 282  823.5257
 283  827.5305
 284  840.9006
 285  732.0223
 286  728.2611
 287  769.2917
 288  723.6024
 289  696.3406
 290  676.122
 291  742.4678
 292  753.4042
 293  699.8357
 294  648.4737
 295  679.2759
 296  799.2656
 297  714.0286
 298  691.5392
 299  745.5454
 300  740.1725
 301  678.0166
 302  674.3622
 303  848.7532
 304  823.7856
 305  807.7986
 306  867.6734
 307  773.8743
 308  684.4395
 309  762.4399
 310  721.8394
 311  748.3698
 312  728.2704
 313  761.989
 314  745.1391
 315  720.0068
 316  780.3995
 317  782.6937
 318  721.3145
 319  639.0623
 320  611.3212
 321  619.9563
 322  514.3751
 323  763.5204
 324  812.2275
 325  671.4723
 326  602.8454
 327  689.5789
 328  657.4611
 329  612.8167
 330  713.3737
 331  760.6552
 332  684.5809
 333  645.7196
 334  712.4799
 335  687.0928
 336  677.9109
 337  748.5944
 338  745.1143
 339  760.4421
 340  701.1823
 341  746.7057
 342  745.8693
 343  671.7185
 344  707.7559
 345  706.5491
 346  699.2122
 347  713.2332
 348  762.3365
 349  696.4883
 350  637.3038
 351  654.8019
 352  728.706
 353  729.0904
 354  639.9476
 355  780.2946
 356  790.8975
 357  803.9926
 358  807.6981
 359  789.1658
 360  674.2455
 361  665.7422
 362  702.5845
 363  714.0485
 364  719.1536
 365  745.5939
 366  799.8631
 367  764.7426
 368  754.6521
 369  726.9227
 370  720.8614
 371  755.6941
 372  622.1132
 373  577.7288
 374  672.941
 375  774.1742
 376  743.8082
 377  715.4045
 378  712.6443
 379  788.1359
 380  789.9183
 381  688.2325
 382  672.259
 383  582.315
 384  700.6176
 385  806.0105
 386  758.13
 387  662.3682
 388  720.2152
 389  678.0814
 390  631.8097
 391  584.1747
 392  642.9294
 393  689.3821
 394  698.0133
 395  712.8032
 396  669.6584
 397  717.0884
 398  776.722
 399  673.2013
 400  718.576
 401  782.1539
 402  654.2205
 403  637.2647
 404  736.505
 405  683.0959
 406  744.0315
 407  815.8081
 408  659.739
 409  757.0933
 410  669.0043
 411  635.1825
 412  641.6943
 413  721.8571
 414  756.8804
 415  707.4569
 416  663.8346
 417  720.9872
 418  810.3969
 419  912.2543
 420  727.0249
 421  691.9604
 422  789.0103
 423  764.0092
 424  788.4317
 425  779.7403
 426  710.2925
 427  683.3997
 428  779.455
 429  808.5935
 430  677.6324
 431  691.7147
 432  787.0865
 433  719.0668
 434  739.9642
 435  762.049
 436  798.0368
 437  806.8077
 438  664.3604
 439  716.0479
 440  718.0429
 441  790.6816
 442  773.2442
 443  698.0191
 444  701.469
 445  672.8174
 446  663.1927
 447  741.0385
 448  748.9705
 449  764.9282
 450  743.7933
 451  690.9062
 452  744.2228
 453  642.221
 454  617.7534
 455  640.3926
 456  728.8226
 457  767.956
 458  685.0899
 459  731.3438
 460  769.1707
 461  778.7012
 462  699.4179
 463  703.3871
 464  681.9286
 465  666.5944
 466  734.6759
 467  771.798
 468  753.9093
 469  754.366
 470  689.4095
 471  696.1181
 472  639.9717
 473  676.96
 474  627.8469
 475  553.6755
 476  656.2617
 477  741.3157
 478  731.2112
 479  760.6727
 480  740.7172
 481  743.3847
 482  737.3485
 483  764.2623
 484  715.9188
 485  713.215
 486  714.7518
 487  644.0425
 488  748.8431
 489  788.2853
 490  793.6042
 491  831.1989
 492  841.1176
 493  773.343
 494  651.2969
 495  826.6414
 496  958.9399
 497  841.9464
 498  744.9308
 499  697.8149
 500  745.4847
 501  739.1116
 502  681.7484
 503  700.0099
 504  722.3695
 505  669.9816
 506  704.7131
 507  713.1541
 508  883.5439
 509  914.3124
 510  1023.559
 511  987.737
