# Input file       =  1198345507.109696_cleaned.dat
# Candidate        =  PSR_0332+5434
# Telescope        =  AR
# Epoch_topo       =  58113.739457288146
# Epoch_bary       =  N/A
# T_sample         =  0.002
# Data Folded      =  7340032
# Data Avg         =  0.0526103996795419
# Data StdDev      =  1.00016356558104 
# Profile Bins     =  512
# Profile Avg      =  754.177109265214 
# Profile StdDev   =  119.752620580431 
# Reduced chi-sqr  =  1.004
# Prob(Noise)      <  0.468   (~0.1 sigma)
# P_topo (ms)      =  714.55115452506   +/- 0.000362
# P'_topo (s/s)    =  -0                +/- 1.91e-10
# P''_topo (s/s^2) =  0                 +/- 8.44e-14
# P_bary (ms)      =  N/A
# P'_bary (s/s)    =  N/A
# P''_bary (s/s^2) =  N/A
# P_orb (s)        =  N/A
# asin(i)/c (s)    =  N/A
# eccentricity     =  N/A
# w (rad)          =  N/A
# T_peri           =  N/A
######################################################
   0  1079.373
   1  1102.792
   2  1141.368
   3  891.0779
   4  738.0555
   5  759.1646
   6  736.2744
   7  717.4595
   8  778.8203
   9  795.4393
  10  794.0887
  11  744.9483
  12  785.1102
  13  853.7076
  14  837.5352
  15  791.1083
  16  702.7903
  17  698.2277
  18  711.6183
  19  847.7296
  20  806.7141
  21  633.6518
  22  637.8586
  23  746.3857
  24  800.9177
  25  718.826
  26  806.2045
  27  854.5302
  28  797.9899
  29  692.2048
  30  764.2695
  31  812.8819
  32  675.2394
  33  684.1201
  34  809.6721
  35  860.0437
  36  646.9683
  37  762.9604
  38  739.583
  39  643.8447
  40  723.7502
  41  785.3223
  42  779.6475
  43  760.6191
  44  723.6688
  45  754.4019
  46  744.0917
  47  641.2626
  48  587.2214
  49  683.4315
  50  634.6121
  51  729.2256
  52  766.5756
  53  733.6082
  54  828.1056
  55  827.0673
  56  783.2089
  57  641.6898
  58  662.5792
  59  742.5097
  60  744.1439
  61  731.7186
  62  724.6009
  63  664.2943
  64  687.6522
  65  834.845
  66  859.2783
  67  668.7482
  68  710.0991
  69  841.3847
  70  902.4604
  71  808.7032
  72  658.4328
  73  769.0814
  74  826.2913
  75  806.598
  76  750.7678
  77  552.3566
  78  625.6939
  79  699.6693
  80  692.2734
  81  842.5286
  82  873.4531
  83  814.8328
  84  755.8914
  85  775.1668
  86  742.6662
  87  706.9
  88  765.1222
  89  797.5881
  90  793.4922
  91  685.2419
  92  726.6802
  93  714.9784
  94  767.7609
  95  852.1174
  96  865.4753
  97  787.0295
  98  677.494
  99  728.001
 100  769.5079
 101  848.1058
 102  834.9824
 103  794.6671
 104  582.2215
 105  556.2203
 106  595.9587
 107  663.667
 108  701.2994
 109  676.6178
 110  659.4191
 111  739.5887
 112  691.2665
 113  779.9905
 114  700.4095
 115  739.2325
 116  877.2334
 117  801.0635
 118  682.9899
 119  597.2897
 120  611.3658
 121  673.9117
 122  819.7328
 123  724.4792
 124  739.7806
 125  717.2618
 126  723.2447
 127  690.8569
 128  734.9541
 129  798.5394
 130  941.7441
 131  889.519
 132  726.8751
 133  742.7111
 134  667.247
 135  674.9926
 136  697.863
 137  652.6252
 138  653.4063
 139  686.2581
 140  721.8823
 141  593.231
 142  617.1107
 143  641.1745
 144  642.1911
 145  751.3897
 146  819.8789
 147  949.8239
 148  840.1666
 149  767.605
 150  848.9694
 151  731.0143
 152  760.6779
 153  736.8742
 154  718.2434
 155  695.3616
 156  735.2524
 157  776.0521
 158  755.2836
 159  696.2926
 160  745.0936
 161  752.7958
 162  751.3249
 163  697.8404
 164  722.9524
 165  647.5673
 166  659.1036
 167  778.6256
 168  767.3836
 169  904.313
 170  806.2158
 171  855.6174
 172  956.7416
 173  901.9158
 174  845.6619
 175  749.4354
 176  801.4517
 177  863.199
 178  815.957
 179  723.186
 180  684.3896
 181  749.0266
 182  842.8783
 183  801.2729
 184  714.8884
 185  780.4944
 186  776.0796
 187  773.474
 188  769.0356
 189  816.4432
 190  870.3567
 191  694.0366
 192  714.9701
 193  717.6248
 194  669.5094
 195  737.5958
 196  735.1111
 197  786.5355
 198  764.3366
 199  762.0774
 200  687.9733
 201  613.4949
 202  709.1588
 203  694.1614
 204  690.1258
 205  795.1671
 206  793.0328
 207  710.1506
 208  647.518
 209  633.4261
 210  722.416
 211  696.868
 212  692.922
 213  720.8861
 214  683.4413
 215  715.3035
 216  656.7875
 217  624.793
 218  602.0303
 219  680.5602
 220  800.864
 221  702.3754
 222  705.9366
 223  775.7507
 224  707.5693
 225  752.6332
 226  657.6345
 227  694.1523
 228  742.4926
 229  728.1926
 230  730.6269
 231  709.6815
 232  657.8768
 233  704.8188
 234  789.0573
 235  878.3251
 236  706.8011
 237  603.2519
 238  786.4303
 239  691.5442
 240  568.4712
 241  644.5833
 242  784.5979
 243  701.2882
 244  693.7454
 245  679.7616
 246  597.757
 247  685.5841
 248  671.2131
 249  668.8002
 250  724.6395
 251  678.551
 252  774.3953
 253  851.399
 254  849.3171
 255  773.5389
 256  783.1635
 257  760.3687
 258  658.7352
 259  652.8479
 260  722.8815
 261  804.1324
 262  642.9797
 263  722.2817
 264  826.7938
 265  632.3629
 266  676.3628
 267  782.1033
 268  860.7172
 269  825.3229
 270  730.9518
 271  688.9805
 272  762.1865
 273  741.0214
 274  765.6454
 275  652.1268
 276  595.3688
 277  683.7913
 278  768.9772
 279  748.3818
 280  706.223
 281  608.3497
 282  662.8992
 283  765.0109
 284  715.1221
 285  708.915
 286  658.8409
 287  659.5525
 288  751.5966
 289  816.5012
 290  819.7273
 291  808.3197
 292  871.3366
 293  930.3228
 294  773.9011
 295  625.2848
 296  651.0982
 297  686.9628
 298  730.1363
 299  749.5798
 300  729.7091
 301  670.4963
 302  627.3263
 303  711.1277
 304  744.5023
 305  697.8079
 306  716.4722
 307  757.8235
 308  847.823
 309  902.5012
 310  926.111
 311  705.2374
 312  564.4264
 313  711.5214
 314  790.8553
 315  792.6962
 316  742.4169
 317  804.3271
 318  756.7482
 319  614.8038
 320  674.5125
 321  777.7732
 322  760.7697
 323  723.5374
 324  890.3727
 325  774.9884
 326  651.0489
 327  678.178
 328  678.8098
 329  656.4927
 330  609.2717
 331  709.4188
 332  762.2421
 333  757.3304
 334  790.1333
 335  849.0778
 336  776.1626
 337  729.8359
 338  746.6207
 339  816.1583
 340  779.3329
 341  628.282
 342  619.9536
 343  716.289
 344  751.6021
 345  806.3572
 346  670.1295
 347  773.0753
 348  727.4506
 349  756.701
 350  757.7336
 351  694.9766
 352  783.0846
 353  902.5418
 354  913.1264
 355  799.19
 356  744.8821
 357  760.7294
 358  658.403
 359  741.3356
 360  883.4331
 361  829.6061
 362  839.1684
 363  941.8482
 364  914.8371
 365  830.9377
 366  856.6143
 367  859.0345
 368  765.5537
 369  735.4628
 370  862.4517
 371  793.6088
 372  737.3078
 373  800.8351
 374  769.9196
 375  744.752
 376  798.3367
 377  826.1398
 378  756.4012
 379  810.4981
 380  778.804
 381  820.5372
 382  784.8803
 383  778.1471
 384  750.2409
 385  854.7396
 386  903.3501
 387  753.2355
 388  771.9366
 389  749.0448
 390  602.1381
 391  693.7148
 392  777.2354
 393  753.1573
 394  848.1746
 395  863.4879
 396  734.6748
 397  759.5593
 398  839.6313
 399  738.2621
 400  729.3289
 401  703.0372
 402  731.6959
 403  785.1232
 404  860.2745
 405  812.9302
 406  703.2109
 407  826.0076
 408  718.0353
 409  721.9728
 410  691.8455
 411  709.7175
 412  809.3478
 413  767.8624
 414  748.1472
 415  763.371
 416  811.166
 417  732.2023
 418  711.8604
 419  812.5587
 420  853.8705
 421  911.0274
 422  855.5424
 423  735.2426
 424  716.7142
 425  697.3657
 426  775.0996
 427  730.9667
 428  821.9213
 429  784.549
 430  692.1585
 431  811.5233
 432  827.0286
 433  768.9318
 434  792.4036
 435  786.2139
 436  778.1065
 437  797.2568
 438  818.5811
 439  866.8616
 440  764.2815
 441  772.7147
 442  754.4019
 443  878.8548
 444  856.1456
 445  809.2026
 446  798.4392
 447  737.1759
 448  744.8662
 449  774.7421
 450  721.2966
 451  716.2097
 452  781.883
 453  812.8315
 454  802.05
 455  757.6557
 456  734.9319
 457  803.5859
 458  725.5167
 459  696.3645
 460  706.056
 461  775.7147
 462  694.4953
 463  678.8324
 464  710.0866
 465  702.2543
 466  674.3926
 467  711.4658
 468  622.8957
 469  567.4464
 470  491.5908
 471  659.3058
 472  682.5271
 473  724.0402
 474  691.0596
 475  556.4034
 476  593.9134
 477  723.2448
 478  688.7569
 479  814.5372
 480  772.5202
 481  648.9775
 482  744.7154
 483  708.5328
 484  649.0452
 485  661.6505
 486  790.2832
 487  804.3793
 488  793.1102
 489  889.4705
 490  872.4457
 491  818.6044
 492  882.4131
 493  907.9039
 494  920.162
 495  885.501
 496  843.0167
 497  828.2018
 498  888.355
 499  970.35
 500  888.0358
 501  765.3312
 502  679.9691
 503  781.4832
 504  869.3408
 505  875.9849
 506  880.0889
 507  938.791
 508  949.0455
 509  1000.379
 510  1107.209
 511  1154.01
