# Input file       =  1198345507.109696_cleaned.dat
# Candidate        =  PSR_0332+5434
# Telescope        =  AR
# Epoch_topo       =  58113.739457288146
# Epoch_bary       =  N/A
# T_sample         =  0.002
# Data Folded      =  7340032
# Data Avg         =  0.0526103996795419
# Data StdDev      =  1.00016356558104 
# Profile Bins     =  512
# Profile Avg      =  754.177109127948 
# Profile StdDev   =  119.752620580431 
# Reduced chi-sqr  =  1.001
# Prob(Noise)      <  0.483   (~0.0 sigma)
# P_topo (ms)      =  714.55115468437   +/- 0.000356
# P'_topo (s/s)    =  -0                +/- 1.88e-10
# P''_topo (s/s^2) =  0                 +/- 8.29e-14
# P_bary (ms)      =  N/A
# P'_bary (s/s)    =  N/A
# P''_bary (s/s^2) =  N/A
# P_orb (s)        =  N/A
# asin(i)/c (s)    =  N/A
# eccentricity     =  N/A
# w (rad)          =  N/A
# T_peri           =  N/A
######################################################
   0  1063.978
   1  1165.078
   2  1022.806
   3  774.6568
   4  737.0279
   5  763.2827
   6  705.694
   7  750.9583
   8  797.9004
   9  791.9308
  10  782.2798
  11  743.241
  12  845.8364
  13  840.1207
  14  828.5347
  15  727.1279
  16  699.6153
  17  688.8866
  18  792.4285
  19  860.2927
  20  700.3679
  21  600.3304
  22  701.4978
  23  793.1326
  24  759.4132
  25  744.8514
  26  857.1382
  27  823.3284
  28  732.8895
  29  708.4018
  30  832.3812
  31  738.9645
  32  641.2516
  33  758.3351
  34  866.062
  35  750.9711
  36  666.2792
  37  803.4296
  38  652.1303
  39  677.406
  40  774.5781
  41  791.1797
  42  765.0004
  43  729.8145
  44  738.6484
  45  757.0178
  46  705.8959
  47  571.1444
  48  654.7896
  49  666.0239
  50  657.4093
  51  784.8231
  52  723.4566
  53  793.1327
  54  835.3179
  55  808.3714
  56  695.2524
  57  640.3984
  58  707.9957
  59  765.2701
  60  719.5823
  61  735.6647
  62  703.376
  63  638.9529
  64  786.2086
  65  866.3455
  66  761.6942
  67  659.3705
  68  798.278
  69  887.1941
  70  858.7587
  71  702.7719
  72  706.4879
  73  816.9867
  74  813.0029
  75  798.2616
  76  627.5292
  77  554.6987
  78  696.228
  79  677.5779
  80  774.9362
  81  881.3542
  82  845.8377
  83  777.3666
  84  761.3228
  85  764.5715
  86  705.3502
  87  749.8738
  88  770.1838
  89  831.5674
  90  704.4005
  91  712.7435
  92  721.5259
  93  735.5364
  94  834.4831
  95  857.1588
  96  843.1848
  97  683.3021
  98  714.7382
  99  736.2675
 100  824.4979
 101  842.0478
 102  840.1785
 103  661.9824
 104  564.5547
 105  562.1185
 106  658.2488
 107  661.5585
 108  722.725
 109  627.0004
 110  725.0565
 111  701.8093
 112  737.0757
 113  751.892
 114  691.4995
 115  838.4733
 116  852.7478
 117  723.9869
 118  639.2954
 119  606.7582
 120  615.4185
 121  776.3561
 122  752.4373
 123  753.6602
 124  707.0195
 125  739.2635
 126  683.8139
 127  722.8891
 128  750.1943
 129  879.9254
 130  964.1817
 131  764.59
 132  758.6526
 133  691.1611
 134  648.5985
 135  706.1006
 136  676.1426
 137  636.7511
 138  682.666
 139  708.9229
 140  664.7336
 141  567.2131
 142  667.9816
 143  624.5417
 144  709.9953
 145  778.4594
 146  890.2761
 147  927.1312
 148  761.9014
 149  828.3199
 150  790.0595
 151  725.3777
 152  766.0435
 153  725.5483
 154  702.0703
 155  717.9225
 156  750.254
 157  777.3732
 158  709.0984
 159  733.155
 160  745.1931
 161  765.5681
 162  710.9684
 163  715.6859
 164  685.7536
 165  612.7815
 166  754.7933
 167  757.0829
 168  858.2004
 169  859.251
 170  810.1101
 171  924.5327
 172  930.4014
 173  882.7733
 174  789.1294
 175  761.1774
 176  849.5418
 177  838.1929
 178  767.188
 179  680.8265
 180  707.8983
 181  818.8746
 182  849.4003
 183  731.2931
 184  739.2199
 185  784.1123
 186  773.3494
 187  776.0273
 188  776.9552
 189  881.6317
 190  773.8691
 191  672.6324
 192  739.3303
 193  672.4106
 194  725.1501
 195  723.7323
 196  760.1804
 197  785.5844
 198  758.7066
 199  739.2144
 200  624.8817
 201  656.4933
 202  730.2162
 203  651.6045
 204  763.2995
 205  803.5142
 206  751.0081
 207  685.7712
 208  622.116
 209  679.6222
 210  727.1301
 211  656.1727
 212  739.1377
 213  682.9915
 214  721.8616
 215  669.9062
 216  646.5239
 217  608.7701
 218  631.3272
 219  770.3134
 220  752.2885
 221  678.7504
 222  752.981
 223  730.8539
 224  738.9106
 225  717.8313
 226  656.1287
 227  736.2443
 228  716.9625
 229  736.1909
 230  718.6847
 231  695.744
 232  665.5692
 233  743.1514
 234  849.8209
 235  815.7983
 236  596.7996
 237  724.8301
 238  762.7241
 239  605.9695
 240  578.0944
 241  752.3503
 242  746.6813
 243  684.5167
 244  696.6127
 245  621.1603
 246  625.718
 247  709.3253
 248  650.2363
 249  708.8621
 250  690.4397
 251  718.337
 252  839.9826
 253  849.955
 254  818.787
 255  745.3793
 256  806.568
 257  688.8739
 258  661.853
 259  666.9031
 260  803.5658
 261  713.3759
 262  657.4779
 263  806.4162
 264  725.165
 265  624.4905
 266  737.3133
 267  836.364
 268  840.8965
 269  789.182
 270  679.0452
 271  739.7809
 272  759.486
 273  758.0665
 274  713.2076
 275  591.0301
 276  630.8017
 277  741.4064
 278  777.8851
 279  723.2191
 280  668.9802
 281  592.4045
 282  750.1379
 283  723.6641
 284  721.2451
 285  681.6676
 286  637.597
 287  716.3588
 288  779.1396
 289  846.4438
 290  797.3925
 291  836.8337
 292  912.9757
 293  865.6716
 294  671.1899
 295  632.8181
 296  680.6183
 297  709.7223
 298  743.5479
 299  745.564
 300  690.1923
 301  644.9146
 302  660.7953
 303  760.5826
 304  708.608
 305  706.3401
 306  720.6187
 307  820.2042
 308  869.059
 309  938.4596
 310  821.126
 311  584.0529
 312  644.1796
 313  773.4067
 314  796.6237
 315  770.7131
 316  749.2781
 317  817.3878
 318  647.3764
 319  639.7033
 320  741.3883
 321  786.0214
 322  707.399
 323  822.4407
 324  852.7118
 325  697.2592
 326  659.117
 327  700.3752
 328  651.1606
 329  632.5723
 330  631.1762
 331  767.8411
 332  751.7195
 333  770.6367
 334  831.1582
 335  819.4043
 336  743.0958
 337  737.5051
 338  783.249
 339  812.8685
 340  691.0798
 341  592.9138
 342  698.4001
 343  709.3484
 344  817.1268
 345  702.8879
 346  740.1254
 347  754.5913
 348  733.7991
 349  782.2369
 350  710.9203
 351  724.2901
 352  848.9915
 353  923.6559
 354  867.3127
 355  748.1094
 356  768.6144
 357  690.5811
 358  678.3369
 359  839.8273
 360  875.2302
 361  810.3578
 362  911.72
 363  938.915
 364  860.7944
 365  832.5771
 366  872.9288
 367  809.4123
 368  729.4942
 369  797.5828
 370  861.3922
 371  733.7803
 372  772.0913
 373  806.7581
 374  723.0462
 375  786.531
 376  801.3667
 377  816.7505
 378  748.8395
 379  820.6558
 380  782.4728
 381  825.1286
 382  776.715
 383  763.0989
 384  782.8694
 385  920.1391
 386  810.0088
 387  735.6681
 388  804.4584
 389  639.1768
 390  634.4832
 391  756.1218
 392  763.9424
 393  795.5452
 394  892.3926
 395  778.8035
 396  721.8947
 397  829.8809
 398  784.7464
 399  717.1707
 400  719.022
 401  718.4178
 402  747.6021
 403  843.0255
 404  855.0317
 405  717.6315
 406  773.4305
 407  797.152
 408  706.1252
 409  719.1285
 410  677.6429
 411  760.6731
 412  797.0941
 413  740.4301
 414  763.4937
 415  803.5816
 416  773.7058
 417  698.148
 418  755.8571
 419  857.252
 420  869.6943
 421  922.0553
 422  747.158
 423  754.6914
 424  677.6633
 425  782.0143
 426  722.4943
 427  788.1162
 428  815.206
 429  720.5543
 430  738.2864
 431  846.738
 432  788.6495
 433  777.215
 434  792.2243
 435  774.038
 436  797.468
 437  799.4174
 438  852.5917
 439  809.0078
 440  766.793
 441  761.3449
 442  816.8527
 443  895.6418
 444  812.1458
 445  823.7109
 446  744.541
 447  735.5958
 448  760.8009
 449  759.5815
 450  702.0568
 451  748.9333
 452  810.5939
 453  800.1938
 454  804.4182
 455  715.4892
 456  794.4372
 457  757.7747
 458  696.636
 459  680.2935
 460  762.7209
 461  738.6937
 462  680.5331
 463  706.5862
 464  696.3367
 465  681.3493
 466  694.167
 467  672.4435
 468  597.1097
 469  508.1372
 470  587.4224
 471  681.8975
 472  692.9111
 473  728.7347
 474  607.8336
 475  561.0746
 476  666.4694
 477  713.7889
 478  733.4953
 479  840.7045
 480  674.621
 481  691.299
 482  754.9359
 483  677.9702
 484  632.5022
 485  732.8873
 486  810.0629
 487  789.175
 488  837.6366
 489  912.3805
 490  811.533
 491  862.7418
 492  903.5241
 493  911.976
 494  911.1187
 495  852.8945
 496  831.8423
 497  844.1306
 498  957.7505
 499  941.8344
 500  816.7783
 501  699.1135
 502  718.6835
 503  838.6103
 504  880.8013
 505  871.3721
 506  923.8009
 507  939.3604
 508  961.7768
 509  1060.677
 510  1144.518
 511  1119.042
