# Input file       =  1198274299.108217_cleaned.dat
# Candidate        =  PSR_0332+5434
# Telescope        =  AR
# Epoch_topo       =  58112.915290604360
# Epoch_bary       =  N/A
# T_sample         =  0.002
# Data Folded      =  7340032
# Data Avg         =  0.0507687657090378
# Data StdDev      =  1.00070146316563 
# Profile Bins     =  512
# Profile Avg      =  727.82532386163  
# Profile StdDev   =  119.817024691494 
# Reduced chi-sqr  =  0.758
# Prob(Noise)      <  1   (~0.0 sigma)
# P_topo (ms)      =  714.550745189916  +/- 0.000197
# P'_topo (s/s)    =  -0                +/- 1.04e-10
# P''_topo (s/s^2) =  0                 +/- 4.59e-14
# P_bary (ms)      =  N/A
# P'_bary (s/s)    =  N/A
# P''_bary (s/s^2) =  N/A
# P_orb (s)        =  N/A
# asin(i)/c (s)    =  N/A
# eccentricity     =  N/A
# w (rad)          =  N/A
# T_peri           =  N/A
######################################################
   0  1095.607
   1  1084.439
   2  1101.447
   3  851.8911
   4  701.301
   5  802.5211
   6  837.0154
   7  750.0375
   8  826.5098
   9  801.0919
  10  728.1654
  11  746.0345
  12  811.4737
  13  749.9452
  14  805.1143
  15  784.2203
  16  709.9017
  17  799.089
  18  849.8657
  19  922.4487
  20  829.8638
  21  745.9493
  22  660.7144
  23  681.0985
  24  649.6639
  25  667.7679
  26  707.9396
  27  672.6038
  28  679.5925
  29  657.7562
  30  705.1647
  31  661.5142
  32  804.9259
  33  753.9724
  34  756.3038
  35  730.8736
  36  742.2974
  37  728.3779
  38  739.73
  39  807.2658
  40  783.8312
  41  736.0958
  42  704.9332
  43  654.0394
  44  639.9659
  45  610.6337
  46  725.131
  47  719.7369
  48  727.1799
  49  747.6594
  50  778.5079
  51  780.8715
  52  683.1271
  53  689.6887
  54  580.5563
  55  648.3522
  56  734.6409
  57  809.7053
  58  826.0807
  59  651.3798
  60  700.9697
  61  770.8651
  62  765.4431
  63  741.225
  64  763.9271
  65  825.9427
  66  814.0911
  67  696.7379
  68  744.9872
  69  741.9825
  70  718.0623
  71  763.395
  72  651.0683
  73  627.2905
  74  756.2393
  75  814.9436
  76  859.1644
  77  777.1115
  78  727.2086
  79  670.1202
  80  642.1268
  81  614.5538
  82  695.723
  83  698.1048
  84  681.2354
  85  708.902
  86  801.7309
  87  761.766
  88  678.2418
  89  769.6536
  90  700.9717
  91  671.69
  92  702.5167
  93  675.9409
  94  699.0261
  95  735.3372
  96  669.0332
  97  695.9725
  98  717.9905
  99  721.8345
 100  663.1921
 101  716.328
 102  707.3423
 103  658.1183
 104  793.644
 105  680.7664
 106  733.0951
 107  703.5452
 108  663.6175
 109  694.0535
 110  682.3126
 111  736.2311
 112  761.65
 113  864.0611
 114  857.5056
 115  769.5038
 116  693.1363
 117  725.0823
 118  718.9678
 119  653.8229
 120  562.5659
 121  541.7994
 122  621.3449
 123  662.868
 124  688.179
 125  797.76
 126  724.4145
 127  662.2862
 128  673.5851
 129  704.0989
 130  600.1192
 131  607.1938
 132  642.8654
 133  666.528
 134  594.8945
 135  635.4005
 136  723.4315
 137  680.4428
 138  607.6776
 139  660.0364
 140  752.17
 141  643.864
 142  615.445
 143  648.1246
 144  684.2609
 145  619.7599
 146  656.7489
 147  703.6542
 148  664.0483
 149  803.9203
 150  799.6129
 151  739.6764
 152  724.0843
 153  696.3541
 154  679.1432
 155  723.4662
 156  691.6019
 157  756.119
 158  699.2
 159  700.005
 160  658.1832
 161  604.7029
 162  659.1561
 163  759.7298
 164  718.2383
 165  788.2314
 166  828.5762
 167  772.2473
 168  670.7659
 169  628.8103
 170  701.1478
 171  828.0545
 172  771.7778
 173  753.0013
 174  743.8908
 175  604.7535
 176  695.2628
 177  759.1068
 178  758.0961
 179  626.1249
 180  752.1255
 181  796.9702
 182  764.915
 183  771.0677
 184  767.9141
 185  723.8177
 186  678.6149
 187  665.176
 188  697.84
 189  795.8368
 190  762.6608
 191  734.5358
 192  818.0579
 193  738.093
 194  641.0021
 195  592.7724
 196  699.1003
 197  849.8961
 198  779.3287
 199  826.3656
 200  744.9807
 201  710.9214
 202  659.8222
 203  734.0212
 204  634.8955
 205  688.2789
 206  817.0372
 207  788.0197
 208  741.2858
 209  655.3943
 210  679.7996
 211  651.2433
 212  656.4294
 213  765.4295
 214  780.4101
 215  784.8691
 216  813.798
 217  761.3809
 218  778.0954
 219  757.9722
 220  730.2965
 221  735.22
 222  630.2885
 223  746.1483
 224  737.6174
 225  786.1694
 226  798.3046
 227  789.3245
 228  858.636
 229  791.6899
 230  650.4728
 231  708.9216
 232  676.9133
 233  689.7921
 234  748.9318
 235  638.9274
 236  616.1022
 237  634.6565
 238  659.0358
 239  681.4746
 240  684.0938
 241  694.3458
 242  604.0132
 243  587.8363
 244  642.6303
 245  677.29
 246  794.6856
 247  774.0046
 248  677.6468
 249  741.5562
 250  776.4608
 251  708.7107
 252  647.7692
 253  643.6013
 254  657.1388
 255  727.3672
 256  698.425
 257  667.5085
 258  701.3672
 259  679.649
 260  684.5512
 261  760.0284
 262  730.6797
 263  690.0276
 264  706.7842
 265  670.8275
 266  665.382
 267  735.6769
 268  873.7834
 269  776.4526
 270  704.9301
 271  595.8968
 272  583.9971
 273  616.5697
 274  739.7318
 275  873.983
 276  857.7394
 277  792.5095
 278  722.5711
 279  797.389
 280  779.2039
 281  699.3222
 282  699.2971
 283  709.5728
 284  744.955
 285  706.0743
 286  771.1863
 287  757.2538
 288  699.6864
 289  812.8326
 290  822.7631
 291  744.4341
 292  758.0193
 293  699.3987
 294  731.5223
 295  754.5869
 296  763.098
 297  776.9044
 298  660.3607
 299  634.9531
 300  704.5159
 301  717.8638
 302  793.8059
 303  722.2816
 304  765.3516
 305  717.7256
 306  695.5101
 307  823.7335
 308  907.9417
 309  831.4472
 310  858.8611
 311  840.5693
 312  849.468
 313  791.2617
 314  852.2447
 315  783.3476
 316  784.3455
 317  806.7716
 318  750.8605
 319  731.8184
 320  644.2205
 321  723.0125
 322  719.5179
 323  794.1189
 324  807.4005
 325  746.5248
 326  678.9949
 327  684.363
 328  751.8774
 329  761.7995
 330  765.6723
 331  649.802
 332  731.0248
 333  773.7029
 334  758.0791
 335  723.4536
 336  686.9839
 337  709.5153
 338  627.9697
 339  604.5156
 340  579.7374
 341  619.9389
 342  799.8032
 343  798.3549
 344  844.4009
 345  774.1207
 346  622.1542
 347  673.8436
 348  675.6066
 349  572.8589
 350  678.6357
 351  664.5175
 352  690.3192
 353  722.9222
 354  714.1912
 355  638.1823
 356  658.9879
 357  671.0207
 358  615.4955
 359  687.6133
 360  702.3428
 361  662.1045
 362  691.5121
 363  711.088
 364  692.6229
 365  592.0485
 366  651.5839
 367  722.2217
 368  814.5168
 369  746.4722
 370  666.4349
 371  754.95
 372  700.6204
 373  658.5648
 374  644.3316
 375  712.416
 376  693.9145
 377  823.4634
 378  805.1041
 379  731.7065
 380  750.7653
 381  754.2703
 382  791.8953
 383  760.7983
 384  719.5282
 385  618.777
 386  695.3138
 387  703.2242
 388  647.8995
 389  688.1912
 390  785.0466
 391  779.7066
 392  755.2042
 393  725.0728
 394  761.9042
 395  715.7627
 396  705.7648
 397  741.0088
 398  793.7163
 399  870.9986
 400  906.7738
 401  844.5013
 402  767.9763
 403  780.7541
 404  748.9044
 405  689.7581
 406  717.2894
 407  714.1155
 408  661.3569
 409  670.4404
 410  742.7395
 411  605.7919
 412  669.6058
 413  724.6508
 414  776.9602
 415  822.0739
 416  803.3074
 417  683.1335
 418  617.9062
 419  630.0738
 420  690.691
 421  714.0315
 422  646.0951
 423  705.6358
 424  712.8804
 425  656.2778
 426  784.0765
 427  752.0814
 428  737.8964
 429  757.1664
 430  784.4077
 431  848.608
 432  772.2286
 433  804.6609
 434  761.1307
 435  757.9565
 436  746.0953
 437  717.693
 438  647.6412
 439  662.0761
 440  672.5539
 441  649.0388
 442  758.7615
 443  760.8531
 444  879.0004
 445  811.9235
 446  724.0621
 447  720.4324
 448  821.1245
 449  722.7221
 450  694.0698
 451  739.6987
 452  721.6122
 453  673.9487
 454  678.604
 455  742.4547
 456  700.4182
 457  593.3531
 458  693.9034
 459  708.7745
 460  645.8722
 461  583.1967
 462  696.1964
 463  744.9711
 464  680.6246
 465  617.0118
 466  672.97
 467  735.6135
 468  770.6503
 469  818.6288
 470  783.1953
 471  734.2689
 472  727.4896
 473  714.0403
 474  704.1769
 475  799.3737
 476  758.0863
 477  757.5535
 478  686.3264
 479  692.5082
 480  748.3282
 481  687.242
 482  716.0747
 483  729.8326
 484  743.4508
 485  644.1546
 486  740.9572
 487  737.7113
 488  706.346
 489  631.3229
 490  614.3687
 491  731.7945
 492  809.3234
 493  834.3992
 494  758.8563
 495  707.1924
 496  750.2635
 497  718.2684
 498  814.3695
 499  812.1296
 500  754.1034
 501  731.042
 502  747.2024
 503  774.9914
 504  819.558
 505  765.0592
 506  795.2363
 507  786.2964
 508  892.6209
 509  922.0598
 510  1051.721
 511  1153.477
