# Input file       =  1198360408.106056_cleaned.dat
# Candidate        =  PSR_0332+5434
# Telescope        =  AR
# Epoch_topo       =  58113.911922523796
# Epoch_bary       =  N/A
# T_sample         =  0.002
# Data Folded      =  7340032
# Data Avg         =  0.0445592170250597
# Data StdDev      =  0.999755625975602
# Profile Bins     =  512
# Profile Avg      =  638.643439820193 
# Profile StdDev   =  119.703776732813 
# Reduced chi-sqr  =  0.893
# Prob(Noise)      <  0.961   (~0.0 sigma)
# P_topo (ms)      =  714.551647848794  +/- 0.000163
# P'_topo (s/s)    =  -0                +/- 8.62e-11
# P''_topo (s/s^2) =  0                 +/- 3.8e-14
# P_bary (ms)      =  N/A
# P'_bary (s/s)    =  N/A
# P''_bary (s/s^2) =  N/A
# P_orb (s)        =  N/A
# asin(i)/c (s)    =  N/A
# eccentricity     =  N/A
# w (rad)          =  N/A
# T_peri           =  N/A
######################################################
   0  1025.994
   1  1096.46
   2  911.5791
   3  740.9871
   4  679.3196
   5  607.6293
   6  549.2739
   7  617.9263
   8  609.8358
   9  541.0126
  10  647.1439
  11  628.11
  12  542.4581
  13  621.0634
  14  607.0001
  15  613.2551
  16  607.2762
  17  478.4438
  18  479.6323
  19  590.9264
  20  655.0621
  21  583.0703
  22  658.6531
  23  557.7685
  24  560.9199
  25  584.7595
  26  653.6843
  27  579.856
  28  599.013
  29  645.864
  30  552.3193
  31  462.9403
  32  628.7432
  33  679.2543
  34  667.9315
  35  741.0657
  36  631.7519
  37  624.6515
  38  586.9241
  39  689.2936
  40  716.5536
  41  628.9199
  42  720.1558
  43  753.8394
  44  777.5397
  45  648.9904
  46  621.8886
  47  565.2199
  48  647.2581
  49  741.2515
  50  633.886
  51  625.0385
  52  601.1506
  53  660.5275
  54  616.299
  55  619.5566
  56  738.8394
  57  811.4267
  58  764.2327
  59  742.2145
  60  749.1563
  61  780.2864
  62  659.9525
  63  617.8956
  64  603.7843
  65  649.5856
  66  685.8461
  67  610.6149
  68  557.0213
  69  627.8939
  70  552.7382
  71  684.0018
  72  682.6896
  73  632.1344
  74  612.2903
  75  649.071
  76  565.1426
  77  661.7647
  78  774.8395
  79  693.8217
  80  664.2792
  81  655.8387
  82  657.2855
  83  592.08
  84  576.2605
  85  724.045
  86  662.8655
  87  638.6551
  88  533.7612
  89  536.0161
  90  595.049
  91  710.2662
  92  694.6843
  93  668.9669
  94  582.5711
  95  621.1572
  96  631.1627
  97  594.1293
  98  632.0098
  99  711.3448
 100  749.3835
 101  625.0729
 102  760.0986
 103  651.8188
 104  528.2609
 105  582.6852
 106  581.3445
 107  587.3027
 108  606.1935
 109  688.0353
 110  719.6643
 111  600.8224
 112  612.2901
 113  655.1765
 114  663.1674
 115  605.2849
 116  590.6985
 117  548.8607
 118  540.6789
 119  588.4158
 120  638.3319
 121  716.9502
 122  577.0464
 123  594.9501
 124  613.0352
 125  669.9263
 126  653.0041
 127  636.5722
 128  791.0176
 129  599.6843
 130  590.3533
 131  625.638
 132  625.5579
 133  667.8489
 134  681.2462
 135  671.5214
 136  701.0269
 137  627.0876
 138  608.0101
 139  603.1791
 140  688.9716
 141  710.3785
 142  714.2396
 143  702.853
 144  690.613
 145  705.0256
 146  649.5429
 147  606.1978
 148  688.9875
 149  734.4131
 150  698.698
 151  595.7754
 152  697.3315
 153  742.0592
 154  754.2196
 155  680.2224
 156  643.0472
 157  662.4846
 158  621.5898
 159  739.2731
 160  698.0871
 161  752.0164
 162  715.0718
 163  679.7626
 164  759.9956
 165  785.5537
 166  689.5599
 167  685.1688
 168  729.7756
 169  743.6911
 170  661.0776
 171  720.4332
 172  744.409
 173  671.2218
 174  583.1588
 175  591.3807
 176  570.5551
 177  727.9717
 178  779.774
 179  620.9383
 180  530.1367
 181  587.0475
 182  665.1702
 183  653.4396
 184  545.2354
 185  608.2241
 186  724.1084
 187  634.8117
 188  660.2104
 189  711.4418
 190  736.402
 191  678.8502
 192  498.6562
 193  464.1085
 194  627.6361
 195  590.2728
 196  570.7531
 197  647.2846
 198  754.7106
 199  713.8849
 200  642.3687
 201  700.5839
 202  745.9984
 203  711.9905
 204  676.0223
 205  629.062
 206  712.7026
 207  761.444
 208  628.0702
 209  604.1244
 210  788.4927
 211  634.9503
 212  595.4731
 213  706.3071
 214  748.5786
 215  602.145
 216  585.3754
 217  724.3766
 218  724.3903
 219  709.2676
 220  566.5579
 221  589.6508
 222  580.4366
 223  568.714
 224  504.1918
 225  533.8296
 226  626.7692
 227  652.5397
 228  588.6357
 229  681.3331
 230  566.1797
 231  635.7099
 232  692.399
 233  747.8781
 234  726.0674
 235  728.9195
 236  684.3603
 237  571.1583
 238  613.4559
 239  606.6074
 240  657.4193
 241  616.7178
 242  636.2861
 243  667.9025
 244  651.7252
 245  549.8203
 246  564.2468
 247  645.8719
 248  500.2884
 249  567.9897
 250  693.8556
 251  641.423
 252  475.455
 253  587.1439
 254  638.4904
 255  675.2257
 256  652.6736
 257  563.5728
 258  577.3702
 259  578.8781
 260  696.5631
 261  662.5471
 262  607.2498
 263  543.978
 264  532.5667
 265  489.6855
 266  492.2682
 267  512.5649
 268  519.3515
 269  510.0833
 270  519.7495
 271  661.8011
 272  703.7456
 273  629.3035
 274  640.8502
 275  657.1876
 276  743.2583
 277  698.4693
 278  628.9933
 279  601.4855
 280  474.8654
 281  570.3954
 282  648.1022
 283  593.0649
 284  583.4793
 285  555.1962
 286  561.853
 287  466.8681
 288  513.8115
 289  575.0506
 290  642.6849
 291  629.8274
 292  670.0684
 293  612.6555
 294  540.2112
 295  551.5068
 296  646.0186
 297  557.3256
 298  633.6014
 299  560.2889
 300  576.6326
 301  570.2328
 302  536.9421
 303  468.9855
 304  476.3423
 305  620.731
 306  667.7372
 307  575.2611
 308  684.1425
 309  762.3099
 310  765.5062
 311  564.853
 312  479.4958
 313  475.2734
 314  525.3068
 315  650.1284
 316  573.987
 317  563.642
 318  645.2371
 319  530.0436
 320  458.2915
 321  556.5227
 322  525.5214
 323  451.9576
 324  460.8176
 325  572.3383
 326  562.5372
 327  552.9158
 328  580.0165
 329  606.33
 330  597.1625
 331  627.1953
 332  580.7036
 333  635.6449
 334  592.6681
 335  599.2942
 336  618.1835
 337  592.9083
 338  544.0558
 339  667.3807
 340  740.1281
 341  853.7026
 342  692.104
 343  682.8379
 344  527.3559
 345  521.6039
 346  632.5925
 347  534.3495
 348  638.2087
 349  658.8456
 350  580.5878
 351  686.5474
 352  594.7082
 353  692.6096
 354  714.5801
 355  592.183
 356  647.6655
 357  686.6544
 358  734.6431
 359  755.8788
 360  622.8903
 361  603.8737
 362  623.4959
 363  694.5687
 364  643.1467
 365  608.5935
 366  584.8743
 367  671.5425
 368  586.6027
 369  602.2034
 370  640.8564
 371  792.9765
 372  707.5744
 373  644.1823
 374  720.1558
 375  720.3418
 376  643.157
 377  559.0715
 378  587.1205
 379  598.037
 380  575.1586
 381  669.1409
 382  797.3123
 383  707.7874
 384  688.2747
 385  652.6129
 386  563.5813
 387  480.1777
 388  605.2072
 389  701.3334
 390  744.7421
 391  794.7039
 392  789.3561
 393  649.1371
 394  592.1786
 395  659.9982
 396  760.8864
 397  807.4788
 398  812.7941
 399  753.3646
 400  645.7312
 401  637.3578
 402  570.7672
 403  577.7883
 404  639.053
 405  611.1891
 406  539.8879
 407  559.0096
 408  635.2491
 409  638.0427
 410  568.0592
 411  640.3426
 412  560.1957
 413  525.6674
 414  519.4421
 415  465.5294
 416  529.2585
 417  626.809
 418  579.6522
 419  653.5361
 420  675.2159
 421  656.1298
 422  594.2079
 423  559.5262
 424  579.1325
 425  581.9482
 426  628.4323
 427  623.114
 428  562.6102
 429  584.7957
 430  659.5313
 431  561.5938
 432  612.9294
 433  667.6035
 434  578.8768
 435  539.3774
 436  694.8875
 437  645.4581
 438  675.1576
 439  719.7917
 440  700.4654
 441  594.4287
 442  565.512
 443  676.8619
 444  838.9269
 445  746.7037
 446  668.3836
 447  724.5959
 448  662.7031
 449  730.5176
 450  735.4505
 451  641.7729
 452  620.4714
 453  563.42
 454  568.6274
 455  641.765
 456  669.3796
 457  636.9574
 458  618.2657
 459  550.5262
 460  621.3903
 461  658.2693
 462  651.8728
 463  634.2471
 464  614.902
 465  643.0601
 466  714.2796
 467  514.5299
 468  601.6435
 469  604.4684
 470  532.0211
 471  561.8261
 472  647.2188
 473  636.3221
 474  625.5478
 475  674.0645
 476  689.3134
 477  646.6644
 478  749.4937
 479  649.8145
 480  704.1038
 481  613.6686
 482  670.8962
 483  656.8532
 484  631.9551
 485  567.4459
 486  571.6166
 487  633.2482
 488  673.0825
 489  681.0627
 490  657.3325
 491  554.2595
 492  627.7595
 493  576.582
 494  515.1995
 495  523.9298
 496  560.3393
 497  590.9014
 498  617.8359
 499  786.3857
 500  772.6442
 501  689.1218
 502  630.8409
 503  752.9106
 504  815.98
 505  791.1451
 506  772.0391
 507  788.7655
 508  723.4628
 509  739.7494
 510  847.6688
 511  973.765
