# Input file       =  1199738862.105873_cleaned.dat
# Candidate        =  PSR_0332+5434
# Telescope        =  AR
# Epoch_topo       =  58129.866251225387
# Epoch_bary       =  N/A
# T_sample         =  0.002
# Data Folded      =  7340032
# Data Avg         =  0.0926563424411478
# Data StdDev      =  1.00005309412127 
# Profile Bins     =  512
# Profile Avg      =  1328.30620887668 
# Profile StdDev   =  119.73939349712  
# Reduced chi-sqr  =  0.729
# Prob(Noise)      <  1   (~0.0 sigma)
# P_topo (ms)      =  714.564698443489  +/- 9.26e-05
# P'_topo (s/s)    =  -0                +/- 4.89e-11
# P''_topo (s/s^2) =  0                 +/- 2.16e-14
# P_bary (ms)      =  N/A
# P'_bary (s/s)    =  N/A
# P''_bary (s/s^2) =  N/A
# P_orb (s)        =  N/A
# asin(i)/c (s)    =  N/A
# eccentricity     =  N/A
# w (rad)          =  N/A
# T_peri           =  N/A
######################################################
   0  1561.447
   1  1691.321
   2  1608.186
   3  1405.177
   4  1305.18
   5  1231.83
   6  1243.24
   7  1226.43
   8  1210.213
   9  1270.022
  10  1271.872
  11  1259.406
  12  1274.705
  13  1326.417
  14  1351.454
  15  1383.18
  16  1398.57
  17  1247.287
  18  1168.348
  19  1208.356
  20  1273.96
  21  1208.433
  22  1126.288
  23  1277.912
  24  1317.398
  25  1375.205
  26  1395.081
  27  1415.023
  28  1356.629
  29  1291.073
  30  1337.623
  31  1299.988
  32  1264.185
  33  1334.855
  34  1326.162
  35  1315.079
  36  1349.243
  37  1317.41
  38  1324.304
  39  1318.118
  40  1289.99
  41  1327.692
  42  1331.912
  43  1244.01
  44  1281.212
  45  1320.764
  46  1301.598
  47  1244.252
  48  1261.339
  49  1422.663
  50  1359.505
  51  1357.489
  52  1348.816
  53  1256.365
  54  1229.148
  55  1281.964
  56  1346.589
  57  1341.827
  58  1402.217
  59  1462.847
  60  1247.967
  61  1197.897
  62  1228.616
  63  1199.001
  64  1326.382
  65  1311.377
  66  1334.625
  67  1243.224
  68  1261.382
  69  1247.81
  70  1242.348
  71  1292.017
  72  1329.942
  73  1412.283
  74  1355.266
  75  1333.209
  76  1351.949
  77  1369.984
  78  1363.144
  79  1371.811
  80  1498.228
  81  1349.139
  82  1291.539
  83  1220.592
  84  1377.175
  85  1346.634
  86  1350.341
  87  1413.73
  88  1277.54
  89  1279.077
  90  1329.116
  91  1370.32
  92  1214.44
  93  1357.849
  94  1422.011
  95  1306.994
  96  1254.929
  97  1252.218
  98  1310.566
  99  1357.637
 100  1197.16
 101  1312.577
 102  1363.354
 103  1372.922
 104  1383.232
 105  1316.441
 106  1377.399
 107  1417.007
 108  1527.85
 109  1501.379
 110  1330.294
 111  1353.138
 112  1402.335
 113  1346.315
 114  1343.082
 115  1400.596
 116  1320.359
 117  1270.143
 118  1245.63
 119  1254.037
 120  1314.824
 121  1260.925
 122  1253.929
 123  1272.909
 124  1352.627
 125  1370.192
 126  1332.515
 127  1345.766
 128  1283.874
 129  1257.77
 130  1253.808
 131  1269.012
 132  1351.643
 133  1356.893
 134  1274.825
 135  1301.816
 136  1248.75
 137  1227.112
 138  1357.066
 139  1372.976
 140  1360.683
 141  1363.141
 142  1345.222
 143  1303.038
 144  1289.133
 145  1360.273
 146  1301.473
 147  1208.55
 148  1288.544
 149  1396.805
 150  1281.016
 151  1338.815
 152  1366.617
 153  1337.763
 154  1352.464
 155  1391.197
 156  1413.298
 157  1296.373
 158  1207.147
 159  1255.571
 160  1331.651
 161  1303.818
 162  1189.224
 163  1250.418
 164  1389.341
 165  1328.111
 166  1290.297
 167  1311.313
 168  1306.869
 169  1332.909
 170  1333.605
 171  1374.025
 172  1358.529
 173  1296.271
 174  1396.039
 175  1377.705
 176  1379.018
 177  1340.413
 178  1282.826
 179  1345.139
 180  1403.883
 181  1436.161
 182  1340.501
 183  1255.397
 184  1367.625
 185  1336.985
 186  1402.537
 187  1478.542
 188  1454.764
 189  1397.2
 190  1248.126
 191  1175.409
 192  1241.859
 193  1219.007
 194  1175.057
 195  1203.072
 196  1301.44
 197  1278.368
 198  1224.574
 199  1279.057
 200  1326.073
 201  1340.629
 202  1404.564
 203  1290.992
 204  1270.679
 205  1338.35
 206  1344.211
 207  1339.428
 208  1284.429
 209  1422.212
 210  1311.618
 211  1314.703
 212  1319.281
 213  1341.001
 214  1395.138
 215  1501.161
 216  1428.38
 217  1442.201
 218  1446.773
 219  1364.951
 220  1347.016
 221  1398.022
 222  1452.419
 223  1375.626
 224  1394.666
 225  1399.291
 226  1305.068
 227  1337.399
 228  1380.794
 229  1412.258
 230  1345.772
 231  1434.416
 232  1420.214
 233  1440.911
 234  1372.173
 235  1405.267
 236  1418.723
 237  1354.015
 238  1412.656
 239  1479.453
 240  1343.456
 241  1301.994
 242  1409.74
 243  1445.104
 244  1347.036
 245  1301.896
 246  1355.108
 247  1353.579
 248  1297.525
 249  1378.265
 250  1286.497
 251  1277.537
 252  1364.361
 253  1257.278
 254  1264.188
 255  1371.623
 256  1327.903
 257  1331.649
 258  1340.199
 259  1378.12
 260  1364.368
 261  1404.928
 262  1339.681
 263  1258.968
 264  1215.988
 265  1178.109
 266  1225.031
 267  1261.171
 268  1299.258
 269  1275.969
 270  1279.807
 271  1315.179
 272  1295.425
 273  1261.659
 274  1271.992
 275  1224.884
 276  1303.924
 277  1301.287
 278  1311.921
 279  1277.172
 280  1329.643
 281  1390.557
 282  1334.689
 283  1305.062
 284  1332.352
 285  1224.514
 286  1203.919
 287  1196.246
 288  1243.527
 289  1351.56
 290  1324.936
 291  1304.103
 292  1363.614
 293  1325.379
 294  1316.472
 295  1375.716
 296  1311.153
 297  1337.254
 298  1357.301
 299  1276.849
 300  1306.6
 301  1339.493
 302  1342.588
 303  1327.335
 304  1308.427
 305  1389.676
 306  1393.393
 307  1297.814
 308  1230.332
 309  1319.753
 310  1275.985
 311  1089.923
 312  1174.58
 313  1410.527
 314  1367.917
 315  1328.738
 316  1318.32
 317  1258.834
 318  1176.686
 319  1303.311
 320  1317.902
 321  1348.436
 322  1228.745
 323  1224.083
 324  1218.68
 325  1247.755
 326  1278.124
 327  1379.173
 328  1386.372
 329  1296.463
 330  1289.513
 331  1324.072
 332  1377.076
 333  1340.758
 334  1273.617
 335  1360.988
 336  1257.265
 337  1164.632
 338  1289.554
 339  1325.197
 340  1350.604
 341  1298.17
 342  1269.426
 343  1320.63
 344  1365.552
 345  1375.437
 346  1394.261
 347  1387.599
 348  1405.566
 349  1373.771
 350  1387.77
 351  1295.68
 352  1425.856
 353  1468.546
 354  1387.076
 355  1323.04
 356  1306.895
 357  1284.337
 358  1235.583
 359  1260.848
 360  1278.398
 361  1295.055
 362  1318.13
 363  1314.61
 364  1278.377
 365  1200.479
 366  1269.692
 367  1423.476
 368  1421.079
 369  1307.328
 370  1259.737
 371  1309.887
 372  1288.003
 373  1242.503
 374  1344.498
 375  1432.607
 376  1322.472
 377  1395.664
 378  1445.192
 379  1350.18
 380  1219.447
 381  1291.022
 382  1323.876
 383  1293.062
 384  1314.195
 385  1379.939
 386  1370.562
 387  1320.503
 388  1290.01
 389  1244.257
 390  1279.993
 391  1183.154
 392  1238.344
 393  1180.711
 394  1167.061
 395  1239.819
 396  1195.229
 397  1192.979
 398  1278.842
 399  1315.208
 400  1264.201
 401  1287.024
 402  1299.802
 403  1281.81
 404  1207.68
 405  1289.132
 406  1371.821
 407  1322.797
 408  1367.2
 409  1306.473
 410  1186.519
 411  1281.249
 412  1259.436
 413  1250.291
 414  1192.834
 415  1289.018
 416  1309.953
 417  1336.574
 418  1182.807
 419  1277.048
 420  1346.425
 421  1341.551
 422  1323.707
 423  1289.189
 424  1356.548
 425  1326.142
 426  1252.235
 427  1283.525
 428  1340.993
 429  1300.737
 430  1379.553
 431  1401.016
 432  1376.645
 433  1357.708
 434  1268.993
 435  1418.042
 436  1380.979
 437  1320.77
 438  1402.197
 439  1360.674
 440  1368.668
 441  1336.23
 442  1411.278
 443  1446.705
 444  1424.092
 445  1393.214
 446  1340.81
 447  1344.72
 448  1363.103
 449  1448.49
 450  1419.221
 451  1352.762
 452  1319.442
 453  1524.514
 454  1352.93
 455  1414.821
 456  1537.618
 457  1445.266
 458  1377.28
 459  1343.957
 460  1360.342
 461  1377.52
 462  1355.086
 463  1373.751
 464  1425.456
 465  1359.243
 466  1317.089
 467  1418.981
 468  1352.42
 469  1318.186
 470  1317.335
 471  1339.866
 472  1335.271
 473  1372.401
 474  1435.913
 475  1428.61
 476  1289.031
 477  1305.239
 478  1408.16
 479  1338.765
 480  1345.087
 481  1423.123
 482  1397.075
 483  1321.852
 484  1350.583
 485  1330.045
 486  1267.307
 487  1366.821
 488  1321.741
 489  1224.11
 490  1301.953
 491  1367.425
 492  1345.37
 493  1336.754
 494  1386.742
 495  1354.174
 496  1287.805
 497  1276.138
 498  1347.618
 499  1465.286
 500  1391.437
 501  1366.509
 502  1431.95
 503  1471.604
 504  1345.446
 505  1290.583
 506  1371.924
 507  1412.844
 508  1404.068
 509  1525.485
 510  1613.232
 511  1559.369
