# Input file       =  1199896224.112061_cleaned.dat
# Candidate        =  PSR_0332+5434
# Telescope        =  AR
# Epoch_topo       =  58131.687570741444
# Epoch_bary       =  N/A
# T_sample         =  0.002
# Data Folded      =  7340032
# Data Avg         =  0.051046786963237
# Data StdDev      =  1.00012228535859 
# Profile Bins     =  512
# Profile Avg      =  731.797883394115 
# Profile StdDev   =  119.747677974055 
# Reduced chi-sqr  =  1.146
# Prob(Noise)      <  0.0123   (~2.2 sigma)
# P_topo (ms)      =  714.565665301656  +/- 0.00019
# P'_topo (s/s)    =  -0                +/- 1e-10
# P''_topo (s/s^2) =  0                 +/- 4.42e-14
# P_bary (ms)      =  N/A
# P'_bary (s/s)    =  N/A
# P''_bary (s/s^2) =  N/A
# P_orb (s)        =  N/A
# asin(i)/c (s)    =  N/A
# eccentricity     =  N/A
# w (rad)          =  N/A
# T_peri           =  N/A
######################################################
   0  1393.369
   1  1315.837
   2  1216.617
   3  1006.264
   4  796.6708
   5  891.5429
   6  796.6306
   7  661.2523
   8  634.7436
   9  711.0875
  10  718.4498
  11  734.9801
  12  741.9963
  13  802.297
  14  773.8447
  15  804.5619
  16  615.3902
  17  587.8505
  18  752.3785
  19  768.9242
  20  763.0298
  21  651.4623
  22  672.6281
  23  740.6414
  24  796.5652
  25  741.8113
  26  790.1718
  27  744.032
  28  810.461
  29  756.9667
  30  615.7891
  31  563.1372
  32  559.5081
  33  662.8155
  34  839.0256
  35  786.8694
  36  754.5315
  37  773.3506
  38  741.9997
  39  585.6234
  40  596.6851
  41  627.3182
  42  600.2875
  43  701.8295
  44  762.5228
  45  655.5699
  46  733.6516
  47  798.0705
  48  695.4977
  49  676.5853
  50  661.4667
  51  669.0925
  52  674.1063
  53  801.2453
  54  714.2004
  55  762.0787
  56  744.9802
  57  809.3215
  58  796.8386
  59  736.6154
  60  621.6689
  61  691.7416
  62  758.0152
  63  714.585
  64  790.2115
  65  839.157
  66  774.9127
  67  771.0114
  68  690.4984
  69  661.9422
  70  805.2914
  71  807.4006
  72  764.5363
  73  816.244
  74  754.9435
  75  779.0676
  76  688.9445
  77  712.7928
  78  719.1053
  79  682.4765
  80  828.6938
  81  753.9853
  82  644.92
  83  626.1196
  84  700.7157
  85  835.0342
  86  932.6483
  87  931.7133
  88  934.2181
  89  863.1218
  90  777.2986
  91  723.9445
  92  786.1959
  93  795.543
  94  721.9854
  95  839.7585
  96  846.1533
  97  834.4641
  98  837.5162
  99  831.2528
 100  813.1497
 101  740.4927
 102  596.9695
 103  629.8987
 104  627.8937
 105  682.3677
 106  785.7041
 107  788.2724
 108  767.8757
 109  802.7489
 110  751.3663
 111  711.2769
 112  818.7234
 113  861.3633
 114  709.1989
 115  679.0406
 116  697.0774
 117  686.4965
 118  663.0926
 119  682.8856
 120  705.9207
 121  743.5231
 122  771.4708
 123  668.3904
 124  598.285
 125  634.7692
 126  708.4808
 127  691.1978
 128  678.1597
 129  685.5867
 130  756.7935
 131  804.7009
 132  734.1437
 133  708.4066
 134  727.7378
 135  741.7841
 136  747.2559
 137  692.8306
 138  732.0111
 139  803.2258
 140  801.2889
 141  716.3299
 142  714.0438
 143  657.0546
 144  618.9922
 145  673.9932
 146  718.7574
 147  762.7855
 148  793.1923
 149  769.5099
 150  689.7763
 151  770.8808
 152  767.2354
 153  764.5734
 154  693.2825
 155  727.3439
 156  765.1847
 157  935.2945
 158  838.6397
 159  882.2968
 160  738.1236
 161  682.3809
 162  666.3278
 163  760.3352
 164  875.0411
 165  936.5482
 166  753.457
 167  844.603
 168  774.7958
 169  653.1744
 170  735.4817
 171  895.446
 172  968.5886
 173  850.6741
 174  829.8712
 175  632.2058
 176  652.2501
 177  736.9062
 178  835.3676
 179  826.9081
 180  806.0771
 181  742.3961
 182  758.3497
 183  705.172
 184  710.2518
 185  683.7385
 186  716.7883
 187  742.2532
 188  786.2532
 189  789.0652
 190  678.0869
 191  710.7791
 192  824.15
 193  747.2649
 194  770.5873
 195  762.3564
 196  792.9503
 197  871.2999
 198  732.0509
 199  687.5203
 200  727.7449
 201  775.1143
 202  661.0417
 203  740.1938
 204  732.347
 205  639.9198
 206  764.8242
 207  747.4844
 208  594.9328
 209  616.2437
 210  709.7353
 211  683.8619
 212  778.5233
 213  749.8707
 214  720.2444
 215  634.0908
 216  546.1485
 217  587.6848
 218  665.6413
 219  771.297
 220  836.2549
 221  723.4391
 222  623.2173
 223  697.6862
 224  680.334
 225  641.9758
 226  629.3545
 227  573.0095
 228  628.8729
 229  571.8723
 230  681.8671
 231  598.3937
 232  572.9086
 233  618.6964
 234  668.6913
 235  743.1335
 236  745.3081
 237  860.7858
 238  789.0807
 239  703.2266
 240  763.1198
 241  689.7681
 242  603.2731
 243  695.7659
 244  756.3519
 245  672.4523
 246  747.5565
 247  766.1321
 248  786.7031
 249  708.8797
 250  632.9875
 251  602.5389
 252  667.5109
 253  592.3844
 254  543.2223
 255  605.5834
 256  764.1033
 257  916.2908
 258  829.7839
 259  712.0284
 260  643.7471
 261  574.3518
 262  672.7234
 263  719.5702
 264  680.4203
 265  642.5661
 266  738.7665
 267  896.2885
 268  823.18
 269  717.5823
 270  853.9829
 271  849.0525
 272  725.0422
 273  685.9584
 274  683.7277
 275  696.1799
 276  758.5824
 277  757.6464
 278  663.5521
 279  737.6118
 280  708.0493
 281  724.9748
 282  786.6801
 283  757.4934
 284  688.2452
 285  712.1166
 286  770.7797
 287  761.5856
 288  692.5822
 289  620.3513
 290  589.0173
 291  680.6561
 292  657.7829
 293  672.8015
 294  753.6434
 295  732.7018
 296  681.2885
 297  779.545
 298  836.712
 299  885.3251
 300  800.7695
 301  712.7468
 302  821.7489
 303  740.7878
 304  762.3124
 305  746.1071
 306  690.0321
 307  687.5905
 308  667.3526
 309  678.2908
 310  753.726
 311  712.1483
 312  740.1067
 313  745.1454
 314  814.3157
 315  824.2333
 316  699.2595
 317  578.5459
 318  690.2462
 319  759.3909
 320  765.1123
 321  666.792
 322  644.7111
 323  717.7584
 324  753.9661
 325  857.8988
 326  753.6248
 327  728.8151
 328  707.1987
 329  765.3967
 330  692.252
 331  744.92
 332  724.2241
 333  714.9847
 334  776.8516
 335  740.4487
 336  682.429
 337  745.5619
 338  615.1263
 339  765.3898
 340  825.584
 341  684.5046
 342  623.5073
 343  655.0093
 344  699.8954
 345  697.835
 346  662.0475
 347  803.2731
 348  912.6871
 349  720.7392
 350  562.1819
 351  651.398
 352  749.8512
 353  741.7102
 354  753.74
 355  742.0782
 356  729.2397
 357  738.3199
 358  727.7488
 359  664.1074
 360  658.757
 361  684.6579
 362  755.8566
 363  845.3065
 364  701.1541
 365  559.5664
 366  690.2777
 367  767.4803
 368  749.356
 369  714.6364
 370  725.7133
 371  700.9604
 372  741.4615
 373  691.6434
 374  693.5427
 375  656.7825
 376  656.9706
 377  742.7365
 378  690.6013
 379  667.6322
 380  657.3593
 381  642.9219
 382  651.2647
 383  729.077
 384  824.0737
 385  771.8356
 386  717.0222
 387  644.3406
 388  667.8174
 389  661.8752
 390  707.1143
 391  786.0815
 392  693.3629
 393  707.683
 394  766.7546
 395  742.0445
 396  774.897
 397  637.1229
 398  698.1373
 399  752.0332
 400  712.2521
 401  683.3719
 402  690.8198
 403  593.0605
 404  658.7822
 405  656.9846
 406  688.7249
 407  736.3351
 408  702.3088
 409  660.2234
 410  496.1964
 411  547.561
 412  786.5112
 413  807.3099
 414  697.875
 415  718.8063
 416  643.5723
 417  698.3469
 418  753.7118
 419  748.1464
 420  763.6323
 421  779.5382
 422  726.3212
 423  762.8364
 424  783.7048
 425  794.86
 426  729.4387
 427  795.6176
 428  756.464
 429  701.292
 430  748.7141
 431  797.8602
 432  760.4885
 433  658.8198
 434  773.6517
 435  873.0382
 436  770.4798
 437  799.2285
 438  851.7842
 439  738.4129
 440  799.5402
 441  799.4398
 442  732.1713
 443  685.2518
 444  608.992
 445  561.8386
 446  663.1826
 447  749.1606
 448  739.6332
 449  722.8967
 450  647.0518
 451  613.1697
 452  750.1507
 453  686.3853
 454  763.6971
 455  792.0035
 456  760.2589
 457  688.6989
 458  726.9556
 459  628.5621
 460  622.0959
 461  727.085
 462  583.2137
 463  605.7366
 464  677.4609
 465  733.2887
 466  752.614
 467  705.0487
 468  725.8072
 469  577.524
 470  714.5956
 471  711.7593
 472  687.0247
 473  715.7845
 474  737.3566
 475  719.6724
 476  703.071
 477  663.6497
 478  693.6115
 479  645.0641
 480  663.2498
 481  732.4763
 482  712.6082
 483  709.1998
 484  731.4287
 485  681.3103
 486  585.6266
 487  618.6324
 488  731.1056
 489  719.3613
 490  767.5411
 491  647.5555
 492  720.6171
 493  761.4649
 494  713.5431
 495  809.8497
 496  711.4233
 497  711.8742
 498  696.8538
 499  708.2668
 500  721.3544
 501  688.8814
 502  728.9368
 503  628.2181
 504  808.6841
 505  986.5623
 506  910.7085
 507  881.4698
 508  1007.464
 509  948.5356
 510  1031.253
 511  1231.028
