# Input file       =  1199637838.101933_cleaned.dat
# Candidate        =  PSR_0332+5434
# Telescope        =  AR
# Epoch_topo       =  58128.696991920522
# Epoch_bary       =  N/A
# T_sample         =  0.002
# Data Folded      =  7340032
# Data Avg         =  0.124876021118802
# Data StdDev      =  1.00018951631993 
# Profile Bins     =  512
# Profile Avg      =  1790.20551178114 
# Profile StdDev   =  119.755727741195 
# Reduced chi-sqr  =  0.773
# Prob(Noise)      <  1   (~0.0 sigma)
# P_topo (ms)      =  714.563503689059  +/- 7.53e-05
# P'_topo (s/s)    =  -0                +/- 3.97e-11
# P''_topo (s/s^2) =  0                 +/- 1.75e-14
# P_bary (ms)      =  N/A
# P'_bary (s/s)    =  N/A
# P''_bary (s/s^2) =  N/A
# P_orb (s)        =  N/A
# asin(i)/c (s)    =  N/A
# eccentricity     =  N/A
# w (rad)          =  N/A
# T_peri           =  N/A
######################################################
   0  2183.816
   1  2219.674
   2  2137.513
   3  2012.546
   4  1902.585
   5  1863.581
   6  1907.28
   7  1878.08
   8  1783.229
   9  1679.185
  10  1664.381
  11  1694.106
  12  1763.179
  13  1869.797
  14  1890.723
  15  1878.414
  16  1798.054
  17  1797.511
  18  1616.414
  19  1685.89
  20  1818.924
  21  1764.3
  22  1745.99
  23  1781.595
  24  1741.752
  25  1769.634
  26  1750.921
  27  1794.898
  28  1744.856
  29  1668.896
  30  1750.161
  31  1853.657
  32  1774.893
  33  1848.044
  34  1842.996
  35  1842.561
  36  1825.664
  37  1854.147
  38  1850.275
  39  1779.011
  40  1814.181
  41  1886.182
  42  1959.88
  43  1828.309
  44  1888.826
  45  1940.427
  46  1847.661
  47  1802.308
  48  1814.995
  49  1874.813
  50  1822.06
  51  1802.831
  52  1786.618
  53  1796.043
  54  1857.673
  55  1895.952
  56  1927.472
  57  1820.43
  58  1783.943
  59  1761.189
  60  1733.137
  61  1751.263
  62  1861.547
  63  1878.439
  64  1848.058
  65  1816.007
  66  1789.678
  67  1794.067
  68  1817.563
  69  1821.309
  70  1803.542
  71  1831.973
  72  1854.83
  73  1833.201
  74  1791.261
  75  1770.445
  76  1717.907
  77  1797.108
  78  1869.089
  79  1824.204
  80  1894.454
  81  1777.187
  82  1820.851
  83  1800.407
  84  1851.542
  85  1814.734
  86  1693.347
  87  1722.724
  88  1790.717
  89  1782.657
  90  1690.127
  91  1705.605
  92  1824.789
  93  1811.971
  94  1802.596
  95  1736.567
  96  1767.986
  97  1744.896
  98  1758.9
  99  1811.46
 100  1740.85
 101  1768.067
 102  1844.037
 103  1805.933
 104  1830.876
 105  1862.741
 106  1840.194
 107  1817.151
 108  1807.917
 109  1840.062
 110  1716.14
 111  1662.415
 112  1723.809
 113  1842.638
 114  1754.445
 115  1715.524
 116  1785.185
 117  1861.903
 118  1784.176
 119  1713.038
 120  1683.078
 121  1800.865
 122  1899.528
 123  1847.49
 124  1681.15
 125  1722.506
 126  1813.901
 127  1803.423
 128  1741.901
 129  1700.876
 130  1679.999
 131  1802.211
 132  1906.132
 133  1892.128
 134  1898.028
 135  1885.924
 136  1887.241
 137  1809.314
 138  1801.241
 139  1803.005
 140  1864.605
 141  1821.967
 142  1795.028
 143  1657.634
 144  1679.152
 145  1682.595
 146  1723.971
 147  1811.443
 148  1861.786
 149  1812.548
 150  1849.925
 151  1803.722
 152  1762.942
 153  1686.159
 154  1799.868
 155  1862.068
 156  1895.311
 157  1844.22
 158  1780.355
 159  1743.505
 160  1749.235
 161  1767.753
 162  1784.156
 163  1665.408
 164  1746.292
 165  1772.876
 166  1760.274
 167  1769.899
 168  1779.779
 169  1733.658
 170  1761.889
 171  1796.896
 172  1778.681
 173  1784.29
 174  1848.5
 175  1771.467
 176  1690.445
 177  1722.534
 178  1757.908
 179  1767.778
 180  1845.505
 181  1790.056
 182  1703.096
 183  1820.216
 184  1889.385
 185  1808.23
 186  1690.596
 187  1699.703
 188  1736.102
 189  1813.574
 190  1751.258
 191  1812.106
 192  1752.951
 193  1722.094
 194  1660.896
 195  1683.885
 196  1735.582
 197  1747.617
 198  1658.199
 199  1666.384
 200  1707.284
 201  1791.883
 202  1760.306
 203  1860.953
 204  1759.322
 205  1800.973
 206  1773.642
 207  1776.675
 208  1772.51
 209  1699.075
 210  1755.281
 211  1776.416
 212  1840.092
 213  1863.135
 214  1831.059
 215  1675.061
 216  1674.367
 217  1679.822
 218  1692.866
 219  1643.284
 220  1742.543
 221  1855.301
 222  1840.612
 223  1781.074
 224  1703.6
 225  1777.897
 226  1788.823
 227  1859.23
 228  1825.024
 229  1846.375
 230  1788.434
 231  1854.102
 232  1899.522
 233  1817.454
 234  1779.775
 235  1801.261
 236  1790.31
 237  1813.692
 238  1921.537
 239  1898.473
 240  1799.918
 241  1828.598
 242  1874.909
 243  1820.708
 244  1851.089
 245  1940.886
 246  1940.522
 247  1836.068
 248  1812.683
 249  1821.849
 250  1857.644
 251  1865.28
 252  1878.498
 253  1834.66
 254  1786.464
 255  1782.179
 256  1874.432
 257  1786.962
 258  1724.155
 259  1804.17
 260  1773.493
 261  1720.75
 262  1648.062
 263  1672.527
 264  1767.428
 265  1872.978
 266  1821.262
 267  1664.857
 268  1673.823
 269  1738.079
 270  1710.15
 271  1707.872
 272  1744.176
 273  1658.647
 274  1644.29
 275  1664.459
 276  1753.753
 277  1778.376
 278  1711.181
 279  1747.541
 280  1750.137
 281  1669.71
 282  1611.252
 283  1631.624
 284  1683.464
 285  1769.639
 286  1749.011
 287  1651.874
 288  1723.776
 289  1834.625
 290  1720.022
 291  1685.968
 292  1752.319
 293  1775.335
 294  1761.865
 295  1733.84
 296  1762.986
 297  1771.156
 298  1725.552
 299  1750.26
 300  1774.722
 301  1743.36
 302  1686.833
 303  1682.086
 304  1688.122
 305  1705.749
 306  1747.506
 307  1762.38
 308  1796.224
 309  1800.008
 310  1788.92
 311  1701.657
 312  1752.746
 313  1720.645
 314  1772.838
 315  1758.407
 316  1700.214
 317  1713.154
 318  1747.775
 319  1789.625
 320  1790.28
 321  1737.862
 322  1826.109
 323  1782.977
 324  1875.828
 325  1866.592
 326  1806.926
 327  1868.702
 328  1833.998
 329  1732.882
 330  1715.818
 331  1732.263
 332  1797.605
 333  1831.898
 334  1841.405
 335  1826.41
 336  1898.269
 337  1911.176
 338  1869.738
 339  1757.397
 340  1802.205
 341  1829.825
 342  1879.078
 343  1878.12
 344  1752.792
 345  1679.579
 346  1623.165
 347  1704.076
 348  1725.72
 349  1749.527
 350  1740.624
 351  1743.078
 352  1790.792
 353  1791.663
 354  1757.09
 355  1736.302
 356  1853.149
 357  1851.107
 358  1779.359
 359  1833.653
 360  1771.653
 361  1728.477
 362  1700.449
 363  1754.082
 364  1734.45
 365  1758.011
 366  1745.672
 367  1714.172
 368  1644.093
 369  1758.812
 370  1783.798
 371  1757.075
 372  1824.838
 373  1854.888
 374  1814.83
 375  1818.474
 376  1852.603
 377  1823.859
 378  1824.448
 379  1859.725
 380  1827.91
 381  1722.295
 382  1693.744
 383  1654.355
 384  1770.858
 385  1866.062
 386  1834.771
 387  1721.294
 388  1735.979
 389  1795.756
 390  1765.369
 391  1749.709
 392  1771.736
 393  1784.694
 394  1884.947
 395  1912.983
 396  1864.297
 397  1726.255
 398  1699.855
 399  1819.608
 400  1851.999
 401  1796.915
 402  1769.883
 403  1808.407
 404  1782.608
 405  1698.371
 406  1700.24
 407  1778.657
 408  1834.085
 409  1839.406
 410  1827.47
 411  1848.663
 412  1855.076
 413  1806.649
 414  1815.231
 415  1786.868
 416  1771.794
 417  1793.337
 418  1807.553
 419  1783.013
 420  1845.481
 421  1754.47
 422  1808.585
 423  1741.15
 424  1818.686
 425  1718.1
 426  1603.395
 427  1724.417
 428  1808.533
 429  1699.608
 430  1611.684
 431  1626.325
 432  1703.872
 433  1688.083
 434  1816.523
 435  1896.801
 436  1788.058
 437  1818.225
 438  1814.592
 439  1713.843
 440  1725.048
 441  1778.668
 442  1785.668
 443  1823.52
 444  1850.392
 445  1859.14
 446  1884.599
 447  1910.303
 448  1825.275
 449  1860.269
 450  1837.063
 451  1905.277
 452  2009.875
 453  1914.257
 454  1830.143
 455  1824.2
 456  1943.766
 457  1886.041
 458  1817.283
 459  1817.701
 460  1717.703
 461  1769.882
 462  1807.098
 463  1799.744
 464  1789.291
 465  1864.635
 466  1873.267
 467  1803.505
 468  1798.73
 469  1739.203
 470  1716.332
 471  1876.688
 472  1863.239
 473  1868.19
 474  1874.18
 475  1896.144
 476  1811.301
 477  1835.871
 478  1773.712
 479  1764.069
 480  1773.548
 481  1798.453
 482  1714.18
 483  1602.048
 484  1801.785
 485  1859.206
 486  1819.266
 487  1790.329
 488  1800.199
 489  1824.628
 490  1764.532
 491  1808.98
 492  1784.866
 493  1810.635
 494  1816.748
 495  1808.431
 496  1806.501
 497  1715.576
 498  1755.102
 499  1771.485
 500  1776.462
 501  1758.141
 502  1811.342
 503  1851.087
 504  1785.854
 505  1738.187
 506  1825.088
 507  1782.977
 508  1821.682
 509  1935.855
 510  2029.443
 511  2098.88
