# Input file       =  1199982936.105925_cleaned.dat
# Candidate        =  PSR_0332+5434
# Telescope        =  AR
# Epoch_topo       =  58132.691181781542
# Epoch_bary       =  N/A
# T_sample         =  0.002
# Data Folded      =  7340032
# Data Avg         =  0.0511820499820702
# Data StdDev      =  0.999886487972926
# Profile Bins     =  512
# Profile Avg      =  733.741552250855 
# Profile StdDev   =  119.719445237099 
# Reduced chi-sqr  =  1.222
# Prob(Noise)      <  0.000431   (~3.3 sigma)
# P_topo (ms)      =  714.566371777067  +/- 0.000179
# P'_topo (s/s)    =  -0                +/- 9.43e-11
# P''_topo (s/s^2) =  0                 +/- 4.16e-14
# P_bary (ms)      =  N/A
# P'_bary (s/s)    =  N/A
# P''_bary (s/s^2) =  N/A
# P_orb (s)        =  N/A
# asin(i)/c (s)    =  N/A
# eccentricity     =  N/A
# w (rad)          =  N/A
# T_peri           =  N/A
######################################################
   0  1372.121
   1  1314.82
   2  1142.717
   3  881.9529
   4  760.9257
   5  754.1715
   6  726.9315
   7  647.3391
   8  675.1905
   9  603.7245
  10  745.0268
  11  860.6511
  12  754.9035
  13  707.9037
  14  781.6992
  15  733.6746
  16  629.5205
  17  706.7024
  18  701.9295
  19  661.894
  20  637.7845
  21  769.6816
  22  766.5542
  23  715.6355
  24  668.956
  25  727.0732
  26  690.6649
  27  661.196
  28  672.6562
  29  836.8635
  30  775.2254
  31  688.4453
  32  669.5477
  33  741.8432
  34  635.7404
  35  648.5267
  36  674.819
  37  639.3035
  38  558.8898
  39  675.9351
  40  766.952
  41  746.9865
  42  723.1177
  43  717.1155
  44  720.9221
  45  731.7128
  46  847.1686
  47  794.152
  48  716.8307
  49  670.2698
  50  767.5913
  51  705.6188
  52  639.2552
  53  714.224
  54  805.2149
  55  807.9277
  56  752.687
  57  722.5045
  58  670.6193
  59  655.1321
  60  689.2822
  61  798.3767
  62  785.2121
  63  736.2034
  64  739.6638
  65  746.8018
  66  797.7369
  67  840.1451
  68  835.4041
  69  957.0605
  70  917.3077
  71  832.7226
  72  766.4005
  73  676.8588
  74  702.1223
  75  795.7765
  76  787.5382
  77  748.9234
  78  648.7914
  79  640.6642
  80  667.0059
  81  772.8011
  82  808.3713
  83  824.7896
  84  740.387
  85  731.8206
  86  767.6522
  87  836.6511
  88  789.1714
  89  763.7243
  90  748.0381
  91  796.3347
  92  760.5784
  93  666.6814
  94  625.8644
  95  628.9329
  96  717.5609
  97  782.3978
  98  830.0294
  99  812.0005
 100  721.194
 101  745.0665
 102  708.2256
 103  690.5977
 104  578.8561
 105  714.6155
 106  849.1862
 107  760.2618
 108  662.1108
 109  767.0925
 110  715.7557
 111  757.2063
 112  757.8023
 113  790.5656
 114  784.8583
 115  711.5785
 116  641.1374
 117  614.9461
 118  711.0239
 119  822.6511
 120  830.4521
 121  665.7285
 122  570.4218
 123  537.5806
 124  629.0396
 125  597.6367
 126  693.2889
 127  809.3326
 128  760.7208
 129  782.8963
 130  746.1165
 131  756.4051
 132  679.9151
 133  711.6638
 134  723.6566
 135  655.5392
 136  756.902
 137  782.8755
 138  737.4839
 139  562.1488
 140  552.9551
 141  639.4301
 142  568.1716
 143  698.9142
 144  766.7728
 145  789.7164
 146  812.462
 147  786.9932
 148  877.8527
 149  773.5645
 150  670.9339
 151  658.9312
 152  651.2982
 153  723.5287
 154  758.4991
 155  754.7289
 156  738.0566
 157  698.5772
 158  700.6036
 159  736.532
 160  681.6245
 161  676.0985
 162  728.7596
 163  765.8648
 164  798.1094
 165  814.7133
 166  804.6053
 167  777.9276
 168  820.047
 169  823.8434
 170  837.2996
 171  751.7195
 172  787.0132
 173  728.5179
 174  751.0316
 175  622.5613
 176  561.6843
 177  697.1711
 178  713.4766
 179  646.84
 180  612.4268
 181  783.3414
 182  851.7935
 183  745.8039
 184  731.3719
 185  737.7168
 186  695.1267
 187  688.3708
 188  601.3473
 189  710.7281
 190  743.6487
 191  697.411
 192  664.4183
 193  711.7766
 194  860.1968
 195  808.4952
 196  729.2607
 197  738.186
 198  772.6657
 199  734.5249
 200  709.968
 201  729.6689
 202  761.9561
 203  764.0441
 204  682.0731
 205  670.428
 206  607.2327
 207  656.9788
 208  618.856
 209  574.4803
 210  741.1633
 211  704.3895
 212  714.768
 213  702.3065
 214  508.5183
 215  675.7548
 216  742.3715
 217  586.491
 218  592.6525
 219  600.6019
 220  736.3257
 221  711.9241
 222  715.8446
 223  598.4902
 224  683.4033
 225  713.0246
 226  715.8373
 227  661.6616
 228  663.1841
 229  730.4254
 230  677.2084
 231  634.4466
 232  719.7968
 233  688.8168
 234  682.2239
 235  773.0985
 236  711.5707
 237  805.3256
 238  787.0126
 239  754.8058
 240  738.5175
 241  720.9728
 242  572.1263
 243  514.7946
 244  717.1203
 245  724.0092
 246  781.1713
 247  701.1522
 248  680.6306
 249  747.5397
 250  574.7031
 251  535.4232
 252  708.1808
 253  772.1689
 254  707.3354
 255  582.487
 256  655.3303
 257  818.4108
 258  689.3358
 259  556.3478
 260  623.3119
 261  638.1527
 262  707.6591
 263  865.9412
 264  797.3712
 265  723.3964
 266  615.1671
 267  646.7662
 268  766.1434
 269  746.824
 270  661.3527
 271  596.9056
 272  608.1219
 273  575.5845
 274  588.2013
 275  581.8096
 276  643.9877
 277  631.4494
 278  621.5879
 279  660.5141
 280  579.8032
 281  641.9024
 282  780.8206
 283  782.6567
 284  751.791
 285  737.0869
 286  761.897
 287  726.3051
 288  611.572
 289  683.7206
 290  722.4001
 291  749.8283
 292  853.6891
 293  719.2281
 294  720.4031
 295  757.9614
 296  678.7926
 297  574.3002
 298  601.6354
 299  619.788
 300  674.2254
 301  726.5564
 302  773.4876
 303  673.0862
 304  594.0065
 305  683.938
 306  668.9191
 307  658.0554
 308  742.1747
 309  800.5289
 310  764.3918
 311  681.805
 312  650.0407
 313  520.6722
 314  661.1169
 315  713.5411
 316  585.8137
 317  600.3169
 318  721.4792
 319  734.8787
 320  720.4419
 321  687.9864
 322  651.9327
 323  645.5572
 324  623.1973
 325  614.807
 326  720.5282
 327  729.7819
 328  750.3994
 329  751.2977
 330  751.0342
 331  787.7585
 332  852.7402
 333  858.9844
 334  824.3507
 335  735.2805
 336  771.8991
 337  802.6342
 338  774.9412
 339  744.4073
 340  648.5186
 341  706.3895
 342  635.5337
 343  649.3801
 344  673.8407
 345  704.269
 346  691.0145
 347  692.5306
 348  666.2208
 349  716.9764
 350  776.0381
 351  687.011
 352  713.7367
 353  795.5247
 354  773.8621
 355  637.5545
 356  709.7866
 357  682.2784
 358  596.389
 359  723.1451
 360  741.7397
 361  731.6866
 362  801.222
 363  945.7571
 364  851.9767
 365  713.7618
 366  789.2504
 367  714.3455
 368  605.8813
 369  595.5324
 370  794.5806
 371  728.6219
 372  726.2326
 373  784.3198
 374  764.2139
 375  694.6619
 376  701.4979
 377  753.2029
 378  638.2514
 379  654.7781
 380  786.7632
 381  777.0584
 382  702.9385
 383  646.5579
 384  715.6641
 385  790.7542
 386  756.6512
 387  709.3719
 388  675.9238
 389  740.5953
 390  665.6539
 391  690.7125
 392  850.7809
 393  828.2491
 394  724.3499
 395  791.1547
 396  767.669
 397  764.7409
 398  875.6827
 399  808.9524
 400  758.1509
 401  632.4167
 402  720.3894
 403  693.226
 404  789.248
 405  734.194
 406  651.0112
 407  647.8768
 408  688.4669
 409  755.7972
 410  797.3946
 411  693.1738
 412  751.1245
 413  845.3305
 414  726.9788
 415  629.3071
 416  853.6301
 417  974.3794
 418  877.5658
 419  748.4326
 420  671.2529
 421  717.9779
 422  635.1155
 423  639.9037
 424  784.5011
 425  775.7094
 426  853.0231
 427  822.6788
 428  797.6385
 429  769.7739
 430  784.5762
 431  794.5076
 432  826.4743
 433  818.7202
 434  769.2573
 435  745.1036
 436  725.3627
 437  752.501
 438  865.8788
 439  850.4594
 440  824.9614
 441  855.1412
 442  792.3618
 443  852.4567
 444  769.0819
 445  732.4003
 446  798.7463
 447  763.9446
 448  787.69
 449  798.5371
 450  793.3599
 451  688.639
 452  742.0039
 453  773.4498
 454  829.2969
 455  808.7123
 456  871.4049
 457  861.3777
 458  834.5043
 459  836.2819
 460  850.658
 461  790.7446
 462  808.472
 463  844.9702
 464  818.3559
 465  904.9156
 466  802.6588
 467  806.0253
 468  792.923
 469  707.0239
 470  764.1884
 471  791.1906
 472  773.529
 473  649.0329
 474  764.4962
 475  799.0231
 476  837.436
 477  863.8962
 478  868.8281
 479  749.7591
 480  657.1545
 481  700.3486
 482  694.2335
 483  722.3904
 484  761.8929
 485  876.7467
 486  739.4806
 487  629.3958
 488  768.8901
 489  740.1416
 490  680.6783
 491  715.0998
 492  828.9919
 493  886.4358
 494  774.2319
 495  775.6652
 496  770.8516
 497  707.1871
 498  668.9773
 499  622.5837
 500  648.2032
 501  710.5556
 502  772.1472
 503  796.2756
 504  740.6129
 505  698.7695
 506  777.8743
 507  913.7027
 508  944.825
 509  1116.409
 510  1209.918
 511  1311.056
