# Input file       =  1199738862.105873_cleaned.dat
# Candidate        =  PSR_0332+5434
# Telescope        =  AR
# Epoch_topo       =  58129.866251225387
# Epoch_bary       =  N/A
# T_sample         =  0.002
# Data Folded      =  7340032
# Data Avg         =  0.0926563424411478
# Data StdDev      =  1.00005309412127 
# Profile Bins     =  512
# Profile Avg      =  1328.30620887668 
# Profile StdDev   =  119.73939349712  
# Reduced chi-sqr  =  0.738
# Prob(Noise)      <  1   (~0.0 sigma)
# P_topo (ms)      =  714.564698648117  +/- 9.27e-05
# P'_topo (s/s)    =  -0                +/- 4.89e-11
# P''_topo (s/s^2) =  0                 +/- 2.16e-14
# P_bary (ms)      =  N/A
# P'_bary (s/s)    =  N/A
# P''_bary (s/s^2) =  N/A
# P_orb (s)        =  N/A
# asin(i)/c (s)    =  N/A
# eccentricity     =  N/A
# w (rad)          =  N/A
# T_peri           =  N/A
######################################################
   0  1550.953
   1  1601.332
   2  1706.998
   3  1505.477
   4  1344.812
   5  1264.159
   6  1229.699
   7  1262.026
   8  1189.888
   9  1235.964
  10  1284.108
  11  1276.908
  12  1243.641
  13  1315.799
  14  1334.717
  15  1368.296
  16  1380.138
  17  1363.95
  18  1189.528
  19  1178.059
  20  1229.732
  21  1283.172
  22  1158.864
  23  1171.093
  24  1290.871
  25  1342.56
  26  1396.986
  27  1432.829
  28  1368.398
  29  1328.993
  30  1297.395
  31  1337.018
  32  1278.793
  33  1276.801
  34  1361.206
  35  1304.59
  36  1338.302
  37  1327.294
  38  1324.695
  39  1316.123
  40  1307.542
  41  1305.554
  42  1348.406
  43  1289.127
  44  1235.992
  45  1304.463
  46  1328.902
  47  1270.289
  48  1225.513
  49  1343.77
  50  1419.214
  51  1332.64
  52  1372.012
  53  1312.737
  54  1230.946
  55  1241.167
  56  1328.415
  57  1352.986
  58  1358.63
  59  1443.568
  60  1374.09
  61  1202.603
  62  1230.576
  63  1198.525
  64  1238.755
  65  1355.391
  66  1309.172
  67  1307.512
  68  1224.62
  69  1281.104
  70  1240.019
  71  1241.925
  72  1306.114
  73  1374.04
  74  1397.434
  75  1325.016
  76  1344.544
  77  1368.968
  78  1389.411
  79  1323.987
  80  1455.66
  81  1451.912
  82  1300.092
  83  1257.199
  84  1275.563
  85  1411.349
  86  1310.122
  87  1391.038
  88  1370.928
  89  1261.793
  90  1272.646
  91  1374.556
  92  1296.819
  93  1251.043
  94  1416.799
  95  1365.609
  96  1285.947
  97  1258.453
  98  1246.092
  99  1371.765
 100  1275.891
 101  1233.798
 102  1339.866
 103  1356.747
 104  1398.734
 105  1341.415
 106  1343.498
 107  1380.555
 108  1487.074
 109  1530.546
 110  1425.956
 111  1294.707
 112  1416.39
 113  1385.559
 114  1326.227
 115  1366.746
 116  1380.288
 117  1284.334
 118  1273.532
 119  1215.532
 120  1312.008
 121  1290.093
 122  1257.755
 123  1248.885
 124  1310.07
 125  1369.522
 126  1343.203
 127  1353.798
 128  1320.935
 129  1257.565
 130  1252.751
 131  1258.617
 132  1312.428
 133  1358.875
 134  1316.888
 135  1276.274
 136  1310.995
 137  1191.807
 138  1294.506
 139  1393.912
 140  1364.311
 141  1354.653
 142  1337.135
 143  1342.221
 144  1280.865
 145  1326.045
 146  1345.017
 147  1262.902
 148  1214.877
 149  1364.861
 150  1348.706
 151  1279.412
 152  1376.761
 153  1334.138
 154  1349.75
 155  1364.055
 156  1423.582
 157  1359.833
 158  1254.317
 159  1218.849
 160  1295.833
 161  1329.632
 162  1252.002
 163  1182.603
 164  1330.619
 165  1382.374
 166  1292.837
 167  1307.212
 168  1300.675
 169  1314.607
 170  1339.494
 171  1353.823
 172  1367.699
 173  1324.537
 174  1330.961
 175  1415.082
 176  1355.223
 177  1378.105
 178  1308.401
 179  1307.874
 180  1358.17
 181  1434.168
 182  1420.138
 183  1280.865
 184  1290.703
 185  1360.953
 186  1350.167
 187  1449.741
 188  1481.929
 189  1424.208
 190  1355.362
 191  1183.12
 192  1198.575
 193  1241.17
 194  1207.561
 195  1170.793
 196  1245.836
 197  1310.254
 198  1248.081
 199  1249.207
 200  1296.103
 201  1327.031
 202  1386.26
 203  1363.735
 204  1245.309
 205  1305.753
 206  1347.579
 207  1366.591
 208  1286.387
 209  1363.416
 210  1389.528
 211  1283.252
 212  1321.605
 213  1329.637
 214  1353.788
 215  1443.767
 216  1485.27
 217  1422.314
 218  1475.654
 219  1380.165
 220  1358.333
 221  1350.066
 222  1448.482
 223  1416.415
 224  1363.655
 225  1425.143
 226  1354.598
 227  1296.956
 228  1365.767
 229  1404.266
 230  1390.514
 231  1352.684
 232  1442.224
 233  1421.886
 234  1428.067
 235  1373.35
 236  1429.955
 237  1393.865
 238  1354.626
 239  1445.301
 240  1437.259
 241  1314.007
 242  1343.507
 243  1446.616
 244  1391.518
 245  1323.404
 246  1309.865
 247  1378.346
 248  1315.711
 249  1331.587
 250  1352.49
 251  1253.51
 252  1330.525
 253  1352.221
 254  1204.407
 255  1329.169
 256  1374.123
 257  1316.467
 258  1336.882
 259  1348.655
 260  1386.512
 261  1382.475
 262  1381.232
 263  1296.305
 264  1243.906
 265  1205.414
 266  1173.258
 267  1249.185
 268  1281.852
 269  1298.276
 270  1256.972
 271  1302.377
 272  1329.228
 273  1270.307
 274  1266.03
 275  1219.128
 276  1280.189
 277  1310.061
 278  1302.073
 279  1296.642
 280  1294.631
 281  1369.191
 282  1366.674
 283  1310.924
 284  1328.342
 285  1297.91
 286  1183.892
 287  1214.875
 288  1202.127
 289  1292.886
 290  1365.41
 291  1288.873
 292  1350.779
 293  1344.529
 294  1296.622
 295  1366.822
 296  1344.58
 297  1313.518
 298  1342.895
 299  1343.231
 300  1255.875
 301  1354.13
 302  1327.562
 303  1340.995
 304  1309.912
 305  1329.02
 306  1417.738
 307  1352.959
 308  1266.777
 309  1235.265
 310  1348.283
 311  1189.465
 312  1075.118
 313  1300.321
 314  1403.528
 315  1357.838
 316  1326.821
 317  1297.034
 318  1188.481
 319  1242.388
 320  1330.647
 321  1327.184
 322  1315.371
 323  1187.286
 324  1249.587
 325  1191.108
 326  1285.364
 327  1316.289
 328  1420.281
 329  1320.932
 330  1291.612
 331  1298.007
 332  1360.188
 333  1373.694
 334  1293.059
 335  1318.112
 336  1333.444
 337  1183.79
 338  1201.565
 339  1326.873
 340  1333.004
 341  1348.609
 342  1279.23
 343  1282.141
 344  1337.657
 345  1367.965
 346  1398.775
 347  1376.964
 348  1395.255
 349  1382.02
 350  1412.252
 351  1334.752
 352  1317.404
 353  1469.521
 354  1454.559
 355  1347.174
 356  1314.529
 357  1292.528
 358  1270.673
 359  1231.39
 360  1269.791
 361  1284.636
 362  1321.448
 363  1321.442
 364  1292.764
 365  1243.069
 366  1204.42
 367  1359.095
 368  1426.527
 369  1389.388
 370  1262.452
 371  1287.891
 372  1307.397
 373  1257.037
 374  1277.339
 375  1407.468
 376  1380.927
 377  1319.519
 378  1435.61
 379  1426.488
 380  1276.929
 381  1229.872
 382  1321.665
 383  1315.575
 384  1292.563
 385  1349.748
 386  1388.214
 387  1338.906
 388  1317.703
 389  1250.879
 390  1285.283
 391  1212.94
 392  1209.25
 393  1229.623
 394  1161.835
 395  1182.44
 396  1240.271
 397  1173.046
 398  1241.807
 399  1292.864
 400  1291.605
 401  1275.832
 402  1307.134
 403  1290.976
 404  1240.617
 405  1229.976
 406  1353.167
 407  1330.236
 408  1338.756
 409  1371.75
 410  1258.568
 411  1193.604
 412  1295.07
 413  1249.009
 414  1230.577
 415  1218.724
 416  1305.472
 417  1340.908
 418  1256.47
 419  1193.511
 420  1332.125
 421  1344.167
 422  1348.155
 423  1295.407
 424  1314.905
 425  1360.861
 426  1284.453
 427  1243.517
 428  1338.797
 429  1303.507
 430  1317.184
 431  1402.226
 432  1390.709
 433  1388.208
 434  1299.868
 435  1306.691
 436  1457.806
 437  1324.576
 438  1351.737
 439  1397.851
 440  1367.407
 441  1358.641
 442  1353.921
 443  1422.027
 444  1465.202
 445  1401.223
 446  1372.607
 447  1319.579
 448  1363.399
 449  1396.245
 450  1448.406
 451  1397.797
 452  1315.388
 453  1426.642
 454  1462.135
 455  1326.024
 456  1499.288
 457  1511.145
 458  1414.682
 459  1352.003
 460  1371.18
 461  1348.884
 462  1381.559
 463  1337.822
 464  1412.7
 465  1410.932
 466  1300.032
 467  1387.472
 468  1398.433
 469  1318.701
 470  1315.517
 471  1332.462
 472  1338.298
 473  1348.646
 474  1388.783
 475  1464.624
 476  1376.868
 477  1248.635
 478  1371.229
 479  1383.412
 480  1344.982
 481  1349.222
 482  1447.253
 483  1348.563
 484  1339.728
 485  1346.3
 486  1280.399
 487  1319.282
 488  1376.708
 489  1255.785
 490  1248.951
 491  1338.827
 492  1376.799
 493  1294.844
 494  1381.724
 495  1380.861
 496  1338.62
 497  1250.426
 498  1308.201
 499  1409.254
 500  1465.021
 501  1341.895
 502  1399.753
 503  1471.848
 504  1418.707
 505  1309.546
 506  1289.74
 507  1447.908
 508  1366.965
 509  1457.709
 510  1571.907
 511  1599.856
