# Input file       =  1199896224.112061_cleaned.dat
# Candidate        =  PSR_0332+5434
# Telescope        =  AR
# Epoch_topo       =  58131.687570741444
# Epoch_bary       =  N/A
# T_sample         =  0.002
# Data Folded      =  7340032
# Data Avg         =  0.051046786963237
# Data StdDev      =  1.00012228535859 
# Profile Bins     =  512
# Profile Avg      =  731.797883443303 
# Profile StdDev   =  119.747677974055 
# Reduced chi-sqr  =  1.146
# Prob(Noise)      <  0.012   (~2.3 sigma)
# P_topo (ms)      =  714.565665439337  +/- 0.000201
# P'_topo (s/s)    =  -0                +/- 1.06e-10
# P''_topo (s/s^2) =  0                 +/- 4.68e-14
# P_bary (ms)      =  N/A
# P'_bary (s/s)    =  N/A
# P''_bary (s/s^2) =  N/A
# P_orb (s)        =  N/A
# asin(i)/c (s)    =  N/A
# eccentricity     =  N/A
# w (rad)          =  N/A
# T_peri           =  N/A
######################################################
   0  1363.044
   1  1258.367
   2  1110.545
   3  859.8259
   4  831.5094
   5  878.1845
   6  700.6855
   7  636.0739
   8  683.6601
   9  700.8159
  10  738.2335
  11  700.3095
  12  816.1125
  13  779.3914
  14  814.8833
  15  708.6024
  16  546.9326
  17  699.1783
  18  767.2678
  19  778.8784
  20  696.7808
  21  640.1686
  22  713.1243
  23  784.1709
  24  765.7119
  25  776.2903
  26  770.2211
  27  754.7861
  28  818.8947
  29  657.9653
  30  578.9224
  31  545.308
  32  607.2095
  33  771.2268
  34  847.478
  35  728.991
  36  783.9383
  37  753.0494
  38  662.0714
  39  575.2388
  40  632.5937
  41  604.2297
  42  631.8222
  43  770.2999
  44  702.29
  45  671.4713
  46  803.4097
  47  734.3537
  48  680.36
  49  653.4751
  50  692.6406
  51  635.2042
  52  768.8939
  53  740.1951
  54  746.5522
  55  757.5916
  56  775.041
  57  794.9217
  58  781.6974
  59  660.1192
  60  653.6447
  61  737.4903
  62  745.3445
  63  738.7108
  64  850.1538
  65  772.2783
  66  789.2951
  67  723.6235
  68  662.3139
  69  730.4467
  70  826.2762
  71  764.1452
  72  808.7145
  73  779.301
  74  773.5353
  75  742.2527
  76  681.7346
  77  745.9533
  78  659.0559
  79  774.2468
  80  809.8304
  81  684.6856
  82  613.8198
  83  670.6892
  84  764.1301
  85  912.1483
  86  925.5493
  87  928.7114
  88  913.444
  89  817.1367
  90  734.9335
  91  755.9376
  92  790.7004
  93  759.5944
  94  773.228
  95  866.7971
  96  825.6273
  97  846.2659
  98  837.9272
  99  815.4235
 100  782.6277
 101  645.6376
 102  615.5433
 103  625.3341
 104  644.2918
 105  741.6498
 106  812.9634
 107  769.0237
 108  777.6711
 109  799.3805
 110  709.6365
 111  774.7414
 112  855.6328
 113  779.6877
 114  663.2103
 115  713.3099
 116  676.2883
 117  671.5016
 118  673.1432
 119  693.0347
 120  732.6835
 121  756.1817
 122  735.4109
 123  605.7177
 124  616.6972
 125  672.7679
 126  719.8243
 127  666.0298
 128  700.3167
 129  693.648
 130  804.6074
 131  764.2907
 132  726.2745
 133  716.0464
 134  734.9061
 135  730.7383
 136  739.9501
 137  695.1062
 138  780.9894
 139  805.9559
 140  753.1887
 141  723.3672
 142  684.7728
 143  629.571
 144  635.5364
 145  715.5039
 146  736.818
 147  776.5204
 148  784.322
 149  715.9061
 150  741.2256
 151  765.3417
 152  782.9941
 153  709.4731
 154  720.1145
 155  713.2496
 156  881.584
 157  891.0527
 158  872.1837
 159  790.6755
 160  719.2555
 161  643.7934
 162  740.3931
 163  796.3412
 164  945.606
 165  831.4041
 166  781.1161
 167  849.2888
 168  679.588
 169  683.6605
 170  820.6035
 171  964.8975
 172  905.9069
 173  830.4148
 174  732.8389
 175  596.2234
 176  718.393
 177  808.3839
 178  833.673
 179  831.2573
 180  737.9943
 181  764.2819
 182  718.9069
 183  718.6065
 184  690.4439
 185  701.183
 186  730.3685
 187  752.829
 188  821.6313
 189  720.6476
 190  682.3513
 191  768.4824
 192  802.1028
 193  744.4153
 194  775.9293
 195  759.0375
 196  840.3795
 197  820.1627
 198  671.7509
 199  728.9457
 200  747.9229
 201  731.7841
 202  653.0212
 203  774.1946
 204  672.5038
 205  690.4918
 206  816.9075
 207  627.8428
 208  601.2228
 209  668.4389
 210  704.9403
 211  722.155
 212  779.7142
 213  738.0094
 214  675.6115
 215  580.8545
 216  540.8765
 217  645.4056
 218  705.9067
 219  838.7709
 220  783.389
 221  646.7631
 222  662.2455
 223  703.4553
 224  644.7386
 225  628.8324
 226  603.9215
 227  607.0262
 228  589.1316
 229  616.7578
 230  673.7924
 231  562.9691
 232  615.907
 233  619.0477
 234  725.2119
 235  734.6597
 236  810.6306
 237  842.0665
 238  710.3118
 239  755.1582
 240  743.5629
 241  622.1302
 242  634.1419
 243  760.3281
 244  699.9132
 245  702.4654
 246  776.6107
 247  780.0244
 248  745.8043
 249  657.5311
 250  595.4221
 251  660.0812
 252  632.7781
 253  548.1994
 254  563.445
 255  697.522
 256  876.1967
 257  882.6376
 258  747.6436
 259  668.509
 260  604.4594
 261  611.4663
 262  716.7972
 263  685.3905
 264  653.8657
 265  683.9879
 266  841.1382
 267  906.4052
 268  714.2027
 269  796.8561
 270  860.7968
 271  788.8496
 272  684.1475
 273  688.6503
 274  696.0651
 275  705.9221
 276  801.0639
 277  678.9615
 278  718.2169
 279  725.2903
 280  698.9952
 281  762.3836
 282  776.395
 283  718.8112
 284  677.5617
 285  761.8635
 286  775.2097
 287  727.5796
 288  657.3998
 289  569.2374
 290  646.2651
 291  672.7615
 292  658.4925
 293  732.2311
 294  760.2255
 295  685.1285
 296  715.106
 297  824.6557
 298  855.6205
 299  885.0615
 300  700.2894
 301  804.0767
 302  771.1534
 303  738.6095
 304  782.375
 305  693.9438
 306  698.3206
 307  661.0861
 308  676.5707
 309  717.001
 310  750.7017
 311  698.7983
 312  755.2335
 313  775.353
 314  834.9369
 315  774.1052
 316  599.1756
 317  649.6862
 318  728.1321
 319  770.3044
 320  723.0432
 321  623.7673
 322  697.0046
 323  715.966
 324  833.572
 325  811.8531
 326  724.1358
 327  710.3378
 328  747.6325
 329  728.7789
 330  707.6891
 331  760.9518
 332  694.303
 333  766.7437
 334  763.0323
 335  688.1795
 336  731.4061
 337  667.9382
 338  669.7028
 339  841.986
 340  755.0997
 341  619.6956
 342  645.673
 343  679.7318
 344  707.7923
 345  677.8302
 346  708.6541
 347  913.0414
 348  810.0151
 349  618.8273
 350  565.6863
 351  762.1432
 352  708.4379
 353  777.8137
 354  725.5414
 355  752.8074
 356  728.6971
 357  728.6683
 358  693.5203
 359  646.697
 360  689.2805
 361  703.1313
 362  823.3125
 363  791.3981
 364  595.3896
 365  611.6304
 366  751.1031
 367  755.3275
 368  746.1686
 369  704.521
 370  718.4581
 371  718.7736
 372  718.139
 373  684.0901
 374  683.6027
 375  635.3526
 376  723.3017
 377  716.8281
 378  674.5321
 379  646.2319
 380  674.8682
 381  625.0542
 382  703.5021
 383  773.5782
 384  817.6761
 385  724.2018
 386  693.2607
 387  639.3967
 388  695.504
 389  640.4434
 390  783.6474
 391  734.2701
 392  675.3439
 393  763.1732
 394  737.9248
 395  774.7123
 396  704.7011
 397  633.1797
 398  759.0623
 399  725.6718
 400  698.0823
 401  700.8121
 402  623.5129
 403  626.9086
 404  660.7922
 405  650.2684
 406  735.2798
 407  716.9366
 408  702.3013
 409  566.3389
 410  477.2158
 411  689.9178
 412  838.1787
 413  734.3948
 414  699.2974
 415  690.1713
 416  642.1219
 417  742.4724
 418  750.2536
 419  759.6794
 420  781.8099
 421  759.6121
 422  720.5383
 423  801.7244
 424  783.1601
 425  753.85
 426  747.1313
 427  797.6254
 428  720.2896
 429  718.7695
 430  795.6002
 431  779.1181
 432  703.7747
 433  692.3359
 434  851.4417
 435  824.2771
 436  733.6729
 437  886.2274
 438  763.0396
 439  776.1745
 440  801.2029
 441  770.2974
 442  705.8762
 443  639.676
 444  580.9507
 445  593.4937
 446  739.6924
 447  734.6056
 448  723.4409
 449  698.7064
 450  595.1635
 451  711.6705
 452  708.8705
 453  725.7992
 454  789.9412
 455  783.0114
 456  708.369
 457  702.0298
 458  708.0974
 459  565.7206
 460  735.2733
 461  622.0007
 462  590.3038
 463  636.265
 464  721.9832
 465  753.4131
 466  716.7198
 467  742.4271
 468  621.3294
 469  643.4433
 470  721.7903
 471  697.3069
 472  703.6702
 473  744.9268
 474  713.3834
 475  704.0457
 476  692.9525
 477  664.3343
 478  701.0005
 479  606.2797
 480  741.3423
 481  701.6163
 482  708.0104
 483  722.4482
 484  707.0534
 485  647.1986
 486  558.7383
 487  716.2393
 488  704.3873
 489  774.9704
 490  702.5716
 491  649.9714
 492  778.9225
 493  705.902
 494  786.1503
 495  759.551
 496  702.3992
 497  705.3763
 498  712.5689
 499  712.5635
 500  687.3305
 501  725.9763
 502  672.4588
 503  686.6492
 504  944.2498
 505  949.7106
 506  874.5579
 507  956.863
 508  1001.482
 509  951.3129
 510  1154.97
 511  1351.701
