# Input file       =  1200169617.116321_cleaned.dat
# Candidate        =  PSR_0332+5434
# Telescope        =  AR
# Epoch_topo       =  58134.851841624084
# Epoch_bary       =  N/A
# T_sample         =  0.002
# Data Folded      =  7340032
# Data Avg         =  0.10184630640423 
# Data StdDev      =  1.00032025536832 
# Profile Bins     =  512
# Profile Avg      =  1459.90563240635 
# Profile StdDev   =  119.771381524432 
# Reduced chi-sqr  =  0.953
# Prob(Noise)      <  0.771   (~0.0 sigma)
# P_topo (ms)      =  714.568151936863  +/- 0.000116
# P'_topo (s/s)    =  -0                +/- 6.13e-11
# P''_topo (s/s^2) =  0                 +/- 2.71e-14
# P_bary (ms)      =  N/A
# P'_bary (s/s)    =  N/A
# P''_bary (s/s^2) =  N/A
# P_orb (s)        =  N/A
# asin(i)/c (s)    =  N/A
# eccentricity     =  N/A
# w (rad)          =  N/A
# T_peri           =  N/A
######################################################
   0  1911.124
   1  1974.901
   2  1832.33
   3  1693.499
   4  1554.951
   5  1394.7
   6  1350.732
   7  1450.942
   8  1547.26
   9  1464.216
  10  1403.318
  11  1387.708
  12  1419.209
  13  1442.444
  14  1556.877
  15  1406.421
  16  1548.987
  17  1591.146
  18  1428.356
  19  1382.227
  20  1465.594
  21  1477.798
  22  1468.168
  23  1516.857
  24  1532.234
  25  1536.049
  26  1462.764
  27  1484.886
  28  1575.335
  29  1594.454
  30  1643.899
  31  1631.864
  32  1512.415
  33  1456.973
  34  1532.131
  35  1559.579
  36  1474.812
  37  1550.857
  38  1557.678
  39  1439.845
  40  1440.496
  41  1433.38
  42  1387.589
  43  1430.678
  44  1505.56
  45  1495.487
  46  1460.829
  47  1380.254
  48  1381.484
  49  1526.711
  50  1548.155
  51  1446.343
  52  1498.923
  53  1411.849
  54  1445.304
  55  1541.367
  56  1591.206
  57  1585.326
  58  1581.445
  59  1418.76
  60  1365.285
  61  1372.873
  62  1371.952
  63  1306.115
  64  1366.308
  65  1432.96
  66  1462.755
  67  1518.661
  68  1420.701
  69  1313.446
  70  1330.553
  71  1328.982
  72  1374.657
  73  1473.25
  74  1453.077
  75  1389.496
  76  1337.438
  77  1370.723
  78  1405.465
  79  1393.982
  80  1385.322
  81  1393.703
  82  1419.717
  83  1433.707
  84  1335.478
  85  1429.429
  86  1459.424
  87  1416.64
  88  1383.071
  89  1469.214
  90  1484.304
  91  1370.289
  92  1276.282
  93  1328.387
  94  1406.617
  95  1366.094
  96  1501.753
  97  1525.028
  98  1500.715
  99  1499.491
 100  1334.037
 101  1370.165
 102  1450.027
 103  1534.993
 104  1586.363
 105  1492.561
 106  1359.735
 107  1335.255
 108  1358.442
 109  1320.557
 110  1476.333
 111  1492.326
 112  1516.745
 113  1438.78
 114  1395.72
 115  1451.464
 116  1522.893
 117  1536.922
 118  1533.431
 119  1416.444
 120  1445.661
 121  1538.283
 122  1391.698
 123  1326.448
 124  1342.461
 125  1414.025
 126  1492.542
 127  1555.609
 128  1437.622
 129  1471.319
 130  1415.088
 131  1400.101
 132  1454.027
 133  1413.541
 134  1494.865
 135  1518.806
 136  1436.516
 137  1354.889
 138  1453.072
 139  1482.978
 140  1388.224
 141  1412.873
 142  1431.334
 143  1418.817
 144  1491.582
 145  1540.622
 146  1392.769
 147  1307.107
 148  1409.289
 149  1413.99
 150  1434.973
 151  1437.323
 152  1416.076
 153  1520.702
 154  1464.099
 155  1409.107
 156  1337.866
 157  1312.167
 158  1394.98
 159  1520.423
 160  1549.176
 161  1505.583
 162  1440.476
 163  1499.796
 164  1398.484
 165  1485.022
 166  1512.908
 167  1376.671
 168  1340.473
 169  1407.955
 170  1512.895
 171  1403.858
 172  1377.081
 173  1347.087
 174  1402.985
 175  1483.273
 176  1403.379
 177  1261.535
 178  1310.001
 179  1552.72
 180  1477.549
 181  1429.666
 182  1471.227
 183  1489.74
 184  1421.691
 185  1597.301
 186  1519.618
 187  1553.288
 188  1484.189
 189  1565.725
 190  1388.959
 191  1348.197
 192  1428.662
 193  1457.99
 194  1410.722
 195  1436.94
 196  1361.865
 197  1387.888
 198  1444.456
 199  1366.31
 200  1267.132
 201  1338.716
 202  1400.232
 203  1478.236
 204  1412.487
 205  1280.205
 206  1273.808
 207  1397.276
 208  1562.42
 209  1377.016
 210  1328.317
 211  1418.496
 212  1469.421
 213  1337.436
 214  1309.448
 215  1372.617
 216  1456.776
 217  1423.871
 218  1432.606
 219  1297.198
 220  1367.715
 221  1388.094
 222  1491.618
 223  1386.014
 224  1306.293
 225  1437.673
 226  1447.284
 227  1465.453
 228  1527.769
 229  1508.028
 230  1419.444
 231  1417.126
 232  1501.037
 233  1483.504
 234  1452.43
 235  1508.811
 236  1502.557
 237  1437.32
 238  1375.957
 239  1429.356
 240  1498.836
 241  1557.496
 242  1539.799
 243  1515.164
 244  1518.642
 245  1554.467
 246  1510.878
 247  1467.449
 248  1289.88
 249  1355.613
 250  1478.398
 251  1558.772
 252  1445.772
 253  1390.057
 254  1396.826
 255  1412.551
 256  1458.902
 257  1351.942
 258  1409.599
 259  1395.95
 260  1285.209
 261  1333.384
 262  1479.681
 263  1435.303
 264  1390.229
 265  1427.813
 266  1461.192
 267  1361.773
 268  1339.152
 269  1450.055
 270  1474.103
 271  1417.816
 272  1423.146
 273  1428.857
 274  1481.865
 275  1409.646
 276  1401.696
 277  1453.317
 278  1417.647
 279  1466.119
 280  1429.727
 281  1359.021
 282  1431.516
 283  1436.416
 284  1423.826
 285  1472.822
 286  1402.003
 287  1395.356
 288  1426.812
 289  1409.48
 290  1441.768
 291  1427.407
 292  1386.665
 293  1516.035
 294  1501.698
 295  1479.645
 296  1570.311
 297  1696.335
 298  1522.151
 299  1396.285
 300  1331.597
 301  1322.048
 302  1375.186
 303  1498.079
 304  1425.26
 305  1465.486
 306  1546.752
 307  1474.985
 308  1318.843
 309  1308.284
 310  1451.513
 311  1427.413
 312  1468.423
 313  1501.484
 314  1425.203
 315  1369.505
 316  1462.344
 317  1511.362
 318  1487.405
 319  1500.666
 320  1548.7
 321  1502.466
 322  1490.951
 323  1532.838
 324  1511.529
 325  1454.009
 326  1430.339
 327  1406.484
 328  1491.886
 329  1416.091
 330  1410.776
 331  1382.155
 332  1531.478
 333  1509.251
 334  1401.683
 335  1412.973
 336  1370.554
 337  1429.646
 338  1458.341
 339  1537.618
 340  1516.772
 341  1417.337
 342  1468.072
 343  1523.181
 344  1485.09
 345  1416.129
 346  1573.219
 347  1621.435
 348  1442.419
 349  1354.383
 350  1388.677
 351  1511.467
 352  1345.486
 353  1355.602
 354  1462.188
 355  1480.4
 356  1431.885
 357  1565.933
 358  1500.291
 359  1385.562
 360  1549.615
 361  1586.368
 362  1488.353
 363  1495.098
 364  1445.418
 365  1495.634
 366  1447.021
 367  1473.017
 368  1557.324
 369  1517.049
 370  1446.259
 371  1463.783
 372  1410.925
 373  1338.597
 374  1291.857
 375  1388.057
 376  1448.003
 377  1411.703
 378  1422.771
 379  1481.021
 380  1448.347
 381  1416.041
 382  1457.912
 383  1451.319
 384  1500.376
 385  1520.66
 386  1558.846
 387  1562.422
 388  1457.492
 389  1393.016
 390  1461.967
 391  1416.628
 392  1373.686
 393  1481.42
 394  1545.358
 395  1568.437
 396  1605.357
 397  1507.647
 398  1497.972
 399  1527.719
 400  1533.824
 401  1513.877
 402  1479.6
 403  1580.017
 404  1466.199
 405  1398.729
 406  1412.874
 407  1499.224
 408  1565.998
 409  1517.418
 410  1506.604
 411  1398.287
 412  1395.003
 413  1422.612
 414  1503.575
 415  1475.763
 416  1483.794
 417  1489.395
 418  1595.497
 419  1568.292
 420  1482.632
 421  1567.137
 422  1692.441
 423  1545.826
 424  1492.062
 425  1398.285
 426  1469.073
 427  1576.136
 428  1606.761
 429  1604.046
 430  1505.632
 431  1506.255
 432  1575.566
 433  1640.764
 434  1546.802
 435  1478.316
 436  1384.402
 437  1497.305
 438  1498.445
 439  1439.084
 440  1519.979
 441  1461.751
 442  1504.298
 443  1561.192
 444  1512.101
 445  1385.13
 446  1433.171
 447  1478.94
 448  1425.85
 449  1309.734
 450  1375.889
 451  1503.334
 452  1502.64
 453  1509.048
 454  1493.051
 455  1455.567
 456  1443.807
 457  1432.063
 458  1410.087
 459  1432.126
 460  1477.196
 461  1405.728
 462  1325.922
 463  1368.965
 464  1510.385
 465  1488.798
 466  1559.204
 467  1471.057
 468  1376.11
 469  1474.522
 470  1490.188
 471  1523.845
 472  1545.228
 473  1523.839
 474  1553.027
 475  1525.236
 476  1534.61
 477  1501.26
 478  1463.075
 479  1518.602
 480  1571.224
 481  1561.887
 482  1557.069
 483  1581.222
 484  1465.076
 485  1385.346
 486  1427.073
 487  1434.895
 488  1536.826
 489  1485.455
 490  1409.379
 491  1375.221
 492  1416.117
 493  1476.186
 494  1500.365
 495  1478.901
 496  1575.756
 497  1549.824
 498  1413.586
 499  1394.033
 500  1424.439
 501  1516.182
 502  1612.738
 503  1626.557
 504  1550.001
 505  1504.097
 506  1557.481
 507  1555.786
 508  1644.443
 509  1563.672
 510  1661.143
 511  1714.055
