# Input file       =  1200083424.112911_cleaned.dat
# Candidate        =  PSR_0332+5434
# Telescope        =  AR
# Epoch_topo       =  58133.854237417952
# Epoch_bary       =  N/A
# T_sample         =  0.002
# Data Folded      =  7340032
# Data Avg         =  0.0432346057255522
# Data StdDev      =  1.00020667165905 
# Profile Bins     =  512
# Profile Avg      =  619.832757186669 
# Profile StdDev   =  119.757781802038 
# Reduced chi-sqr  =  0.937
# Prob(Noise)      <  0.845   (~0.0 sigma)
# P_topo (ms)      =  714.567488677084  +/- 0.000326
# P'_topo (s/s)    =  -0                +/- 1.72e-10
# P''_topo (s/s^2) =  0                 +/- 7.59e-14
# P_bary (ms)      =  N/A
# P'_bary (s/s)    =  N/A
# P''_bary (s/s^2) =  N/A
# P_orb (s)        =  N/A
# asin(i)/c (s)    =  N/A
# eccentricity     =  N/A
# w (rad)          =  N/A
# T_peri           =  N/A
######################################################
   0  1165.229
   1  1087.226
   2  913.8754
   3  764.9367
   4  670.1816
   5  626.2793
   6  632.8456
   7  770.1893
   8  686.1863
   9  697.8953
  10  744.1311
  11  656.2714
  12  696.6244
  13  674.9927
  14  625.8851
  15  585.8157
  16  650.4174
  17  636.6653
  18  669.2787
  19  652.6326
  20  562.6194
  21  565.5322
  22  525.3837
  23  429.2266
  24  469.1493
  25  554.9179
  26  548.4726
  27  516.9149
  28  606.2734
  29  665.9069
  30  699.7326
  31  602.0562
  32  609.4649
  33  560.8376
  34  607.9183
  35  665.5478
  36  616.3297
  37  573.1644
  38  520.8004
  39  488.1924
  40  513.7066
  41  573.2754
  42  565.8027
  43  595.4346
  44  656.194
  45  701.1191
  46  702.5016
  47  641.4266
  48  546.1014
  49  556.3836
  50  611.375
  51  640.0486
  52  581.8384
  53  706.2134
  54  646.2488
  55  644.0443
  56  609.7941
  57  566.9067
  58  595.3489
  59  640.1582
  60  553.1533
  61  466.6245
  62  585.0222
  63  567.0168
  64  518.6482
  65  414.3601
  66  556.3415
  67  528.9776
  68  618.2083
  69  515.8233
  70  481.9604
  71  498.3891
  72  466.9092
  73  569.4211
  74  605.193
  75  639.3455
  76  657.1573
  77  644.0697
  78  697.9316
  79  665.4971
  80  634.6899
  81  723.3939
  82  656.7942
  83  565.5084
  84  643.4429
  85  776.925
  86  650.6621
  87  545.1335
  88  563.4501
  89  591.4116
  90  609.1383
  91  728.5559
  92  727.2616
  93  608.6777
  94  522.3693
  95  569.719
  96  518.5585
  97  567.3607
  98  557.751
  99  579.5464
 100  599.8806
 101  640.7042
 102  699.278
 103  661.457
 104  603.274
 105  581.0198
 106  620.0021
 107  586.2281
 108  608.2469
 109  582.4568
 110  606.8378
 111  583.6606
 112  533.0652
 113  592.9765
 114  601.0161
 115  577.5287
 116  665.8021
 117  620.7377
 118  554.1932
 119  541.4532
 120  585.6424
 121  534.7886
 122  456.2622
 123  537.009
 124  555.9036
 125  575.8123
 126  687.363
 127  657.3204
 128  591.6193
 129  505.6702
 130  546.8568
 131  580.5562
 132  646.8997
 133  618.0906
 134  622.7968
 135  606.7531
 136  533.6942
 137  664.1416
 138  580.4914
 139  660.7676
 140  674.2772
 141  593.1057
 142  580.0035
 143  645.9379
 144  742.4774
 145  682.381
 146  575.0762
 147  521.0104
 148  580.6489
 149  678.6302
 150  777.9634
 151  609.8105
 152  585.7392
 153  575.3345
 154  673.7083
 155  588.0425
 156  536.9968
 157  631.9053
 158  615.1902
 159  540.1349
 160  540.5854
 161  585.5899
 162  538.5524
 163  630.6405
 164  670.3982
 165  655.2064
 166  664.1571
 167  544.8697
 168  481.7099
 169  630.155
 170  657.2086
 171  604.1832
 172  597.0909
 173  606.5793
 174  542.1038
 175  605.2616
 176  631.1196
 177  673.3915
 178  768.6763
 179  660.8235
 180  596.2737
 181  551.3043
 182  620.2791
 183  703.3476
 184  721.9465
 185  639.7147
 186  645.3875
 187  622.5241
 188  712.8282
 189  606.5096
 190  623.9817
 191  620.0953
 192  613.5212
 193  737.5044
 194  692.174
 195  654.3194
 196  613.3386
 197  673.9073
 198  673.4656
 199  607.6604
 200  661.4151
 201  645.1511
 202  587.8843
 203  609.9342
 204  632.1609
 205  604.8353
 206  476.6364
 207  548.8217
 208  544.2003
 209  550.7856
 210  508.3376
 211  563.1517
 212  584.3287
 213  567.5414
 214  569.4929
 215  598.0089
 216  491.1303
 217  464.7921
 218  585.8113
 219  552.9298
 220  486.3145
 221  618.2166
 222  677.5641
 223  647.0164
 224  654.0476
 225  566.2903
 226  596.4614
 227  702.2265
 228  649.6558
 229  657.2124
 230  674.587
 231  577.5772
 232  677.0048
 233  666.0276
 234  603.98
 235  627.0931
 236  536.0417
 237  616.9974
 238  642.5925
 239  589.2216
 240  631.6808
 241  663.3837
 242  688.884
 243  713.9657
 244  683.1041
 245  660.3474
 246  625.9143
 247  715.418
 248  701.932
 249  642.6755
 250  737.7878
 251  679.5043
 252  669.5678
 253  714.1322
 254  653.2761
 255  593.0505
 256  534.39
 257  599.9733
 258  550.7703
 259  616.994
 260  671.745
 261  564.7341
 262  553.7635
 263  577.4498
 264  626.1292
 265  642.9778
 266  549.6053
 267  565.092
 268  571.0358
 269  645.1387
 270  569.5201
 271  602.5999
 272  704.1212
 273  809.2796
 274  742.7996
 275  545.4992
 276  528.3218
 277  546.8277
 278  580.7041
 279  601.845
 280  635.7477
 281  707.4716
 282  709.8949
 283  589.428
 284  576.2201
 285  613.8999
 286  522.4448
 287  539.4353
 288  596.1503
 289  587.0836
 290  509.4566
 291  557.0286
 292  614.7897
 293  621.5678
 294  558.3117
 295  500.8203
 296  416.5267
 297  522.5489
 298  582.6097
 299  545.999
 300  626.3797
 301  586.088
 302  650.0463
 303  579.1885
 304  632.3434
 305  584.0824
 306  522.3618
 307  613.4622
 308  606.8374
 309  635.5541
 310  744.2244
 311  603.028
 312  597.3246
 313  659.9424
 314  617.3651
 315  601.7925
 316  569.3403
 317  606.1799
 318  700.5682
 319  662.9561
 320  717.1351
 321  722.884
 322  549.7045
 323  609.3135
 324  630.2888
 325  596.7253
 326  623.2887
 327  638.2215
 328  624.0401
 329  639.2652
 330  662.4856
 331  591.8846
 332  583.2024
 333  548.5203
 334  627.2173
 335  669.8126
 336  595.5675
 337  536.0697
 338  544.5195
 339  595.34
 340  582.5098
 341  634.0139
 342  580.336
 343  619.6297
 344  599.0873
 345  569.8372
 346  626.8881
 347  658.692
 348  620.8628
 349  564.0679
 350  666.5538
 351  785.7543
 352  649.7973
 353  683.0994
 354  689.6983
 355  664.8985
 356  613.4634
 357  677.5251
 358  709.6791
 359  837.4952
 360  697.9837
 361  733.3414
 362  702.6786
 363  688.189
 364  647.8242
 365  626.4514
 366  677.1646
 367  684.3017
 368  776.0176
 369  723.4106
 370  678.8403
 371  539.1236
 372  577.9499
 373  674.8589
 374  742.9262
 375  751.6526
 376  764.9439
 377  657.2734
 378  636.3219
 379  559.894
 380  548.3669
 381  610.6006
 382  634.397
 383  618.4088
 384  583.3593
 385  523.8783
 386  673.3853
 387  537.2339
 388  556.6937
 389  543.8278
 390  518.5948
 391  592.1495
 392  632.0193
 393  575.2088
 394  601.3239
 395  488.1594
 396  497.9686
 397  471.299
 398  509.4377
 399  512.2581
 400  666.5905
 401  618.7784
 402  548.4606
 403  550.3876
 404  530.2079
 405  571.0283
 406  513.3044
 407  575.3243
 408  601.6006
 409  584.9786
 410  613.6891
 411  590.0302
 412  627.7762
 413  644.0095
 414  644.1714
 415  662.3462
 416  613.1285
 417  526.6456
 418  589.7085
 419  496.1363
 420  597.5229
 421  589.5666
 422  503.0289
 423  445.642
 424  545.0624
 425  569.598
 426  568.9767
 427  555.3848
 428  627.8223
 429  729.2568
 430  670.6609
 431  747.4981
 432  736.4914
 433  635.1976
 434  623.8273
 435  633.4882
 436  603.6949
 437  630.1163
 438  613.0679
 439  674.2573
 440  646.2761
 441  648.0285
 442  770.1514
 443  746.898
 444  680.9532
 445  713.5875
 446  714.3801
 447  706.0479
 448  658.683
 449  744.2007
 450  794.0092
 451  653.778
 452  514.9918
 453  605.8969
 454  615.5513
 455  574.6885
 456  693.684
 457  616.3147
 458  519.8297
 459  555.585
 460  650.8591
 461  479.8787
 462  566.5579
 463  680.291
 464  700.2373
 465  775.015
 466  630.4575
 467  673.082
 468  627.6354
 469  619.1953
 470  605.5906
 471  612.7297
 472  704.3032
 473  679.0135
 474  756.919
 475  675.6981
 476  754.8607
 477  600.5285
 478  531.3675
 479  478.5405
 480  569.0728
 481  632.8514
 482  613.0556
 483  543.3252
 484  532.7042
 485  522.4425
 486  515.7957
 487  484.3557
 488  467.8468
 489  570.8953
 490  613.8058
 491  671.6016
 492  664.285
 493  615.0706
 494  675.0167
 495  643.5284
 496  587.6891
 497  652.2591
 498  545.8884
 499  563.7134
 500  725.0894
 501  675.7236
 502  634.0403
 503  654.069
 504  556.7136
 505  709.2527
 506  705.6931
 507  689.7693
 508  763.4619
 509  890.65
 510  1051.887
 511  1147.706
