# Input file       =  1200757855.109703_cleaned.dat
# Candidate        =  PSR_0332+5434
# Telescope        =  AR
# Epoch_topo       =  58141.660151732671
# Epoch_bary       =  N/A
# T_sample         =  0.002
# Data Folded      =  7340032
# Data Avg         =  0.0661709039604557
# Data StdDev      =  1.0002259141203  
# Profile Bins     =  512
# Profile Avg      =  948.63101686382  
# Profile StdDev   =  119.760085760351 
# Reduced chi-sqr  =  0.881
# Prob(Noise)      <  0.975   (~0.0 sigma)
# P_topo (ms)      =  714.57191819476   +/- 0.000234
# P'_topo (s/s)    =  -0                +/- 1.23e-10
# P''_topo (s/s^2) =  0                 +/- 5.44e-14
# P_bary (ms)      =  N/A
# P'_bary (s/s)    =  N/A
# P''_bary (s/s^2) =  N/A
# P_orb (s)        =  N/A
# asin(i)/c (s)    =  N/A
# eccentricity     =  N/A
# w (rad)          =  N/A
# T_peri           =  N/A
######################################################
   0  1335.677
   1  1436.722
   2  1259.475
   3  1044.867
   4  984.8755
   5  997.2728
   6  913.9944
   7  965.4386
   8  936.874
   9  961.5969
  10  1031.412
  11  1043.584
  12  1000.476
  13  1009.166
  14  1050.785
  15  903.0613
  16  887.6152
  17  960.1373
  18  926.0691
  19  857.6629
  20  842.6689
  21  867.3458
  22  877.0297
  23  820.188
  24  917.8365
  25  985.1799
  26  979.9931
  27  963.6641
  28  923.36
  29  993.0608
  30  1002.589
  31  975.4861
  32  938.5381
  33  973.6805
  34  916.3938
  35  825.5758
  36  777.6932
  37  883.2375
  38  887.0819
  39  833.7126
  40  856.9258
  41  918.811
  42  915.1846
  43  945.5801
  44  910.9662
  45  817.9116
  46  934.5832
  47  964.3724
  48  953.7951
  49  1012.729
  50  1032.286
  51  1058.526
  52  1038.838
  53  1013.786
  54  905.0885
  55  831.4164
  56  1012.708
  57  1082.25
  58  1050.112
  59  1041.484
  60  1020.282
  61  879.1085
  62  859.8026
  63  876.84
  64  778.7782
  65  837.5983
  66  869.6022
  67  903.2999
  68  943.8029
  69  997.2836
  70  926.1083
  71  1014.56
  72  1045.994
  73  960.4656
  74  949.3836
  75  1087.777
  76  1023.546
  77  1021.252
  78  1046.446
  79  857.2876
  80  909.7582
  81  949.9178
  82  955.3918
  83  902.616
  84  922.5881
  85  948.3995
  86  948.998
  87  928.8788
  88  935.3423
  89  890.8475
  90  910.3215
  91  894.6684
  92  943.4602
  93  1000.639
  94  1025.87
  95  936.4214
  96  921.116
  97  996.1581
  98  949.3504
  99  962.7865
 100  992.4765
 101  981.2631
 102  924.8994
 103  826.3248
 104  864.4333
 105  908.2245
 106  912.4712
 107  921.2644
 108  888.431
 109  973.6537
 110  1049.671
 111  967.8785
 112  957.1057
 113  1009.883
 114  982.3682
 115  960.8735
 116  974.3398
 117  907.0588
 118  909.5346
 119  977.7487
 120  1007.557
 121  922.6619
 122  978.6425
 123  1083.433
 124  1064.004
 125  1025.534
 126  988.546
 127  1019.066
 128  935.6536
 129  995.4648
 130  1006.868
 131  907.9384
 132  932.4142
 133  924.407
 134  995.2273
 135  985.9367
 136  916.364
 137  879.4689
 138  910.2168
 139  952.8653
 140  923.5309
 141  958.3497
 142  967.1136
 143  931.828
 144  1014.996
 145  945.9261
 146  858.1837
 147  818.4551
 148  985.7936
 149  1001.74
 150  957.7206
 151  955.9516
 152  1005.408
 153  1035.211
 154  971.8854
 155  935.5505
 156  915.7671
 157  965.3514
 158  942.111
 159  892.6619
 160  874.3253
 161  924.1843
 162  964.6455
 163  948.1234
 164  865.7804
 165  907.5396
 166  988.3708
 167  944.3189
 168  1011.91
 169  968.6622
 170  990.6905
 171  1003.3
 172  987.072
 173  997.4407
 174  997.2866
 175  1008.815
 176  908.3317
 177  850.7797
 178  860.954
 179  925.8836
 180  977.5958
 181  1048.206
 182  1184.304
 183  1123.629
 184  1155.804
 185  1038.774
 186  1009.703
 187  974.2819
 188  933.2841
 189  928.1429
 190  979.8255
 191  1032.004
 192  1003.194
 193  990.3658
 194  1026.624
 195  966.9788
 196  966.0633
 197  967.3431
 198  1050.983
 199  1084.545
 200  990.3204
 201  1013.341
 202  1029.513
 203  1013.427
 204  1019.738
 205  1046.697
 206  1000.916
 207  938.2142
 208  940.4178
 209  956.3918
 210  822.347
 211  877.4101
 212  985.1196
 213  1031.989
 214  1030.716
 215  1011.377
 216  997.4302
 217  1100.011
 218  1010.557
 219  892.9937
 220  868.1334
 221  826.5162
 222  770.7261
 223  818.5415
 224  819.192
 225  801.5239
 226  872.4658
 227  984.4581
 228  917.1912
 229  867.1422
 230  874.9524
 231  930.2098
 232  928.5057
 233  975.5893
 234  997.3715
 235  897.3983
 236  916.6058
 237  987.5821
 238  941.7322
 239  961.0137
 240  932.6947
 241  903.9507
 242  918.8847
 243  948.4899
 244  988.9853
 245  891.2425
 246  996.9875
 247  982.512
 248  908.5566
 249  906.9744
 250  1007.538
 251  1054.857
 252  1028.45
 253  1007.585
 254  1036.623
 255  1055.448
 256  1041.928
 257  1063.885
 258  1049.089
 259  1050.441
 260  1061.217
 261  955.9579
 262  949.7284
 263  1041.783
 264  966.5265
 265  920.3335
 266  921.6371
 267  948.8073
 268  867.8841
 269  1030.044
 270  1051.898
 271  936.1754
 272  882.3198
 273  1003.005
 274  989.0593
 275  991.9697
 276  1099.853
 277  1032.733
 278  1031.243
 279  985.998
 280  1000.154
 281  1002.293
 282  1011.91
 283  1080.579
 284  1088.529
 285  938.1992
 286  876.6562
 287  906.9345
 288  1089.798
 289  1098.272
 290  931.2754
 291  1009.288
 292  933.3325
 293  940.2812
 294  993.5266
 295  1015.177
 296  1025.235
 297  1052.142
 298  1001.033
 299  893.403
 300  880.8894
 301  930.8244
 302  968.5531
 303  1060.551
 304  979.994
 305  1009.608
 306  1034.573
 307  970.666
 308  1091.084
 309  1048.702
 310  989.4382
 311  979.1968
 312  1050.239
 313  1069.978
 314  1014.681
 315  1006.743
 316  1024.341
 317  1042.16
 318  946.9102
 319  990.805
 320  898.0895
 321  871.7005
 322  877.091
 323  1017.354
 324  997.2647
 325  1022.497
 326  993.6303
 327  1060.091
 328  1011.703
 329  964.7845
 330  932.7411
 331  919.1913
 332  894.3978
 333  933.9665
 334  926.0356
 335  819.8721
 336  900.9781
 337  942.9288
 338  995.4679
 339  898.7155
 340  984.4458
 341  991.8167
 342  950.8441
 343  901.4824
 344  871.261
 345  881.5374
 346  981.0735
 347  1019.413
 348  1010.43
 349  853.1987
 350  878.9355
 351  947.1471
 352  955.8351
 353  907.1567
 354  950.6542
 355  1073.047
 356  1019.869
 357  1030.168
 358  986.104
 359  978.8532
 360  896.7415
 361  910.1869
 362  1029.244
 363  931.8831
 364  925.2865
 365  875.1445
 366  932.9662
 367  951.1995
 368  880.1116
 369  835.9805
 370  866.2673
 371  859.8948
 372  945.1306
 373  926.8617
 374  878.0852
 375  833.9188
 376  902.3594
 377  920.5587
 378  926.9348
 379  932.2766
 380  929.8293
 381  906.012
 382  903.6909
 383  999.3658
 384  1047.813
 385  1032.341
 386  929.4232
 387  927.7812
 388  979.8676
 389  960.2315
 390  984.21
 391  1006.582
 392  946.3606
 393  895.9716
 394  873.9265
 395  790.7567
 396  782.0026
 397  902.4869
 398  920.3719
 399  867.1611
 400  907.7582
 401  940.4886
 402  942.8326
 403  948.35
 404  974.3124
 405  883.2054
 406  899.8066
 407  870.1244
 408  790.6617
 409  759.9443
 410  860.7271
 411  937.554
 412  964.7479
 413  933.7327
 414  920.2445
 415  976.8592
 416  890.8018
 417  882.8312
 418  956.3096
 419  953.8566
 420  914.6158
 421  866.4174
 422  830.1358
 423  815.4842
 424  873.1376
 425  807.5145
 426  806.7906
 427  951.5269
 428  888.137
 429  842.581
 430  949.9709
 431  873.8217
 432  899.8544
 433  805.8685
 434  824.8982
 435  859.5704
 436  932.8407
 437  840.021
 438  792.3099
 439  862.4531
 440  844.236
 441  910.6177
 442  865.0955
 443  785.4089
 444  903.1567
 445  1013.68
 446  840.145
 447  832.6129
 448  872.2833
 449  919.7614
 450  869.2189
 451  821.3773
 452  886.4045
 453  948.601
 454  1014.284
 455  920.4229
 456  900.2906
 457  1045.939
 458  978.5622
 459  884.7012
 460  850.2752
 461  911.7314
 462  868.9908
 463  1046.524
 464  923.0876
 465  905.6556
 466  923.2634
 467  975.0066
 468  911.8616
 469  918.2412
 470  915.9861
 471  934.6461
 472  927.6981
 473  860.3354
 474  885.8076
 475  883.6689
 476  835.1674
 477  884.8254
 478  939.5575
 479  915.0786
 480  992.1573
 481  960.956
 482  892.9985
 483  732.069
 484  855.3878
 485  994.6304
 486  993.7444
 487  858.7091
 488  875.1238
 489  852.7334
 490  800.4332
 491  891.8643
 492  813.0551
 493  905.6154
 494  873.1818
 495  889.9099
 496  851.622
 497  812.5718
 498  824.4163
 499  827.2152
 500  868.7043
 501  846.139
 502  862.0403
 503  873.8322
 504  927.462
 505  1002.209
 506  1061.037
 507  978.3885
 508  1029.626
 509  1141.311
 510  1241.679
 511  1377.979
