# Input file       =  1200585540.105412_cleaned.dat
# Candidate        =  PSR_0332+5434
# Telescope        =  AR
# Epoch_topo       =  58139.665765108934
# Epoch_bary       =  N/A
# T_sample         =  0.002
# Data Folded      =  7340032
# Data Avg         =  0.0617995608627213
# Data StdDev      =  1.00012896078148 
# Profile Bins     =  512
# Profile Avg      =  885.809751080443 
# Profile StdDev   =  119.748477242706 
# Reduced chi-sqr  =  1.024
# Prob(Noise)      <  0.343   (~0.4 sigma)
# P_topo (ms)      =  714.570795369632  +/- 0.000279
# P'_topo (s/s)    =  -0                +/- 1.47e-10
# P''_topo (s/s^2) =  0                 +/- 6.5e-14
# P_bary (ms)      =  N/A
# P'_bary (s/s)    =  N/A
# P''_bary (s/s^2) =  N/A
# P_orb (s)        =  N/A
# asin(i)/c (s)    =  N/A
# eccentricity     =  N/A
# w (rad)          =  N/A
# T_peri           =  N/A
######################################################
   0  1417.264
   1  1354.885
   2  1263.474
   3  1108.893
   4  890.8884
   5  802.4075
   6  844.2125
   7  796.326
   8  765.3933
   9  752.2292
  10  845.1982
  11  890.9573
  12  930.1975
  13  836.8862
  14  827.511
  15  954.97
  16  906.9451
  17  1011.438
  18  883.1174
  19  863.8525
  20  935.5085
  21  876.9638
  22  840.8652
  23  850.1357
  24  867.9078
  25  808.2463
  26  864.8569
  27  881.0966
  28  843.9252
  29  858.4479
  30  814.1704
  31  937.6603
  32  942.5793
  33  938.3334
  34  830.082
  35  912.872
  36  943.649
  37  846.4131
  38  882.777
  39  895.8289
  40  883.5645
  41  929.3131
  42  999.9753
  43  965.7141
  44  881.8479
  45  871.9136
  46  916.9958
  47  914.6739
  48  1003.649
  49  1025.518
  50  979.1714
  51  930.5866
  52  860.5592
  53  864.7985
  54  866.5665
  55  946.8219
  56  909.9579
  57  861.4722
  58  908.856
  59  947.1465
  60  934.495
  61  860.1666
  62  926.2968
  63  985.3184
  64  959.5024
  65  887.463
  66  905.3568
  67  957.0165
  68  977.4146
  69  1006.105
  70  875.4346
  71  894.0947
  72  813.4729
  73  752.2932
  74  730.9964
  75  785.081
  76  931.7389
  77  928.5865
  78  1017.477
  79  874.5077
  80  942.5632
  81  954.4433
  82  969.5665
  83  936.0885
  84  980.5419
  85  1025.079
  86  994.3018
  87  1054.486
  88  1037.477
  89  1008.486
  90  946.3228
  91  1031.018
  92  1063.501
  93  971.8351
  94  940.0255
  95  940.232
  96  1084.666
  97  1056.54
  98  881.2314
  99  855.7308
 100  866.9909
 101  817.2426
 102  874.745
 103  868.7632
 104  870.2814
 105  879.8004
 106  883.6617
 107  892.6782
 108  960.8762
 109  926.517
 110  972.6652
 111  957.598
 112  927.074
 113  947.0099
 114  955.6213
 115  959.6965
 116  974.2073
 117  961.3535
 118  916.0822
 119  898.8995
 120  870.9954
 121  860.7969
 122  908.4741
 123  886.6362
 124  745.0488
 125  829.5091
 126  940.8593
 127  1018.017
 128  910.4253
 129  969.649
 130  921.1493
 131  867.7909
 132  868.8204
 133  874.2892
 134  874.063
 135  921.0948
 136  949.0192
 137  905.4367
 138  865.7077
 139  989.5318
 140  963.3046
 141  895.9871
 142  815.468
 143  849.0121
 144  932.4036
 145  797.9675
 146  853.7923
 147  879.7615
 148  925.0143
 149  966.6541
 150  1005.696
 151  898.0774
 152  867.4807
 153  868.803
 154  889.5194
 155  863.4088
 156  837.5659
 157  943.3416
 158  865.5782
 159  924.6261
 160  931.4254
 161  842.2574
 162  726.488
 163  819.4547
 164  916.2763
 165  856.1619
 166  841.8055
 167  912.9239
 168  883.0749
 169  782.2125
 170  793.6743
 171  842.208
 172  894.5369
 173  941.0873
 174  741.39
 175  802.676
 176  836.7895
 177  816.144
 178  774.8198
 179  743.3003
 180  782.538
 181  805.3696
 182  928.9603
 183  921.2197
 184  871.9089
 185  764.6238
 186  777.7781
 187  816.4955
 188  845.8488
 189  873.3621
 190  828.7082
 191  819.4022
 192  818.0598
 193  872.2823
 194  802.898
 195  854.1988
 196  862.8525
 197  854.074
 198  862.4111
 199  809.5037
 200  876.0533
 201  816.1013
 202  914.559
 203  912.3957
 204  779.9424
 205  667.473
 206  752.6137
 207  842.5539
 208  899.674
 209  843.8925
 210  790.0522
 211  749.0588
 212  689.2676
 213  695.7449
 214  717.0804
 215  746.0424
 216  769.9513
 217  728.7879
 218  753.6779
 219  746.7375
 220  709.9426
 221  693.9344
 222  648.9752
 223  686.3522
 224  769.061
 225  867.2047
 226  901.1262
 227  946.6985
 228  897.6144
 229  744.8277
 230  765.6652
 231  778.3594
 232  827.4108
 233  798.6474
 234  908.2924
 235  846.4658
 236  808.6735
 237  881.4828
 238  936.3904
 239  976.8044
 240  921.1989
 241  858.7618
 242  874.856
 243  896.6115
 244  781.9915
 245  801.6323
 246  952.8857
 247  906.5891
 248  847.0627
 249  910.9942
 250  880.5034
 251  781.9011
 252  872.3001
 253  967.5045
 254  999.5527
 255  1012.658
 256  928.035
 257  929.0364
 258  985.7424
 259  993.1099
 260  1023.282
 261  1036.206
 262  924.5037
 263  943.3724
 264  958.4729
 265  877.5716
 266  910.9163
 267  892.0174
 268  857.952
 269  902.1692
 270  988.8113
 271  969.6295
 272  822.8508
 273  868.5704
 274  850.6977
 275  887.6601
 276  839.9244
 277  824.2266
 278  861.5367
 279  907.9023
 280  927.7369
 281  820.91
 282  818.2419
 283  805.6824
 284  854.2373
 285  826.8679
 286  881.0551
 287  906.213
 288  985.0788
 289  975.6715
 290  863.3783
 291  909.434
 292  1032.799
 293  866.3818
 294  865.9362
 295  1005.401
 296  936.9626
 297  869.9595
 298  816.6824
 299  964.6298
 300  991.6873
 301  962.4191
 302  910.436
 303  802.142
 304  851.9362
 305  857.685
 306  776.1266
 307  865.8618
 308  841.9203
 309  856.0189
 310  859.3197
 311  858.6498
 312  890.9922
 313  929.9005
 314  955.5573
 315  862.6838
 316  848.3946
 317  846.0989
 318  915.3972
 319  929.2094
 320  953.4927
 321  899.4008
 322  884.8727
 323  858.4392
 324  790.2034
 325  865.0041
 326  857.3169
 327  855.8099
 328  874.6766
 329  784.2236
 330  689.0621
 331  737.2505
 332  882.9906
 333  827.0999
 334  836.9856
 335  836.4559
 336  782.3133
 337  735.3056
 338  803.1641
 339  766.7753
 340  718.2397
 341  706.5407
 342  655.9631
 343  664.9064
 344  691.8127
 345  754.0948
 346  726.2693
 347  754.4362
 348  691.4474
 349  803.6318
 350  907.7704
 351  873.1713
 352  830.4146
 353  758.8559
 354  850.6702
 355  888.2147
 356  832.6557
 357  976.8556
 358  899.2298
 359  883.5009
 360  886.9667
 361  901.9733
 362  799.7279
 363  827.9249
 364  860.6088
 365  797.9271
 366  839.7462
 367  867.396
 368  906.457
 369  768.1564
 370  718.638
 371  837.4824
 372  889.4578
 373  883.5803
 374  889.2285
 375  864.2084
 376  915.9216
 377  935.1016
 378  829.574
 379  832.5854
 380  872.0105
 381  887.6192
 382  897.6626
 383  918.8108
 384  944.7327
 385  847.9578
 386  935.2513
 387  938.8618
 388  955.5576
 389  819.413
 390  934.1827
 391  931.7698
 392  845.7557
 393  966.6912
 394  1020.244
 395  974.6758
 396  896.9612
 397  902.8386
 398  965.417
 399  1010.224
 400  995.0036
 401  1004.42
 402  926.0342
 403  910.0568
 404  854.1471
 405  799.8875
 406  827.7997
 407  864.0362
 408  963.8146
 409  859.3629
 410  735.5875
 411  811.5657
 412  943.8358
 413  907.1575
 414  837.3778
 415  911.3044
 416  880.6332
 417  931.2339
 418  987.1935
 419  861.5421
 420  921.2822
 421  909.9308
 422  957.1334
 423  967.4294
 424  985.2652
 425  1035.775
 426  922.4666
 427  912.093
 428  871.3712
 429  881.919
 430  830.2672
 431  846.6161
 432  865.7866
 433  914.5358
 434  838.7095
 435  799.078
 436  955.6424
 437  855.9437
 438  781.2561
 439  824.1414
 440  813.0469
 441  830.7355
 442  945.9095
 443  1052.356
 444  930.7447
 445  857.5832
 446  857.6111
 447  838.4263
 448  776.5856
 449  877.1171
 450  931.6537
 451  931.4195
 452  928.0245
 453  940.2466
 454  1069.073
 455  1032.778
 456  989.7939
 457  988.6083
 458  953.5461
 459  929.2507
 460  833.6169
 461  829.0026
 462  945.5261
 463  908.2247
 464  864.8652
 465  947.276
 466  983.092
 467  945.4143
 468  816.9327
 469  836.9507
 470  868.9649
 471  923.9084
 472  987.567
 473  912.6329
 474  981.0637
 475  948.9191
 476  864.8203
 477  831.7343
 478  791.3618
 479  942.6954
 480  996.3685
 481  1001.799
 482  935.2391
 483  858.7665
 484  839.965
 485  905.2607
 486  898.7042
 487  853.8381
 488  768.3223
 489  806.3157
 490  897.5574
 491  960.9022
 492  945.3812
 493  875.1526
 494  920.9646
 495  1050.891
 496  811.4364
 497  818.7384
 498  855.2556
 499  861.4919
 500  927.6454
 501  983.088
 502  898.2386
 503  826.9094
 504  930.1259
 505  987.4352
 506  891.7303
 507  798.7394
 508  876.6722
 509  981.348
 510  1074.98
 511  1307.142
