# Input file       =  1200600452.101729_cleaned.dat
# Candidate        =  PSR_0332+5434
# Telescope        =  AR
# Epoch_topo       =  58139.838357658897
# Epoch_bary       =  N/A
# T_sample         =  0.002
# Data Folded      =  7340032
# Data Avg         =  0.0955435072501995
# Data StdDev      =  1.00030698990112 
# Profile Bins     =  512
# Profile Avg      =  1369.65013798895 
# Profile StdDev   =  119.769793209764 
# Reduced chi-sqr  =  0.859
# Prob(Noise)      <  0.991   (~0.0 sigma)
# P_topo (ms)      =  714.571230186921  +/- 5.82e-05
# P'_topo (s/s)    =  -0                +/- 3.07e-11
# P''_topo (s/s^2) =  0                 +/- 1.35e-14
# P_bary (ms)      =  N/A
# P'_bary (s/s)    =  N/A
# P''_bary (s/s^2) =  N/A
# P_orb (s)        =  N/A
# asin(i)/c (s)    =  N/A
# eccentricity     =  N/A
# w (rad)          =  N/A
# T_peri           =  N/A
######################################################
   0  1682.289
   1  1681.114
   2  1649.635
   3  1521.226
   4  1410.591
   5  1394.165
   6  1340.088
   7  1298.061
   8  1384.314
   9  1364.067
  10  1367.845
  11  1430.795
  12  1337.925
  13  1299.06
  14  1277.131
  15  1371.314
  16  1344.869
  17  1362.675
  18  1339.951
  19  1298.996
  20  1319.743
  21  1275.556
  22  1334.024
  23  1448.43
  24  1523.704
  25  1503.99
  26  1404.019
  27  1426.589
  28  1479.791
  29  1436.391
  30  1448.059
  31  1511.033
  32  1407.305
  33  1424.5
  34  1582.823
  35  1550.561
  36  1555.588
  37  1502.129
  38  1439.129
  39  1396.291
  40  1427.169
  41  1332.454
  42  1331.749
  43  1283.776
  44  1290.695
  45  1343.935
  46  1299.335
  47  1313.273
  48  1322.942
  49  1322.888
  50  1351.364
  51  1430.651
  52  1384.321
  53  1456.556
  54  1364.714
  55  1450.082
  56  1504.922
  57  1392.869
  58  1387.778
  59  1273.972
  60  1269.197
  61  1322.822
  62  1365.975
  63  1336.276
  64  1339.114
  65  1403.471
  66  1345.315
  67  1359.941
  68  1347.279
  69  1365.792
  70  1376.42
  71  1327.326
  72  1305.315
  73  1401.396
  74  1425.239
  75  1410.078
  76  1344.21
  77  1229.823
  78  1224.756
  79  1281.614
  80  1322.927
  81  1350.793
  82  1270.882
  83  1315.481
  84  1387.131
  85  1341.174
  86  1315.536
  87  1325.988
  88  1256.81
  89  1263.125
  90  1410.596
  91  1453.123
  92  1363.359
  93  1303.151
  94  1487.652
  95  1501.213
  96  1514.872
  97  1392.474
  98  1380.126
  99  1417.848
 100  1416.563
 101  1471.53
 102  1552.637
 103  1499.023
 104  1441.036
 105  1445.923
 106  1449.145
 107  1415.673
 108  1413.105
 109  1389.179
 110  1343.472
 111  1316.69
 112  1383.781
 113  1446.424
 114  1424.468
 115  1337.331
 116  1306.49
 117  1330.319
 118  1378.157
 119  1350.407
 120  1554.949
 121  1450.216
 122  1307.548
 123  1345.182
 124  1446.273
 125  1244.101
 126  1244.167
 127  1380.947
 128  1310.866
 129  1171.18
 130  1293.736
 131  1302.415
 132  1342.013
 133  1436.639
 134  1414.941
 135  1430.564
 136  1403.064
 137  1304.874
 138  1337.115
 139  1371.148
 140  1357.334
 141  1425.051
 142  1401.367
 143  1372.9
 144  1401.002
 145  1392.528
 146  1389.842
 147  1264.683
 148  1264.095
 149  1564.27
 150  1513.487
 151  1364.271
 152  1394.71
 153  1291.864
 154  1393.264
 155  1410.396
 156  1395.284
 157  1454.54
 158  1374.274
 159  1366.651
 160  1337.384
 161  1296.135
 162  1308.914
 163  1395.188
 164  1436.753
 165  1347.033
 166  1334.286
 167  1362.622
 168  1396.5
 169  1271.502
 170  1387.253
 171  1322.526
 172  1317.974
 173  1357.692
 174  1417.923
 175  1339.201
 176  1233.1
 177  1370.867
 178  1416.22
 179  1401.027
 180  1413.236
 181  1382.766
 182  1388.584
 183  1404.229
 184  1327.475
 185  1214.96
 186  1331.615
 187  1310.893
 188  1241.49
 189  1303.353
 190  1314.55
 191  1344.951
 192  1361.768
 193  1379.483
 194  1363.917
 195  1298.482
 196  1231.159
 197  1234.202
 198  1323.2
 199  1384.037
 200  1374.141
 201  1293.807
 202  1239.144
 203  1223.048
 204  1259.031
 205  1251.912
 206  1429.254
 207  1360.369
 208  1237.364
 209  1325.731
 210  1294.549
 211  1249.744
 212  1296.065
 213  1416.116
 214  1348.297
 215  1271.002
 216  1320.523
 217  1333.024
 218  1294.227
 219  1312.844
 220  1195.973
 221  1361.228
 222  1288.823
 223  1252.469
 224  1246.358
 225  1416.762
 226  1301.102
 227  1255.253
 228  1399.778
 229  1365.455
 230  1230.59
 231  1399.127
 232  1373.139
 233  1267.9
 234  1367.3
 235  1443.398
 236  1311.495
 237  1270.586
 238  1378.902
 239  1399.718
 240  1330.439
 241  1385.914
 242  1417.588
 243  1389.05
 244  1282.802
 245  1347.822
 246  1364.368
 247  1272.575
 248  1294.481
 249  1522.014
 250  1463.031
 251  1326.984
 252  1429.068
 253  1516.671
 254  1317.695
 255  1322.71
 256  1392.943
 257  1316.918
 258  1400.404
 259  1390.409
 260  1367.323
 261  1459.094
 262  1438.142
 263  1504.665
 264  1428.71
 265  1362.946
 266  1330.991
 267  1428.911
 268  1451.373
 269  1369.656
 270  1375.869
 271  1476.64
 272  1379.328
 273  1313.496
 274  1409.991
 275  1422.988
 276  1366.917
 277  1392.019
 278  1507.04
 279  1422.235
 280  1463.794
 281  1443.39
 282  1410.25
 283  1333.42
 284  1376.039
 285  1393.883
 286  1335.886
 287  1330.597
 288  1402.06
 289  1436.554
 290  1396.954
 291  1395.635
 292  1308.044
 293  1318.575
 294  1258.956
 295  1262.355
 296  1350.322
 297  1405.875
 298  1441.359
 299  1480.808
 300  1424.155
 301  1355.143
 302  1493.808
 303  1509.768
 304  1533.96
 305  1400.133
 306  1416.313
 307  1359.045
 308  1350.716
 309  1426.322
 310  1487.094
 311  1431.412
 312  1366.91
 313  1355.717
 314  1316.273
 315  1295.993
 316  1291.693
 317  1346.708
 318  1414.655
 319  1434.999
 320  1468.678
 321  1482.54
 322  1514.014
 323  1454.631
 324  1486.976
 325  1434.648
 326  1492.212
 327  1376.515
 328  1401.278
 329  1385.696
 330  1242.369
 331  1325.802
 332  1313.043
 333  1378.995
 334  1383.2
 335  1408.749
 336  1357.817
 337  1444.454
 338  1481.025
 339  1455.07
 340  1405.382
 341  1345.059
 342  1397.66
 343  1508.196
 344  1487.17
 345  1551.882
 346  1463.754
 347  1395.839
 348  1397.578
 349  1478.917
 350  1468.986
 351  1506.634
 352  1426.627
 353  1466.295
 354  1435.188
 355  1295.554
 356  1382.835
 357  1401.336
 358  1420.757
 359  1381.674
 360  1418.05
 361  1311.673
 362  1324.417
 363  1452.287
 364  1449.323
 365  1386.744
 366  1389.689
 367  1378.917
 368  1328.083
 369  1318.522
 370  1322.421
 371  1193.797
 372  1151.791
 373  1273.565
 374  1395.039
 375  1346.671
 376  1310.229
 377  1445.678
 378  1519.051
 379  1338.176
 380  1282.31
 381  1343.054
 382  1366.791
 383  1325.191
 384  1335.029
 385  1470.09
 386  1357.49
 387  1334.569
 388  1373.464
 389  1421.432
 390  1428.668
 391  1354.226
 392  1351.319
 393  1341.4
 394  1292.031
 395  1269.656
 396  1392.961
 397  1403.348
 398  1436.371
 399  1477.393
 400  1283.051
 401  1291.888
 402  1349.696
 403  1435.976
 404  1408.271
 405  1404.414
 406  1444.48
 407  1448.922
 408  1343.445
 409  1266.518
 410  1339.252
 411  1444.118
 412  1354.173
 413  1345.855
 414  1287.622
 415  1295.068
 416  1342.694
 417  1402.845
 418  1385.901
 419  1297.997
 420  1348.693
 421  1333.642
 422  1314.299
 423  1289.166
 424  1250.183
 425  1435.035
 426  1485.025
 427  1392.792
 428  1216.796
 429  1222.407
 430  1292.221
 431  1390.196
 432  1433.913
 433  1324.727
 434  1280.311
 435  1360.451
 436  1322.18
 437  1267.126
 438  1293.378
 439  1357.784
 440  1298.737
 441  1289.495
 442  1282.674
 443  1229.126
 444  1228.243
 445  1301.683
 446  1469.087
 447  1486.324
 448  1351.255
 449  1235.736
 450  1414.203
 451  1428.728
 452  1395.944
 453  1426.687
 454  1438.992
 455  1361.767
 456  1257.93
 457  1409.955
 458  1301.848
 459  1303.625
 460  1391.158
 461  1267.106
 462  1299.441
 463  1373.873
 464  1442.514
 465  1451.446
 466  1362.991
 467  1375.186
 468  1266.173
 469  1309.677
 470  1312.32
 471  1272.807
 472  1304.372
 473  1368.382
 474  1433.118
 475  1431.34
 476  1350.77
 477  1264.717
 478  1343.946
 479  1246.296
 480  1245.596
 481  1251.698
 482  1323.628
 483  1367.966
 484  1244.853
 485  1271.045
 486  1403.924
 487  1443.363
 488  1342.234
 489  1359.929
 490  1286.551
 491  1242.963
 492  1243.447
 493  1284.853
 494  1308.644
 495  1240.816
 496  1293.424
 497  1253.491
 498  1214.784
 499  1351.64
 500  1419.742
 501  1512.309
 502  1395.041
 503  1348.547
 504  1298.573
 505  1333.842
 506  1296.021
 507  1454.475
 508  1535.366
 509  1594.34
 510  1549.769
 511  1620.142
