# Input file       =  1200585540.105412_cleaned.dat
# Candidate        =  PSR_0332+5434
# Telescope        =  AR
# Epoch_topo       =  58139.665765108934
# Epoch_bary       =  N/A
# T_sample         =  0.002
# Data Folded      =  7340032
# Data Avg         =  0.0617995608627213
# Data StdDev      =  1.00012896078148 
# Profile Bins     =  512
# Profile Avg      =  885.809751065142 
# Profile StdDev   =  119.748477242706 
# Reduced chi-sqr  =  1.027
# Prob(Noise)      <  0.325   (~0.5 sigma)
# P_topo (ms)      =  714.570795447376  +/- 0.000281
# P'_topo (s/s)    =  -0                +/- 1.48e-10
# P''_topo (s/s^2) =  0                 +/- 6.56e-14
# P_bary (ms)      =  N/A
# P'_bary (s/s)    =  N/A
# P''_bary (s/s^2) =  N/A
# P_orb (s)        =  N/A
# asin(i)/c (s)    =  N/A
# eccentricity     =  N/A
# w (rad)          =  N/A
# T_peri           =  N/A
######################################################
   0  1401.744
   1  1303.798
   2  1186.076
   3  975.4415
   4  812.3579
   5  826.77
   6  820.7949
   7  760.9565
   8  767.8813
   9  809.9518
  10  879.4044
  11  910.0266
  12  886.2476
  13  806.2822
  14  890.3079
  15  945.779
  16  960.8015
  17  986.9501
  18  829.3358
  19  902.958
  20  918.6817
  21  845.597
  22  848.3049
  23  860.7705
  24  836.8798
  25  820.523
  26  899.007
  27  836.9929
  28  881.4148
  29  815.7692
  30  880.023
  31  956.2138
  32  941.0983
  33  885.6256
  34  849.6438
  35  951.1349
  36  892.9744
  37  818.8687
  38  939.5103
  39  853.3231
  40  938.5564
  41  947.9163
  42  1006.185
  43  917.3258
  44  856.3873
  45  913.019
  46  883.4095
  47  982.2791
  48  1019.892
  49  1012.417
  50  936.4886
  51  893.0171
  52  871.1465
  53  850.8442
  54  921.7191
  55  926.7571
  56  881.6526
  57  871.1844
  58  932.7039
  59  958.0814
  60  889.3966
  61  881.6237
  62  970.4781
  63  992.8069
  64  900.5722
  65  900.2145
  66  904.6414
  67  996.1768
  68  997.8155
  69  945.5718
  70  866.6297
  71  864.1559
  72  769.8899
  73  722.9165
  74  761.3279
  75  868.3881
  76  942.9857
  77  983.8686
  78  945.357
  79  899.7166
  80  943.2786
  81  972.7109
  82  943.4481
  83  958.6823
  84  1013.465
  85  1001.947
  86  1028.083
  87  1035.821
  88  1042.347
  89  957.6927
  90  996.787
  91  1067.05
  92  989.7695
  93  957.9374
  94  924.7675
  95  1037.526
  96  1087.952
  97  971.5649
  98  828.3186
  99  890.6252
 100  800.5655
 101  866.4291
 102  862.6005
 103  887.2493
 104  869.5324
 105  885.67
 106  885.3593
 107  924.2415
 108  947.575
 109  936.8395
 110  992.3221
 111  922.7877
 112  945.1511
 113  950.9543
 114  950.7283
 115  980.9738
 116  953.4357
 117  962.939
 118  880.3374
 119  897.3921
 120  847.9698
 121  884.516
 122  941.7712
 123  764.5862
 124  792.1501
 125  874.9136
 126  1028.682
 127  947.2213
 128  924.0641
 129  973.4486
 130  871.3793
 131  883.5684
 132  835.3268
 133  914.7827
 134  858.2709
 135  978.4637
 136  888.2889
 137  891.4422
 138  919.6775
 139  1001.13
 140  931.1884
 141  845.4077
 142  832.404
 143  889.4711
 144  867.9307
 145  807.3889
 146  890.6994
 147  898.937
 148  939.7272
 149  1001.217
 150  958.5614
 151  861.7866
 152  873.3503
 153  884.5797
 154  879.3146
 155  837.3959
 156  884.5083
 157  931.8649
 158  876.694
 159  947.085
 160  885.3295
 161  747.3828
 162  771.0312
 163  893.4957
 164  891.3689
 165  828.9033
 166  880.949
 167  924.9335
 168  815.5745
 169  776.1011
 170  815.6212
 171  862.7661
 172  951.8944
 173  828.9741
 174  756.5616
 175  828.3289
 176  836.0645
 177  776.4225
 178  756.9877
 179  754.6567
 180  786.8712
 181  892.6473
 182  920.3715
 183  917.7627
 184  796.6942
 185  766.4371
 186  808.382
 187  816.2268
 188  877.9948
 189  845.6782
 190  835.3546
 191  789.1241
 192  874.3077
 193  825.0089
 194  834.6199
 195  867.0991
 196  846.4849
 197  883.4797
 198  802.9578
 199  870.7709
 200  814.1655
 201  895.0995
 202  901.6688
 203  880.5247
 204  666.4899
 205  717.6013
 206  800.6509
 207  888.209
 208  873.4456
 209  784.5243
 210  799.2081
 211  691.9421
 212  716.9437
 213  689.4933
 214  734.697
 215  776.144
 216  728.1497
 217  752.9953
 218  728.8943
 219  754.7609
 220  689.4634
 221  673.1497
 222  653.1708
 223  730.618
 224  841.4872
 225  869.3929
 226  940.0807
 227  927.5792
 228  833.3138
 229  708.5194
 230  788.5792
 231  800.95
 232  802.9706
 233  863.5452
 234  878.1273
 235  817.174
 236  854.6456
 237  908.0233
 238  979.9807
 239  944.7361
 240  886.2543
 241  843.2885
 242  914.5774
 243  824.2753
 244  789.7734
 245  860.9518
 246  980.7252
 247  821.7491
 248  903.4429
 249  910.0984
 250  812.9476
 251  826.2799
 252  922.1505
 253  997.7803
 254  1017.911
 255  961.3669
 256  905.5233
 257  955.7959
 258  1015.164
 259  990.5352
 260  1062.241
 261  940.8241
 262  950.774
 263  956.1437
 264  920.2529
 265  870.7668
 266  917.0386
 267  884.6558
 268  847.7327
 269  972.2114
 270  974.1018
 271  909.9099
 272  811.8798
 273  877.1786
 274  853.035
 275  883.8196
 276  815.2646
 277  838.8906
 278  893.858
 279  926.9223
 280  888.3386
 281  794.7192
 282  811.4195
 283  848.2222
 284  817.8715
 285  871.7151
 286  866.7816
 287  967.0344
 288  982.8762
 289  930.1807
 290  847.5369
 291  1007.431
 292  959.506
 293  812.5785
 294  985.0195
 295  961.4728
 296  911.5854
 297  811.9835
 298  902.7941
 299  997.2657
 300  970.2588
 301  933.9626
 302  846.2896
 303  805.6626
 304  886.5404
 305  798.9666
 306  822.6703
 307  872.6093
 308  836.2926
 309  862.8824
 310  861.591
 311  852.5943
 312  933.0534
 313  942.17
 314  924.9083
 315  830.4947
 316  837.9198
 317  888.9912
 318  920.7341
 319  966.707
 320  900.0771
 321  898.631
 322  870.182
 323  816.6856
 324  831.459
 325  868.8288
 326  861.6351
 327  869.1666
 328  833.9115
 329  716.1489
 330  698.951
 331  831.4003
 332  859.6609
 333  812.8044
 334  850.1174
 335  811.1337
 336  743.2515
 337  776.8351
 338  794.9422
 339  726.6314
 340  714.0985
 341  680.7312
 342  656.2606
 343  668.0814
 344  748.3383
 345  731.2599
 346  749.4274
 347  713.366
 348  738.3326
 349  888.009
 350  883.6228
 351  855.0692
 352  775.386
 353  808.6078
 354  882.902
 355  848.7684
 356  910.5703
 357  953.9467
 358  884.4581
 359  855.5785
 360  937.2434
 361  824.168
 362  815.5762
 363  838.0587
 364  843.2131
 365  791.9427
 366  872.8497
 367  897.7026
 368  844.0745
 369  724.892
 370  760.7548
 371  898.2379
 372  859.5906
 373  914.5671
 374  856.4285
 375  897.3768
 376  936.7769
 377  878.0529
 378  815.7834
 379  854.3028
 380  902.975
 381  865.733
 382  916.7408
 383  940.5157
 384  887.5757
 385  890.6782
 386  935.9955
 387  969.7433
 388  881.6344
 389  846.3613
 390  970.055
 391  869.3876
 392  895.204
 393  1013.748
 394  989.4745
 395  941.1569
 396  879.4409
 397  950.1437
 398  987.4132
 399  1004.684
 400  1012.272
 401  957.6514
 402  911.2422
 403  882.8193
 404  807.4375
 405  826.0191
 406  825.9617
 407  943.4983
 408  904.8397
 409  803.5568
 410  731.2482
 411  913.7211
 412  942.5746
 413  834.0494
 414  890.7656
 415  894.1754
 416  906.208
 417  985.0504
 418  919.9203
 419  870.5097
 420  913.1968
 421  941.7932
 422  964.3976
 423  993.2982
 424  1000.465
 425  990.8721
 426  903.9727
 427  898.6593
 428  876.3185
 429  833.858
 430  849.4188
 431  846.5628
 432  900.5535
 433  879.7936
 434  785.9271
 435  898.7765
 436  924.8306
 437  797.4899
 438  796.9769
 439  846.592
 440  781.522
 441  904.2734
 442  1005.349
 443  1023.741
 444  862.4554
 445  850.3047
 446  873.0325
 447  765.6923
 448  855.9173
 449  892.8608
 450  956.0317
 451  912.5107
 452  927.4329
 453  1007.329
 454  1064.999
 455  1013.921
 456  976.5681
 457  997.4875
 458  925.4861
 459  890.9697
 460  798.1343
 461  904.2932
 462  945.1873
 463  856.7299
 464  916.7385
 465  956.6342
 466  1004.077
 467  851.2142
 468  820.5572
 469  863.9161
 470  884.3174
 471  981.7866
 472  931.1188
 473  931.195
 474  1008.678
 475  865.9861
 476  861.0446
 477  793.4595
 478  871.7468
 479  1001.509
 480  988.0253
 481  969.9102
 482  890.7211
 483  827.5936
 484  883.5587
 485  907.0486
 486  889.4822
 487  790.2592
 488  771.5803
 489  863.1277
 490  934.6279
 491  987.3517
 492  875.0996
 493  891.1486
 494  1009.736
 495  941.6671
 496  774.4719
 497  856.0762
 498  860.358
 499  879.1237
 500  980.2563
 501  944.3765
 502  850.2903
 503  867.1604
 504  979.6606
 505  948.2273
 506  810.4988
 507  836.5825
 508  937.1954
 509  1027.899
 510  1195.816
 511  1404.439
