# Input file       =  1200169617.116321_cleaned.dat
# Candidate        =  PSR_0332+5434
# Telescope        =  AR
# Epoch_topo       =  58134.851841624084
# Epoch_bary       =  N/A
# T_sample         =  0.002
# Data Folded      =  7340032
# Data Avg         =  0.10184630640423 
# Data StdDev      =  1.00032025536832 
# Profile Bins     =  512
# Profile Avg      =  1459.9056324261  
# Profile StdDev   =  119.771381524432 
# Reduced chi-sqr  =  0.949
# Prob(Noise)      <  0.793   (~0.0 sigma)
# P_topo (ms)      =  714.568151904522  +/- 0.000115
# P'_topo (s/s)    =  -0                +/- 6.06e-11
# P''_topo (s/s^2) =  0                 +/- 2.67e-14
# P_bary (ms)      =  N/A
# P'_bary (s/s)    =  N/A
# P''_bary (s/s^2) =  N/A
# P_orb (s)        =  N/A
# asin(i)/c (s)    =  N/A
# eccentricity     =  N/A
# w (rad)          =  N/A
# T_peri           =  N/A
######################################################
   0  1991.691
   1  1890.295
   2  1760.56
   3  1604.164
   4  1461.664
   5  1338.3
   6  1419.719
   7  1512.181
   8  1520.722
   9  1412.1
  10  1398.943
  11  1399.158
  12  1426.468
  13  1524.39
  14  1490.888
  15  1437.166
  16  1615.225
  17  1483.387
  18  1398.772
  19  1417.161
  20  1497.925
  21  1456.309
  22  1500.546
  23  1527.986
  24  1529.956
  25  1516.005
  26  1437.211
  27  1559.494
  28  1564.649
  29  1637.17
  30  1634.165
  31  1578.553
  32  1454.296
  33  1506.57
  34  1567.034
  35  1498.387
  36  1508.682
  37  1584.108
  38  1477.241
  39  1431.985
  40  1438.861
  41  1403.233
  42  1403.668
  43  1477.092
  44  1513.655
  45  1483.796
  46  1419.988
  47  1356.933
  48  1462.767
  49  1559.894
  50  1480.445
  51  1468.548
  52  1459.512
  53  1420.544
  54  1494.77
  55  1573.397
  56  1584.039
  57  1604.159
  58  1497.658
  59  1367.723
  60  1369.058
  61  1387.25
  62  1318.605
  63  1328.589
  64  1408.106
  65  1446.311
  66  1502.052
  67  1490.509
  68  1335.562
  69  1331.407
  70  1317.176
  71  1352.745
  72  1426.451
  73  1487.402
  74  1408.987
  75  1357.223
  76  1342.518
  77  1401.186
  78  1406.572
  79  1376.501
  80  1398.74
  81  1401.853
  82  1434.678
  83  1369.719
  84  1379.677
  85  1467.925
  86  1444.22
  87  1376.472
  88  1433.074
  89  1485.012
  90  1435.804
  91  1307.816
  92  1294.942
  93  1382.146
  94  1364.492
  95  1440.438
  96  1535.39
  97  1498.487
  98  1505.238
  99  1416.459
 100  1319.933
 101  1434.972
 102  1484.269
 103  1588.022
 104  1543.599
 105  1417.438
 106  1326.476
 107  1362.458
 108  1321.167
 109  1392.84
 110  1509.358
 111  1503.098
 112  1483.702
 113  1400.561
 114  1418.783
 115  1495.429
 116  1536.337
 117  1547.759
 118  1466.964
 119  1410.319
 120  1513.54
 121  1473.983
 122  1333.622
 123  1335.385
 124  1378.174
 125  1438.967
 126  1553.378
 127  1485.917
 128  1460.328
 129  1448.281
 130  1382.774
 131  1461.162
 132  1407.337
 133  1458.781
 134  1519.804
 135  1493.645
 136  1372.375
 137  1378.066
 138  1512.061
 139  1411.859
 140  1397.473
 141  1421.831
 142  1428.784
 143  1451.16
 144  1532.145
 145  1471.348
 146  1310.644
 147  1370.49
 148  1433.211
 149  1397.269
 150  1467.62
 151  1388.492
 152  1495.635
 153  1498.506
 154  1436.325
 155  1379.974
 156  1304.99
 157  1352.368
 158  1451.885
 159  1568.755
 160  1520.674
 161  1466.502
 162  1474.517
 163  1447.389
 164  1411.317
 165  1537.286
 166  1435.812
 167  1329.136
 168  1370.351
 169  1489.406
 170  1469.766
 171  1375.825
 172  1356.399
 173  1374.442
 174  1448.096
 175  1452.56
 176  1316.932
 177  1253.279
 178  1476.364
 179  1528.163
 180  1439.348
 181  1427.162
 182  1511.854
 183  1423.323
 184  1519.953
 185  1583.053
 186  1523.39
 187  1522.996
 188  1525.858
 189  1490.855
 190  1327.929
 191  1399.815
 192  1452.027
 193  1430.437
 194  1421.287
 195  1413.058
 196  1341.777
 197  1438.999
 198  1405.449
 199  1300.876
 200  1300.04
 201  1383.724
 202  1437.973
 203  1471.122
 204  1313.899
 205  1278.248
 206  1325.485
 207  1515.153
 208  1483.689
 209  1300.162
 210  1384.903
 211  1451.348
 212  1423.981
 213  1285.215
 214  1356.128
 215  1414.52
 216  1449.872
 217  1444.069
 218  1344.802
 219  1319.887
 220  1376.219
 221  1479.809
 222  1446.915
 223  1309.262
 224  1372.401
 225  1460.554
 226  1449.198
 227  1498.065
 228  1527.426
 229  1449.473
 230  1408.692
 231  1456.915
 232  1515.372
 233  1447.739
 234  1489.755
 235  1514.853
 236  1474.93
 237  1389.856
 238  1392.425
 239  1482.666
 240  1530.311
 241  1549.613
 242  1513.712
 243  1507.815
 244  1560.983
 245  1518.502
 246  1523.55
 247  1346.306
 248  1305.428
 249  1426.795
 250  1537.208
 251  1512.261
 252  1396.358
 253  1396.163
 254  1393.125
 255  1460.893
 256  1397.9
 257  1371.949
 258  1424.082
 259  1321.299
 260  1277.411
 261  1435.437
 262  1469.584
 263  1393.84
 264  1416.935
 265  1449.088
 266  1431.931
 267  1304.515
 268  1410.107
 269  1473.969
 270  1442.558
 271  1414.329
 272  1419.238
 273  1472.749
 274  1439.733
 275  1399.741
 276  1430.166
 277  1452.03
 278  1418.463
 279  1478.28
 280  1366.051
 281  1397.124
 282  1446.115
 283  1413.113
 284  1465.121
 285  1433.641
 286  1393.666
 287  1413.349
 288  1414.397
 289  1420.443
 290  1452.958
 291  1389.431
 292  1447.926
 293  1534.807
 294  1465.43
 295  1531.9
 296  1648.247
 297  1630.727
 298  1423.234
 299  1366.383
 300  1334.393
 301  1303.678
 302  1490.827
 303  1437.965
 304  1449.551
 305  1504.711
 306  1533.866
 307  1387.523
 308  1281.771
 309  1400.483
 310  1441.63
 311  1443.115
 312  1500.682
 313  1461.783
 314  1373.595
 315  1417.984
 316  1515.635
 317  1487.664
 318  1483.247
 319  1522.959
 320  1555.628
 321  1479.046
 322  1519.223
 323  1526.829
 324  1467.439
 325  1455.239
 326  1391.26
 327  1477.399
 328  1436.188
 329  1419.696
 330  1363.232
 331  1464.464
 332  1556.771
 333  1435.736
 334  1425.518
 335  1369.012
 336  1403.229
 337  1426.43
 338  1535.764
 339  1525.711
 340  1467.539
 341  1416.794
 342  1519.314
 343  1526.91
 344  1417.563
 345  1490.585
 346  1625.515
 347  1538.348
 348  1366.471
 349  1366.354
 350  1466.349
 351  1442.606
 352  1298.484
 353  1429.171
 354  1497.215
 355  1423.226
 356  1521.214
 357  1546.534
 358  1420.91
 359  1443.883
 360  1625.043
 361  1506.911
 362  1501.174
 363  1454.37
 364  1484.334
 365  1483.599
 366  1432.458
 367  1527.457
 368  1548.724
 369  1465.789
 370  1468.328
 371  1427.039
 372  1391.936
 373  1282.838
 374  1350.523
 375  1412.333
 376  1451.792
 377  1390.383
 378  1469.793
 379  1468.917
 380  1417.748
 381  1457.912
 382  1429.521
 383  1489.746
 384  1494.032
 385  1564.863
 386  1570.766
 387  1511.202
 388  1397.876
 389  1438.151
 390  1449.622
 391  1375.721
 392  1406.87
 393  1552.72
 394  1532.608
 395  1613.482
 396  1553.09
 397  1486.423
 398  1520.596
 399  1506.656
 400  1558.042
 401  1465.348
 402  1552.272
 403  1528.022
 404  1422.799
 405  1379.677
 406  1467.483
 407  1542.418
 408  1555.232
 409  1508.813
 410  1440.734
 411  1388.002
 412  1403.988
 413  1490.561
 414  1479.457
 415  1478.788
 416  1475.111
 417  1546.524
 418  1606.732
 419  1505.898
 420  1509.899
 421  1672.576
 422  1616.389
 423  1520.991
 424  1421.997
 425  1416.108
 426  1520.884
 427  1619.966
 428  1616.911
 429  1548.972
 430  1471.168
 431  1537.2
 432  1639.197
 433  1596.732
 434  1514.825
 435  1401.273
 436  1438.285
 437  1531.243
 438  1440.728
 439  1496.77
 440  1483.723
 441  1484.738
 442  1531.558
 443  1570.666
 444  1410.566
 445  1413.908
 446  1455.011
 447  1472.883
 448  1338.672
 449  1320.034
 450  1465.875
 451  1507.992
 452  1510.563
 453  1493.607
 454  1479.472
 455  1438.108
 456  1456.019
 457  1406.833
 458  1418.178
 459  1466.016
 460  1448.667
 461  1367.041
 462  1306.618
 463  1469.878
 464  1487.885
 465  1534.979
 466  1535.082
 467  1406.637
 468  1418.986
 469  1503.898
 470  1484.959
 471  1552.872
 472  1528.155
 473  1530.349
 474  1555.323
 475  1507.832
 476  1550.258
 477  1456.308
 478  1499.738
 479  1548.047
 480  1565.683
 481  1549.327
 482  1583.408
 483  1529.235
 484  1384.046
 485  1409.781
 486  1431.711
 487  1501.594
 488  1524.872
 489  1429.895
 490  1391.239
 491  1387.922
 492  1457.944
 493  1488.783
 494  1494.623
 495  1513.795
 496  1599.45
 497  1462.277
 498  1390.303
 499  1412.383
 500  1472.311
 501  1561.458
 502  1650.19
 503  1575.084
 504  1523.776
 505  1530.13
 506  1547.092
 507  1608.42
 508  1597.546
 509  1610.387
 510  1698.633
 511  1807.871
