# Input file       =  1200514251.114862_cleaned.dat
# Candidate        =  PSR_0332+5434
# Telescope        =  AR
# Epoch_topo       =  58138.840661051647
# Epoch_bary       =  N/A
# T_sample         =  0.002
# Data Folded      =  7340032
# Data Avg         =  0.0917385822037049
# Data StdDev      =  1.00035363085905 
# Profile Bins     =  512
# Profile Avg      =  1315.16225977693 
# Profile StdDev   =  119.775377673277 
# Reduced chi-sqr  =  0.760
# Prob(Noise)      <  1   (~0.0 sigma)
# P_topo (ms)      =  714.570645569527  +/- 0.000249
# P'_topo (s/s)    =  -0                +/- 1.31e-10
# P''_topo (s/s^2) =  0                 +/- 5.79e-14
# P_bary (ms)      =  N/A
# P'_bary (s/s)    =  N/A
# P''_bary (s/s^2) =  N/A
# P_orb (s)        =  N/A
# asin(i)/c (s)    =  N/A
# eccentricity     =  N/A
# w (rad)          =  N/A
# T_peri           =  N/A
######################################################
   0  1711.52
   1  1544.351
   2  1544.876
   3  1417.137
   4  1241.695
   5  1288.712
   6  1292.928
   7  1251.508
   8  1249.967
   9  1294.825
  10  1299.747
  11  1293.742
  12  1381.617
  13  1354.552
  14  1366.059
  15  1356.59
  16  1270.207
  17  1200.689
  18  1274.067
  19  1411.499
  20  1306.934
  21  1333.551
  22  1314.242
  23  1210.263
  24  1193.312
  25  1164.972
  26  1249.566
  27  1223.194
  28  1395.606
  29  1417.568
  30  1442.489
  31  1414.4
  32  1322.82
  33  1340.816
  34  1227.502
  35  1254.47
  36  1290.728
  37  1403.346
  38  1461.521
  39  1421.298
  40  1336.923
  41  1319.973
  42  1215.119
  43  1178.321
  44  1191.207
  45  1310.081
  46  1371.98
  47  1352.847
  48  1259.676
  49  1256.816
  50  1350.66
  51  1293.286
  52  1244.707
  53  1180.547
  54  1269.265
  55  1315.487
  56  1364.191
  57  1350.839
  58  1358.45
  59  1379.148
  60  1385.564
  61  1252.178
  62  1314.612
  63  1434.828
  64  1441.119
  65  1418.477
  66  1306.802
  67  1189.706
  68  1173.354
  69  1223.705
  70  1194.691
  71  1214.051
  72  1246.48
  73  1252.137
  74  1253.097
  75  1213.855
  76  1296.178
  77  1313.976
  78  1313.594
  79  1228.066
  80  1218.469
  81  1309.615
  82  1337.26
  83  1382.125
  84  1336.572
  85  1301.75
  86  1221.825
  87  1245.197
  88  1283.128
  89  1192.927
  90  1311.429
  91  1229
  92  1246.516
  93  1289.077
  94  1217.856
  95  1236.011
  96  1234.075
  97  1290.951
  98  1235.225
  99  1289.851
 100  1240.302
 101  1245.674
 102  1272.948
 103  1267.332
 104  1251.978
 105  1215.333
 106  1307.759
 107  1326.734
 108  1349.265
 109  1306.4
 110  1366.787
 111  1292.147
 112  1314.103
 113  1250.528
 114  1236.894
 115  1272.964
 116  1316.136
 117  1340.173
 118  1228.415
 119  1346.67
 120  1449.871
 121  1450.497
 122  1419.432
 123  1409.463
 124  1250.902
 125  1219.745
 126  1317.88
 127  1290.067
 128  1258.673
 129  1309.508
 130  1308.02
 131  1290.02
 132  1299.183
 133  1301.437
 134  1259.239
 135  1327.982
 136  1356.092
 137  1392.803
 138  1368.531
 139  1405.131
 140  1402.994
 141  1390.071
 142  1388.003
 143  1283.887
 144  1289.277
 145  1224.113
 146  1299.64
 147  1283.333
 148  1329.898
 149  1378.477
 150  1398.453
 151  1476.198
 152  1431.47
 153  1386.93
 154  1290.521
 155  1297.141
 156  1317.131
 157  1318.66
 158  1326.75
 159  1360.034
 160  1448.512
 161  1361.651
 162  1315.708
 163  1370.778
 164  1389.875
 165  1332.318
 166  1272.822
 167  1271.187
 168  1169.492
 169  1255.9
 170  1336.615
 171  1404.056
 172  1395.858
 173  1378.321
 174  1351.421
 175  1302.717
 176  1317.437
 177  1258.978
 178  1324.616
 179  1437.767
 180  1371.958
 181  1302.045
 182  1251.93
 183  1234.505
 184  1299.306
 185  1245.549
 186  1246.969
 187  1322.002
 188  1299.545
 189  1345.682
 190  1339.438
 191  1267.302
 192  1357.376
 193  1357.161
 194  1363.507
 195  1312.639
 196  1369.83
 197  1289.375
 198  1435.506
 199  1273.996
 200  1237.369
 201  1314.356
 202  1334.134
 203  1303.12
 204  1256.511
 205  1343.003
 206  1309.618
 207  1317.128
 208  1281.931
 209  1300.747
 210  1235.043
 211  1236.786
 212  1339.141
 213  1381.657
 214  1360.207
 215  1263.43
 216  1373.021
 217  1313.742
 218  1249.333
 219  1309.493
 220  1208.667
 221  1225.728
 222  1255.068
 223  1339.138
 224  1398.82
 225  1327.518
 226  1295.651
 227  1355.724
 228  1352.304
 229  1327.304
 230  1309.578
 231  1264.922
 232  1311.407
 233  1321.239
 234  1307.019
 235  1305.935
 236  1355.599
 237  1439.853
 238  1400.534
 239  1350.879
 240  1334.358
 241  1360.402
 242  1349.33
 243  1419.449
 244  1344.377
 245  1330.249
 246  1365.856
 247  1295.503
 248  1292.861
 249  1202.965
 250  1368.148
 251  1484.426
 252  1408.308
 253  1360.886
 254  1325.369
 255  1349.871
 256  1352.792
 257  1365.304
 258  1305.98
 259  1337.76
 260  1317.983
 261  1228.327
 262  1322.385
 263  1303.276
 264  1311.894
 265  1326.985
 266  1306.194
 267  1291.545
 268  1258.857
 269  1310.094
 270  1251.48
 271  1260.832
 272  1283.382
 273  1404.811
 274  1401.906
 275  1344.599
 276  1153.015
 277  1224.263
 278  1427.974
 279  1465.258
 280  1530.39
 281  1365.695
 282  1323.643
 283  1276.618
 284  1298.254
 285  1355.696
 286  1334.144
 287  1362.082
 288  1281.562
 289  1347.571
 290  1307.776
 291  1437.51
 292  1457.383
 293  1457.083
 294  1443.048
 295  1386.087
 296  1328.966
 297  1364.488
 298  1436.155
 299  1435.876
 300  1416.408
 301  1373.829
 302  1354.065
 303  1345.392
 304  1368.307
 305  1215.952
 306  1269.241
 307  1284.86
 308  1261.658
 309  1127.018
 310  1128.172
 311  1165.039
 312  1183.15
 313  1207.57
 314  1180.817
 315  1128.213
 316  1151.56
 317  1146.625
 318  1215.172
 319  1134.288
 320  1148.776
 321  1225.345
 322  1279.776
 323  1379.588
 324  1328.113
 325  1338.467
 326  1279.374
 327  1345.367
 328  1267.763
 329  1326.887
 330  1406.434
 331  1358.832
 332  1363.862
 333  1230.996
 334  1262.014
 335  1235.062
 336  1233.21
 337  1339.757
 338  1322.906
 339  1241.944
 340  1250.456
 341  1238.315
 342  1234.978
 343  1297.497
 344  1374.741
 345  1382.283
 346  1436.746
 347  1440.69
 348  1410.353
 349  1277.456
 350  1267.106
 351  1328.114
 352  1313.786
 353  1274.039
 354  1247.176
 355  1331.526
 356  1424.171
 357  1374.845
 358  1205.84
 359  1189.315
 360  1232.631
 361  1282.819
 362  1308.201
 363  1331.43
 364  1346.682
 365  1309.374
 366  1437.16
 367  1391.285
 368  1281.229
 369  1240.345
 370  1264.832
 371  1272.955
 372  1202.915
 373  1448.181
 374  1398.844
 375  1327.102
 376  1225.352
 377  1280.538
 378  1267.181
 379  1254.713
 380  1323.768
 381  1292.681
 382  1277.323
 383  1339.042
 384  1371.67
 385  1360.586
 386  1389.335
 387  1386.094
 388  1423.875
 389  1327.271
 390  1295.797
 391  1259.805
 392  1246.921
 393  1168.901
 394  1266.114
 395  1290.804
 396  1154.336
 397  1153.755
 398  1306.317
 399  1371.162
 400  1259.604
 401  1249.042
 402  1330.206
 403  1316.318
 404  1273.65
 405  1331.558
 406  1327.219
 407  1285.712
 408  1263.1
 409  1401.095
 410  1307.008
 411  1302.137
 412  1368.799
 413  1401.137
 414  1280.035
 415  1245.033
 416  1304.717
 417  1274.16
 418  1263.797
 419  1315.025
 420  1304.982
 421  1222.31
 422  1314.335
 423  1394.516
 424  1251.696
 425  1268.644
 426  1318.131
 427  1263.732
 428  1264.876
 429  1364.059
 430  1395.775
 431  1329.19
 432  1350.021
 433  1280.793
 434  1266.647
 435  1275.006
 436  1261.788
 437  1364.855
 438  1248.148
 439  1229.236
 440  1208.629
 441  1378.729
 442  1389.7
 443  1318.042
 444  1270.735
 445  1342.111
 446  1306.023
 447  1458.687
 448  1436.968
 449  1386.64
 450  1329.286
 451  1330.775
 452  1401.648
 453  1281.921
 454  1341.214
 455  1343.445
 456  1365.906
 457  1385.584
 458  1229.37
 459  1270.872
 460  1323.431
 461  1320.227
 462  1326.153
 463  1414.598
 464  1373.729
 465  1299.649
 466  1237.185
 467  1223.296
 468  1201.714
 469  1329.089
 470  1478.691
 471  1397.373
 472  1242.349
 473  1375.642
 474  1377.019
 475  1349.658
 476  1340.148
 477  1313.076
 478  1303.748
 479  1262.93
 480  1335.118
 481  1351.733
 482  1330.951
 483  1324.697
 484  1415.43
 485  1322.632
 486  1191.147
 487  1118.432
 488  1360.615
 489  1397.017
 490  1371.759
 491  1359.042
 492  1322.297
 493  1315.999
 494  1266.775
 495  1398.944
 496  1322.272
 497  1278.077
 498  1278.059
 499  1372.439
 500  1334.462
 501  1314.222
 502  1355.462
 503  1366.04
 504  1303.75
 505  1334.282
 506  1391.477
 507  1392.944
 508  1328.886
 509  1411.186
 510  1525.621
 511  1667.335
