# Input file       =  1200600452.101729_cleaned.dat
# Candidate        =  PSR_0332+5434
# Telescope        =  AR
# Epoch_topo       =  58139.838357658897
# Epoch_bary       =  N/A
# T_sample         =  0.002
# Data Folded      =  7340032
# Data Avg         =  0.0955435072501995
# Data StdDev      =  1.00030698990112 
# Profile Bins     =  512
# Profile Avg      =  1369.65013788794 
# Profile StdDev   =  119.769793209764 
# Reduced chi-sqr  =  0.855
# Prob(Noise)      <  0.992   (~0.0 sigma)
# P_topo (ms)      =  714.571230250168  +/- 6.02e-05
# P'_topo (s/s)    =  -0                +/- 3.18e-11
# P''_topo (s/s^2) =  0                 +/- 1.4e-14
# P_bary (ms)      =  N/A
# P'_bary (s/s)    =  N/A
# P''_bary (s/s^2) =  N/A
# P_orb (s)        =  N/A
# asin(i)/c (s)    =  N/A
# eccentricity     =  N/A
# w (rad)          =  N/A
# T_peri           =  N/A
######################################################
   0  1703.747
   1  1643.927
   2  1590.915
   3  1441.219
   4  1397.053
   5  1379.09
   6  1286.344
   7  1358.939
   8  1383.732
   9  1347.356
  10  1418.421
  11  1391.224
  12  1314.146
  13  1256.465
  14  1342.926
  15  1355.722
  16  1372.124
  17  1341.922
  18  1308.791
  19  1328.487
  20  1283.871
  21  1301.897
  22  1381.037
  23  1494.821
  24  1537.24
  25  1445.316
  26  1405.762
  27  1457.825
  28  1459.561
  29  1413.799
  30  1515.115
  31  1461.695
  32  1386.311
  33  1521.365
  34  1589.473
  35  1527.584
  36  1550.941
  37  1459.507
  38  1414.669
  39  1419.627
  40  1369.65
  41  1324.344
  42  1314.122
  43  1273.173
  44  1325.65
  45  1319.974
  46  1312.576
  47  1313.45
  48  1322.573
  49  1309.669
  50  1429.271
  51  1410.94
  52  1410.492
  53  1412.26
  54  1379.045
  55  1534.115
  56  1414.463
  57  1409.295
  58  1306.979
  59  1273.564
  60  1292.024
  61  1352.006
  62  1357.271
  63  1315.479
  64  1388.314
  65  1371.715
  66  1344.858
  67  1358.009
  68  1352.753
  69  1382.458
  70  1351.827
  71  1298.536
  72  1350.848
  73  1440.223
  74  1411.947
  75  1394.824
  76  1258.052
  77  1227.967
  78  1252.34
  79  1306.552
  80  1346.826
  81  1301.728
  82  1278.311
  83  1367.936
  84  1378.665
  85  1319.994
  86  1334.32
  87  1278.978
  88  1234.191
  89  1345.457
  90  1462
  91  1401.622
  92  1296.823
  93  1416.968
  94  1512.389
  95  1509.938
  96  1460.575
  97  1368.228
  98  1417.555
  99  1400.689
 100  1427.373
 101  1528.746
 102  1540.771
 103  1452.056
 104  1435.673
 105  1457.976
 106  1430.414
 107  1413.384
 108  1402.651
 109  1376.309
 110  1322.83
 111  1339.906
 112  1409.404
 113  1447.813
 114  1379.311
 115  1318.754
 116  1304.06
 117  1382.555
 118  1322.653
 119  1485.852
 120  1520.12
 121  1368.264
 122  1285.6
 123  1453.516
 124  1328.759
 125  1220.778
 126  1296.919
 127  1395.893
 128  1196.726
 129  1248.328
 130  1302.372
 131  1304.069
 132  1423.143
 133  1419.36
 134  1402.592
 135  1427.272
 136  1366.488
 137  1306.485
 138  1371.878
 139  1335.36
 140  1414.072
 141  1418.583
 142  1358.801
 143  1403.082
 144  1387.487
 145  1431.441
 146  1308.719
 147  1210.457
 148  1451.124
 149  1567.854
 150  1420.559
 151  1358.027
 152  1367.53
 153  1310.55
 154  1450.909
 155  1367.833
 156  1445.583
 157  1407.8
 158  1361.24
 159  1356.348
 160  1314.365
 161  1294.776
 162  1340.186
 163  1463.095
 164  1366.832
 165  1358.916
 166  1305.362
 167  1423.35
 168  1312.211
 169  1323.6
 170  1370.588
 171  1313.748
 172  1323.377
 173  1409.258
 174  1369.366
 175  1277.703
 176  1289.619
 177  1425.852
 178  1399.86
 179  1403.223
 180  1415.538
 181  1349.201
 182  1417.194
 183  1367.743
 184  1267.295
 185  1251.806
 186  1356.247
 187  1239.854
 188  1285.338
 189  1316.513
 190  1328.38
 191  1354.653
 192  1376.37
 193  1377.965
 194  1328.742
 195  1258.008
 196  1218.685
 197  1276.561
 198  1371.879
 199  1394.501
 200  1318.058
 201  1267.226
 202  1204.405
 203  1265.086
 204  1233.08
 205  1353.099
 206  1423.995
 207  1267.8
 208  1278.859
 209  1332.191
 210  1266.934
 211  1260.154
 212  1363.947
 213  1403.242
 214  1292.695
 215  1284.115
 216  1333.714
 217  1301.607
 218  1340.592
 219  1240.166
 220  1260.478
 221  1354.962
 222  1250.724
 223  1243.444
 224  1331.699
 225  1388.954
 226  1229.576
 227  1340.843
 228  1419.415
 229  1244.924
 230  1326.04
 231  1425.363
 232  1285.62
 233  1308.372
 234  1432.433
 235  1377.315
 236  1262.948
 237  1328.05
 238  1420.171
 239  1351.551
 240  1359.75
 241  1406.099
 242  1422
 243  1318.035
 244  1295.444
 245  1377.572
 246  1312.522
 247  1249.494
 248  1428.173
 249  1555.452
 250  1341.211
 251  1363.251
 252  1506.426
 253  1417.713
 254  1295.448
 255  1373.978
 256  1351.097
 257  1355.92
 258  1418.725
 259  1345.238
 260  1418.276
 261  1462.493
 262  1474.748
 263  1473.583
 264  1384.195
 265  1340.018
 266  1377.916
 267  1447.427
 268  1415.534
 269  1354.622
 270  1456.323
 271  1428.923
 272  1313.694
 273  1349.578
 274  1447.933
 275  1381.137
 276  1361.907
 277  1482.571
 278  1467.532
 279  1422.844
 280  1470.767
 281  1416.198
 282  1380.37
 283  1326.088
 284  1399.599
 285  1369.125
 286  1311.536
 287  1383.974
 288  1418.137
 289  1433.474
 290  1396.236
 291  1335.762
 292  1323.831
 293  1268.465
 294  1264.225
 295  1298.179
 296  1407.685
 297  1424.44
 298  1465.253
 299  1463.183
 300  1360.729
 301  1437.132
 302  1507.509
 303  1519.787
 304  1473.661
 305  1393.628
 306  1395.158
 307  1330.376
 308  1398.036
 309  1464.013
 310  1471.329
 311  1364.082
 312  1375.928
 313  1348.167
 314  1291.262
 315  1302.421
 316  1293.469
 317  1400.835
 318  1430.862
 319  1447.304
 320  1492.235
 321  1496.561
 322  1477.463
 323  1460.974
 324  1479.2
 325  1461.299
 326  1444.579
 327  1357.8
 328  1421.892
 329  1286.88
 330  1273.644
 331  1332.496
 332  1347.972
 333  1390.831
 334  1401.484
 335  1376.424
 336  1383.851
 337  1477.657
 338  1475.173
 339  1434.573
 340  1376.871
 341  1333.859
 342  1478.747
 343  1502.246
 344  1520.997
 345  1532.295
 346  1385.22
 347  1411.914
 348  1429.184
 349  1477.894
 350  1493.946
 351  1463.611
 352  1453.158
 353  1470.207
 354  1338.066
 355  1333.847
 356  1404.139
 357  1416.667
 358  1380.11
 359  1409.249
 360  1368.527
 361  1296.148
 362  1384.716
 363  1492.489
 364  1391.365
 365  1399.99
 366  1371.783
 367  1369.043
 368  1309.425
 369  1337.251
 370  1257.687
 371  1128.28
 372  1218.316
 373  1345.353
 374  1394.069
 375  1303.49
 376  1372.616
 377  1524.956
 378  1422.15
 379  1289.262
 380  1296.118
 381  1383.692
 382  1344.49
 383  1314.596
 384  1414.323
 385  1418.542
 386  1336.442
 387  1360.735
 388  1402.423
 389  1429.608
 390  1398.115
 391  1333.323
 392  1341.282
 393  1326.937
 394  1261.216
 395  1356.573
 396  1387.474
 397  1400.173
 398  1491.19
 399  1379.742
 400  1259.627
 401  1327.53
 402  1397.008
 403  1450.705
 404  1371.944
 405  1431.133
 406  1461.04
 407  1396.808
 408  1295.417
 409  1258.624
 410  1447.4
 411  1381.976
 412  1364.486
 413  1312.866
 414  1271.271
 415  1321.997
 416  1367.206
 417  1435.227
 418  1317.375
 419  1317.152
 420  1347.553
 421  1318.942
 422  1310.447
 423  1245.116
 424  1331.38
 425  1522.563
 426  1421.312
 427  1301.546
 428  1181.224
 429  1291.547
 430  1325.112
 431  1431.85
 432  1366.959
 433  1290.557
 434  1329.053
 435  1350.525
 436  1285.533
 437  1276.848
 438  1343.64
 439  1328.696
 440  1266.513
 441  1314.279
 442  1233.768
 443  1231.876
 444  1241.527
 445  1409.121
 446  1497.92
 447  1429.272
 448  1245.991
 449  1337.777
 450  1434.22
 451  1407.7
 452  1416.005
 453  1431.421
 454  1420.382
 455  1261.981
 456  1361.686
 457  1369.781
 458  1260.615
 459  1378.666
 460  1336.31
 461  1258.157
 462  1339.906
 463  1416.416
 464  1467.784
 465  1401.21
 466  1358.329
 467  1315.34
 468  1286.224
 469  1325.264
 470  1286.227
 471  1263.498
 472  1377.539
 473  1387.008
 474  1452.895
 475  1360.951
 476  1302.476
 477  1318.133
 478  1292.248
 479  1230.911
 480  1265.679
 481  1271.166
 482  1366.528
 483  1303.757
 484  1233.731
 485  1360.973
 486  1439.714
 487  1373.939
 488  1358.427
 489  1321.221
 490  1252.072
 491  1227.269
 492  1275.977
 493  1298.892
 494  1283.117
 495  1249.77
 496  1302.551
 497  1210.209
 498  1280.32
 499  1399.962
 500  1471.359
 501  1474.506
 502  1346.263
 503  1333.285
 504  1306.543
 505  1311.505
 506  1365.484
 507  1518.541
 508  1577.688
 509  1556.753
 510  1586.814
 511  1667.413
