# Input file       =  1200514251.114862_cleaned.dat
# Candidate        =  PSR_0332+5434
# Telescope        =  AR
# Epoch_topo       =  58138.840661051647
# Epoch_bary       =  N/A
# T_sample         =  0.002
# Data Folded      =  7340032
# Data Avg         =  0.0917385822037049
# Data StdDev      =  1.00035363085905 
# Profile Bins     =  512
# Profile Avg      =  1315.1622598329  
# Profile StdDev   =  119.775377673277 
# Reduced chi-sqr  =  0.770
# Prob(Noise)      <  1   (~0.0 sigma)
# P_topo (ms)      =  714.570645531102  +/- 0.00025
# P'_topo (s/s)    =  -0                +/- 1.32e-10
# P''_topo (s/s^2) =  0                 +/- 5.84e-14
# P_bary (ms)      =  N/A
# P'_bary (s/s)    =  N/A
# P''_bary (s/s^2) =  N/A
# P_orb (s)        =  N/A
# asin(i)/c (s)    =  N/A
# eccentricity     =  N/A
# w (rad)          =  N/A
# T_peri           =  N/A
######################################################
   0  1626.123
   1  1513.653
   2  1521.059
   3  1265.444
   4  1288.451
   5  1283.092
   6  1284.61
   7  1244.539
   8  1263.531
   9  1320.864
  10  1241.265
  11  1392.203
  12  1348.49
  13  1393.503
  14  1323.343
  15  1339.143
  16  1214.745
  17  1224.834
  18  1367.961
  19  1354.981
  20  1317.737
  21  1346.665
  22  1238.228
  23  1197.06
  24  1157.612
  25  1235.92
  26  1220.58
  27  1310.509
  28  1434.719
  29  1413.932
  30  1445.507
  31  1349.466
  32  1342.222
  33  1277.795
  34  1235.428
  35  1250.743
  36  1380.628
  37  1414.102
  38  1485.603
  39  1336.627
  40  1345.267
  41  1269.387
  42  1173.589
  43  1188.243
  44  1230.495
  45  1373.377
  46  1355.96
  47  1334.013
  48  1215.937
  49  1324.406
  50  1324.392
  51  1271.01
  52  1225.404
  53  1181.666
  54  1333.456
  55  1312.029
  56  1396.9
  57  1307.205
  58  1383.956
  59  1392.449
  60  1314.395
  61  1266.631
  62  1373.852
  63  1487.892
  64  1410.988
  65  1365.785
  66  1223.205
  67  1161.268
  68  1234.267
  69  1193.946
  70  1209.455
  71  1224.689
  72  1254.403
  73  1248.174
  74  1223.19
  75  1261.002
  76  1317.063
  77  1324.027
  78  1268.375
  79  1198.78
  80  1273.503
  81  1326.165
  82  1366.447
  83  1358.28
  84  1322.733
  85  1250.352
  86  1239.696
  87  1266.035
  88  1231.731
  89  1242.951
  90  1293.082
  91  1222.535
  92  1260.23
  93  1278.554
  94  1192.86
  95  1271.538
  96  1224.32
  97  1302.214
  98  1227.397
  99  1305.99
 100  1209.524
 101  1266.137
 102  1277.503
 103  1259.061
 104  1231.863
 105  1241.037
 106  1343.407
 107  1344.568
 108  1307.141
 109  1352.484
 110  1324.067
 111  1313.566
 112  1280.334
 113  1222.407
 114  1256.901
 115  1295.315
 116  1350.13
 117  1278.858
 118  1271.572
 119  1422.155
 120  1451.93
 121  1420.46
 122  1441.806
 123  1306.402
 124  1221.413
 125  1269.175
 126  1325.511
 127  1263.348
 128  1263.938
 129  1339.724
 130  1268.431
 131  1315.679
 132  1296.596
 133  1281.808
 134  1289.742
 135  1332.318
 136  1398.842
 137  1358.515
 138  1415.651
 139  1375.521
 140  1418.91
 141  1383.535
 142  1340.598
 143  1265.396
 144  1253.99
 145  1269.532
 146  1300.501
 147  1300.347
 148  1346.949
 149  1401.789
 150  1436.007
 151  1457.708
 152  1413.161
 153  1317.288
 154  1303.358
 155  1306.505
 156  1320.254
 157  1323.836
 158  1344.976
 159  1409.943
 160  1407.835
 161  1320.358
 162  1342.817
 163  1403.271
 164  1348.029
 165  1302.348
 166  1272.605
 167  1211.776
 168  1197.825
 169  1295.297
 170  1396.801
 171  1385.341
 172  1418.332
 173  1342.296
 174  1343.037
 175  1284.137
 176  1300.918
 177  1268.774
 178  1399.236
 179  1428.319
 180  1312.386
 181  1312.507
 182  1193.303
 183  1309.74
 184  1248.786
 185  1240.895
 186  1290.49
 187  1298.479
 188  1340.958
 189  1344.012
 190  1296.832
 191  1284.376
 192  1392.954
 193  1352.021
 194  1330.998
 195  1352.838
 196  1313.608
 197  1378.721
 198  1363.036
 199  1213.689
 200  1291.176
 201  1345.615
 202  1313.633
 203  1269.177
 204  1306.206
 205  1326.966
 206  1331.656
 207  1277.702
 208  1312.202
 209  1251.408
 210  1218.849
 211  1292.958
 212  1362.115
 213  1391.606
 214  1280.675
 215  1339.585
 216  1353.192
 217  1267.611
 218  1272.074
 219  1268.374
 220  1210.106
 221  1241.52
 222  1294.029
 223  1375.418
 224  1393.82
 225  1252.136
 226  1368.439
 227  1332.353
 228  1366.157
 229  1295.583
 230  1279.688
 231  1308.351
 232  1308.943
 233  1324.88
 234  1266.565
 235  1360.135
 236  1391.457
 237  1455.08
 238  1339.962
 239  1344.891
 240  1363.248
 241  1339.518
 242  1409.297
 243  1380.564
 244  1326.006
 245  1341.258
 246  1327.595
 247  1299.447
 248  1227.135
 249  1275.342
 250  1460.984
 251  1463.193
 252  1373.402
 253  1330.389
 254  1340.039
 255  1344.734
 256  1375.494
 257  1307.716
 258  1340.566
 259  1318.332
 260  1290.297
 261  1252.788
 262  1341.17
 263  1293.676
 264  1312.328
 265  1332.334
 266  1288.619
 267  1279.49
 268  1268.274
 269  1292.59
 270  1244.308
 271  1276.39
 272  1344.213
 273  1415.997
 274  1400.27
 275  1232.178
 276  1138.756
 277  1347.496
 278  1458.201
 279  1529.515
 280  1442.738
 281  1321.722
 282  1289.78
 283  1292.264
 284  1325.963
 285  1356.115
 286  1348.369
 287  1321.351
 288  1303.513
 289  1328.099
 290  1378.484
 291  1446.801
 292  1484.887
 293  1417.443
 294  1442.169
 295  1333.378
 296  1344.702
 297  1408.135
 298  1442.184
 299  1428.394
 300  1386.935
 301  1368.903
 302  1326.602
 303  1391.739
 304  1273.934
 305  1238.212
 306  1286.072
 307  1255.154
 308  1209.319
 309  1090.996
 310  1183.268
 311  1140.385
 312  1225.018
 313  1201.578
 314  1146.132
 315  1143.749
 316  1119.243
 317  1218.406
 318  1152.057
 319  1135.057
 320  1177.736
 321  1259.918
 322  1358.974
 323  1332.014
 324  1351.417
 325  1286.738
 326  1336.797
 327  1310.419
 328  1255.367
 329  1402.602
 330  1366.049
 331  1383.707
 332  1277.536
 333  1243.694
 334  1249.04
 335  1232.776
 336  1287.863
 337  1369.177
 338  1257.824
 339  1235.5
 340  1246.265
 341  1225.196
 342  1274.086
 343  1329.553
 344  1408.79
 345  1386.85
 346  1471.835
 347  1406.604
 348  1342.545
 349  1265.132
 350  1287.718
 351  1358.579
 352  1258.644
 353  1282.078
 354  1243.675
 355  1406.952
 356  1422.83
 357  1289.587
 358  1165.407
 359  1202.338
 360  1272.46
 361  1294.116
 362  1320.953
 363  1351.928
 364  1315.689
 365  1378.732
 366  1432.217
 367  1319.104
 368  1257.718
 369  1260.692
 370  1275.5
 371  1212.497
 372  1319.322
 373  1476.598
 374  1340.879
 375  1268.599
 376  1243.024
 377  1281.162
 378  1258.984
 379  1284.56
 380  1320.26
 381  1281.414
 382  1294.916
 383  1388.231
 384  1331.523
 385  1403.319
 386  1360.403
 387  1450.205
 388  1344.147
 389  1318.99
 390  1257.123
 391  1264.973
 392  1208.576
 393  1193.121
 394  1336.689
 395  1192.125
 396  1142.522
 397  1208.499
 398  1376.4
 399  1318.304
 400  1235.471
 401  1290.698
 402  1330.552
 403  1293.512
 404  1300.439
 405  1341.753
 406  1293.804
 407  1257.698
 408  1353.871
 409  1367.408
 410  1272.912
 411  1331.796
 412  1432.268
 413  1327.099
 414  1247.381
 415  1275.206
 416  1296.56
 417  1267.72
 418  1274.336
 419  1337.234
 420  1233.549
 421  1260.836
 422  1386.467
 423  1331.742
 424  1218.962
 425  1323.295
 426  1288.531
 427  1253.985
 428  1317.183
 429  1383.322
 430  1375.297
 431  1323.024
 432  1328.296
 433  1259.678
 434  1276.598
 435  1252.41
 436  1314.282
 437  1326.734
 438  1228.132
 439  1222.228
 440  1278.124
 441  1417.518
 442  1336.236
 443  1279.115
 444  1307.666
 445  1318.198
 446  1408.453
 447  1458.451
 448  1417.29
 449  1339.176
 450  1323.706
 451  1392.907
 452  1319.806
 453  1302.122
 454  1345.411
 455  1361.115
 456  1394.66
 457  1295.629
 458  1232.12
 459  1302.853
 460  1338.523
 461  1294.517
 462  1397.933
 463  1396.466
 464  1339.061
 465  1246.015
 466  1227.6
 467  1204.491
 468  1240.957
 469  1461.259
 470  1442.573
 471  1312.652
 472  1255.249
 473  1446.926
 474  1323.256
 475  1370.899
 476  1301.103
 477  1323.715
 478  1274.275
 479  1281.429
 480  1369.056
 481  1340.972
 482  1316.117
 483  1381.512
 484  1367.673
 485  1274.114
 486  1103.293
 487  1256.061
 488  1397.403
 489  1393.127
 490  1354.633
 491  1341.465
 492  1315.921
 493  1279.187
 494  1342.955
 495  1374.377
 496  1294.989
 497  1251.837
 498  1352.017
 499  1352.207
 500  1324.857
 501  1322.183
 502  1373.489
 503  1329.143
 504  1301.205
 505  1386.195
 506  1395.881
 507  1360.994
 508  1347.604
 509  1475.446
 510  1593.63
 511  1731.37
