# Input file       =  1202136489.108346_cleaned.dat
# Candidate        =  PSR_0332+5434
# Telescope        =  AR
# Epoch_topo       =  58157.616563754003
# Epoch_bary       =  N/A
# T_sample         =  0.002
# Data Folded      =  7340032
# Data Avg         =  0.0381034637606548
# Data StdDev      =  1.00009118205778 
# Profile Bins     =  512
# Profile Avg      =  546.280713241104 
# Profile StdDev   =  119.743953881407 
# Reduced chi-sqr  =  0.861
# Prob(Noise)      <  0.99   (~0.0 sigma)
# P_topo (ms)      =  714.578560261985  +/- 0.000491
# P'_topo (s/s)    =  -0                +/- 2.59e-10
# P''_topo (s/s^2) =  0                 +/- 1.14e-13
# P_bary (ms)      =  N/A
# P'_bary (s/s)    =  N/A
# P''_bary (s/s^2) =  N/A
# P_orb (s)        =  N/A
# asin(i)/c (s)    =  N/A
# eccentricity     =  N/A
# w (rad)          =  N/A
# T_peri           =  N/A
######################################################
   0  1041.005
   1  1159.591
   2  985.5709
   3  662.9296
   4  578.5748
   5  573.6129
   6  549.4005
   7  531.6088
   8  514.7198
   9  488.0377
  10  529.7161
  11  570.0211
  12  502.6888
  13  570.686
  14  647.9788
  15  595.3734
  16  602.6796
  17  584.7211
  18  565.5446
  19  611.5094
  20  606.3611
  21  508.478
  22  559.3125
  23  577.8232
  24  597.4612
  25  593.7774
  26  591.0869
  27  632.3262
  28  605.6833
  29  594.315
  30  560.5992
  31  514.8899
  32  643.8036
  33  599.7355
  34  564.7554
  35  503.9711
  36  459.5444
  37  406.4352
  38  502.7081
  39  618.1533
  40  504.1329
  41  446.3499
  42  460.5055
  43  509.5052
  44  546.8867
  45  461.3784
  46  428.7704
  47  568.8856
  48  569.348
  49  517.3058
  50  479.3557
  51  617.8736
  52  605.8983
  53  512.7841
  54  607.5504
  55  658.1334
  56  575.8745
  57  579.8006
  58  538.6765
  59  530.2398
  60  555.9596
  61  517.7751
  62  591.5915
  63  609.5433
  64  597.5586
  65  615.8759
  66  541.3713
  67  576.4673
  68  590.694
  69  577.8884
  70  500.8775
  71  572.6016
  72  526.7412
  73  548.0276
  74  577.4504
  75  554.2864
  76  546.8348
  77  524.6774
  78  472.7303
  79  571.3854
  80  580.1555
  81  579.6591
  82  597.2428
  83  557.238
  84  490.6801
  85  607.3646
  86  476.9353
  87  486.0103
  88  488.9818
  89  502.6138
  90  548.9846
  91  518.865
  92  555.6887
  93  533.2078
  94  487.6509
  95  625.9531
  96  533.3221
  97  538.7542
  98  503.1261
  99  530.8693
 100  519.3197
 101  526.2801
 102  572.0042
 103  555.2849
 104  465.5257
 105  492.5645
 106  537.9919
 107  565.8167
 108  536.5684
 109  671.1752
 110  595.8501
 111  495.2158
 112  573.5716
 113  524.0976
 114  381.3066
 115  404.7335
 116  503.0077
 117  517.3248
 118  575.4861
 119  563.1212
 120  516.3304
 121  464.1595
 122  542.4291
 123  483.0066
 124  406.8275
 125  572.1302
 126  648.4598
 127  587.1469
 128  568.3089
 129  596.3693
 130  719.6179
 131  652.974
 132  598.5569
 133  582.8614
 134  580.0679
 135  558.5165
 136  607.0801
 137  671.1949
 138  601.1946
 139  672.2638
 140  631.8939
 141  499.4494
 142  480.0416
 143  591.142
 144  597.4945
 145  499.2551
 146  502.907
 147  601.9027
 148  568.9761
 149  557.8389
 150  524.2369
 151  516.0123
 152  584.5965
 153  540.3309
 154  535.4398
 155  555.6801
 156  597.2158
 157  646.1097
 158  711.8776
 159  647.918
 160  681.317
 161  563.0958
 162  554.4533
 163  516.0992
 164  549.8179
 165  586.4156
 166  580.4523
 167  558.2989
 168  447.2277
 169  396.9009
 170  473.7219
 171  522.7972
 172  537.8124
 173  605.7427
 174  589.6519
 175  530.9099
 176  556.9541
 177  469.0562
 178  534.486
 179  405.4351
 180  427.8481
 181  507.893
 182  494.3547
 183  519.4937
 184  470.3013
 185  473.44
 186  493.5688
 187  519.1552
 188  418.5285
 189  490.2724
 190  448.2195
 191  545.5602
 192  560.378
 193  561.6344
 194  529.2033
 195  488.6921
 196  525.7597
 197  559.6548
 198  536.2253
 199  573.2151
 200  428.9308
 201  544.3323
 202  471.1224
 203  517.7595
 204  549.3561
 205  533.2347
 206  551.0177
 207  500.5178
 208  556.3759
 209  546.2186
 210  477.0366
 211  487.1735
 212  507.4221
 213  567.429
 214  597.1567
 215  495.446
 216  501.7238
 217  489.7165
 218  545.0214
 219  501.1993
 220  560.3809
 221  591.9351
 222  523.1165
 223  658.3755
 224  524.9761
 225  532.9506
 226  477.3358
 227  465.2393
 228  442.6123
 229  578.965
 230  639.3511
 231  554.2235
 232  562.8987
 233  516.8973
 234  529.3011
 235  533.1748
 236  614.9986
 237  569.2059
 238  626.2778
 239  604.3572
 240  487.6197
 241  450.1253
 242  479.0051
 243  522.676
 244  571.186
 245  521.2355
 246  556.28
 247  593.7162
 248  623.6348
 249  550.3669
 250  568.7873
 251  613.7173
 252  543.3185
 253  456.8473
 254  589.6107
 255  686.7978
 256  606.1228
 257  584.3461
 258  592.4697
 259  589.8574
 260  592.9185
 261  556.2275
 262  553.1838
 263  509.4029
 264  552.9623
 265  542.6727
 266  470.2377
 267  380.0346
 268  489.2661
 269  515.2494
 270  495.4213
 271  531.0657
 272  514.4131
 273  508.7045
 274  510.8788
 275  563.8586
 276  521.8218
 277  435.5779
 278  489.6817
 279  675.8575
 280  717.274
 281  593.2381
 282  655.6396
 283  631.3951
 284  542.5525
 285  620.6752
 286  614.2942
 287  584.9913
 288  505.4373
 289  531.3966
 290  479.3889
 291  489.6585
 292  564.9106
 293  602.5681
 294  556.7435
 295  506.4343
 296  562.532
 297  697.1328
 298  629.3546
 299  557.3035
 300  581.794
 301  531.8051
 302  526.6149
 303  541.6385
 304  659.6295
 305  572.5356
 306  562.3292
 307  619.1318
 308  587.2399
 309  619.7784
 310  613.5774
 311  580.2397
 312  590.0249
 313  478.3889
 314  511.1165
 315  436.5273
 316  434.9459
 317  528.9848
 318  611.0912
 319  723.0685
 320  649.3914
 321  617.9425
 322  640.5496
 323  629.7892
 324  535.5941
 325  559.209
 326  586.8486
 327  611.3813
 328  602.3506
 329  495.6805
 330  451.8999
 331  487.2616
 332  529.27
 333  537.5297
 334  446.4236
 335  368.0915
 336  463.5753
 337  479.6285
 338  560.6389
 339  517.4216
 340  514.7585
 341  541.0539
 342  481.8786
 343  431.6192
 344  477.5086
 345  477.8812
 346  428.0352
 347  514.1375
 348  548.806
 349  540.1809
 350  515.6428
 351  476.2587
 352  466.2339
 353  501.9102
 354  461.9078
 355  456.5501
 356  521.1432
 357  499.2451
 358  398.1621
 359  424.1498
 360  387.8469
 361  364.5586
 362  505.6162
 363  524.7431
 364  455.4854
 365  445.8376
 366  517.3428
 367  482.2445
 368  440.7292
 369  409.8372
 370  430.8118
 371  466.4376
 372  505.6829
 373  502.2306
 374  555.644
 375  539.1085
 376  487.0132
 377  409.9073
 378  415.3029
 379  497.2897
 380  475.3287
 381  531.368
 382  511.231
 383  521.7316
 384  553.5728
 385  503.2106
 386  514.5692
 387  507.763
 388  534.8936
 389  627.1832
 390  506.5573
 391  502.51
 392  537.8979
 393  489.3657
 394  487.2934
 395  420.3699
 396  506.1416
 397  566.2665
 398  524.5171
 399  431.0581
 400  459.6129
 401  527.4865
 402  496.4081
 403  519.9574
 404  472.0991
 405  447.4602
 406  427.2905
 407  507.85
 408  573.5646
 409  512.8783
 410  569.4302
 411  530.7342
 412  496.6677
 413  536.6995
 414  541.4738
 415  520.2385
 416  521.2082
 417  516.0395
 418  467.3842
 419  513.6993
 420  487.0275
 421  567.2389
 422  488.9695
 423  364.0111
 424  464.6516
 425  535.0323
 426  519.4368
 427  392.2103
 428  447.7524
 429  537.8829
 430  591.3172
 431  574.813
 432  463.2747
 433  495.0704
 434  587.3585
 435  616.1415
 436  573.1492
 437  560.751
 438  516.4167
 439  489.2476
 440  438.1786
 441  561.2579
 442  619.7836
 443  625.7086
 444  471.3044
 445  597.47
 446  666.302
 447  551.7255
 448  612.5905
 449  650.0801
 450  580.7216
 451  596.0106
 452  586.6433
 453  551.0839
 454  593.1461
 455  549.2558
 456  567.9327
 457  570.324
 458  548.9036
 459  569.4135
 460  556.5181
 461  543.3108
 462  552.1476
 463  539.8969
 464  638.2034
 465  663.9637
 466  683.3674
 467  583.4955
 468  627.2267
 469  576.7337
 470  626.819
 471  583.735
 472  616.3282
 473  648.5857
 474  633.9534
 475  665.0249
 476  500.9562
 477  418.9057
 478  481.3165
 479  500.7021
 480  640.9726
 481  569.4078
 482  580.0783
 483  562.6949
 484  630.73
 485  505.9177
 486  430.192
 487  473.1893
 488  559.425
 489  476.9295
 490  503.989
 491  636.8345
 492  561.7451
 493  536.5242
 494  541.3842
 495  540.3356
 496  471.6729
 497  455.9592
 498  487.6095
 499  470.058
 500  621.78
 501  614.1203
 502  572.5059
 503  593.589
 504  608.7708
 505  607.6616
 506  661.6892
 507  636.5037
 508  672.1266
 509  774.1856
 510  891.1693
 511  1017.476
