# Input file       =  1202409950.12076_cleaned.dat
# Candidate        =  PSR_0332+5434
# Telescope        =  AR
# Epoch_topo       =  58160.781621768052
# Epoch_bary       =  N/A
# T_sample         =  0.002
# Data Folded      =  7340032
# Data Avg         =  0.0136323499899577
# Data StdDev      =  1.00003812290675 
# Profile Bins     =  512
# Profile Avg      =  195.318089178892 
# Profile StdDev   =  119.737600948147 
# Reduced chi-sqr  =  1.198
# Prob(Noise)      <  0.00134   (~3.0 sigma)
# P_topo (ms)      =  714.579707921212  +/- 0.000318
# P'_topo (s/s)    =  -0                +/- 1.68e-10
# P''_topo (s/s^2) =  0                 +/- 7.41e-14
# P_bary (ms)      =  N/A
# P'_bary (s/s)    =  N/A
# P''_bary (s/s^2) =  N/A
# P_orb (s)        =  N/A
# asin(i)/c (s)    =  N/A
# eccentricity     =  N/A
# w (rad)          =  N/A
# T_peri           =  N/A
######################################################
   0  880.8829
   1  765.9347
   2  563.3504
   3  488.5626
   4  344.8477
   5  92.38426
   6  181.9389
   7  248.2471
   8  181.3334
   9  127.0993
  10  181.6934
  11  212.7726
  12  125.0063
  13  192.6046
  14  179.1774
  15  263.7582
  16  358.3183
  17  279.5089
  18  249.1412
  19  228.0302
  20  165.6993
  21  181.72
  22  177.0357
  23  264.4666
  24  200.3378
  25  184.3746
  26  183.7279
  27  178.3806
  28  91.12305
  29  134.2276
  30  282.6869
  31  312.4807
  32  269.9045
  33  169.7676
  34  187.6303
  35  48.66498
  36  22.67243
  37  142.0508
  38  285.7272
  39  200.2911
  40  156.5303
  41  200.3792
  42  153.3297
  43  271.3796
  44  246.4235
  45  135.0769
  46  174.1162
  47  260.7443
  48  199.843
  49  142.4195
  50  213.86
  51  269.0117
  52  284.2214
  53  275.202
  54  132.1971
  55  51.99088
  56  78.33814
  57  87.32839
  58  188.1386
  59  283.5854
  60  231.7519
  61  164.0167
  62  91.56488
  63  103.3159
  64  135.1836
  65  140.709
  66  183.0713
  67  91.65801
  68  145.4078
  69  137.1949
  70  170.8251
  71  194.1744
  72  172.9762
  73  211.1164
  74  133.5595
  75  193.8345
  76  199.4964
  77  188.9531
  78  251.0046
  79  260.7239
  80  238.8258
  81  106.5058
  82  117.1589
  83  184.9444
  84  208.7335
  85  193.1883
  86  202.9695
  87  211.4061
  88  131.9869
  89  199.8649
  90  76.52544
  91  191.9669
  92  195.7932
  93  188.4881
  94  128.5126
  95  140.3327
  96  197.1336
  97  189.7011
  98  271.8684
  99  227.0061
 100  223.6706
 101  211.2471
 102  269.6026
 103  155.4748
 104  55.28452
 105  36.71849
 106  92.32843
 107  217.0546
 108  171.7435
 109  94.49625
 110  135.1685
 111  215.9539
 112  183.7944
 113  134.9589
 114  207.2433
 115  209.3189
 116  253.2433
 117  232.772
 118  215.0161
 119  201.0295
 120  147.0305
 121  207.507
 122  259.5529
 123  250.3042
 124  107.0421
 125  144.9503
 126  250.6258
 127  177.611
 128  82.78966
 129  124.7287
 130  98.06107
 131  76.46715
 132  218.224
 133  184.0935
 134  160.6057
 135  207.9974
 136  263.291
 137  334.9201
 138  304.4926
 139  189.7759
 140  217.7225
 141  164.8042
 142  137.6082
 143  148.5567
 144  141.2457
 145  237.5685
 146  222.8049
 147  180.6715
 148  323.1279
 149  139.834
 150  204.2511
 151  244.2153
 152  264.2779
 153  202.4715
 154  204.116
 155  178.7963
 156  208.3237
 157  96.55309
 158  106.8407
 159  119.317
 160  205.0451
 161  194.4706
 162  116.2493
 163  87.15208
 164  87.10289
 165  186.0125
 166  123.0784
 167  11.50503
 168  47.99766
 169  78.90505
 170  257.2642
 171  212.5248
 172  177.6212
 173  128.9442
 174  140.742
 175  175.1334
 176  143.2571
 177  2.008189
 178  4.77314
 179  155.8558
 180  43.20226
 181  85.89284
 182  160.2158
 183  231.3792
 184  186.1071
 185  271.4709
 186  209.8246
 187  111.6772
 188  100.712
 189  153.1566
 190  180.8364
 191  77.6068
 192  138.305
 193  44.91537
 194  123.8732
 195  174.6999
 196  53.37193
 197  36.34887
 198  203.4926
 199  242.7406
 200  217.2613
 201  140.7065
 202  52.46494
 203  98.605
 204  150.7554
 205  102.8531
 206  59.66996
 207  222.8348
 208  273.3577
 209  245.72
 210  146.8856
 211  199.8917
 212  237.1985
 213  309.2101
 214  237.8993
 215  185.0846
 216  133.1603
 217  124.3407
 218  235.9361
 219  114.7317
 220  100.3958
 221  57.79187
 222  61.84236
 223  109.9329
 224  -3.563002
 225  109.0876
 226  129.5531
 227  36.81712
 228  124.2195
 229  260.2146
 230  247.2404
 231  258.3253
 232  225.8337
 233  169.3241
 234  156.1747
 235  251.5496
 236  223.5663
 237  94.08334
 238  114.8234
 239  153.2683
 240  113.4811
 241  156.6188
 242  334.7201
 243  128.7128
 244  89.38831
 245  84.16455
 246  144.5667
 247  243.626
 248  275.6259
 249  197.2296
 250  236.7426
 251  246.4866
 252  71.25291
 253  22.23559
 254  223.2392
 255  322.8461
 256  324.8482
 257  278.8358
 258  387.1825
 259  243.1393
 260  132.656
 261  178.1771
 262  281.7385
 263  362.1227
 264  209.6704
 265  232.7321
 266  190.4729
 267  205.047
 268  266.3681
 269  241.0276
 270  221.4518
 271  97.2379
 272  106.9684
 273  223.071
 274  314.9534
 275  360.7752
 276  158.1096
 277  194.0967
 278  200.9859
 279  158.8841
 280  53.93299
 281  162.9108
 282  170.1676
 283  337.5579
 284  229.4863
 285  61.95324
 286  98.83691
 287  150.2279
 288  159.3436
 289  145.7606
 290  188.9097
 291  147.2551
 292  168.6352
 293  149.7042
 294  201.9414
 295  90.92719
 296  133.1814
 297  153.6608
 298  114.0345
 299  208.4328
 300  211.8849
 301  279.2692
 302  358.9493
 303  317.5782
 304  293.1158
 305  272.1338
 306  220.205
 307  213.1147
 308  207.5673
 309  254.7089
 310  245.6283
 311  62.94231
 312  126.5952
 313  167.4782
 314  222.9626
 315  143.5391
 316  100.7199
 317  161.7433
 318  263.0191
 319  330.2076
 320  266.2093
 321  176.3339
 322  91.07429
 323  282.1696
 324  235.1683
 325  198.4568
 326  180.1038
 327  242.6266
 328  256.8605
 329  145.1239
 330  200.0541
 331  254.0062
 332  272.3996
 333  195.6431
 334  162.7518
 335  269.1461
 336  357.4247
 337  201.837
 338  93.92989
 339  47.04329
 340  91.58787
 341  134.5347
 342  117.8815
 343  147.0082
 344  107.7469
 345  49.34455
 346  219.3256
 347  209.0196
 348  94.58009
 349  168.7968
 350  209.7024
 351  235.0138
 352  212.9676
 353  201.5425
 354  198.4316
 355  192.7435
 356  318.3535
 357  357.0726
 358  396.7027
 359  308.4779
 360  136.0226
 361  253.6987
 362  234.1587
 363  168.3173
 364  85.6367
 365  27.82731
 366  201.8432
 367  160.2985
 368  81.90509
 369  116.6021
 370  59.97053
 371  66.85692
 372  174.1723
 373  147.1786
 374  121.3158
 375  139.0236
 376  190.6372
 377  164.8545
 378  85.1824
 379  175.7011
 380  194.8682
 381  220.0349
 382  108.8873
 383  211.8697
 384  75.17691
 385  132.7926
 386  188.8197
 387  229.8454
 388  259.6543
 389  239.7881
 390  225.1666
 391  223.2993
 392  215.3219
 393  140.8631
 394  198.9582
 395  211.1462
 396  312.6394
 397  205.459
 398  166.4537
 399  265.9136
 400  295.742
 401  337.522
 402  283.7271
 403  212.1338
 404  307.0441
 405  232.6781
 406  179.3298
 407  245.6455
 408  257.2943
 409  162.8503
 410  308.5074
 411  290.06
 412  221.4803
 413  251.3686
 414  161.7592
 415  233.8305
 416  209.177
 417  129.8939
 418  164.1912
 419  66.53365
 420  168.9371
 421  112.4993
 422  51.21918
 423  68.2734
 424  230.1712
 425  275.7322
 426  155.0502
 427  258.1812
 428  267.8346
 429  156.4285
 430  141.0952
 431  199.5063
 432  220.0776
 433  169.372
 434  176.8524
 435  169.1228
 436  189.6724
 437  255.6476
 438  332.027
 439  206.1955
 440  150.6642
 441  285.5761
 442  318.8759
 443  284.8922
 444  238.8478
 445  214.8388
 446  327.8395
 447  379.3967
 448  258.5692
 449  266.7944
 450  168.2008
 451  163.6779
 452  106.8351
 453  124.8057
 454  59.7461
 455  133.8605
 456  275.5276
 457  223.4278
 458  98.40633
 459  155.4787
 460  155.002
 461  235.4952
 462  227.6178
 463  172.5634
 464  240.6917
 465  306.4629
 466  268.0759
 467  221.7952
 468  124.4165
 469  203.9094
 470  236.8869
 471  256.3668
 472  290.8109
 473  291.8231
 474  288.4574
 475  179.4452
 476  147.5597
 477  103.3298
 478  118.7607
 479  265.5203
 480  304.9409
 481  304.9282
 482  278.9101
 483  263.8243
 484  217.7652
 485  186.2276
 486  205.8504
 487  208.3092
 488  174.1221
 489  168.4208
 490  185.7707
 491  238.6885
 492  300.9189
 493  314.2088
 494  406.7719
 495  262.5381
 496  161.8449
 497  123.5347
 498  269.8273
 499  215.9122
 500  139.5424
 501  288.0969
 502  217.8521
 503  121.5487
 504  181.6958
 505  296.7979
 506  449.0602
 507  216.4604
 508  136.2299
 509  328.4786
 510  650.4881
 511  879.3643
