# Input file       =  1202725192.1155_cleaned.dat
# Candidate        =  PSR_0332+5434
# Telescope        =  AR
# Epoch_topo       =  58164.430255966436
# Epoch_bary       =  N/A
# T_sample         =  0.002
# Data Folded      =  7208960
# Data Avg         =  -0.0622853390352595
# Data StdDev      =  1.00012976451481 
# Profile Bins     =  512
# Profile Avg      =  -877.000261490227
# Profile StdDev   =  118.674573543905 
# Reduced chi-sqr  =  1.005
# Prob(Noise)      <  0.463   (~0.1 sigma)
# P_topo (ms)      =  714.580061274718  +/- 0.000369
# P'_topo (s/s)    =  -0                +/- 1.98e-10
# P''_topo (s/s^2) =  0                 +/- 8.9e-14
# P_bary (ms)      =  N/A
# P'_bary (s/s)    =  N/A
# P''_bary (s/s^2) =  N/A
# P_orb (s)        =  N/A
# asin(i)/c (s)    =  N/A
# eccentricity     =  N/A
# w (rad)          =  N/A
# T_peri           =  N/A
######################################################
   0  -261.7768
   1  -234.973
   2  -396.5607
   3  -558.5754
   4  -731.5511
   5  -854.7902
   6  -852.0057
   7  -807.9565
   8  -837.4193
   9  -863.3104
  10  -838.535
  11  -824.1571
  12  -786.2684
  13  -806.6887
  14  -912.3615
  15  -897.1386
  16  -861.1879
  17  -908.8637
  18  -996.9029
  19  -961.3192
  20  -858.3813
  21  -783.6525
  22  -847.3075
  23  -906.9409
  24  -909.7327
  25  -978.1268
  26  -890.2494
  27  -901.7276
  28  -898.488
  29  -903.1333
  30  -995.8762
  31  -983.5565
  32  -898.1109
  33  -936.2661
  34  -921.1613
  35  -920.9941
  36  -840.9209
  37  -855.7294
  38  -928.8517
  39  -927.0142
  40  -873.2026
  41  -875.7028
  42  -807.9984
  43  -892.0135
  44  -945.926
  45  -894.6127
  46  -852.0919
  47  -872.2626
  48  -895.5477
  49  -796.8708
  50  -879.4373
  51  -1005.351
  52  -1008.606
  53  -927.6329
  54  -881.5674
  55  -866.7396
  56  -890.1224
  57  -901.111
  58  -852.6138
  59  -790.1949
  60  -761.3864
  61  -871.55
  62  -932.7327
  63  -905.6555
  64  -900.2728
  65  -945.0566
  66  -893.1979
  67  -720.085
  68  -834.0884
  69  -844.9004
  70  -779.6365
  71  -927.2172
  72  -884.0178
  73  -842.4944
  74  -818.8456
  75  -914.967
  76  -973.1291
  77  -1001.756
  78  -880.3001
  79  -854.2834
  80  -778.0291
  81  -848.7009
  82  -870.6331
  83  -768.4722
  84  -924.9745
  85  -912.0019
  86  -857.421
  87  -846.9094
  88  -790.6967
  89  -916.6552
  90  -838.4942
  91  -858.8687
  92  -784.2085
  93  -784.1141
  94  -886.6281
  95  -856.7484
  96  -797.9321
  97  -903.4177
  98  -1004.389
  99  -933.9919
 100  -894.692
 101  -953.5909
 102  -929.61
 103  -857.8596
 104  -976.9453
 105  -980.6671
 106  -825.1367
 107  -788.6974
 108  -842.0919
 109  -859.0341
 110  -808.1895
 111  -864.2857
 112  -965.6599
 113  -916.1665
 114  -912.9695
 115  -973.961
 116  -928.3172
 117  -901.617
 118  -923.0757
 119  -932.9601
 120  -861.5515
 121  -794.7045
 122  -865.1246
 123  -838.979
 124  -900.9162
 125  -884.3491
 126  -843.8853
 127  -817.1859
 128  -844.7289
 129  -901.7159
 130  -810.0375
 131  -823.7409
 132  -920.7905
 133  -986.7105
 134  -916.2864
 135  -734.7833
 136  -832.0707
 137  -913.0305
 138  -950.253
 139  -837.1146
 140  -818.1094
 141  -869.4551
 142  -959.0841
 143  -827.0875
 144  -837.4355
 145  -776.6778
 146  -750.6533
 147  -789.2067
 148  -844.8323
 149  -767.7758
 150  -791.9423
 151  -816.2914
 152  -854.5323
 153  -883.2433
 154  -865.7872
 155  -944.5571
 156  -835.7686
 157  -864.0739
 158  -856.3557
 159  -817.188
 160  -790.0302
 161  -848.3759
 162  -805.2701
 163  -860.1079
 164  -930.694
 165  -922.666
 166  -761.6578
 167  -705.3672
 168  -886.0007
 169  -928.9528
 170  -898.7261
 171  -777.5659
 172  -858.3577
 173  -1032.152
 174  -957.1551
 175  -813.8956
 176  -867.7145
 177  -762.6353
 178  -784.4437
 179  -798.1311
 180  -823.8388
 181  -932.9164
 182  -905.8406
 183  -900.3057
 184  -810.2076
 185  -741.1417
 186  -853.788
 187  -1017.482
 188  -1006.992
 189  -954.6564
 190  -976.7014
 191  -872.9011
 192  -848.0266
 193  -840.2166
 194  -826.7821
 195  -808.9094
 196  -771.4715
 197  -868.7493
 198  -841.8154
 199  -932.6072
 200  -896.3864
 201  -802.7435
 202  -778.9321
 203  -679.0863
 204  -797.7859
 205  -895.2296
 206  -907.2393
 207  -819.9455
 208  -869.731
 209  -934.2701
 210  -898.6178
 211  -880.2788
 212  -877.2183
 213  -725.6523
 214  -786.89
 215  -845.2949
 216  -929.0197
 217  -1067.868
 218  -992.7186
 219  -865.2236
 220  -936.7899
 221  -962.6603
 222  -918.7882
 223  -908.5295
 224  -1042.424
 225  -980.3767
 226  -836.251
 227  -884.9721
 228  -878.5621
 229  -846.1239
 230  -895.4197
 231  -866.222
 232  -875.6347
 233  -870.4464
 234  -861.3788
 235  -836.7449
 236  -970.0887
 237  -944.4677
 238  -881.1993
 239  -823.3773
 240  -934.5463
 241  -873.157
 242  -796.7468
 243  -830.802
 244  -750.5548
 245  -843.1512
 246  -876.483
 247  -803.5093
 248  -775.7138
 249  -841.8334
 250  -844.0742
 251  -921.003
 252  -810.8846
 253  -923.2353
 254  -889.655
 255  -942.2816
 256  -926.6198
 257  -931.3963
 258  -995.1981
 259  -999.8118
 260  -864.7676
 261  -843.6825
 262  -861.4823
 263  -830.9645
 264  -848.4803
 265  -882.1233
 266  -937.5179
 267  -967.8896
 268  -898.3386
 269  -861.0357
 270  -877.5582
 271  -921.0447
 272  -947.4478
 273  -855.0182
 274  -823.2807
 275  -986.7116
 276  -866.032
 277  -762.0154
 278  -817.7214
 279  -811.0455
 280  -807.5722
 281  -901.8112
 282  -1011.644
 283  -989.5991
 284  -918.6747
 285  -983.6873
 286  -986.756
 287  -988.7501
 288  -905.5615
 289  -844.3064
 290  -889.7873
 291  -879.5351
 292  -943.4739
 293  -952.9988
 294  -1022.094
 295  -977.9807
 296  -801.9146
 297  -894.9738
 298  -1009.148
 299  -912.9099
 300  -869.6166
 301  -883.7808
 302  -955.5289
 303  -932.8154
 304  -972.3693
 305  -941.4766
 306  -798.0573
 307  -872.6544
 308  -921.1651
 309  -903.9509
 310  -846.5345
 311  -912.3059
 312  -1009.006
 313  -876.2076
 314  -805.2448
 315  -886.0392
 316  -884.5279
 317  -921.8618
 318  -919.7673
 319  -861.6114
 320  -823.7665
 321  -825.0379
 322  -986.1589
 323  -999.9526
 324  -914.9899
 325  -1004.279
 326  -877.9792
 327  -873.4495
 328  -870.8203
 329  -887.4318
 330  -927.0807
 331  -942.0817
 332  -884.059
 333  -897.8967
 334  -956.3412
 335  -844.1537
 336  -755.6575
 337  -737.8666
 338  -880.8315
 339  -882.7266
 340  -967.2314
 341  -897.9223
 342  -846.4882
 343  -902.0471
 344  -922.3818
 345  -869.7746
 346  -828.0912
 347  -904.9307
 348  -1012.691
 349  -907.7699
 350  -842.2804
 351  -894.8255
 352  -920.0269
 353  -923.5576
 354  -869.5963
 355  -846.1459
 356  -954.9104
 357  -924.9281
 358  -832.564
 359  -903.5458
 360  -875.3398
 361  -962.3677
 362  -967.7614
 363  -921.4627
 364  -843.6899
 365  -838.6789
 366  -944.3179
 367  -959.1736
 368  -919.6205
 369  -914.6656
 370  -974.8293
 371  -912.5021
 372  -947.7531
 373  -954.3306
 374  -923.5399
 375  -773.7297
 376  -705.9643
 377  -831.7355
 378  -950.3311
 379  -901.7662
 380  -897.5174
 381  -776.5689
 382  -727.9791
 383  -840.5318
 384  -923.3747
 385  -921.0386
 386  -787.8884
 387  -759.7583
 388  -904.7119
 389  -938.7044
 390  -951.1597
 391  -893.1815
 392  -909.3135
 393  -859.6478
 394  -888.0485
 395  -922.6612
 396  -822.3384
 397  -788.547
 398  -879.8959
 399  -907.7291
 400  -887.074
 401  -886.9708
 402  -992.8406
 403  -959.4641
 404  -1000.363
 405  -1035.473
 406  -913.2309
 407  -926.4129
 408  -987.5175
 409  -848.3764
 410  -830.4527
 411  -789.6263
 412  -949.8031
 413  -955.8431
 414  -901.59
 415  -958.2162
 416  -928.2319
 417  -914.8971
 418  -824.8878
 419  -886.2697
 420  -953.3234
 421  -812.8292
 422  -818.8387
 423  -851.3747
 424  -900.6492
 425  -925.78
 426  -936.0962
 427  -929.3262
 428  -846.1241
 429  -926.8203
 430  -968.8329
 431  -910.2607
 432  -861.5612
 433  -803.8383
 434  -794.9634
 435  -875.0949
 436  -931.38
 437  -907.8959
 438  -966.6161
 439  -971.5637
 440  -1011.257
 441  -1094.059
 442  -944.1496
 443  -814.5324
 444  -841.4614
 445  -916.4047
 446  -892.6552
 447  -857.0869
 448  -947.7365
 449  -833.2886
 450  -796.1681
 451  -798.3428
 452  -901.945
 453  -898.4995
 454  -854.842
 455  -984.4356
 456  -883.4689
 457  -836.1467
 458  -861.8568
 459  -899.6117
 460  -801.2981
 461  -768.2722
 462  -853.5298
 463  -882.5217
 464  -887.0612
 465  -909.667
 466  -880.7476
 467  -883.0123
 468  -937.9767
 469  -922.305
 470  -813.7672
 471  -916.4218
 472  -910.8912
 473  -902.4117
 474  -898.1207
 475  -895.0193
 476  -918.6922
 477  -904.7747
 478  -971.0741
 479  -945.9621
 480  -898.4984
 481  -878.3216
 482  -841.6481
 483  -833.4644
 484  -855.4937
 485  -939.3261
 486  -952.6311
 487  -907.7016
 488  -885.4758
 489  -897.7468
 490  -929.6532
 491  -864.9524
 492  -900.5509
 493  -872.809
 494  -798.5461
 495  -915.639
 496  -904.2285
 497  -900.64
 498  -791.4241
 499  -799.4093
 500  -898.2664
 501  -907.7111
 502  -955.9012
 503  -938.6927
 504  -873.3191
 505  -896.4363
 506  -903.3101
 507  -856.1115
 508  -699.6763
 509  -582.5011
 510  -495.1636
 511  -349.3513
