# Input file       =  1202050963.106889_cleaned.dat
# Candidate        =  PSR_0332+5434
# Telescope        =  AR
# Epoch_topo       =  58156.626679477878
# Epoch_bary       =  N/A
# T_sample         =  0.002
# Data Folded      =  7340032
# Data Avg         =  0.0458034286988054
# Data StdDev      =  1.00020822908992 
# Profile Bins     =  512
# Profile Avg      =  656.492220330997 
# Profile StdDev   =  119.757968277965 
# Reduced chi-sqr  =  1.039
# Prob(Noise)      <  0.26   (~0.6 sigma)
# P_topo (ms)      =  714.578278944798  +/- 0.000495
# P'_topo (s/s)    =  -0                +/- 2.61e-10
# P''_topo (s/s^2) =  0                 +/- 1.15e-13
# P_bary (ms)      =  N/A
# P'_bary (s/s)    =  N/A
# P''_bary (s/s^2) =  N/A
# P_orb (s)        =  N/A
# asin(i)/c (s)    =  N/A
# eccentricity     =  N/A
# w (rad)          =  N/A
# T_peri           =  N/A
######################################################
   0  1099.926
   1  1137.558
   2  1048.222
   3  793.2061
   4  645.3779
   5  627.5958
   6  593.2275
   7  641.6255
   8  644.8427
   9  545.9766
  10  603.3994
  11  712.57
  12  753.9346
  13  665.3335
  14  671.6848
  15  700.0846
  16  707.7103
  17  697.6956
  18  684.1671
  19  724.5627
  20  790.9022
  21  740.4139
  22  671.4878
  23  732.6099
  24  673.964
  25  691.8401
  26  665.0261
  27  714.1138
  28  616.2515
  29  612.3158
  30  541.9626
  31  549.5768
  32  626.5313
  33  711.8234
  34  692.653
  35  481.1002
  36  607.048
  37  619.7902
  38  517.9136
  39  558.8952
  40  664.2944
  41  643.8178
  42  602.3596
  43  570.579
  44  609.8525
  45  695.765
  46  692.7814
  47  705.2213
  48  645.1344
  49  586.5081
  50  591.5121
  51  542.5374
  52  607.7788
  53  641.0496
  54  761.9716
  55  706.6846
  56  593.0216
  57  590.208
  58  647.6546
  59  640.3704
  60  618.1677
  61  644.4736
  62  766.9342
  63  781.6931
  64  644.921
  65  594.8209
  66  667.8564
  67  710.6906
  68  595.0201
  69  564.819
  70  612.0665
  71  702.9632
  72  699.5162
  73  582.6845
  74  611.0223
  75  609.6846
  76  571.101
  77  681.5036
  78  701.3135
  79  639.1725
  80  621.839
  81  698.1824
  82  683.8723
  83  631.6641
  84  548.6713
  85  477.7273
  86  510.7896
  87  504.8274
  88  529.1887
  89  552.0497
  90  490.1819
  91  554.9583
  92  627.5974
  93  565.9158
  94  493.61
  95  463.9188
  96  553.9863
  97  604.6338
  98  508.362
  99  542.82
 100  577.2025
 101  701.7894
 102  653.0139
 103  653.5842
 104  652.2538
 105  614.0913
 106  610.252
 107  611.2792
 108  692.3246
 109  625.3027
 110  577.517
 111  527.8552
 112  538.0037
 113  467.0206
 114  516.5122
 115  652.8418
 116  712.4041
 117  602.1036
 118  678.2056
 119  669.0162
 120  613.1571
 121  595.6464
 122  649.5285
 123  607.9612
 124  593.4529
 125  570.0828
 126  519.344
 127  570.7824
 128  616.0379
 129  696.5134
 130  604.4291
 131  713.3568
 132  781.5249
 133  745.5645
 134  716.9908
 135  698.8742
 136  661.9581
 137  688.2351
 138  690.2074
 139  570.8671
 140  588.3553
 141  701.7258
 142  624.5019
 143  678.468
 144  615.4741
 145  568.1912
 146  624.7903
 147  594.7982
 148  563.9138
 149  510.4005
 150  538.5316
 151  623.7057
 152  672.5583
 153  572.9882
 154  633.3604
 155  643.9119
 156  658.4554
 157  670.6022
 158  652.2236
 159  633.9518
 160  742.0046
 161  746.0146
 162  735.5848
 163  650.4148
 164  548.8196
 165  610.5685
 166  688.9274
 167  643.15
 168  646.7616
 169  687.1314
 170  706.0935
 171  663.9273
 172  569.2516
 173  650.6476
 174  643.6758
 175  672.7559
 176  786.306
 177  717.2308
 178  705.4452
 179  718.2596
 180  739.1606
 181  806.78
 182  842.5909
 183  707.9462
 184  670.5471
 185  654.2441
 186  685.1724
 187  735.4612
 188  771.9964
 189  747.7897
 190  722.8994
 191  655.045
 192  720.6354
 193  694.5278
 194  678.4929
 195  642.7866
 196  719.9495
 197  647.5746
 198  623.6722
 199  571.4651
 200  680.0009
 201  690.8774
 202  637.725
 203  648.6799
 204  676.6998
 205  530.3781
 206  481.2348
 207  546.1608
 208  545.0696
 209  538.8113
 210  548.7433
 211  679.9133
 212  768.5287
 213  861.0989
 214  646.6313
 215  595.9781
 216  606.6801
 217  676.0261
 218  686.9033
 219  680.0662
 220  716.2604
 221  726.311
 222  738.716
 223  678.0357
 224  624.5238
 225  692.1051
 226  707.6516
 227  702.4463
 228  692.5382
 229  584.9216
 230  580.8271
 231  641.2117
 232  651.6382
 233  677.3083
 234  805.6264
 235  710.9439
 236  728.6106
 237  759.5455
 238  693.9594
 239  595.5131
 240  710.6927
 241  716.8965
 242  685.6782
 243  773.1626
 244  748.1917
 245  776.4528
 246  762.2927
 247  745.8553
 248  751.2666
 249  665.0132
 250  690.8426
 251  684.3618
 252  702.1337
 253  741.9802
 254  677.2827
 255  725.7634
 256  723.3472
 257  702.7065
 258  761.7385
 259  644.3211
 260  603.8793
 261  748.0706
 262  686.8619
 263  738.5898
 264  695.3478
 265  738.1241
 266  691.1315
 267  729.904
 268  761.5864
 269  813.6436
 270  827.7964
 271  756.1748
 272  741.1224
 273  683.317
 274  666.989
 275  634.8702
 276  596.3394
 277  665.1222
 278  694.3925
 279  751.7184
 280  730.8957
 281  668.9445
 282  715.9755
 283  776.7863
 284  833.4387
 285  768.2809
 286  777.8326
 287  702.2356
 288  698.1154
 289  695.0033
 290  779.9307
 291  737.1102
 292  824.4716
 293  764.4142
 294  637.1524
 295  656.029
 296  620.7871
 297  595.2626
 298  608.5081
 299  689.7183
 300  686.8654
 301  754.6389
 302  680.0698
 303  615.2108
 304  646.787
 305  721.1422
 306  616.7301
 307  631.7792
 308  611.5165
 309  656.049
 310  727.9495
 311  680.9389
 312  609.7218
 313  602.6344
 314  693.7045
 315  600.368
 316  672.7332
 317  658.5288
 318  595.1637
 319  667.3896
 320  793.1555
 321  762.9939
 322  713.3903
 323  726.6552
 324  680.7776
 325  702.258
 326  730.5015
 327  734.4125
 328  702.7064
 329  650.8736
 330  604.1182
 331  614.3408
 332  601.0666
 333  612.0913
 334  626.841
 335  641.4539
 336  667.7223
 337  643.1348
 338  627.8441
 339  638.9523
 340  653.2066
 341  660.1493
 342  676.8599
 343  726.6321
 344  745.9244
 345  701.4427
 346  607.6475
 347  657.6448
 348  651.3497
 349  606.5121
 350  721.0599
 351  733.2391
 352  721.5367
 353  760.9796
 354  705.8401
 355  709.5088
 356  695.8253
 357  762.0545
 358  654.5139
 359  557.3207
 360  641.0519
 361  749.0078
 362  651.2166
 363  579.4578
 364  629.4345
 365  603.9847
 366  610.6124
 367  652.7812
 368  693.2458
 369  647.0674
 370  658.4553
 371  627.8938
 372  677.9658
 373  665.6829
 374  686.8586
 375  666.9498
 376  709.021
 377  691.5959
 378  743.5375
 379  767.3641
 380  664.1808
 381  632.4724
 382  672.8051
 383  738.5303
 384  792.3061
 385  785.0372
 386  836.4936
 387  806.6325
 388  717.5693
 389  748.4861
 390  667.9344
 391  676.907
 392  809.0717
 393  782.2905
 394  675.8876
 395  717.3599
 396  669.0687
 397  758.923
 398  772.001
 399  672.6324
 400  726.7409
 401  723.3462
 402  724.9953
 403  669.3168
 404  725.2058
 405  833.4675
 406  654.5477
 407  597.0385
 408  640.8409
 409  680.0972
 410  626.5915
 411  553.7493
 412  664.8826
 413  802.5435
 414  708.479
 415  583.5656
 416  615.8799
 417  611.3992
 418  631.7784
 419  610.8702
 420  575.1899
 421  573.1563
 422  604.7542
 423  574.4992
 424  584.514
 425  603.6124
 426  640.3297
 427  573.3945
 428  611.3134
 429  565.5428
 430  525.2356
 431  536.1124
 432  618.8143
 433  591.4023
 434  577.5138
 435  649.6666
 436  638.3177
 437  695.1271
 438  612.4125
 439  584.7512
 440  574.4545
 441  574.6993
 442  617.6909
 443  569.85
 444  598.8932
 445  575.4451
 446  555.1575
 447  540.8284
 448  487.9005
 449  554.5643
 450  646.8367
 451  665.1312
 452  649.6738
 453  557.0939
 454  455.6313
 455  551.3033
 456  576.8209
 457  659.4412
 458  642.2568
 459  635.9412
 460  571.9563
 461  502.9022
 462  447.7773
 463  566.1423
 464  615.8517
 465  551.3864
 466  547.2094
 467  474.8536
 468  475.7896
 469  493.451
 470  664.9908
 471  632.5401
 472  576.6068
 473  587.6882
 474  550.3367
 475  538.5898
 476  582.6212
 477  584.0571
 478  550.8629
 479  635.9794
 480  672.1024
 481  693.2316
 482  562.2365
 483  498.8961
 484  535.7807
 485  497.6044
 486  534.3662
 487  586.9169
 488  582.1039
 489  577.1791
 490  535.3342
 491  524.2582
 492  563.7819
 493  608.1978
 494  637.1205
 495  668.4947
 496  555.4274
 497  552.153
 498  663.6194
 499  706.3291
 500  580.1703
 501  546.473
 502  571.9681
 503  560.1023
 504  652.6592
 505  674.6594
 506  677.1909
 507  783.7685
 508  880.5138
 509  952.8712
 510  1058.565
 511  1073.802
