# Input file       =  1202050963.106889_cleaned.dat
# Candidate        =  PSR_0332+5434
# Telescope        =  AR
# Epoch_topo       =  58156.626679477878
# Epoch_bary       =  N/A
# T_sample         =  0.002
# Data Folded      =  7340032
# Data Avg         =  0.0458034286988054
# Data StdDev      =  1.00020822908992 
# Profile Bins     =  512
# Profile Avg      =  656.492220306598 
# Profile StdDev   =  119.757968277965 
# Reduced chi-sqr  =  1.037
# Prob(Noise)      <  0.27   (~0.6 sigma)
# P_topo (ms)      =  714.578278915221  +/- 0.000494
# P'_topo (s/s)    =  -0                +/- 2.6e-10
# P''_topo (s/s^2) =  0                 +/- 1.15e-13
# P_bary (ms)      =  N/A
# P'_bary (s/s)    =  N/A
# P''_bary (s/s^2) =  N/A
# P_orb (s)        =  N/A
# asin(i)/c (s)    =  N/A
# eccentricity     =  N/A
# w (rad)          =  N/A
# T_peri           =  N/A
######################################################
   0  1074.411
   1  1121.214
   2  1128.722
   3  929.9507
   4  709.486
   5  629.0556
   6  618.187
   7  599.9094
   8  667.0833
   9  591.1043
  10  558.2961
  11  641.7328
  12  758.2563
  13  714.4745
  14  657.5174
  15  688.4786
  16  698.7757
  17  699.7004
  18  695.7211
  19  692.0968
  20  768.7161
  21  779.7879
  22  692.1305
  23  692.6802
  24  719.4183
  25  665.7042
  26  693.7473
  27  684.1592
  28  688.338
  29  599.2194
  30  586.7856
  31  531.3508
  32  577.4617
  33  664.5364
  34  731.0014
  35  604.7198
  36  472.6911
  37  673.5103
  38  552.6793
  39  538.418
  40  605.0802
  41  671.5169
  42  615.9951
  43  595.2885
  44  566.6172
  45  654.7164
  46  697.3661
  47  695.5272
  48  691.6069
  49  610.2697
  50  585.0074
  51  573.8384
  52  556.5939
  53  634.5344
  54  682.9879
  55  766.6766
  56  654.377
  57  575.1028
  58  608.4092
  59  657.7299
  60  621.8887
  61  627.1827
  62  687.0953
  63  806.5175
  64  717.9496
  65  620.7731
  66  605.035
  67  709.6766
  68  669.5755
  69  548.6982
  70  592.0598
  71  640.056
  72  739.7794
  73  640.9635
  74  585.5986
  75  615.7859
  76  578.7661
  77  610.0176
  78  717.4332
  79  669.3179
  80  618.3754
  81  643.9928
  82  724.2188
  83  639.1995
  84  614.1243
  85  498.9721
  86  497.1598
  87  512.4853
  88  506.2586
  89  542.6988
  90  534.1766
  91  500.314
  92  598.4391
  93  614.3151
  94  515.0623
  95  491.1176
  96  469.1501
  97  625.6667
  98  527.7385
  99  529.6984
 100  548.9651
 101  642.2812
 102  700.011
 103  637.8541
 104  664.0184
 105  630.5215
 106  606.9026
 107  606.9936
 108  643.62
 109  687.7413
 110  600.0467
 111  541.5505
 112  540.5098
 113  498.6298
 114  480.4101
 115  572.09
 116  707.1016
 117  654.2617
 118  615.4189
 119  702.3641
 120  641.7368
 121  608.2058
 122  626.0429
 123  629.5281
 124  595.8312
 125  584.6778
 126  531.6298
 127  538.8328
 128  580.7411
 129  678.8532
 130  643.2804
 131  634.0826
 132  761.8174
 133  786.4821
 134  717.0029
 135  724.4636
 136  658.0831
 137  678.0928
 138  698.5204
 139  660.9713
 140  537.9551
 141  651.6292
 142  677.0933
 143  630.5727
 144  683.3763
 145  555.5046
 146  600.3366
 147  611.7277
 148  589.0004
 149  529.8002
 150  519.5723
 151  563.3168
 152  678.0148
 153  628.3167
 154  581.0639
 155  648.2531
 156  643.8594
 157  665.1417
 158  677.0644
 159  627.5812
 160  676.0661
 161  761.132
 162  738.6338
 163  717.194
 164  589.3127
 165  551.0793
 166  673.3613
 167  665.0605
 168  648.6686
 169  657.0887
 170  693.6749
 171  703.8967
 172  605.6838
 173  610.4668
 174  655.3824
 175  638.8977
 176  731.6971
 177  766.7274
 178  698.6481
 179  709.0034
 180  727.3684
 181  756.8268
 182  842.1578
 183  789.0881
 184  678.6784
 185  665.5933
 186  660.3634
 187  712.1186
 188  745.2994
 189  776.5599
 190  736.6643
 191  680.2888
 192  681.5489
 193  716.5792
 194  699.8192
 195  640.1792
 196  678.6722
 197  697.3046
 198  642.7736
 199  600.8571
 200  598.4611
 201  711.5605
 202  660.83
 203  625.5166
 204  671.48
 205  630.4393
 206  486.4402
 207  506.8769
 208  559.0052
 209  543.0652
 210  532.4792
 211  595.2631
 212  731.1935
 213  813.7188
 214  802.1828
 215  574.9127
 216  614.9772
 217  624.03
 218  696.4329
 219  673.5747
 220  701.0496
 221  721.9876
 222  724.091
 223  724.0128
 224  638.5437
 225  655.6428
 226  708.4067
 227  711.8854
 228  701.7885
 229  651.2852
 230  556.264
 231  609.4557
 232  653.3049
 233  654.535
 234  737.5309
 235  776.7966
 236  693.4308
 237  763.8417
 238  740.1435
 239  642.7261
 240  626.1282
 241  745.9427
 242  677.239
 243  724.325
 244  776.2552
 245  752.8094
 246  795.5554
 247  729.5042
 248  768.5294
 249  697.4908
 250  667.3174
 251  698.8717
 252  675.7951
 253  738.877
 254  718.7875
 255  686.9967
 256  740.334
 257  688.3496
 258  748.2759
 259  720.1095
 260  604.7286
 261  669.1556
 262  725.1568
 263  703.3098
 264  714.7679
 265  715.6174
 266  727.4963
 267  703.2572
 268  743.5432
 269  777.7278
 270  828.4136
 271  802.2455
 272  749.439
 273  712.9682
 274  674.3236
 275  655.9066
 276  622.1868
 277  624.452
 278  675.9033
 279  718.1163
 280  746.1289
 281  706.9359
 282  667.4539
 283  749.8152
 284  803.0161
 285  817.7103
 286  767.9379
 287  748.3073
 288  694.5772
 289  683.8789
 290  739.3374
 291  769.0627
 292  752.6138
 293  841.004
 294  688.9327
 295  640.46
 296  642.7675
 297  617.7241
 298  577.9353
 299  657.1496
 300  689.9684
 301  713.5048
 302  739.4509
 303  633.1335
 304  606.0146
 305  715.4247
 306  668.0921
 307  625.323
 308  620.2805
 309  610.9795
 310  703.1404
 311  719.5027
 312  639.4037
 313  597.4697
 314  651.4586
 315  663.8623
 316  605.2399
 317  682.4706
 318  632.9472
 319  617.0565
 320  725.9871
 321  803.5787
 322  718.1775
 323  728.0042
 324  704.2242
 325  682.0117
 326  711.9283
 327  748.0092
 328  717.2181
 329  691.5742
 330  611.5352
 331  608.7183
 332  619.564
 333  588.4476
 334  627.5875
 335  621.943
 336  676.1337
 337  645.4004
 338  640.3274
 339  624.4904
 340  634.8483
 341  670.4163
 342  652.1595
 343  709.0944
 344  733.5867
 345  737.1391
 346  660.2568
 347  609.6443
 348  689.7321
 349  604.454
 350  656.5509
 351  735.9584
 352  725.5499
 353  745.1456
 354  740.8497
 355  695.9149
 356  700.1937
 357  725.5892
 358  742.5491
 359  596.0437
 360  562.6844
 361  715.0758
 362  718.7229
 363  605.0558
 364  605.1221
 365  623.8077
 366  594.267
 367  612.8066
 368  689.4461
 369  666.8886
 370  662.7154
 371  644.5083
 372  647.5554
 373  669.9057
 374  675.17
 375  681.796
 376  681.9782
 377  698.7592
 378  705.4252
 379  768.1164
 380  740.0466
 381  631.5381
 382  653.1826
 383  683.0491
 384  776.9458
 385  782.1005
 386  808.9692
 387  843.7346
 388  755.1439
 389  730.2396
 390  726.1719
 391  644.7289
 392  746.0909
 393  827.8015
 394  709.2607
 395  701.7159
 396  684.6603
 397  695.7964
 398  784.7172
 399  727.0901
 400  679.0048
 401  744.9979
 402  711.2184
 403  713.8063
 404  658.9673
 405  800.8904
 406  782.4638
 407  601.1915
 408  614.1318
 409  655.1824
 410  674.7592
 411  578.925
 412  579.3462
 413  750.645
 414  778.8283
 415  645.6936
 416  579.2786
 417  630.5468
 418  615.9865
 419  625.3282
 420  598.1888
 421  555.2885
 422  602.3807
 423  592.5775
 424  577.979
 425  582.3307
 426  634.9959
 427  608.7283
 428  581.3629
 429  615.0573
 430  531.5369
 431  527.2287
 432  553.3889
 433  635.9123
 434  556.6135
 435  626.9828
 436  640.8288
 437  662.8317
 438  671.6211
 439  592.0236
 440  578.1665
 441  571.7238
 442  591.2961
 443  606.3673
 444  571.0294
 445  603.8253
 446  552.1082
 447  553.4803
 448  524.9966
 449  500.0655
 450  595.2899
 451  666.7838
 452  658.4463
 453  631.7895
 454  484.6447
 455  495.0524
 456  558.5534
 457  610.0682
 458  664.6151
 459  638.2126
 460  623.5621
 461  538.2327
 462  466.087
 463  483.2615
 464  612.769
 465  578.2242
 466  561.4158
 467  515.267
 468  459.0848
 469  483.5449
 470  554.2815
 471  696.5615
 472  570.1636
 473  601.4174
 474  569.3799
 475  535.0049
 476  560.4422
 477  588.4289
 478  575.3166
 479  573.2978
 480  663.0356
 481  681.6439
 482  651.9952
 483  508.173
 484  523.1599
 485  526.1451
 486  495.0796
 487  573.1019
 488  578.2812
 489  584.979
 490  565.037
 491  523.0461
 492  528.2133
 493  596.2227
 494  599.3688
 495  679.1625
 496  626.8194
 497  536.0771
 498  597.6512
 499  692.5543
 500  670.9907
 501  521.9441
 502  582.9742
 503  544.8948
 504  613.6522
 505  656.7866
 506  675.5754
 507  708.2593
 508  845.6122
 509  904.9316
 510  1003.042
 511  1080.557
