# Input file       =  1202395033.118852_cleaned.dat
# Candidate        =  PSR_0332+5434
# Telescope        =  AR
# Epoch_topo       =  58160.608971283007
# Epoch_bary       =  N/A
# T_sample         =  0.002
# Data Folded      =  7340032
# Data Avg         =  0.0424869302110841
# Data StdDev      =  1.00009295069038 
# Profile Bins     =  512
# Profile Avg      =  609.137672879257 
# Profile StdDev   =  119.744165645159 
# Reduced chi-sqr  =  1.127
# Prob(Noise)      <  0.0245   (~2.0 sigma)
# P_topo (ms)      =  714.579332635339  +/- 0.000457
# P'_topo (s/s)    =  -0                +/- 2.41e-10
# P''_topo (s/s^2) =  0                 +/- 1.06e-13
# P_bary (ms)      =  N/A
# P'_bary (s/s)    =  N/A
# P''_bary (s/s^2) =  N/A
# P_orb (s)        =  N/A
# asin(i)/c (s)    =  N/A
# eccentricity     =  N/A
# w (rad)          =  N/A
# T_peri           =  N/A
######################################################
   0  1192.02
   1  1144.827
   2  1035.467
   3  871.2482
   4  812.5745
   5  758.0497
   6  804.0814
   7  766.6083
   8  638.6929
   9  627.4094
  10  686.1145
  11  661.322
  12  690.1767
  13  564.9283
  14  609.8081
  15  664.0188
  16  685.9706
  17  668.5253
  18  586.7765
  19  569.7919
  20  544.3357
  21  609.7509
  22  633.3105
  23  499.7484
  24  468.4974
  25  510.7497
  26  581.998
  27  599.7513
  28  513.1411
  29  593.3106
  30  681.0381
  31  663.5093
  32  545.8266
  33  493.5759
  34  567.8438
  35  627.611
  36  587.0656
  37  593.9666
  38  596.7167
  39  558.2987
  40  540.4395
  41  552.9926
  42  657.0734
  43  607.1917
  44  617.1257
  45  658.5862
  46  669.7792
  47  687.4343
  48  602.4646
  49  631.6346
  50  560.607
  51  618.8375
  52  701.6474
  53  625.3232
  54  596.7882
  55  523.621
  56  467.5293
  57  508.435
  58  542.387
  59  538.9697
  60  551.9456
  61  549.7391
  62  529.4252
  63  454.8653
  64  509.0546
  65  565.2465
  66  572.2007
  67  492.7257
  68  533.9357
  69  501.7956
  70  476.4009
  71  538.9946
  72  613.3298
  73  652.6
  74  660.9844
  75  636.4352
  76  737.5419
  77  659.3374
  78  606.181
  79  633.0455
  80  672.3799
  81  665.0656
  82  694.1266
  83  646.7581
  84  682.397
  85  702.0943
  86  690.1895
  87  739.9982
  88  662.3579
  89  739.8911
  90  803.4738
  91  729.723
  92  717.0173
  93  704.2414
  94  638.4255
  95  668.0392
  96  659.6644
  97  664.9313
  98  579.0145
  99  542.0024
 100  579.0195
 101  572.759
 102  608.1263
 103  791.9536
 104  810.2019
 105  615.507
 106  694.7169
 107  566.6561
 108  598.978
 109  704.6641
 110  683.4723
 111  663.0474
 112  622.6522
 113  561.3597
 114  428.5946
 115  441.7844
 116  699.0247
 117  723.275
 118  605.7553
 119  622.6487
 120  553.7083
 121  516.2606
 122  525.0226
 123  519.2212
 124  478.0607
 125  495.2846
 126  533.1039
 127  513.3533
 128  603.3962
 129  625.6867
 130  722.0851
 131  691.0239
 132  582.9907
 133  537.3695
 134  535.9604
 135  498.7119
 136  599.0148
 137  660.7697
 138  625.8961
 139  569.0715
 140  619.5384
 141  564.215
 142  585.9968
 143  702.359
 144  767.4905
 145  644.5917
 146  523.0352
 147  592.1017
 148  619.1337
 149  594.2786
 150  598.581
 151  542.2303
 152  464.3577
 153  539.7236
 154  595.353
 155  555.2512
 156  392.4436
 157  435.947
 158  522.1937
 159  592.096
 160  564.9786
 161  512.8275
 162  563.58
 163  530.3696
 164  522.9955
 165  506.9195
 166  449.9159
 167  520.1931
 168  501.1655
 169  612.1653
 170  619.8043
 171  643.6032
 172  580.7194
 173  545.1184
 174  557.4119
 175  619.2509
 176  673.6075
 177  582.1284
 178  533.0152
 179  596.5799
 180  581.8085
 181  403.1273
 182  464.8782
 183  479.1419
 184  437.5479
 185  494.2209
 186  561.782
 187  616.5503
 188  606.3711
 189  588.8343
 190  658.5914
 191  447.7795
 192  474.1839
 193  564.1582
 194  534.4968
 195  595.8243
 196  540.3248
 197  580.1718
 198  552.8004
 199  542.822
 200  477.7983
 201  564.7905
 202  619.9255
 203  585.6248
 204  504.3654
 205  676.4637
 206  634.9321
 207  648.499
 208  643.8417
 209  554.3459
 210  573.4174
 211  686.949
 212  713.4468
 213  636.7845
 214  655.592
 215  632.6835
 216  632.2889
 217  743.0938
 218  776.2194
 219  610.0576
 220  548.5568
 221  651.3406
 222  706.7611
 223  696.0049
 224  618.2881
 225  509.672
 226  642.2615
 227  642.6332
 228  647.3804
 229  629.7018
 230  604.2795
 231  545.3845
 232  552.3124
 233  579.5407
 234  706.4701
 235  662.9796
 236  696.908
 237  711.9427
 238  665.0989
 239  605.8791
 240  649.0858
 241  724.786
 242  669.0844
 243  706.5834
 244  685.4221
 245  634.2281
 246  700.0179
 247  724.0303
 248  643.9536
 249  590.5909
 250  621.0389
 251  735.6019
 252  808.0994
 253  751.0286
 254  688.1212
 255  678.4598
 256  697.669
 257  643.0645
 258  677.0786
 259  664.3528
 260  686.0585
 261  652.0552
 262  649.8499
 263  604.1317
 264  645.1597
 265  719.4442
 266  626.6699
 267  598.6898
 268  624.5561
 269  612.1567
 270  590.51
 271  579.8364
 272  543.7018
 273  599.3376
 274  719.9033
 275  569.0976
 276  573.5607
 277  647.5904
 278  642.6954
 279  603.4355
 280  630.6792
 281  588.0359
 282  649.2211
 283  786.3922
 284  650.4316
 285  621.3919
 286  578.7924
 287  538.1987
 288  632.0314
 289  676.4687
 290  623.0743
 291  621.3377
 292  568.0326
 293  624.8746
 294  596.6367
 295  639.956
 296  589.7665
 297  552.3331
 298  624.6599
 299  505.4913
 300  641.5295
 301  694.667
 302  722.3817
 303  702.2679
 304  622.1837
 305  616.942
 306  590.4618
 307  540.3317
 308  629.7189
 309  735.5892
 310  741.4869
 311  624.5558
 312  553.8549
 313  621.1999
 314  724.1245
 315  668.687
 316  595.9598
 317  564.5754
 318  523.2683
 319  482.2271
 320  511.1244
 321  501.0762
 322  521.779
 323  563.2269
 324  686.9752
 325  736.4041
 326  697.7145
 327  617.4597
 328  615.2554
 329  608.6467
 330  659.6762
 331  605.0082
 332  502.4041
 333  551.8737
 334  563.5599
 335  620.4256
 336  585.8959
 337  536.5383
 338  614.8726
 339  635.7009
 340  624.8426
 341  523.4019
 342  555.6096
 343  638.3268
 344  676.5668
 345  573.4124
 346  561.762
 347  504.4631
 348  458.7516
 349  534.6354
 350  553.3341
 351  561.9254
 352  552.4794
 353  559.9654
 354  506.3057
 355  434.8996
 356  485.5897
 357  543.4745
 358  532.8043
 359  503.8899
 360  466.6667
 361  551.1815
 362  581.8497
 363  475.6638
 364  419.4281
 365  486.1143
 366  503.5424
 367  547.3562
 368  585.9412
 369  588.8082
 370  586.0969
 371  554.0084
 372  616.0616
 373  540.1666
 374  571.2578
 375  675.6821
 376  744.0653
 377  740.1667
 378  780.7336
 379  701.8156
 380  660.0304
 381  591.0828
 382  652.8237
 383  682.1513
 384  666.6935
 385  638.3951
 386  668.4226
 387  644.9804
 388  527.9805
 389  599.0756
 390  640.6035
 391  614.4942
 392  526.939
 393  627.2816
 394  722.1494
 395  620.8715
 396  612.1852
 397  639.8209
 398  596.4478
 399  545.0709
 400  570.3366
 401  576.6323
 402  612.978
 403  580.2418
 404  503.3386
 405  539.3447
 406  643.4951
 407  581.3487
 408  565.325
 409  580.8369
 410  656.4965
 411  554.1618
 412  627.9894
 413  645.854
 414  493.4178
 415  505.0116
 416  546.8345
 417  566.6019
 418  621.7185
 419  694.52
 420  675.2027
 421  650.9449
 422  678.9126
 423  619.7812
 424  659.8528
 425  726.574
 426  642.3398
 427  610.9792
 428  619.4625
 429  631.561
 430  623.3663
 431  644.9217
 432  641.0677
 433  628.9703
 434  677.4537
 435  574.0238
 436  687.7963
 437  690.9086
 438  597.8922
 439  616.9963
 440  661.8655
 441  677.554
 442  617.9478
 443  636.6891
 444  602.7218
 445  622.4157
 446  661.4353
 447  591.8354
 448  512.6422
 449  557.2866
 450  547.6735
 451  498.5883
 452  607.6042
 453  624.3552
 454  472.4985
 455  526.5109
 456  608.7107
 457  566.785
 458  546.9276
 459  602.8115
 460  643.4308
 461  654.7556
 462  664.6509
 463  571.2714
 464  575.6713
 465  637.0289
 466  654.3013
 467  586.7508
 468  650.6959
 469  607.9738
 470  547.1781
 471  647.6657
 472  593.2869
 473  352.3284
 474  406.0927
 475  515.7726
 476  556.6709
 477  539.6245
 478  485.3977
 479  470.2602
 480  493.1839
 481  480.9112
 482  533.9682
 483  586.0812
 484  455.1238
 485  455.2248
 486  606.5862
 487  519.291
 488  394.7621
 489  493.7468
 490  593.7798
 491  622.6532
 492  580.8869
 493  590.5111
 494  614.1151
 495  659.1552
 496  581.0593
 497  572.8786
 498  491.0951
 499  564.6293
 500  574.9941
 501  642.5997
 502  755.8803
 503  692.7184
 504  672.3661
 505  712.2101
 506  806.1024
 507  717.809
 508  667.8012
 509  833.1901
 510  967.9656
 511  1101.043
