# Input file       =  1202725192.1155_cleaned.dat
# Candidate        =  PSR_0332+5434
# Telescope        =  AR
# Epoch_topo       =  58164.430255966436
# Epoch_bary       =  N/A
# T_sample         =  0.002
# Data Folded      =  7208960
# Data Avg         =  -0.0622853390352595
# Data StdDev      =  1.00012976451481 
# Profile Bins     =  512
# Profile Avg      =  -877.000261469878
# Profile StdDev   =  118.674573543905 
# Reduced chi-sqr  =  1.001
# Prob(Noise)      <  0.484   (~0.0 sigma)
# P_topo (ms)      =  714.580061459429  +/- 0.000464
# P'_topo (s/s)    =  -0                +/- 2.49e-10
# P''_topo (s/s^2) =  0                 +/- 1.12e-13
# P_bary (ms)      =  N/A
# P'_bary (s/s)    =  N/A
# P''_bary (s/s^2) =  N/A
# P_orb (s)        =  N/A
# asin(i)/c (s)    =  N/A
# eccentricity     =  N/A
# w (rad)          =  N/A
# T_peri           =  N/A
######################################################
   0  -233.3273
   1  -310.2206
   2  -479.8349
   3  -666.639
   4  -808.2641
   5  -880.3553
   6  -809.0237
   7  -828.8268
   8  -851.0831
   9  -853.6322
  10  -837.9993
  11  -792.4092
  12  -790.2979
  13  -860.3842
  14  -932.7222
  15  -873.438
  16  -861.2939
  17  -976.3693
  18  -985.783
  19  -914.8151
  20  -798.3622
  21  -810.3422
  22  -892.0078
  23  -905.2129
  24  -947.5591
  25  -947.0103
  26  -870.9199
  27  -916.3827
  28  -893.3723
  29  -943.8358
  30  -1018.609
  31  -916.9008
  32  -911.0893
  33  -942.1802
  34  -908.3207
  35  -905.1718
  36  -814.279
  37  -906.2457
  38  -944.3593
  39  -882.4302
  40  -882.5958
  41  -826.8983
  42  -840.6965
  43  -951.6494
  44  -912.7742
  45  -869.5278
  46  -841.2377
  47  -913.0359
  48  -827.6763
  49  -832.4502
  50  -950.1689
  51  -1029.829
  52  -958.1158
  53  -893.9557
  54  -874.2763
  55  -865.8315
  56  -916.9211
  57  -871.8719
  58  -824.1929
  59  -755.9745
  60  -814.3754
  61  -923.1983
  62  -918.3022
  63  -885.5575
  64  -924.5494
  65  -943.2474
  66  -776.0358
  67  -771.4344
  68  -869.0433
  69  -794.9687
  70  -848.2305
  71  -949.2699
  72  -827.9887
  73  -840.9372
  74  -848.2855
  75  -960.0772
  76  -997.0934
  77  -936.17
  78  -870.5894
  79  -799.5369
  80  -816.9453
  81  -873.0841
  82  -803.3428
  83  -833.6788
  84  -963.1689
  85  -856.5226
  86  -879.0065
  87  -783.6385
  88  -875.8602
  89  -877.9556
  90  -840.3898
  91  -831.6404
  92  -765.8705
  93  -839.8474
  94  -886.7997
  95  -800.0903
  96  -845.999
  97  -987.2283
  98  -973.2311
  99  -892.6111
 100  -918.2276
 101  -964.2706
 102  -873.3599
 103  -911.9803
 104  -1017.308
 105  -876.8199
 106  -790.7902
 107  -823.6262
 108  -852.483
 109  -837.1173
 110  -814.5994
 111  -939.7319
 112  -952.8694
 113  -890.2506
 114  -957.5551
 115  -964.8737
 116  -900.5852
 117  -918.249
 118  -918.8366
 119  -918.3307
 120  -783.4672
 121  -852.1869
 122  -851.7266
 123  -864.8871
 124  -913.0624
 125  -837.8475
 126  -847.4293
 127  -807.0521
 128  -909.1277
 129  -840.7649
 130  -812.2035
 131  -866.0314
 132  -974.3084
 133  -972.1594
 134  -803.2421
 135  -758.8561
 136  -889.9349
 137  -937.7869
 138  -898.0101
 139  -810.6536
 140  -835.17
 141  -942.518
 142  -881.3702
 143  -828.7947
 144  -817.8657
 145  -744.6154
 146  -777.324
 147  -817.9687
 148  -827.1367
 149  -741.7798
 150  -816.4198
 151  -807.3002
 152  -905.0658
 153  -843.4834
 154  -942.5659
 155  -877.8976
 156  -841.593
 157  -873.8726
 158  -826.5942
 159  -803.7366
 160  -818.7136
 161  -842.0586
 162  -817.9792
 163  -896.9873
 164  -938.1642
 165  -839.136
 166  -707.8093
 167  -799.3022
 168  -938.8576
 169  -910.3543
 170  -836.1267
 171  -782.4902
 172  -974.2368
 173  -1029.718
 174  -841.4531
 175  -857.5853
 176  -813.1443
 177  -760.5222
 178  -796.019
 179  -800.2365
 180  -890.5814
 181  -926.6795
 182  -907.6041
 183  -849.5328
 184  -770.3488
 185  -763.1725
 186  -986.0385
 187  -1010.495
 188  -977.4084
 189  -962.6293
 190  -933.4667
 191  -840.8516
 192  -848.5503
 193  -823.004
 194  -824.1959
 195  -778.4766
 196  -822.4071
 197  -862.5004
 198  -878.3098
 199  -941.4601
 200  -835.8986
 201  -798.2153
 202  -721.0073
 203  -718.7355
 204  -864.7456
 205  -915.9064
 206  -853.2708
 207  -827.4939
 208  -917.2306
 209  -920.2147
 210  -879.1254
 211  -897.6339
 212  -780.6705
 213  -741.9207
 214  -846.4133
 215  -850.7267
 216  -1045.152
 217  -1026.888
 218  -928.8716
 219  -887.1276
 220  -969.2076
 221  -935.8625
 222  -892.7754
 223  -969.2463
 224  -1065.508
 225  -866.5092
 226  -861.5406
 227  -889.5831
 228  -847.0897
 229  -887.3941
 230  -874.4036
 231  -878.525
 232  -858.6047
 233  -882.6985
 234  -814.37
 235  -929.6699
 236  -950.1364
 237  -933.0243
 238  -821.3143
 239  -895.014
 240  -917.3962
 241  -815.3027
 242  -816.5417
 243  -782.1156
 244  -785.1802
 245  -875.7036
 246  -859.9849
 247  -752.1733
 248  -836.3584
 249  -819.1331
 250  -920.3128
 251  -849.2984
 252  -861.5533
 253  -918.1729
 254  -900.9887
 255  -950.8418
 256  -915.858
 257  -966.7409
 258  -1013.735
 259  -929.2714
 260  -840.181
 261  -859.9426
 262  -836.0269
 263  -831.6752
 264  -872.9894
 265  -917.8832
 266  -948.1911
 267  -943.0173
 268  -861.6938
 269  -878.4818
 270  -895.1272
 271  -931.1354
 272  -921.813
 273  -795.5195
 274  -935.9567
 275  -933.4737
 276  -795.1016
 277  -777.7462
 278  -839.1175
 279  -795.0172
 280  -846.2089
 281  -979.4749
 282  -1009.616
 283  -948.8253
 284  -941.13
 285  -1004.057
 286  -982.4224
 287  -970.0827
 288  -830.8524
 289  -885.4877
 290  -859.1022
 291  -932.3399
 292  -949.5706
 293  -984.4578
 294  -1037.537
 295  -847.0005
 296  -828.9238
 297  -982.78
 298  -971.3801
 299  -866.336
 300  -871.1789
 301  -937.4917
 302  -946.8402
 303  -931.096
 304  -993.7601
 305  -838.9793
 306  -822.2224
 307  -913.13
 308  -925.7245
 309  -872.7368
 310  -860.6512
 311  -991.0517
 312  -955.9127
 313  -803.0416
 314  -855.7775
 315  -875.0864
 316  -904.8911
 317  -932.7919
 318  -893.3384
 319  -839.1892
 320  -800.5479
 321  -914.4375
 322  -1029.664
 323  -930.4944
 324  -979.4735
 325  -929.7122
 326  -873.8328
 327  -857.1046
 328  -890.7274
 329  -898.3821
 330  -956.0463
 331  -899.8729
 332  -879.1254
 333  -940.5667
 334  -905.7581
 335  -800.0037
 336  -713.9913
 337  -827.181
 338  -881.4487
 339  -933.6377
 340  -945.7962
 341  -838.6369
 342  -888.3359
 343  -923.206
 344  -909.7731
 345  -825.0323
 346  -852.5359
 347  -988.1507
 348  -959.3268
 349  -857.5498
 350  -869.5493
 351  -919.9997
 352  -927.654
 353  -886.5901
 354  -848.9948
 355  -890.5271
 356  -981.6946
 357  -840.9603
 358  -876.114
 359  -886.883
 360  -919.3724
 361  -978.686
 362  -952.616
 363  -868.4661
 364  -835.8983
 365  -898.3757
 366  -975.5538
 367  -933.681
 368  -900.3948
 369  -946.4759
 370  -937.723
 371  -908.4277
 372  -974.7714
 373  -941.9525
 374  -861.5062
 375  -700.3638
 376  -759.9976
 377  -923.6714
 378  -922.7227
 379  -905.9493
 380  -852.6409
 381  -706.4437
 382  -803.9632
 383  -864.7202
 384  -969.8448
 385  -834.5649
 386  -753.7535
 387  -839.4565
 388  -928.4763
 389  -961.4248
 390  -912.2114
 391  -900.688
 392  -889.6332
 393  -865.1415
 394  -907.8353
 395  -878.9931
 396  -776.4894
 397  -845.9763
 398  -901.3677
 399  -897.0414
 400  -882.4835
 401  -936.8086
 402  -1003.67
 403  -946.3074
 404  -1052.646
 405  -960.0869
 406  -900.9604
 407  -986.5685
 408  -905.0298
 409  -844.2997
 410  -788.2575
 411  -874.6555
 412  -979.0291
 413  -893.0122
 414  -956.8492
 415  -928.7729
 416  -935.6036
 417  -856.7906
 418  -841.1407
 419  -946.1095
 420  -887.675
 421  -787.5178
 422  -858.3751
 423  -862.7177
 424  -931.9743
 425  -901.8179
 426  -961.7174
 427  -861.2654
 428  -894.195
 429  -961.6767
 430  -947.9208
 431  -862.6838
 432  -841.2202
 433  -789.7744
 434  -830.7149
 435  -926.276
 436  -911.9615
 437  -933.0822
 438  -974.5498
 439  -978.1832
 440  -1065.104
 441  -1048.303
 442  -843.1658
 443  -832.1433
 444  -867.5696
 445  -922.0839
 446  -847.7576
 447  -924.0327
 448  -904.6899
 449  -788.6453
 450  -802.8298
 451  -827.1027
 452  -946.4178
 453  -839.9675
 454  -941.2643
 455  -951.0851
 456  -834.4019
 457  -841.339
 458  -899.9981
 459  -847.6691
 460  -762.8802
 461  -819.11
 462  -875.0977
 463  -883.6525
 464  -896.4808
 465  -903.1004
 466  -876.8988
 467  -910.8003
 468  -959.0549
 469  -838.0015
 470  -855.1215
 471  -934.9332
 472  -893.28
 473  -906.798
 474  -892.7311
 475  -910.7194
 476  -915.0261
 477  -925.201
 478  -980.379
 479  -893.4019
 480  -908.3445
 481  -850.4243
 482  -844.1929
 483  -830.1921
 484  -901.1096
 485  -963.1058
 486  -915.5423
 487  -905.3304
 488  -884.0259
 489  -923.6202
 490  -890.9364
 491  -868.2197
 492  -913.733
 493  -806.0764
 494  -867.7671
 495  -920.1774
 496  -907.3712
 497  -839.1936
 498  -787.5483
 499  -850.8472
 500  -918.5043
 501  -904.2805
 502  -976.6379
 503  -879.6555
 504  -890.1737
 505  -912.9052
 506  -877.9896
 507  -787.4556
 508  -615.4861
 509  -532.2526
 510  -425.5246
 511  -286.2727
