# Input file       =  1202567454.139856_cleaned.dat
# Candidate        =  PSR_0332+5434
# Telescope        =  AR
# Epoch_topo       =  58162.604584952038
# Epoch_bary       =  N/A
# T_sample         =  0.002
# Data Folded      =  7340032
# Data Avg         =  0.055005163838374
# Data StdDev      =  1.00058035949512 
# Profile Bins     =  512
# Profile Avg      =  788.590873633363 
# Profile StdDev   =  119.802524581307 
# Reduced chi-sqr  =  0.788
# Prob(Noise)      <  1   (~0.0 sigma)
# P_topo (ms)      =  714.579757536961  +/- 0.000497
# P'_topo (s/s)    =  -0                +/- 2.62e-10
# P''_topo (s/s^2) =  0                 +/- 1.16e-13
# P_bary (ms)      =  N/A
# P'_bary (s/s)    =  N/A
# P''_bary (s/s^2) =  N/A
# P_orb (s)        =  N/A
# asin(i)/c (s)    =  N/A
# eccentricity     =  N/A
# w (rad)          =  N/A
# T_peri           =  N/A
######################################################
   0  1049.387
   1  1149.895
   2  996.9531
   3  726.0162
   4  672.3414
   5  766.6205
   6  710.4852
   7  717.5252
   8  764.4407
   9  756.3603
  10  736.3857
  11  791.857
  12  804.4244
  13  808.0455
  14  797.7891
  15  721.4855
  16  715.9205
  17  697.1377
  18  663.1742
  19  690.2071
  20  796.9553
  21  645.8514
  22  556.1428
  23  605.4838
  24  721.1641
  25  729.5744
  26  725.2402
  27  776.0898
  28  771.2411
  29  729.7026
  30  666.3813
  31  679.5383
  32  599.1434
  33  635.5737
  34  627.7152
  35  609.7712
  36  558.8556
  37  660.4761
  38  635.1146
  39  622.0527
  40  665.3365
  41  758.206
  42  785.6881
  43  776.5543
  44  729.5317
  45  763.0737
  46  796.3502
  47  764.6786
  48  753.4694
  49  770.1635
  50  791.0497
  51  855.8208
  52  795.3538
  53  732.8149
  54  789.0684
  55  743.2692
  56  731.9253
  57  824.3214
  58  823.5745
  59  789.0558
  60  842.9894
  61  863.9904
  62  852.9461
  63  910.1957
  64  876.0825
  65  799.1556
  66  836.5115
  67  833.9786
  68  698.5916
  69  746.5593
  70  786.6611
  71  787.2273
  72  813.9195
  73  834.0867
  74  838.6607
  75  845.5574
  76  848.6934
  77  826.4564
  78  817.9678
  79  837.4763
  80  779.4997
  81  770.2875
  82  843.2737
  83  768.5222
  84  788.8267
  85  808.4279
  86  755.3265
  87  751.2004
  88  788.0239
  89  758.961
  90  827.1553
  91  857.5074
  92  779.3643
  93  927.9778
  94  947.3458
  95  959.313
  96  844.3797
  97  804.7048
  98  846.2203
  99  816.1302
 100  884.9531
 101  915.7113
 102  917.4485
 103  896.1826
 104  891.8828
 105  928.3861
 106  911.6005
 107  936.9233
 108  823.1492
 109  802.6685
 110  898.1763
 111  887.6191
 112  854.8505
 113  803.6782
 114  845.3594
 115  855.6781
 116  870.5805
 117  880.3818
 118  897.1901
 119  761.4105
 120  745.0781
 121  897.1558
 122  953.3938
 123  859.3882
 124  823.5261
 125  863.6843
 126  854.0199
 127  828.9139
 128  863.6557
 129  831.3744
 130  821.8037
 131  804.7696
 132  795.7242
 133  806.6351
 134  837.6404
 135  810.4591
 136  758.3014
 137  783.0338
 138  773.1599
 139  822.6463
 140  867.0792
 141  840.9007
 142  790.2331
 143  821.6247
 144  873.2713
 145  824.61
 146  775.2506
 147  800.6902
 148  847.3909
 149  843.7917
 150  717.4525
 151  743.3369
 152  789.0885
 153  889.9677
 154  738.7034
 155  790.217
 156  877.2811
 157  782.4047
 158  817.0569
 159  838.6253
 160  839.9299
 161  882.5116
 162  839.339
 163  836.2311
 164  814.6188
 165  884.9579
 166  817.4547
 167  735.5875
 168  805.4922
 169  782.6178
 170  779.8744
 171  729.8608
 172  831.3503
 173  717.4131
 174  696.5525
 175  741.0029
 176  802.5708
 177  834.2047
 178  846.9863
 179  897.4359
 180  787.9987
 181  823.7791
 182  824.1067
 183  849.7813
 184  867.9042
 185  871.0775
 186  831.0306
 187  894.5587
 188  838.6658
 189  835.9349
 190  875.4628
 191  908.8727
 192  913.9857
 193  889.8477
 194  852.9658
 195  901.1552
 196  917.0015
 197  937.3547
 198  878.2755
 199  831.2515
 200  838.4363
 201  788.3701
 202  813.5361
 203  830.1826
 204  849.9863
 205  800.0602
 206  798.0878
 207  742.359
 208  769.658
 209  737.1126
 210  736.5266
 211  844.7156
 212  777.2183
 213  843.889
 214  858.5326
 215  767.6525
 216  780.7105
 217  761.0531
 218  801.4384
 219  758.0259
 220  784.8932
 221  786.8407
 222  801.4576
 223  750.3873
 224  755.9273
 225  733.3245
 226  740.6169
 227  713.5317
 228  685.9521
 229  699.1439
 230  751.5347
 231  779.5106
 232  817.509
 233  719.8254
 234  702.0624
 235  791.9597
 236  744.181
 237  735.308
 238  789.9797
 239  739.05
 240  844.9214
 241  827.4843
 242  806.918
 243  762.3233
 244  754.4052
 245  759.2433
 246  737.5757
 247  774.3885
 248  676.1526
 249  637.936
 250  614.5437
 251  601.9714
 252  627.2444
 253  697.6434
 254  669.2112
 255  692.2613
 256  748.2544
 257  764.0681
 258  741.0291
 259  732.8209
 260  730.8743
 261  754.5735
 262  803.1973
 263  791.4415
 264  757.4519
 265  812.1011
 266  915.1002
 267  898.9932
 268  793.1829
 269  830.5593
 270  790.3438
 271  799.8455
 272  769.3038
 273  811.5298
 274  797.6426
 275  775.737
 276  755.2261
 277  782.8069
 278  748.4537
 279  802.6014
 280  810.6
 281  791.1639
 282  813.1966
 283  839.8288
 284  769.8786
 285  841.9752
 286  781.1876
 287  779.2551
 288  702.8259
 289  774.4404
 290  852.5456
 291  893.305
 292  843.2076
 293  899.652
 294  913.1992
 295  826.212
 296  787.2067
 297  730.492
 298  830.1377
 299  758.7687
 300  887.6161
 301  980.1581
 302  964.4943
 303  802.0282
 304  745.135
 305  803.2626
 306  796.6163
 307  814.0646
 308  800.9516
 309  831.2056
 310  742.872
 311  774.4371
 312  771.5992
 313  788.0449
 314  766.8729
 315  795.8577
 316  634.1616
 317  718.7897
 318  742.6481
 319  670.1353
 320  694.0672
 321  731.2188
 322  751.0057
 323  805.4894
 324  834.2845
 325  742.7299
 326  683.791
 327  749.9947
 328  761.5052
 329  783.036
 330  744.8267
 331  716.3437
 332  766.3093
 333  761.4705
 334  771.8439
 335  653.7376
 336  625.4277
 337  674.3532
 338  621.3966
 339  721.1796
 340  684.8627
 341  725.3781
 342  715.1161
 343  777.0533
 344  771.9579
 345  761.6476
 346  728.2761
 347  735.705
 348  721.7299
 349  728.2725
 350  701.1291
 351  769.2631
 352  699.7695
 353  720.7099
 354  797.679
 355  876.6105
 356  812.8152
 357  749.3416
 358  702.0113
 359  776.156
 360  843.8799
 361  823.7202
 362  804.7289
 363  842.6952
 364  834.0775
 365  820.9598
 366  779.4959
 367  791.7002
 368  793.3552
 369  767.2348
 370  795.8312
 371  841.4509
 372  875.1569
 373  873.5021
 374  765.557
 375  827.7185
 376  839.6219
 377  869.4548
 378  913.3665
 379  831.0841
 380  782.5499
 381  775.2709
 382  840.6274
 383  858.2145
 384  855.5555
 385  852.8611
 386  871.6381
 387  853.9609
 388  830.392
 389  843.8312
 390  846.8289
 391  901.9429
 392  875.3265
 393  904.3116
 394  918.4231
 395  922.9814
 396  895.8535
 397  901.2879
 398  928.4175
 399  888.1631
 400  919.9174
 401  927.4471
 402  869.4968
 403  846.8441
 404  746.3483
 405  796.0696
 406  888.1926
 407  915.0278
 408  909.6516
 409  810.119
 410  691.7454
 411  680.3193
 412  823.5436
 413  886.5941
 414  818.9943
 415  808.9828
 416  734.6882
 417  793.3734
 418  865.4342
 419  818.4634
 420  730.0703
 421  731.9969
 422  700.3138
 423  665.5595
 424  700.2319
 425  796.071
 426  706.9801
 427  737.6662
 428  721.6661
 429  752.3316
 430  788.1058
 431  734.1495
 432  661.684
 433  728.5757
 434  670.791
 435  644.4141
 436  669.9058
 437  741.5586
 438  713.8401
 439  770.2316
 440  793.4557
 441  773.04
 442  707.1173
 443  729.5485
 444  757.2559
 445  782.3791
 446  814.3608
 447  677.476
 448  687.8149
 449  803.6646
 450  702.8519
 451  673.8506
 452  775.1595
 453  741.0353
 454  767.8804
 455  705.8714
 456  747.4868
 457  808.0236
 458  816.8792
 459  785.2783
 460  727.3754
 461  748.1216
 462  709.1325
 463  722.5694
 464  707.6953
 465  651.8824
 466  748.6894
 467  805.8901
 468  732.9142
 469  730.4875
 470  754.2355
 471  754.3392
 472  738.9453
 473  781.7434
 474  700.0323
 475  718.2548
 476  760.0026
 477  750.7403
 478  738.0812
 479  779.7891
 480  773.8635
 481  748.4191
 482  730.381
 483  755.0463
 484  721.4077
 485  731.8332
 486  692.5542
 487  714.0472
 488  669.7933
 489  690.4946
 490  691.1829
 491  773.1179
 492  782.8119
 493  812.9203
 494  810.8284
 495  807.678
 496  757.5536
 497  830.5961
 498  730.0024
 499  647.9723
 500  702.9214
 501  814.6944
 502  722.676
 503  753.6913
 504  775.8848
 505  760.5391
 506  837.7568
 507  788.2236
 508  938.3989
 509  990.0566
 510  1042.221
 511  1053.596
