# Input file       =  1202739893.132749_cleaned.dat
# Candidate        =  PSR_0332+5434
# Telescope        =  AR
# Epoch_topo       =  58164.600406629041
# Epoch_bary       =  N/A
# T_sample         =  0.002
# Data Folded      =  7340032
# Data Avg         =  -0.0552390115635634
# Data StdDev      =  1.00014184346377 
# Profile Bins     =  512
# Profile Avg      =  -792.124922364638
# Profile StdDev   =  119.750019725373 
# Reduced chi-sqr  =  0.760
# Prob(Noise)      <  1   (~0.0 sigma)
# P_topo (ms)      =  714.580107955619  +/- 0.000628
# P'_topo (s/s)    =  -0                +/- 3.31e-10
# P''_topo (s/s^2) =  0                 +/- 1.46e-13
# P_bary (ms)      =  N/A
# P'_bary (s/s)    =  N/A
# P''_bary (s/s^2) =  N/A
# P_orb (s)        =  N/A
# asin(i)/c (s)    =  N/A
# eccentricity     =  N/A
# w (rad)          =  N/A
# T_peri           =  N/A
######################################################
   0  -376.9274
   1  -396.3101
   2  -429.5532
   3  -591.7987
   4  -811.095
   5  -878.542
   6  -891.3389
   7  -791.5928
   8  -836.8768
   9  -855.785
  10  -830.4208
  11  -787.3207
  12  -761.8923
  13  -726.0649
  14  -687.6993
  15  -791.8278
  16  -824.4976
  17  -791.3223
  18  -787.4155
  19  -757.2293
  20  -723.6531
  21  -797.3705
  22  -824.1564
  23  -745.637
  24  -702.7662
  25  -821.4335
  26  -934.8326
  27  -907.238
  28  -897.7675
  29  -803.1465
  30  -762.582
  31  -825.8882
  32  -771.4
  33  -882.7545
  34  -885.0374
  35  -853.8553
  36  -818.2193
  37  -788.0586
  38  -817.2865
  39  -847.5782
  40  -828.997
  41  -782.7753
  42  -817.2303
  43  -748.049
  44  -752.9648
  45  -794.8878
  46  -874.0071
  47  -865.7232
  48  -868.1241
  49  -840.6903
  50  -823.4525
  51  -799.6956
  52  -803.41
  53  -875.2951
  54  -873.0862
  55  -814.2626
  56  -784.3075
  57  -760.1085
  58  -732.4238
  59  -693.7062
  60  -699.8842
  61  -756.638
  62  -761.1171
  63  -813.2959
  64  -810.1306
  65  -833.8597
  66  -751.0574
  67  -734.2791
  68  -727.0197
  69  -804.3231
  70  -834.0797
  71  -750.8375
  72  -720.3846
  73  -815.6902
  74  -810.1694
  75  -760.6776
  76  -673.1559
  77  -809.1301
  78  -923.0208
  79  -844.5822
  80  -727.0641
  81  -744.4664
  82  -820.6496
  83  -836.7667
  84  -803.0894
  85  -792.6935
  86  -776.3025
  87  -673.6692
  88  -661.1146
  89  -649.5831
  90  -671.0819
  91  -748.2039
  92  -751.4941
  93  -725.0718
  94  -699.7584
  95  -716.1313
  96  -785.2349
  97  -820.5897
  98  -797.862
  99  -822.312
 100  -820.8964
 101  -720.9993
 102  -620.5222
 103  -732.5796
 104  -791.7089
 105  -768.0291
 106  -756.8877
 107  -763.2393
 108  -691.9393
 109  -624.9668
 110  -687.2303
 111  -761.4109
 112  -730.9766
 113  -757.7829
 114  -838.8557
 115  -796.3768
 116  -759.9466
 117  -685.9088
 118  -711.3323
 119  -700.4982
 120  -753.4698
 121  -777.0273
 122  -770.6986
 123  -764.7753
 124  -649.2571
 125  -648.1483
 126  -731.9875
 127  -774.6035
 128  -766.0413
 129  -776.9171
 130  -847.4259
 131  -774.1666
 132  -754.5797
 133  -776.2692
 134  -833.4813
 135  -856.2641
 136  -794.4653
 137  -840.1426
 138  -803.6264
 139  -731.1819
 140  -764.2144
 141  -865.0984
 142  -887.7905
 143  -813.4365
 144  -858.4563
 145  -774.332
 146  -719.9093
 147  -723.5342
 148  -757.353
 149  -800.5392
 150  -817.7981
 151  -820.6566
 152  -753.9364
 153  -844.4529
 154  -836.048
 155  -848.8991
 156  -851.2971
 157  -760.5031
 158  -785.4458
 159  -766.6198
 160  -807.3026
 161  -845.913
 162  -782.5038
 163  -767.4095
 164  -778.222
 165  -778.3457
 166  -850.1293
 167  -835.6452
 168  -744.5703
 169  -726.6416
 170  -814.9444
 171  -831.1107
 172  -698.7406
 173  -669.6736
 174  -749.7646
 175  -722.3329
 176  -757.8509
 177  -791.0817
 178  -757.1036
 179  -870.5585
 180  -790.8698
 181  -698.8671
 182  -694.1714
 183  -733.5416
 184  -716.9003
 185  -803.8275
 186  -770.5175
 187  -748.8318
 188  -745.6055
 189  -746.4267
 190  -797.0496
 191  -759.5028
 192  -765.302
 193  -715.8658
 194  -734.7913
 195  -752.176
 196  -830.7573
 197  -843.8602
 198  -877.0615
 199  -898.4703
 200  -828.6307
 201  -794.2388
 202  -777.2892
 203  -774.579
 204  -738.7192
 205  -825.2043
 206  -730.2704
 207  -674.2411
 208  -718.3403
 209  -734.4755
 210  -765.0245
 211  -783.2467
 212  -842.0929
 213  -825.4721
 214  -818.0197
 215  -838.7146
 216  -796.6744
 217  -771.6031
 218  -760.9012
 219  -788.4402
 220  -803.4999
 221  -812.8831
 222  -745.4515
 223  -771.7664
 224  -790.5511
 225  -790.5162
 226  -784.7592
 227  -737.9145
 228  -798.6819
 229  -815.4342
 230  -704.6976
 231  -732.8976
 232  -766.3414
 233  -860.0262
 234  -927.4869
 235  -913.2897
 236  -898.2681
 237  -947.3144
 238  -894.3337
 239  -803.795
 240  -780.3425
 241  -829.9885
 242  -850.545
 243  -935.1575
 244  -851.6979
 245  -859.1489
 246  -929.2346
 247  -804.9816
 248  -797.0768
 249  -812.7545
 250  -816.8422
 251  -761.6403
 252  -820.4398
 253  -945.9277
 254  -867.203
 255  -795.4597
 256  -749.1198
 257  -755.9179
 258  -704.5439
 259  -716.4348
 260  -840.6939
 261  -865.3008
 262  -865.6284
 263  -804.5392
 264  -836.1979
 265  -885.8839
 266  -873.392
 267  -825.9476
 268  -755.5443
 269  -715.3054
 270  -805.3458
 271  -748.9267
 272  -729.699
 273  -785.1337
 274  -773.2759
 275  -783.6207
 276  -829.6304
 277  -768.9042
 278  -780.2001
 279  -790.4044
 280  -741.2849
 281  -757.1371
 282  -765.4409
 283  -727.6486
 284  -817.3567
 285  -804.1093
 286  -812.2812
 287  -798.791
 288  -710.9145
 289  -734.2487
 290  -733.2915
 291  -659.0795
 292  -703.6194
 293  -713.6016
 294  -803.2376
 295  -844.4484
 296  -728.1205
 297  -825.4663
 298  -813.8939
 299  -767.4274
 300  -815.0955
 301  -821.4554
 302  -900.0923
 303  -869.9134
 304  -782.2712
 305  -757.348
 306  -841.574
 307  -788.6303
 308  -799.6449
 309  -782.0212
 310  -855.0326
 311  -803.1549
 312  -833.8495
 313  -844.0982
 314  -837.3394
 315  -913.2407
 316  -848.1729
 317  -938.6569
 318  -858.4193
 319  -817.8932
 320  -867.2751
 321  -870.1354
 322  -810.9991
 323  -774.968
 324  -796.4272
 325  -859.9659
 326  -836.3783
 327  -924.2662
 328  -1019.243
 329  -1019.445
 330  -950.8347
 331  -866.32
 332  -879.6805
 333  -915.1119
 334  -882.7725
 335  -837.5161
 336  -946.1879
 337  -929.6293
 338  -883.3309
 339  -818.082
 340  -772.0652
 341  -784.1464
 342  -838.0759
 343  -814.0089
 344  -813.2682
 345  -854.4993
 346  -858.8408
 347  -808.3484
 348  -744.3723
 349  -799.9207
 350  -862.8696
 351  -887.6757
 352  -859.8756
 353  -867.8748
 354  -882.9271
 355  -886.0517
 356  -910.692
 357  -862.7253
 358  -798.1563
 359  -812.2741
 360  -831.6458
 361  -804.1508
 362  -818.7385
 363  -859.5941
 364  -815.4326
 365  -862.8569
 366  -851.5221
 367  -826.6196
 368  -810.2608
 369  -800.0752
 370  -852.0938
 371  -815.7104
 372  -831.1979
 373  -883.6864
 374  -855.9335
 375  -861.4655
 376  -814.3228
 377  -828.5813
 378  -846.0775
 379  -837.9218
 380  -895.9473
 381  -813.0644
 382  -823.4283
 383  -829.3867
 384  -894.9291
 385  -918.7159
 386  -861.8477
 387  -867.9854
 388  -866.7446
 389  -848.109
 390  -831.6722
 391  -843.1813
 392  -797.0226
 393  -817.3957
 394  -861.6038
 395  -837.0074
 396  -806.3014
 397  -862.762
 398  -871.3001
 399  -943.6721
 400  -911.7783
 401  -809.3148
 402  -757.6047
 403  -814.0779
 404  -884.3382
 405  -887.5457
 406  -852.6448
 407  -837.2963
 408  -820.8296
 409  -865.1198
 410  -889.7375
 411  -849.012
 412  -794.509
 413  -861.7631
 414  -842.5497
 415  -807.8704
 416  -781.7594
 417  -756.713
 418  -772.1591
 419  -802.5732
 420  -833.707
 421  -879.4564
 422  -871.4376
 423  -879.2941
 424  -851.5389
 425  -848.2928
 426  -807.952
 427  -836.4915
 428  -828.3264
 429  -893.7697
 430  -842.7861
 431  -761.8629
 432  -764.5007
 433  -858.1602
 434  -829.8788
 435  -741.611
 436  -696.7673
 437  -816.2509
 438  -852.3907
 439  -780.6144
 440  -687.3127
 441  -726.2411
 442  -709.0842
 443  -732.5193
 444  -779.9261
 445  -771.5032
 446  -828.4656
 447  -757.7762
 448  -769.6007
 449  -677.272
 450  -749.8086
 451  -683.2758
 452  -660.6982
 453  -666.6733
 454  -713.2817
 455  -742.4492
 456  -722.7268
 457  -673.0001
 458  -615.3759
 459  -635.4373
 460  -658.4572
 461  -662.0969
 462  -657.6547
 463  -695.3172
 464  -610.2307
 465  -651.0963
 466  -728.2946
 467  -733.2819
 468  -707.9727
 469  -739.8847
 470  -731.3804
 471  -774.26
 472  -708.4856
 473  -736.6255
 474  -783.0132
 475  -755.0041
 476  -806.9924
 477  -782.5855
 478  -756.8517
 479  -704.3389
 480  -720.2589
 481  -782.6818
 482  -722.1202
 483  -742.3189
 484  -738.816
 485  -750.8366
 486  -778.8622
 487  -781.031
 488  -789.9199
 489  -713.1613
 490  -726.8779
 491  -757.7458
 492  -861.8606
 493  -877.5663
 494  -818.6324
 495  -782.6949
 496  -824.8121
 497  -810.9724
 498  -805.6701
 499  -818.4873
 500  -812.7341
 501  -813.295
 502  -877.1821
 503  -805.7757
 504  -793.0512
 505  -786.6364
 506  -782.6025
 507  -777.3328
 508  -737.4713
 509  -636.5917
 510  -488.1334
 511  -373.6496
