# Input file       =  1202308865.112091_cleaned.dat
# Candidate        =  PSR_0332+5434
# Telescope        =  AR
# Epoch_topo       =  58159.611656389941
# Epoch_bary       =  N/A
# T_sample         =  0.002
# Data Folded      =  7340032
# Data Avg         =  0.0401078428304823
# Data StdDev      =  1.00013142011765 
# Profile Bins     =  512
# Profile Avg      =  575.024909886151 
# Profile StdDev   =  119.748771706493 
# Reduced chi-sqr  =  1.046
# Prob(Noise)      <  0.227   (~0.7 sigma)
# P_topo (ms)      =  714.579093396564  +/- 0.000434
# P'_topo (s/s)    =  -0                +/- 2.29e-10
# P''_topo (s/s^2) =  0                 +/- 1.01e-13
# P_bary (ms)      =  N/A
# P'_bary (s/s)    =  N/A
# P''_bary (s/s^2) =  N/A
# P_orb (s)        =  N/A
# asin(i)/c (s)    =  N/A
# eccentricity     =  N/A
# w (rad)          =  N/A
# T_peri           =  N/A
######################################################
   0  1060.553
   1  981.4456
   2  920.6188
   3  826.8821
   4  736.6168
   5  737.528
   6  662.8461
   7  725.0616
   8  746.0827
   9  646.0563
  10  621.0341
  11  645.7842
  12  661.0106
  13  558.4415
  14  533.1786
  15  624.7174
  16  596.5137
  17  559.1663
  18  571.8035
  19  558.7848
  20  498.5174
  21  512.9251
  22  552.3589
  23  593.5665
  24  586.1878
  25  659.3063
  26  599.5244
  27  562.8757
  28  522.5427
  29  602.2566
  30  692.5201
  31  791.945
  32  684.3798
  33  532.6188
  34  485.7928
  35  537.9477
  36  616.204
  37  551.8378
  38  624.1029
  39  636.1179
  40  565.3558
  41  650.9246
  42  626.4178
  43  627.5338
  44  572.5377
  45  580.2526
  46  597.0427
  47  532.3148
  48  608.821
  49  592.2766
  50  611.255
  51  528.3334
  52  475.4799
  53  533.9105
  54  635.8244
  55  579.2925
  56  589.0079
  57  512.953
  58  534.2502
  59  572.6531
  60  574.9165
  61  584.1356
  62  603.764
  63  575.8439
  64  593.6046
  65  551.5014
  66  606.075
  67  758.1748
  68  750.8894
  69  737.7355
  70  640.4214
  71  568.5425
  72  599.0629
  73  543.3388
  74  628.6326
  75  693.5937
  76  674.1737
  77  655.8543
  78  597.4266
  79  674.2156
  80  704.5592
  81  702.1536
  82  648.9772
  83  602.6954
  84  534.9116
  85  582.7516
  86  705.0871
  87  714.9655
  88  609.5087
  89  690.1664
  90  726.6509
  91  742.6383
  92  660.726
  93  539.8716
  94  625.1053
  95  601.7167
  96  606.8594
  97  663.5469
  98  677.9141
  99  586.8024
 100  580.9445
 101  529.308
 102  548.553
 103  619.6876
 104  585.5986
 105  666.7828
 106  579.3754
 107  561.1064
 108  599.722
 109  635.3295
 110  552.8799
 111  577.443
 112  681.4176
 113  559.9698
 114  527.2578
 115  504.5491
 116  433.5259
 117  536.7947
 118  591.4183
 119  556.7391
 120  576.3385
 121  537.8412
 122  539.6113
 123  531.9128
 124  594.0521
 125  531.0071
 126  517.9172
 127  533.3955
 128  479.8218
 129  462.0522
 130  536.9031
 131  577.8002
 132  535.1742
 133  592.9055
 134  663.8118
 135  585.6282
 136  540.358
 137  564.994
 138  524.99
 139  551.8412
 140  581.0469
 141  538.6992
 142  533.6218
 143  582.7675
 144  550.9188
 145  425.6518
 146  499.2632
 147  545.1529
 148  645.9155
 149  696.8989
 150  627.6224
 151  619.3565
 152  558.2953
 153  611.4813
 154  639.0891
 155  632.0499
 156  622.5528
 157  533.0437
 158  607.4542
 159  599.4408
 160  541.4685
 161  585.3187
 162  513.1748
 163  398.035
 164  493.2401
 165  572.9977
 166  546.5179
 167  553.2146
 168  521.081
 169  542.9076
 170  578.8226
 171  529.7288
 172  430.8137
 173  434.0777
 174  504.8376
 175  493.8481
 176  460.8466
 177  569.0389
 178  538.5164
 179  506.8435
 180  552.3094
 181  625.3505
 182  504.7608
 183  546.0398
 184  568.296
 185  564.2147
 186  529.6335
 187  520.0099
 188  472.2018
 189  543.0285
 190  544.1264
 191  562.2651
 192  537.6107
 193  531.3702
 194  582.335
 195  580.9618
 196  544.5061
 197  567.077
 198  559.7697
 199  545.6664
 200  526.1102
 201  378.3552
 202  401.2885
 203  429.1612
 204  421.4745
 205  419.1725
 206  476.3086
 207  496.7182
 208  360.0126
 209  415.1612
 210  461.1996
 211  460.3784
 212  518.2238
 213  535.4976
 214  574.0667
 215  528.743
 216  511.6714
 217  480.0721
 218  510.4184
 219  482.4727
 220  580.2225
 221  567.6934
 222  501.2328
 223  465.6358
 224  473.9103
 225  604.3781
 226  586.4553
 227  595.4401
 228  531.6561
 229  465.6479
 230  560.5485
 231  557.6081
 232  524.2094
 233  546.9453
 234  480.2555
 235  491.9536
 236  536.7458
 237  490.1153
 238  492.8212
 239  498.06
 240  534.1683
 241  556.3256
 242  442.6689
 243  478.3915
 244  556.1251
 245  470.8295
 246  365.6395
 247  443.2218
 248  502.9212
 249  434.8182
 250  276.8593
 251  447.1349
 252  450.9821
 253  473.8464
 254  514.3871
 255  496.8311
 256  499.1714
 257  578.1453
 258  501.1661
 259  469.806
 260  480.5415
 261  434.732
 262  425.7031
 263  676.8438
 264  551.3143
 265  500.9985
 266  548.1837
 267  551.8842
 268  504.4694
 269  504.0613
 270  531.4547
 271  378.0904
 272  324.1335
 273  430.3968
 274  461.7586
 275  535.1714
 276  608.4136
 277  541.5546
 278  436.6074
 279  489.5988
 280  508.0446
 281  516.2208
 282  554.4825
 283  471.5853
 284  420.4757
 285  547.6841
 286  630.7457
 287  521.0199
 288  539.1096
 289  594.2621
 290  500.8412
 291  432.8389
 292  533.772
 293  577.5707
 294  539.8527
 295  498.419
 296  577.1194
 297  484.2657
 298  499.6804
 299  554.2187
 300  546.5106
 301  555.2141
 302  531.4927
 303  550.3799
 304  562.5375
 305  585.7576
 306  709.4525
 307  607.363
 308  589.7604
 309  553.3613
 310  548.4
 311  613.9625
 312  613.8613
 313  622.2478
 314  655.1734
 315  591.5873
 316  585.9796
 317  626.9893
 318  539.2299
 319  711.6768
 320  657.0339
 321  585.3513
 322  520.196
 323  628.5472
 324  581.2464
 325  585.7488
 326  598.6474
 327  506.3808
 328  575.6005
 329  496.5656
 330  553.5413
 331  702.6136
 332  573.5428
 333  600.5956
 334  652.7369
 335  706.8076
 336  554.8539
 337  551.2895
 338  624.2166
 339  577.2449
 340  625.91
 341  692.8407
 342  571.0223
 343  526.7564
 344  650.6677
 345  671.8328
 346  668.4471
 347  699.0356
 348  607.4666
 349  571.3411
 350  649.1302
 351  739.3027
 352  666.2267
 353  577.3049
 354  483.3979
 355  623.2131
 356  609.1201
 357  569.4885
 358  595.1066
 359  508.232
 360  542.6063
 361  571.4717
 362  592.5435
 363  638.6146
 364  607.2196
 365  557.6112
 366  552.1624
 367  670.129
 368  680.4921
 369  631.4607
 370  619.7968
 371  640.283
 372  582.8169
 373  430.2707
 374  541.2492
 375  627.7382
 376  553.3882
 377  636.1604
 378  582.678
 379  625.3318
 380  662.5186
 381  545.056
 382  586.5512
 383  424.8672
 384  440.5202
 385  519.4135
 386  547.4156
 387  568.7905
 388  562.6992
 389  565.7249
 390  577.6108
 391  598.6648
 392  613.3682
 393  614.626
 394  545.5264
 395  635.9664
 396  634.5574
 397  574.2218
 398  531.0664
 399  591.6479
 400  662.3883
 401  670.1945
 402  649.1535
 403  624.9489
 404  739.9583
 405  739.219
 406  674.4827
 407  664.33
 408  790.0647
 409  797.0907
 410  779.9645
 411  670.4241
 412  585.8973
 413  634.873
 414  632.441
 415  575.4554
 416  672.8431
 417  681.113
 418  631.0647
 419  658.6021
 420  575.3381
 421  503.3145
 422  620.3676
 423  586.4684
 424  684.7553
 425  700.1289
 426  631.2565
 427  543.8094
 428  611.1876
 429  707.1282
 430  560.0329
 431  562.1798
 432  604.1056
 433  725.1979
 434  719.7354
 435  732.8369
 436  686.7034
 437  623.0512
 438  582.4035
 439  486.1475
 440  483.5776
 441  534.9738
 442  568.0872
 443  512.7083
 444  472.489
 445  490.6465
 446  468.043
 447  531.3034
 448  503.3678
 449  511.8181
 450  606.4744
 451  601.7312
 452  730.0878
 453  760.5092
 454  662.0085
 455  559.1918
 456  623.3728
 457  538.8711
 458  477.0431
 459  546.1645
 460  501.0574
 461  507.5095
 462  617.7823
 463  610.4836
 464  537.2439
 465  541.2328
 466  653.8265
 467  599.2137
 468  551.597
 469  485.6281
 470  493.9826
 471  583.9257
 472  599.9399
 473  551.983
 474  500.0464
 475  618.3353
 476  533.4038
 477  520.6514
 478  515.9289
 479  539.2552
 480  583.8433
 481  576.156
 482  523.2838
 483  424.3575
 484  516.0063
 485  503.1756
 486  445.2046
 487  486.4097
 488  539.448
 489  593.8372
 490  508.8802
 491  538.1602
 492  605.5908
 493  556.1353
 494  640.469
 495  537.333
 496  477.1904
 497  497.986
 498  590.8814
 499  548.9274
 500  603.158
 501  530.4125
 502  430.5175
 503  629.2925
 504  705.1496
 505  683.7812
 506  623.4333
 507  588.6685
 508  615.9045
 509  759.3032
 510  908.6513
 511  1063.525
