# Input file       =  1203328409.099087_cleaned.dat
# Candidate        =  PSR_0332+5434
# Telescope        =  AR
# Epoch_topo       =  58171.411934017211
# Epoch_bary       =  N/A
# T_sample         =  0.002
# Data Folded      =  7208960
# Data Avg         =  0.0942021439975136
# Data StdDev      =  1.00023743866652 
# Profile Bins     =  512
# Profile Avg      =  1326.42323553096 
# Profile StdDev   =  118.687350070001 
# Reduced chi-sqr  =  2.036
# Prob(Noise)      <  2.02e-38   (~12.9 sigma)
# P_topo (ms)      =  714.580703487778  +/- 4.76e-05
# P'_topo (s/s)    =  -0                +/- 2.55e-11
# P''_topo (s/s^2) =  0                 +/- 1.15e-14
# P_bary (ms)      =  N/A
# P'_bary (s/s)    =  N/A
# P''_bary (s/s^2) =  N/A
# P_orb (s)        =  N/A
# asin(i)/c (s)    =  N/A
# eccentricity     =  N/A
# w (rad)          =  N/A
# T_peri           =  N/A
######################################################
   0  1818.477
   1  1771.481
   2  1619.683
   3  1483.969
   4  1390.056
   5  1469.611
   6  1467.089
   7  1327.2
   8  1308.431
   9  1305.335
  10  1194.987
  11  1383.344
  12  1340.355
  13  1396.981
  14  1535.392
  15  1565.572
  16  1436.979
  17  1393.72
  18  1359.931
  19  1237.713
  20  1231.715
  21  1307.806
  22  1257.321
  23  1340.447
  24  1251.879
  25  1175.754
  26  1113.357
  27  1081.948
  28  1182.899
  29  1229.415
  30  1285.272
  31  1393.651
  32  1378.302
  33  1364.667
  34  1229.069
  35  1178.876
  36  1276.292
  37  1261.586
  38  1312.821
  39  1389.3
  40  1364.993
  41  1260.106
  42  1180.067
  43  1134.484
  44  1201.785
  45  1155.195
  46  1183.095
  47  1310.97
  48  1250.352
  49  1220.278
  50  1289.185
  51  1276.704
  52  1186.444
  53  1124.498
  54  1167.494
  55  1242.227
  56  1281.486
  57  1374.265
  58  1285.23
  59  1162.215
  60  1241.799
  61  1202.98
  62  1148.788
  63  1235.892
  64  1446.01
  65  1435.509
  66  1299.106
  67  1255.555
  68  1370.807
  69  1315.441
  70  1186.99
  71  1126.436
  72  1174.173
  73  1244.053
  74  1164.682
  75  1211.644
  76  1226.087
  77  1215.163
  78  1192.695
  79  1160.178
  80  1247.994
  81  1355.881
  82  1257.722
  83  1263.434
  84  1215.061
  85  1188.535
  86  1247.554
  87  1161.02
  88  1279.701
  89  1250.794
  90  1215.323
  91  1213.843
  92  1262.353
  93  1193.854
  94  1198.735
  95  1198.772
  96  1250.463
  97  1300.836
  98  1231.765
  99  1145.642
 100  1132.92
 101  1186.229
 102  1152.634
 103  1064.126
 104  1099.615
 105  1250.047
 106  1167.019
 107  1111.329
 108  1164.974
 109  1181.466
 110  1244.189
 111  1201.499
 112  1374.339
 113  1510.519
 114  1479.219
 115  1307.021
 116  1209.761
 117  1207.861
 118  1348.807
 119  1237.632
 120  1311.883
 121  1367.263
 122  1331.844
 123  1304.907
 124  1274.703
 125  1192.3
 126  1215.251
 127  1280.298
 128  1365.265
 129  1293.336
 130  1434.187
 131  1532.407
 132  1361.547
 133  1276.303
 134  1272.456
 135  1342.243
 136  1276.435
 137  1222.614
 138  1302.438
 139  1303.503
 140  1218.858
 141  1252.293
 142  1167.743
 143  1171.87
 144  1221.793
 145  1365.84
 146  1361.917
 147  1316.869
 148  1296.606
 149  1301.132
 150  1259.761
 151  1249.505
 152  1193.111
 153  1341.052
 154  1353.584
 155  1368.045
 156  1392.236
 157  1320.124
 158  1239.686
 159  1270.979
 160  1243.448
 161  1254.89
 162  1383.66
 163  1442.369
 164  1460.653
 165  1334.165
 166  1234.641
 167  1233.171
 168  1314.13
 169  1290.221
 170  1302.008
 171  1361.799
 172  1305.571
 173  1276.729
 174  1240.336
 175  1268.949
 176  1274.321
 177  1301.057
 178  1353.822
 179  1407.08
 180  1449.473
 181  1474.169
 182  1374.21
 183  1351.297
 184  1333.033
 185  1282.371
 186  1355.334
 187  1350.432
 188  1308.774
 189  1261.3
 190  1151.444
 191  1247.502
 192  1445.451
 193  1409.951
 194  1448.434
 195  1530.257
 196  1449.572
 197  1425.584
 198  1322.584
 199  1372.492
 200  1247.573
 201  1203.377
 202  1367.513
 203  1367.999
 204  1400.823
 205  1327.365
 206  1221.835
 207  1191.762
 208  1197.491
 209  1272.468
 210  1292.78
 211  1319.283
 212  1470.381
 213  1494.004
 214  1368.147
 215  1272.361
 216  1315.361
 217  1288.178
 218  1210.75
 219  1210.77
 220  1186.34
 221  1266.848
 222  1296.844
 223  1204.665
 224  1206.017
 225  1141.146
 226  1167.55
 227  1195.457
 228  1289.393
 229  1330.502
 230  1337.257
 231  1176.992
 232  1109.672
 233  1107.822
 234  1141.407
 235  1203.569
 236  1240.279
 237  1224.788
 238  1215.547
 239  1167.877
 240  1125.141
 241  1056.705
 242  1001.313
 243  1096.225
 244  1255.733
 245  1385.023
 246  1389.688
 247  1268.794
 248  1174.187
 249  1090.027
 250  1163.012
 251  1178.519
 252  1103.69
 253  1149.245
 254  1193.235
 255  1224.556
 256  1168.489
 257  1133.512
 258  1104.241
 259  1139.036
 260  1086.835
 261  1162.18
 262  1347.066
 263  1269.152
 264  1160.963
 265  1101.892
 266  1110.77
 267  1131.609
 268  1164.531
 269  1232.54
 270  1177.767
 271  1221.474
 272  1199.043
 273  1060.83
 274  1148.69
 275  1240.129
 276  1246.133
 277  1300.55
 278  1322.527
 279  1356.454
 280  1425.542
 281  1203.071
 282  1194.041
 283  1131.644
 284  1128.19
 285  1180.933
 286  1270.787
 287  1433.733
 288  1342.466
 289  1259.175
 290  1230.292
 291  1268.609
 292  1279.174
 293  1375.327
 294  1346.224
 295  1381.759
 296  1473.448
 297  1352.685
 298  1265.577
 299  1341.108
 300  1336.028
 301  1294.33
 302  1262.383
 303  1314.397
 304  1415.589
 305  1386.523
 306  1333.366
 307  1288.792
 308  1357.775
 309  1361.78
 310  1423.147
 311  1450.245
 312  1541.494
 313  1569.637
 314  1421.607
 315  1441.593
 316  1399.271
 317  1437.697
 318  1440.781
 319  1429.114
 320  1390.789
 321  1404.711
 322  1332.681
 323  1212.251
 324  1261.052
 325  1370.15
 326  1435.005
 327  1443.771
 328  1532.981
 329  1546.623
 330  1475.394
 331  1340.347
 332  1394.449
 333  1443.154
 334  1477.729
 335  1494.51
 336  1469.453
 337  1472.215
 338  1473.371
 339  1352.001
 340  1351.078
 341  1435.883
 342  1365.937
 343  1402.025
 344  1529.972
 345  1616.074
 346  1590.921
 347  1492.597
 348  1342.798
 349  1403.092
 350  1455.9
 351  1398.767
 352  1313.145
 353  1411.042
 354  1563.18
 355  1430.318
 356  1323.632
 357  1277.109
 358  1357.591
 359  1470.727
 360  1570.319
 361  1599.622
 362  1544.096
 363  1483.237
 364  1353.263
 365  1333.962
 366  1392.297
 367  1478.095
 368  1467.787
 369  1510.737
 370  1479.423
 371  1403.039
 372  1302.752
 373  1404.107
 374  1478.331
 375  1426.563
 376  1477.453
 377  1468.019
 378  1554.959
 379  1627.143
 380  1450.568
 381  1371.082
 382  1360.885
 383  1496.515
 384  1487.978
 385  1441.925
 386  1376.924
 387  1383.277
 388  1392.852
 389  1393.562
 390  1368.111
 391  1279.047
 392  1315.723
 393  1340.932
 394  1360.097
 395  1382.113
 396  1424.913
 397  1383.224
 398  1377.166
 399  1329.877
 400  1299.509
 401  1296.534
 402  1341.351
 403  1321.597
 404  1255.087
 405  1352.467
 406  1372.402
 407  1355.91
 408  1428.616
 409  1426.527
 410  1540.482
 411  1555.558
 412  1507.406
 413  1390.745
 414  1348.756
 415  1310.871
 416  1354.397
 417  1464.578
 418  1400.413
 419  1445.733
 420  1462.08
 421  1368.702
 422  1290.059
 423  1283.098
 424  1419.037
 425  1389.871
 426  1345.959
 427  1528.373
 428  1544.557
 429  1504.423
 430  1423.598
 431  1285.764
 432  1289.821
 433  1240.976
 434  1349.731
 435  1403.886
 436  1335.829
 437  1302.061
 438  1234.749
 439  1200.679
 440  1271.927
 441  1264.623
 442  1436.99
 443  1435.707
 444  1482.612
 445  1394.41
 446  1313.064
 447  1361.398
 448  1328.558
 449  1312.746
 450  1384.153
 451  1384.689
 452  1293.455
 453  1310.229
 454  1373.754
 455  1401.567
 456  1407.274
 457  1364.992
 458  1383.224
 459  1354.438
 460  1497.422
 461  1504.766
 462  1295.777
 463  1303.017
 464  1413.807
 465  1434.899
 466  1382.246
 467  1442.087
 468  1373.629
 469  1376.851
 470  1364.641
 471  1303.782
 472  1301.616
 473  1263.494
 474  1257.034
 475  1375.15
 476  1481.516
 477  1398.178
 478  1358.78
 479  1453.558
 480  1392.596
 481  1243.095
 482  1309.714
 483  1413.478
 484  1427.135
 485  1412.408
 486  1374.373
 487  1343.991
 488  1320.105
 489  1193.892
 490  1318.179
 491  1467.09
 492  1502.054
 493  1452.593
 494  1484.948
 495  1498.018
 496  1534.702
 497  1375.177
 498  1339.806
 499  1331.299
 500  1369.114
 501  1349.979
 502  1375.836
 503  1352.801
 504  1316.074
 505  1330.602
 506  1297.788
 507  1421
 508  1527.593
 509  1736.213
 510  1827.088
 511  1853.156
