# Input file       =  1203525206.118787_cleaned.dat
# Candidate        =  PSR_0332+5434
# Telescope        =  AR
# Epoch_topo       =  58173.689677300776
# Epoch_bary       =  N/A
# T_sample         =  0.002
# Data Folded      =  7340032
# Data Avg         =  0.0541244572162027
# Data StdDev      =  1.0001370105885  
# Profile Bins     =  512
# Profile Avg      =  775.911502240044 
# Profile StdDev   =  119.749441070543 
# Reduced chi-sqr  =  0.748
# Prob(Noise)      <  1   (~0.0 sigma)
# P_topo (ms)      =  714.580940723971  +/- 0.000621
# P'_topo (s/s)    =  -0                +/- 3.28e-10
# P''_topo (s/s^2) =  0                 +/- 1.45e-13
# P_bary (ms)      =  N/A
# P'_bary (s/s)    =  N/A
# P''_bary (s/s^2) =  N/A
# P_orb (s)        =  N/A
# asin(i)/c (s)    =  N/A
# eccentricity     =  N/A
# w (rad)          =  N/A
# T_peri           =  N/A
######################################################
   0  1177.805
   1  1159.12
   2  985.337
   3  862.4954
   4  736.1652
   5  766.3618
   6  801.226
   7  737.6233
   8  751.2372
   9  750.3118
  10  654.3698
  11  682.1187
  12  788.2939
  13  876.7319
  14  776.5363
  15  695.4924
  16  715.8118
  17  670.259
  18  634.1323
  19  648.5285
  20  733.027
  21  779.1637
  22  816.2191
  23  851.1397
  24  767.7172
  25  703.9824
  26  787.962
  27  735.8575
  28  726.7467
  29  826.8745
  30  861.0396
  31  900.4454
  32  793.944
  33  717.1047
  34  842.6703
  35  839.4948
  36  803.5077
  37  784.2313
  38  769.0032
  39  687.9485
  40  600.1801
  41  646.7941
  42  673.1519
  43  653.1496
  44  648.1038
  45  684.5371
  46  614.9415
  47  550.1405
  48  647.3969
  49  782.8536
  50  807.599
  51  697.8303
  52  661.9611
  53  756.5045
  54  784.925
  55  660.4563
  56  771.8947
  57  872.1107
  58  732.2752
  59  683.1229
  60  657.6754
  61  704.0068
  62  714.4396
  63  648.2985
  64  692.4055
  65  708.8185
  66  660.8339
  67  750.4953
  68  728.3101
  69  735.2728
  70  748.1439
  71  794.9259
  72  754.8316
  73  729.3856
  74  758.571
  75  722.2775
  76  768.7379
  77  740.0858
  78  726.8981
  79  745.053
  80  742.0624
  81  756.5975
  82  849.8035
  83  880.7422
  84  760.8917
  85  714.6257
  86  849.5231
  87  765.8289
  88  703.0557
  89  723.6118
  90  784.8942
  91  736.7201
  92  818.4276
  93  790.7574
  94  765.782
  95  761.9368
  96  773.3324
  97  753.3386
  98  768.8368
  99  828.6596
 100  733.8978
 101  776.5847
 102  737.9832
 103  829.5208
 104  817.959
 105  794.4756
 106  818.7062
 107  892.256
 108  911.7873
 109  859.4156
 110  743.5672
 111  742.0508
 112  791.0759
 113  875.8857
 114  837.6899
 115  796.6149
 116  791.7072
 117  743.9638
 118  663.4243
 119  672.1061
 120  702.9301
 121  656.0513
 122  784.9711
 123  790.8521
 124  834.7239
 125  761.7712
 126  744.5739
 127  839.2718
 128  786.9188
 129  766.0031
 130  766.3108
 131  760.6988
 132  762.6086
 133  742.9197
 134  761.5081
 135  729.2925
 136  636.0119
 137  654.647
 138  727.6967
 139  787.9169
 140  827.4517
 141  770.4244
 142  792.4086
 143  800.3205
 144  759.9598
 145  818.2072
 146  830.5346
 147  875.6099
 148  806.3417
 149  802.0256
 150  798.2865
 151  767.8318
 152  745.5381
 153  800.308
 154  822.5496
 155  798.494
 156  840.7906
 157  758.7234
 158  798.0009
 159  763.8043
 160  774.2855
 161  772.3066
 162  824.4852
 163  954.9817
 164  817.1536
 165  813.2901
 166  842.6338
 167  821.8887
 168  799.4855
 169  836.9767
 170  877.8105
 171  887.4004
 172  826.0789
 173  810.0645
 174  791.3985
 175  816.267
 176  720.1761
 177  753.1749
 178  806.1833
 179  813.0963
 180  732.4947
 181  768.8542
 182  682.2471
 183  710.8675
 184  688.2649
 185  772.7754
 186  728.1658
 187  743.9104
 188  811.9554
 189  756.5907
 190  698.6412
 191  771.1497
 192  811.7837
 193  730.345
 194  719.4407
 195  732.136
 196  734.2578
 197  781.0875
 198  843.1703
 199  730.6857
 200  668.7962
 201  773.0521
 202  791.2476
 203  769.1911
 204  724.7051
 205  758.3605
 206  696.1691
 207  683.3188
 208  773.2525
 209  732.1683
 210  708.6146
 211  732.4013
 212  688.0812
 213  717.0861
 214  732.556
 215  694.8636
 216  695.897
 217  697.3217
 218  674.4348
 219  622.3693
 220  760.8176
 221  694.795
 222  698.7989
 223  673.097
 224  699.6528
 225  672.3361
 226  776.5316
 227  836.7034
 228  811.3383
 229  755.0932
 230  714.4324
 231  742.8868
 232  738.5856
 233  673.8194
 234  705.4686
 235  771.6166
 236  773.3801
 237  837.372
 238  783.0729
 239  808.5685
 240  833.579
 241  873.0046
 242  793.2543
 243  800.2714
 244  839.4757
 245  855.472
 246  797.9014
 247  826.4504
 248  866.4731
 249  923.3318
 250  838.0253
 251  808.4756
 252  867.4989
 253  775.5504
 254  785.7833
 255  691.2413
 256  774.5221
 257  752.9807
 258  730.1071
 259  758.083
 260  766.0455
 261  772.4487
 262  835.7997
 263  864.3973
 264  888.1072
 265  881.3567
 266  789.4252
 267  683.03
 268  688.8562
 269  738.9434
 270  766.5678
 271  694.19
 272  709.5684
 273  693.8342
 274  691.9086
 275  676.8429
 276  726.7776
 277  736.3198
 278  762.991
 279  737.6689
 280  728.2893
 281  754.2071
 282  836.7669
 283  702.3419
 284  697.6284
 285  764.9816
 286  776.5742
 287  714.4189
 288  708.0166
 289  676.3937
 290  640.2045
 291  642.7166
 292  664.9333
 293  699.1492
 294  684.7893
 295  732.2797
 296  709.7303
 297  675.3707
 298  724.8659
 299  760.3156
 300  744.4026
 301  793.0095
 302  795.5925
 303  719.4672
 304  739.1133
 305  770.7514
 306  819.1573
 307  811.4299
 308  773.0089
 309  773.0763
 310  806.5279
 311  853.9739
 312  812.3322
 313  740.3362
 314  759.5901
 315  781.1291
 316  817.8704
 317  878.259
 318  849.1364
 319  799.1555
 320  784.4557
 321  869.9247
 322  903.8599
 323  814.8347
 324  833.8262
 325  792.2794
 326  743.9278
 327  732.6874
 328  755.3146
 329  734.8165
 330  735.2419
 331  835.3987
 332  865.064
 333  799.0792
 334  782.4301
 335  766.473
 336  734.1703
 337  699.5623
 338  771.6184
 339  783.1945
 340  717.5466
 341  747.7387
 342  827.853
 343  814.7539
 344  780.0185
 345  849.2067
 346  893.8117
 347  871.7345
 348  785.6841
 349  787.5563
 350  805.1403
 351  845.4919
 352  838.0287
 353  882.7026
 354  865.9124
 355  852.1905
 356  836.9624
 357  763.2397
 358  797.6424
 359  853.627
 360  905.1855
 361  841.0531
 362  748.0637
 363  799.8815
 364  772.6842
 365  792.684
 366  763.8383
 367  717.5054
 368  708.0708
 369  677.1129
 370  711.8987
 371  722.2883
 372  788.4322
 373  732.6635
 374  738.6704
 375  733.1119
 376  789.4588
 377  741.5508
 378  657.4213
 379  640.7115
 380  662.855
 381  762.5531
 382  724.8202
 383  671.9719
 384  628.6701
 385  663.8106
 386  721.4128
 387  705.459
 388  684.6743
 389  722.8721
 390  731.1951
 391  724.8098
 392  754.5338
 393  745.7931
 394  812.1813
 395  803.0193
 396  743.9597
 397  779.3334
 398  768.875
 399  767.4477
 400  794.3064
 401  703.7561
 402  631.1864
 403  675.853
 404  748.9894
 405  797.5715
 406  790.3927
 407  764.498
 408  698.252
 409  709.2076
 410  680.7591
 411  676.8549
 412  734.9969
 413  757.5432
 414  732.7631
 415  711.489
 416  743.7776
 417  767.721
 418  757.6752
 419  702.7354
 420  698.7437
 421  771.3066
 422  770.105
 423  759.7849
 424  769.6494
 425  834.9903
 426  818.3669
 427  836.083
 428  887.7617
 429  915.3366
 430  854.531
 431  1016.299
 432  884.5739
 433  750.5854
 434  778.8928
 435  888.3465
 436  934.9608
 437  932.9581
 438  853.2834
 439  849.8972
 440  880.5709
 441  865.1484
 442  871.5945
 443  849.197
 444  857.0196
 445  905.1146
 446  899.9588
 447  893.5823
 448  821.749
 449  806.9118
 450  830.2448
 451  935.1037
 452  873.7405
 453  821.9443
 454  820.6575
 455  797.4044
 456  801.9325
 457  863.1078
 458  922.5036
 459  823.0173
 460  833.3531
 461  894.1569
 462  871.7145
 463  840.0179
 464  887.3279
 465  915.7354
 466  889.2667
 467  879.6641
 468  810.0676
 469  759.1969
 470  807.9194
 471  797.5912
 472  800.2057
 473  728.6627
 474  745.2445
 475  832.0326
 476  817.2421
 477  863.0309
 478  737.4445
 479  699.4785
 480  745.1357
 481  781.7693
 482  704.5585
 483  734.9928
 484  777.6642
 485  752.3833
 486  770.5283
 487  738.5189
 488  712.8399
 489  738.6964
 490  750.8226
 491  744.271
 492  754.3103
 493  760.1166
 494  790.754
 495  809.3427
 496  865.7799
 497  921.9667
 498  867.7726
 499  795.621
 500  798.4701
 501  813.2271
 502  819.869
 503  829.8824
 504  858.0428
 505  888.1698
 506  870.993
 507  913.1832
 508  890.2256
 509  914.8579
 510  1041.236
 511  1105.621
