# Input file       =  1203956956.133537_cleaned.dat
# Candidate        =  PSR_0332+5434
# Telescope        =  AR
# Epoch_topo       =  58178.686783952973
# Epoch_bary       =  N/A
# T_sample         =  0.002
# Data Folded      =  7340032
# Data Avg         =  0.0451998987152658
# Data StdDev      =  1.00019112797929 
# Profile Bins     =  512
# Profile Avg      =  647.967879472733 
# Profile StdDev   =  119.755920710063 
# Reduced chi-sqr  =  0.764
# Prob(Noise)      <  1   (~0.0 sigma)
# P_topo (ms)      =  714.580672099963  +/- 0.000535
# P'_topo (s/s)    =  -0                +/- 2.82e-10
# P''_topo (s/s^2) =  0                 +/- 1.25e-13
# P_bary (ms)      =  N/A
# P'_bary (s/s)    =  N/A
# P''_bary (s/s^2) =  N/A
# P_orb (s)        =  N/A
# asin(i)/c (s)    =  N/A
# eccentricity     =  N/A
# w (rad)          =  N/A
# T_peri           =  N/A
######################################################
   0  936.2513
   1  921.828
   2  771.043
   3  734.6811
   4  725.2408
   5  744.4983
   6  849.483
   7  750.4091
   8  685.9231
   9  679.9404
  10  720.5593
  11  679.1084
  12  645.9413
  13  713.1237
  14  830.6999
  15  671.5858
  16  630.8562
  17  687.222
  18  735.9169
  19  649.858
  20  643.8189
  21  766.9182
  22  710.1042
  23  743.1407
  24  790.4921
  25  727.1874
  26  650.3441
  27  560.5389
  28  618.7903
  29  633.7042
  30  657.0665
  31  625.4569
  32  602.6973
  33  683.6826
  34  616.5171
  35  524.7634
  36  549.7404
  37  529.8582
  38  581.7699
  39  611.6232
  40  633.2328
  41  590.8139
  42  594.2802
  43  651.5131
  44  579.5076
  45  677.6697
  46  704.5476
  47  488.0605
  48  468.6906
  49  591.6406
  50  558.1495
  51  552.4783
  52  664.1025
  53  666.5923
  54  570.5606
  55  529.0931
  56  581.3348
  57  585.3972
  58  620.0562
  59  724.7783
  60  745.6841
  61  654.3518
  62  625.492
  63  660.7919
  64  660.1786
  65  746.8149
  66  743.3756
  67  752.4098
  68  868.9703
  69  868.4891
  70  864.3876
  71  731.7999
  72  667.8192
  73  672.3475
  74  756.8439
  75  735.2397
  76  758.5713
  77  690.1306
  78  658.0048
  79  650.2864
  80  583.3212
  81  620.0364
  82  673.7729
  83  615.4894
  84  579.2843
  85  590.5352
  86  620.7593
  87  621.3647
  88  586.6252
  89  670.0454
  90  625.6622
  91  620.2751
  92  754.4296
  93  704.564
  94  668.8143
  95  658.9534
  96  769.6988
  97  829.5549
  98  825.4837
  99  655.6787
 100  660.8718
 101  727.5802
 102  818.3951
 103  833.8296
 104  688.7245
 105  694.3011
 106  726.8226
 107  728.0126
 108  736.7804
 109  704.9324
 110  627.7133
 111  656.7571
 112  752.581
 113  739.3373
 114  702.2784
 115  663.0439
 116  711.0609
 117  652.383
 118  575.5742
 119  586.2942
 120  660.3726
 121  561.2094
 122  562.3311
 123  563.4988
 124  527.65
 125  519.5529
 126  599.1777
 127  585.759
 128  600.7761
 129  649.3958
 130  632.0113
 131  629.3387
 132  554.5413
 133  567.7697
 134  529.7921
 135  513.5515
 136  616.5999
 137  639.13
 138  679.7751
 139  604.938
 140  570.2458
 141  474.1378
 142  571.4683
 143  637.7408
 144  622.5006
 145  610.4529
 146  749.3915
 147  773.7003
 148  712.1249
 149  668.0001
 150  571.491
 151  579.0988
 152  619.9717
 153  679.3808
 154  575.5847
 155  507.9362
 156  606.8954
 157  641.5261
 158  605.2433
 159  638.8002
 160  641.3146
 161  612.9888
 162  567.5969
 163  563.3885
 164  617.1121
 165  703.5024
 166  700.4943
 167  651.6412
 168  637.8107
 169  580.5217
 170  597.73
 171  653.5867
 172  675.3657
 173  700.4086
 174  719.6727
 175  703.5068
 176  669.596
 177  660.3198
 178  723.3942
 179  593.1951
 180  592.9747
 181  735.5885
 182  662.0453
 183  614.8224
 184  705.7523
 185  693.8041
 186  639.4227
 187  674.9827
 188  622.4879
 189  621.821
 190  626.0361
 191  644.8274
 192  582.4188
 193  574.9858
 194  632.1268
 195  678.0302
 196  631.2783
 197  616.5103
 198  585.1484
 199  511.3391
 200  561.6545
 201  523.3152
 202  692.3011
 203  585.4321
 204  592.8694
 205  709.1955
 206  645.0419
 207  644.7763
 208  584.6683
 209  636.9604
 210  629.4679
 211  669.3341
 212  608.5566
 213  618.9276
 214  727.9182
 215  703.2698
 216  581.0995
 217  544.694
 218  584.4556
 219  618.5778
 220  618.33
 221  635.198
 222  618.2242
 223  595.2169
 224  657.5132
 225  742.1967
 226  714.4039
 227  603.2521
 228  594.1054
 229  585.9728
 230  652.6536
 231  641.9412
 232  558.1346
 233  687.779
 234  702.751
 235  664.9517
 236  630.5124
 237  663.7144
 238  602.72
 239  692.8268
 240  704.5717
 241  652.7255
 242  688.0819
 243  632.7871
 244  597.5305
 245  591.5885
 246  637.2976
 247  624.2821
 248  660.4259
 249  669.1925
 250  545.2659
 251  565.2556
 252  684.3173
 253  688.7342
 254  732.3198
 255  745.7934
 256  831.9073
 257  795.2751
 258  692.249
 259  764.1526
 260  793.6171
 261  756.9802
 262  687.4648
 263  714.365
 264  775.9975
 265  722.824
 266  664.1989
 267  708.363
 268  647.7071
 269  657.7207
 270  655.2117
 271  633.1473
 272  666.6055
 273  697.4006
 274  572.4965
 275  643.762
 276  636.9459
 277  612.6663
 278  683.7424
 279  644.4308
 280  562.4798
 281  574.4029
 282  618.1122
 283  588.6352
 284  560.5349
 285  544.9523
 286  653.9103
 287  580.5091
 288  540.7903
 289  508.0641
 290  549.5469
 291  605.6859
 292  641.849
 293  681.882
 294  654.6255
 295  619.2853
 296  632.7943
 297  691.1946
 298  639.3268
 299  525.9316
 300  680.6943
 301  688.7344
 302  560.2197
 303  555.8951
 304  610.2717
 305  574.3974
 306  542.5179
 307  520.7185
 308  588.6253
 309  546.1196
 310  485.2162
 311  529.2512
 312  572.7675
 313  636.7251
 314  561.6849
 315  413.3737
 316  512.4511
 317  604.9001
 318  693.1012
 319  654.5728
 320  655.0425
 321  647.1049
 322  556.0126
 323  608.4297
 324  645.8464
 325  705.4141
 326  733.3188
 327  729.28
 328  618.2095
 329  590.2329
 330  635.3422
 331  640.4193
 332  632.6475
 333  692.3465
 334  708.2706
 335  626.6758
 336  569.9044
 337  629.7491
 338  636.3176
 339  652.8973
 340  636.4296
 341  664.8759
 342  669.9791
 343  667.121
 344  657.3145
 345  626.197
 346  529.5117
 347  535.4518
 348  609.3434
 349  608.7077
 350  637.0293
 351  707.6032
 352  647.0359
 353  640.0135
 354  665.3433
 355  686.6633
 356  792.0644
 357  811.6891
 358  685.486
 359  733.5769
 360  645.3045
 361  661.4208
 362  686.6853
 363  766.4828
 364  650.9828
 365  607.4654
 366  662.8668
 367  695.3303
 368  625.6613
 369  670.7704
 370  669.2151
 371  613.9318
 372  608.8553
 373  725.2048
 374  795.0348
 375  782.516
 376  688.3167
 377  741.6078
 378  645.035
 379  622.7726
 380  647.1075
 381  628.7986
 382  611.8526
 383  634.6332
 384  611.0046
 385  608.1182
 386  560.0625
 387  655.7135
 388  646.6971
 389  604.8025
 390  605.6005
 391  599.5366
 392  606.021
 393  643.8694
 394  694.3174
 395  668.5573
 396  649.7585
 397  659.8446
 398  662.0353
 399  602.1058
 400  549.725
 401  529.226
 402  569.5715
 403  662.2401
 404  627.7505
 405  535.6166
 406  564.2981
 407  648.0447
 408  651.6982
 409  649.3354
 410  582.7236
 411  607.5049
 412  625.6382
 413  590.0724
 414  688.0416
 415  572.8209
 416  596.9395
 417  561.8447
 418  665.2457
 419  745.796
 420  723.3101
 421  701.3741
 422  605.4758
 423  542.8776
 424  642.8613
 425  655.3058
 426  564.0353
 427  733.6908
 428  819.6301
 429  740.1624
 430  723.0035
 431  698.4909
 432  572.4103
 433  631.6243
 434  660.13
 435  659.9448
 436  697.9102
 437  701.4677
 438  623.0519
 439  538.2016
 440  646.3751
 441  556.9504
 442  636.2502
 443  688.1857
 444  684.7764
 445  625.1757
 446  606.6133
 447  598.9565
 448  635.1358
 449  634.4042
 450  634.8406
 451  622.5428
 452  625.038
 453  737.6263
 454  748.4582
 455  697.1539
 456  638.1696
 457  538.6299
 458  637.6003
 459  691.8087
 460  696.7411
 461  696.4655
 462  745.0658
 463  577.5505
 464  663.5779
 465  643.6794
 466  669.252
 467  656.5506
 468  688.4834
 469  709.2524
 470  690.2806
 471  653.848
 472  602.1138
 473  535.1578
 474  601.8857
 475  700.1589
 476  675.5789
 477  556.77
 478  531.0203
 479  593.7828
 480  633.7148
 481  578.8979
 482  551.2579
 483  638.5328
 484  617.3845
 485  485.9872
 486  584.5318
 487  499.4098
 488  467.8095
 489  530.6973
 490  614.8002
 491  667.4208
 492  614.412
 493  589.3193
 494  616.9412
 495  717.6037
 496  659.1915
 497  670.4866
 498  638.0245
 499  587.3023
 500  707.3812
 501  742.1443
 502  672.0884
 503  662.842
 504  695.7559
 505  715.4637
 506  706.808
 507  695.4031
 508  744.2191
 509  771.1329
 510  984.5932
 511  1034.23
