# Input file       =  1203672702.105511_cleaned.dat
# Candidate        =  PSR_0332+5434
# Telescope        =  AR
# Epoch_topo       =  58175.396806776749
# Epoch_bary       =  N/A
# T_sample         =  0.002
# Data Folded      =  7405568
# Data Avg         =  0.0762812522318712
# Data StdDev      =  1.00013041619635 
# Profile Bins     =  512
# Profile Avg      =  1103.34820377439 
# Profile StdDev   =  120.282055709641 
# Reduced chi-sqr  =  1.230
# Prob(Noise)      <  0.000284   (~3.4 sigma)
# P_topo (ms)      =  714.58066656063   +/- 0.000304
# P'_topo (s/s)    =  -0                +/- 1.59e-10
# P''_topo (s/s^2) =  0                 +/- 6.95e-14
# P_bary (ms)      =  N/A
# P'_bary (s/s)    =  N/A
# P''_bary (s/s^2) =  N/A
# P_orb (s)        =  N/A
# asin(i)/c (s)    =  N/A
# eccentricity     =  N/A
# w (rad)          =  N/A
# T_peri           =  N/A
######################################################
   0  1363.862
   1  1370.667
   2  1246.591
   3  1226.627
   4  1127.09
   5  1076.825
   6  1071.194
   7  1102.169
   8  1097.523
   9  1100.058
  10  1047.146
  11  991.1138
  12  1022.078
  13  1097.109
  14  1058.535
  15  1047.765
  16  1004.691
  17  1064.874
  18  1044.038
  19  1074.461
  20  1101.722
  21  998.5691
  22  918.3046
  23  931.0925
  24  939.0451
  25  916.5984
  26  857.5849
  27  867.0798
  28  937.9753
  29  937.6418
  30  957.3425
  31  946.2633
  32  1056.713
  33  1037.873
  34  993.7856
  35  1088.071
  36  1110.536
  37  1026.802
  38  929.6652
  39  1016.681
  40  1108.668
  41  1063.649
  42  941.3911
  43  1021.707
  44  1059.344
  45  1033.787
  46  1050.367
  47  1161.461
  48  1009.97
  49  975.1268
  50  1075.676
  51  1052.632
  52  1042.417
  53  1068.41
  54  1069.078
  55  1094.193
  56  1109.642
  57  1065.432
  58  974.7192
  59  902.3397
  60  921.8539
  61  913.2596
  62  1100.846
  63  963.9485
  64  919.9411
  65  947.1617
  66  999.9626
  67  878.5468
  68  971.0187
  69  949.5934
  70  908.8513
  71  1023.537
  72  982.8207
  73  1049.234
  74  894.9075
  75  946.1387
  76  973.4982
  77  921.5971
  78  924.0785
  79  845.4167
  80  920.3663
  81  877.0244
  82  807.6743
  83  947.0139
  84  959.9442
  85  859.1177
  86  955.971
  87  939.1514
  88  993.8848
  89  1018.948
  90  961.7767
  91  938.092
  92  905.1311
  93  974.9848
  94  917.0341
  95  976.3812
  96  996.7123
  97  1062.629
  98  987.3914
  99  1034.351
 100  1080.57
 101  1092.859
 102  1095.892
 103  1168.048
 104  1172.501
 105  1071.429
 106  1176.171
 107  1083.652
 108  1091.031
 109  998.1444
 110  1007.535
 111  1096.875
 112  1086.883
 113  1061.075
 114  1092.663
 115  1127.669
 116  1139.766
 117  1135.042
 118  1194.393
 119  1160.189
 120  1150.014
 121  1099.003
 122  1033.628
 123  975.8838
 124  990.5889
 125  1106.964
 126  1081.382
 127  1134.11
 128  1085.181
 129  1035.841
 130  1073.008
 131  1132.44
 132  1124.92
 133  1041.526
 134  1079.512
 135  1096.275
 136  1138.731
 137  1109.751
 138  1069.704
 139  1078.055
 140  1038.704
 141  1120.035
 142  1195.212
 143  1087.553
 144  1092.374
 145  1050.411
 146  986.1157
 147  1107.495
 148  1160.008
 149  1101.604
 150  1140.485
 151  1194.845
 152  1135.078
 153  1137.85
 154  1191.263
 155  1176.603
 156  1143.803
 157  1173.318
 158  1097.245
 159  1120.808
 160  1149.907
 161  1064.717
 162  1022.698
 163  1141.861
 164  1104.187
 165  1083.795
 166  973.3749
 167  1073.536
 168  1076.591
 169  1125.677
 170  1202.658
 171  1254.74
 172  1241.309
 173  1202.335
 174  1178.117
 175  1203.926
 176  1123.335
 177  1130.434
 178  1175.865
 179  1223.957
 180  1179.103
 181  1294.579
 182  1270.978
 183  1273.029
 184  1324.376
 185  1321.03
 186  1339.909
 187  1244.867
 188  1252.92
 189  1301.507
 190  1252.227
 191  1241.839
 192  1340.363
 193  1350.628
 194  1283.411
 195  1184.914
 196  1155.731
 197  1249.283
 198  1267.575
 199  1301.125
 200  1181.803
 201  1196.606
 202  1103.356
 203  1107.057
 204  1192.844
 205  1222.99
 206  1171.159
 207  1129.403
 208  1130.18
 209  992.123
 210  1052.976
 211  1059.651
 212  1111.309
 213  1144.869
 214  1118.244
 215  1142.963
 216  1166.523
 217  1141.228
 218  953.4018
 219  1004.194
 220  1036.755
 221  1044.667
 222  929.4507
 223  984.0287
 224  1167.488
 225  1096.912
 226  1057.729
 227  917.995
 228  1000.782
 229  976.7449
 230  1099.976
 231  1127.295
 232  1023.24
 233  1068.532
 234  1131.634
 235  1106.797
 236  1038.432
 237  968.5969
 238  934.3928
 239  978.0247
 240  1051.053
 241  993.4772
 242  1007.381
 243  984.7311
 244  997.675
 245  956.2218
 246  1039.481
 247  1030.808
 248  944.1833
 249  955.6565
 250  1047.735
 251  1056.552
 252  1095.816
 253  1138.542
 254  1175.36
 255  1099.244
 256  1095.577
 257  1204.062
 258  1116.03
 259  1095.475
 260  1097.923
 261  1190.554
 262  1187.74
 263  1215.155
 264  1237.867
 265  1226.774
 266  1228.84
 267  1150.538
 268  1188.125
 269  1253.7
 270  1164.08
 271  1054.712
 272  1134.347
 273  1219.905
 274  1118.133
 275  1224.565
 276  1250.957
 277  1185.905
 278  1099.716
 279  1109.966
 280  1097.139
 281  1141.241
 282  1238.465
 283  1161.299
 284  1182.314
 285  1227.788
 286  1202.296
 287  1228.747
 288  1037.632
 289  1068.79
 290  1072.963
 291  1058.568
 292  985.1108
 293  1016.996
 294  1125.691
 295  1177.469
 296  1167.886
 297  1153.31
 298  1221.435
 299  1240.088
 300  1214.776
 301  1159.237
 302  1102.107
 303  1098.194
 304  1049.925
 305  1021.125
 306  1006.492
 307  1098.601
 308  1191.391
 309  1130.059
 310  1036.517
 311  1026.747
 312  1082.531
 313  1086.541
 314  1021.3
 315  996.4728
 316  1106.791
 317  1114.397
 318  1119.087
 319  1182.644
 320  1115.089
 321  1136.235
 322  1129.624
 323  1157.446
 324  1124.178
 325  1057.909
 326  1074.169
 327  1075.884
 328  1076.29
 329  994.7363
 330  1044.363
 331  983.5554
 332  1108.691
 333  1131.039
 334  1097.503
 335  1140.703
 336  1167.275
 337  1101.416
 338  962.8895
 339  1002.045
 340  1106.234
 341  1103.141
 342  1145.203
 343  1165.383
 344  1226.293
 345  1170.127
 346  1088.012
 347  1063.014
 348  1059.332
 349  1076.673
 350  1049.029
 351  1086.184
 352  1146.284
 353  1156.523
 354  1126.198
 355  1124.648
 356  1232.383
 357  1102.373
 358  1119.626
 359  1097.368
 360  1072.524
 361  1120.056
 362  1004.316
 363  1101.331
 364  1088.027
 365  1115.457
 366  1125.15
 367  1148.279
 368  1107.758
 369  1051.316
 370  1015.146
 371  1009.775
 372  1022.653
 373  1057.237
 374  1073.291
 375  1019.745
 376  1090.844
 377  1106.867
 378  1036.94
 379  1012.443
 380  1006.008
 381  1064.085
 382  1126.741
 383  1108.623
 384  1133.823
 385  1182.685
 386  1160.517
 387  1072.276
 388  1040.512
 389  1050.189
 390  1069.595
 391  1088.688
 392  1213.096
 393  1250.818
 394  1201.071
 395  1222.922
 396  1239.898
 397  1228.228
 398  1250.287
 399  1124.368
 400  1130.783
 401  1123.912
 402  1173.789
 403  1224.931
 404  1250.279
 405  1251.787
 406  1181.766
 407  1109.076
 408  1180.232
 409  1215.502
 410  1240.001
 411  1185.485
 412  1166.176
 413  1161.232
 414  1174.887
 415  1301.353
 416  1244.216
 417  1181.376
 418  1243.075
 419  1287.686
 420  1158.373
 421  1102.144
 422  1265.356
 423  1177.588
 424  1062.927
 425  1124.246
 426  1144.183
 427  1171.697
 428  1232.736
 429  1257.994
 430  1113.588
 431  1082.513
 432  956.3879
 433  987.5539
 434  1103.721
 435  1156.362
 436  1140.802
 437  1105.308
 438  1141.105
 439  1063.358
 440  1095.551
 441  1111.949
 442  1148.237
 443  1089.551
 444  1084.547
 445  1141.015
 446  1139.888
 447  1183.822
 448  1201.444
 449  1197.207
 450  1238.492
 451  1186.842
 452  1170.037
 453  1122.933
 454  1077.089
 455  1112.511
 456  1109.317
 457  1223.559
 458  1215.809
 459  1137.209
 460  1094.445
 461  1070.605
 462  1174.213
 463  1110.599
 464  1064.36
 465  1117.264
 466  1131.459
 467  1120.054
 468  1147.147
 469  1065.243
 470  1182.081
 471  1167.12
 472  1177.401
 473  1078.166
 474  1071.001
 475  1140.786
 476  1037.428
 477  1078.429
 478  1106.29
 479  1170.33
 480  1224.146
 481  1352.515
 482  1249.038
 483  1274.814
 484  1230.153
 485  1254.68
 486  1180.525
 487  1193.009
 488  1221.738
 489  1152.942
 490  1150.869
 491  1168.561
 492  1212.852
 493  1203.529
 494  1167.455
 495  1164.816
 496  1119.097
 497  1167.381
 498  1115.162
 499  1056.812
 500  1132.147
 501  1133.801
 502  1038.033
 503  999.1882
 504  1027.155
 505  1027.73
 506  1023.687
 507  1094.442
 508  1101.622
 509  1186.971
 510  1243.478
 511  1397.585
