# Input file       =  1203871285.120302_cleaned.dat
# Candidate        =  PSR_0332+5434
# Telescope        =  AR
# Epoch_topo       =  58177.695221299793
# Epoch_bary       =  N/A
# T_sample         =  0.002
# Data Folded      =  7340032
# Data Avg         =  0.0407909256363481
# Data StdDev      =  1.00016009194732 
# Profile Bins     =  512
# Profile Avg      =  584.811468297136 
# Profile StdDev   =  119.752204671718 
# Reduced chi-sqr  =  0.654
# Prob(Noise)      <  1   (~0.0 sigma)
# P_topo (ms)      =  714.58077612708   +/- 0.000813
# P'_topo (s/s)    =  -0                +/- 4.29e-10
# P''_topo (s/s^2) =  0                 +/- 1.89e-13
# P_bary (ms)      =  N/A
# P'_bary (s/s)    =  N/A
# P''_bary (s/s^2) =  N/A
# P_orb (s)        =  N/A
# asin(i)/c (s)    =  N/A
# eccentricity     =  N/A
# w (rad)          =  N/A
# T_peri           =  N/A
######################################################
   0  771.7463
   1  806.8171
   2  819.8368
   3  706.1809
   4  627.3263
   5  699.8956
   6  588.2042
   7  615.6962
   8  652.4022
   9  588.6288
  10  636.8412
  11  580.8172
  12  663.5964
  13  695.3188
  14  603.0138
  15  545.1467
  16  603.2747
  17  526.5027
  18  573.4512
  19  502.0126
  20  492.591
  21  596.3429
  22  638.0762
  23  601.7659
  24  540.6737
  25  551.5736
  26  594.9708
  27  554.2517
  28  595.7139
  29  639.8713
  30  558.4251
  31  542.912
  32  556.162
  33  528.1574
  34  493.0397
  35  571.0161
  36  585.6627
  37  673.1919
  38  642.6328
  39  579.004
  40  662.1168
  41  561.4628
  42  518.0923
  43  645.9208
  44  592.7451
  45  607.3094
  46  651.245
  47  566.7449
  48  601.4499
  49  639.6006
  50  623.7078
  51  611.6344
  52  642.9958
  53  612.9598
  54  623.8484
  55  605.0519
  56  593.5907
  57  606.5728
  58  569.1921
  59  636.9146
  60  617.7523
  61  644.658
  62  518.1013
  63  448.0343
  64  584.2158
  65  475.4257
  66  538.1333
  67  615.7909
  68  539.106
  69  556.0108
  70  621.8968
  71  684.5824
  72  633.1848
  73  623.7535
  74  666.841
  75  648.8982
  76  513.7961
  77  532.2548
  78  639.9357
  79  552.7704
  80  561.3882
  81  617.4899
  82  574.7333
  83  605.8742
  84  503.8692
  85  465.5733
  86  565.7626
  87  552.3038
  88  645.9515
  89  621.5549
  90  632.7313
  91  521.8664
  92  496.132
  93  482.5602
  94  557.0118
  95  631.1366
  96  613.7504
  97  600.1389
  98  632.6871
  99  521.7293
 100  481.2837
 101  493.3708
 102  518.0294
 103  495.7382
 104  517.8334
 105  553.7173
 106  493.7728
 107  429.8133
 108  568.2544
 109  571.0321
 110  551.8629
 111  469.4351
 112  507.4762
 113  620.0544
 114  590.3328
 115  532.7394
 116  661.9791
 117  646.9818
 118  574.3914
 119  547.7766
 120  529.7145
 121  553.293
 122  463.0197
 123  515.7092
 124  484.3909
 125  444.0276
 126  539.5967
 127  555.3368
 128  524.0132
 129  426.7621
 130  444.5329
 131  471.686
 132  434.7568
 133  530.0294
 134  626.6445
 135  713.2509
 136  627.7319
 137  577.899
 138  591.8762
 139  607.4409
 140  604.96
 141  596.2202
 142  743.4666
 143  667.4433
 144  570.0699
 145  654.5363
 146  618.4587
 147  554.5904
 148  553.6867
 149  642.9542
 150  559.1575
 151  514.838
 152  617.1277
 153  653.6923
 154  639.6812
 155  632.9868
 156  658.3813
 157  572.8058
 158  552.8555
 159  569.9174
 160  608.028
 161  571.374
 162  549.9936
 163  606.0994
 164  531.009
 165  394.7036
 166  475.3279
 167  440.5374
 168  528.416
 169  529.8981
 170  587.8275
 171  574.6526
 172  575.6241
 173  530.489
 174  438.562
 175  354.5082
 176  476.1054
 177  592.5238
 178  671.5597
 179  555.2158
 180  531.6093
 181  515.5861
 182  564.8497
 183  629.7983
 184  552.0231
 185  514.2072
 186  489.9438
 187  571.1238
 188  576.0222
 189  536.2848
 190  452.2278
 191  514.8408
 192  518.1794
 193  562.0715
 194  653.1555
 195  596.6744
 196  694.7393
 197  721.5746
 198  686.5613
 199  676.9899
 200  611.2761
 201  674.313
 202  684.0659
 203  645.9566
 204  622.1417
 205  620.4359
 206  560.723
 207  617.3826
 208  581.8659
 209  535.7112
 210  613.1838
 211  605.4625
 212  470.937
 213  453.6068
 214  540.5871
 215  572.7617
 216  546.9485
 217  537.7407
 218  612.8676
 219  522.9039
 220  489.5291
 221  660.1336
 222  580.5432
 223  547.3452
 224  511.1756
 225  571.4019
 226  585.1872
 227  594.1508
 228  646.3007
 229  596.7841
 230  583.5486
 231  501.977
 232  456.1656
 233  553.623
 234  617.4575
 235  660.1596
 236  663.4194
 237  601.8527
 238  482.4486
 239  564.9531
 240  603.3228
 241  521.825
 242  515.9389
 243  476.1058
 244  487.234
 245  556.4489
 246  510.6218
 247  429.5978
 248  447.1196
 249  435.4803
 250  488.7289
 251  590.6472
 252  552.9368
 253  512.8423
 254  521.9572
 255  508.8363
 256  535.0493
 257  513.4448
 258  520.7471
 259  576.7866
 260  588.2808
 261  525.9045
 262  554.5547
 263  567.9586
 264  569.3647
 265  524.8331
 266  495.8036
 267  490.1041
 268  549.2147
 269  547.4016
 270  573.1369
 271  444.997
 272  466.1198
 273  436.2983
 274  465.2224
 275  565.3976
 276  655.4832
 277  615.8874
 278  545.3433
 279  491.8615
 280  558.7341
 281  619.1926
 282  581.7397
 283  509.1753
 284  526.8258
 285  599.0285
 286  525.3225
 287  506.3146
 288  695.0083
 289  664.0728
 290  566.6373
 291  510.2469
 292  522.0209
 293  569.608
 294  643.5897
 295  501.9541
 296  485.1561
 297  543.0432
 298  611.6654
 299  581.1841
 300  585.5358
 301  573.0065
 302  557.2886
 303  621.7521
 304  644.4938
 305  563.6423
 306  599.7344
 307  616.8596
 308  550.8751
 309  588.9554
 310  576.476
 311  555.7001
 312  554.8257
 313  575.7495
 314  619.8058
 315  694.3536
 316  583.9106
 317  570.3196
 318  680.1237
 319  628.6705
 320  585.425
 321  658.1105
 322  698.7324
 323  615.406
 324  593.6591
 325  611.26
 326  543.8268
 327  554.9183
 328  603.1766
 329  568.7104
 330  494.972
 331  560.9616
 332  544.6112
 333  542.5045
 334  545.0825
 335  672.0516
 336  568.7281
 337  506.9659
 338  539.9597
 339  565.3812
 340  571.553
 341  503.5296
 342  495.1606
 343  489.8016
 344  536.1742
 345  510.165
 346  519.5428
 347  566.5733
 348  558.2753
 349  613.9521
 350  630.874
 351  665.103
 352  652.1984
 353  668.1819
 354  641.0298
 355  659.4471
 356  623.7584
 357  592.8976
 358  507.1335
 359  543.8859
 360  636.2545
 361  658.2019
 362  691.5637
 363  706.0901
 364  610.2519
 365  612.1296
 366  599.0439
 367  578.7107
 368  592.8307
 369  626.8475
 370  695.6268
 371  634.9073
 372  584.8612
 373  596.0777
 374  598.1719
 375  500.3689
 376  514.0414
 377  621.6566
 378  650.6785
 379  709.3943
 380  770.1144
 381  667.9229
 382  609.4099
 383  612.8993
 384  594.6
 385  645.2937
 386  759.3922
 387  668.861
 388  604.7341
 389  645.6422
 390  670.583
 391  707.5391
 392  671.5316
 393  674.5643
 394  609.876
 395  574.3493
 396  638.3958
 397  641.0588
 398  607.5167
 399  620.7357
 400  630.0878
 401  593.7098
 402  564.3863
 403  590.6359
 404  614.7335
 405  642.9537
 406  640.9614
 407  666.7971
 408  623.6508
 409  647.6459
 410  685.0187
 411  800.6166
 412  652.1961
 413  583.0348
 414  623.3379
 415  664.2752
 416  662.5299
 417  609.5892
 418  687.2098
 419  650.6052
 420  609.1942
 421  647.7447
 422  680.7078
 423  653.7153
 424  719.7727
 425  676.3095
 426  658.2782
 427  636.4244
 428  643.6074
 429  621.3274
 430  607.9196
 431  602.3087
 432  670.0567
 433  702.2427
 434  753.3214
 435  717.0106
 436  649.4771
 437  653.4856
 438  685.8774
 439  751.3254
 440  721.3055
 441  536.4506
 442  456.7065
 443  539.791
 444  584.0385
 445  585.7029
 446  602.3986
 447  574.0862
 448  581.4891
 449  708.0068
 450  620.1104
 451  574.1767
 452  569.2468
 453  601.0018
 454  551.6804
 455  590.1834
 456  635.5541
 457  545.0048
 458  543.1478
 459  544.659
 460  520.0569
 461  518.6618
 462  550.5396
 463  603.7511
 464  465.1733
 465  463.4848
 466  479.0459
 467  515.8351
 468  604.5225
 469  624.913
 470  665.8695
 471  572.4941
 472  542.4268
 473  581.0018
 474  592.9467
 475  600.9676
 476  560.87
 477  583.8547
 478  526.3901
 479  557.2498
 480  584.2145
 481  512.1349
 482  559.5949
 483  629.5549
 484  606.5534
 485  546.8075
 486  596.5928
 487  575.7294
 488  589.568
 489  598.5342
 490  594.2807
 491  453.8833
 492  476.9058
 493  478.2642
 494  535.0695
 495  613.1738
 496  583.1365
 497  539.3327
 498  569.5402
 499  582.2568
 500  610.7979
 501  559.3456
 502  627.4138
 503  654.0826
 504  610.0912
 505  671.9706
 506  697.3949
 507  743.8695
 508  613.9981
 509  576.1335
 510  748.6892
 511  847.1819
