# Input file       =  1203343110.089843_cleaned.dat
# Candidate        =  PSR_0332+5434
# Telescope        =  AR
# Epoch_topo       =  58171.582084373185
# Epoch_bary       =  N/A
# T_sample         =  0.002
# Data Folded      =  7340032
# Data Avg         =  0.0792051091027943
# Data StdDev      =  1.00041328825954 
# Profile Bins     =  512
# Profile Avg      =  1135.57090678667 
# Profile StdDev   =  119.78252063498  
# Reduced chi-sqr  =  1.527
# Prob(Noise)      <  1.45e-13   (~7.3 sigma)
# P_topo (ms)      =  714.580729026645  +/- 0.000861
# P'_topo (s/s)    =  -0                +/- 4.54e-10
# P''_topo (s/s^2) =  0                 +/- 2.01e-13
# P_bary (ms)      =  N/A
# P'_bary (s/s)    =  N/A
# P''_bary (s/s^2) =  N/A
# P_orb (s)        =  N/A
# asin(i)/c (s)    =  N/A
# eccentricity     =  N/A
# w (rad)          =  N/A
# T_peri           =  N/A
######################################################
   0  1559.007
   1  1567.806
   2  1493.04
   3  1485.396
   4  1355.188
   5  1241.318
   6  1334.297
   7  1338.026
   8  1341.396
   9  1255.907
  10  1180.517
  11  1200.339
  12  1223.292
  13  1227.353
  14  1322.843
  15  1285.529
  16  1242.915
  17  1280.155
  18  1306.644
  19  1250.273
  20  1216.726
  21  1218.44
  22  1148.796
  23  1206.03
  24  1192.059
  25  1190.842
  26  1146.335
  27  1126.041
  28  1117.707
  29  1097.289
  30  1170.68
  31  1195.969
  32  1121.581
  33  1161.364
  34  1195.798
  35  1119.84
  36  1145.489
  37  1214.015
  38  1129.211
  39  1176.276
  40  1181.69
  41  1165.281
  42  1122.51
  43  1152.442
  44  1158.628
  45  1126.617
  46  1087.364
  47  1113.671
  48  1113.876
  49  1046.93
  50  1109.906
  51  1159.319
  52  1166.515
  53  1166.621
  54  1135.124
  55  1207.476
  56  1220.538
  57  1202.388
  58  1136.384
  59  1242.78
  60  1263.694
  61  1293.271
  62  1169.72
  63  1244.343
  64  1285.502
  65  1230.078
  66  1178.023
  67  1224.879
  68  1243.895
  69  1195.315
  70  1183.798
  71  1201.584
  72  1207.931
  73  1160.733
  74  1192.75
  75  1124.109
  76  1097.219
  77  1089.742
  78  1095.164
  79  1120.171
  80  1087.082
  81  1096.424
  82  943.6364
  83  1013.772
  84  1105.039
  85  1099.734
  86  1030.788
  87  991.5071
  88  988.1993
  89  1010.706
  90  1005.515
  91  968.9886
  92  1076.565
  93  1058.731
  94  1055.294
  95  988.9318
  96  990.2839
  97  1030.481
  98  1018.329
  99  1023.656
 100  1058.444
 101  1079.187
 102  1078.155
 103  1067.8
 104  1084.272
 105  1078.137
 106  1078.472
 107  1128.042
 108  1117.215
 109  1079.197
 110  1084.872
 111  1106.14
 112  1135.808
 113  1128.787
 114  1021.472
 115  1048.106
 116  996.3227
 117  1109.631
 118  1069.463
 119  1007.023
 120  1022.742
 121  1114.089
 122  1066.744
 123  1012.47
 124  947.02
 125  945.1984
 126  988.0199
 127  1043.086
 128  1123.87
 129  1118.275
 130  1083.877
 131  1044.756
 132  978.9872
 133  1090.219
 134  1102.408
 135  1120.014
 136  1102.699
 137  1040.177
 138  991.8531
 139  1062.795
 140  1094.89
 141  1083.859
 142  1064.538
 143  1045.693
 144  1032.167
 145  1025.083
 146  1061.726
 147  995.1775
 148  1013.754
 149  1058.859
 150  1056.794
 151  1006.551
 152  1010.596
 153  1001.901
 154  1012.36
 155  1024.29
 156  1057.798
 157  1089.688
 158  929.5908
 159  944.3719
 160  1053.183
 161  1073.869
 162  1034.938
 163  1102.45
 164  1028.302
 165  1042.601
 166  1116.794
 167  1135.896
 168  1119.137
 169  1058.384
 170  1095.398
 171  1198.997
 172  1127.917
 173  1141.847
 174  1096.006
 175  1130
 176  1119.848
 177  1129.762
 178  1121.815
 179  1063.72
 180  1084.121
 181  1111.003
 182  1137.575
 183  1119.909
 184  1034.515
 185  998.4189
 186  1028.677
 187  1095.707
 188  1182.283
 189  1095.284
 190  1180.932
 191  1150.534
 192  1110.136
 193  1068.939
 194  1044.507
 195  1051.917
 196  1074.699
 197  1023.333
 198  1031.592
 199  1012.246
 200  997.3142
 201  1011.981
 202  1006.04
 203  1125.669
 204  1116.842
 205  1099.9
 206  1063.725
 207  1123.457
 208  1213.597
 209  1146.94
 210  1165.315
 211  1177.789
 212  1148.298
 213  1102.879
 214  1074.766
 215  1026.042
 216  1061.22
 217  989.1235
 218  916.7452
 219  1004.059
 220  1064.917
 221  1023.313
 222  1036.652
 223  1078.249
 224  1124.283
 225  1058.914
 226  1060.616
 227  1062.481
 228  990.402
 229  946.8549
 230  1057.619
 231  1072.295
 232  1041.17
 233  943.7289
 234  977.6995
 235  1019.273
 236  1020.17
 237  1073.943
 238  1016.908
 239  1031.582
 240  1068.334
 241  1039.938
 242  1043.154
 243  1122.263
 244  1091.591
 245  1026.051
 246  1046.749
 247  1042.391
 248  977.5217
 249  974.2844
 250  994.2579
 251  1061.003
 252  1101.659
 253  1087.59
 254  1048.577
 255  949.5065
 256  1049.789
 257  1015.493
 258  1051.165
 259  1014.23
 260  1045.804
 261  1098.325
 262  1063.436
 263  1100.777
 264  1079.716
 265  1131.124
 266  1091.739
 267  1158.245
 268  1148.14
 269  1176.476
 270  1129.131
 271  1113.409
 272  1067.499
 273  1074.794
 274  1144.811
 275  1123.969
 276  1103.088
 277  1106.228
 278  1110.697
 279  1095.256
 280  1086.911
 281  1055.917
 282  1106.571
 283  1160.595
 284  1112.997
 285  1119.551
 286  1109.473
 287  1084.154
 288  1098.637
 289  1042.702
 290  1042.613
 291  1148.43
 292  1216.246
 293  1180.275
 294  1089.903
 295  1060.659
 296  1140.986
 297  1166.745
 298  1100.274
 299  1099.093
 300  1092.117
 301  1081.468
 302  1049.593
 303  1107.036
 304  1118.22
 305  1209.339
 306  1264.208
 307  1233.562
 308  1227.536
 309  1209.357
 310  1180.397
 311  1144.061
 312  1241.921
 313  1272.768
 314  1223.77
 315  1250.043
 316  1176.953
 317  1162.992
 318  1197.566
 319  1201.198
 320  1115.946
 321  1101.737
 322  1121.862
 323  1130.415
 324  1189.179
 325  1209.653
 326  1204.877
 327  1190.254
 328  1077.502
 329  1120.507
 330  1138.689
 331  1083.831
 332  1051.615
 333  1112.012
 334  1104.756
 335  1035.33
 336  1080.733
 337  996.8057
 338  976.7861
 339  958.1968
 340  1091.345
 341  1142.796
 342  1105.841
 343  1080.505
 344  1095.638
 345  1036.528
 346  1067.178
 347  1108.837
 348  1093.657
 349  1200.721
 350  1182.688
 351  1126.973
 352  1020.929
 353  1011.346
 354  1116.568
 355  1149.189
 356  1026.126
 357  1100.625
 358  1063.707
 359  1139.646
 360  1076.932
 361  1071.804
 362  1097.158
 363  1127.608
 364  1171.552
 365  1156.572
 366  1180.973
 367  1099.674
 368  1124.065
 369  1160.946
 370  1151.691
 371  1062.784
 372  1070.156
 373  1211.471
 374  1226.112
 375  1149.445
 376  1206.674
 377  1234.042
 378  1218.015
 379  1188.357
 380  1107.936
 381  1173.759
 382  1162.212
 383  1176.236
 384  1160.495
 385  1159.447
 386  1178.05
 387  1135.148
 388  1159.046
 389  1122.872
 390  1118.727
 391  1082.641
 392  1198.8
 393  1253.214
 394  1232.402
 395  1261.841
 396  1216.056
 397  1170.942
 398  1218.615
 399  1256.062
 400  1194.709
 401  1172.81
 402  1271.101
 403  1287.321
 404  1148.599
 405  1119.666
 406  1177.278
 407  1180.195
 408  1132.877
 409  1126.248
 410  1251.029
 411  1254.329
 412  1247.159
 413  1165.045
 414  1165.922
 415  1129.25
 416  1092.168
 417  1084.533
 418  1177.655
 419  1242.53
 420  1208.734
 421  1123.211
 422  1134.944
 423  1071.63
 424  1076.294
 425  1089.522
 426  1118.354
 427  1086.04
 428  1101.671
 429  1106.18
 430  1101.488
 431  1099.768
 432  1063.589
 433  1045.024
 434  962.647
 435  1010.214
 436  1089.456
 437  1154.752
 438  1067.987
 439  1007.717
 440  1002.017
 441  1071.024
 442  1104.942
 443  1063.619
 444  1118.482
 445  1150.882
 446  1145.516
 447  1081.397
 448  1006.165
 449  1041.633
 450  1122.164
 451  1099.452
 452  1157.843
 453  1189.893
 454  1194.787
 455  1167.932
 456  1144.601
 457  1146.525
 458  1149.808
 459  1187.501
 460  1249.478
 461  1239.864
 462  1254.725
 463  1196.611
 464  1203.334
 465  1134.573
 466  1182.825
 467  1221.872
 468  1135.119
 469  1177.893
 470  1155.402
 471  1147.126
 472  1187.303
 473  1150.213
 474  1163.278
 475  1224.042
 476  1207.275
 477  1240.706
 478  1166.309
 479  1220.248
 480  1305.968
 481  1348.938
 482  1393.087
 483  1428.061
 484  1413.793
 485  1407.931
 486  1358.793
 487  1361.531
 488  1345.538
 489  1318.824
 490  1403.573
 491  1448.846
 492  1472.83
 493  1449.83
 494  1380.119
 495  1355.466
 496  1398.45
 497  1400.664
 498  1294.213
 499  1268.698
 500  1260.885
 501  1235.023
 502  1319.676
 503  1363.231
 504  1408.499
 505  1446.481
 506  1391.848
 507  1331.746
 508  1340.936
 509  1469.118
 510  1590.97
 511  1578.733
