# Input file       =  1203429282.104877_cleaned.dat
# Candidate        =  PSR_0332+5434
# Telescope        =  AR
# Epoch_topo       =  58172.579445658295
# Epoch_bary       =  N/A
# T_sample         =  0.002
# Data Folded      =  7340032
# Data Avg         =  0.0626097067773338
# Data StdDev      =  1.00016921340443 
# Profile Bins     =  512
# Profile Avg      =  897.549857173094 
# Profile StdDev   =  119.753296811474 
# Reduced chi-sqr  =  1.553
# Prob(Noise)      <  1.34e-14   (~7.6 sigma)
# P_topo (ms)      =  714.580742519006  +/- 0.000836
# P'_topo (s/s)    =  -0                +/- 4.41e-10
# P''_topo (s/s^2) =  0                 +/- 1.95e-13
# P_bary (ms)      =  N/A
# P'_bary (s/s)    =  N/A
# P''_bary (s/s^2) =  N/A
# P_orb (s)        =  N/A
# asin(i)/c (s)    =  N/A
# eccentricity     =  N/A
# w (rad)          =  N/A
# T_peri           =  N/A
######################################################
   0  1426.775
   1  1355.283
   2  1303.664
   3  1245.104
   4  1198.913
   5  1062.792
   6  1043.129
   7  1061.395
   8  1078.747
   9  1134.065
  10  1081.327
  11  1103.914
  12  987.0049
  13  952.4148
  14  972.1041
  15  952.8338
  16  971.8932
  17  975.7662
  18  994.848
  19  1022.944
  20  1105.967
  21  1084.187
  22  974.2643
  23  975.9801
  24  1045.203
  25  1032.897
  26  966.3397
  27  999.9116
  28  981.9487
  29  909.5223
  30  975.2104
  31  1031.006
  32  991.9922
  33  998.2138
  34  937.97
  35  972.2264
  36  968.7358
  37  925.0519
  38  986.9737
  39  1000.236
  40  999.4127
  41  960.8021
  42  955.5865
  43  915.3518
  44  955.8671
  45  890.0418
  46  859.483
  47  927.539
  48  1006.505
  49  1032.594
  50  940.9655
  51  843.8109
  52  868.7135
  53  965.8246
  54  1003.132
  55  1057.675
  56  1017.984
  57  971.732
  58  979.4817
  59  961.0612
  60  932.3771
  61  947.4905
  62  1047.013
  63  1081.343
  64  1079.385
  65  1033.769
  66  1024.849
  67  1090.605
  68  1024.514
  69  1024.638
  70  1075.367
  71  1074.467
  72  1001.998
  73  945.4228
  74  908.3537
  75  984.2912
  76  1020.198
  77  1027.15
  78  934.9163
  79  923.4552
  80  906.1029
  81  982.8073
  82  975.1682
  83  950.3785
  84  877.17
  85  898.7693
  86  898.883
  87  866.7138
  88  859.3224
  89  867.0607
  90  883.0317
  91  902.153
  92  876.8876
  93  871.3488
  94  894.3016
  95  902.024
  96  877.7332
  97  904.7575
  98  954.2194
  99  859.0246
 100  854.6485
 101  877.1295
 102  872.8836
 103  896.8353
 104  923.8909
 105  914.7775
 106  930.8523
 107  875.3646
 108  887.7963
 109  842.2335
 110  896.358
 111  900.8085
 112  956.1595
 113  907.4476
 114  930.7751
 115  919.6549
 116  911.6364
 117  890.6919
 118  845.2242
 119  854.1339
 120  911.711
 121  907.4119
 122  868.2686
 123  866.0474
 124  818.8171
 125  841.3964
 126  886.7293
 127  903.1305
 128  868.7249
 129  882.2097
 130  856.3505
 131  878.4254
 132  848.6647
 133  908.3251
 134  961.2621
 135  966.3291
 136  916.9079
 137  949.447
 138  996.9658
 139  955.8758
 140  986.2083
 141  942.3665
 142  900.5125
 143  846.3371
 144  783.324
 145  890.053
 146  865.764
 147  850.7455
 148  836.5402
 149  848.745
 150  838.7422
 151  853.76
 152  902.0788
 153  883.9244
 154  859.2244
 155  853.4316
 156  840.9973
 157  820.4958
 158  795.0582
 159  781.9274
 160  832.1045
 161  828.2386
 162  852.4135
 163  871.9575
 164  859.4836
 165  840.1422
 166  801.3571
 167  820.0136
 168  878.4915
 169  911.6016
 170  882.9319
 171  900.5098
 172  918.6799
 173  853.7571
 174  805.3871
 175  860.6057
 176  902.6359
 177  869.8673
 178  898.9412
 179  863.7232
 180  811.9578
 181  784.5279
 182  819.729
 183  862.2109
 184  879.1386
 185  900.4688
 186  864.4734
 187  910.6096
 188  846.4267
 189  842.4478
 190  898.4576
 191  879.382
 192  816.2023
 193  836.9184
 194  829.4797
 195  810.3223
 196  842.8009
 197  898.0856
 198  908.6308
 199  841.7659
 200  802.6498
 201  757.5469
 202  738.8925
 203  730.456
 204  773.5333
 205  774.0016
 206  801.0792
 207  743.8188
 208  691.1881
 209  730.1583
 210  753.6
 211  737.0909
 212  729.6368
 213  727.6175
 214  715.0562
 215  756.9392
 216  780.308
 217  727.6573
 218  723.2809
 219  750.1306
 220  796.9807
 221  835.0847
 222  827.6743
 223  838.1879
 224  854.5585
 225  826.4964
 226  867.934
 227  851.6398
 228  837.5714
 229  773.9214
 230  754.3891
 231  784.2401
 232  835.0245
 233  845.1027
 234  821.0835
 235  788.9752
 236  727.1143
 237  767.1487
 238  734.8331
 239  783.5919
 240  850.4191
 241  836.5402
 242  853.7888
 243  904.6917
 244  812.0627
 245  840.1359
 246  838.6286
 247  883.5867
 248  926.5201
 249  879.4058
 250  878.1395
 251  885.935
 252  928.5975
 253  940.319
 254  915.5715
 255  904.0667
 256  868.9926
 257  898.5949
 258  815.0875
 259  833.1152
 260  874.2626
 261  846.9169
 262  883.975
 263  859.499
 264  887.2278
 265  917.6144
 266  907.1892
 267  920.2477
 268  892.1965
 269  915.1348
 270  933.7339
 271  903.3259
 272  963.2428
 273  962.6724
 274  998.6574
 275  972.5566
 276  956.9623
 277  886.4813
 278  819.6529
 279  771.4562
 280  739.1069
 281  755.0126
 282  793.5723
 283  788.8027
 284  796.6536
 285  814.0952
 286  790.6481
 287  745.3337
 288  690.7645
 289  732.6428
 290  761.3875
 291  786.1404
 292  807.5026
 293  757.61
 294  761.4299
 295  744.7928
 296  707.5878
 297  786.8943
 298  747.3505
 299  766.1213
 300  745.4588
 301  721.8049
 302  733.5546
 303  682.7021
 304  789.2449
 305  769.0871
 306  798.7607
 307  771.2419
 308  754.6907
 309  813.5528
 310  836.8618
 311  873.4971
 312  857.1628
 313  791.135
 314  810.4052
 315  812.5143
 316  820.2347
 317  778.6309
 318  821.5269
 319  886.4515
 320  881.3661
 321  813.7178
 322  791.9142
 323  779.2882
 324  742.1184
 325  769.6996
 326  797.0631
 327  757.9365
 328  725.9228
 329  773.216
 330  875.933
 331  889.1349
 332  907.6721
 333  818.455
 334  778.7239
 335  826.2127
 336  873.5059
 337  880.8045
 338  929.897
 339  876.7634
 340  873.7082
 341  915.0615
 342  927.5779
 343  894.2878
 344  781.5546
 345  771.4041
 346  772.3373
 347  785.3676
 348  849.712
 349  873.3531
 350  927.6138
 351  876.3913
 352  704.8393
 353  702.7304
 354  736.0145
 355  747.5981
 356  758.6786
 357  725.9548
 358  817.3359
 359  805.7362
 360  749.7789
 361  747.3376
 362  840.4478
 363  846.9789
 364  828.5682
 365  889.926
 366  887.0056
 367  892.8698
 368  919.7183
 369  854.0115
 370  902.9131
 371  931.7141
 372  945.4697
 373  921.9641
 374  808.9337
 375  790.6744
 376  834.0551
 377  828.0171
 378  834.2495
 379  904.0724
 380  921.8493
 381  921.9381
 382  930.6959
 383  935.7447
 384  890.8395
 385  982.603
 386  932.5123
 387  852.4514
 388  988.4758
 389  1029.405
 390  1005.873
 391  1003.468
 392  886.8113
 393  871.0056
 394  832.662
 395  825.8344
 396  858.5088
 397  834.4255
 398  788.8944
 399  745.3785
 400  870.5754
 401  888.9684
 402  844.9373
 403  854.1992
 404  929.6794
 405  847.1531
 406  886.8972
 407  894.4269
 408  832.5928
 409  896.6988
 410  919.6238
 411  847.2404
 412  728.2
 413  710.4409
 414  805.832
 415  819.1289
 416  837.8959
 417  813.2677
 418  803.7235
 419  832.3855
 420  768.2812
 421  745.8617
 422  761.495
 423  828.3681
 424  891.1453
 425  944.7155
 426  849.3698
 427  868.9547
 428  851.1951
 429  821.179
 430  937.6053
 431  933.9613
 432  977.1415
 433  895.2247
 434  799.1886
 435  737.9073
 436  757.1395
 437  834.8153
 438  908.6709
 439  906.3385
 440  911.4022
 441  938.0877
 442  903.2657
 443  918.4047
 444  968.9976
 445  898.3535
 446  882.7913
 447  890.3998
 448  959.402
 449  912.9139
 450  914.5779
 451  964.3549
 452  974.7048
 453  984.1466
 454  936.2603
 455  1010.72
 456  1019.74
 457  1019.02
 458  943.5011
 459  997.8772
 460  1095.773
 461  1076.652
 462  986.6267
 463  952.6407
 464  943.3343
 465  968.8765
 466  991.3167
 467  1069.368
 468  1009.88
 469  949.2352
 470  924.3868
 471  844.7096
 472  889.1883
 473  980.7413
 474  1028.024
 475  1045.741
 476  1023.619
 477  1055.231
 478  1015.713
 479  1027.533
 480  1012.339
 481  977.2596
 482  984.7458
 483  1040.099
 484  1032.934
 485  1115.34
 486  1117.186
 487  1058.93
 488  1086.406
 489  1059.199
 490  1049.654
 491  994.4051
 492  958.2288
 493  1080.85
 494  1100.937
 495  1069.589
 496  1054.06
 497  1029.821
 498  988.4134
 499  1062.361
 500  1047.036
 501  1074.989
 502  1101.3
 503  1125.704
 504  1085.536
 505  1076.251
 506  1085.103
 507  1112.331
 508  1215.939
 509  1257.266
 510  1271.019
 511  1279.112
