# Input file       =  1203170730.198393_cleaned.dat
# Candidate        =  PSR_0332+5434
# Telescope        =  AR
# Epoch_topo       =  58169.586946740659
# Epoch_bary       =  N/A
# T_sample         =  0.002
# Data Folded      =  7340032
# Data Avg         =  -0.076989762985395
# Data StdDev      =  1.00027862546736 
# Profile Bins     =  512
# Profile Avg      =  -1103.70023359236
# Profile StdDev   =  119.766397049985 
# Reduced chi-sqr  =  0.518
# Prob(Noise)      <  1   (~0.0 sigma)
# P_topo (ms)      =  714.580646116646  +/- 0.000865
# P'_topo (s/s)    =  -0                +/- 4.57e-10
# P''_topo (s/s^2) =  0                 +/- 2.02e-13
# P_bary (ms)      =  N/A
# P'_bary (s/s)    =  N/A
# P''_bary (s/s^2) =  N/A
# P_orb (s)        =  N/A
# asin(i)/c (s)    =  N/A
# eccentricity     =  N/A
# w (rad)          =  N/A
# T_peri           =  N/A
######################################################
   0  -847.5616
   1  -892.7699
   2  -943.3149
   3  -989.2729
   4  -1104.763
   5  -1079.801
   6  -1013.118
   7  -1013.1
   8  -1028.825
   9  -983.2692
  10  -1013.604
  11  -1032.577
  12  -987.0237
  13  -1072.054
  14  -1059.277
  15  -1020.739
  16  -982.5857
  17  -1014.255
  18  -1096.525
  19  -1139.477
  20  -1184.038
  21  -1181.501
  22  -1152.482
  23  -1155.486
  24  -1093.296
  25  -1130.13
  26  -1166.027
  27  -1128.993
  28  -1146.559
  29  -1169.192
  30  -1139.396
  31  -1119.48
  32  -1142.059
  33  -1173.127
  34  -1160.335
  35  -1126.023
  36  -1115.788
  37  -1126.263
  38  -1168.858
  39  -1124.662
  40  -1188.491
  41  -1146.308
  42  -1122.343
  43  -1109.272
  44  -1148.382
  45  -1107.473
  46  -1099.036
  47  -1130.313
  48  -1133.054
  49  -1190.716
  50  -1254.151
  51  -1263.994
  52  -1224.342
  53  -1221.361
  54  -1208.901
  55  -1160.007
  56  -1174.008
  57  -1245.102
  58  -1233.905
  59  -1190.347
  60  -1246.057
  61  -1182.591
  62  -1241.688
  63  -1197.054
  64  -1167.109
  65  -1094.017
  66  -1129.247
  67  -1251.003
  68  -1215.998
  69  -1188.846
  70  -1138.452
  71  -1150.257
  72  -1152.543
  73  -1126.918
  74  -1152.26
  75  -1105.449
  76  -1082.452
  77  -1108.666
  78  -1108.277
  79  -1089.247
  80  -1057.318
  81  -1081.581
  82  -1135.26
  83  -1079.495
  84  -1055.343
  85  -1036.393
  86  -1107.886
  87  -1069.806
  88  -1004.042
  89  -1000.797
  90  -1052.413
  91  -1056.391
  92  -1054.456
  93  -1055.847
  94  -1047.98
  95  -1156.232
  96  -1182.996
  97  -1109.364
  98  -1047.623
  99  -1045.721
 100  -1049.198
 101  -1081.273
 102  -1106.759
 103  -1112.44
 104  -1133.518
 105  -1117.652
 106  -1108.389
 107  -1043.282
 108  -947.2411
 109  -1078.387
 110  -1121.299
 111  -1118.316
 112  -1083.784
 113  -1080.924
 114  -1069.816
 115  -1057.414
 116  -1059.301
 117  -1042.769
 118  -1147.325
 119  -1131.983
 120  -1102.759
 121  -1114.259
 122  -1108.965
 123  -1078.363
 124  -1117.84
 125  -1128.241
 126  -1070
 127  -1042.654
 128  -1137.679
 129  -993.6356
 130  -959.9279
 131  -984.1026
 132  -980.5223
 133  -950.8868
 134  -967.4519
 135  -1001.932
 136  -1010.823
 137  -1018.024
 138  -1049.629
 139  -971.55
 140  -916.1852
 141  -963.1866
 142  -986.1071
 143  -967.763
 144  -991.6162
 145  -1095.026
 146  -1057.31
 147  -1090.139
 148  -1041.454
 149  -986.9854
 150  -986.1122
 151  -1132.591
 152  -1102.969
 153  -1109.659
 154  -1150.926
 155  -1115.024
 156  -1068.614
 157  -1035.671
 158  -1067.952
 159  -1077.379
 160  -1041.228
 161  -1056.135
 162  -1124.411
 163  -1105.208
 164  -1072.987
 165  -1015.898
 166  -1099.975
 167  -1182.595
 168  -1132.449
 169  -1079.324
 170  -1046.878
 171  -1129.604
 172  -1081.621
 173  -1024.951
 174  -1142.845
 175  -1152.814
 176  -1089.836
 177  -1110.169
 178  -1119.961
 179  -1108.592
 180  -1092.328
 181  -1050.155
 182  -1049.541
 183  -1089.817
 184  -1130.539
 185  -1110.522
 186  -1079.11
 187  -1092.886
 188  -1045.823
 189  -1068.967
 190  -1032.233
 191  -1014.493
 192  -1038.37
 193  -1122.294
 194  -1179.864
 195  -1150.055
 196  -1125.08
 197  -1149.813
 198  -1169.38
 199  -1063.77
 200  -1047.601
 201  -1131.123
 202  -1213.495
 203  -1132.158
 204  -1042.345
 205  -1106.467
 206  -1125.163
 207  -1097.305
 208  -1107.836
 209  -1137.44
 210  -1196.999
 211  -1139.183
 212  -1119.992
 213  -1127.319
 214  -1140.823
 215  -1146.845
 216  -1113.378
 217  -1156.953
 218  -1200.28
 219  -1128.995
 220  -1094.091
 221  -1109.468
 222  -1076.11
 223  -1099.701
 224  -1107.075
 225  -1055.243
 226  -1022.954
 227  -1092.365
 228  -1073.829
 229  -1092.985
 230  -1093.167
 231  -1157.08
 232  -1142.68
 233  -1148.572
 234  -1143.847
 235  -1132.621
 236  -1094.372
 237  -1172.356
 238  -1149.219
 239  -1129.659
 240  -1143.946
 241  -1125.415
 242  -1129.464
 243  -1142.416
 244  -1134.423
 245  -1128.137
 246  -1113.885
 247  -1112.292
 248  -1139.122
 249  -1173.288
 250  -1127.033
 251  -1123.295
 252  -1037.649
 253  -997.3198
 254  -1003.665
 255  -1052.324
 256  -1134.907
 257  -1137.602
 258  -1090.982
 259  -1035.338
 260  -1040.775
 261  -1030.706
 262  -1031.383
 263  -1072.953
 264  -1038.121
 265  -1066.347
 266  -1023.217
 267  -1057.438
 268  -1085.555
 269  -1108.28
 270  -1134.058
 271  -1137.562
 272  -1020.164
 273  -1006.138
 274  -1045.479
 275  -1053.07
 276  -1097.954
 277  -1118.201
 278  -1078.843
 279  -1028.852
 280  -1049.083
 281  -1042.784
 282  -1104.506
 283  -1220.496
 284  -1166.217
 285  -1161.035
 286  -1153.895
 287  -1130.638
 288  -1066.635
 289  -1074.5
 290  -1076.313
 291  -1052.588
 292  -1048.834
 293  -1071.782
 294  -1103.147
 295  -1098.18
 296  -1071.831
 297  -1099.628
 298  -1126.923
 299  -1108.625
 300  -1079.454
 301  -1163.083
 302  -1167.628
 303  -1157.094
 304  -1153.791
 305  -1145.309
 306  -1131.153
 307  -1135.042
 308  -1063.225
 309  -1061.61
 310  -1088.263
 311  -1173.886
 312  -1176.891
 313  -1113.826
 314  -1116.161
 315  -1122.441
 316  -1155.84
 317  -1123.554
 318  -1150.854
 319  -1139.086
 320  -1186.964
 321  -1155.203
 322  -1136.012
 323  -1112.935
 324  -1067.835
 325  -1124.806
 326  -1100.329
 327  -1115.612
 328  -1149.515
 329  -1167.641
 330  -1161.23
 331  -1118.789
 332  -1159.85
 333  -1139.038
 334  -1087.111
 335  -1038.293
 336  -1044.944
 337  -1079.357
 338  -1044.023
 339  -1073.466
 340  -1134.25
 341  -1185.305
 342  -1135.08
 343  -1091.072
 344  -1149.69
 345  -1120.457
 346  -1175.644
 347  -1197.748
 348  -1194.356
 349  -1193.501
 350  -1122.732
 351  -1095.961
 352  -1128.898
 353  -1171.914
 354  -1165.639
 355  -1141.254
 356  -1127.534
 357  -1151.657
 358  -1124.304
 359  -1178.643
 360  -1158.254
 361  -1106.197
 362  -1062.677
 363  -1105.925
 364  -1147.341
 365  -1085.828
 366  -1147.18
 367  -1101.451
 368  -1107.727
 369  -1167.934
 370  -1165.388
 371  -1182.953
 372  -1093.099
 373  -1067.046
 374  -1102.359
 375  -1135.827
 376  -1120.37
 377  -1129.637
 378  -1128.063
 379  -1116.911
 380  -1186.921
 381  -1164.024
 382  -1219.236
 383  -1179.34
 384  -1115.488
 385  -1076.645
 386  -1057.685
 387  -1027.37
 388  -987.9728
 389  -1049.017
 390  -1060.888
 391  -1057.152
 392  -1089.093
 393  -1024.546
 394  -989.886
 395  -1014.606
 396  -998.0953
 397  -1053.072
 398  -1068.673
 399  -1004.352
 400  -1053.142
 401  -1092.697
 402  -1071.851
 403  -1096.433
 404  -1138.417
 405  -1119.013
 406  -1057.243
 407  -1032.239
 408  -1092.3
 409  -1058.609
 410  -1028.819
 411  -984.1188
 412  -1066.753
 413  -1094.892
 414  -1130.503
 415  -1102.198
 416  -1105.831
 417  -1039.69
 418  -1136.509
 419  -1138.894
 420  -1145.856
 421  -1082.76
 422  -1080.963
 423  -1144.199
 424  -1160.274
 425  -1221.189
 426  -1190.407
 427  -1203.291
 428  -1115.858
 429  -1147.97
 430  -1167.846
 431  -1190.095
 432  -1191.723
 433  -1094.389
 434  -1144.938
 435  -1143.943
 436  -1070.498
 437  -1075.617
 438  -1163.511
 439  -1170.056
 440  -1114.347
 441  -1115.885
 442  -1180.022
 443  -1155.869
 444  -1115.176
 445  -1102.839
 446  -1160.077
 447  -1142.276
 448  -1152.319
 449  -1141.092
 450  -1096.918
 451  -1159.916
 452  -1207.774
 453  -1171.614
 454  -1175.712
 455  -1193.805
 456  -1118.996
 457  -1129.974
 458  -1108.721
 459  -1147.923
 460  -1192.553
 461  -1153.285
 462  -1166.481
 463  -1198.498
 464  -1216.759
 465  -1275.939
 466  -1158.865
 467  -1168.313
 468  -1279.18
 469  -1165.465
 470  -1171.774
 471  -1168.46
 472  -1152.692
 473  -1140.969
 474  -1104.856
 475  -1045.859
 476  -1083.662
 477  -1074.68
 478  -1055.149
 479  -1053.897
 480  -1095.578
 481  -1117.803
 482  -1041.171
 483  -1024.647
 484  -1049.038
 485  -1022.497
 486  -999.7509
 487  -1138.186
 488  -1108.481
 489  -1076.767
 490  -1064.258
 491  -985.1716
 492  -1021.732
 493  -1095.128
 494  -1105.594
 495  -1116.534
 496  -1148.157
 497  -1139.872
 498  -1133.363
 499  -1127.575
 500  -1115.577
 501  -1123.941
 502  -1061.766
 503  -1011.862
 504  -1113.656
 505  -1018.585
 506  -1011.575
 507  -1079.048
 508  -1099.132
 509  -1090.748
 510  -978.6752
 511  -877.494
