# Input file       =  1203525206.118787_cleaned.dat
# Candidate        =  PSR_0332+5434
# Telescope        =  AR
# Epoch_topo       =  58173.689677300776
# Epoch_bary       =  N/A
# T_sample         =  0.002
# Data Folded      =  7340032
# Data Avg         =  0.0541244572162027
# Data StdDev      =  1.0001370105885  
# Profile Bins     =  512
# Profile Avg      =  775.911502133125 
# Profile StdDev   =  119.749441070543 
# Reduced chi-sqr  =  0.751
# Prob(Noise)      <  1   (~0.0 sigma)
# P_topo (ms)      =  714.580940679514  +/- 0.000619
# P'_topo (s/s)    =  -0                +/- 3.27e-10
# P''_topo (s/s^2) =  0                 +/- 1.44e-13
# P_bary (ms)      =  N/A
# P'_bary (s/s)    =  N/A
# P''_bary (s/s^2) =  N/A
# P_orb (s)        =  N/A
# asin(i)/c (s)    =  N/A
# eccentricity     =  N/A
# w (rad)          =  N/A
# T_peri           =  N/A
######################################################
   0  1113.812
   1  1211.33
   2  1074.206
   3  943.8611
   4  794.6536
   5  737.144
   6  788.9577
   7  783.025
   8  726.1286
   9  769.3959
  10  692.8862
  11  652.8083
  12  714.6967
  13  856.2665
  14  850.1221
  15  723.0049
  16  705.7978
  17  701.6951
  18  646.8118
  19  630.3466
  20  689.3528
  21  752.8582
  22  799.9053
  23  832.322
  24  841.0274
  25  701.0574
  26  747.9158
  27  775.1121
  28  729.2983
  29  761.0407
  30  856.8606
  31  873.6171
  32  876.131
  33  726.1669
  34  775.0128
  35  864.06
  36  810.5053
  37  795.6937
  38  778.2204
  39  749.7171
  40  639.9399
  41  600.2271
  42  676.9464
  43  660.2374
  44  647.1015
  45  655.9134
  46  675.0694
  47  574.126
  48  571.7559
  49  712.4092
  50  804.0398
  51  775.609
  52  658.1036
  53  702.2616
  54  791.667
  55  735.9888
  56  655.7899
  57  867.3281
  58  803.8601
  59  709.3293
  60  660.6675
  61  671.9854
  62  723.9344
  63  689.1911
  64  653.7066
  65  718.7546
  66  677.7798
  67  697.9353
  68  755.7775
  69  714.6666
  70  745.7423
  71  756.09
  72  799.9196
  73  720.6042
  74  750.431
  75  746.5425
  76  728.4266
  77  772.5242
  78  726.7277
  79  737.5137
  80  743.4125
  81  743.4287
  82  792.9116
  83  886.8233
  84  837.2457
  85  706.8433
  86  778.017
  87  830.8771
  88  745.7606
  89  687.2098
  90  767.4615
  91  747.0465
  92  763.5482
  93  830.8488
  94  761.3305
  95  772.5225
  96  758.8429
  97  784.0759
  98  748.9771
  99  809.7511
 100  773.1765
 101  751.4273
 102  760.3488
 103  778.4045
 104  835.3484
 105  802.9174
 106  785.9487
 107  849.3531
 108  911.2669
 109  906.4138
 110  801.1586
 111  732.7283
 112  752.8741
 113  838.6585
 114  874.3903
 115  817.9166
 116  786.4766
 117  782.8591
 118  705.0208
 119  650.2078
 120  704.5813
 121  666.4057
 122  705.3372
 123  801.4769
 124  802.9258
 125  825.9337
 126  719.6667
 127  794.8442
 128  825.9888
 129  779.2841
 130  756.1487
 131  773.8802
 132  751.857
 133  762.9424
 134  746.8903
 135  755.1017
 136  694.254
 137  611.9078
 138  708.2781
 139  741.1659
 140  827.4501
 141  787.1357
 142  781.8541
 143  800.4051
 144  788.4485
 145  762.6548
 146  839.929
 147  849.4365
 148  853.4791
 149  791.8047
 150  799.4137
 151  796.3313
 152  757.0068
 153  763.3337
 154  820.3763
 155  799.3533
 156  825.9988
 157  809.1679
 158  766.8537
 159  793.0787
 160  751.1122
 161  779.8159
 162  774.6342
 163  906.582
 164  910.4768
 165  774.2461
 166  850.8256
 167  833.5928
 168  804.9171
 169  809.6671
 170  859.8002
 171  891.7096
 172  865.4903
 173  811.9302
 174  799.8562
 175  804.7961
 176  783.9577
 177  711.1658
 178  777.0699
 179  820.3993
 180  781.9747
 181  746.8264
 182  737.4536
 183  685.5647
 184  692.7406
 185  736.4445
 186  756.1738
 187  729.4491
 188  766.0458
 189  806.9086
 190  714.4285
 191  727.2257
 192  802.9714
 193  781.3187
 194  711.2081
 195  731.9585
 196  737.7552
 197  734.6464
 198  819.7437
 199  816.4971
 200  664.3774
 201  726.3759
 202  782.6607
 203  793.1649
 204  733.4764
 205  747.4169
 206  746.0094
 207  665.1167
 208  725.9237
 209  765.1995
 210  720.12
 211  721.0518
 212  709.3111
 213  701.4638
 214  727.8035
 215  719.6979
 216  687.1301
 217  695.3005
 218  697.2359
 219  638.876
 220  677.0098
 221  762.093
 222  677.4433
 223  688.7341
 224  674.9774
 225  690.5826
 226  698.2105
 227  830.1235
 228  824.9814
 229  792.3853
 230  725.6586
 231  730.0819
 232  748.4383
 233  707.0324
 234  671.821
 235  745.9649
 236  770.5614
 237  802.7939
 238  819.6135
 239  786.657
 240  820.1786
 241  860.5611
 242  844.9769
 243  780.1805
 244  811.5494
 245  863.8112
 246  820.3109
 247  801.5085
 248  848.831
 249  885.8708
 250  917.22
 251  789.87
 252  859.1954
 253  821.821
 254  781.9583
 255  748.0906
 256  702.3263
 257  801.3055
 258  718.9301
 259  750.9443
 260  751.4199
 261  774.7689
 262  775.4913
 263  869.1334
 264  862.0347
 265  907.7314
 266  833.5134
 267  743.0588
 268  669.9335
 269  713.5953
 270  770.7667
 271  727.8577
 272  703.4331
 273  689.0081
 274  707.9447
 275  674.4533
 276  704.5795
 277  735.8062
 278  740.0372
 279  770.3098
 280  709.0283
 281  747.1166
 282  789.2737
 283  807.0219
 284  668.2275
 285  728.8267
 286  777.4644
 287  746.4196
 288  706.384
 289  703.721
 290  660.3355
 291  631.3459
 292  658.1893
 293  667.3828
 294  702.1946
 295  702.5734
 296  734.6481
 297  680.9557
 298  695.1111
 299  743.1689
 300  756.7087
 301  764.9142
 302  811.8109
 303  761.5817
 304  710.2813
 305  758.7061
 306  781.2527
 307  832.9746
 308  780.5775
 309  779.7531
 310  775.2195
 311  836.8452
 312  847.088
 313  779.0994
 314  732.7756
 315  778.4355
 316  786.6953
 317  858.155
 318  864.9
 319  830.3175
 320  771.8423
 321  828.3452
 322  898.0941
 323  874.3013
 324  805.1936
 325  832.4441
 326  763.0916
 327  740.7369
 328  738.6558
 329  748.0764
 330  719.598
 331  766.0912
 332  868.8079
 333  848.9763
 334  780.019
 335  785.9814
 336  751.448
 337  704.0621
 338  726.6498
 339  799.7484
 340  746.2812
 341  720.3297
 342  781.8517
 343  845.9144
 344  781.2374
 345  806.9896
 346  874.9094
 347  894.3267
 348  836.7617
 349  769.7101
 350  795.1543
 351  814.3375
 352  860.5084
 353  848.958
 354  894.8654
 355  843.1183
 356  853.5023
 357  797.5203
 358  760.7856
 359  835.5555
 360  875.3362
 361  908.6569
 362  778.8868
 363  762.5624
 364  800.306
 365  768.2527
 366  801.413
 367  734.9467
 368  707.1595
 369  701.4344
 370  677.957
 371  715.3367
 372  753.8333
 373  778.9907
 374  723.6197
 375  733.7209
 376  749.5251
 377  789.5624
 378  700.7296
 379  635.5279
 380  647.0457
 381  701.8709
 382  782.1989
 383  677.5733
 384  666.7971
 385  614.9518
 386  713.2899
 387  705.2006
 388  700.6426
 389  696.736
 390  737.486
 391  715.1647
 392  741.9385
 393  747.4984
 394  772.1439
 395  818.2023
 396  782.1221
 397  739.3118
 398  789.7546
 399  758.9234
 400  786.8288
 401  765.4949
 402  657.8351
 403  648.2033
 404  714.4033
 405  772.7715
 406  789.864
 407  790.7059
 408  729.8721
 409  701.9384
 410  706.1215
 411  660.0919
 412  706.6617
 413  737.6804
 414  757.077
 415  716.9933
 416  723.3413
 417  763.7707
 418  763.382
 419  739.7009
 420  689.2382
 421  719.6819
 422  796.0717
 423  743.3498
 424  772.7277
 425  788.7455
 426  834.7742
 427  816.7773
 428  861.2971
 429  923.7349
 430  862.9044
 431  935.3431
 432  989.1465
 433  808.3151
 434  740.6534
 435  822.4127
 436  923.0455
 437  938.7425
 438  907.8951
 439  834.0315
 440  876.4953
 441  861.665
 442  877.8734
 443  853.1393
 444  857.4714
 445  866.4366
 446  920.8241
 447  894.9466
 448  856.6685
 449  820.2652
 450  794.2117
 451  893.7789
 452  914.2991
 453  840.272
 454  831.0049
 455  808.0696
 456  794.1824
 457  824.8107
 458  899.0969
 459  895.9682
 460  792.5679
 461  875.2242
 462  873.804
 463  876.081
 464  846.8377
 465  921.8679
 466  891.7651
 467  885.5179
 468  851.5633
 469  786.4847
 470  760.1033
 471  828.3386
 472  780.3382
 473  794.3852
 474  699.8837
 475  812.9697
 476  809.3752
 477  855.8408
 478  813.556
 479  711.9604
 480  691.8859
 481  793.7122
 482  727.1245
 483  714.6535
 484  757.2592
 485  769.4262
 486  760.6136
 487  765.3986
 488  726.1556
 489  714.0851
 490  754.9871
 491  739.5622
 492  745.9564
 493  771.3632
 494  755.3618
 495  812.3798
 496  817.2646
 497  898.749
 498  912.8758
 499  824.9001
 500  794.407
 501  809.2318
 502  819.7614
 503  815.2016
 504  843.2109
 505  878.5848
 506  878.8981
 507  883.677
 508  906.5323
 509  887.3992
 510  967.1602
 511  1086.233
