# Input file       =  1203429282.104877_cleaned.dat
# Candidate        =  PSR_0332+5434
# Telescope        =  AR
# Epoch_topo       =  58172.579445658295
# Epoch_bary       =  N/A
# T_sample         =  0.002
# Data Folded      =  7340032
# Data Avg         =  0.0626097067773338
# Data StdDev      =  1.00016921340443 
# Profile Bins     =  512
# Profile Avg      =  897.549857282409 
# Profile StdDev   =  119.753296811474 
# Reduced chi-sqr  =  1.554
# Prob(Noise)      <  1.21e-14   (~7.6 sigma)
# P_topo (ms)      =  714.58074262812   +/- 0.000836
# P'_topo (s/s)    =  -0                +/- 4.41e-10
# P''_topo (s/s^2) =  0                 +/- 1.95e-13
# P_bary (ms)      =  N/A
# P'_bary (s/s)    =  N/A
# P''_bary (s/s^2) =  N/A
# P_orb (s)        =  N/A
# asin(i)/c (s)    =  N/A
# eccentricity     =  N/A
# w (rad)          =  N/A
# T_peri           =  N/A
######################################################
   0  1349.432
   1  1415.627
   2  1329.024
   3  1282.176
   4  1226.428
   5  1139.173
   6  1039.602
   7  1055.686
   8  1056.558
   9  1119.506
  10  1100.401
  11  1093.058
  12  1069.644
  13  951.0823
  14  975.0137
  15  952.9038
  16  959.7692
  17  973.0553
  18  991.0779
  19  995.6146
  20  1065.522
  21  1100.372
  22  1043.889
  23  948.1118
  24  1013.185
  25  1046.135
  26  1001.852
  27  974.0836
  28  1011.706
  29  951.0992
  30  916.2917
  31  1023.325
  32  1000.322
  33  1009.656
  34  963.327
  35  941.0696
  36  987.673
  37  943.1224
  38  944.0453
  39  1004.217
  40  1000.909
  41  983.0343
  42  959.6716
  43  930.2006
  44  934.8181
  45  937.8522
  46  867.5092
  47  879.9501
  48  962.2778
  49  1017.749
  50  1024.133
  51  873.04
  52  858.5501
  53  895.237
  54  1000.245
  55  1012.381
  56  1060.068
  57  994.2504
  58  965.1838
  59  985.9225
  60  936.6978
  61  939.4529
  62  982.9264
  63  1081.449
  64  1067.393
  65  1068.634
  66  1007.305
  67  1063.556
  68  1075.857
  69  1009.253
  70  1052.17
  71  1080.499
  72  1051.551
  73  981.2233
  74  907.5605
  75  939.0943
  76  994.663
  77  1040.836
  78  984.6574
  79  922.9609
  80  913.4916
  81  927.4563
  82  1000.2
  83  961.6791
  84  931.107
  85  868.2638
  86  917.2498
  87  869.1973
  88  867.4388
  89  854.1805
  90  883.8561
  91  885.6003
  92  911.8693
  93  856.3462
  94  877.1989
  95  904.7213
  96  895.1102
  97  886.3152
  98  928.3175
  99  930.9354
 100  824.7177
 101  876.4478
 102  868.7892
 103  884.4299
 104  924.3035
 105  907.6541
 106  929.8097
 107  891.5751
 108  895.314
 109  854.3307
 110  860.8408
 111  896.9846
 112  936.2916
 113  942.8316
 114  899.0373
 115  943.6964
 116  911.8983
 117  907.5986
 118  862.6455
 119  851.5295
 120  874.7367
 121  931.7462
 122  868.3724
 123  873.5966
 124  843.2309
 125  821.8439
 126  860.5901
 127  902.9016
 128  886.5226
 129  877.4064
 130  864.7054
 131  879.2991
 132  856.3989
 133  867.2053
 134  941.3136
 135  962.1837
 136  947.8317
 137  907.622
 138  995.9937
 139  969.2684
 140  977.8041
 141  963.0165
 142  931.709
 143  880.6557
 144  808.4093
 145  817.6155
 146  896.9567
 147  845.8226
 148  857.0269
 149  828.1727
 150  854.7845
 151  837.3419
 152  876.3138
 153  896.9753
 154  875.2314
 155  854.9147
 156  852.0058
 157  830.423
 158  808.0361
 159  782.1489
 160  809.1481
 161  830.6596
 162  830.0157
 163  869.836
 164  860.1416
 165  857.6999
 166  824.3987
 167  795.864
 168  844.4625
 169  892.9326
 170  916.8657
 171  871.844
 172  933.1932
 173  886.5955
 174  821.9833
 175  821.858
 176  892.1445
 177  889.8824
 178  880.6809
 179  886.3528
 180  838.351
 181  792.7589
 182  795.2782
 183  840.1398
 184  875.6144
 185  882.759
 186  891.4028
 187  881.6011
 188  893.7428
 189  828.5611
 190  877.2336
 191  891.8298
 192  851.8414
 193  820.5469
 194  843.0778
 195  815.802
 196  807.9079
 197  872.6917
 198  914.7917
 199  884.3837
 200  828.1451
 201  774.7408
 202  755.0531
 203  710.0765
 204  766.9335
 205  756.8574
 206  799.8348
 207  790.7294
 208  704.7961
 209  712.29
 210  736.1569
 211  755.0173
 212  726.4341
 213  741.4163
 214  704.5391
 215  731.0887
 216  777.2949
 217  763.9905
 218  711.9984
 219  736.183
 220  764.9457
 221  822.191
 222  838.5879
 223  817.4111
 224  864.6376
 225  835.6499
 226  850.7578
 227  854.9855
 228  843.0692
 229  816.8426
 230  758.2437
 231  757.1024
 232  802.4765
 233  853.1696
 234  831.7151
 235  818.4493
 236  747.7494
 237  753.3187
 238  749.738
 239  748.1447
 240  807.0053
 241  865.3678
 242  824.5402
 243  891.7802
 244  859.7866
 245  825.0383
 246  839.1613
 247  857.9995
 248  904.8289
 249  924.0222
 250  844.9005
 251  902.6971
 252  879.4813
 253  970.4986
 254  908.621
 255  924.0772
 256  867.3094
 257  906.465
 258  846.0586
 259  817.3999
 260  855.4609
 261  874.7111
 262  847.331
 263  886.8166
 264  854.2908
 265  916.5689
 266  901.3624
 267  911.1749
 268  923.9874
 269  885.4139
 270  940.2632
 271  904.0547
 272  938.8719
 273  956.8632
 274  982.1727
 275  991.6569
 276  956.5096
 277  943.1223
 278  842.9193
 279  804.9047
 280  754.1319
 281  738.3718
 282  767.8698
 283  796.0287
 284  796.8553
 285  806.0904
 286  809.5966
 287  770.2111
 288  728.2297
 289  695.2617
 290  749.5798
 291  764.0954
 292  803.8915
 293  787.1027
 294  747.4906
 295  772.4562
 296  708.8869
 297  742.7453
 298  776.1169
 299  751.5096
 300  770.2298
 301  725.4762
 302  737.8051
 303  699.0383
 304  720.6225
 305  800.6494
 306  765.3198
 307  810.7911
 308  740.0529
 309  776.5162
 310  839.261
 311  844.6777
 312  882.0043
 313  814.6148
 314  803.6089
 315  814.9971
 316  810.3063
 317  803.3049
 318  787.329
 319  855.8829
 320  899.2321
 321  852.2961
 322  786.1032
 323  802.1151
 324  744.9247
 325  759.211
 326  780.696
 327  793.2148
 328  740.0495
 329  727.3569
 330  830.6092
 331  880.2054
 332  901.7247
 333  874.772
 334  794.3325
 335  790.7698
 336  857.757
 337  868.4807
 338  909.9492
 339  914.4718
 340  867.4521
 341  877.7113
 342  940.1484
 343  912.4089
 344  859.0876
 345  756.9348
 346  782.9377
 347  761.6459
 348  813.2928
 349  863.0075
 350  896.0776
 351  925.592
 352  789.3925
 353  684.8613
 354  727.9387
 355  740.3366
 356  760.4318
 357  735.1938
 358  757.7228
 359  837.2762
 360  779.5733
 361  728.267
 362  795.3698
 363  848.5136
 364  839.5275
 365  843.9622
 366  905.3777
 367  876.2723
 368  912.9883
 369  885.6319
 370  874.5524
 371  917.859
 372  942.4675
 373  942.1159
 374  866.5617
 375  790.0641
 376  804.3257
 377  846.8365
 378  823.9788
 379  862.2482
 380  915.5234
 381  933.6834
 382  912.0255
 383  947.3809
 384  891.8834
 385  940.068
 386  991.5887
 387  876.1795
 388  895.7714
 389  1025.23
 390  1007.457
 391  1014.577
 392  965.037
 393  854.5038
 394  869.1375
 395  809.8159
 396  862.0262
 397  845.7238
 398  822.7516
 399  746.881
 400  789.1823
 401  893.8705
 402  882.1106
 403  820.8103
 404  904.8981
 405  905.9637
 406  844.4351
 407  908.8964
 408  848.7932
 409  863.0188
 410  913.7468
 411  900.9612
 412  790.9062
 413  709.3025
 414  755.2258
 415  818.3527
 416  816.9515
 417  840.4013
 418  793.5465
 419  821.8504
 420  808.9811
 421  751.9144
 422  740.3835
 423  799.4603
 424  845.0146
 425  939.2177
 426  895.9958
 427  845.9977
 428  881.1268
 429  817.113
 430  876.816
 431  943.4805
 432  960.4063
 433  953.4908
 434  836.9656
 435  779.748
 436  724.1214
 437  799.3091
 438  861.7681
 439  915.6058
 440  904.0069
 441  929.4274
 442  924.8301
 443  892.3169
 444  957.9449
 445  935.3016
 446  891.7479
 447  879.4702
 448  921.1891
 449  958.8499
 450  879.6239
 451  959.6497
 452  945.3041
 453  993.8569
 454  962.6428
 455  957.8895
 456  1032.847
 457  1018.241
 458  990.328
 459  944.3543
 460  1053.212
 461  1110.829
 462  1019.691
 463  979.8155
 464  931.1655
 465  965.0153
 466  955.7831
 467  1045.421
 468  1043.146
 469  991.1868
 470  927.5985
 471  911.392
 472  827.2846
 473  941.1068
 474  1007.294
 475  1041.273
 476  1034.151
 477  1033.764
 478  1044.93
 479  1000.562
 480  1041.872
 481  989.3491
 482  967.7466
 483  1022.321
 484  1022.797
 485  1074.69
 486  1133.348
 487  1088.136
 488  1059.357
 489  1084.259
 490  1053.633
 491  1039.671
 492  948.1619
 493  1008.279
 494  1114.008
 495  1088.424
 496  1054.536
 497  1051.918
 498  993.6843
 499  1021.401
 500  1067.98
 501  1044.833
 502  1090.427
 503  1120.742
 504  1110.1
 505  1084.847
 506  1070.334
 507  1099.239
 508  1142.447
 509  1250.237
 510  1269.439
 511  1253.169
