# Input file       =  1203500530.107594_cleaned.dat
# Candidate        =  PSR_0332+5434
# Telescope        =  AR
# Epoch_topo       =  58173.404075319377
# Epoch_bary       =  N/A
# T_sample         =  0.002
# Data Folded      =  7340032
# Data Avg         =  0.0780982161468481
# Data StdDev      =  1.000212937144   
# Profile Bins     =  512
# Profile Avg      =  1119.70622554651 
# Profile StdDev   =  119.758531987575 
# Reduced chi-sqr  =  1.005
# Prob(Noise)      <  0.457   (~0.1 sigma)
# P_topo (ms)      =  714.580720859886  +/- 0.000204
# P'_topo (s/s)    =  -0                +/- 1.08e-10
# P''_topo (s/s^2) =  0                 +/- 4.76e-14
# P_bary (ms)      =  N/A
# P'_bary (s/s)    =  N/A
# P''_bary (s/s^2) =  N/A
# P_orb (s)        =  N/A
# asin(i)/c (s)    =  N/A
# eccentricity     =  N/A
# w (rad)          =  N/A
# T_peri           =  N/A
######################################################
   0  1400.747
   1  1368.661
   2  1255.492
   3  1114.414
   4  1079.024
   5  1012.768
   6  973.1542
   7  993.498
   8  998.2928
   9  1068.169
  10  1082.67
  11  1024.036
  12  1047.039
  13  1111.403
  14  1240.678
  15  1254.281
  16  1202.968
  17  1151.526
  18  1124.947
  19  1073.728
  20  1157.442
  21  1230.983
  22  1184.079
  23  1142.719
  24  1149.148
  25  1105.063
  26  1081.758
  27  1135.161
  28  1153.716
  29  1069.643
  30  1043.597
  31  1163.3
  32  1176.149
  33  1134.287
  34  1052.842
  35  994.0236
  36  1049.411
  37  1096.039
  38  1088.808
  39  1078.738
  40  1050.531
  41  1080.975
  42  1117.241
  43  1008.628
  44  928.9102
  45  1035.974
  46  1026.51
  47  1064.64
  48  1064.886
  49  1100.472
  50  1086.574
  51  894.1457
  52  957.4594
  53  1021.999
  54  1045.311
  55  981.5103
  56  999.9529
  57  1182.336
  58  1078.704
  59  966.2835
  60  968.8663
  61  908.3934
  62  960.426
  63  1014.936
  64  1163.029
  65  1075.135
  66  975.032
  67  900.2701
  68  986.4408
  69  1046.557
  70  1047.671
  71  920.2129
  72  949.3989
  73  987.7155
  74  1145.114
  75  1187.08
  76  1101.384
  77  1057.334
  78  980.2546
  79  1019.977
  80  1014.852
  81  1031.603
  82  989.9182
  83  1089.833
  84  1111.745
  85  1123.139
  86  1054.424
  87  1083.686
  88  912.7192
  89  984.9934
  90  1155.446
  91  1214.426
  92  1202.101
  93  1131.376
  94  1239.253
  95  1222.602
  96  1042.706
  97  1082.338
  98  1238.438
  99  1203.965
 100  1195.421
 101  1235.11
 102  1152.681
 103  1065.411
 104  1190.912
 105  1200.123
 106  1154.525
 107  1197.148
 108  1154.059
 109  1086.04
 110  1091.462
 111  1122.823
 112  1139.872
 113  1165.496
 114  1187.539
 115  1206.464
 116  1170.306
 117  1108.888
 118  1029.418
 119  1044.385
 120  1100.157
 121  1031.279
 122  1067.92
 123  1143.313
 124  1158.879
 125  1107.156
 126  1085.589
 127  1110.929
 128  1050.488
 129  1223.448
 130  1195.452
 131  1064.934
 132  1118.986
 133  1191.333
 134  1130.723
 135  1142.519
 136  1088.575
 137  1146.419
 138  986.0846
 139  1114.68
 140  1200.995
 141  1100.395
 142  1110.162
 143  1134.886
 144  1103.641
 145  1035.059
 146  1021.485
 147  1094.133
 148  1100.983
 149  1109.407
 150  1212.472
 151  1035.297
 152  1003.978
 153  977.4441
 154  991.4426
 155  1098.491
 156  1092.293
 157  1089.742
 158  1159.255
 159  1128.644
 160  1134.932
 161  1192.478
 162  1045.39
 163  1034.236
 164  1037.853
 165  1064.321
 166  1112.561
 167  1063.141
 168  1036.697
 169  1011.659
 170  1004.41
 171  1039.238
 172  965.4324
 173  1011.927
 174  1108.558
 175  1144.759
 176  1142.302
 177  1188.652
 178  1029.951
 179  971.9902
 180  1037.124
 181  1061.963
 182  1153.66
 183  1047.17
 184  1010.077
 185  1050.959
 186  1065.566
 187  1022.236
 188  1018.604
 189  1172.93
 190  1143.433
 191  1098.597
 192  1020.439
 193  983.514
 194  1051.8
 195  1147.869
 196  1075.965
 197  1049.758
 198  1076.863
 199  1112.4
 200  1100.503
 201  986.139
 202  1014.585
 203  1150.591
 204  1094.803
 205  1074.459
 206  1143.082
 207  1142.551
 208  1161.55
 209  1162.844
 210  1161.296
 211  1111.571
 212  1178.49
 213  1169.559
 214  1144.318
 215  1163.92
 216  1164.792
 217  1311.315
 218  1304.584
 219  1191.433
 220  1138.301
 221  1055.407
 222  1150.052
 223  1133.95
 224  1135.384
 225  1200.324
 226  1163.393
 227  1175.314
 228  1138.794
 229  1173.965
 230  1220.044
 231  1329.684
 232  1230.087
 233  1235.865
 234  1199.461
 235  1221.243
 236  1250.065
 237  1198.192
 238  1262.291
 239  1292.37
 240  1294.932
 241  1280.491
 242  1271.978
 243  1241.087
 244  1239.688
 245  1307.501
 246  1254.596
 247  1228.185
 248  1270.246
 249  1181.545
 250  1125.622
 251  1187.939
 252  1175.854
 253  1165.832
 254  1291.277
 255  1266.599
 256  1317.226
 257  1255.834
 258  1207.248
 259  1173.761
 260  1223.421
 261  1189.737
 262  1203.464
 263  1342.026
 264  1281.765
 265  1251.224
 266  1316.33
 267  1260.387
 268  1200.258
 269  1082.806
 270  1067.012
 271  1090.845
 272  1144.137
 273  1154.439
 274  1167.708
 275  1196.958
 276  1134.177
 277  1155.68
 278  1097.112
 279  1044.992
 280  1085.961
 281  1052.097
 282  990.3077
 283  1065.891
 284  1006.553
 285  984.9997
 286  1082.799
 287  1070.381
 288  1072.694
 289  1157.343
 290  1098.631
 291  1039.655
 292  1043.094
 293  1072.205
 294  1090.739
 295  1117.174
 296  1228.6
 297  1151.818
 298  1087.371
 299  1156.622
 300  1082.428
 301  1058.374
 302  1154.458
 303  1122.276
 304  1161.598
 305  1208.322
 306  1141.778
 307  1082.812
 308  1131.112
 309  1119.389
 310  1091.81
 311  1074.709
 312  1151.151
 313  1214.686
 314  1316.5
 315  1305.145
 316  1157.33
 317  1110.895
 318  1223.452
 319  1097.681
 320  1135.449
 321  1151.517
 322  1152.347
 323  1116.826
 324  1061.349
 325  1187.866
 326  1203.523
 327  1145.255
 328  1052.987
 329  1114.52
 330  1184.165
 331  1180.476
 332  1197.179
 333  1066.459
 334  1027.112
 335  1034.155
 336  1022.574
 337  1040.964
 338  1089.992
 339  1004.957
 340  1089.367
 341  998.4271
 342  1031.052
 343  992.2545
 344  980.2139
 345  1135.208
 346  1135.726
 347  1185.58
 348  1115.829
 349  1053.252
 350  1084.917
 351  1060.099
 352  1114.966
 353  1152.482
 354  1129.566
 355  1109.069
 356  1140.401
 357  1149.967
 358  1189.4
 359  1175.145
 360  1092.74
 361  1107.083
 362  1179.879
 363  1251.706
 364  1239.615
 365  1166.037
 366  1205.624
 367  1094.622
 368  1108.331
 369  1075.631
 370  1109.193
 371  1052.558
 372  1066.324
 373  1162.923
 374  1067.958
 375  1105.984
 376  1190.697
 377  1235.188
 378  1131.912
 379  1247.542
 380  1201.019
 381  1136.781
 382  1196.461
 383  1201.183
 384  1185.164
 385  1186.879
 386  1236.39
 387  1107.02
 388  1134.365
 389  1230.383
 390  1251.723
 391  1256.434
 392  1216.564
 393  1184.334
 394  1184.965
 395  1187.416
 396  1224.361
 397  1217.055
 398  1214.306
 399  1124.469
 400  1157.935
 401  1047.28
 402  1115.065
 403  1143.947
 404  1060.766
 405  1117.222
 406  1200.73
 407  1084.87
 408  1062.371
 409  1095.308
 410  1101.506
 411  1198.018
 412  1230.086
 413  1225.315
 414  1155.58
 415  1177.876
 416  1169.944
 417  1208
 418  1186.118
 419  1082.26
 420  1034.335
 421  1225.662
 422  1176.865
 423  1091.026
 424  1086.505
 425  1068.466
 426  1070.449
 427  1091.223
 428  1034.265
 429  977.9161
 430  1145.297
 431  1223.34
 432  1100.613
 433  1087.835
 434  1158.229
 435  1134.301
 436  1119.565
 437  1159.324
 438  1176.561
 439  1042.96
 440  1073.38
 441  1114.952
 442  1155.598
 443  1181.769
 444  1116.098
 445  1127.296
 446  1087.71
 447  1118.143
 448  1175.832
 449  1253.202
 450  1134.173
 451  1131.979
 452  1140.858
 453  1138.356
 454  1222.107
 455  1184.63
 456  1141.779
 457  1198.843
 458  1191.361
 459  1103.608
 460  1115.33
 461  1080.946
 462  1239.605
 463  1147.359
 464  1041.23
 465  1082.008
 466  1217.939
 467  1206.364
 468  1148.343
 469  1139.941
 470  1153.462
 471  1129.469
 472  1086.982
 473  1135.428
 474  1053.315
 475  1126.413
 476  1128.805
 477  1063.782
 478  1039.119
 479  1064.325
 480  1038.207
 481  1061.084
 482  952.4471
 483  983.4982
 484  1050.074
 485  1006.406
 486  1022.019
 487  1043.755
 488  1028.84
 489  1111.843
 490  1076.567
 491  1117.449
 492  1070.37
 493  992.0951
 494  1079.24
 495  1066.65
 496  1086.037
 497  1006.35
 498  946.553
 499  897.0938
 500  872.0089
 501  998.0996
 502  1081.148
 503  1002.282
 504  1043.656
 505  1101.976
 506  1031.639
 507  1090.567
 508  1164.409
 509  1375.973
 510  1442.475
 511  1450.455
