# Input file       =  1203155681.096231_cleaned.dat
# Candidate        =  PSR_0332+5434
# Telescope        =  AR
# Epoch_topo       =  58169.412767317488
# Epoch_bary       =  N/A
# T_sample         =  0.002
# Data Folded      =  7405568
# Data Avg         =  0.0538645934112956
# Data StdDev      =  1.00018365564726 
# Profile Bins     =  512
# Profile Avg      =  779.082596191708 
# Profile StdDev   =  120.288458625197 
# Reduced chi-sqr  =  0.783
# Prob(Noise)      <  1   (~0.0 sigma)
# P_topo (ms)      =  714.580619511654  +/- 0.000449
# P'_topo (s/s)    =  -0                +/- 2.35e-10
# P''_topo (s/s^2) =  0                 +/- 1.03e-13
# P_bary (ms)      =  N/A
# P'_bary (s/s)    =  N/A
# P''_bary (s/s^2) =  N/A
# P_orb (s)        =  N/A
# asin(i)/c (s)    =  N/A
# eccentricity     =  N/A
# w (rad)          =  N/A
# T_peri           =  N/A
######################################################
   0  1108.768
   1  1079.194
   2  1045.955
   3  915.6785
   4  849.2244
   5  842.6318
   6  859.6489
   7  797.7781
   8  762.6232
   9  818.3738
  10  796.2008
  11  766.1682
  12  774.6227
  13  816.2463
  14  854.355
  15  867.853
  16  884.3306
  17  880.1541
  18  763.3169
  19  725.0496
  20  719.9322
  21  738.6041
  22  833.9847
  23  777.6932
  24  807.6964
  25  776.8281
  26  825.4532
  27  756.7177
  28  800.7963
  29  704.9425
  30  784.845
  31  685.7516
  32  724.5983
  33  729.7563
  34  782.2903
  35  820.7512
  36  805.6978
  37  828.569
  38  785.2881
  39  775.2454
  40  749.0991
  41  792.4351
  42  823.3482
  43  763.0225
  44  791.8826
  45  821.2846
  46  808.7858
  47  736.4446
  48  633.9446
  49  700.9109
  50  595.2121
  51  605.7579
  52  593.718
  53  571.9097
  54  732.4977
  55  868.696
  56  844.1802
  57  833.4922
  58  800.588
  59  818.5258
  60  801.9886
  61  672.63
  62  724.7072
  63  748.2875
  64  712.5056
  65  751.4417
  66  704.9581
  67  615.364
  68  605.6928
  69  685.0589
  70  771.0079
  71  770.2391
  72  760.5813
  73  728.1172
  74  684.6187
  75  680.3689
  76  613.2688
  77  696.0339
  78  871.8033
  79  729.9519
  80  620.6024
  81  731.4594
  82  786.1049
  83  695.3085
  84  824.5151
  85  806.6276
  86  773.501
  87  723.8273
  88  737.562
  89  780.3207
  90  840.2139
  91  879.5346
  92  803.9756
  93  799.0848
  94  738.0916
  95  721.0889
  96  784.4357
  97  811.2348
  98  904.8879
  99  925.439
 100  780.1636
 101  810.0796
 102  745.2491
 103  676.1551
 104  755.2965
 105  732.3041
 106  745.692
 107  853.0925
 108  779.1779
 109  800.2857
 110  644.3078
 111  692.558
 112  784.9841
 113  777.5554
 114  769.499
 115  850.0314
 116  800.1423
 117  686.8034
 118  800.6125
 119  894.2273
 120  737.2845
 121  791.6918
 122  891.9714
 123  846.2397
 124  839.0117
 125  807.397
 126  802.9172
 127  750.6085
 128  796.3768
 129  887.4359
 130  791.2482
 131  705.0582
 132  795.5325
 133  731.0922
 134  758.866
 135  837.9509
 136  808.7951
 137  828.3314
 138  720.6407
 139  718.4713
 140  755.9171
 141  805.7697
 142  823.0125
 143  869.7878
 144  777.2669
 145  756.9352
 146  781.4088
 147  805.3315
 148  763.7328
 149  689.5197
 150  772.1492
 151  848.7906
 152  774.2538
 153  734.5083
 154  741.9448
 155  847.3852
 156  873.2518
 157  837.2292
 158  794.5923
 159  779.1016
 160  797.2757
 161  829.4023
 162  869.8586
 163  807.7332
 164  706.6258
 165  712.0314
 166  786.0197
 167  843.1144
 168  782.052
 169  863.7811
 170  858.4339
 171  858.046
 172  876.5071
 173  802.2223
 174  811.5505
 175  911.0649
 176  869.5598
 177  675.5791
 178  879.3766
 179  830.0469
 180  799.6637
 181  743.8653
 182  736.7451
 183  744.55
 184  690.652
 185  719.8268
 186  599.3602
 187  674.0179
 188  908.2363
 189  960.5851
 190  848.7612
 191  788.302
 192  821.2084
 193  792.3093
 194  679.2257
 195  772.6766
 196  907.6589
 197  926.7797
 198  854.6011
 199  853.5513
 200  890.4248
 201  790.3416
 202  724.4949
 203  778.7703
 204  814.0793
 205  817.9161
 206  807.8925
 207  870.1555
 208  830.2169
 209  814.8124
 210  813.9122
 211  826.8286
 212  758.0787
 213  794.946
 214  688.3063
 215  676.5146
 216  775.0091
 217  724.9677
 218  741.6072
 219  716.2346
 220  751.4797
 221  798.6436
 222  819.3569
 223  784.9351
 224  697.6703
 225  801.2859
 226  763.6104
 227  729.3038
 228  757.0891
 229  721.289
 230  670.8445
 231  701.579
 232  725.0085
 233  684.692
 234  694.4458
 235  783.565
 236  790.3634
 237  791.4814
 238  720.4479
 239  778.3077
 240  811.2502
 241  830.7022
 242  848.7126
 243  756.5696
 244  788.1423
 245  672.3443
 246  742.0961
 247  760.1672
 248  845.0676
 249  825.6688
 250  777.6795
 251  881.4693
 252  773.9203
 253  814.6506
 254  875.2997
 255  905.7715
 256  865.188
 257  870.0662
 258  850.3893
 259  725.8614
 260  710.8978
 261  808.5548
 262  773.2488
 263  722.6659
 264  846.758
 265  856.3839
 266  749.2225
 267  677.7148
 268  684.2593
 269  695.4747
 270  667.537
 271  665.6138
 272  664.4553
 273  712.4924
 274  777.6551
 275  777.5751
 276  775.6829
 277  813.9363
 278  819.7907
 279  755.4996
 280  623.8722
 281  675.2518
 282  759.5453
 283  727.9365
 284  711.9879
 285  718.5999
 286  856.2648
 287  892.6401
 288  813.6635
 289  791.4714
 290  720.4701
 291  821.6166
 292  664.8642
 293  733.2477
 294  784.7689
 295  668.8751
 296  749.3561
 297  780.6287
 298  690.5062
 299  697.9538
 300  700.1008
 301  716.3778
 302  771.8887
 303  759.9811
 304  712.0773
 305  778.5933
 306  824.3127
 307  839.4152
 308  804.6667
 309  796.939
 310  664.2988
 311  728.5824
 312  760.8518
 313  678.5435
 314  744.8101
 315  762.3541
 316  753.3351
 317  786.2645
 318  813.1853
 319  709.0881
 320  675.3953
 321  750.826
 322  845.6674
 323  715.8585
 324  692.2159
 325  708.3786
 326  631.8158
 327  604.0114
 328  658.4679
 329  735.4612
 330  610.9603
 331  593.3733
 332  690.5052
 333  696.5314
 334  666.0999
 335  702.7917
 336  759.5574
 337  729.7684
 338  735.5656
 339  728.3621
 340  726.2623
 341  644.4267
 342  662.4376
 343  728.9615
 344  739.8462
 345  730.6985
 346  737.2635
 347  824.4456
 348  750.473
 349  707.5656
 350  664.8378
 351  718.8514
 352  705.14
 353  693.2894
 354  766.4041
 355  732.3896
 356  771.0266
 357  888.8246
 358  781.0225
 359  772.7378
 360  748.3378
 361  684.7779
 362  674.1409
 363  726.1837
 364  731.8179
 365  741.2592
 366  716.3603
 367  748.746
 368  744.4898
 369  746.1723
 370  753.5305
 371  686.8336
 372  668.1297
 373  715.8189
 374  711.9214
 375  698.0892
 376  670.3986
 377  638.7574
 378  602.2358
 379  703.9273
 380  669.83
 381  738.3761
 382  743.7632
 383  691.7093
 384  678.8278
 385  667.8702
 386  798.0132
 387  799.4117
 388  752.8826
 389  852.777
 390  786.2158
 391  816.4725
 392  808.7373
 393  769.9612
 394  791.1714
 395  787.0827
 396  785.5934
 397  809.9816
 398  820.4429
 399  811.9291
 400  834.5461
 401  859.018
 402  834.5706
 403  822.8005
 404  895.4041
 405  965.9946
 406  840.9138
 407  763.9881
 408  783.825
 409  789.4219
 410  718.8979
 411  702.2529
 412  702.8671
 413  750.2349
 414  775.8686
 415  847.5825
 416  861.0208
 417  893.8718
 418  893.2094
 419  805.7568
 420  857.8973
 421  849.0195
 422  815.7006
 423  873.7757
 424  871.6882
 425  826.1571
 426  854.7427
 427  786.8524
 428  877.3997
 429  853.0428
 430  795.1116
 431  829.9545
 432  871.3145
 433  930.643
 434  838.6281
 435  839.2274
 436  827.1867
 437  919.2888
 438  958.4707
 439  853.5947
 440  825.356
 441  743.1562
 442  860.5145
 443  844.519
 444  850.6889
 445  837.1704
 446  843.038
 447  763.5504
 448  754.3693
 449  800.2543
 450  813.7735
 451  820.6213
 452  783.1761
 453  752.3762
 454  818.8131
 455  748.0443
 456  787.892
 457  821.8976
 458  764.6189
 459  669.3219
 460  746.0773
 461  823.7692
 462  786.2758
 463  796.1356
 464  836.6913
 465  825.0503
 466  795.0178
 467  769.9241
 468  884.812
 469  866.6643
 470  848.6815
 471  773.3568
 472  832.2698
 473  864.3361
 474  715.1487
 475  754.4813
 476  835.9987
 477  801.4841
 478  801.209
 479  822.2585
 480  793.2912
 481  691.5493
 482  662.6899
 483  767.8146
 484  809.5906
 485  818.1524
 486  903.26
 487  864.5469
 488  825.6329
 489  764.1525
 490  758.006
 491  786.4538
 492  833.523
 493  801.0799
 494  729.3362
 495  678.1468
 496  771.2211
 497  695.4836
 498  741.6205
 499  833.6912
 500  864.4262
 501  893.1147
 502  880.754
 503  884.4546
 504  919.9172
 505  998.5089
 506  975.8197
 507  784.5938
 508  800.1923
 509  849.0773
 510  1027.63
 511  1144.321
