# Input file       =  1203090916.122294_cleaned.dat
# Candidate        =  PSR_0332+5434
# Telescope        =  AR
# Epoch_topo       =  58168.663172711735
# Epoch_bary       =  N/A
# T_sample         =  0.002
# Data Folded      =  7340032
# Data Avg         =  0.0523240827746529
# Data StdDev      =  1.00009552835795 
# Profile Bins     =  512
# Profile Avg      =  750.256238767984 
# Profile StdDev   =  119.744474277124 
# Reduced chi-sqr  =  1.147
# Prob(Noise)      <  0.0117   (~2.3 sigma)
# P_topo (ms)      =  714.580703706363  +/- 0.000556
# P'_topo (s/s)    =  -0                +/- 2.93e-10
# P''_topo (s/s^2) =  0                 +/- 1.3e-13
# P_bary (ms)      =  N/A
# P'_bary (s/s)    =  N/A
# P''_bary (s/s^2) =  N/A
# P_orb (s)        =  N/A
# asin(i)/c (s)    =  N/A
# eccentricity     =  N/A
# w (rad)          =  N/A
# T_peri           =  N/A
######################################################
   0  1221.499
   1  1144.221
   2  996.7761
   3  847.5702
   4  763.8251
   5  781.576
   6  786.9573
   7  746.4293
   8  813.0101
   9  815.398
  10  828.7037
  11  786.7638
  12  819.7094
  13  863.4221
  14  891.0753
  15  846.1739
  16  830.1703
  17  877.8102
  18  736.8386
  19  662.8816
  20  732.2185
  21  755.8484
  22  749.1843
  23  837.7804
  24  866.5852
  25  778.1904
  26  770.9156
  27  742.6335
  28  738.4589
  29  778.9764
  30  738.9501
  31  847.3314
  32  833.8704
  33  843.2509
  34  836.6135
  35  808.9375
  36  899.6732
  37  912.918
  38  984.9649
  39  939.1809
  40  861.5176
  41  859.9069
  42  848.6568
  43  854.6989
  44  929.8832
  45  946.3823
  46  838.4218
  47  832.5815
  48  858.2026
  49  914.7141
  50  916.4226
  51  890.4528
  52  902.3511
  53  902.7696
  54  857.6512
  55  871.2438
  56  920.3914
  57  868.8655
  58  877.6452
  59  895.5456
  60  886.6531
  61  981.8287
  62  880.2673
  63  815.2667
  64  810.5959
  65  840.0618
  66  788.2234
  67  790.4553
  68  897.8194
  69  914.7682
  70  912.6025
  71  733.8791
  72  671.4921
  73  727.731
  74  791.2724
  75  875.3156
  76  771.1838
  77  658.5518
  78  648.5296
  79  665.6945
  80  699.0225
  81  725.549
  82  816.1465
  83  716.3459
  84  679.1913
  85  772.598
  86  708.2439
  87  663.429
  88  727.949
  89  805.5901
  90  746.2083
  91  730.7876
  92  673.0034
  93  670.0273
  94  761.6958
  95  737.9934
  96  712.8983
  97  772.1725
  98  671.7504
  99  633.8854
 100  681.473
 101  677.6282
 102  686.8642
 103  683.583
 104  669.4116
 105  579.9982
 106  605.6071
 107  712.4608
 108  717.5783
 109  677.8452
 110  696.1738
 111  707.8842
 112  698.5475
 113  693.4199
 114  692.7369
 115  703.1879
 116  743.6178
 117  811.7982
 118  815.6882
 119  712.9645
 120  762.7251
 121  814.1135
 122  743.488
 123  818.5182
 124  792.6973
 125  775.1393
 126  693.5911
 127  639.2547
 128  753.2298
 129  771.6936
 130  782.6627
 131  744.571
 132  718.5618
 133  756.9937
 134  704.7832
 135  561.5188
 136  564.6688
 137  675.0846
 138  733.2975
 139  572.8932
 140  568.5894
 141  583.2723
 142  593.1877
 143  632.1638
 144  645.1145
 145  712.7078
 146  660.9943
 147  699.2891
 148  603.2097
 149  680.4199
 150  691.7247
 151  671.7736
 152  686.6032
 153  646.7677
 154  583.8477
 155  607.5941
 156  726.1627
 157  711.8686
 158  623.6335
 159  766.067
 160  780.5984
 161  757.4674
 162  697.3904
 163  605.4078
 164  650.9084
 165  667.527
 166  710.3735
 167  725.1562
 168  679.1807
 169  639.3348
 170  639.1874
 171  758.103
 172  730.673
 173  782.8716
 174  794.7497
 175  761.4037
 176  727.3394
 177  718.1651
 178  677.1974
 179  717.5407
 180  695.4039
 181  780.3964
 182  747.6469
 183  736.8609
 184  733.2827
 185  760.8781
 186  711.6177
 187  663.6873
 188  689.9385
 189  747.3983
 190  713.3409
 191  760.1927
 192  773.4642
 193  711.652
 194  679.9196
 195  668.3039
 196  644.5219
 197  667.2766
 198  788.6813
 199  762.6924
 200  651.4266
 201  720.7551
 202  735.614
 203  735.5247
 204  639.1511
 205  731.4678
 206  827.7252
 207  809.0349
 208  665.2049
 209  708.6647
 210  791.4253
 211  751.441
 212  774.1045
 213  780.2742
 214  710.8521
 215  824.6882
 216  876.5416
 217  801.6849
 218  672.8897
 219  698.3015
 220  740.7903
 221  618.8538
 222  766.8026
 223  841.9589
 224  875.0969
 225  843.1583
 226  833.3815
 227  873.2726
 228  882.7379
 229  781.7374
 230  754.9952
 231  851.2354
 232  883.7063
 233  851.8237
 234  896.3697
 235  869.1946
 236  865.4638
 237  843.7906
 238  832.8383
 239  821.8972
 240  813.6035
 241  779.3654
 242  768.8576
 243  659.7872
 244  761.8278
 245  716.8795
 246  645.9537
 247  793.0087
 248  837.9218
 249  885.6915
 250  853.3831
 251  832.2036
 252  727.7254
 253  792.0052
 254  762.9167
 255  696.9436
 256  647.4309
 257  685.6158
 258  682.121
 259  681.611
 260  739.5881
 261  671.8025
 262  790.3488
 263  776.3184
 264  702.289
 265  683.216
 266  742.7268
 267  744.1786
 268  788.3575
 269  746.6899
 270  754.7178
 271  758.7922
 272  790.5129
 273  707.553
 274  751.8832
 275  778.6971
 276  795.7247
 277  795.149
 278  664.3102
 279  783.9492
 280  675.0299
 281  648.7956
 282  771.2396
 283  775.4771
 284  780.5878
 285  795.1589
 286  811.1278
 287  722.6853
 288  795.7451
 289  730.4865
 290  691.1944
 291  693.2296
 292  678.0226
 293  722.6318
 294  636.4567
 295  681.1313
 296  809.5526
 297  762.6288
 298  719.8657
 299  636.4435
 300  724.1548
 301  825.0431
 302  734.3547
 303  701.8696
 304  669.0946
 305  607.5864
 306  553.769
 307  515.4637
 308  602.0133
 309  610.241
 310  685.4661
 311  670.0036
 312  475.665
 313  518.6682
 314  622.6883
 315  632.0987
 316  671.8458
 317  737.9071
 318  630.6493
 319  559.5753
 320  682.0539
 321  764.5194
 322  731.1017
 323  638.283
 324  640.8105
 325  646.8089
 326  674.3909
 327  665.8582
 328  728.7379
 329  677.0657
 330  690.7725
 331  600.9679
 332  709.3776
 333  765.6631
 334  736.4443
 335  734.0618
 336  747.3948
 337  704.4194
 338  784.1761
 339  810.613
 340  746.1696
 341  739.6832
 342  714.8619
 343  752.4875
 344  688.1623
 345  657.9865
 346  654.4692
 347  699.9993
 348  777.3038
 349  773.0086
 350  714.3723
 351  716.1154
 352  813.2101
 353  724.0492
 354  647.5404
 355  658.9474
 356  751.698
 357  827.4205
 358  866.6171
 359  879.5649
 360  862.6308
 361  790.4412
 362  765.7962
 363  700.7883
 364  671.363
 365  697.3652
 366  724.5969
 367  810.9312
 368  792.7108
 369  748.7656
 370  759.7065
 371  586.1872
 372  654.5402
 373  735.9358
 374  702.5104
 375  732.145
 376  783.5815
 377  844.2152
 378  855.726
 379  648.1959
 380  635.4523
 381  751.1076
 382  710.8915
 383  733.5458
 384  761.8023
 385  721.7192
 386  715.5652
 387  727.0353
 388  806.8296
 389  789.4529
 390  890.0091
 391  921.4366
 392  782.571
 393  701.2031
 394  797.183
 395  709.3915
 396  734.9666
 397  833.9604
 398  838.8898
 399  751.9568
 400  713.5441
 401  672.4186
 402  686.7543
 403  712.0269
 404  676.7934
 405  686.3464
 406  733.9052
 407  787.7708
 408  691.5906
 409  684.105
 410  776.9321
 411  751.7277
 412  713.8936
 413  730.3586
 414  794.3564
 415  792.2264
 416  781.4269
 417  710.4987
 418  798.8629
 419  730.9223
 420  656.5942
 421  674.2433
 422  696.5468
 423  833.3836
 424  685.0763
 425  595.7095
 426  627.7123
 427  685.7889
 428  728.6721
 429  590.0311
 430  630.0167
 431  592.7267
 432  710.1145
 433  660.5293
 434  601.9264
 435  603.735
 436  665.6962
 437  735.6117
 438  755.6037
 439  690.899
 440  717.9818
 441  690.1884
 442  709.9216
 443  752.7812
 444  788.6435
 445  775.9612
 446  768.5632
 447  819.3137
 448  754.5671
 449  731.5007
 450  732.1448
 451  740.3619
 452  787.7983
 453  673.8901
 454  679.6844
 455  862.4413
 456  854.2645
 457  638.1547
 458  626.1891
 459  682.0488
 460  676.855
 461  560.7297
 462  611.2169
 463  798.5453
 464  830.9073
 465  814.4557
 466  722.9017
 467  750.483
 468  788.6289
 469  792.1067
 470  797.0919
 471  892.3997
 472  868.5788
 473  845.1392
 474  839.6453
 475  778.1748
 476  768.4007
 477  877.3696
 478  826.8623
 479  753.4821
 480  748.3907
 481  675.636
 482  745.1219
 483  690.2151
 484  669.0777
 485  704.2648
 486  636.2446
 487  702.4605
 488  703.5473
 489  758.5435
 490  770.7016
 491  762.1863
 492  752.6441
 493  741.614
 494  788.0901
 495  797.6404
 496  772.9297
 497  824.3013
 498  861.2767
 499  778.7818
 500  767.2745
 501  796.9343
 502  870.4852
 503  888.2995
 504  811.742
 505  872.5939
 506  916.3916
 507  1028.364
 508  1019.226
 509  1026.64
 510  1113.89
 511  1181.802
