# Input file       =  1203759049.105247_cleaned.dat
# Candidate        =  PSR_0332+5434
# Telescope        =  AR
# Epoch_topo       =  58176.396193347769
# Epoch_bary       =  N/A
# T_sample         =  0.002
# Data Folded      =  7340032
# Data Avg         =  0.067122129863649
# Data StdDev      =  1.00014183727437 
# Profile Bins     =  512
# Profile Avg      =  962.255606562956 
# Profile StdDev   =  119.750018984298 
# Reduced chi-sqr  =  1.111
# Prob(Noise)      <  0.0421   (~1.7 sigma)
# P_topo (ms)      =  714.5806106033    +/- 0.000608
# P'_topo (s/s)    =  -0                +/- 3.21e-10
# P''_topo (s/s^2) =  0                 +/- 1.42e-13
# P_bary (ms)      =  N/A
# P'_bary (s/s)    =  N/A
# P''_bary (s/s^2) =  N/A
# P_orb (s)        =  N/A
# asin(i)/c (s)    =  N/A
# eccentricity     =  N/A
# w (rad)          =  N/A
# T_peri           =  N/A
######################################################
   0  1261.053
   1  1307.294
   2  1364.619
   3  1193.427
   4  1067.251
   5  1097.432
   6  1066.358
   7  952.4385
   8  956.4761
   9  984.2751
  10  964.9061
  11  1050.229
  12  957.0477
  13  975.998
  14  934.7181
  15  919.4816
  16  846.1517
  17  879.7099
  18  858.0437
  19  927.7633
  20  984.1675
  21  937.706
  22  835.5616
  23  900.9684
  24  897.4901
  25  946.1464
  26  1081.183
  27  1046.129
  28  994.0472
  29  970.6389
  30  1059.918
  31  1042.522
  32  981.6063
  33  1003.922
  34  1019.027
  35  969.9295
  36  1062.85
  37  1105.362
  38  1133.176
  39  979.2085
  40  901.5108
  41  950.4105
  42  1032.876
  43  974.7987
  44  1024.132
  45  1101.419
  46  1050.903
  47  1001.079
  48  994.9149
  49  965.8455
  50  907.1602
  51  963.927
  52  936.9745
  53  856.0341
  54  834.5096
  55  850.0977
  56  867.0216
  57  911.7743
  58  876.6475
  59  872.7487
  60  903.2194
  61  855.7071
  62  855.0016
  63  846.1757
  64  732.0549
  65  803.2469
  66  986.1572
  67  975.5591
  68  1013.303
  69  994.5268
  70  834.7928
  71  885.2464
  72  959.9198
  73  974.1798
  74  996.2867
  75  1023.66
  76  1029.791
  77  993.9889
  78  987.6989
  79  981.7213
  80  1005.474
  81  969.9258
  82  790.2563
  83  874.829
  84  947.8036
  85  939.332
  86  957.102
  87  974.9072
  88  1026.521
  89  912.175
  90  1015.315
  91  1068.357
  92  1048.201
  93  1047.536
  94  1069.445
  95  1019
  96  981.4247
  97  928.9772
  98  898.3373
  99  893.343
 100  1061.808
 101  1056.502
 102  1034.452
 103  1013.985
 104  987.6028
 105  1030.793
 106  957.1985
 107  964.7258
 108  1015.845
 109  1004.099
 110  1009.035
 111  1051.508
 112  986.2794
 113  986.6998
 114  910.8436
 115  920.7569
 116  895.2469
 117  913.187
 118  970.37
 119  984.5286
 120  1035.402
 121  982.412
 122  977.7287
 123  959.1784
 124  953.1793
 125  914.9965
 126  874.7553
 127  933.2682
 128  904.9803
 129  864.4814
 130  857.6587
 131  846.4446
 132  771.3218
 133  783.4296
 134  901.605
 135  894.3365
 136  810.4625
 137  874.3935
 138  824.5149
 139  855.3162
 140  790.4723
 141  874.7166
 142  948.5315
 143  1010.763
 144  875.8516
 145  849.0299
 146  852.3384
 147  828.6414
 148  799.933
 149  863.5994
 150  913.1052
 151  896.2739
 152  867.5663
 153  890.5991
 154  868.7458
 155  792.2575
 156  933.7831
 157  873.5374
 158  853.2013
 159  958.1127
 160  875.5917
 161  946.5892
 162  914.9355
 163  985.1281
 164  1008.887
 165  1034.262
 166  998.9612
 167  858.5609
 168  1034.864
 169  1112.363
 170  947.7998
 171  978.2173
 172  1072.679
 173  1015.798
 174  993.2121
 175  957.6867
 176  986.6667
 177  1141.471
 178  1121.575
 179  1033.109
 180  934.1743
 181  987.717
 182  1082.057
 183  937.1626
 184  895.0477
 185  985.2468
 186  1081.056
 187  1174.172
 188  1023.883
 189  970.4658
 190  943.0381
 191  919.4666
 192  1001.684
 193  1067.786
 194  1114.766
 195  1038.38
 196  965.3378
 197  937.7921
 198  932.2997
 199  928.1761
 200  964.9678
 201  985.3824
 202  832.9585
 203  925.0279
 204  906.22
 205  879.0519
 206  1003.858
 207  939.5494
 208  915.0844
 209  937.99
 210  941.2192
 211  843.6595
 212  955.3312
 213  977.4772
 214  928.9314
 215  769.1566
 216  822.4397
 217  957.0519
 218  984.6338
 219  918.5557
 220  872.1638
 221  869.2456
 222  903.2502
 223  923.3552
 224  915.2589
 225  889.5235
 226  832.6824
 227  952.7986
 228  961.9809
 229  928.2973
 230  932.7127
 231  1002.321
 232  1018.885
 233  878.8777
 234  1046.763
 235  1060.476
 236  931.6753
 237  870.3367
 238  887.9365
 239  962.6038
 240  996.3304
 241  929.2547
 242  867.0978
 243  925.1201
 244  961.6786
 245  951.5264
 246  958.4066
 247  899.1106
 248  874.8898
 249  965.0729
 250  1051.644
 251  890.1765
 252  830.4514
 253  824.1022
 254  911.914
 255  922.9484
 256  886.44
 257  824.4711
 258  915.886
 259  957.6291
 260  903.192
 261  940.1641
 262  894.4083
 263  911.5491
 264  952.2784
 265  980.3143
 266  1024.874
 267  960.7322
 268  865.3076
 269  759.7335
 270  845.0018
 271  1066.493
 272  1006.575
 273  981.274
 274  905.7723
 275  968.3381
 276  902.5961
 277  862.2857
 278  837.2497
 279  818.1825
 280  890.0587
 281  914.4205
 282  858.9499
 283  860.8599
 284  858.9902
 285  824.4636
 286  847.8401
 287  766.8719
 288  731.6713
 289  751.7877
 290  834.4765
 291  769.7634
 292  733.8218
 293  852.7673
 294  871.8102
 295  811.3198
 296  830.5127
 297  848.4147
 298  881.9805
 299  978.6035
 300  960.9791
 301  894.7753
 302  916.0527
 303  870.3803
 304  939.6507
 305  976.2527
 306  954.3366
 307  784.4427
 308  810.1147
 309  924.1389
 310  872.4422
 311  801.1849
 312  899.607
 313  992.8693
 314  973.5052
 315  998.4009
 316  1089.508
 317  1006.487
 318  1004.945
 319  992.5521
 320  913.8763
 321  896.7879
 322  864.0166
 323  956.6333
 324  1033.036
 325  1082.28
 326  1119.025
 327  1083.658
 328  1034.446
 329  1015.5
 330  981.5082
 331  1101.263
 332  1049.754
 333  982.2658
 334  979.3877
 335  980.4443
 336  976.7219
 337  956.2486
 338  890.1146
 339  918.1107
 340  864.3604
 341  982.2187
 342  1000.492
 343  998.3954
 344  1020.721
 345  1013.068
 346  1022.985
 347  1057.846
 348  1068.061
 349  1065.447
 350  1036.423
 351  1084.739
 352  1088.364
 353  1074.895
 354  1010.174
 355  1029.282
 356  980.0319
 357  1021.532
 358  1078.431
 359  1114.009
 360  1149.994
 361  1114.67
 362  1035.824
 363  1125.517
 364  1115.374
 365  1078.251
 366  1087.278
 367  1011.918
 368  916.9306
 369  1004.738
 370  1057.643
 371  1052.168
 372  1017.49
 373  985.9545
 374  1039.293
 375  968.5685
 376  1051.382
 377  1021.551
 378  957.1987
 379  993.1854
 380  1086.479
 381  1060.671
 382  950.2463
 383  1007.178
 384  1065.596
 385  1164.548
 386  1139.927
 387  1102.062
 388  1133.354
 389  1164.327
 390  1211.217
 391  1158.379
 392  1068.134
 393  1050.595
 394  1039.849
 395  1046.716
 396  1023.829
 397  1023.929
 398  1094.183
 399  1095.125
 400  1060.943
 401  1031.082
 402  1040.503
 403  961.418
 404  888.8128
 405  990.2766
 406  983.0768
 407  961.5264
 408  1042.024
 409  1080.128
 410  990.4449
 411  781.0947
 412  779.0605
 413  782.0831
 414  840.0888
 415  1008.133
 416  940.6755
 417  807.8532
 418  897.5079
 419  1032.315
 420  998.2465
 421  893.2726
 422  827.1768
 423  852.2805
 424  904.3871
 425  850.3106
 426  924.9609
 427  1001.01
 428  1031.269
 429  1009.825
 430  971.661
 431  956.4457
 432  835.486
 433  886.0583
 434  946.4623
 435  946.3916
 436  921.963
 437  975.5411
 438  867.1931
 439  881.2669
 440  886.1502
 441  961.2455
 442  1000.353
 443  1013.523
 444  919.5209
 445  994.1424
 446  1061.247
 447  1069.401
 448  980.5031
 449  953.1013
 450  951.2537
 451  944.4409
 452  1001.936
 453  965.4518
 454  931.7045
 455  923.0899
 456  1025.048
 457  1071.953
 458  1071.759
 459  909.7827
 460  895.4711
 461  1009.542
 462  1009.8
 463  967.5287
 464  1020.711
 465  1082.509
 466  942.3133
 467  909.6713
 468  956.2477
 469  905.4861
 470  940.2245
 471  879.1605
 472  868.1137
 473  927.3022
 474  952.7416
 475  884.985
 476  937.4997
 477  1037.33
 478  919.892
 479  886.8864
 480  917.7346
 481  955.7204
 482  991.4277
 483  1032.373
 484  1014.001
 485  1018.831
 486  997.365
 487  975.3637
 488  952.9592
 489  945.1899
 490  1017.557
 491  1018.122
 492  1018.975
 493  979.8918
 494  966.3886
 495  1014.769
 496  994.3196
 497  945.2949
 498  943.476
 499  926.4849
 500  930.6008
 501  949.9993
 502  856.9803
 503  892.0332
 504  984.4003
 505  1048.118
 506  1084.569
 507  1052.645
 508  1146.314
 509  1121.367
 510  1213.198
 511  1333.151
