# Input file       =  1203698822.10975_cleaned.dat
# Candidate        =  PSR_0332+5434
# Telescope        =  AR
# Epoch_topo       =  58175.699121640624
# Epoch_bary       =  N/A
# T_sample         =  0.002
# Data Folded      =  7340032
# Data Avg         =  0.0444977563047469
# Data StdDev      =  1.00009215113006 
# Profile Bins     =  512
# Profile Avg      =  637.95431334362  
# Profile StdDev   =  119.744069911374 
# Reduced chi-sqr  =  1.338
# Prob(Noise)      <  4.59e-07   (~4.9 sigma)
# P_topo (ms)      =  714.580906803327  +/- 0.000263
# P'_topo (s/s)    =  -0                +/- 1.39e-10
# P''_topo (s/s^2) =  0                 +/- 6.12e-14
# P_bary (ms)      =  N/A
# P'_bary (s/s)    =  N/A
# P''_bary (s/s^2) =  N/A
# P_orb (s)        =  N/A
# asin(i)/c (s)    =  N/A
# eccentricity     =  N/A
# w (rad)          =  N/A
# T_peri           =  N/A
######################################################
   0  1216.921
   1  1029.121
   2  887.0035
   3  754.9012
   4  676.434
   5  724.1763
   6  696.388
   7  740.8326
   8  747.8163
   9  682.6921
  10  655.4763
  11  666.4451
  12  671.4337
  13  625.3518
  14  655.3148
  15  692.5007
  16  625.2141
  17  629.8278
  18  623.3364
  19  582.6396
  20  671.0209
  21  666.9598
  22  641.9462
  23  642.9133
  24  637.5743
  25  656.1603
  26  645.0676
  27  550.3452
  28  549.712
  29  578.92
  30  567.4562
  31  552.2693
  32  597.0842
  33  604.8649
  34  463.9131
  35  443.8591
  36  482.0283
  37  537.1604
  38  550.9031
  39  612.4318
  40  577.7252
  41  479.7356
  42  427.6539
  43  459.5027
  44  560.7316
  45  535.6715
  46  599.1423
  47  493.1129
  48  590.2665
  49  712.0681
  50  584.0277
  51  553.9344
  52  478.3836
  53  633.2635
  54  547.2465
  55  541.7477
  56  616.601
  57  593.6239
  58  506.3105
  59  584.6144
  60  622.2665
  61  620.9302
  62  603.6123
  63  664.8238
  64  737.6639
  65  683.7133
  66  714.5338
  67  833.3572
  68  760.09
  69  764.4641
  70  782.4215
  71  703.5013
  72  664.4498
  73  647.6835
  74  746.6227
  75  743.2612
  76  752.4124
  77  702.403
  78  609.8467
  79  663.4056
  80  679.7115
  81  680.662
  82  625.6309
  83  533.373
  84  492.5854
  85  594.0457
  86  561.356
  87  571.016
  88  620.5895
  89  646.4672
  90  760.2919
  91  678.4501
  92  559.4598
  93  570.798
  94  610.1364
  95  682.6675
  96  710.995
  97  663.2379
  98  666.7374
  99  667.4285
 100  692.9572
 101  589.0891
 102  695.1509
 103  646.3129
 104  617.1713
 105  649.6476
 106  710.9629
 107  650.8542
 108  618.9531
 109  607.3875
 110  567.0963
 111  577.6039
 112  630.2094
 113  630.3526
 114  563.3705
 115  601.9158
 116  603.5403
 117  595.4351
 118  609.1219
 119  714.6895
 120  600.0696
 121  561.4163
 122  605.4756
 123  576.0165
 124  514.1028
 125  501.2789
 126  594.743
 127  710.276
 128  669.9241
 129  540.6791
 130  499.1415
 131  495.2158
 132  638.1301
 133  596.006
 134  617.9958
 135  689.6005
 136  708.8588
 137  665.1714
 138  649.0645
 139  592.4025
 140  668.3627
 141  717.8489
 142  734.9052
 143  707.3031
 144  708.7293
 145  766.0518
 146  763.9642
 147  684.7205
 148  671.189
 149  714.7229
 150  677.77
 151  699.5264
 152  675.2015
 153  636.767
 154  622.3972
 155  622.1565
 156  656.3881
 157  628.1552
 158  651.629
 159  626.1698
 160  625.1219
 161  676.4454
 162  661.3061
 163  579.36
 164  653.792
 165  668.7654
 166  688.294
 167  716.7303
 168  624.013
 169  570.8697
 170  683.3141
 171  641.3164
 172  660.8002
 173  603.6012
 174  561.2927
 175  581.3522
 176  493.4565
 177  535.5837
 178  514.4602
 179  541.8704
 180  551.8429
 181  599.5767
 182  622.9476
 183  486.4042
 184  541.1593
 185  533.6902
 186  528.844
 187  477.196
 188  495.4416
 189  483.6175
 190  526.6118
 191  529.485
 192  517.1929
 193  552.9624
 194  491.2398
 195  447.5827
 196  466.9712
 197  589.6733
 198  585.4131
 199  613.9406
 200  629.1865
 201  635.3727
 202  662.2009
 203  645.6548
 204  696.7861
 205  624.5321
 206  674.6826
 207  796.8145
 208  774.1706
 209  710.6367
 210  724.9419
 211  707.6251
 212  658.2513
 213  631.493
 214  620.4475
 215  646.6587
 216  593.1241
 217  699.4531
 218  699.5637
 219  623.9111
 220  633.2113
 221  699.1513
 222  813.3821
 223  690.0298
 224  664.2746
 225  730.7361
 226  683.2675
 227  643.5446
 228  582.965
 229  596.2934
 230  651.8818
 231  712.508
 232  730.1144
 233  677.2449
 234  757.7179
 235  691.0375
 236  615.1772
 237  658.424
 238  684.8129
 239  656.2773
 240  585.9407
 241  640.3441
 242  620.8395
 243  647.3239
 244  690.598
 245  691.2916
 246  660.3865
 247  687.8135
 248  635.6894
 249  614.4938
 250  623.2784
 251  562.8196
 252  571.8269
 253  670.7352
 254  629.9194
 255  536.3187
 256  589.7441
 257  661.0575
 258  614.8874
 259  538.8839
 260  585.5818
 261  630.6553
 262  573.2076
 263  529.9382
 264  569.2529
 265  590.1467
 266  581.6485
 267  520.8904
 268  573.3076
 269  681.0621
 270  631.8388
 271  724.2331
 272  774.7521
 273  742.8123
 274  650.7822
 275  671.8816
 276  704.4392
 277  669.614
 278  652.6278
 279  722.9512
 280  746.2418
 281  782.5044
 282  810.0731
 283  790.324
 284  764.7614
 285  755.9107
 286  718.5322
 287  787.5748
 288  858.433
 289  854.6701
 290  827.6324
 291  756.1349
 292  813.3842
 293  753.2497
 294  677.4637
 295  756.963
 296  775.6777
 297  791.1741
 298  826.5148
 299  822.8174
 300  747.6878
 301  782.7631
 302  701.019
 303  621.1463
 304  690.3402
 305  746.6591
 306  780.3016
 307  617.7842
 308  585.1021
 309  624.1596
 310  670.8221
 311  685.2676
 312  662.5938
 313  664.1281
 314  604.4979
 315  619.5665
 316  587.8922
 317  676.446
 318  569.5585
 319  538.9967
 320  532.4792
 321  536.8309
 322  558.2625
 323  566.5078
 324  620.8856
 325  563.5814
 326  516.2358
 327  467.2542
 328  505.2354
 329  487.9283
 330  456.7059
 331  470.1537
 332  571.1487
 333  626.2651
 334  570.5566
 335  542.6098
 336  513.0476
 337  596.4286
 338  483.3767
 339  483.721
 340  521.6619
 341  486.2695
 342  591.049
 343  569.3842
 344  623.0817
 345  679.1702
 346  550.3562
 347  716.051
 348  653.0834
 349  554.7468
 350  527.2535
 351  586.6214
 352  576.0129
 353  627.7975
 354  561.5139
 355  725.4179
 356  761.9703
 357  739.4376
 358  750.9053
 359  699.3712
 360  665.8372
 361  738.6656
 362  785.2925
 363  665.7886
 364  791.9499
 365  872.4299
 366  816.7409
 367  792.9136
 368  720.0449
 369  747.4623
 370  706.3183
 371  742.9691
 372  706.3267
 373  760.4862
 374  694.8231
 375  683.5947
 376  696.4697
 377  793.8212
 378  762.2156
 379  659.4619
 380  630.8237
 381  647.2578
 382  703.326
 383  660.2363
 384  681.8029
 385  639.7998
 386  591.8632
 387  511.8406
 388  532.1971
 389  614.9956
 390  525.8559
 391  564.1252
 392  584.6441
 393  633.931
 394  630.8811
 395  702.7322
 396  655.6011
 397  622.1212
 398  564.1523
 399  598.496
 400  549.2781
 401  506.1423
 402  435.1203
 403  471.1284
 404  456.2044
 405  568.7866
 406  548.2075
 407  503.3142
 408  542.8474
 409  571.9594
 410  514.3958
 411  532.5921
 412  589.0394
 413  608.4304
 414  607.3384
 415  552.2431
 416  500.0641
 417  563.4468
 418  600.2631
 419  599.2319
 420  619.3918
 421  541.4365
 422  578.6926
 423  502.5202
 424  542.3124
 425  517.4428
 426  520.6053
 427  557.726
 428  625.322
 429  738.0751
 430  686.764
 431  665.1103
 432  641.8918
 433  625.1393
 434  622.2836
 435  601.4444
 436  633.2475
 437  648.509
 438  648.3893
 439  646.3636
 440  641.3319
 441  571.0778
 442  592.5975
 443  673.7709
 444  545.4677
 445  540.7389
 446  592.0492
 447  599.1111
 448  569.4962
 449  571.8633
 450  568.9816
 451  569.0803
 452  555.413
 453  656.4589
 454  718.638
 455  671.976
 456  678.5777
 457  638.7748
 458  600.2628
 459  507.1743
 460  593.246
 461  640.2487
 462  578.6812
 463  529.4033
 464  537.3932
 465  584.8865
 466  539.9816
 467  554.0127
 468  581.8078
 469  468.565
 470  545.9026
 471  587.0433
 472  595.3404
 473  523.3845
 474  641.4927
 475  704.002
 476  611.3126
 477  475.2687
 478  548.9473
 479  582.5804
 480  557.7421
 481  492.8042
 482  524.5417
 483  538.963
 484  548.6978
 485  619.5291
 486  654.7237
 487  646.3433
 488  649.8849
 489  644.1743
 490  631.4058
 491  733.5631
 492  694.5877
 493  764.5605
 494  739.0503
 495  780.3278
 496  750.1187
 497  714.1883
 498  713.8808
 499  714.8896
 500  703.7561
 501  798.9673
 502  861.08
 503  793.3293
 504  757.4279
 505  710.6603
 506  799.6837
 507  868.6508
 508  938.4285
 509  928.0895
 510  1134.156
 511  1290.779
