# Input file       =  1203759049.105247_cleaned.dat
# Candidate        =  PSR_0332+5434
# Telescope        =  AR
# Epoch_topo       =  58176.396193347769
# Epoch_bary       =  N/A
# T_sample         =  0.002
# Data Folded      =  7340032
# Data Avg         =  0.067122129863649
# Data StdDev      =  1.00014183727437 
# Profile Bins     =  512
# Profile Avg      =  962.255606442778 
# Profile StdDev   =  119.750018984298 
# Reduced chi-sqr  =  1.125
# Prob(Noise)      <  0.0265   (~1.9 sigma)
# P_topo (ms)      =  714.580610406296  +/- 0.000609
# P'_topo (s/s)    =  -0                +/- 3.22e-10
# P''_topo (s/s^2) =  0                 +/- 1.42e-13
# P_bary (ms)      =  N/A
# P'_bary (s/s)    =  N/A
# P''_bary (s/s^2) =  N/A
# P_orb (s)        =  N/A
# asin(i)/c (s)    =  N/A
# eccentricity     =  N/A
# w (rad)          =  N/A
# T_peri           =  N/A
######################################################
   0  1268.342
   1  1354.316
   2  1278.953
   3  1099.609
   4  1072.907
   5  1097.816
   6  1002.424
   7  929.4933
   8  992.6605
   9  956.8667
  10  1029.975
  11  1016.85
  12  946.4095
  13  975.9384
  14  904.2593
  15  896.6107
  16  844.4473
  17  869.3427
  18  874.2197
  19  982.6531
  20  979.7277
  21  877.0135
  22  837.1169
  23  913.8223
  24  893.0778
  25  1060.211
  26  1057.657
  27  1025.795
  28  961.656
  29  1029.536
  30  1063.319
  31  1001.089
  32  975.8754
  33  1035.058
  34  965.9046
  35  1035.134
  36  1070.344
  37  1159.332
  38  1047.597
  39  920.6074
  40  915.9584
  41  1007.447
  42  1003.249
  43  975.3794
  44  1089.922
  45  1076.455
  46  1022.483
  47  976.4893
  48  1005.434
  49  908.9636
  50  954.4258
  51  949.5674
  52  900.4701
  53  833.9059
  54  839.7022
  55  858.0703
  56  903.1265
  57  914.3699
  58  840.8478
  59  912.2435
  60  851.9534
  61  865.7538
  62  855.3246
  63  795.6221
  64  735.361
  65  919.5349
  66  994.434
  67  970.0772
  68  1034.179
  69  897.7207
  70  828.5866
  71  952.1932
  72  958.9767
  73  995.951
  74  1009.64
  75  1033.402
  76  1007.422
  77  981.4042
  78  987.9931
  79  985.5551
  80  1010.107
  81  864.7169
  82  794.094
  83  953.9689
  84  925.889
  85  977.3182
  86  937.7408
  87  1038.45
  88  934.373
  89  955.3364
  90  1073.121
  91  1060.661
  92  1053.744
  93  1046.507
  94  1045.391
  95  988.2065
  96  957.9746
  97  919.2696
  98  866.5493
  99  1009.302
 100  1071.699
 101  1035.483
 102  1025.718
 103  983.7178
 104  1014.09
 105  1007.089
 106  936.2083
 107  1011.759
 108  1002.973
 109  997.1542
 110  1044.472
 111  1017.492
 112  996.4985
 113  945.4921
 114  912.91
 115  907.7468
 116  884.6019
 117  951.8774
 118  971.3452
 119  1023.057
 120  1007.77
 121  973.8978
 122  979.1433
 123  951.9673
 124  928.6008
 125  876.1007
 126  900.4919
 127  954.0977
 128  873.7043
 129  856.0407
 130  855.0033
 131  805.1605
 132  765.2392
 133  839.0408
 134  927.3066
 135  836.2116
 136  851.1076
 137  847.6334
 138  819.1816
 139  835.0328
 140  819.9322
 141  934.0601
 142  987.5479
 143  949.194
 144  828.0364
 145  871.3461
 146  842.7552
 147  815.7916
 148  820.5334
 149  893.2248
 150  911.7381
 151  876.9825
 152  874.302
 153  899.0367
 154  802.9274
 155  863.5381
 156  931.3256
 157  824.6071
 158  930.7413
 159  905.8501
 160  907.1332
 161  941.2679
 162  953.5714
 163  1003.708
 164  1020.952
 165  1036.458
 166  886.7013
 167  938.8385
 168  1117.571
 169  1022.351
 170  923.553
 171  1046.488
 172  1058.01
 173  990.0184
 174  992.2632
 175  930.1458
 176  1098.498
 177  1141.366
 178  1091.345
 179  971.536
 180  928.2619
 181  1075.241
 182  991.592
 183  908.4957
 184  920.231
 185  1056.857
 186  1141.15
 187  1123.471
 188  948.6551
 189  973.5405
 190  913.0457
 191  966.9729
 192  1032.737
 193  1119.443
 194  1063.157
 195  1010.769
 196  915.2244
 197  955.3531
 198  924.4517
 199  931.2302
 200  1009.187
 201  878.7332
 202  876.9977
 203  938.9631
 204  882.3812
 205  943.7878
 206  997.7651
 207  886.3766
 208  939.6896
 209  949.502
 210  882.437
 211  892.3686
 212  976.161
 213  981.9001
 214  828.5704
 215  765.7429
 216  900.5688
 217  983.8743
 218  965.1186
 219  871.1197
 220  880.6577
 221  866.8963
 222  937.0002
 223  913.817
 224  912.9478
 225  840.623
 226  892.3175
 227  984.8179
 228  924.6609
 229  944.9536
 230  947.0147
 231  1049.551
 232  921.9241
 233  945.4244
 234  1107.78
 235  964.4026
 236  897.4964
 237  855.802
 238  931.8547
 239  999.0536
 240  976.853
 241  888.1555
 242  880.7523
 243  954.7426
 244  938.8104
 245  967.0015
 246  924.9521
 247  891.3497
 248  887.8355
 249  1074.074
 250  944.2105
 251  855.3909
 252  801.5655
 253  880.3824
 254  925.707
 255  924.1329
 256  832.8104
 257  861.101
 258  963.3827
 259  908.788
 260  945.6191
 261  917.287
 262  873.7881
 263  941.5742
 264  949.1656
 265  1040.59
 266  995.3622
 267  913.7869
 268  790.942
 269  760.9519
 270  994.8276
 271  1057.339
 272  987.5539
 273  922.4467
 274  937.7819
 275  958.166
 276  863.6634
 277  856.7304
 278  817.6068
 279  850.8789
 280  933.0928
 281  878.4038
 282  836.5947
 283  877.3132
 284  819.7624
 285  865.595
 286  791.0548
 287  741.1948
 288  723.767
 289  813.7873
 290  822.7708
 291  723.4572
 292  795.2883
 293  874.074
 294  844.1439
 295  822.7959
 296  837.3104
 297  859.4648
 298  926.1547
 299  991.0424
 300  914.6957
 301  897.2212
 302  902.4581
 303  880.5092
 304  981.8121
 305  980.8249
 306  868.5367
 307  756.2037
 308  880.673
 309  915.3917
 310  816.0938
 311  852.2365
 312  961.0186
 313  994.6838
 314  966.4189
 315  1074.027
 316  1048.083
 317  978.3098
 318  1025.013
 319  929.6798
 320  924.383
 321  853.616
 322  909.7979
 323  1011.355
 324  1058.576
 325  1112.89
 326  1098.891
 327  1046.735
 328  1030.89
 329  993.9893
 330  1036.68
 331  1110.507
 332  983.3923
 333  984.8425
 334  982.6221
 335  973.3585
 336  968.8619
 337  918.1531
 338  908.4528
 339  888.4594
 340  910.7094
 341  1014.582
 342  992.9713
 343  1022.529
 344  1001.994
 345  1024.649
 346  1023.594
 347  1085.941
 348  1065.915
 349  1035.588
 350  1071.271
 351  1078.255
 352  1094.326
 353  1031.8
 354  1016.499
 355  1018.36
 356  988.0601
 357  1058.926
 358  1100.32
 359  1120.05
 360  1155.407
 361  1042.354
 362  1097.688
 363  1137.295
 364  1096.838
 365  1072.329
 366  1062.667
 367  938.8828
 368  947.3238
 369  1066.921
 370  1030.888
 371  1057.846
 372  961.843
 373  1033.864
 374  1008.139
 375  985.4061
 376  1076.03
 377  945.0623
 378  988.9074
 379  1022.011
 380  1124.338
 381  959.8496
 382  997.8082
 383  1029.678
 384  1133.611
 385  1160.02
 386  1115.912
 387  1106.601
 388  1157.474
 389  1190.315
 390  1198.506
 391  1095.044
 392  1058.354
 393  1042.708
 394  1043.906
 395  1033.887
 396  1018.626
 397  1060.41
 398  1104.317
 399  1071.608
 400  1043.815
 401  1040.306
 402  1015.029
 403  896.1223
 404  948.7039
 405  1002.226
 406  946.7463
 407  1017.099
 408  1060.051
 409  1066.999
 410  843.972
 411  766.5882
 412  775.8041
 413  809.5393
 414  936.5927
 415  1021.262
 416  837.3782
 417  833.9158
 418  989.6536
 419  1034.553
 420  943.1321
 421  827.6247
 422  831.2785
 423  889.7403
 424  879.1794
 425  873.3806
 426  993.3809
 427  1013.002
 428  1037.453
 429  966.9821
 430  979.8412
 431  883.1116
 432  840.7571
 433  930.2497
 434  945.2584
 435  930.4815
 436  958.1364
 437  925.9391
 438  857.5044
 439  881.5225
 440  927.1651
 441  987.7261
 442  1014.673
 443  961.4241
 444  942.382
 445  1043.925
 446  1074.034
 447  1028.133
 448  958.2651
 449  949.0847
 450  939.2057
 451  987.7521
 452  985.9257
 453  947.1716
 454  909.1824
 455  983.2305
 456  1050.886
 457  1076.155
 458  999.9418
 459  869.0058
 460  978.0852
 461  1002.604
 462  992.1575
 463  978.0204
 464  1081.887
 465  1013.556
 466  876.5864
 467  967.5358
 468  910.6217
 469  938.3669
 470  909.4604
 471  859.2569
 472  896.15
 473  962.4005
 474  909.5319
 475  902.0264
 476  1011.504
 477  986.8967
 478  873.2791
 479  916.5076
 480  937.0606
 481  961.4537
 482  1022.529
 483  1023.066
 484  1026.094
 485  1004.139
 486  977.0291
 487  968.4811
 488  940.4507
 489  983.0186
 490  1034.327
 491  1005.749
 492  1021.552
 493  943.9534
 494  1000.081
 495  1007.385
 496  967.3832
 497  937.0899
 498  943.7865
 499  923.3547
 500  959.354
 501  894.7356
 502  840.7929
 503  952.1251
 504  1017.092
 505  1086.239
 506  1056.072
 507  1111.317
 508  1136.174
 509  1145.912
 510  1316.197
 511  1296.609
