# Input file       =  1204204392.112733_cleaned.dat
# Candidate        =  PSR_0332+5434
# Telescope        =  AR
# Epoch_topo       =  58181.550626304779
# Epoch_bary       =  N/A
# T_sample         =  0.002
# Data Folded      =  7340032
# Data Avg         =  0.0488648888309073
# Data StdDev      =  1.0002543633993  
# Profile Bins     =  512
# Profile Avg      =  700.541243347969 
# Profile StdDev   =  119.763492078908 
# Reduced chi-sqr  =  1.367
# Prob(Noise)      <  6.04e-08   (~5.3 sigma)
# P_topo (ms)      =  714.580084373944  +/- 0.000288
# P'_topo (s/s)    =  -0                +/- 1.52e-10
# P''_topo (s/s^2) =  0                 +/- 6.71e-14
# P_bary (ms)      =  N/A
# P'_bary (s/s)    =  N/A
# P''_bary (s/s^2) =  N/A
# P_orb (s)        =  N/A
# asin(i)/c (s)    =  N/A
# eccentricity     =  N/A
# w (rad)          =  N/A
# T_peri           =  N/A
######################################################
   0  982.4202
   1  826.3242
   2  691.6
   3  527.2168
   4  510.4973
   5  539.6548
   6  580.2728
   7  556.1973
   8  615.4268
   9  558.2774
  10  530.2906
  11  618.0267
  12  624.9259
  13  639.3469
  14  649.6633
  15  668.3026
  16  697.066
  17  699.0563
  18  651.9516
  19  687.9031
  20  739.4995
  21  653.0983
  22  618.7872
  23  636.1009
  24  651.9181
  25  683.1863
  26  686.6039
  27  648.4822
  28  662.9753
  29  732.329
  30  738.3862
  31  716.7704
  32  672.4848
  33  650.7884
  34  707.9739
  35  683.1858
  36  674.9697
  37  676.8704
  38  718.3087
  39  688.0283
  40  691.0637
  41  744.4069
  42  789.6112
  43  769.8804
  44  794.6907
  45  810.2783
  46  836.1271
  47  810.3658
  48  721.5657
  49  708.8557
  50  736.0325
  51  767.9151
  52  738.2434
  53  799.8627
  54  800.0989
  55  751.4603
  56  758.7229
  57  732.6926
  58  712.2652
  59  649.1107
  60  598.2137
  61  584.2659
  62  657.3419
  63  701.481
  64  618.6722
  65  581.2361
  66  614.5567
  67  594.5799
  68  541.2571
  69  487.9962
  70  561.0471
  71  526.4313
  72  545.6968
  73  591.9064
  74  590.9223
  75  583.7516
  76  517.8461
  77  507.6717
  78  473.3195
  79  500.2643
  80  533.3309
  81  432.9346
  82  423.6534
  83  433.5426
  84  464.9682
  85  528.0721
  86  535.8531
  87  574.1162
  88  550.5339
  89  502.9206
  90  545.2242
  91  541.9278
  92  538.8393
  93  598.6052
  94  553.321
  95  521.9037
  96  494.4662
  97  582.4014
  98  689.2902
  99  635.9553
 100  712.0894
 101  705.8519
 102  661.1808
 103  628.3625
 104  696.7553
 105  672.0998
 106  706.3143
 107  750.1796
 108  798.3736
 109  804.3893
 110  797.705
 111  803.2535
 112  805.8448
 113  764.7658
 114  773.7689
 115  791.0347
 116  713.3283
 117  790.0552
 118  760.313
 119  772.7436
 120  785.2097
 121  824.1431
 122  880.1771
 123  825.224
 124  880.8366
 125  798.437
 126  775.1736
 127  822.66
 128  800.4581
 129  820.1805
 130  772.653
 131  796.8452
 132  815.8885
 133  740.2878
 134  753.5342
 135  606.528
 136  607.5042
 137  707.7604
 138  763.3578
 139  670.4716
 140  675.0585
 141  679.5592
 142  634.5457
 143  674.3339
 144  658.3182
 145  667.9706
 146  656.2072
 147  606.3051
 148  617.8885
 149  621.8962
 150  577.9341
 151  609.8912
 152  620.8531
 153  605.3512
 154  578.5955
 155  670.6949
 156  738.4283
 157  688.4602
 158  641.8246
 159  630.0674
 160  603.1149
 161  634.8588
 162  620.4877
 163  640.6945
 164  652.8036
 165  676.3946
 166  734.7
 167  793.7358
 168  767.838
 169  685.0507
 170  657.1952
 171  744.3751
 172  816.7968
 173  776.8515
 174  841.6282
 175  836.4365
 176  819.6415
 177  773.4519
 178  877.3497
 179  881.2178
 180  800.4202
 181  888.7859
 182  871.144
 183  836.1426
 184  889.2003
 185  906.4456
 186  957.4639
 187  832.6533
 188  791.6501
 189  905.8427
 190  929.2116
 191  935.17
 192  878.6911
 193  849.1285
 194  941.1331
 195  908.2707
 196  887.4233
 197  850.6243
 198  827.2374
 199  770.887
 200  824.1343
 201  847.8854
 202  839.5023
 203  812.7471
 204  856.4717
 205  802.5721
 206  824.1067
 207  862.8137
 208  811.642
 209  809.3784
 210  846.7523
 211  750.8544
 212  808.1549
 213  783.4769
 214  726.7362
 215  815.5793
 216  845.8604
 217  789.332
 218  783.2124
 219  849.5709
 220  903.4783
 221  846.2949
 222  763.1149
 223  721.7724
 224  692.069
 225  750.2137
 226  747.7626
 227  810.6368
 228  845.3506
 229  801.6564
 230  705.8795
 231  674.6616
 232  646.5018
 233  695.0279
 234  769.2853
 235  700.2532
 236  663.2849
 237  647.6663
 238  743.3513
 239  737.337
 240  737.353
 241  705.2621
 242  753.9375
 243  727.0881
 244  765.8118
 245  748.5989
 246  750.552
 247  799.4857
 248  842.2939
 249  889.2614
 250  813.7831
 251  828.2661
 252  797.6155
 253  802.2731
 254  816.6435
 255  854.5428
 256  864.7396
 257  858.1951
 258  881.4886
 259  858.5037
 260  815.4126
 261  807.451
 262  798.3513
 263  791.1818
 264  780.7637
 265  775.4143
 266  773.2931
 267  710.8019
 268  732.4953
 269  759.4324
 270  779.489
 271  702.0832
 272  772.8843
 273  813.5441
 274  838.1765
 275  855.2701
 276  739.2939
 277  744.255
 278  721.301
 279  746.2983
 280  818.6278
 281  769.6092
 282  780.0309
 283  797.3629
 284  822.7319
 285  799.5646
 286  689.6979
 287  772.3989
 288  766.1085
 289  740.905
 290  736.635
 291  749.0004
 292  754.6348
 293  782.0336
 294  775.522
 295  736.8348
 296  700.2419
 297  593.2038
 298  533.4077
 299  624.2066
 300  677.4675
 301  626.7058
 302  659.2754
 303  629.8907
 304  674.3843
 305  680.0535
 306  740.353
 307  730.0554
 308  710.3717
 309  702.0254
 310  719.8045
 311  733.0515
 312  772.485
 313  687.4313
 314  686.479
 315  744.4711
 316  729.2665
 317  736.4996
 318  689.6491
 319  680.81
 320  730.4836
 321  754.8016
 322  720.3445
 323  707.8915
 324  746.2532
 325  675.6298
 326  687.9801
 327  672.285
 328  665.2699
 329  668.7913
 330  712.8122
 331  806.0104
 332  780.1051
 333  710.2328
 334  715.646
 335  675.7274
 336  717.8889
 337  793.1629
 338  776.745
 339  719.2206
 340  733.1249
 341  627.6702
 342  624.3708
 343  642.2842
 344  658.2943
 345  708.4471
 346  674.26
 347  682.7369
 348  650.2725
 349  628.5039
 350  633.9711
 351  732.7501
 352  746.4641
 353  707.7798
 354  664.0725
 355  623.9701
 356  562.1506
 357  629.0056
 358  653.8336
 359  624.9821
 360  579.6671
 361  575.1033
 362  644.8458
 363  670.6805
 364  710.4076
 365  649.1851
 366  622.7479
 367  628.3586
 368  650.7388
 369  671.6431
 370  695.0231
 371  698.4553
 372  685.7921
 373  629.9655
 374  561.517
 375  566.0661
 376  555.7923
 377  575.0228
 378  590.8053
 379  553.9467
 380  543.2443
 381  590.8299
 382  657.4207
 383  656.5142
 384  597.5234
 385  608.4796
 386  688.5988
 387  607.7493
 388  566.2115
 389  638.4532
 390  671.6393
 391  695.0366
 392  809.7852
 393  754.9917
 394  679.7635
 395  658.7476
 396  669.0578
 397  669.6123
 398  668.3113
 399  746.2867
 400  732.5204
 401  780.8276
 402  772.4871
 403  725.0519
 404  740.8573
 405  732.9062
 406  691.6249
 407  728.8044
 408  763.9151
 409  620.4195
 410  699.7424
 411  761.9758
 412  799.5109
 413  770.6825
 414  747.2559
 415  731.1203
 416  686.2417
 417  689.8849
 418  746.1743
 419  630.2762
 420  667.0759
 421  609.7448
 422  551.1711
 423  665.2832
 424  688.3105
 425  622.1762
 426  603.5995
 427  638.7114
 428  699.3309
 429  687.9178
 430  636.9134
 431  654.7678
 432  602.3628
 433  590.2602
 434  595.2144
 435  618.7762
 436  618.2609
 437  598.6478
 438  556.8066
 439  560.3094
 440  503.4042
 441  481.0557
 442  489.2
 443  598.0175
 444  549.3296
 445  511.269
 446  515.2946
 447  506.8688
 448  428.7623
 449  497.6407
 450  526.3779
 451  463.3529
 452  486.7734
 453  505.4402
 454  482.5483
 455  562.8891
 456  543.8555
 457  476.1448
 458  493.3142
 459  555.6696
 460  639.3572
 461  724.549
 462  750.8488
 463  718.0316
 464  708.9249
 465  713.5977
 466  717.8176
 467  661.3694
 468  735.9238
 469  758.1494
 470  751.2268
 471  764.78
 472  744.8619
 473  665.2126
 474  727.3471
 475  735.5083
 476  779.7864
 477  748.3198
 478  723.7445
 479  761.9481
 480  781.3509
 481  733.7221
 482  731.3183
 483  701.0456
 484  700.7521
 485  740.1236
 486  790.8755
 487  779.447
 488  737.6642
 489  706.1343
 490  672.0257
 491  725.9164
 492  823.7525
 493  773.3079
 494  749.4531
 495  726.4086
 496  721.0358
 497  664.5345
 498  598.2433
 499  606.4427
 500  615.0214
 501  677.711
 502  740.2189
 503  654.021
 504  567.1138
 505  590.5284
 506  693.1834
 507  679.1407
 508  686.318
 509  820.3661
 510  867.1664
 511  912.7266
