# Input file       =  1204290524.108213_cleaned.dat
# Candidate        =  PSR_0332+5434
# Telescope        =  AR
# Epoch_topo       =  58182.547524400616
# Epoch_bary       =  N/A
# T_sample         =  0.002
# Data Folded      =  7340032
# Data Avg         =  0.050480268265073
# Data StdDev      =  1.00012477765193 
# Profile Bins     =  512
# Profile Avg      =  723.824416129263 
# Profile StdDev   =  119.747976383904 
# Reduced chi-sqr  =  1.070
# Prob(Noise)      <  0.132   (~1.1 sigma)
# P_topo (ms)      =  714.579928289618  +/- 0.000455
# P'_topo (s/s)    =  -0                +/- 2.4e-10
# P''_topo (s/s^2) =  0                 +/- 1.06e-13
# P_bary (ms)      =  N/A
# P'_bary (s/s)    =  N/A
# P''_bary (s/s^2) =  N/A
# P_orb (s)        =  N/A
# asin(i)/c (s)    =  N/A
# eccentricity     =  N/A
# w (rad)          =  N/A
# T_peri           =  N/A
######################################################
   0  1185.416
   1  1184.976
   2  977.8478
   3  818.9688
   4  791.6647
   5  705.3598
   6  725.7672
   7  705.7798
   8  720.8776
   9  660.7441
  10  728.2194
  11  738.8703
  12  643.4608
  13  647.1025
  14  651.3994
  15  678.9004
  16  692.2395
  17  652.5378
  18  626.7488
  19  558.7076
  20  590.4977
  21  600.3098
  22  655.3628
  23  667.9529
  24  670.3898
  25  714.334
  26  699.4357
  27  682.7004
  28  645.2548
  29  681.9167
  30  682.2345
  31  729.7807
  32  751.98
  33  731.7719
  34  724.7963
  35  697.2191
  36  658.6071
  37  641.813
  38  610.217
  39  623.6843
  40  687.0508
  41  700.6406
  42  739.1223
  43  701.8615
  44  830.5144
  45  745.8964
  46  703.8046
  47  678.5783
  48  688.4401
  49  586.373
  50  566.8776
  51  598.0837
  52  634.1338
  53  663.1071
  54  560.5665
  55  613.1517
  56  607.4318
  57  582.3955
  58  603.6989
  59  625.5105
  60  669.5013
  61  687.7719
  62  671.8715
  63  673.1689
  64  746.4387
  65  732.9037
  66  709.0172
  67  700.9843
  68  629.1499
  69  727.8307
  70  785.0319
  71  781.9531
  72  732.546
  73  775.9451
  74  797.6288
  75  763.7114
  76  783.3929
  77  763.1415
  78  725.2729
  79  773.3943
  80  699.9166
  81  611.2836
  82  576.5712
  83  611.2129
  84  699.3234
  85  687.7567
  86  647.6134
  87  665.064
  88  627.1765
  89  713.1871
  90  630.1065
  91  696.6478
  92  647.1759
  93  672.5017
  94  687.2142
  95  637.5058
  96  689.346
  97  649.6879
  98  748.4209
  99  734.1082
 100  708.9767
 101  707.7356
 102  680.0781
 103  687.9428
 104  627.3498
 105  696.8883
 106  762.7261
 107  798.7569
 108  782.9205
 109  799.6949
 110  773.4044
 111  748.1464
 112  646.9012
 113  594.3652
 114  699.8842
 115  589.5579
 116  632.892
 117  578.4514
 118  649.1147
 119  637.3879
 120  582.922
 121  628.1296
 122  596.8151
 123  637.1429
 124  612.7608
 125  612.131
 126  677.6241
 127  653.8931
 128  486.355
 129  517.049
 130  580.7386
 131  643.4606
 132  658.8214
 133  694.2998
 134  629.1569
 135  650.506
 136  548.68
 137  606.5404
 138  584.6003
 139  641.5605
 140  686.6506
 141  763.0226
 142  822.1119
 143  746.4033
 144  670.1614
 145  627.7219
 146  647.8259
 147  737.926
 148  681.7588
 149  670.0868
 150  652.7665
 151  686.0781
 152  676.5529
 153  676.5367
 154  638.0459
 155  678.5607
 156  637.2643
 157  748.5302
 158  679.3482
 159  668.8263
 160  580.8328
 161  611.9336
 162  681.8956
 163  726.3444
 164  823.4287
 165  632.1884
 166  569.8647
 167  648.02
 168  618.4729
 169  648.2603
 170  733.2907
 171  756.536
 172  685.6429
 173  696.9005
 174  741.0831
 175  635.3483
 176  686.3273
 177  757.7789
 178  734.0405
 179  661.8264
 180  711.8348
 181  721.8652
 182  733.9789
 183  781.2703
 184  731.4328
 185  759.7705
 186  788.973
 187  742.7869
 188  721.5486
 189  794.2012
 190  816.4607
 191  746.7342
 192  595.2717
 193  666.5464
 194  699.6568
 195  675.0704
 196  699.2383
 197  591.1947
 198  577.3358
 199  648.8849
 200  587.3145
 201  647.6163
 202  708.528
 203  712.8182
 204  619.3578
 205  558.67
 206  564.0172
 207  654.7019
 208  551.0894
 209  644.0938
 210  710.3012
 211  652.6016
 212  701.9286
 213  693.0722
 214  688.1701
 215  724.2993
 216  729.788
 217  707.1818
 218  759.1309
 219  610.3768
 220  612.7416
 221  584.1617
 222  676.2793
 223  686.4802
 224  615.4967
 225  636.0672
 226  600.5951
 227  623.1154
 228  609.8224
 229  594.1065
 230  581.2281
 231  548.0256
 232  614.0914
 233  592.3939
 234  616.5936
 235  683.0948
 236  644.3714
 237  609.9092
 238  656.05
 239  691.6041
 240  658.8041
 241  659.2995
 242  739.3115
 243  820.6847
 244  809.6918
 245  816.7709
 246  768.6835
 247  786.5718
 248  761.6536
 249  801.1402
 250  879.8218
 251  915.9409
 252  786.5518
 253  687.9423
 254  774.9567
 255  757.0927
 256  715.9634
 257  778.0535
 258  807.9792
 259  802.9874
 260  771.6058
 261  661.8481
 262  724.8695
 263  837.2438
 264  854.3289
 265  872.1694
 266  821.7938
 267  854.7766
 268  826.9504
 269  740.4286
 270  850.4034
 271  872.9747
 272  798.5395
 273  700.8544
 274  620.0018
 275  653.8338
 276  689.2467
 277  689.6259
 278  721.0518
 279  696.9072
 280  782.9279
 281  735.2332
 282  752.8292
 283  802.7768
 284  898.4491
 285  884.0137
 286  748.049
 287  658.6201
 288  683.1957
 289  727.7359
 290  739.7035
 291  654.934
 292  730.9413
 293  818.4058
 294  717.439
 295  660.796
 296  664.5503
 297  675.2847
 298  721.6862
 299  755.7896
 300  738.4384
 301  722.5416
 302  842.6532
 303  777.7505
 304  721.1248
 305  722.9811
 306  676.1074
 307  672.681
 308  624.0456
 309  677.1914
 310  761.1119
 311  645.7512
 312  624.9457
 313  643.186
 314  690.2571
 315  643.171
 316  646.5203
 317  653.7507
 318  726.0161
 319  700.5706
 320  684.3112
 321  706.1255
 322  756.5718
 323  643.6151
 324  675.7187
 325  767.1836
 326  833.99
 327  841.5767
 328  845.842
 329  733.355
 330  715.9576
 331  779.5376
 332  777.569
 333  709.7851
 334  745.2812
 335  739.3358
 336  675.4359
 337  754.6021
 338  750.6337
 339  783.7351
 340  802.0261
 341  683.4394
 342  725.8214
 343  845.9088
 344  870.572
 345  888.7714
 346  816.3023
 347  862.4707
 348  962.4826
 349  924.8011
 350  904.7963
 351  915.677
 352  978.3516
 353  940.7056
 354  802.4062
 355  769.8441
 356  865.9521
 357  860.7612
 358  834.0713
 359  756.8755
 360  771.6266
 361  867.0597
 362  857.2621
 363  774.6004
 364  775.639
 365  715.0479
 366  762.6069
 367  880.2206
 368  916.6741
 369  794.1922
 370  756.5596
 371  775.5583
 372  782.6288
 373  774.0114
 374  844.8588
 375  892.9359
 376  873.5965
 377  908.1453
 378  876.1473
 379  805.7343
 380  793.8515
 381  727.2817
 382  665.5899
 383  687.9352
 384  593.388
 385  704.6999
 386  820.5416
 387  764.1521
 388  795.3267
 389  719.5952
 390  773.2594
 391  727.5637
 392  687.3632
 393  734.8147
 394  813.2906
 395  824.9129
 396  761.733
 397  729.8469
 398  741.915
 399  794.7183
 400  763.2675
 401  765.5308
 402  722.3264
 403  737.1808
 404  680.398
 405  678.4181
 406  718.0669
 407  739.1821
 408  723.6683
 409  788.5312
 410  837.104
 411  836.1226
 412  682.409
 413  720.9581
 414  763.557
 415  740.7548
 416  819.7941
 417  789.6797
 418  705.5192
 419  583.0922
 420  708.4802
 421  761.5573
 422  696.6086
 423  647.4361
 424  739.7276
 425  742.8817
 426  661.4898
 427  642.5994
 428  610.4551
 429  781.7029
 430  902.3647
 431  891.2032
 432  801.3832
 433  743.4628
 434  711.2147
 435  799.9067
 436  798.9604
 437  745.6294
 438  845.76
 439  753.9446
 440  744.9703
 441  621.651
 442  637.5969
 443  721.6725
 444  682.8798
 445  724.412
 446  714.8286
 447  734.9642
 448  781.665
 449  808.8146
 450  725.9195
 451  656.6666
 452  678.9437
 453  669.6246
 454  730.0422
 455  802.0161
 456  851.4769
 457  870.6606
 458  864.3343
 459  812.7201
 460  868.4499
 461  834.142
 462  843.3286
 463  886.1308
 464  810.9186
 465  758.3992
 466  788.8586
 467  901.4104
 468  857.7857
 469  763.9899
 470  767.3205
 471  843.8401
 472  823.6459
 473  803.2921
 474  810.725
 475  739.8331
 476  725.2382
 477  714.6928
 478  689.4108
 479  725.1118
 480  688.4417
 481  735.0125
 482  757.6978
 483  667.9705
 484  748.8158
 485  842.4118
 486  826.6544
 487  739.5524
 488  706.4158
 489  763.7294
 490  646.2891
 491  723.446
 492  777.1907
 493  661.2834
 494  623.8295
 495  746.3841
 496  774.3997
 497  777.4787
 498  806.7145
 499  671.4065
 500  682.1014
 501  750.2974
 502  733.6824
 503  725.1278
 504  659.8002
 505  735.202
 506  778.8238
 507  775.2081
 508  849.2979
 509  904.5453
 510  993.4868
 511  1024.635
