# Input file       =  1204878933.116375_cleaned.dat
# Candidate        =  PSR_0332+5434
# Telescope        =  AR
# Epoch_topo       =  58189.357813846931
# Epoch_bary       =  N/A
# T_sample         =  0.002
# Data Folded      =  7208960
# Data Avg         =  0.0870605020184387
# Data StdDev      =  1.00006141087245 
# Profile Bins     =  512
# Profile Avg      =  1225.71006793296 
# Profile StdDev   =  118.666462757041 
# Reduced chi-sqr  =  1.338
# Prob(Noise)      <  4.56e-07   (~4.9 sigma)
# P_topo (ms)      =  714.578396862004  +/- 0.000172
# P'_topo (s/s)    =  -0                +/- 9.22e-11
# P''_topo (s/s^2) =  0                 +/- 4.15e-14
# P_bary (ms)      =  N/A
# P'_bary (s/s)    =  N/A
# P''_bary (s/s^2) =  N/A
# P_orb (s)        =  N/A
# asin(i)/c (s)    =  N/A
# eccentricity     =  N/A
# w (rad)          =  N/A
# T_peri           =  N/A
######################################################
   0  1643.859
   1  1643.853
   2  1498.908
   3  1366.714
   4  1238.171
   5  1250.372
   6  1282.014
   7  1368.976
   8  1251.741
   9  1222.114
  10  1245.174
  11  1309.345
  12  1224.799
  13  1242.413
  14  1200.4
  15  1217.963
  16  1231.53
  17  1293.989
  18  1150.629
  19  1127.954
  20  1179.397
  21  1129.704
  22  1142.417
  23  1262.831
  24  1239.169
  25  1222.547
  26  1298.376
  27  1256.116
  28  1173.182
  29  1199.212
  30  1262.411
  31  1346.701
  32  1354.905
  33  1261.075
  34  1303.559
  35  1208.679
  36  1196.546
  37  1137.196
  38  1249.26
  39  1265.938
  40  1141.815
  41  1301.222
  42  1394.227
  43  1345.24
  44  1246.399
  45  1305.978
  46  1214.453
  47  1290.049
  48  1323.744
  49  1309.001
  50  1324.534
  51  1282.691
  52  1228.487
  53  1241.327
  54  1262.777
  55  1221.591
  56  1235.234
  57  1273.641
  58  1321.221
  59  1369.55
  60  1384.18
  61  1352.64
  62  1329.196
  63  1337.169
  64  1333.821
  65  1239.55
  66  1320.988
  67  1344.774
  68  1250.643
  69  1204.922
  70  1265.528
  71  1206.388
  72  1176.523
  73  1250.983
  74  1373.664
  75  1483.993
  76  1441.912
  77  1354.593
  78  1261.34
  79  1202.373
  80  1307.819
  81  1249.264
  82  1177.551
  83  1238.563
  84  1282.61
  85  1256.253
  86  1245.528
  87  1110.411
  88  1232.111
  89  1276.263
  90  1326.085
  91  1394.612
  92  1304.859
  93  1325.004
  94  1313.492
  95  1277.029
  96  1321.331
  97  1201.329
  98  1170.331
  99  1333.745
 100  1209.31
 101  1224.536
 102  1284.577
 103  1195.858
 104  1071.181
 105  1132.167
 106  1206.815
 107  1176.914
 108  1201.74
 109  1271.319
 110  1281.695
 111  1063.45
 112  1003.443
 113  1113.746
 114  1134.897
 115  1205.474
 116  1096.28
 117  1115.024
 118  1130.716
 119  1146.766
 120  1056.997
 121  1036.751
 122  1142.974
 123  1209.122
 124  1142.658
 125  1181.03
 126  1121.51
 127  1128.006
 128  1051.553
 129  1153.248
 130  1270.41
 131  1151.249
 132  1156.481
 133  1240.491
 134  1193.552
 135  1091.758
 136  1121.054
 137  1138.336
 138  1154.724
 139  1179.797
 140  1193.681
 141  1190.82
 142  1138.996
 143  1194.485
 144  1136.829
 145  1091.328
 146  1126.129
 147  1006.573
 148  975.8942
 149  1036.748
 150  1150.555
 151  1171.475
 152  1105.348
 153  1078.642
 154  1079.665
 155  1110.96
 156  1090.047
 157  1093.381
 158  1123.434
 159  1157.575
 160  1251.84
 161  1144.287
 162  1139.417
 163  1188.604
 164  1126.064
 165  1081.935
 166  1124.915
 167  1137.928
 168  1066.722
 169  987.2444
 170  1077.298
 171  1094.628
 172  1242.52
 173  1190.344
 174  1247.95
 175  1178.784
 176  1229.489
 177  1105.577
 178  1059.544
 179  1119.63
 180  1071.913
 181  979.6922
 182  1007.806
 183  1122.527
 184  1138.66
 185  1112.737
 186  1058.962
 187  1097.804
 188  1073.625
 189  1148.771
 190  1210.987
 191  1173.234
 192  1130.378
 193  1065.044
 194  1057.451
 195  1110.772
 196  1165.196
 197  1228.138
 198  1264.257
 199  1164.562
 200  1163.284
 201  1242.348
 202  1199.915
 203  1290.345
 204  1246.375
 205  1157.836
 206  1265.966
 207  1356.59
 208  1371.083
 209  1275.591
 210  1268.464
 211  1413.6
 212  1334.745
 213  1256.46
 214  1240.117
 215  1236.878
 216  1250.316
 217  1336.802
 218  1278.138
 219  1161.489
 220  1134.959
 221  1300.805
 222  1329.418
 223  1376.883
 224  1330.397
 225  1258.019
 226  1230.48
 227  1213.807
 228  1220.097
 229  1267.586
 230  1203.992
 231  1247.209
 232  1291.139
 233  1258.958
 234  1316.076
 235  1311.147
 236  1371.762
 237  1376.562
 238  1373.437
 239  1271.328
 240  1302.677
 241  1318.051
 242  1361.748
 243  1379.39
 244  1371.117
 245  1252.568
 246  1281.515
 247  1419.321
 248  1335.216
 249  1296.192
 250  1221.151
 251  1163.058
 252  1136.973
 253  1194.218
 254  1187.146
 255  1211.673
 256  1270.072
 257  1244.988
 258  1296.125
 259  1260.086
 260  1223.308
 261  1210.13
 262  1186.183
 263  1230.426
 264  1193.75
 265  1090.696
 266  992.1115
 267  1021.9
 268  1073.323
 269  1105.413
 270  1118.436
 271  1162.82
 272  1314.232
 273  1412.509
 274  1250.154
 275  1272.083
 276  1165.755
 277  1152.44
 278  1125.442
 279  1028.925
 280  1112.325
 281  1146.229
 282  1210.19
 283  1254.922
 284  1187.467
 285  1197.98
 286  1205.166
 287  1095.04
 288  1129.563
 289  1165.039
 290  1208.024
 291  1306.571
 292  1285.198
 293  1154.533
 294  1172.321
 295  1133.054
 296  1128.623
 297  1198.869
 298  1228.966
 299  1195.063
 300  1120.318
 301  1159.033
 302  1125.783
 303  1108.371
 304  1158.403
 305  1168.539
 306  1146.028
 307  1147.065
 308  1123.221
 309  1139.255
 310  1146.758
 311  1114.616
 312  1140.437
 313  1147.122
 314  1126.519
 315  1032.77
 316  1101.447
 317  1205.69
 318  1190.248
 319  1216.396
 320  1102.094
 321  1073.815
 322  1220.449
 323  1363.721
 324  1319.363
 325  1308.199
 326  1228.203
 327  1217.54
 328  1107.734
 329  1145.094
 330  1114.208
 331  1121.824
 332  1194.957
 333  1150.225
 334  1228.207
 335  1245.51
 336  1190.139
 337  1204.403
 338  1269.951
 339  1349.302
 340  1355.779
 341  1178.973
 342  1270.319
 343  1284.557
 344  1232.444
 345  1165.172
 346  1230.01
 347  1234.779
 348  1317.869
 349  1322.993
 350  1203.25
 351  1038.077
 352  1163.031
 353  1239.305
 354  1239.615
 355  1349.312
 356  1356.075
 357  1352.907
 358  1269.36
 359  1246.797
 360  1349.237
 361  1338.783
 362  1254.484
 363  1338.216
 364  1339.948
 365  1268.148
 366  1309.096
 367  1333.843
 368  1361.487
 369  1307.016
 370  1294.594
 371  1288.545
 372  1150.751
 373  1283.729
 374  1334.466
 375  1289.95
 376  1259.771
 377  1157.162
 378  1198.432
 379  1258.769
 380  1208.316
 381  1230.183
 382  1230.324
 383  1303.058
 384  1374.402
 385  1332.026
 386  1308.581
 387  1318.469
 388  1419.479
 389  1428.47
 390  1285.852
 391  1167.491
 392  1172.065
 393  1342.218
 394  1418.715
 395  1310.703
 396  1290.029
 397  1264.236
 398  1160.821
 399  1246.92
 400  1214.331
 401  1260.079
 402  1201.669
 403  1323.021
 404  1272.756
 405  1331.285
 406  1307.315
 407  1186.107
 408  1184.156
 409  1238.733
 410  1282.996
 411  1200.477
 412  1148.074
 413  1152.38
 414  1181.276
 415  1096.338
 416  1081.078
 417  1098.302
 418  1029.407
 419  1213.707
 420  1325.36
 421  1245.521
 422  1270.177
 423  1262.006
 424  1206.34
 425  1251.568
 426  1245.087
 427  1160.007
 428  1281.132
 429  1303.06
 430  1270.159
 431  1178.688
 432  1144.753
 433  1148.129
 434  1209.67
 435  1245.045
 436  1275.699
 437  1184.039
 438  1200.544
 439  1393.612
 440  1352.868
 441  1200.558
 442  1158.678
 443  1166.994
 444  1050.244
 445  1014.09
 446  1137.344
 447  1249.012
 448  1256.277
 449  1203.875
 450  1160.677
 451  1174.538
 452  1242.048
 453  1283.196
 454  1268.602
 455  1201.205
 456  1297.205
 457  1230.371
 458  1160.859
 459  1314.461
 460  1284.711
 461  1246.479
 462  1350.904
 463  1239.169
 464  1310.74
 465  1267.169
 466  1244.126
 467  1122.728
 468  1133.602
 469  1291.571
 470  1229.348
 471  1215.608
 472  1301.135
 473  1301.677
 474  1228.124
 475  1203.109
 476  1144.168
 477  1176.971
 478  1257.015
 479  1277.818
 480  1073.78
 481  1069.841
 482  1219.741
 483  1275.505
 484  1177.045
 485  1187.09
 486  1249.073
 487  1237.933
 488  1226.672
 489  1207.836
 490  1211.257
 491  1254.519
 492  1338.302
 493  1349.27
 494  1219.769
 495  1196.396
 496  1161.76
 497  1232.95
 498  1232.921
 499  1291.076
 500  1344.803
 501  1257.365
 502  1214.406
 503  1323.15
 504  1433.801
 505  1339.449
 506  1411.962
 507  1329.162
 508  1369.905
 509  1504.594
 510  1643.157
 511  1684.38
