# Input file       =  1204204392.112733_cleaned.dat
# Candidate        =  PSR_0332+5434
# Telescope        =  AR
# Epoch_topo       =  58181.550626304779
# Epoch_bary       =  N/A
# T_sample         =  0.002
# Data Folded      =  7340032
# Data Avg         =  0.0488648888309073
# Data StdDev      =  1.0002543633993  
# Profile Bins     =  512
# Profile Avg      =  700.541243279449 
# Profile StdDev   =  119.763492078908 
# Reduced chi-sqr  =  1.367
# Prob(Noise)      <  5.92e-08   (~5.3 sigma)
# P_topo (ms)      =  714.580084224046  +/- 0.000288
# P'_topo (s/s)    =  -0                +/- 1.52e-10
# P''_topo (s/s^2) =  0                 +/- 6.71e-14
# P_bary (ms)      =  N/A
# P'_bary (s/s)    =  N/A
# P''_bary (s/s^2) =  N/A
# P_orb (s)        =  N/A
# asin(i)/c (s)    =  N/A
# eccentricity     =  N/A
# w (rad)          =  N/A
# T_peri           =  N/A
######################################################
   0  949.5667
   1  937.0527
   2  756.9902
   3  617.8098
   4  503.1996
   5  523.028
   6  561.9099
   7  563.2861
   8  591.269
   9  591.8994
  10  546.1358
  11  549.4593
  12  633.3813
  13  631.0717
  14  642.6981
  15  676.5999
  16  650.3702
  17  722.8666
  18  657.6317
  19  679.6465
  20  718.5989
  21  708.2394
  22  628.092
  23  618.7456
  24  648.7561
  25  649.0146
  26  704.5649
  27  664.1004
  28  656.0977
  29  689.5952
  30  746.0392
  31  718.7256
  32  710.0291
  33  649.1355
  34  677.6852
  35  705.4819
  36  669.1664
  37  677.1243
  38  690.5052
  39  709.6976
  40  682.4832
  41  713.7263
  42  772.348
  43  783.1642
  44  767.1191
  45  809.8223
  46  821.8214
  47  837.9667
  48  766.4676
  49  710.3842
  50  713.7343
  51  760.8607
  52  753.7434
  53  753.6426
  54  822.3193
  55  765.5739
  56  755.572
  57  751.0579
  58  725.4951
  59  687.7776
  60  621.4708
  61  590.6064
  62  601.3882
  63  706.1223
  64  660.7031
  65  597.3706
  66  582.6431
  67  627.376
  68  566.2571
  69  510.9332
  70  504.2097
  71  559.5314
  72  528.4606
  73  574.7059
  74  602.5526
  75  591.0576
  76  546.5093
  77  506.9532
  78  490.167
  79  482.5429
  80  517.0352
  81  507.8152
  82  402.5414
  83  442.2774
  84  437.6105
  85  488.6656
  86  539.8651
  87  551.0869
  88  580.7701
  89  523.8228
  90  506.9104
  91  555.4218
  92  526.5602
  93  570.7433
  94  587.2042
  95  525.9725
  96  524.2156
  97  488.2971
  98  675.2824
  99  650.9348
 100  678.8518
 101  716.8279
 102  687.586
 103  622.0889
 104  677.6558
 105  677.5137
 106  687.3685
 107  716.7865
 108  786.0656
 109  795.6573
 110  809.5727
 111  786.9058
 112  810.0013
 113  789.6594
 114  753.0519
 115  802.6514
 116  745.6306
 117  738.6125
 118  788.9539
 119  756.5853
 120  780.5781
 121  793.8312
 122  862.1607
 123  859.9225
 124  838.9344
 125  877.7355
 126  750.6879
 127  807.9938
 128  813.2788
 129  809.7194
 130  807.8075
 131  763.6414
 132  834.8445
 133  761.7693
 134  762.6309
 135  688.1782
 136  588.16
 137  641.9703
 138  755.3945
 139  731.1727
 140  654.8677
 141  686.4368
 142  653.6255
 143  645.0941
 144  675.6906
 145  657.4995
 146  672.9003
 147  630.7631
 148  600.4451
 149  630.2902
 150  594.4277
 151  589.8982
 152  614.0146
 153  622.857
 154  589.0162
 155  616.0408
 156  714.8941
 157  727.8625
 158  651.4642
 159  642.3171
 160  601.9448
 161  630.1533
 162  615.6031
 163  637.107
 164  641.7508
 165  669.0759
 166  698.0828
 167  764.3978
 168  777.6176
 169  742.9577
 170  662.3239
 171  685.1236
 172  789.9523
 173  789.9984
 174  807.2025
 175  839.97
 176  841.1639
 177  796.0912
 178  800.7552
 179  912.2135
 180  818.8181
 181  841.5058
 182  890.7049
 183  853.0276
 184  842.0995
 185  907.1855
 186  938.6555
 187  919.6049
 188  784.9706
 189  840.2625
 190  927.7087
 191  933.8212
 192  923.5811
 193  843.7209
 194  883.5008
 195  946.104
 196  889.5
 197  877.1467
 198  842.5225
 199  790.0731
 200  794.7886
 201  831.7501
 202  861.5983
 203  811.5746
 204  846.4197
 205  828.2401
 206  796.1595
 207  854.5247
 208  849.4113
 209  788.9857
 210  850.3965
 211  797.7803
 212  762.9518
 213  814.4362
 214  749.5588
 215  753.2607
 216  845.1693
 217  827.7932
 218  772.6434
 219  805.9536
 220  884.4493
 221  876.9833
 222  824.8596
 223  732.4715
 224  706.2166
 225  719.0876
 226  752.4163
 227  760.9597
 228  828.7191
 229  846.6927
 230  743.0628
 231  703.7652
 232  649.8962
 233  659.715
 234  732.4694
 235  747.4903
 236  686.3479
 237  642.6689
 238  693.0399
 239  752.7034
 240  733.5397
 241  723.6611
 242  711.4882
 243  753.1765
 244  737.5374
 245  769.3132
 246  747.963
 247  762.03
 248  824.3776
 249  871.6396
 250  861.0804
 251  801.869
 252  821.8949
 253  791.0306
 254  816.0673
 255  828.1145
 256  868.752
 257  854.6244
 258  871.0001
 259  883.1427
 260  824.3206
 261  820.3425
 262  796.0377
 263  801.3186
 264  782.9908
 265  783.6653
 266  768.2067
 267  747.922
 268  719.4999
 269  734.837
 270  788.89
 271  734.7085
 272  713.1547
 273  818.9484
 274  803.827
 275  865.2833
 276  807.3148
 277  718.1853
 278  751.227
 279  710.0077
 280  784.607
 281  809.665
 282  766.7413
 283  793.2028
 284  811.0302
 285  822.9559
 286  736.6876
 287  725.4292
 288  779.0937
 289  753.7964
 290  740.6899
 291  735.2943
 292  746.3044
 293  766.5721
 294  785.8959
 295  763.9656
 296  719.0271
 297  665.3491
 298  549.2748
 299  563.2144
 300  669.9899
 301  641.1049
 302  637.7705
 303  657.6899
 304  632.9937
 305  693.6415
 306  680.6135
 307  762.6918
 308  714.0416
 309  708.931
 310  717.2464
 311  701.9954
 312  782.7877
 313  720.9793
 314  687.6691
 315  700.3558
 316  753.743
 317  715.5418
 318  729.007
 319  668.2671
 320  708.0219
 321  744.0219
 322  752.8621
 323  704.4554
 324  734.4096
 325  708.8488
 326  676.5797
 327  675.2479
 328  683.496
 329  656.9996
 330  692.7913
 331  737.3544
 332  830.6296
 333  732.501
 334  718.0013
 335  698.6582
 336  668.9456
 337  762.0963
 338  795.2741
 339  745.0502
 340  736.7609
 341  690.8017
 342  607.2105
 343  638.6358
 344  642.5344
 345  688.6636
 346  691.6827
 347  675.6011
 348  678.0687
 349  632.1125
 350  623.9431
 351  670.1392
 352  748.1995
 353  745.3317
 354  671.4761
 355  669.3509
 356  573.7621
 357  587.7718
 358  643.9489
 359  648.2903
 360  598.9355
 361  572.0273
 362  593.8868
 363  666.3711
 364  695.6737
 365  703.2047
 366  628.4205
 367  615.5937
 368  637.0031
 369  662.3821
 370  680.6753
 371  697.1726
 372  698.4886
 373  666.5474
 374  600.6956
 375  547.2012
 376  558.4726
 377  570.7259
 378  578.8813
 379  602.7305
 380  524.2754
 381  565.7355
 382  618.8253
 383  673.2412
 384  625.7737
 385  586.7523
 386  644.664
 387  680.0878
 388  570.6023
 389  594.259
 390  665.1411
 391  665.6486
 392  738.6528
 393  812.7318
 394  706.9705
 395  671.5933
 396  654.294
 397  679.6163
 398  668.7658
 399  704.6566
 400  739.1994
 401  745.1577
 402  795.4839
 403  744.2277
 404  721.895
 405  748.4351
 406  711.9692
 407  696.9668
 408  762.1094
 409  705.1306
 410  616.5372
 411  757.6614
 412  774.622
 413  801.1779
 414  741.501
 415  752.6232
 416  700.4918
 417  690.4615
 418  709.7173
 419  715.8704
 420  617.4817
 421  674.8406
 422  548.8524
 423  610.2875
 424  684.462
 425  666.2867
 426  604.3618
 427  608.4032
 428  666.6432
 429  719.0627
 430  655.0076
 431  644.3717
 432  638.7675
 433  581.0172
 434  605.7146
 435  593.799
 436  631.2943
 437  598.8034
 438  571.9016
 439  571.9241
 440  536.9291
 441  501.6012
 442  462.1213
 443  538.9246
 444  592.9573
 445  519.6609
 446  514.0468
 447  521.1334
 448  475.7786
 449  435.2897
 450  531.9123
 451  492.8694
 452  460.7467
 453  511.3219
 454  478.8059
 455  511.3535
 456  573.1525
 457  511.554
 458  473.6335
 459  522.56
 460  583.8175
 461  684.9184
 462  746.374
 463  736.3118
 464  713.0659
 465  707.4456
 466  728.6442
 467  686.6157
 468  688.8098
 469  748.2805
 470  760.2999
 471  741.9182
 472  778.9581
 473  689.741
 474  687.9178
 475  734.4781
 476  757.159
 477  781.9122
 478  721.5853
 479  741.1353
 480  783.2845
 481  759.7303
 482  730.8176
 483  721.0977
 484  697.6871
 485  714.8513
 486  757.2179
 487  790.8217
 488  761.6133
 489  726.7222
 490  690.0828
 491  667.5745
 492  789.6037
 493  807.7545
 494  766.5981
 495  725.1268
 496  732.1295
 497  702.3782
 498  634.3071
 499  591.9276
 500  621.8024
 501  608.4656
 502  738.7006
 503  705.8795
 504  610.0568
 505  562.5167
 506  636.678
 507  711.2958
 508  652.191
 509  755.3044
 510  840.5201
 511  886.1687
