# Input file       =  1204736803.105261_cleaned.dat
# Candidate        =  PSR_0332+5434
# Telescope        =  AR
# Epoch_topo       =  58187.712790570149
# Epoch_bary       =  N/A
# T_sample         =  0.002
# Data Folded      =  7340032
# Data Avg         =  0.047585212600939
# Data StdDev      =  1.00009671975498 
# Profile Bins     =  512
# Profile Avg      =  682.089435398253 
# Profile StdDev   =  119.744616926708 
# Reduced chi-sqr  =  1.007
# Prob(Noise)      <  0.445   (~0.1 sigma)
# P_topo (ms)      =  714.579197421433  +/- 0.000497
# P'_topo (s/s)    =  -0                +/- 2.62e-10
# P''_topo (s/s^2) =  0                 +/- 1.16e-13
# P_bary (ms)      =  N/A
# P'_bary (s/s)    =  N/A
# P''_bary (s/s^2) =  N/A
# P_orb (s)        =  N/A
# asin(i)/c (s)    =  N/A
# eccentricity     =  N/A
# w (rad)          =  N/A
# T_peri           =  N/A
######################################################
   0  1128.912
   1  1171.774
   2  1012.317
   3  826.0141
   4  772.4083
   5  746.9225
   6  661.7241
   7  708.6456
   8  755.6959
   9  643.5589
  10  645.2487
  11  670.0257
  12  640.8564
  13  534.4909
  14  756.7111
  15  755.1273
  16  758.239
  17  712.7599
  18  723.6193
  19  748.4481
  20  660.6741
  21  674.1415
  22  828.7587
  23  745.5147
  24  733.7465
  25  785.03
  26  563.4805
  27  605.0514
  28  672.092
  29  745.5894
  30  589.9158
  31  582.7643
  32  673.4076
  33  636.4045
  34  546.749
  35  582.3809
  36  660.7036
  37  625.5554
  38  572.7098
  39  614.4055
  40  659.2498
  41  577.931
  42  587.0328
  43  665.0114
  44  705.3504
  45  601.7053
  46  605.2535
  47  621.3157
  48  613.8663
  49  629.3035
  50  650.502
  51  685.6174
  52  674.5514
  53  707.5095
  54  733.5656
  55  646.5269
  56  621.0588
  57  672.7139
  58  695.0936
  59  698.4102
  60  617.6992
  61  595.1099
  62  613.5332
  63  701.5599
  64  780.878
  65  684.0244
  66  782.1051
  67  627.7679
  68  698.197
  69  775.2625
  70  734.1656
  71  738.095
  72  645.5756
  73  569.6324
  74  632.2078
  75  606.8872
  76  681.8465
  77  700.1065
  78  562.4182
  79  503.1694
  80  563.1919
  81  710.2722
  82  657.89
  83  553.2723
  84  563.0468
  85  582.2225
  86  575.4897
  87  616.6974
  88  637.5461
  89  573.9504
  90  607.3982
  91  694.5502
  92  582.6442
  93  590.2801
  94  632.6908
  95  644.5131
  96  724.0808
  97  644.358
  98  607.9193
  99  599.3915
 100  633.0771
 101  624.6481
 102  586.0574
 103  693.8929
 104  680.6475
 105  638.8434
 106  647.3992
 107  614.8366
 108  686.2921
 109  689.2327
 110  769.7452
 111  702.2512
 112  610.6832
 113  711.213
 114  657.6031
 115  653.9063
 116  772.2343
 117  822.8088
 118  759.5408
 119  632.8891
 120  621.3754
 121  685.7372
 122  734.6699
 123  818.9507
 124  812.0946
 125  841.5245
 126  848.7384
 127  827.972
 128  742.0937
 129  790.9714
 130  706.9154
 131  638.1249
 132  617.2518
 133  804.1171
 134  832.5624
 135  830.1086
 136  714.265
 137  763.2664
 138  792.967
 139  624.4208
 140  767.4889
 141  694.9494
 142  705.2901
 143  697.6097
 144  677.8843
 145  756.2015
 146  677.3713
 147  722.3863
 148  620.3225
 149  522.1129
 150  580.5238
 151  597.8581
 152  644.9474
 153  682.7579
 154  671.9317
 155  684.39
 156  582.446
 157  613.5083
 158  725.0462
 159  705.3616
 160  695.8146
 161  711.7083
 162  642.5081
 163  670.4991
 164  706.7531
 165  632.8577
 166  559.0851
 167  691.5264
 168  739.1584
 169  698.9235
 170  695.9612
 171  735.1889
 172  683.762
 173  661.9253
 174  734.5073
 175  709.7772
 176  662.0844
 177  560.0196
 178  587.1702
 179  606.4946
 180  648.216
 181  702.0361
 182  812.4547
 183  726.9072
 184  594.371
 185  771.4991
 186  750.8188
 187  714.2495
 188  745.3458
 189  783.2267
 190  829.7721
 191  801.7329
 192  721.3834
 193  738.4373
 194  791.1432
 195  751.0379
 196  838.502
 197  877.4695
 198  834.9267
 199  808.9471
 200  790.7598
 201  747.2795
 202  837.2117
 203  787.4267
 204  809.2593
 205  776.4003
 206  826.9601
 207  752.6901
 208  770.4109
 209  745.4429
 210  720.8251
 211  749.6567
 212  722.5901
 213  709.9758
 214  678.3049
 215  742.0513
 216  727.0211
 217  751.2343
 218  829.5302
 219  795.4001
 220  689.6198
 221  819.4842
 222  749.9255
 223  718.9668
 224  786.8767
 225  714.6599
 226  745.2749
 227  725.7213
 228  706.7534
 229  761.3865
 230  708.832
 231  723.0257
 232  689.0304
 233  771.1827
 234  743.8226
 235  566.1306
 236  567.7632
 237  614.2092
 238  651.7469
 239  636.652
 240  700.2421
 241  719.3183
 242  561.8396
 243  640.9019
 244  615.8162
 245  703.2934
 246  643.1922
 247  659.7166
 248  681.2831
 249  638.48
 250  688.5885
 251  607.8782
 252  507.736
 253  618.9511
 254  722.9341
 255  745.3459
 256  705.8188
 257  625.3958
 258  645.2544
 259  716.6497
 260  670.1433
 261  650.3894
 262  540.0216
 263  569.7384
 264  651.0738
 265  541.1392
 266  485.8373
 267  657.6594
 268  605.8555
 269  711.6418
 270  768.8388
 271  797.736
 272  735.3899
 273  780.62
 274  707.7621
 275  690.8969
 276  656.3401
 277  709.9306
 278  817.7841
 279  778.264
 280  668.1702
 281  681.142
 282  666.8392
 283  724.0891
 284  774.9025
 285  831.1019
 286  737.46
 287  768.2844
 288  698.4977
 289  744.548
 290  645.9821
 291  654.6962
 292  612.7755
 293  601.5244
 294  712.5611
 295  804.4272
 296  717.5607
 297  648.8492
 298  597.3315
 299  616.6683
 300  668.9532
 301  707.1304
 302  736.1127
 303  734.0943
 304  657.2225
 305  741.6987
 306  629.6246
 307  668.034
 308  756.2709
 309  759.9525
 310  665.8394
 311  706.6705
 312  763.57
 313  594.8058
 314  650.4469
 315  649.4578
 316  811.4922
 317  767.9301
 318  688.6401
 319  696.7029
 320  761.2231
 321  661.5062
 322  667.4095
 323  680.826
 324  770.878
 325  642.6241
 326  596.2361
 327  533.6959
 328  672.3244
 329  640.233
 330  550.2957
 331  565.1946
 332  546.8389
 333  522.3223
 334  506.3893
 335  631.6683
 336  605.5272
 337  563.1472
 338  576.5426
 339  625.8992
 340  701.2986
 341  664.9431
 342  539.6212
 343  628.4136
 344  615.286
 345  673.0296
 346  648.6734
 347  650.9508
 348  764.0228
 349  664.4318
 350  640.4854
 351  687.9181
 352  700.7396
 353  734.8692
 354  731.3477
 355  736.3452
 356  656.1517
 357  634.7881
 358  654.8047
 359  716.1418
 360  830.8006
 361  650.6667
 362  663.1888
 363  851.1489
 364  711.3802
 365  649.9808
 366  693.8366
 367  642.1787
 368  724.6629
 369  675.3749
 370  770.3065
 371  676.249
 372  709.722
 373  731.4263
 374  617.7882
 375  664.9542
 376  546.4297
 377  512.8392
 378  665.2682
 379  689.7526
 380  770.6494
 381  763.7584
 382  822.5247
 383  759.469
 384  582.8041
 385  668.8356
 386  778.9576
 387  613.2435
 388  688.9969
 389  729.2349
 390  655.2046
 391  491.0468
 392  612.8213
 393  725.3645
 394  549.5544
 395  581.6386
 396  570.0877
 397  661.441
 398  499.9687
 399  525.5981
 400  518.3146
 401  573.6802
 402  607.9008
 403  643.053
 404  618.862
 405  614.9498
 406  605.7674
 407  568.1796
 408  657.1526
 409  689.6859
 410  717.2723
 411  736.6618
 412  695.5734
 413  599.6233
 414  621.8162
 415  612.8648
 416  683.7858
 417  799.0145
 418  738.4719
 419  769.8702
 420  796.292
 421  686.1176
 422  677.0756
 423  671.2844
 424  693.7162
 425  712.5981
 426  726.9552
 427  723.1077
 428  789.3995
 429  738.4808
 430  673.7603
 431  699.7142
 432  669.4302
 433  737.1038
 434  693.4758
 435  616.1345
 436  655.3882
 437  655.9883
 438  718.1904
 439  696.1469
 440  733.34
 441  737.7902
 442  689.2972
 443  660.9461
 444  632.2057
 445  775.0416
 446  752.881
 447  699.5604
 448  620.4104
 449  658.6243
 450  672.0325
 451  603.7238
 452  527.2986
 453  594.8185
 454  738.2651
 455  710.781
 456  746.9312
 457  600.7651
 458  643.5128
 459  630.9672
 460  646.88
 461  661.8874
 462  675.8539
 463  600.0012
 464  575.8127
 465  659.0063
 466  627.444
 467  651.1494
 468  598.9974
 469  591.8537
 470  623.2771
 471  597.8419
 472  682.255
 473  585.738
 474  576.063
 475  585.0237
 476  685.1555
 477  675.5615
 478  558.666
 479  565.4671
 480  625.7038
 481  720.8532
 482  723.9217
 483  657.8016
 484  606.8846
 485  590.0814
 486  577.0721
 487  583.6404
 488  586.1879
 489  569.3298
 490  595.9266
 491  563.6712
 492  594.8128
 493  424.486
 494  538.5093
 495  692.5264
 496  670.8047
 497  614.8319
 498  533.7308
 499  606.5568
 500  861.2261
 501  717.9946
 502  694.4579
 503  756.0826
 504  777.2916
 505  778.8963
 506  760.5992
 507  848.799
 508  848.4701
 509  967.2484
 510  931.3124
 511  1030.331
