# Input file       =  1204965093.116856_cleaned.dat
# Candidate        =  PSR_0332+5434
# Telescope        =  AR
# Epoch_topo       =  58190.355036074725
# Epoch_bary       =  N/A
# T_sample         =  0.002
# Data Folded      =  7208960
# Data Avg         =  0.0534158386332395
# Data StdDev      =  1.00006298906037 
# Profile Bins     =  512
# Profile Avg      =  752.101375660066 
# Profile StdDev   =  118.666650023519 
# Reduced chi-sqr  =  1.627
# Prob(Noise)      <  1.07e-17   (~8.5 sigma)
# P_topo (ms)      =  714.578105833264  +/- 2.96e-05
# P'_topo (s/s)    =  -0                +/- 1.59e-11
# P''_topo (s/s^2) =  0                 +/- 7.15e-15
# P_bary (ms)      =  N/A
# P'_bary (s/s)    =  N/A
# P''_bary (s/s^2) =  N/A
# P_orb (s)        =  N/A
# asin(i)/c (s)    =  N/A
# eccentricity     =  N/A
# w (rad)          =  N/A
# T_peri           =  N/A
######################################################
   0  1144.586
   1  1161.484
   2  1100.087
   3  922.4435
   4  654.3807
   5  586.8482
   6  732.9434
   7  717.0155
   8  744.0573
   9  509.0301
  10  568.5658
  11  703.5483
  12  679.3072
  13  683.1294
  14  653.7505
  15  640.252
  16  756.0806
  17  704.6351
  18  698.6646
  19  682.6325
  20  701.0112
  21  684.9743
  22  819.5552
  23  815.2943
  24  753.1284
  25  665.2897
  26  547.4002
  27  527.213
  28  621.2987
  29  781.0381
  30  816.4513
  31  751.2064
  32  774.8765
  33  691.4667
  34  639.0156
  35  647.0746
  36  768.6866
  37  902.0206
  38  839.6447
  39  850.6317
  40  825.5198
  41  678.2387
  42  601.151
  43  636.1297
  44  747.2559
  45  718.282
  46  684.5256
  47  794.3636
  48  856.3564
  49  958.5432
  50  909.5413
  51  735.9318
  52  671.0767
  53  787.7795
  54  743.8278
  55  805.3529
  56  860.1964
  57  819.9037
  58  620.4602
  59  616.1947
  60  600.4092
  61  711.4393
  62  798.4523
  63  798.7822
  64  819.4075
  65  813.819
  66  776.906
  67  731.2598
  68  612.7808
  69  599.6589
  70  674.2891
  71  754.0412
  72  783.7201
  73  819.1176
  74  812.5757
  75  683.1457
  76  709.2156
  77  710.8918
  78  834.2253
  79  750.4072
  80  877.2062
  81  968.0847
  82  893.4805
  83  781.9198
  84  646.4289
  85  498.8113
  86  619.6437
  87  675.6846
  88  703.5123
  89  745.6575
  90  786.3035
  91  783.8682
  92  718.954
  93  649.2016
  94  650.9025
  95  752.5828
  96  770.3593
  97  820.9587
  98  840.2805
  99  839.7684
 100  779.9734
 101  667.8619
 102  776.9665
 103  737.7347
 104  752.5601
 105  770.6124
 106  764.6703
 107  773.7058
 108  655.7179
 109  584.291
 110  706.1683
 111  665.9736
 112  772.8246
 113  709.7944
 114  709.361
 115  642.6536
 116  662.5175
 117  680.2244
 118  670.2173
 119  786.4573
 120  749.8207
 121  695.5616
 122  794.6084
 123  740.689
 124  582.8181
 125  547.7733
 126  577.1904
 127  621.5323
 128  590.6249
 129  682.9865
 130  844.778
 131  847.4333
 132  801.8757
 133  654.1761
 134  705.4641
 135  729.1026
 136  715.4764
 137  784.4642
 138  823.2926
 139  806.0825
 140  722.3864
 141  721.0121
 142  592.2843
 143  606.7902
 144  692.474
 145  797.1152
 146  758.4764
 147  819.9014
 148  830.0153
 149  774.1666
 150  651.8678
 151  661.5754
 152  699.4607
 153  619.9115
 154  729.7145
 155  871.5192
 156  792.5885
 157  756.7266
 158  633.1038
 159  701.9376
 160  776.3504
 161  699.6912
 162  752.3522
 163  897.0023
 164  921.0356
 165  750.5654
 166  674.7935
 167  679.5757
 168  751.0511
 169  709.3445
 170  843.0625
 171  879.6525
 172  805.8795
 173  685.4985
 174  660.7437
 175  651.4687
 176  664.3909
 177  603.4976
 178  589.9247
 179  769.8129
 180  840.8617
 181  916.6465
 182  853.7585
 183  665.9293
 184  583.7031
 185  654.3722
 186  778.421
 187  635.9011
 188  640.1445
 189  747.1128
 190  755.7341
 191  673.1927
 192  617.1596
 193  561.0626
 194  573.882
 195  773.3472
 196  870.2074
 197  745.0645
 198  735.8228
 199  680.3194
 200  556.9466
 201  606.108
 202  678.5096
 203  542.5136
 204  602.3187
 205  800.4625
 206  753.7116
 207  534.7865
 208  537.7023
 209  433.8276
 210  407.8374
 211  571.0767
 212  734.2361
 213  782.5895
 214  746.1655
 215  651.4427
 216  635.3645
 217  622.469
 218  656.9927
 219  630.7642
 220  575.0604
 221  657.2798
 222  679.1277
 223  688.0483
 224  580.1118
 225  473.5035
 226  497.9881
 227  576.7926
 228  772.1642
 229  800.8479
 230  776.3606
 231  763.696
 232  742.5051
 233  644.575
 234  643.9128
 235  667.0892
 236  771.2007
 237  818.4794
 238  804.4128
 239  864.212
 240  754.4828
 241  602.5081
 242  654.9419
 243  744.5388
 244  805.6753
 245  793.6073
 246  838.2514
 247  894.0896
 248  799.0557
 249  742.2457
 250  740.582
 251  720.1
 252  722.6125
 253  903.1892
 254  863.2415
 255  826.2114
 256  834.3466
 257  665.1403
 258  580.7621
 259  637.14
 260  744.0974
 261  766.6666
 262  800.8152
 263  976.5945
 264  881.3842
 265  721.8637
 266  694.2451
 267  725.3093
 268  737.4779
 269  767.8491
 270  861.7267
 271  849.8602
 272  837.4847
 273  842.0007
 274  766.6091
 275  658.4141
 276  610.0959
 277  693.9226
 278  879.3032
 279  809.2097
 280  812.2106
 281  800.5424
 282  843.3589
 283  806.5162
 284  689.7271
 285  648.3461
 286  717.0256
 287  854.5282
 288  945.1045
 289  949.9728
 290  726.0002
 291  710.0753
 292  801.0709
 293  797.6497
 294  846.2633
 295  880.9673
 296  779.6275
 297  715.3479
 298  766.9402
 299  739.1465
 300  739.9401
 301  784.5428
 302  890.4976
 303  827.4074
 304  828.0981
 305  825.6396
 306  650.6562
 307  695.6703
 308  805.0549
 309  828.2699
 310  930.6811
 311  1036.506
 312  1036.013
 313  956.1938
 314  906.6149
 315  864.1438
 316  855.5626
 317  879.6874
 318  977.2623
 319  963.4459
 320  832.2613
 321  862.4964
 322  804.1387
 323  773.3392
 324  815.6667
 325  889.9396
 326  870.438
 327  1058.556
 328  893.7488
 329  861.5707
 330  768.7603
 331  770.562
 332  842.64
 333  767.0283
 334  825.9379
 335  801.2455
 336  846.1899
 337  843.785
 338  791.3547
 339  700.9626
 340  733.2719
 341  827.1202
 342  681.0573
 343  718.7076
 344  905.3486
 345  972.5374
 346  897.6338
 347  803.6624
 348  706.8569
 349  602.019
 350  644.2646
 351  787.738
 352  854.6858
 353  771.3967
 354  797.7075
 355  763.3487
 356  652.8121
 357  763.9033
 358  762.5663
 359  754.2134
 360  796.8334
 361  810.1102
 362  891.2183
 363  845.0067
 364  701.8205
 365  657.2931
 366  633.3218
 367  696.215
 368  735.1573
 369  880.2957
 370  911.3531
 371  846.0163
 372  770.5456
 373  580.3295
 374  620.1298
 375  709.7886
 376  759.5583
 377  817.5544
 378  866.4278
 379  810.537
 380  822.0995
 381  785.4122
 382  681.4869
 383  698.877
 384  747.3338
 385  798.3581
 386  806.3578
 387  680.9067
 388  788.621
 389  768.2373
 390  720.7964
 391  764.0897
 392  723.4877
 393  790.3372
 394  883.4323
 395  871.3575
 396  874.8412
 397  681.0566
 398  594.8516
 399  639.6934
 400  710.4407
 401  780.8729
 402  829.5687
 403  867.45
 404  894.7901
 405  769.3496
 406  667.9175
 407  641.9271
 408  694.6451
 409  811.8417
 410  988.8193
 411  963.5359
 412  807.0383
 413  798.7406
 414  656.0084
 415  579.4578
 416  647.4615
 417  803.5698
 418  941.3967
 419  819.7581
 420  741.5579
 421  733.5989
 422  743.0756
 423  678.6528
 424  766.7202
 425  849.5355
 426  835.8817
 427  792.6311
 428  791.4308
 429  821.4025
 430  794.5485
 431  767.8035
 432  765.0015
 433  756.414
 434  787.9068
 435  855.1847
 436  905.5721
 437  817.0577
 438  708.0598
 439  792.7317
 440  770.7102
 441  690.9321
 442  757.2966
 443  935.1063
 444  927.6952
 445  940.4415
 446  849.2871
 447  784.8196
 448  615.676
 449  719.9655
 450  792.8879
 451  825.7951
 452  919.4596
 453  770.2874
 454  682.921
 455  693.6161
 456  641.6846
 457  651.7869
 458  687.1445
 459  796.4667
 460  874.773
 461  1009.03
 462  931.4968
 463  792.0009
 464  723.2106
 465  789.7966
 466  863.5751
 467  807.6511
 468  862.4762
 469  864.1316
 470  856.8864
 471  708.6282
 472  686.1993
 473  728.1371
 474  701.3056
 475  705.8805
 476  762.7602
 477  880.4185
 478  842.0678
 479  759.5012
 480  720.2593
 481  747.011
 482  706.6623
 483  689.2751
 484  661.9576
 485  688.4678
 486  668.6365
 487  631.96
 488  666.7433
 489  549.3743
 490  487.8467
 491  641.7908
 492  796.0457
 493  887.6982
 494  844.5062
 495  814.0569
 496  657.3447
 497  575.4953
 498  576.7477
 499  574.6525
 500  598.1358
 501  750.5643
 502  782.0311
 503  748.693
 504  698.5625
 505  563.0761
 506  602.5211
 507  638.747
 508  706.0641
 509  868.1602
 510  1178.499
 511  1148.376
