# Input file       =  1204477759.110359_cleaned.dat
# Candidate        =  PSR_0332+5434
# Telescope        =  AR
# Epoch_topo       =  58184.714596184713
# Epoch_bary       =  N/A
# T_sample         =  0.002
# Data Folded      =  7340032
# Data Avg         =  0.0305372546486355
# Data StdDev      =  1.00005705794845 
# Profile Bins     =  512
# Profile Avg      =  437.774337621306 
# Profile StdDev   =  119.739868098183 
# Reduced chi-sqr  =  1.596
# Prob(Noise)      <  2.22e-16   (~8.1 sigma)
# P_topo (ms)      =  714.579866018428  +/- 0.000308
# P'_topo (s/s)    =  -0                +/- 1.62e-10
# P''_topo (s/s^2) =  0                 +/- 7.17e-14
# P_bary (ms)      =  N/A
# P'_bary (s/s)    =  N/A
# P''_bary (s/s^2) =  N/A
# P_orb (s)        =  N/A
# asin(i)/c (s)    =  N/A
# eccentricity     =  N/A
# w (rad)          =  N/A
# T_peri           =  N/A
######################################################
   0  1090.071
   1  999.2699
   2  748.0871
   3  580.7123
   4  572.4699
   5  581.8979
   6  581.6409
   7  598.6799
   8  532.8784
   9  537.1852
  10  523.9579
  11  622.314
  12  576.9788
  13  434.3731
  14  412.7716
  15  468.3252
  16  493.2807
  17  542.4131
  18  577.3943
  19  562.0421
  20  545.8363
  21  633.0576
  22  590.4944
  23  520.9222
  24  503.8432
  25  452.1176
  26  448.1964
  27  479.5297
  28  516.1088
  29  458.5671
  30  478.0216
  31  435.7172
  32  419.6663
  33  357.2841
  34  395.3135
  35  481.0332
  36  484.2283
  37  392.6225
  38  407.5415
  39  485.9954
  40  557.2336
  41  526.3643
  42  489.1373
  43  457.1411
  44  450.4261
  45  432.4335
  46  467.4987
  47  457.645
  48  539.6596
  49  457.124
  50  532.8138
  51  653.1251
  52  551.4993
  53  598.2047
  54  491.9833
  55  503.832
  56  492.351
  57  570.9296
  58  560.3292
  59  449.7175
  60  474.4264
  61  493.1052
  62  404.1559
  63  478.0324
  64  475.916
  65  446.6528
  66  486.91
  67  490.6489
  68  469.9084
  69  403.732
  70  496.8478
  71  598.1934
  72  569.1108
  73  472.9292
  74  486.6974
  75  506.3155
  76  441.8504
  77  341.934
  78  306.3752
  79  519.6072
  80  466.0374
  81  422.6765
  82  361.1877
  83  431.0763
  84  455.7133
  85  375.7728
  86  342.8524
  87  462.7251
  88  457.3004
  89  350.8345
  90  453.1167
  91  424.6469
  92  353.0571
  93  421.4996
  94  394.1761
  95  482.0005
  96  485.7945
  97  341.8955
  98  337.2835
  99  347.1137
 100  455.5524
 101  482.4156
 102  454.5136
 103  287.4105
 104  403.2286
 105  377.7085
 106  327.3186
 107  434.6747
 108  453.2555
 109  412.4156
 110  308.0736
 111  392.2613
 112  450.8071
 113  436.7257
 114  368.2728
 115  334.8322
 116  309.5801
 117  391.5067
 118  311.9198
 119  362.5614
 120  390.5898
 121  396.8291
 122  410.6062
 123  315.5335
 124  462.927
 125  506.2775
 126  457.6381
 127  572.8843
 128  468.2248
 129  450.8379
 130  483.4846
 131  399.2417
 132  429.2166
 133  437.3965
 134  387.7068
 135  461.7197
 136  520.6113
 137  402.3208
 138  252.3504
 139  413.7375
 140  495.6052
 141  512.8347
 142  405.0186
 143  416.7821
 144  416.106
 145  472.3472
 146  463.4752
 147  360.1147
 148  424.0861
 149  388.6132
 150  412.1163
 151  502.6004
 152  573.4456
 153  481.2195
 154  543.0889
 155  486.6133
 156  387.0171
 157  496.2393
 158  461.2562
 159  427.7415
 160  367.0696
 161  454.5879
 162  489.5664
 163  424.3027
 164  339.3702
 165  517.3115
 166  442.8425
 167  323.3588
 168  429.1331
 169  331.896
 170  413.4059
 171  424.4141
 172  405.0698
 173  393.0801
 174  375.6197
 175  355.0776
 176  347.7153
 177  394.086
 178  460.4489
 179  405.3994
 180  290.5604
 181  234.7448
 182  312.7859
 183  289.3102
 184  254.9252
 185  382.9116
 186  458.6013
 187  348.5237
 188  295.1814
 189  366.6636
 190  348.8881
 191  299.4318
 192  359.6317
 193  412.909
 194  352.8324
 195  400.8625
 196  333.2145
 197  246.7525
 198  429.2904
 199  376.1693
 200  277.9169
 201  266.3812
 202  369.1896
 203  321.733
 204  247.8526
 205  263.0148
 206  413.7711
 207  343.4153
 208  280.7734
 209  397.9411
 210  396.5029
 211  371.5718
 212  401.4069
 213  430.494
 214  561.726
 215  508.9522
 216  420.7906
 217  405.1342
 218  419.9564
 219  435.0643
 220  431.0446
 221  403.2843
 222  329.6219
 223  391.2043
 224  396.5106
 225  390.673
 226  407.4567
 227  363.7633
 228  381.9222
 229  377.4268
 230  417.5122
 231  331.1616
 232  196.0325
 233  335.3797
 234  358.746
 235  201.0521
 236  285.1402
 237  217.922
 238  237.3002
 239  210.8097
 240  258.3847
 241  315.0493
 242  320.8098
 243  328.1962
 244  397.6579
 245  279.7487
 246  248.8779
 247  391.9864
 248  313.2812
 249  370.1974
 250  380.2363
 251  367.3294
 252  419.3536
 253  362.6187
 254  373.2114
 255  308.2956
 256  236.0236
 257  282.7717
 258  298.0406
 259  281.6404
 260  385.9903
 261  354.8766
 262  405.4553
 263  358.5389
 264  350.5385
 265  316.3319
 266  242.1021
 267  153.1411
 268  216.0653
 269  343.7305
 270  405.8613
 271  347.2717
 272  355.9546
 273  357.9038
 274  338.4951
 275  263.3698
 276  355.1021
 277  406.0832
 278  340.6641
 279  374.9553
 280  385.4355
 281  362.8858
 282  276.0935
 283  373.2511
 284  313.3644
 285  369.8827
 286  434.1395
 287  434.2276
 288  349.1565
 289  412.7045
 290  305.9762
 291  241.5688
 292  347.9843
 293  341.1775
 294  345.4468
 295  420.2926
 296  381.2374
 297  286.8015
 298  292.8476
 299  327.3829
 300  375.3294
 301  402.4414
 302  310.4284
 303  341.04
 304  355.8452
 305  282.61
 306  321.699
 307  404.2601
 308  346.7773
 309  265.1075
 310  267.7882
 311  277.5399
 312  456.3338
 313  447.7465
 314  342.7617
 315  313.5905
 316  389.7781
 317  412.0159
 318  338.5537
 319  366.1472
 320  458.8142
 321  439.4791
 322  428.1998
 323  361.3849
 324  284.9272
 325  279.2215
 326  413.8387
 327  418.8686
 328  368.1486
 329  391.8191
 330  352.637
 331  389.3488
 332  515.1778
 333  555.1635
 334  487.8272
 335  335.0108
 336  239.6223
 337  351.8262
 338  371.5178
 339  410.725
 340  482.1436
 341  443.4272
 342  547.7327
 343  306.836
 344  321.409
 345  417.9747
 346  444.8098
 347  430.0425
 348  349.2495
 349  346.465
 350  433.508
 351  342.4347
 352  267.2778
 353  418.5849
 354  489.3417
 355  501.5156
 356  406.0892
 357  371.8506
 358  449.023
 359  500.9304
 360  591.8381
 361  530.6218
 362  446.7054
 363  408.1272
 364  607.0533
 365  676.5797
 366  623.9371
 367  482.5864
 368  408.7057
 369  510.9544
 370  455.4249
 371  418.2266
 372  553.4318
 373  557.6567
 374  474.8428
 375  365.3372
 376  468.6145
 377  530.0558
 378  403.4774
 379  326.407
 380  439.4932
 381  426.0438
 382  428.1047
 383  487.7588
 384  422.6772
 385  535.7642
 386  501.2278
 387  492.9724
 388  511.7525
 389  335.7278
 390  333.1057
 391  450.9987
 392  488.3579
 393  505.7129
 394  477.3827
 395  496.812
 396  508.865
 397  508.6048
 398  479.0626
 399  534.6951
 400  493.1775
 401  401.5572
 402  537.9811
 403  470.9099
 404  395.8832
 405  543.7778
 406  547.2836
 407  531.0352
 408  550.9014
 409  482.5924
 410  427.993
 411  343.4929
 412  273.5088
 413  347.7262
 414  417.2765
 415  404.3341
 416  399.9985
 417  378.9289
 418  322.1072
 419  410.5715
 420  482.1214
 421  525.9128
 422  355.1625
 423  480.7808
 424  510.0483
 425  508.9258
 426  588.6533
 427  597.7674
 428  582.7797
 429  545.6641
 430  580.6072
 431  567.7432
 432  442.6418
 433  515.3856
 434  472.4597
 435  521.2058
 436  590.5122
 437  574.7701
 438  582.2263
 439  530.9916
 440  386.8985
 441  410.3873
 442  469.9349
 443  432.3469
 444  449.1909
 445  522.5698
 446  512.0212
 447  542.9449
 448  524.9805
 449  469.3773
 450  407.0457
 451  504.4758
 452  559.9282
 453  592.7566
 454  600.5551
 455  552.6619
 456  510.5092
 457  436.2294
 458  450.2657
 459  568.8467
 460  644.5811
 461  559.4624
 462  394.646
 463  406.8171
 464  476.2449
 465  406.337
 466  453.9408
 467  467.4585
 468  505.5511
 469  562.8754
 470  453.3424
 471  475.6271
 472  430.7263
 473  474.5851
 474  471.0111
 475  511.8841
 476  570.3855
 477  563.9455
 478  597.587
 479  518.2954
 480  561.0265
 481  555.8889
 482  501.0893
 483  487.7149
 484  518.1681
 485  492.0257
 486  494.6635
 487  617.6153
 488  556.0428
 489  434.4481
 490  534.9368
 491  453.9958
 492  407.9684
 493  631.0906
 494  668.1189
 495  464.05
 496  526.054
 497  455.8616
 498  398.6118
 499  530.0876
 500  542.3251
 501  548.7557
 502  499.0225
 503  630.2501
 504  699.1085
 505  649.3312
 506  713.9132
 507  680.7953
 508  717.707
 509  750.6868
 510  831.1635
 511  1066.231
