# Input file       =  1204189742.101555_cleaned.dat
# Candidate        =  PSR_0332+5434
# Telescope        =  AR
# Epoch_topo       =  58181.381065990223
# Epoch_bary       =  N/A
# T_sample         =  0.002
# Data Folded      =  7208960
# Data Avg         =  0.112921167649307
# Data StdDev      =  1.00011144824423 
# Profile Bins     =  512
# Profile Avg      =  1589.86482604218 
# Profile StdDev   =  118.672400150335 
# Reduced chi-sqr  =  1.989
# Prob(Noise)      <  9.22e-36   (~12.4 sigma)
# P_topo (ms)      =  714.580096439303  +/- 0.000134
# P'_topo (s/s)    =  -0                +/- 7.2e-11
# P''_topo (s/s^2) =  0                 +/- 3.24e-14
# P_bary (ms)      =  N/A
# P'_bary (s/s)    =  N/A
# P''_bary (s/s^2) =  N/A
# P_orb (s)        =  N/A
# asin(i)/c (s)    =  N/A
# eccentricity     =  N/A
# w (rad)          =  N/A
# T_peri           =  N/A
######################################################
   0  2082.281
   1  2133.134
   2  1981.944
   3  1902.028
   4  1728.422
   5  1662.11
   6  1670.6
   7  1692.186
   8  1717.034
   9  1741.785
  10  1797.323
  11  1794.255
  12  1734.395
  13  1723.907
  14  1720.76
  15  1711.012
  16  1700.172
  17  1671.343
  18  1746.779
  19  1824.73
  20  1722.637
  21  1682.528
  22  1695.249
  23  1667.547
  24  1689.67
  25  1635.059
  26  1689.114
  27  1680.236
  28  1664.17
  29  1710.967
  30  1640.451
  31  1665.059
  32  1672.033
  33  1738.608
  34  1797.959
  35  1813.859
  36  1777.336
  37  1764.726
  38  1777.806
  39  1846.94
  40  1780.672
  41  1684.791
  42  1735.476
  43  1819.037
  44  1750.12
  45  1636.937
  46  1663.022
  47  1623.472
  48  1686.391
  49  1712.3
  50  1776.533
  51  1738.379
  52  1734.4
  53  1730.509
  54  1696.116
  55  1657.711
  56  1637.22
  57  1616.076
  58  1661.524
  59  1674.39
  60  1725.207
  61  1688.138
  62  1576.326
  63  1569.134
  64  1659.274
  65  1706.811
  66  1703.788
  67  1710.928
  68  1765.822
  69  1776.48
  70  1672.261
  71  1606.699
  72  1668.103
  73  1697.094
  74  1658.181
  75  1670.619
  76  1701.747
  77  1696.193
  78  1656.613
  79  1791.111
  80  1759.777
  81  1718.261
  82  1666.865
  83  1737.99
  84  1760.146
  85  1792.341
  86  1745.381
  87  1615.784
  88  1618.683
  89  1706.486
  90  1630.651
  91  1676.767
  92  1689.6
  93  1751.216
  94  1606.278
  95  1574.798
  96  1610.182
  97  1521.774
  98  1528.911
  99  1479.963
 100  1562.992
 101  1668.271
 102  1733.895
 103  1684.47
 104  1615.79
 105  1664.561
 106  1682.446
 107  1668.96
 108  1696.267
 109  1732.622
 110  1684.946
 111  1598.108
 112  1512.313
 113  1577.045
 114  1725.256
 115  1618.077
 116  1524.445
 117  1629.871
 118  1660.549
 119  1593.353
 120  1592.89
 121  1599.416
 122  1522.503
 123  1589.103
 124  1629.004
 125  1631.272
 126  1612.228
 127  1613.049
 128  1672.143
 129  1651.679
 130  1582.062
 131  1558.047
 132  1473.385
 133  1545.109
 134  1608.234
 135  1694.554
 136  1634.08
 137  1611.275
 138  1526.527
 139  1561.978
 140  1548.884
 141  1496.99
 142  1565.543
 143  1562.042
 144  1487.576
 145  1472.214
 146  1498.439
 147  1569.557
 148  1479.213
 149  1577.851
 150  1622.259
 151  1531.189
 152  1543.248
 153  1451.4
 154  1506.785
 155  1483.275
 156  1431.711
 157  1436.379
 158  1576.49
 159  1619.198
 160  1576.081
 161  1550.091
 162  1427.367
 163  1427.154
 164  1450.291
 165  1468.932
 166  1518.574
 167  1570.722
 168  1593.722
 169  1617.81
 170  1538.998
 171  1540.005
 172  1500.071
 173  1556.069
 174  1500.624
 175  1544.041
 176  1537.996
 177  1588.543
 178  1572.026
 179  1535.283
 180  1558.5
 181  1530.739
 182  1524.704
 183  1534.584
 184  1531.844
 185  1553.235
 186  1615.804
 187  1510.659
 188  1491.501
 189  1599.634
 190  1613.676
 191  1435.747
 192  1485.855
 193  1596.012
 194  1540.158
 195  1513.078
 196  1546.749
 197  1593.686
 198  1485.433
 199  1519.049
 200  1531.949
 201  1552.048
 202  1577.601
 203  1625.085
 204  1516.361
 205  1483.898
 206  1451.838
 207  1464.356
 208  1576.506
 209  1659.075
 210  1559.58
 211  1547.333
 212  1514.422
 213  1463.343
 214  1470.819
 215  1480.735
 216  1602.553
 217  1565.568
 218  1547.109
 219  1472.311
 220  1505.572
 221  1497.043
 222  1501.965
 223  1513.189
 224  1501.792
 225  1544.908
 226  1534.493
 227  1368.868
 228  1354.608
 229  1408.884
 230  1473.645
 231  1475.787
 232  1472.589
 233  1455.106
 234  1536.299
 235  1468.911
 236  1472.097
 237  1477.68
 238  1490.708
 239  1482.788
 240  1460.137
 241  1547.842
 242  1562.087
 243  1535.969
 244  1438.895
 245  1352.358
 246  1342.592
 247  1554.338
 248  1547.537
 249  1520.766
 250  1682.589
 251  1666.779
 252  1530.158
 253  1575.092
 254  1615.434
 255  1510.002
 256  1534.68
 257  1496.2
 258  1575.019
 259  1600.484
 260  1560.643
 261  1644.943
 262  1531.687
 263  1589.753
 264  1665.983
 265  1589.305
 266  1662.957
 267  1747.723
 268  1737.332
 269  1668.714
 270  1596.638
 271  1590.143
 272  1627.371
 273  1642.335
 274  1641.719
 275  1686.13
 276  1697.274
 277  1613.931
 278  1560.685
 279  1516.089
 280  1589.32
 281  1530.063
 282  1530.592
 283  1574.297
 284  1622.344
 285  1643.797
 286  1616.497
 287  1676.135
 288  1628.532
 289  1551.414
 290  1575.784
 291  1573.67
 292  1572.775
 293  1586.665
 294  1440.668
 295  1386.208
 296  1442.983
 297  1494.644
 298  1492.39
 299  1524.346
 300  1591.437
 301  1555.888
 302  1501.691
 303  1452.609
 304  1462.784
 305  1527.028
 306  1536.672
 307  1519.353
 308  1491.046
 309  1507.76
 310  1465.985
 311  1372.988
 312  1328.327
 313  1423.382
 314  1446.957
 315  1439.25
 316  1403.644
 317  1472.104
 318  1431.038
 319  1409.762
 320  1393.162
 321  1465.564
 322  1511.354
 323  1464.669
 324  1579.203
 325  1506.591
 326  1402.076
 327  1342.743
 328  1373.451
 329  1423.875
 330  1360.247
 331  1474.69
 332  1453.838
 333  1470.121
 334  1491.686
 335  1495.283
 336  1516.89
 337  1484.456
 338  1419.608
 339  1485.151
 340  1469.271
 341  1532.28
 342  1505.453
 343  1480.768
 344  1453.555
 345  1428.409
 346  1517.96
 347  1439.837
 348  1409.764
 349  1514.427
 350  1569.243
 351  1541.562
 352  1472.259
 353  1484.353
 354  1514.174
 355  1461.167
 356  1462.295
 357  1453.616
 358  1519.877
 359  1542.533
 360  1571.237
 361  1486.255
 362  1486.173
 363  1462.14
 364  1472.726
 365  1519.126
 366  1547.308
 367  1572.525
 368  1561.289
 369  1485.958
 370  1504.086
 371  1520.873
 372  1532.86
 373  1506.977
 374  1606.399
 375  1659.264
 376  1585.276
 377  1561.729
 378  1531.225
 379  1446.114
 380  1533.789
 381  1478.907
 382  1509.364
 383  1391.92
 384  1440.484
 385  1418.873
 386  1388.753
 387  1501.94
 388  1485.233
 389  1488.724
 390  1462.202
 391  1443.057
 392  1481.777
 393  1487.581
 394  1455.85
 395  1434.164
 396  1540.405
 397  1502.149
 398  1404.588
 399  1471.602
 400  1474.997
 401  1470.645
 402  1502.651
 403  1471.35
 404  1417.194
 405  1495.591
 406  1459.024
 407  1426.623
 408  1423.778
 409  1424.549
 410  1404.927
 411  1438.923
 412  1501.396
 413  1445.868
 414  1523.047
 415  1583.019
 416  1570.398
 417  1527.538
 418  1516.136
 419  1453.604
 420  1500.237
 421  1481.618
 422  1450.152
 423  1497.53
 424  1459.372
 425  1501.198
 426  1473.97
 427  1450.65
 428  1474.359
 429  1505.014
 430  1589.37
 431  1659.862
 432  1656.648
 433  1682.343
 434  1563.683
 435  1578.472
 436  1484.615
 437  1551.129
 438  1589.407
 439  1572.494
 440  1689.211
 441  1668.894
 442  1595.232
 443  1562.482
 444  1595.08
 445  1599.686
 446  1696.082
 447  1714.3
 448  1660.677
 449  1645.228
 450  1701.639
 451  1674.514
 452  1611.505
 453  1568.42
 454  1552.057
 455  1572.526
 456  1646.016
 457  1716.166
 458  1643.406
 459  1601.939
 460  1601.054
 461  1619.304
 462  1645.432
 463  1663.611
 464  1634.153
 465  1732.429
 466  1796.185
 467  1632.148
 468  1598.511
 469  1595.788
 470  1631.858
 471  1650.448
 472  1719.705
 473  1734.101
 474  1683.413
 475  1802.83
 476  1775.84
 477  1624.317
 478  1589.9
 479  1708.19
 480  1781.569
 481  1784.975
 482  1889.585
 483  1835.713
 484  1724.863
 485  1665.935
 486  1705.076
 487  1695.648
 488  1703.936
 489  1764.096
 490  1793.977
 491  1884.698
 492  1797.227
 493  1761.457
 494  1683.684
 495  1717.657
 496  1848.306
 497  1796.982
 498  1855.317
 499  1865.67
 500  1834.031
 501  1759.911
 502  1798.87
 503  1753.903
 504  1676.186
 505  1689.7
 506  1806.514
 507  1811.787
 508  1786.015
 509  1928.151
 510  1984.692
 511  2002.397
