# Input file       =  1204549517.10465_cleaned.dat
# Candidate        =  PSR_0332+5434
# Telescope        =  AR
# Epoch_topo       =  58185.545128526042
# Epoch_bary       =  N/A
# T_sample         =  0.002
# Data Folded      =  7340032
# Data Avg         =  0.0511882017678685
# Data StdDev      =  1.00030339486315 
# Profile Bins     =  512
# Profile Avg      =  733.899268604702 
# Profile StdDev   =  119.769362764952 
# Reduced chi-sqr  =  1.047
# Prob(Noise)      <  0.221   (~0.8 sigma)
# P_topo (ms)      =  714.579365718456  +/- 0.000288
# P'_topo (s/s)    =  -0                +/- 1.52e-10
# P''_topo (s/s^2) =  0                 +/- 6.7e-14
# P_bary (ms)      =  N/A
# P'_bary (s/s)    =  N/A
# P''_bary (s/s^2) =  N/A
# P_orb (s)        =  N/A
# asin(i)/c (s)    =  N/A
# eccentricity     =  N/A
# w (rad)          =  N/A
# T_peri           =  N/A
######################################################
   0  1170.128
   1  1148.259
   2  1048.417
   3  842.1445
   4  763.4352
   5  739.3201
   6  703.578
   7  712.3953
   8  738.8079
   9  714.7005
  10  781.9391
  11  675.1143
  12  688.4783
  13  713.3541
  14  682.2597
  15  716.6552
  16  747.6241
  17  785.2293
  18  703.8209
  19  666.2586
  20  673.6955
  21  700.7604
  22  704.3994
  23  781.7041
  24  815.502
  25  846.7032
  26  864.7447
  27  837.5221
  28  877.2418
  29  741.5247
  30  789.2684
  31  834.4495
  32  762.5828
  33  866.4962
  34  863.9016
  35  791.6348
  36  755.3613
  37  698.1605
  38  722.8588
  39  785.0609
  40  697.3246
  41  783.5189
  42  817.5048
  43  748.7653
  44  704.6134
  45  708.0947
  46  804.5815
  47  773.9879
  48  725.0879
  49  723.6571
  50  761.4752
  51  759.494
  52  742.1561
  53  674.2069
  54  651.1436
  55  726.6157
  56  845.7054
  57  777.6703
  58  751.431
  59  667.682
  60  624.6456
  61  657.4538
  62  726.0441
  63  638.8432
  64  599.4216
  65  680.8967
  66  729.74
  67  696.4011
  68  755.7464
  69  740.6996
  70  691.957
  71  603.2426
  72  570.2627
  73  615.7047
  74  636.8596
  75  629.3994
  76  627.4597
  77  665.0731
  78  629.0731
  79  600.1115
  80  628.8222
  81  674.6934
  82  664.925
  83  622.2936
  84  679.1105
  85  654.7314
  86  676.8765
  87  624.2417
  88  572.2004
  89  626.6827
  90  645.4354
  91  637.0276
  92  575.3705
  93  592.134
  94  603.3055
  95  598.6969
  96  637.0092
  97  660.0302
  98  670.6312
  99  703.2535
 100  652.9172
 101  636.1715
 102  590.8655
 103  710.0688
 104  703.7661
 105  578.8951
 106  620.9969
 107  615.3262
 108  669.4488
 109  667.3691
 110  651.7063
 111  628.8513
 112  718.4854
 113  632.588
 114  628.2172
 115  659.7726
 116  684.9849
 117  686.5364
 118  644.1536
 119  597.5134
 120  697.77
 121  735.7318
 122  665.7762
 123  650.6411
 124  579.9047
 125  582.5315
 126  659.4382
 127  624.5256
 128  612.2561
 129  592.5032
 130  635.7004
 131  682.2321
 132  675.5817
 133  657.5154
 134  581.1443
 135  563.3351
 136  620.1028
 137  652.3688
 138  644.2086
 139  679.0992
 140  748.648
 141  692.5066
 142  761.9153
 143  721.44
 144  745.5725
 145  609.8929
 146  549.829
 147  575.4953
 148  565.3492
 149  550.8251
 150  649.9584
 151  758.5331
 152  711.1165
 153  668.9299
 154  608.7821
 155  600.6056
 156  521.1893
 157  606.4539
 158  739.869
 159  791.3269
 160  683.6432
 161  636.2961
 162  729.8955
 163  754.8604
 164  830.8784
 165  746.0025
 166  723.3442
 167  685.6484
 168  777.3652
 169  807.7696
 170  697.2123
 171  711.4514
 172  694.8862
 173  728.3638
 174  755.6669
 175  757.0862
 176  718.0992
 177  671.584
 178  696.6175
 179  659.9919
 180  692.8694
 181  721.0654
 182  717.475
 183  730.3093
 184  758.2538
 185  717.0839
 186  677.697
 187  661.7331
 188  721.4376
 189  740.4368
 190  757.7639
 191  757.593
 192  779.1609
 193  805.7863
 194  731.3659
 195  694.6981
 196  738.2397
 197  674.5968
 198  654.7657
 199  755.6562
 200  702.5993
 201  810.062
 202  747.0153
 203  738.9009
 204  763.1685
 205  757.2667
 206  760.2769
 207  839.944
 208  845.8756
 209  735.1714
 210  792.08
 211  792.9936
 212  879.5389
 213  854.225
 214  844.5318
 215  808.7323
 216  808.8878
 217  868.5736
 218  817.9188
 219  871.116
 220  893.9296
 221  856.3916
 222  802.2559
 223  745.355
 224  794.0275
 225  778.8673
 226  748.7501
 227  713.6058
 228  736.9761
 229  769.8646
 230  804.2104
 231  839.2568
 232  726.8199
 233  652.9442
 234  641.7986
 235  744.2626
 236  771.6888
 237  708.6359
 238  620.1045
 239  725.9927
 240  740.6826
 241  755.5295
 242  770.1439
 243  747.2364
 244  719.1075
 245  728.6384
 246  680.2074
 247  762.4449
 248  740.1182
 249  777.1955
 250  743.2238
 251  711.344
 252  754.3071
 253  789.2255
 254  798.0881
 255  841.0409
 256  823.8228
 257  813.974
 258  793.2402
 259  805.7496
 260  827.2576
 261  791.5548
 262  720.415
 263  718.7637
 264  623.5305
 265  569.5363
 266  614.9249
 267  673.8239
 268  699.2024
 269  682.6807
 270  624.1827
 271  633.6132
 272  576.0258
 273  558.2347
 274  601.9435
 275  647.0181
 276  634.7278
 277  513.6275
 278  568.7093
 279  604.3399
 280  619.2191
 281  648.477
 282  715.3965
 283  720.6476
 284  724.01
 285  669.1538
 286  706.6965
 287  625.0478
 288  675.3011
 289  744.5172
 290  761.0168
 291  753.239
 292  752.9128
 293  750.8113
 294  704.9554
 295  684.2438
 296  732.4769
 297  710.3798
 298  666.8074
 299  664.6214
 300  669.5709
 301  695.6974
 302  656.8865
 303  695.7866
 304  689.6984
 305  653.41
 306  641.2684
 307  637.0454
 308  652.4711
 309  581.4077
 310  617.2374
 311  673.1528
 312  722.637
 313  767.2751
 314  700.5752
 315  704.3917
 316  696.0689
 317  742.4843
 318  737.2659
 319  775.155
 320  815.6498
 321  850.0692
 322  858.2074
 323  884.5748
 324  844.2779
 325  846.4729
 326  781.4148
 327  813.4406
 328  862.941
 329  882.4365
 330  823.8583
 331  888.0056
 332  913.3067
 333  811.624
 334  702.9805
 335  764.2745
 336  755.0104
 337  786.5218
 338  777.8398
 339  788.1424
 340  814.522
 341  740.4537
 342  622.684
 343  712.008
 344  794.4818
 345  739.2776
 346  745.332
 347  675.4052
 348  662.9164
 349  667.515
 350  677.6226
 351  746.1514
 352  786.1444
 353  853.1486
 354  770.293
 355  702.9995
 356  844.0582
 357  1003.119
 358  885.7812
 359  771.7903
 360  768.824
 361  765.7945
 362  831.8051
 363  806.121
 364  826.3635
 365  770.0349
 366  774.2363
 367  733.7267
 368  697.5582
 369  746.9166
 370  725.7648
 371  790.1578
 372  702.6511
 373  729.8459
 374  755.4067
 375  707.8289
 376  620.6589
 377  685.9598
 378  713.8364
 379  750.1425
 380  701.7234
 381  666.3251
 382  781.8275
 383  799.2962
 384  752.0046
 385  763.1768
 386  777.3696
 387  737.1476
 388  727.0573
 389  760.1965
 390  810.3069
 391  785.3459
 392  749.2702
 393  739.492
 394  792.3059
 395  814.3954
 396  780.9014
 397  798.6802
 398  788.3593
 399  769.5232
 400  722.4246
 401  762.243
 402  873.9774
 403  880.3975
 404  877.4794
 405  821.5159
 406  757.564
 407  773.3954
 408  742.3976
 409  717.02
 410  626.1122
 411  632.3438
 412  720.0618
 413  773.226
 414  764.9986
 415  746.1673
 416  710.402
 417  682.9626
 418  675.2146
 419  725.8312
 420  715.2975
 421  648.0791
 422  668.4326
 423  653.2169
 424  624.611
 425  662.1615
 426  685.5677
 427  743.4166
 428  723.9007
 429  757.933
 430  825.7438
 431  865.9126
 432  791.4717
 433  854.3165
 434  883.6299
 435  862.549
 436  797.4951
 437  726.8563
 438  740.9236
 439  835.7936
 440  800.3541
 441  699.1588
 442  712.8681
 443  800.3349
 444  749.0386
 445  763.5436
 446  838.8061
 447  781.0271
 448  788.3198
 449  786.5463
 450  741.6664
 451  658.1226
 452  674.3688
 453  753.507
 454  749.0989
 455  729.192
 456  808.7443
 457  787.5892
 458  739.4712
 459  734.923
 460  816.184
 461  787.11
 462  751.0698
 463  793.8157
 464  837.6021
 465  860.063
 466  850.0544
 467  775.2084
 468  852.9299
 469  814.5546
 470  902.3162
 471  914.3775
 472  834.6425
 473  809.7164
 474  869.1299
 475  873.2648
 476  848.6369
 477  804.434
 478  811.3239
 479  848.5887
 480  838.525
 481  783.2957
 482  857.4141
 483  855.8082
 484  816.3044
 485  768.8304
 486  723.9185
 487  703.312
 488  683.8622
 489  613.9467
 490  711.2584
 491  756.1685
 492  793.2273
 493  686.3121
 494  621.5797
 495  655.0366
 496  635.8646
 497  641.8155
 498  662.2375
 499  716.5549
 500  731.3947
 501  727.4526
 502  738.7397
 503  834.2477
 504  824.6795
 505  770.0469
 506  804.7406
 507  844.1284
 508  891.5539
 509  1035.938
 510  1112.489
 511  1141.835
