# Input file       =  1204382832.118454_cleaned.dat
# Candidate        =  PSR_0332+5434
# Telescope        =  AR
# Epoch_topo       =  58183.615904148770
# Epoch_bary       =  N/A
# T_sample         =  0.002
# Data Folded      =  7340032
# Data Avg         =  0.0425459133940829
# Data StdDev      =  1.00012235873082 
# Profile Bins     =  512
# Profile Avg      =  609.977862837626 
# Profile StdDev   =  119.747686759135 
# Reduced chi-sqr  =  0.965
# Prob(Noise)      <  0.708   (~0.0 sigma)
# P_topo (ms)      =  714.579856780847  +/- 0.000632
# P'_topo (s/s)    =  -0                +/- 3.33e-10
# P''_topo (s/s^2) =  0                 +/- 1.47e-13
# P_bary (ms)      =  N/A
# P'_bary (s/s)    =  N/A
# P''_bary (s/s^2) =  N/A
# P_orb (s)        =  N/A
# asin(i)/c (s)    =  N/A
# eccentricity     =  N/A
# w (rad)          =  N/A
# T_peri           =  N/A
######################################################
   0  1067.441
   1  1036.941
   2  971.3047
   3  861.3702
   4  676.8278
   5  595.418
   6  646.6439
   7  683.2016
   8  712.6401
   9  613.2776
  10  652.9062
  11  613.4788
  12  634.3794
  13  643.5809
  14  572.264
  15  697.8851
  16  617.2683
  17  513.64
  18  504.9965
  19  555.2715
  20  496.6442
  21  566.6312
  22  579.9774
  23  638.8451
  24  563.0807
  25  529.5052
  26  502.7546
  27  488.8353
  28  617.9672
  29  559.1862
  30  602.5165
  31  619.3792
  32  453.7837
  33  381.4802
  34  428.7224
  35  502.9441
  36  482.5818
  37  474.9862
  38  564.9556
  39  496.9768
  40  556.7746
  41  568.5889
  42  631.2739
  43  601.5381
  44  596.5692
  45  533.4016
  46  439.3206
  47  531.5025
  48  541.3186
  49  495.6799
  50  505.8969
  51  490.5985
  52  411.555
  53  468.0021
  54  514.0786
  55  544.0928
  56  517.7119
  57  618.7855
  58  632.8103
  59  549.1892
  60  554.0732
  61  550.48
  62  517.8105
  63  493.2308
  64  493.8695
  65  612.4574
  66  665.6622
  67  597.5129
  68  462.9869
  69  474.9271
  70  464.4586
  71  567.9161
  72  609.8019
  73  583.3219
  74  564.3732
  75  609.8698
  76  683.3071
  77  649.3403
  78  671.3065
  79  681.2498
  80  595.5517
  81  642.5288
  82  648.4211
  83  621.6079
  84  671.3073
  85  662.806
  86  613.0125
  87  638.541
  88  715.1539
  89  756.788
  90  738.2986
  91  803.3515
  92  787.5621
  93  805.9537
  94  760.6287
  95  619.0488
  96  635.7703
  97  651.2391
  98  695.4568
  99  676.7441
 100  589.3668
 101  593.8195
 102  606.3483
 103  596.3965
 104  605.437
 105  695.4805
 106  742.2571
 107  706.2521
 108  670.9052
 109  602.5118
 110  572.351
 111  624.9009
 112  663.1983
 113  706.2878
 114  659.5347
 115  671.5143
 116  674.3987
 117  620.9844
 118  502.3621
 119  554.26
 120  613.3845
 121  604.2579
 122  588.4166
 123  588.1758
 124  692.7227
 125  659.3282
 126  647.474
 127  588.3613
 128  633.7711
 129  613.3576
 130  626.6862
 131  637.5103
 132  600.3792
 133  532.2833
 134  655.2627
 135  632.4689
 136  612.8992
 137  572.9445
 138  598.6728
 139  484.8144
 140  512.9437
 141  531.4024
 142  606.5568
 143  598.9847
 144  625.5662
 145  672.085
 146  676.4741
 147  625.6025
 148  651.1006
 149  646.402
 150  639.0298
 151  667.3433
 152  680.9713
 153  660.186
 154  642.1337
 155  675.4186
 156  694.5093
 157  706.2447
 158  671.0847
 159  639.8046
 160  736.1319
 161  758.9092
 162  653.0806
 163  590.2468
 164  639.7364
 165  645.646
 166  724.0707
 167  688.5855
 168  599.3969
 169  698.9477
 170  691.6649
 171  696.2918
 172  780.2963
 173  765.0226
 174  750.0413
 175  612.9918
 176  588.1226
 177  662.96
 178  740.2134
 179  702.4042
 180  696.944
 181  715.3266
 182  668.3134
 183  610.6661
 184  507.2387
 185  597.2886
 186  603.7147
 187  570.1257
 188  642.0687
 189  740.9252
 190  673.6252
 191  597.7806
 192  629.6531
 193  601.7298
 194  671.8893
 195  719.8827
 196  690.1399
 197  613.7546
 198  552.9128
 199  647.4003
 200  745.3979
 201  708.149
 202  662.9145
 203  691.2336
 204  652.8793
 205  581.5118
 206  650.2829
 207  648.4413
 208  583.8536
 209  597.5533
 210  565.3333
 211  659.3903
 212  614.174
 213  609.06
 214  606.1146
 215  587.4216
 216  570.0765
 217  565.3735
 218  528.3683
 219  505.9576
 220  571.5216
 221  554.6583
 222  534.1417
 223  586.1514
 224  621.3919
 225  515.4341
 226  514.8303
 227  506.9977
 228  581.2839
 229  571.7466
 230  567.5394
 231  544.5315
 232  611.647
 233  645.5159
 234  531.791
 235  477.1314
 236  515.0916
 237  579.6881
 238  553.5367
 239  474.4044
 240  552.6164
 241  541.5081
 242  495.1532
 243  539.3342
 244  489.8217
 245  544.7671
 246  491.5256
 247  462.5603
 248  543.9922
 249  526.1392
 250  492.5252
 251  562.071
 252  500.0259
 253  455.2261
 254  461.0158
 255  627.9343
 256  623.9453
 257  610.7864
 258  595.8163
 259  623.4563
 260  656.21
 261  624.3945
 262  640.0141
 263  655.2039
 264  681.3779
 265  745.316
 266  724.6025
 267  653.7806
 268  703.7672
 269  808.3406
 270  692.9975
 271  613.5956
 272  571.707
 273  578.6366
 274  592.4334
 275  679.85
 276  616.5707
 277  534.8636
 278  574.972
 279  571.2134
 280  569.4319
 281  645.4664
 282  667.6542
 283  589.3427
 284  631.9915
 285  685.5225
 286  549.6031
 287  493.9248
 288  523.9118
 289  631.6583
 290  600.8079
 291  565.5391
 292  546.5048
 293  607.1335
 294  615.0543
 295  620.1877
 296  622.5454
 297  641.4953
 298  648.4518
 299  647.4281
 300  657.1219
 301  749.7784
 302  754.063
 303  718.1624
 304  597.4203
 305  570.0738
 306  633.2901
 307  651.8052
 308  678.834
 309  736.0992
 310  704.578
 311  669.4628
 312  717.2193
 313  601.1851
 314  596.2816
 315  677.4769
 316  672.9315
 317  583.4055
 318  487.8039
 319  509.0226
 320  506.1793
 321  526.7288
 322  580.5894
 323  526.3868
 324  548.0102
 325  640.0761
 326  637.587
 327  579.0965
 328  548.0765
 329  506.1659
 330  547.9957
 331  630.1341
 332  630.2178
 333  578.7645
 334  647.1319
 335  620.8668
 336  589.7516
 337  576.7643
 338  523.6202
 339  483.1999
 340  468.1608
 341  494.6403
 342  555.0772
 343  520.7907
 344  504.2394
 345  492.5136
 346  521.9854
 347  500.3676
 348  446.9196
 349  444.5671
 350  531.9432
 351  648.4856
 352  676.3012
 353  652.6408
 354  535.2561
 355  585.2881
 356  620.8218
 357  597.5424
 358  560.5128
 359  528.0193
 360  518.4905
 361  469.8197
 362  451.2182
 363  599.4261
 364  586.7742
 365  538.239
 366  677.6992
 367  623.2927
 368  564.0075
 369  561.6147
 370  651.2217
 371  705.6405
 372  607.0506
 373  578.7404
 374  585.9296
 375  589.813
 376  625.6211
 377  566.6637
 378  566.892
 379  623.9598
 380  599.7865
 381  589.005
 382  584.6273
 383  596.1752
 384  574.8533
 385  631.7446
 386  676.9757
 387  625.0192
 388  575.3572
 389  595.0158
 390  617.4382
 391  531.2995
 392  436.1448
 393  518.4659
 394  550.3152
 395  533.1047
 396  505.0153
 397  557.7289
 398  573.9128
 399  596.1851
 400  585.4764
 401  599.3746
 402  523.5599
 403  527.9095
 404  544.2998
 405  554.4472
 406  582.9185
 407  578.1407
 408  561.404
 409  556.3892
 410  505.0982
 411  630.6061
 412  705.0683
 413  672.0765
 414  628.1906
 415  592.9187
 416  590.8533
 417  689.0453
 418  632.4258
 419  575.3356
 420  569.6442
 421  519.1266
 422  519.8159
 423  581.9305
 424  650.7368
 425  746.5761
 426  640.3105
 427  579.0013
 428  528.4022
 429  562.2141
 430  567.5465
 431  532.0261
 432  642.0598
 433  607.9516
 434  536.5302
 435  552.8708
 436  581.5983
 437  610.6774
 438  629.8546
 439  582.9188
 440  547.5285
 441  544.0867
 442  549.054
 443  510.9734
 444  449.5535
 445  481.6313
 446  444.5996
 447  510.5941
 448  520.1125
 449  482.3808
 450  574.6868
 451  607.8671
 452  638.2776
 453  648.5405
 454  614.7815
 455  636.6268
 456  685.2585
 457  647.1409
 458  710.7849
 459  755.3571
 460  713.5089
 461  663.6145
 462  734.8777
 463  742.8203
 464  690.9764
 465  602.3215
 466  622.05
 467  612.1962
 468  633.8308
 469  640.8941
 470  643.4537
 471  640.8536
 472  639.4189
 473  549.6988
 474  674.1351
 475  752.4802
 476  652.6898
 477  651.1649
 478  603.67
 479  587.968
 480  649.5392
 481  692.6731
 482  635.487
 483  662.0995
 484  682.2676
 485  601.424
 486  636.8735
 487  645.128
 488  633.4807
 489  658.5185
 490  692.8561
 491  644.7542
 492  589.8065
 493  715.3252
 494  665.5745
 495  589.4095
 496  685.3218
 497  675.2226
 498  630.2393
 499  666.4802
 500  662.9471
 501  641.0798
 502  624.0188
 503  607.1191
 504  680.9555
 505  612.0812
 506  641.7352
 507  778.5869
 508  867.4589
 509  900.407
 510  895.3312
 511  998.085
