# Input file       =  1204549517.10465_cleaned.dat
# Candidate        =  PSR_0332+5434
# Telescope        =  AR
# Epoch_topo       =  58185.545128526042
# Epoch_bary       =  N/A
# T_sample         =  0.002
# Data Folded      =  7340032
# Data Avg         =  0.0511882017678685
# Data StdDev      =  1.00030339486315 
# Profile Bins     =  512
# Profile Avg      =  733.899268546718 
# Profile StdDev   =  119.769362764952 
# Reduced chi-sqr  =  1.048
# Prob(Noise)      <  0.22   (~0.8 sigma)
# P_topo (ms)      =  714.579365913624  +/- 0.000288
# P'_topo (s/s)    =  -0                +/- 1.52e-10
# P''_topo (s/s^2) =  0                 +/- 6.7e-14
# P_bary (ms)      =  N/A
# P'_bary (s/s)    =  N/A
# P''_bary (s/s^2) =  N/A
# P_orb (s)        =  N/A
# asin(i)/c (s)    =  N/A
# eccentricity     =  N/A
# w (rad)          =  N/A
# T_peri           =  N/A
######################################################
   0  1155.966
   1  1165.933
   2  1119.596
   3  965.1403
   4  773.3018
   5  777.441
   6  702.5853
   7  707.7401
   8  735.4833
   9  721.0505
  10  746.6752
  11  749.7149
  12  652.7695
  13  723.5274
  14  690.0114
  15  696.2672
  16  723.3671
  17  782.9015
  18  749.6755
  19  679.8721
  20  662.3672
  21  683.362
  22  702.5107
  23  728.171
  24  806.5819
  25  826.4377
  26  865.4575
  27  842.8447
  28  872.1908
  29  818.1431
  30  727.6363
  31  838.9512
  32  788.1083
  33  804.4328
  34  872.3179
  35  847.9766
  36  751.5919
  37  758.9181
  38  664.3062
  39  796.2583
  40  729.8752
  41  718.1368
  42  811.7792
  43  793.4549
  44  739.1219
  45  690.011
  46  753.1043
  47  793.4265
  48  753.2617
  49  713.2009
  50  747.5474
  51  760.6045
  52  755.0795
  53  724.6172
  54  644.3081
  55  682.7704
  56  782.6306
  57  841.4204
  58  745.4119
  59  726.4631
  60  633.9559
  61  626.0898
  62  698.4833
  63  693.0917
  64  615.9081
  65  614.0032
  66  723.5916
  67  709.2426
  68  724.2406
  69  758.5107
  70  724.3369
  71  655.2883
  72  576.5142
  73  593.5593
  74  610.0233
  75  647.4168
  76  620.029
  77  653.0756
  78  659.8032
  79  603.0003
  80  616.478
  81  633.4664
  82  692.6527
  83  626.1797
  84  661.3777
  85  665.0756
  86  670.6254
  87  658.7606
  88  592.931
  89  588.437
  90  646.7082
  91  642.5411
  92  612.076
  93  564.5688
  94  613.1537
  95  587.9895
  96  622.9728
  97  653.1152
  98  666.4803
  99  684.462
 100  684.4111
 101  641.468
 102  609.0276
 103  620.6853
 104  749.7467
 105  639.2048
 106  582.1314
 107  627.8088
 108  630.826
 109  685.7283
 110  651.9112
 111  641.7308
 112  657.0776
 113  702.1951
 114  609.6877
 115  645.4501
 116  667.1855
 117  694.6367
 118  668.1765
 119  621.4733
 120  630.1674
 121  745.2499
 122  693.9703
 123  661.7363
 124  615.8348
 125  566.702
 126  621.1987
 127  650.5355
 128  620.2562
 129  598.9222
 130  594.1636
 131  661.7333
 132  683.9846
 133  681.2135
 134  625.9708
 135  567.0182
 136  571.6395
 137  653.4571
 138  632.1794
 139  660.2139
 140  723.1248
 141  726.3071
 142  721.0007
 143  739.6438
 144  749.5964
 145  680.4697
 146  572.8972
 147  560.0605
 148  578.4196
 149  556.414
 150  569.033
 151  719.3124
 152  749.5844
 153  690.5741
 154  637.4054
 155  607.4461
 156  558.2143
 157  543.934
 158  663.5925
 159  776.5065
 160  758.5286
 161  636.3967
 162  682.8827
 163  736.57
 164  801.0302
 165  810.7493
 166  728.2164
 167  710.4111
 168  692.8242
 169  819.705
 170  756.9874
 171  692.9089
 172  719.83
 173  694.5446
 174  746.5416
 175  752.7645
 176  751.3951
 177  678.3339
 178  687.7444
 179  689.6829
 180  662.4349
 181  713.8384
 182  711.1968
 183  725.3289
 184  744.8668
 185  752.5073
 186  694.9152
 187  665.8409
 188  682.8503
 189  740.3824
 190  731.5111
 191  773.0424
 192  752.9277
 193  813.4243
 194  761.3857
 195  711.7977
 196  717.0672
 197  719.6303
 198  632.4749
 199  716.2396
 200  732.2302
 201  751.2017
 202  805.5525
 203  721.2213
 204  753.694
 205  766.0061
 206  739.054
 207  798.9056
 208  860.5887
 209  798.407
 210  740.4229
 211  795.4465
 212  824.3109
 213  886.1224
 214  842.3835
 215  842.5607
 216  795.1947
 217  847.7507
 218  836.0847
 219  827.8522
 220  894.6597
 221  882.4866
 222  834.9271
 223  774.5883
 224  747.1935
 225  813.5844
 226  751.3027
 227  742.3384
 228  712.3085
 229  757.6825
 230  780.4217
 231  831.1236
 232  791.051
 233  683.9079
 234  638.6314
 235  698.7359
 236  748.0201
 237  770.4919
 238  634.3978
 239  675.5707
 240  737.8326
 241  753.9661
 242  747.9281
 243  788.3702
 244  714.0223
 245  737.8054
 246  691.1201
 247  719.6825
 248  747.8527
 249  765.5775
 250  770.6971
 251  721.9061
 252  725.1672
 253  767.9197
 254  790.567
 255  820.2073
 256  836.884
 257  818.0347
 258  812.5263
 259  788.3055
 260  816.3735
 261  825.3641
 262  748.7018
 263  727.8403
 264  690.9531
 265  581.5771
 266  577.2462
 267  636.8663
 268  702.8937
 269  694.9147
 270  661.6741
 271  611.1608
 272  616.906
 273  564.3593
 274  570.2726
 275  634.6342
 276  647.1591
 277  581.7335
 278  503.9165
 279  602.6838
 280  605.325
 281  637.7938
 282  679.4835
 283  713.8162
 284  724.6646
 285  703.0795
 286  681.1259
 287  681.06
 288  624.8928
 289  723.5616
 290  741.0878
 291  767.7054
 292  739.1292
 293  780.458
 294  717.2053
 295  692.3911
 296  692.8091
 297  741.7113
 298  689.4022
 299  657.935
 300  672.1068
 301  675.6387
 302  694.2509
 303  657.9296
 304  711.4968
 305  658.1708
 306  652.1917
 307  634.5042
 308  652.5826
 309  631.2917
 310  560.2025
 311  662.3759
 312  675.8309
 313  772.8204
 314  728.3427
 315  703.8549
 316  695.0748
 317  714.755
 318  745.3535
 319  738.9807
 320  806.8138
 321  825.709
 322  855.0337
 323  878.8207
 324  863.7235
 325  852.2109
 326  814.8494
 327  783.6512
 328  840.4254
 329  875.9993
 330  859.0461
 331  835.9375
 332  916.0233
 333  877.0977
 334  751.6737
 335  710.9251
 336  785.2151
 337  752.7406
 338  805.1885
 339  765.8952
 340  800.5203
 341  800.1186
 342  658.846
 343  660.4236
 344  757.8649
 345  782.5611
 346  742.4776
 347  707.9639
 348  670.3834
 349  656.2169
 350  677.939
 351  689.4743
 352  777.7322
 353  804.62
 354  853.6506
 355  717.6036
 356  747.1512
 357  926.3168
 358  986.9989
 359  806.2548
 360  765.6371
 361  768.9359
 362  794.972
 363  829.0685
 364  819.6722
 365  789.7095
 366  769.8303
 367  759.2568
 368  715.6491
 369  720.3156
 370  746.5079
 371  742.2347
 372  766.5309
 373  694.98
 374  746.3492
 375  758.174
 376  647.3389
 377  650.4271
 378  693.5913
 379  740.7727
 380  739.5149
 381  666.1398
 382  716.2753
 383  804.7332
 384  779.5011
 385  746.5218
 386  765.8637
 387  773.6784
 388  719.8759
 389  744.1279
 390  785.0559
 391  817.8684
 392  746.132
 393  745.4309
 394  759.2013
 395  809.6057
 396  807.3641
 397  774.0739
 398  806.9188
 399  779.9039
 400  744.05
 401  713.4531
 402  833.0366
 403  875.6767
 404  891.2551
 405  845.3282
 406  792.0437
 407  757.95
 408  766.4282
 409  730.673
 410  680.8915
 411  618.1187
 412  654.9152
 413  764.7361
 414  769.2074
 415  767.1167
 416  723.5261
 417  703.2526
 418  673.4408
 419  689.9824
 420  743.007
 421  669.76
 422  653.4329
 423  676.2488
 424  628.0579
 425  642.4867
 426  661.889
 427  721.6923
 428  742.9643
 429  728.3337
 430  779.4941
 431  850.7101
 432  844.5513
 433  797.0726
 434  885.8596
 435  876.1567
 436  833.963
 437  772.8916
 438  707.2548
 439  791.433
 440  830.559
 441  758.8233
 442  679.029
 443  766.0594
 444  788.7245
 445  738.5727
 446  802.4144
 447  822.8883
 448  773.1611
 449  791.0666
 450  781.9985
 451  683.3699
 452  676.8645
 453  697.7031
 454  778.9277
 455  715.2451
 456  762.2827
 457  810.2487
 458  758.6697
 459  733.113
 460  764.134
 461  833.9761
 462  740.2272
 463  782.9641
 464  810.4094
 465  856.3542
 466  858.5226
 467  810.1238
 468  810.0945
 469  837.1468
 470  835.945
 471  919.1563
 472  891.1191
 473  811.2872
 474  839.5108
 475  876.6088
 476  866.1488
 477  835.8038
 478  781.5013
 479  846.0229
 480  834.2635
 481  829.132
 482  788.7789
 483  878.2944
 484  834.0485
 485  798.1053
 486  761.3047
 487  696.3345
 488  713.7999
 489  634.5766
 490  636.5747
 491  754.2775
 492  767.1155
 493  782.1606
 494  619.6036
 495  639.982
 496  640.7279
 497  650.9603
 498  641.5733
 499  689.6939
 500  723.61
 501  730.2534
 502  732.2297
 503  761.486
 504  854.2112
 505  787.882
 506  781.5209
 507  812.2614
 508  880.7062
 509  938.3832
 510  1091.524
 511  1121.701
