# Input file       =  1204965093.116856_cleaned.dat
# Candidate        =  PSR_0332+5434
# Telescope        =  AR
# Epoch_topo       =  58190.355036074725
# Epoch_bary       =  N/A
# T_sample         =  0.002
# Data Folded      =  7208960
# Data Avg         =  0.0534158386332395
# Data StdDev      =  1.00006298906037 
# Profile Bins     =  512
# Profile Avg      =  752.101375720526 
# Profile StdDev   =  118.666650023519 
# Reduced chi-sqr  =  1.632
# Prob(Noise)      <  6.26e-18   (~8.5 sigma)
# P_topo (ms)      =  714.57810599892   +/- 2.92e-05
# P'_topo (s/s)    =  -0                +/- 1.57e-11
# P''_topo (s/s^2) =  0                 +/- 7.05e-15
# P_bary (ms)      =  N/A
# P'_bary (s/s)    =  N/A
# P''_bary (s/s^2) =  N/A
# P_orb (s)        =  N/A
# asin(i)/c (s)    =  N/A
# eccentricity     =  N/A
# w (rad)          =  N/A
# T_peri           =  N/A
######################################################
   0  1154.81
   1  1146.474
   2  1015.762
   3  754.0724
   4  581.8204
   5  682.2237
   6  737.2424
   7  739.8489
   8  628.5033
   9  480.0663
  10  677.1834
  11  686.5326
  12  675.2596
  13  675.3752
  14  632.0602
  15  708.1174
  16  745.6716
  17  685.9741
  18  689.7011
  19  707.2831
  20  664.3406
  21  770.3215
  22  829.9481
  23  779.4503
  24  707.5903
  25  588.0375
  26  536.9261
  27  557.6928
  28  709.8913
  29  840.4695
  30  759.0109
  31  787.7952
  32  718.8354
  33  672.2526
  34  632.5607
  35  692.0213
  36  864.7086
  37  859.9257
  38  846.4877
  39  853.6188
  40  754.8725
  41  611.3343
  42  602.7464
  43  693.1445
  44  760.7318
  45  676.7731
  46  749.4885
  47  837.4056
  48  902.9065
  49  962.7609
  50  810.323
  51  671.2536
  52  747.7975
  53  760.8518
  54  769.0804
  55  834.065
  56  868.663
  57  696.0364
  58  610.9468
  59  609.6116
  60  648.238
  61  779.4749
  62  792.7066
  63  806.5152
  64  819.576
  65  794.751
  66  765.5062
  67  653.9212
  68  600.6295
  69  631.0058
  70  733.5793
  71  778.9299
  72  787.3853
  73  845.1345
  74  715.2449
  75  706.9269
  76  686.7281
  77  784.9382
  78  796.2524
  79  789.4325
  80  975.8239
  81  922.5844
  82  833.6745
  83  707.7581
  84  556.6403
  85  534.8699
  86  684.1422
  87  670.7494
  88  730.2689
  89  774.2523
  90  778.7927
  91  770.0695
  92  664.874
  93  642.6898
  94  706.5361
  95  765.0172
  96  802.4335
  97  824.5672
  98  854.8442
  99  816.2902
 100  712.0709
 101  700.2701
 102  777.1548
 103  715.5161
 104  787.5593
 105  753.1342
 106  802.6694
 107  703.9923
 108  592.5402
 109  654.3934
 110  679.9932
 111  727.4349
 112  750.2677
 113  705.3575
 114  679.8976
 115  631.4877
 116  683.8137
 117  659.4073
 118  739.7905
 119  792.3785
 120  706.6182
 121  741.4067
 122  807.8116
 123  630.6509
 124  564.0428
 125  540.812
 126  628.9626
 127  592.4798
 128  620.0158
 129  786.3514
 130  857.6613
 131  842.4727
 132  704.9954
 133  670.3262
 134  724.5198
 135  713.8199
 136  742.9372
 137  813.5189
 138  824.4315
 139  766.0748
 140  719.2216
 141  663.4588
 142  572.1104
 143  650.5175
 144  767.3917
 145  771.3054
 146  787.2167
 147  827.6763
 148  818.1999
 149  693.6312
 150  632.1887
 151  712.0847
 152  642.8061
 153  653.1175
 154  836.178
 155  833.8964
 156  780.7964
 157  670.5974
 158  663.4619
 159  752.6101
 160  748.5619
 161  694.3531
 162  842.4447
 163  941.9722
 164  823.3962
 165  693.8604
 166  665.975
 167  730.4086
 168  729.413
 169  764.196
 170  884.7367
 171  841.4307
 172  737.4581
 173  668.8043
 174  643.1216
 175  663.7584
 176  636.6446
 177  569.3947
 178  700.9434
 179  809.6667
 180  900.6368
 181  897.2358
 182  758.6543
 183  596.2407
 184  601.9807
 185  740.988
 186  710.5679
 187  605.332
 188  724.0829
 189  761.8447
 190  701.5151
 191  641.275
 192  584.6738
 193  557.7828
 194  666.3829
 195  869.1447
 196  801.7415
 197  721.1498
 198  735.4399
 199  586.0869
 200  577.5598
 201  656.2847
 202  616.3617
 203  519.9867
 204  732.441
 205  824.4643
 206  595.3965
 207  543.6313
 208  477.5674
 209  419.6557
 210  460.7578
 211  684.1985
 212  765.8334
 213  787.5856
 214  691.0983
 215  643.3515
 216  609.7976
 217  640.8013
 218  645.0214
 219  586.9634
 220  615.9164
 221  686.7623
 222  682.8906
 223  643.2043
 224  510.1351
 225  471.6561
 226  532.942
 227  686.9667
 228  809.5598
 229  781.9606
 230  770.5942
 231  760.2291
 232  684.1158
 233  637.0716
 234  646.2921
 235  735.4334
 236  810.3364
 237  808.4294
 238  850.9939
 239  824.712
 240  646.731
 241  599.3326
 242  698.9814
 243  790.26
 244  801.568
 245  816.6356
 246  876.6331
 247  867.1179
 248  748.392
 249  735.062
 250  741.3165
 251  686.0984
 252  829.8989
 253  914.9617
 254  823.6735
 255  839.3128
 256  755.6146
 257  580.7177
 258  621.6478
 259  689.5038
 260  780.284
 261  751.246
 262  908.9189
 263  968.7559
 264  781.2512
 265  689.1355
 266  720.689
 267  708.7638
 268  761.6649
 269  817.9697
 270  878.6306
 271  830.6356
 272  853.8097
 273  805.1942
 274  699.8416
 275  624.8839
 276  613.7353
 277  830.863
 278  842.6458
 279  815.0093
 280  805.4891
 281  807.7158
 282  853.3486
 283  721.2073
 284  674.2548
 285  667.2125
 286  799.929
 287  905.7662
 288  972.5596
 289  826.1223
 290  674.4039
 291  792.0453
 292  787.0516
 293  831.6035
 294  860.5882
 295  850.5331
 296  710.4891
 297  758.3947
 298  737.8807
 299  739.2824
 300  750.9776
 301  858.0456
 302  865.1914
 303  803.7623
 304  858.501
 305  732.239
 306  652.9507
 307  761.2911
 308  824.1536
 309  865.7073
 310  997.6521
 311  1047.972
 312  1001.843
 313  919.7263
 314  881.6269
 315  853.2233
 316  874.8402
 317  923.3286
 318  1008.754
 319  853.3938
 320  853.9202
 321  830.955
 322  788.0012
 323  775.3535
 324  891.0389
 325  840.4885
 326  999.6271
 327  979.7374
 328  861.1938
 329  831.5404
 330  738.2941
 331  834.298
 332  781.9776
 333  806.568
 334  805.5651
 335  826.3867
 336  862.8044
 337  805.2711
 338  757.4995
 339  673.3574
 340  836.6995
 341  728.1278
 342  673.782
 343  819.7249
 344  972.8083
 345  931.029
 346  850.848
 347  753.2929
 348  649.4578
 349  597.0874
 350  711.6824
 351  857.0115
 352  800.9249
 353  782.8624
 354  805.6896
 355  681.873
 356  697.6035
 357  793.148
 358  723.8062
 359  801.6613
 360  781.6238
 361  863.0937
 362  893.705
 363  744.8091
 364  686.6801
 365  616.7278
 366  682.3647
 367  703.1365
 368  822.2962
 369  930.6567
 370  861.5377
 371  818.277
 372  648.3329
 373  572.8947
 374  683.9373
 375  733.8375
 376  789.2328
 377  856.9039
 378  844.1664
 379  805.6636
 380  819.0087
 381  718.2595
 382  680.288
 383  738.9029
 384  760.6431
 385  827.4818
 386  716.862
 387  728.2125
 388  813.1661
 389  714.8985
 390  770.1992
 391  728.3307
 392  737.0316
 393  855.4418
 394  881.7991
 395  882.6624
 396  791.4047
 397  591.6114
 398  619.5822
 399  679.2601
 400  749.1123
 401  820.9473
 402  838.4872
 403  904.4318
 404  827.7639
 405  704.1807
 406  643.5651
 407  660.6763
 408  752.0652
 409  921.7141
 410  1004.491
 411  876.9418
 412  788.5944
 413  749.4954
 414  570.3961
 415  614.7861
 416  703.8521
 417  936.0497
 418  867.2538
 419  786.0567
 420  718.7762
 421  757.359
 422  683.6978
 423  716.241
 424  818.3318
 425  854.2767
 426  814.1918
 427  776.637
 428  820.6709
 429  815.0148
 430  773.5435
 431  759.6005
 432  758.4434
 433  770.4346
 434  825.1471
 435  896.7833
 436  870.9468
 437  726.7203
 438  758.9891
 439  797.8555
 440  723.0587
 441  681.2113
 442  890.6166
 443  946.4534
 444  931.1244
 445  895.3035
 446  817.5349
 447  690.4919
 448  653.508
 449  772.1717
 450  792.0088
 451  906.5325
 452  846.8676
 453  693.5928
 454  700.1713
 455  656.0031
 456  655.6848
 457  644.9808
 458  753.193
 459  836.0653
 460  959.9624
 461  1003.237
 462  830.8758
 463  765.4781
 464  711.4838
 465  879.9661
 466  806.5553
 467  844.838
 468  851.3517
 469  876.7249
 470  783.6042
 471  680.105
 472  713.731
 473  718.5492
 474  685.5776
 475  737.8993
 476  822.3094
 477  898.2384
 478  771.2473
 479  741.2139
 480  730.4385
 481  732.9136
 482  694.8321
 483  663.3233
 484  664.9703
 485  701.3459
 486  645.6025
 487  665.7386
 488  606.0558
 489  473.5172
 490  570.81
 491  726.4643
 492  873.3179
 493  864.3987
 494  838.8218
 495  734.551
 496  591.1793
 497  573.0005
 498  583.1711
 499  566.9093
 500  674.4886
 501  791.088
 502  769.4603
 503  732.3122
 504  613.9828
 505  568.3406
 506  615.4543
 507  686.7896
 508  763.9601
 509  1071.436
 510  1178.31
 511  1138.332
