# Input file       =  1204382832.118454_cleaned.dat
# Candidate        =  PSR_0332+5434
# Telescope        =  AR
# Epoch_topo       =  58183.615904148770
# Epoch_bary       =  N/A
# T_sample         =  0.002
# Data Folded      =  7340032
# Data Avg         =  0.0425459133940829
# Data StdDev      =  1.00012235873082 
# Profile Bins     =  512
# Profile Avg      =  609.977862869947 
# Profile StdDev   =  119.747686759135 
# Reduced chi-sqr  =  0.968
# Prob(Noise)      <  0.69   (~0.0 sigma)
# P_topo (ms)      =  714.579856690904  +/- 0.000631
# P'_topo (s/s)    =  -0                +/- 3.33e-10
# P''_topo (s/s^2) =  0                 +/- 1.47e-13
# P_bary (ms)      =  N/A
# P'_bary (s/s)    =  N/A
# P''_bary (s/s^2) =  N/A
# P_orb (s)        =  N/A
# asin(i)/c (s)    =  N/A
# eccentricity     =  N/A
# w (rad)          =  N/A
# T_peri           =  N/A
######################################################
   0  1034.494
   1  1085.988
   2  996.7503
   3  941.4066
   4  773.9926
   5  619.7264
   6  614.5516
   7  648.2758
   8  721.8242
   9  656.1019
  10  634.0253
  11  642.7787
  12  600.8602
  13  662.4684
  14  588.3005
  15  624.3761
  16  697.91
  17  565.1611
  18  489.8345
  19  532.0818
  20  525.1075
  21  516.9131
  22  574.3939
  23  608.1465
  24  632.9296
  25  538.9407
  26  524.7468
  27  468.055
  28  550.0092
  29  605.6823
  30  550.3679
  31  635.0864
  32  562.645
  33  396.3283
  34  396.7564
  35  470.2885
  36  503.7426
  37  474.8533
  38  504.8555
  39  552.1647
  40  504.8123
  41  576.0604
  42  589.7681
  43  614.0245
  44  599.4582
  45  589.7409
  46  475.8714
  47  464.7885
  48  568.0539
  49  507.1454
  50  499.2438
  51  509.9457
  52  445.2905
  53  434.4774
  54  485.9151
  55  530.6108
  56  534.5969
  57  542.54
  58  653.7641
  59  587.1329
  60  547.662
  61  557.3782
  62  533.8584
  63  505.4498
  64  479.2834
  65  538.4202
  66  663.9739
  67  648.2319
  68  540.246
  69  442.4719
  70  483.4702
  71  489.5081
  72  602.9984
  73  604.0582
  74  562.7822
  75  578.13
  76  642.1866
  77  680.3653
  78  646.5151
  79  697.2457
  80  633.2654
  81  605.1882
  82  653.3475
  83  640.6266
  84  631.9172
  85  682.5579
  86  633.4422
  87  617.2089
  88  676.4376
  89  733.6741
  90  757.5554
  91  754.8953
  92  816.325
  93  777.1058
  94  808.6964
  95  679.6479
  96  622.2934
  97  636.8179
  98  684.7974
  99  691.9043
 100  641.7286
 101  571.1462
 102  611.2676
 103  608.1741
 104  580.3679
 105  650.3395
 106  718.6169
 107  738.5316
 108  677.6218
 109  663.0541
 110  567.4049
 111  599.7745
 112  632.5723
 113  691.5572
 114  696.0772
 115  649.3895
 116  678.9236
 117  669.5061
 118  560.8447
 119  495.4194
 120  607.2965
 121  595.515
 122  614.5292
 123  566.1246
 124  633.1401
 125  691.6575
 126  659.2801
 127  607.0661
 128  606.9394
 129  629.0066
 130  627.5474
 131  622.795
 132  639.2169
 133  544.9658
 134  585.8828
 135  661.056
 136  611.7077
 137  594.9621
 138  597.7179
 139  558.8608
 140  467.0008
 141  534.734
 142  556.0295
 143  607.2668
 144  603.6278
 145  639.765
 146  697.7424
 147  646.5458
 148  641.5551
 149  654.3663
 150  634.8962
 151  644.1913
 152  681.4074
 153  681.098
 154  638.2913
 155  666.1698
 156  672.8837
 157  711.283
 158  687.257
 159  649.2518
 160  671.7215
 161  771.3274
 162  726.3568
 163  599.9532
 164  613.7363
 165  636.1096
 166  688.0067
 167  724.6135
 168  630.9505
 169  641.3909
 170  700.9939
 171  685.5175
 172  736.1173
 173  784.4232
 174  765.4357
 175  689.5721
 176  582.9118
 177  618.6385
 178  704.7485
 179  726.5424
 180  692.5139
 181  709.6123
 182  701.8403
 183  648.3901
 184  564.0988
 185  526.6712
 186  617.7025
 187  576.0223
 188  587.9316
 189  699.4892
 190  729.6816
 191  623.5577
 192  609.2516
 193  619.4839
 194  618.7484
 195  701.8675
 196  721.5295
 197  658.1826
 198  581.5677
 199  572.9614
 200  706.3918
 201  747.4979
 202  676.6018
 203  674.2527
 204  685.5589
 205  609.9316
 206  589.6208
 207  675.6676
 208  608.1951
 209  598.4266
 210  569.923
 211  609.5526
 212  662.2976
 213  599.3926
 214  613.1168
 215  587.6234
 216  592.2974
 217  551.6099
 218  572.8151
 219  488.0094
 220  550.7276
 221  559.9189
 222  547.9927
 223  537.0478
 224  631.5391
 225  574.7264
 226  500.1436
 227  511.6609
 228  528.8607
 229  595.4258
 230  560.274
 231  559.8932
 232  568.4659
 233  639.6458
 234  617.1821
 235  480.1976
 236  490.7278
 237  537.533
 238  596.3362
 239  494.7797
 240  510.757
 241  556.4473
 242  517.2222
 243  522.1807
 244  521.9965
 245  497.33
 246  540.1929
 247  456.4583
 248  498.6426
 249  544.3746
 250  509.7951
 251  517.6689
 252  560.7177
 253  464.2371
 254  448.7961
 255  528.9292
 256  650.3897
 257  608.8144
 258  600.7135
 259  605.8386
 260  632.4332
 261  653.6767
 262  607.3069
 263  667.5192
 264  655.2819
 265  711.7263
 266  752.0565
 267  686.8553
 268  655.4336
 269  758.5627
 270  788.2957
 271  638.4785
 272  598.7224
 273  569.0538
 274  577.3286
 275  646.4012
 276  662.7052
 277  567.2725
 278  544.4223
 279  586.1223
 280  556.226
 281  593.4945
 282  671.2595
 283  636.1832
 284  585.2603
 285  691.2205
 286  630.0984
 287  515.7113
 288  481.2336
 289  582.8792
 290  630.4437
 291  584.9192
 292  544.2598
 293  581.1062
 294  598.9546
 295  630.516
 296  603.6395
 297  650.2608
 298  629.012
 299  653.2138
 300  637.1429
 301  705.8028
 302  773.7631
 303  742.6454
 304  665.7699
 305  563.7439
 306  587.0406
 307  657.788
 308  640.5793
 309  725.7165
 310  722.0884
 311  687.1363
 312  688.8612
 313  683.094
 314  576.9693
 315  628.2145
 316  688.7468
 317  646.5063
 318  531.5895
 319  487.5242
 320  506.9287
 321  515.6799
 322  553.772
 323  564.7365
 324  508.5674
 325  604.6393
 326  640.3949
 327  621.4265
 328  560.7433
 329  541.9689
 330  505.3223
 331  586.8618
 332  636.1359
 333  596.57
 334  605.8231
 335  648.9748
 336  605.9492
 337  580.3047
 338  567.3511
 339  499.6621
 340  475.9557
 341  464.5765
 342  526.566
 343  548.9474
 344  509.1414
 345  504.914
 346  495.2099
 347  526.0209
 348  474.8466
 349  433.2171
 350  486.591
 351  575.4001
 352  685.15
 353  653.1842
 354  612.1313
 355  526.5182
 356  622.5993
 357  607.3708
 358  580.8026
 359  542.8858
 360  526.7052
 361  508.6604
 362  451.3141
 363  502.8044
 364  632.3062
 365  530.327
 366  597.3467
 367  683.4346
 368  576.559
 369  566.642
 370  585.787
 371  695.8266
 372  680.6626
 373  566.7628
 374  591.9004
 375  568.5163
 376  627.8342
 377  597.3942
 378  554.4254
 379  585.4066
 380  623.5108
 381  593.4127
 382  579.7386
 383  605.9604
 384  587.1681
 385  584.8129
 386  658.1438
 387  665.3292
 388  600.9321
 389  569.2505
 390  619.4084
 391  589.6158
 392  483.9974
 393  447.2884
 394  556.3758
 395  531.7358
 396  535.6611
 397  504.1192
 398  577.392
 399  572.9785
 400  589.5318
 401  602.4623
 402  580.3474
 403  512.8893
 404  540.4152
 405  536.9897
 406  556.5221
 407  598.214
 408  551.7394
 409  580.9352
 410  514.8186
 411  558.6114
 412  675.5045
 413  702.7928
 414  647.0381
 415  613.8687
 416  584.0232
 417  638.4136
 418  681.9791
 419  588.4296
 420  584.4363
 421  544.3237
 422  508.0734
 423  540.5839
 424  601.6233
 425  707.1161
 426  715.952
 427  601.7875
 428  555.5075
 429  536.578
 430  585.7166
 431  532.5421
 432  583.192
 433  635.8688
 434  573.4512
 435  538.2243
 436  566.876
 437  592.2093
 438  627.3909
 439  602.6868
 440  578.2145
 441  526.3303
 442  555.146
 443  536.526
 444  491.4355
 445  455.4221
 446  461.8272
 447  465.4896
 448  534.7943
 449  492.3896
 450  509.5876
 451  605.7384
 452  614.0538
 453  648.2482
 454  635.6633
 455  611.011
 456  665.9307
 457  664.2609
 458  671.2211
 459  735.466
 460  746.1399
 461  689.2567
 462  693.5642
 463  752.1599
 464  715.8813
 465  644.4276
 466  616.6711
 467  609.534
 468  630.1096
 469  624.9893
 470  668.3613
 471  611.6586
 472  667.6927
 473  580.315
 474  590.308
 475  727.7979
 476  719.0412
 477  625.5524
 478  652.3666
 479  579.8807
 480  615.9679
 481  675.205
 482  675.9365
 483  622.2489
 484  699.7855
 485  638.2211
 486  600.5085
 487  656.2572
 488  627.6728
 489  652.2784
 490  677.5474
 491  685.7322
 492  603.3839
 493  634.8871
 494  724.317
 495  600.2301
 496  620.2579
 497  712.8034
 498  645.8253
 499  647.6037
 500  668.5278
 501  652.1006
 502  633.769
 503  606.0776
 504  634.1494
 505  681.9387
 506  587.6526
 507  703.7145
 508  829.142
 509  886.3792
 510  890.7498
 511  937.5229
