# Input file       =  1204290524.108213_cleaned.dat
# Candidate        =  PSR_0332+5434
# Telescope        =  AR
# Epoch_topo       =  58182.547524400616
# Epoch_bary       =  N/A
# T_sample         =  0.002
# Data Folded      =  7340032
# Data Avg         =  0.050480268265073
# Data StdDev      =  1.00012477765193 
# Profile Bins     =  512
# Profile Avg      =  723.824416106844 
# Profile StdDev   =  119.747976383904 
# Reduced chi-sqr  =  1.076
# Prob(Noise)      <  0.115   (~1.2 sigma)
# P_topo (ms)      =  714.579928435579  +/- 0.000454
# P'_topo (s/s)    =  -0                +/- 2.39e-10
# P''_topo (s/s^2) =  0                 +/- 1.06e-13
# P_bary (ms)      =  N/A
# P'_bary (s/s)    =  N/A
# P''_bary (s/s^2) =  N/A
# P_orb (s)        =  N/A
# asin(i)/c (s)    =  N/A
# eccentricity     =  N/A
# w (rad)          =  N/A
# T_peri           =  N/A
######################################################
   0  1213.911
   1  1095.752
   2  846.9025
   3  809.1674
   4  735.876
   5  708.7825
   6  719.7451
   7  723.4091
   8  678.6924
   9  694.8663
  10  747.7466
  11  698.0265
  12  615.2838
  13  654.4387
  14  658.9271
  15  704.6215
  16  676.6772
  17  632.8416
  18  593.263
  19  550.5433
  20  607.265
  21  614.676
  22  693.3243
  23  644.4973
  24  714.4394
  25  688.8145
  26  707.1534
  27  652.5014
  28  672.9288
  29  675.4871
  30  703.5339
  31  754.8453
  32  734.8486
  33  728.5932
  34  727.5511
  35  655.1843
  36  657.0026
  37  613.0466
  38  617.6893
  39  659.3301
  40  689.5581
  41  736.4832
  42  713.2657
  43  770.0065
  44  810.956
  45  702.5626
  46  691.0219
  47  679.8456
  48  650.1882
  49  546.1887
  50  599.6757
  51  598.2725
  52  672.4766
  53  600.7081
  54  586.2248
  55  611.8702
  56  602.6683
  57  581.0466
  58  636.3735
  59  625.3781
  60  693.7283
  61  670.2095
  62  666.7954
  63  720.446
  64  751.4252
  65  703.3776
  66  730.6038
  67  635.8904
  68  682.0147
  69  759.8317
  70  796.2695
  71  745.2148
  72  753.4279
  73  800.4089
  74  772.55
  75  769.0091
  76  787.9192
  77  720.1974
  78  766.7318
  79  743.5725
  80  643.6416
  81  586.3887
  82  583.8264
  83  662.0292
  84  720.5157
  85  631.992
  86  683.2798
  87  613.7651
  88  701.8034
  89  654.5473
  90  663.2811
  91  692.4702
  92  637.4684
  93  700.5787
  94  636.8248
  95  683.0975
  96  659.6961
  97  697.6812
  98  755.5931
  99  713.2433
 100  717.092
 101  689.3502
 102  684.7038
 103  651.4226
 104  662.9368
 105  728.3066
 106  792.8131
 107  774.7089
 108  805.6601
 109  793.7856
 110  754.133
 111  710.0233
 112  577.8271
 113  675.4562
 114  641.2034
 115  608.3362
 116  606.3315
 117  598.6544
 118  663.0939
 119  594.823
 120  615.1949
 121  608.2568
 122  616.6107
 123  624.4367
 124  620.3373
 125  630.7309
 126  704.826
 127  530.0572
 128  490.6835
 129  549.3165
 130  628.7877
 131  653.2936
 132  681.4681
 133  660.9376
 134  644.3417
 135  596.6032
 136  568.8498
 137  602.4911
 138  602.6625
 139  666.0059
 140  715.4658
 141  820.1957
 142  795.2654
 143  707.1967
 144  631.3727
 145  627.5516
 146  697.67
 147  726.5043
 148  668.1242
 149  662.9794
 150  670.8707
 151  675.8824
 152  677.96
 153  646.2086
 154  664.6656
 155  650.7098
 156  694.922
 157  730.0146
 158  649.6082
 159  651.2429
 160  560.0771
 161  676.2878
 162  680.4553
 163  804.4828
 164  737.6244
 165  554.1656
 166  627.6128
 167  631.0248
 168  638.4443
 169  685.1479
 170  773.5297
 171  712.8894
 172  669.5284
 173  740.772
 174  686.5815
 175  637.7782
 176  735.8941
 177  752.1217
 178  689.444
 179  677.4178
 180  742.2314
 181  705.9209
 182  774.9587
 183  750.5632
 184  728.3305
 185  800.4388
 186  759.756
 187  728.3829
 188  749.4191
 189  820.0634
 190  805.3167
 191  640.3761
 192  615.2194
 193  700.8251
 194  682.9349
 195  699.4001
 196  647.7423
 197  549.6459
 198  637.0671
 199  609.9398
 200  607.2219
 201  679.4705
 202  728.841
 203  659.5198
 204  599.9529
 205  521.6504
 206  649.7324
 207  584.0875
 208  583.4177
 209  704.0738
 210  680.5522
 211  669.1544
 212  707.5338
 213  690.1517
 214  695.3792
 215  751.4534
 216  681.6061
 217  778.6423
 218  661.6269
 219  622.6295
 220  579.157
 221  636.0425
 222  692.5005
 223  638.7579
 224  635.0421
 225  606.4332
 226  612.8223
 227  620.1378
 228  598.7089
 229  584.7759
 230  560.1868
 231  570.5425
 232  624.7259
 233  593.4147
 234  657.6196
 235  687.2202
 236  596.0436
 237  636.526
 238  680.7488
 239  676.0622
 240  650.1616
 241  701.8752
 242  803.5532
 243  809.5295
 244  809.7399
 245  784.8794
 246  784.3284
 247  764.508
 248  776.019
 249  845.9769
 250  911.0466
 251  872.5962
 252  692.4484
 253  741.1576
 254  781.6877
 255  729.9621
 256  725.3322
 257  813.5153
 258  797.3816
 259  809.5886
 260  698.437
 261  667.8325
 262  808.1623
 263  837.7801
 264  886.8812
 265  836.2445
 266  834.0101
 267  858.3641
 268  764.7546
 269  788.2869
 270  889.4364
 271  822.068
 272  758.1578
 273  631.2588
 274  639.4615
 275  675.4863
 276  691.2222
 277  719.6835
 278  699.4604
 279  738.3214
 280  773.7498
 281  719.8167
 282  785.2205
 283  857.1516
 284  911.0462
 285  809.5887
 286  690.6071
 287  657.4594
 288  714.6295
 289  743.9369
 290  688.7927
 291  671.7062
 292  794.5916
 293  777.779
 294  669.3796
 295  675.8278
 296  660.0881
 297  701.0336
 298  738.5217
 299  751.4915
 300  729.4922
 301  777.6123
 302  846.67
 303  716.4348
 304  727.5871
 305  699.975
 306  666.2946
 307  656.7848
 308  630.7212
 309  741.9219
 310  704.6544
 311  615.4083
 312  640.2963
 313  668.4417
 314  678.3989
 315  630.9368
 316  646.7993
 317  686.8614
 318  725.8766
 319  681.7819
 320  698.2448
 321  740.6667
 322  698.9195
 323  644.7063
 324  726.8088
 325  821.6682
 326  821.2037
 327  863.5258
 328  780.6305
 329  721.6645
 330  736.0148
 331  803.8617
 332  729.0515
 333  714.3171
 334  783.716
 335  676.5597
 336  708.4237
 337  769.3055
 338  742.6049
 339  841.3393
 340  707.9901
 341  703.7261
 342  777.7278
 343  892.6062
 344  862.8044
 345  867.7163
 346  795.5264
 347  960.3689
 348  922.8784
 349  932.1144
 350  892.3387
 351  966.5011
 352  972.5268
 353  854.7363
 354  765.3917
 355  820.9377
 356  870.524
 357  851.565
 358  789.5346
 359  748.8254
 360  828.6142
 361  883.4366
 362  790.6376
 363  792.7065
 364  734.6599
 365  727.679
 366  828.3923
 367  914.8965
 368  854.9183
 369  761.2241
 370  768.7565
 371  779.087
 372  777.5181
 373  792.2162
 374  906.379
 375  861.8958
 376  908.5231
 377  884.1036
 378  842.5153
 379  794.3448
 380  773.2538
 381  672.5353
 382  686.9713
 383  627.7716
 384  621.3516
 385  815.4183
 386  782.4399
 387  791.205
 388  739.1776
 389  745.4218
 390  759.2847
 391  690.5272
 392  703.5916
 393  791.7072
 394  823.616
 395  795.8975
 396  737.2861
 397  730.8433
 398  780.4448
 399  770.5453
 400  773.1196
 401  742.907
 402  734.1135
 403  703.3299
 404  671.1155
 405  687.7242
 406  747.9846
 407  711.8761
 408  770.2097
 409  811.8297
 410  858.6399
 411  747.8528
 412  669.0773
 413  784.7067
 414  709.08
 415  804.4486
 416  800.1176
 417  773.5828
 418  602.9083
 419  641.7755
 420  754.3008
 421  741.3002
 422  654.7377
 423  683.135
 424  770.9072
 425  685.5338
 426  657.1005
 427  613.095
 428  689.6166
 429  872.1364
 430  910.9803
 431  835.0673
 432  762.3287
 433  719.2997
 434  746.7307
 435  829.0981
 436  735.1068
 437  827.2454
 438  786.7215
 439  761.1166
 440  682.6387
 441  610.3298
 442  697.3896
 443  701.2189
 444  697.6194
 445  718.0006
 446  721.6724
 447  755.6599
 448  805.8855
 449  777.4078
 450  672.6011
 451  667.2722
 452  673.3264
 453  688.121
 454  780.0691
 455  842.6473
 456  859.5409
 457  876.9916
 458  827.7345
 459  835.863
 460  862.0144
 461  822.0129
 462  867.6588
 463  866.671
 464  763.2458
 465  771.3118
 466  850.8406
 467  893.874
 468  812.2684
 469  729.494
 470  825.8253
 471  834.5452
 472  811.3868
 473  811.612
 474  775.048
 475  729.1638
 476  726.9852
 477  689.1968
 478  706.8823
 479  715.592
 480  692.0994
 481  782.3803
 482  685.6104
 483  697.8909
 484  818.4963
 485  845.8835
 486  787.3163
 487  702.0056
 488  741.712
 489  706.4136
 490  645.7662
 491  785.3743
 492  721.6636
 493  611.8041
 494  696.8613
 495  777.9211
 496  763.4285
 497  815.5734
 498  726.7374
 499  667.627
 500  708.1427
 501  760.2964
 502  721.5198
 503  689.0956
 504  696.6088
 505  763.908
 506  788.7021
 507  799.1918
 508  882.5003
 509  961.2344
 510  990.0873
 511  1124.094
