# Input file       =  1205152155.100529_cleaned.dat
# Candidate        =  PSR_0332+5434
# Telescope        =  AR
# Epoch_topo       =  58192.520105330193
# Epoch_bary       =  N/A
# T_sample         =  0.002
# Data Folded      =  7340032
# Data Avg         =  0.0514952132638173
# Data StdDev      =  1.00011920360581 
# Profile Bins     =  512
# Profile Avg      =  738.298604448617 
# Profile StdDev   =  119.747308986437 
# Reduced chi-sqr  =  1.391
# Prob(Noise)      <  1.07e-08   (~5.6 sigma)
# P_topo (ms)      =  714.577424269394  +/- 0.000235
# P'_topo (s/s)    =  -0                +/- 1.24e-10
# P''_topo (s/s^2) =  0                 +/- 5.46e-14
# P_bary (ms)      =  N/A
# P'_bary (s/s)    =  N/A
# P''_bary (s/s^2) =  N/A
# P_orb (s)        =  N/A
# asin(i)/c (s)    =  N/A
# eccentricity     =  N/A
# w (rad)          =  N/A
# T_peri           =  N/A
######################################################
   0  1261.589
   1  1239.882
   2  1092.083
   3  762.2704
   4  685.3028
   5  756.6753
   6  798.9288
   7  765.9025
   8  671.0425
   9  546.5774
  10  584.4096
  11  603.5151
  12  695.4406
  13  720.6548
  14  681.0228
  15  715.2984
  16  722.7219
  17  683.021
  18  820.5172
  19  865.3349
  20  770.0199
  21  816.0253
  22  777.4329
  23  755.2909
  24  803.0811
  25  697.5826
  26  680.9274
  27  627.0424
  28  664.113
  29  644.3923
  30  704.4095
  31  737.0815
  32  681.629
  33  545.2051
  34  635.8023
  35  658.9722
  36  640.2034
  37  610.5298
  38  607.8056
  39  687.3517
  40  730.7181
  41  767.384
  42  655.6871
  43  704.7952
  44  801.6034
  45  752.8141
  46  722.9557
  47  772.6443
  48  730.6478
  49  731.8772
  50  817.9922
  51  775.3784
  52  702.4741
  53  681.66
  54  708.2483
  55  778.979
  56  683.5807
  57  749.2194
  58  765.9204
  59  739.6053
  60  656.9838
  61  778.699
  62  878.7243
  63  900.9227
  64  866.7272
  65  856.4263
  66  739.7007
  67  745.1007
  68  765.5866
  69  809.2007
  70  723.7204
  71  709.0261
  72  675.1143
  73  686.4766
  74  671.37
  75  594.162
  76  703.3347
  77  827.7695
  78  845.1244
  79  883.7405
  80  857.375
  81  746.8121
  82  660.5203
  83  684.6505
  84  718.2219
  85  706.8242
  86  755.109
  87  703.1119
  88  751.352
  89  787.1768
  90  831.0411
  91  857.0858
  92  770.1903
  93  661.4584
  94  721.3719
  95  801.3116
  96  886.8251
  97  820.0596
  98  755.722
  99  688.663
 100  667.4913
 101  734.1827
 102  790.9822
 103  702.1559
 104  680.9854
 105  659.1858
 106  747.1617
 107  857.4392
 108  864.757
 109  724.3936
 110  778.7664
 111  819.5291
 112  906.9359
 113  877.1234
 114  807.4988
 115  851.2059
 116  767.0164
 117  735.849
 118  873.0411
 119  904.4384
 120  833.7149
 121  728.721
 122  796.6646
 123  796.3897
 124  857.4473
 125  817.3189
 126  806.0704
 127  784.3923
 128  687.3015
 129  605.3109
 130  646.8402
 131  687.6272
 132  694.2251
 133  836.9765
 134  774.2203
 135  717.0641
 136  742.9001
 137  707.9161
 138  698.16
 139  754.8715
 140  798.8058
 141  770.6855
 142  658.4167
 143  759.9324
 144  889.201
 145  834.6651
 146  828.7786
 147  928.4833
 148  792.4063
 149  708.0611
 150  719.563
 151  800.4312
 152  846.6921
 153  780.7858
 154  809.2902
 155  751.5214
 156  788.0341
 157  695.5818
 158  667.48
 159  675.2244
 160  750.3687
 161  812.5508
 162  813.8716
 163  863.9778
 164  873.5125
 165  849.4131
 166  789.4851
 167  824.4765
 168  874.957
 169  763.5024
 170  865.7357
 171  934.7507
 172  808.4892
 173  733.6553
 174  786.1263
 175  845.0908
 176  821.1656
 177  945.76
 178  942.3383
 179  793.3571
 180  774.8497
 181  781.4051
 182  748.9734
 183  758.4205
 184  765.7375
 185  699.1271
 186  612.1546
 187  578.8254
 188  616.2025
 189  629.3425
 190  689.4717
 191  678.147
 192  630.4031
 193  693.3144
 194  796.6813
 195  820.5511
 196  673.6809
 197  762.4456
 198  896.637
 199  910.913
 200  921.0801
 201  856.4916
 202  758.9388
 203  747.7056
 204  738.875
 205  908.976
 206  889.8641
 207  824.8747
 208  801.1198
 209  864.0837
 210  835.6881
 211  851.9208
 212  908.455
 213  917.0587
 214  751.2668
 215  752.6736
 216  731.1957
 217  803.3611
 218  897.7253
 219  833.9814
 220  754.3576
 221  815.4484
 222  797.8666
 223  867.7018
 224  802.923
 225  783.3708
 226  799.0376
 227  835.4368
 228  819.418
 229  869.812
 230  771.6284
 231  658.2322
 232  659.2488
 233  753.5154
 234  802.9402
 235  738.3882
 236  762.3267
 237  811.1438
 238  881.9476
 239  832.8135
 240  798.0798
 241  760.3779
 242  856.8275
 243  789.1221
 244  732.2719
 245  752.8632
 246  691.9239
 247  770.3978
 248  857.9131
 249  848.9586
 250  787.9185
 251  667.0826
 252  731.603
 253  749.0353
 254  782.2686
 255  728.1779
 256  583.1525
 257  539.8403
 258  693.605
 259  640.884
 260  696.4958
 261  707.8025
 262  751.035
 263  777.0588
 264  780.725
 265  798.3674
 266  667.3755
 267  688.5791
 268  751.2947
 269  705.049
 270  693.0063
 271  745.1134
 272  720.9829
 273  792.3989
 274  774.889
 275  768.7523
 276  850.9559
 277  779.9061
 278  671.1075
 279  689.8408
 280  686.0775
 281  760.0998
 282  779.6043
 283  806.7086
 284  819.8495
 285  823.0665
 286  956.5948
 287  988.1137
 288  949.0819
 289  812.2659
 290  786.338
 291  802.2631
 292  789.4473
 293  798.7468
 294  909.0262
 295  988.3671
 296  926.0798
 297  899.0751
 298  835.7772
 299  950.1318
 300  939.9104
 301  896.3522
 302  929.4368
 303  868.4811
 304  794.1216
 305  764.7557
 306  695.1296
 307  676.3249
 308  751.6445
 309  846.7034
 310  731.5085
 311  696.0056
 312  749.0908
 313  598.0851
 314  683.716
 315  724.7015
 316  839.4857
 317  808.7584
 318  690.4824
 319  651.1336
 320  712.5781
 321  715.7772
 322  681.341
 323  592.4197
 324  663.4099
 325  658.1358
 326  567.112
 327  695.4749
 328  733.8362
 329  692.7773
 330  737.6178
 331  870.8455
 332  858.5371
 333  670.897
 334  696.2266
 335  731.4725
 336  822.2931
 337  827.0181
 338  785.1966
 339  659.6884
 340  590.9025
 341  623.913
 342  616.249
 343  580.0854
 344  655.1785
 345  610.3109
 346  568.4031
 347  608.7355
 348  686.9752
 349  689.4747
 350  666.491
 351  630.7115
 352  679.3772
 353  658.3879
 354  613.1795
 355  544.7849
 356  571.4648
 357  601.9393
 358  695.0544
 359  602.8705
 360  595.9762
 361  651.4571
 362  668.7534
 363  601.6011
 364  650.9612
 365  774.7621
 366  821.8383
 367  721.238
 368  610.0605
 369  643.0798
 370  776.6709
 371  664.5217
 372  630.2576
 373  740.011
 374  815.0358
 375  682.1931
 376  641.5327
 377  721.4144
 378  792.8868
 379  764.5023
 380  800.2684
 381  869.7327
 382  791.632
 383  758.2426
 384  657.3017
 385  677.144
 386  677.7374
 387  727.7405
 388  692.4977
 389  744.9786
 390  563.9667
 391  563.3748
 392  587.594
 393  660.4174
 394  595.6255
 395  610.205
 396  609.1374
 397  562.2403
 398  577.296
 399  642.9021
 400  577.3208
 401  569.451
 402  661.2127
 403  635.5963
 404  590.9236
 405  642.1078
 406  665.3695
 407  638.3602
 408  541.8109
 409  674.4498
 410  699.7254
 411  666.893
 412  591.114
 413  666.1378
 414  636.3355
 415  669.2268
 416  746.6006
 417  795.3151
 418  782.9153
 419  682.5341
 420  630.5214
 421  674.1051
 422  741.4918
 423  634.813
 424  601.5799
 425  661.4877
 426  731.7357
 427  584.4396
 428  685.1721
 429  709.0289
 430  742.1567
 431  723.9215
 432  719.9942
 433  636.4499
 434  717.0053
 435  848.458
 436  807.5571
 437  785.8676
 438  722.949
 439  750.7001
 440  727.4663
 441  673.7432
 442  700.3382
 443  680.0637
 444  734.1871
 445  655.676
 446  694.6295
 447  720.5492
 448  733.6617
 449  787.3463
 450  694.4708
 451  630.8661
 452  684.1858
 453  702.5734
 454  771.8694
 455  751.7274
 456  668.99
 457  608.1744
 458  507.3969
 459  588.0201
 460  707.5014
 461  675.4228
 462  677.8735
 463  602.2014
 464  657.0432
 465  607.6965
 466  607.9006
 467  630.1326
 468  648.6722
 469  781.1634
 470  699.1899
 471  710.8341
 472  698.6638
 473  656.7667
 474  689.9547
 475  712.8661
 476  725.0168
 477  746.108
 478  674.1847
 479  690.041
 480  669.3377
 481  582.6024
 482  673.3192
 483  652.1627
 484  686.8978
 485  571.8178
 486  675.3981
 487  619.9022
 488  541.5344
 489  545.7312
 490  617.1904
 491  730.0015
 492  743.3115
 493  650.4933
 494  730.4216
 495  582.4844
 496  540.2384
 497  544.7872
 498  615.327
 499  672.894
 500  702.3583
 501  758.4268
 502  715.9348
 503  607.4577
 504  728.1227
 505  780.9678
 506  777.156
 507  750.9958
 508  925.2432
 509  952.285
 510  1107.718
 511  1291.709
