# Input file       =  1205913080.105604_cleaned.dat
# Candidate        =  PSR_0332+5434
# Telescope        =  AR
# Epoch_topo       =  58201.327107703750
# Epoch_bary       =  N/A
# T_sample         =  0.002
# Data Folded      =  7143424
# Data Avg         =  0.0850937837921376
# Data StdDev      =  1.00007889448683 
# Profile Bins     =  512
# Profile Avg      =  1187.16512667164 
# Profile StdDev   =  118.127903386974 
# Reduced chi-sqr  =  1.746
# Prob(Noise)      <  4.02e-23   (~9.8 sigma)
# P_topo (ms)      =  714.573765446502  +/- 0.000153
# P'_topo (s/s)    =  -0                +/- 8.31e-11
# P''_topo (s/s^2) =  0                 +/- 3.77e-14
# P_bary (ms)      =  N/A
# P'_bary (s/s)    =  N/A
# P''_bary (s/s^2) =  N/A
# P_orb (s)        =  N/A
# asin(i)/c (s)    =  N/A
# eccentricity     =  N/A
# w (rad)          =  N/A
# T_peri           =  N/A
######################################################
   0  1882.492
   1  1980.065
   2  1924.013
   3  1663.283
   4  1404.952
   5  1334.348
   6  1259.684
   7  1152.74
   8  1189.366
   9  1267.602
  10  1205.735
  11  1179.449
  12  1346.616
  13  1313.252
  14  1245.092
  15  1226.738
  16  1259.847
  17  1331.31
  18  1341.271
  19  1361.826
  20  1129.004
  21  1139.554
  22  1218.935
  23  1208.057
  24  1184.785
  25  1131.747
  26  1263.422
  27  1302.408
  28  1324.818
  29  1261.304
  30  1238.74
  31  1293.227
  32  1220.042
  33  1251.211
  34  1165.008
  35  1244.347
  36  1252.859
  37  1178.84
  38  1183.843
  39  1202.44
  40  1250.898
  41  1234.837
  42  1209.769
  43  1312.339
  44  1230.165
  45  1196.584
  46  1228.031
  47  1167.253
  48  1084.029
  49  1183.957
  50  1173.136
  51  1179.339
  52  1231.79
  53  1164.626
  54  1123.676
  55  1121.843
  56  1102.103
  57  1117.756
  58  1185.223
  59  1259.098
  60  1199.545
  61  1267.584
  62  1210.785
  63  1196.211
  64  1189.599
  65  1095.275
  66  1156.04
  67  1222.906
  68  1295.006
  69  1307.181
  70  1286.865
  71  1196.373
  72  1213.735
  73  1104.502
  74  1062.591
  75  1158.521
  76  1318.612
  77  1283.152
  78  1280.201
  79  1182.679
  80  1165.475
  81  1103.676
  82  1042.727
  83  1091.652
  84  1312.687
  85  1280.913
  86  1296.535
  87  1211.923
  88  1209.977
  89  1253.837
  90  1149.991
  91  1182.774
  92  1276.118
  93  1315.97
  94  1345.875
  95  1280.544
  96  1282.912
  97  1269.667
  98  1242.851
  99  1180.388
 100  1228.468
 101  1220.57
 102  1234.061
 103  1209.823
 104  1184.005
 105  1186.881
 106  1096.026
 107  1147.782
 108  1229.647
 109  1277.599
 110  1342.781
 111  1265.808
 112  1264.388
 113  1222.027
 114  1237.426
 115  1164.589
 116  1132.654
 117  1190.235
 118  1244.108
 119  1137.979
 120  1206.05
 121  1191.102
 122  1171.924
 123  1224.15
 124  1184.614
 125  1247.098
 126  1326.1
 127  1279.171
 128  1295.158
 129  1269.193
 130  1185.069
 131  1099.977
 132  1206.971
 133  1283.451
 134  1278.938
 135  1291.644
 136  1211.037
 137  1252.677
 138  1272.706
 139  1223.087
 140  1190.218
 141  1229.317
 142  1316.138
 143  1337.23
 144  1246.719
 145  1180.755
 146  1206.899
 147  1169.625
 148  1183.047
 149  1160.017
 150  1203.311
 151  1280.926
 152  1156.281
 153  1124.501
 154  1050.921
 155  1126.882
 156  1102.613
 157  1050.475
 158  1083.54
 159  1224.169
 160  1172.614
 161  1080.803
 162  1192.035
 163  1151.416
 164  1104.796
 165  1138.087
 166  1087.684
 167  1083.167
 168  1130.611
 169  1041.58
 170  1017.258
 171  1132.031
 172  1160.535
 173  1183.21
 174  1170.516
 175  1219.866
 176  1149.321
 177  1132.099
 178  1171.519
 179  1236.777
 180  1202.637
 181  1142.491
 182  1108.202
 183  1196.545
 184  1182.252
 185  1148.122
 186  1123.178
 187  1196.547
 188  1252.338
 189  1102.289
 190  1160.068
 191  1141.502
 192  1130.431
 193  1142.889
 194  1156.516
 195  1118.734
 196  1139.745
 197  1112.447
 198  1074.521
 199  1096.691
 200  1102.365
 201  1137.373
 202  1157.721
 203  1139.026
 204  1030.523
 205  1109.014
 206  1119.779
 207  1121.458
 208  1236.619
 209  1321.032
 210  1161.455
 211  1202.872
 212  1133.876
 213  1115.652
 214  1230.839
 215  1152.413
 216  1147.923
 217  1236.046
 218  1181.363
 219  1091.705
 220  1126.036
 221  1112.295
 222  1198.758
 223  1172.901
 224  1306.314
 225  1272.777
 226  1212
 227  1232.655
 228  1212.057
 229  1177.635
 230  1083.799
 231  1159.667
 232  1122.226
 233  1093.363
 234  1019.45
 235  1176.604
 236  1186.962
 237  1032.861
 238  1092.875
 239  1000.781
 240  1114.895
 241  1248.929
 242  1168.747
 243  1234.682
 244  1241.979
 245  1208.63
 246  1186.937
 247  1112.314
 248  1154.867
 249  1023.668
 250  1056.965
 251  1185.523
 252  1204.488
 253  1112.73
 254  1073.922
 255  1053.071
 256  1159.385
 257  1111.141
 258  1052.725
 259  1146.903
 260  1164.226
 261  1177.429
 262  1069.224
 263  1114.225
 264  1277.73
 265  1145.779
 266  1123.362
 267  1176.619
 268  1238.347
 269  1172.994
 270  1269.503
 271  1237.914
 272  1248.896
 273  1191.456
 274  1260.568
 275  1251.728
 276  1168.012
 277  1200.236
 278  1194.62
 279  1134.257
 280  1163.453
 281  1169.927
 282  1183.205
 283  1066.743
 284  1099.069
 285  1209.752
 286  1261.34
 287  1380.048
 288  1178.706
 289  1176.197
 290  1192.717
 291  1276.222
 292  1189.62
 293  1140.679
 294  1244.508
 295  1250.886
 296  1313.804
 297  1259.539
 298  1118.606
 299  1248.592
 300  1299.961
 301  1262.918
 302  1290.529
 303  1150.639
 304  1076.47
 305  1190.259
 306  1332.916
 307  1365.422
 308  1393.941
 309  1335.611
 310  1363.255
 311  1215.183
 312  1263.189
 313  1170.598
 314  1193.272
 315  1179.867
 316  1236.177
 317  1255.442
 318  1214.916
 319  1238.395
 320  1281.221
 321  1257.164
 322  1226.726
 323  1408.22
 324  1356.624
 325  1273.875
 326  1215.184
 327  1261.621
 328  1292.239
 329  1190.882
 330  1162.115
 331  1202.106
 332  1245.938
 333  1203.795
 334  1194.983
 335  1131.585
 336  1208.213
 337  1177.983
 338  1201.797
 339  1175.263
 340  1202.32
 341  1233.104
 342  1259.797
 343  1342.286
 344  1320.983
 345  1203.504
 346  1175.931
 347  1041.815
 348  1180.298
 349  1207.177
 350  1070.868
 351  1072.645
 352  1144.192
 353  1134.966
 354  1099.921
 355  1097.506
 356  1065.996
 357  1146.908
 358  1182.16
 359  1098.444
 360  1208.528
 361  1198.668
 362  1184.245
 363  1074.475
 364  1143.872
 365  1218.516
 366  1193.428
 367  1189.448
 368  1256.548
 369  1221.046
 370  1123.381
 371  1008.9
 372  1022.537
 373  1141.276
 374  1128.349
 375  1184.154
 376  1181.473
 377  1239.61
 378  1233.009
 379  1212.215
 380  1193.705
 381  1212.239
 382  1225.244
 383  1170.956
 384  1120.913
 385  1179.628
 386  1252.936
 387  1300.54
 388  1307.468
 389  1371.364
 390  1280.131
 391  1261.722
 392  1215.324
 393  1170.777
 394  1104.89
 395  1095.997
 396  1147.365
 397  1176.987
 398  1173.896
 399  1139.914
 400  1250.551
 401  1262.931
 402  1146.769
 403  1100.862
 404  1099.403
 405  1189.635
 406  1155.262
 407  1238.981
 408  1238.017
 409  1138.95
 410  1146.827
 411  1100.819
 412  1056.215
 413  1045.236
 414  1113.744
 415  1198.275
 416  1165.014
 417  1104.119
 418  1049.366
 419  1034.539
 420  981.3419
 421  960.1586
 422  1027.777
 423  1050.236
 424  1124.971
 425  1100.292
 426  1136.416
 427  1096.387
 428  1047.937
 429  915.902
 430  925.0962
 431  1091.69
 432  1076.548
 433  1059.939
 434  1055.062
 435  1009.246
 436  982.4123
 437  948.2001
 438  1074.139
 439  1061.34
 440  1086.627
 441  1126.075
 442  1103.334
 443  1035.547
 444  967.4008
 445  920.0886
 446  1007.574
 447  1085.848
 448  1109.307
 449  1093.904
 450  980.6066
 451  1040.45
 452  1090.37
 453  1050.192
 454  1071.973
 455  1112.13
 456  1077.213
 457  1150.473
 458  1128.77
 459  1079.389
 460  1097.95
 461  1014.937
 462  1035.535
 463  1079.633
 464  1093.735
 465  1078.563
 466  1120.24
 467  1035.148
 468  1002.175
 469  1025.069
 470  1047.082
 471  1072.204
 472  1098.47
 473  1166.722
 474  1091.231
 475  1134.685
 476  1222.957
 477  1086.798
 478  1150.103
 479  1131.415
 480  1080.156
 481  1083.868
 482  1123.675
 483  1222.558
 484  1130.651
 485  1138.672
 486  1073.84
 487  1027.628
 488  1289.909
 489  1326.855
 490  1271.698
 491  1244.852
 492  1318.516
 493  1256.47
 494  1263.416
 495  1211.851
 496  1250.081
 497  1315.489
 498  1359.922
 499  1347.494
 500  1230.698
 501  1221.995
 502  1163.021
 503  1201.252
 504  1213.069
 505  1335.788
 506  1271.788
 507  1353.032
 508  1466.734
 509  1592.899
 510  1682.693
 511  1768.937
