# Input file       =  1205755380.118942_cleaned.dat
# Candidate        =  PSR_0332+5434
# Telescope        =  AR
# Epoch_topo       =  58199.501876376642
# Epoch_bary       =  N/A
# T_sample         =  0.002
# Data Folded      =  7340032
# Data Avg         =  0.09228700819808 
# Data StdDev      =  1.00015134620955 
# Profile Bins     =  512
# Profile Avg      =  1323.30130074733 
# Profile StdDev   =  119.75115751798  
# Reduced chi-sqr  =  1.252
# Prob(Noise)      <  8.85e-05   (~3.7 sigma)
# P_topo (ms)      =  714.574639230331  +/- 0.000515
# P'_topo (s/s)    =  -0                +/- 2.72e-10
# P''_topo (s/s^2) =  0                 +/- 1.2e-13
# P_bary (ms)      =  N/A
# P'_bary (s/s)    =  N/A
# P''_bary (s/s^2) =  N/A
# P_orb (s)        =  N/A
# asin(i)/c (s)    =  N/A
# eccentricity     =  N/A
# w (rad)          =  N/A
# T_peri           =  N/A
######################################################
   0  1858.539
   1  1876.107
   2  1715.807
   3  1472.087
   4  1373.703
   5  1290.422
   6  1178.339
   7  1236.209
   8  1267.677
   9  1273.72
  10  1218.166
  11  1251.24
  12  1339.44
  13  1300.035
  14  1267.533
  15  1352.424
  16  1430.339
  17  1408.863
  18  1267.908
  19  1270.386
  20  1261.385
  21  1187.835
  22  1275.906
  23  1183.253
  24  1155.191
  25  1250.149
  26  1229.103
  27  1219.518
  28  1233.909
  29  1236.325
  30  1186.661
  31  1162.743
  32  1279.013
  33  1269.166
  34  1296.106
  35  1259.917
  36  1233.446
  37  1234.819
  38  1276.358
  39  1230.126
  40  1203.649
  41  1161.077
  42  1204.114
  43  1219.113
  44  1202.381
  45  1138.705
  46  1145.026
  47  1168.508
  48  1220.355
  49  1161.661
  50  1180.307
  51  1205.38
  52  1217.867
  53  1133.416
  54  1130.076
  55  1084.272
  56  1138.234
  57  1133.914
  58  1157.729
  59  1141.95
  60  1222.186
  61  1267.757
  62  1240.227
  63  1209.873
  64  1175.141
  65  1169.358
  66  1163.478
  67  1287.163
  68  1294.144
  69  1260.984
  70  1248.681
  71  1375.519
  72  1376.866
  73  1344.78
  74  1349.485
  75  1364.513
  76  1368.158
  77  1375.636
  78  1361.532
  79  1320.727
  80  1267.119
  81  1360.383
  82  1313.904
  83  1405.609
  84  1314.583
  85  1260.299
  86  1215.654
  87  1221.919
  88  1322.765
  89  1300.927
  90  1305.82
  91  1326.775
  92  1319.506
  93  1333.238
  94  1325.919
  95  1394.006
  96  1352.183
  97  1338.318
  98  1319.732
  99  1260.066
 100  1345.626
 101  1290.807
 102  1317.689
 103  1324.352
 104  1244.464
 105  1360.324
 106  1440.1
 107  1423.408
 108  1387.425
 109  1386.187
 110  1342.533
 111  1343.583
 112  1414.011
 113  1424.836
 114  1381.316
 115  1388.723
 116  1471.916
 117  1425.434
 118  1417.747
 119  1464.604
 120  1521.236
 121  1454.063
 122  1346.477
 123  1322.336
 124  1214.532
 125  1294.822
 126  1367.92
 127  1338.979
 128  1319.28
 129  1261.017
 130  1231.13
 131  1204.026
 132  1267.315
 133  1302.34
 134  1266.999
 135  1332.936
 136  1384.292
 137  1291.14
 138  1264.759
 139  1373.591
 140  1302.147
 141  1260.898
 142  1285.534
 143  1294.104
 144  1368.746
 145  1405.312
 146  1342.154
 147  1278.507
 148  1208.135
 149  1182.68
 150  1248.417
 151  1321.819
 152  1304.34
 153  1314.424
 154  1233.883
 155  1254.497
 156  1253.465
 157  1296.647
 158  1270.258
 159  1244.622
 160  1223.05
 161  1243.48
 162  1232.001
 163  1229.577
 164  1355.763
 165  1424.263
 166  1395.61
 167  1363.061
 168  1281.677
 169  1302.818
 170  1343.037
 171  1328.943
 172  1348.396
 173  1321.382
 174  1373.265
 175  1285.328
 176  1235.457
 177  1295.876
 178  1292.857
 179  1227.429
 180  1255.302
 181  1333.621
 182  1412.937
 183  1377.376
 184  1305.974
 185  1363.497
 186  1398.947
 187  1331.718
 188  1281.955
 189  1395.417
 190  1397.63
 191  1341.666
 192  1350.879
 193  1385.887
 194  1260.974
 195  1250.317
 196  1286.949
 197  1236.129
 198  1272.389
 199  1337.769
 200  1378.04
 201  1458.787
 202  1468.781
 203  1318.462
 204  1351.53
 205  1432.49
 206  1443.748
 207  1441.887
 208  1404.904
 209  1384.292
 210  1366.74
 211  1373.997
 212  1318.338
 213  1435.05
 214  1476.305
 215  1468.635
 216  1438.53
 217  1430.896
 218  1450.744
 219  1466.727
 220  1449.681
 221  1360.443
 222  1414.717
 223  1383.808
 224  1466.439
 225  1525.252
 226  1388.603
 227  1331.942
 228  1366.86
 229  1446.947
 230  1410.322
 231  1409.732
 232  1473.75
 233  1398.938
 234  1408.276
 235  1377.574
 236  1448.813
 237  1471.378
 238  1439.542
 239  1375.131
 240  1316.474
 241  1310.547
 242  1333.465
 243  1421.537
 244  1440.461
 245  1488.522
 246  1481.001
 247  1365.66
 248  1319.089
 249  1401.52
 250  1413.291
 251  1386.711
 252  1370.29
 253  1375.111
 254  1353.583
 255  1283.517
 256  1316.125
 257  1325.66
 258  1404.703
 259  1316.062
 260  1298.451
 261  1280.515
 262  1311.209
 263  1410.662
 264  1443.405
 265  1375.788
 266  1309.823
 267  1376.577
 268  1424.471
 269  1432.896
 270  1466.432
 271  1341.894
 272  1295.264
 273  1354.464
 274  1349.117
 275  1375.066
 276  1395.39
 277  1306.377
 278  1449.664
 279  1425.042
 280  1280.908
 281  1320.396
 282  1296.357
 283  1231.645
 284  1232.569
 285  1282.378
 286  1320.809
 287  1305.891
 288  1285.224
 289  1328.811
 290  1338.506
 291  1319.111
 292  1319.449
 293  1304.052
 294  1394.747
 295  1314.011
 296  1313.719
 297  1381.219
 298  1395.973
 299  1258.556
 300  1307.735
 301  1450.297
 302  1415.354
 303  1438.11
 304  1404.38
 305  1328.598
 306  1349.858
 307  1295.74
 308  1286.11
 309  1288.15
 310  1354.029
 311  1256.741
 312  1365.406
 313  1414.651
 314  1321.938
 315  1325.427
 316  1290.979
 317  1282.248
 318  1296.946
 319  1343.455
 320  1390.592
 321  1308.322
 322  1255.291
 323  1214.884
 324  1288.15
 325  1371.335
 326  1380.271
 327  1380.57
 328  1385.269
 329  1512.487
 330  1486.523
 331  1423.88
 332  1416.176
 333  1321.335
 334  1365.918
 335  1348.995
 336  1447.799
 337  1459.003
 338  1396.991
 339  1318.646
 340  1343.999
 341  1381.543
 342  1380.344
 343  1352.913
 344  1316.554
 345  1294.608
 346  1313.453
 347  1380.979
 348  1349.538
 349  1286.876
 350  1201.654
 351  1267.566
 352  1190.503
 353  1234.674
 354  1241.492
 355  1233.587
 356  1207.382
 357  1165.821
 358  1257.433
 359  1294.457
 360  1219.724
 361  1224.025
 362  1301.478
 363  1289.093
 364  1299.245
 365  1244.783
 366  1248.778
 367  1322.725
 368  1291.853
 369  1238.283
 370  1311.051
 371  1355.292
 372  1358.814
 373  1220.798
 374  1275.962
 375  1324.886
 376  1304.718
 377  1264.069
 378  1266.721
 379  1335.241
 380  1328.616
 381  1305.279
 382  1324.054
 383  1352.335
 384  1345.7
 385  1317.041
 386  1308.778
 387  1334.155
 388  1270.381
 389  1297.049
 390  1302.148
 391  1306.394
 392  1298.435
 393  1396.978
 394  1372.787
 395  1290.678
 396  1346.504
 397  1334.239
 398  1334.175
 399  1358.717
 400  1346.393
 401  1350.126
 402  1276.12
 403  1286.886
 404  1264.53
 405  1262.007
 406  1294.334
 407  1301.122
 408  1327.412
 409  1354.856
 410  1331.085
 411  1292.155
 412  1322.176
 413  1256.186
 414  1270.204
 415  1383.886
 416  1326.303
 417  1238.575
 418  1275.286
 419  1232.008
 420  1255.501
 421  1282.697
 422  1331.899
 423  1308.396
 424  1273.164
 425  1371.165
 426  1371.744
 427  1300.547
 428  1295.275
 429  1204.615
 430  1184.172
 431  1249.632
 432  1216.748
 433  1277.931
 434  1304.109
 435  1317.396
 436  1324.066
 437  1273.23
 438  1237.082
 439  1334.667
 440  1335.427
 441  1289.207
 442  1180.658
 443  1155.857
 444  1242.954
 445  1304.663
 446  1387.307
 447  1301.583
 448  1214.958
 449  1195.389
 450  1283.196
 451  1225.739
 452  1270.675
 453  1291.518
 454  1318.704
 455  1280.034
 456  1270.474
 457  1278.879
 458  1203.146
 459  1267.108
 460  1325.699
 461  1298.494
 462  1326.79
 463  1317.531
 464  1283.515
 465  1294.774
 466  1354.468
 467  1267.586
 468  1241.264
 469  1244.3
 470  1299.545
 471  1249.978
 472  1332.662
 473  1283.188
 474  1175.215
 475  1172.586
 476  1238.447
 477  1139.32
 478  1185.703
 479  1170.868
 480  1187.319
 481  1185.955
 482  1192.494
 483  1263.058
 484  1235.891
 485  1375.203
 486  1358.796
 487  1238.088
 488  1300.503
 489  1331.83
 490  1372.775
 491  1408.261
 492  1472.032
 493  1462.403
 494  1454.194
 495  1371.706
 496  1371.564
 497  1368.626
 498  1378.069
 499  1453.707
 500  1382.077
 501  1416.466
 502  1444.185
 503  1431.754
 504  1426.522
 505  1376.172
 506  1527.655
 507  1562.462
 508  1603.77
 509  1746.929
 510  1799.702
 511  1893.848
