# Input file       =  1205498225.096636_cleaned.dat
# Candidate        =  PSR_0332+5434
# Telescope        =  AR
# Epoch_topo       =  58196.525545099954
# Epoch_bary       =  N/A
# T_sample         =  0.002
# Data Folded      =  7340032
# Data Avg         =  0.0663541581813663
# Data StdDev      =  1.00010111943334 
# Profile Bins     =  512
# Profile Avg      =  951.254120008775 
# Profile StdDev   =  119.745143713557 
# Reduced chi-sqr  =  1.784
# Prob(Noise)      <  5.33e-25   (~10.3 sigma)
# P_topo (ms)      =  714.575948341555  +/- 0.00091
# P'_topo (s/s)    =  -0                +/- 4.8e-10
# P''_topo (s/s^2) =  0                 +/- 2.12e-13
# P_bary (ms)      =  N/A
# P'_bary (s/s)    =  N/A
# P''_bary (s/s^2) =  N/A
# P_orb (s)        =  N/A
# asin(i)/c (s)    =  N/A
# eccentricity     =  N/A
# w (rad)          =  N/A
# T_peri           =  N/A
######################################################
   0  1382.216
   1  1277.402
   2  1035.72
   3  883.9664
   4  766.4737
   5  753.5771
   6  788.8566
   7  798.1112
   8  818.5646
   9  813.1476
  10  765.9709
  11  796.3118
  12  880.9375
  13  862.1758
  14  796.3115
  15  795.2176
  16  937.7069
  17  940.8314
  18  923.9395
  19  943.4182
  20  923.7251
  21  918.7519
  22  872.0556
  23  970.2825
  24  963.9603
  25  888.357
  26  861.8856
  27  936.8182
  28  926.3608
  29  864.2128
  30  880.9654
  31  871.8768
  32  810.0244
  33  847.5812
  34  864.1221
  35  857.6214
  36  893.4732
  37  871.1312
  38  918.6329
  39  846.4521
  40  800.0588
  41  882.337
  42  917.3567
  43  816.7414
  44  849.8072
  45  905.8079
  46  889.2436
  47  898.858
  48  828.6227
  49  844.066
  50  915.5372
  51  859.0609
  52  908.6968
  53  971.5617
  54  984.7916
  55  859.5312
  56  900.4647
  57  925.5214
  58  1009.245
  59  1007.716
  60  941.2469
  61  967.1315
  62  829.4174
  63  788.0157
  64  970.3747
  65  929.8817
  66  919.795
  67  828.9477
  68  832.9865
  69  901.3338
  70  919.6356
  71  992.6539
  72  842.6244
  73  811.4115
  74  814.381
  75  848.1229
  76  915.209
  77  961.9252
  78  865.592
  79  820.6346
  80  920.4912
  81  870.5621
  82  867.0959
  83  917.6572
  84  914.7292
  85  921.0254
  86  913.1722
  87  917.3865
  88  916.2867
  89  926.5339
  90  934.6015
  91  898.2219
  92  955.5887
  93  922.9139
  94  888.8932
  95  897.0667
  96  894.7414
  97  909.2753
  98  923.8467
  99  969.7367
 100  952.199
 101  1014.095
 102  1007.811
 103  917.1485
 104  1019.298
 105  1117.899
 106  1094.954
 107  1025.694
 108  1053.775
 109  1213.158
 110  1110.197
 111  1049.972
 112  1061.922
 113  1093.374
 114  1061.127
 115  1025.93
 116  1053.879
 117  1069.531
 118  1087.882
 119  1026.441
 120  977.6481
 121  1132.125
 122  1082.032
 123  1103.05
 124  1154.689
 125  1157.873
 126  1077.498
 127  1078.408
 128  1116.735
 129  1114.035
 130  1032.478
 131  1106.575
 132  1058.9
 133  1070.579
 134  1103.47
 135  1122.962
 136  1094.57
 137  1051.702
 138  1055.549
 139  1079.275
 140  1158.609
 141  1120.925
 142  1020.753
 143  1014.698
 144  1022.202
 145  1067.804
 146  1074.835
 147  1130.241
 148  1096.219
 149  1059.448
 150  1121.978
 151  1163.844
 152  1176.727
 153  1192.065
 154  1033.002
 155  966.6765
 156  1134.421
 157  1161.918
 158  1060.479
 159  1110.102
 160  1161.989
 161  1187.002
 162  1071.354
 163  1094.685
 164  1053.504
 165  1116.643
 166  1098.854
 167  1046.816
 168  994.7831
 169  1085.698
 170  1190.055
 171  1151.964
 172  1217.326
 173  1186.631
 174  1204.984
 175  1177.815
 176  1077.442
 177  1056.903
 178  1069.831
 179  1035.02
 180  1015.986
 181  1046.483
 182  1180.105
 183  1197.441
 184  1158.081
 185  1110.742
 186  1114.205
 187  1135.507
 188  1136.844
 189  1129.326
 190  1132.22
 191  1118.052
 192  1134.718
 193  1152.963
 194  1221.161
 195  1189.903
 196  1113.345
 197  1073.847
 198  1116.126
 199  1073.919
 200  1056.489
 201  1099.562
 202  1101.288
 203  1104.765
 204  1043.59
 205  986.9457
 206  1042.142
 207  1136.987
 208  1160.631
 209  1086.916
 210  1175.022
 211  1083.554
 212  1061.29
 213  1119.28
 214  1114.701
 215  1147.572
 216  1073.385
 217  1093.439
 218  1161.783
 219  1099.806
 220  1008.076
 221  962.7079
 222  988.7861
 223  996.0917
 224  896.7335
 225  997.9813
 226  968.4567
 227  980.0358
 228  978.3863
 229  901.799
 230  848.2373
 231  855.9127
 232  954.1219
 233  959.4698
 234  932.4878
 235  911.4606
 236  960.011
 237  967.1237
 238  898.0077
 239  962.2775
 240  1034.366
 241  1047.718
 242  1037.377
 243  925.5289
 244  975.456
 245  962.2112
 246  932.4526
 247  939.3254
 248  1043.649
 249  1061.674
 250  985.7079
 251  928.3982
 252  996.8465
 253  956.5969
 254  912.3893
 255  951.9378
 256  988.6986
 257  1007.479
 258  1015.706
 259  938.0804
 260  861.3748
 261  901.6824
 262  886.4204
 263  896.7241
 264  972.4711
 265  967.3881
 266  987.758
 267  1031.853
 268  948.0943
 269  959.3677
 270  941.1444
 271  891.3695
 272  852.5478
 273  1044.485
 274  1069.279
 275  961.2642
 276  976.2224
 277  985.2914
 278  1078.609
 279  968.0421
 280  876.8243
 281  1008.649
 282  986.3046
 283  954.5925
 284  985.3472
 285  960.0815
 286  913.4964
 287  854.7154
 288  912.0921
 289  932.4417
 290  879.834
 291  935.4506
 292  951.3418
 293  875.5609
 294  924.9958
 295  929.5745
 296  840.7603
 297  764.8391
 298  710.6882
 299  780.9659
 300  813.3842
 301  870.8373
 302  861.34
 303  806.1664
 304  850.1569
 305  904.5341
 306  954.4243
 307  923.7769
 308  867.354
 309  927.7805
 310  998.1658
 311  972.8792
 312  949.3331
 313  958.7527
 314  992.5058
 315  1003.413
 316  1045.344
 317  988.9324
 318  967.3255
 319  1087.446
 320  1036.885
 321  999.2996
 322  1009.321
 323  1053.829
 324  1084.101
 325  1013.626
 326  984.3112
 327  950.6124
 328  975.6495
 329  974.6898
 330  1024.125
 331  1026.007
 332  1064.168
 333  1097.266
 334  982.2594
 335  989.3723
 336  995.7294
 337  979.946
 338  1013.153
 339  1028.034
 340  1066.855
 341  1020.297
 342  1013.439
 343  1033.219
 344  1035.929
 345  992.4363
 346  1049.14
 347  1080.191
 348  1019.509
 349  1004.777
 350  1077.457
 351  1013.951
 352  911.3494
 353  1011.516
 354  1010.706
 355  986.8037
 356  927.0829
 357  917.618
 358  968.8914
 359  963.845
 360  892.0859
 361  814.2382
 362  789.1846
 363  908.0843
 364  933.4854
 365  893.6123
 366  848.4134
 367  829.6555
 368  778.7657
 369  738.594
 370  797.2966
 371  863.5814
 372  806.7595
 373  744.9932
 374  695.4323
 375  761.9624
 376  806.1926
 377  741.2608
 378  705.0894
 379  705.1575
 380  709.8779
 381  710.5982
 382  712.6872
 383  729.1041
 384  722.6255
 385  719.5482
 386  678.4117
 387  705.9086
 388  720.6967
 389  637.0385
 390  755.6362
 391  739.1652
 392  680.6763
 393  681.6963
 394  750.8032
 395  778.704
 396  831.5001
 397  805.9257
 398  778.1706
 399  720.7209
 400  765.6656
 401  783.9583
 402  829.536
 403  872.8752
 404  877.7013
 405  865.3094
 406  904.1699
 407  902.3904
 408  823.7221
 409  838.2744
 410  865.2255
 411  884.3875
 412  863.2257
 413  875.8322
 414  895.8892
 415  837.5499
 416  838.1038
 417  868.8217
 418  890.2495
 419  978.1558
 420  930.3493
 421  900.2715
 422  1020.8
 423  994.2095
 424  890.586
 425  881.2286
 426  958.1093
 427  951.3647
 428  914.3682
 429  866.6765
 430  905.9459
 431  924.1188
 432  951.1454
 433  888.2092
 434  905.0914
 435  944.4117
 436  884.5659
 437  916.368
 438  902.843
 439  955.8659
 440  856.2773
 441  923.8801
 442  932.8229
 443  968.0564
 444  923.8057
 445  803.8607
 446  788.9783
 447  941.7053
 448  982.6605
 449  923.2462
 450  928.4316
 451  908.9711
 452  851.4619
 453  890.6038
 454  791.2375
 455  869.0436
 456  857.3411
 457  855.1044
 458  918.3715
 459  931.4697
 460  924.9784
 461  850.7166
 462  854.1826
 463  927.3334
 464  901.3881
 465  907.506
 466  940.341
 467  883.259
 468  938.2469
 469  871.6866
 470  844.5354
 471  923.5592
 472  962.8476
 473  946.2595
 474  917.4189
 475  959.0463
 476  892.6089
 477  865.0159
 478  904.9502
 479  920.1728
 480  860.4677
 481  866.0895
 482  890.5248
 483  856.8641
 484  826.4517
 485  822.9865
 486  839.6497
 487  893.087
 488  886.4955
 489  855.0879
 490  839.9933
 491  845.978
 492  939.9454
 493  917.0923
 494  911.2354
 495  846.3154
 496  922.3638
 497  937.4093
 498  874.3666
 499  812.658
 500  939.0565
 501  882.2322
 502  849.8265
 503  890.2424
 504  847.4072
 505  860.9783
 506  847.1236
 507  852.0404
 508  918.9106
 509  945.8013
 510  1116.099
 511  1233.955
