# Input file       =  1205065935.111248_cleaned.dat
# Candidate        =  PSR_0332+5434
# Telescope        =  AR
# Epoch_topo       =  58191.522188787596
# Epoch_bary       =  N/A
# T_sample         =  0.002
# Data Folded      =  7340032
# Data Avg         =  0.0901079518570587
# Data StdDev      =  1.00007844403393 
# Profile Bins     =  512
# Profile Avg      =  1291.72473045522 
# Profile StdDev   =  119.742428719134 
# Reduced chi-sqr  =  2.707
# Prob(Noise)      <  1.83e-81   (~19.1 sigma)
# P_topo (ms)      =  714.577752824961  +/- 0.000826
# P'_topo (s/s)    =  -0                +/- 4.36e-10
# P''_topo (s/s^2) =  0                 +/- 1.92e-13
# P_bary (ms)      =  N/A
# P'_bary (s/s)    =  N/A
# P''_bary (s/s^2) =  N/A
# P_orb (s)        =  N/A
# asin(i)/c (s)    =  N/A
# eccentricity     =  N/A
# w (rad)          =  N/A
# T_peri           =  N/A
######################################################
   0  1767.529
   1  1644.046
   2  1600.747
   3  1487.757
   4  1410.446
   5  1385.348
   6  1381.218
   7  1431.908
   8  1437.831
   9  1340.518
  10  1346.226
  11  1388.956
  12  1424.67
  13  1440.756
  14  1438.333
  15  1405.691
  16  1435.514
  17  1441.594
  18  1402.266
  19  1401.498
  20  1408.268
  21  1417.857
  22  1445.429
  23  1512.954
  24  1443.826
  25  1405.933
  26  1428.13
  27  1435.633
  28  1526.91
  29  1497.998
  30  1503.729
  31  1458.688
  32  1448.759
  33  1347.016
  34  1321.555
  35  1335.129
  36  1396.499
  37  1345.83
  38  1335.764
  39  1342.517
  40  1262.365
  41  1300.044
  42  1345.04
  43  1406.533
  44  1374.106
  45  1418.208
  46  1425.179
  47  1340.606
  48  1285.429
  49  1260.052
  50  1356.997
  51  1405.095
  52  1462.873
  53  1408.819
  54  1390.207
  55  1408.119
  56  1340.796
  57  1357.604
  58  1381.071
  59  1395.315
  60  1338.276
  61  1331.756
  62  1387.198
  63  1302.428
  64  1359.07
  65  1433.071
  66  1414.997
  67  1364.225
  68  1354.272
  69  1378.89
  70  1476.127
  71  1499.113
  72  1465.562
  73  1424.188
  74  1417.72
  75  1433.609
  76  1412.877
  77  1400.528
  78  1375.931
  79  1410.518
  80  1316.313
  81  1363.821
  82  1357.59
  83  1354.278
  84  1350.505
  85  1312.524
  86  1409.87
  87  1408.543
  88  1309.531
  89  1350.138
  90  1368.96
  91  1387.526
  92  1396.696
  93  1367.903
  94  1391.779
  95  1381.745
  96  1415.202
  97  1407.291
  98  1521.738
  99  1486.286
 100  1451.142
 101  1427.96
 102  1429.094
 103  1486.944
 104  1453.779
 105  1510.099
 106  1536.444
 107  1512.976
 108  1484.511
 109  1528.868
 110  1483.019
 111  1487.297
 112  1420.526
 113  1453.489
 114  1573.869
 115  1504.404
 116  1553.374
 117  1534.883
 118  1495.862
 119  1506.334
 120  1492.307
 121  1485.74
 122  1511.409
 123  1550.77
 124  1515.208
 125  1497.324
 126  1425.714
 127  1430.098
 128  1494.418
 129  1521.567
 130  1519.478
 131  1490.276
 132  1510.139
 133  1481.988
 134  1517.894
 135  1570.352
 136  1576.101
 137  1444.26
 138  1518.758
 139  1527.666
 140  1521.43
 141  1546.643
 142  1565.849
 143  1540.907
 144  1500.623
 145  1453.661
 146  1425.384
 147  1479.479
 148  1498.922
 149  1346.209
 150  1479.335
 151  1495.584
 152  1456.068
 153  1384.052
 154  1400.69
 155  1400.193
 156  1465.72
 157  1390.272
 158  1482.585
 159  1526.148
 160  1390.229
 161  1442.019
 162  1433.685
 163  1485.568
 164  1394.052
 165  1351.901
 166  1335.903
 167  1382.507
 168  1407.362
 169  1377.514
 170  1400.198
 171  1312.465
 172  1244.783
 173  1260.403
 174  1309.782
 175  1333.987
 176  1390.724
 177  1422.792
 178  1456.111
 179  1415.416
 180  1295.923
 181  1346.16
 182  1292.945
 183  1264.115
 184  1311.537
 185  1328.661
 186  1301.052
 187  1326.83
 188  1343.351
 189  1349.589
 190  1400.446
 191  1409.85
 192  1322.067
 193  1297.068
 194  1265.78
 195  1293.776
 196  1280.852
 197  1359.101
 198  1422.167
 199  1419.045
 200  1330.579
 201  1384.476
 202  1426.491
 203  1348.473
 204  1483.481
 205  1444.137
 206  1393.092
 207  1427.887
 208  1395.992
 209  1290.636
 210  1219.971
 211  1291.298
 212  1278.556
 213  1288.717
 214  1288.203
 215  1278.46
 216  1297.075
 217  1290.794
 218  1228.95
 219  1236.523
 220  1290.5
 221  1197.78
 222  1190.802
 223  1192.303
 224  1183.15
 225  1156.414
 226  1168.782
 227  1186.631
 228  1199.584
 229  1253.67
 230  1272.028
 231  1250.461
 232  1257.353
 233  1201.544
 234  1238.363
 235  1283.956
 236  1246.864
 237  1246.5
 238  1317.659
 239  1307.555
 240  1240.468
 241  1262.411
 242  1307.54
 243  1329.318
 244  1326.131
 245  1324.311
 246  1285.602
 247  1342.574
 248  1326.902
 249  1274.879
 250  1271.525
 251  1293.786
 252  1217.283
 253  1325.289
 254  1368.287
 255  1381.327
 256  1367.264
 257  1308.801
 258  1265.186
 259  1289.05
 260  1325.564
 261  1328.146
 262  1394.824
 263  1381.205
 264  1382.868
 265  1306.742
 266  1314.399
 267  1359.295
 268  1326.375
 269  1365.931
 270  1297.926
 271  1311.638
 272  1349.337
 273  1304.297
 274  1316.015
 275  1284.461
 276  1265.122
 277  1255.308
 278  1266.768
 279  1327.95
 280  1292.14
 281  1220.598
 282  1245.588
 283  1194.759
 284  1234.052
 285  1239.531
 286  1225.906
 287  1284.437
 288  1239.35
 289  1336.614
 290  1270.86
 291  1240.822
 292  1285.803
 293  1200.029
 294  1162.336
 295  1212.719
 296  1291.931
 297  1319.393
 298  1324.415
 299  1308.67
 300  1225.764
 301  1154.501
 302  1140.486
 303  1149.611
 304  1099.083
 305  1109.83
 306  1140.795
 307  1150.319
 308  1186.824
 309  1110.879
 310  1070.809
 311  1132.918
 312  1208.834
 313  1293.886
 314  1233.257
 315  1150.994
 316  1143.16
 317  1077.556
 318  1196.964
 319  1166.276
 320  1176.649
 321  1159.63
 322  1129.65
 323  1144.433
 324  1115.964
 325  1149.365
 326  1130.835
 327  1121.059
 328  1055.875
 329  1119.039
 330  1130.179
 331  1135.933
 332  1151.59
 333  1117.212
 334  1146.716
 335  1195.992
 336  1220.77
 337  1143.352
 338  1246.677
 339  1227.766
 340  1131.764
 341  1085.203
 342  1094.339
 343  1112.036
 344  1123.258
 345  1207.285
 346  1145.063
 347  1085.801
 348  1122.712
 349  1149.786
 350  1157.881
 351  1135.956
 352  1188.78
 353  1182.935
 354  1153.579
 355  1220.375
 356  1244.436
 357  1135.874
 358  1111.729
 359  1150.443
 360  1121.611
 361  1102.223
 362  1143.066
 363  1100.839
 364  1056.065
 365  1055.431
 366  1072.148
 367  1067.768
 368  1114.29
 369  1071.178
 370  1061.426
 371  999.3677
 372  1071.892
 373  1121.029
 374  992.5522
 375  1018.629
 376  1015.439
 377  1043.031
 378  1052.089
 379  1069.69
 380  1171.853
 381  1067.701
 382  1049.624
 383  1065.261
 384  1055.168
 385  1033.766
 386  1083.868
 387  1184.556
 388  1171.074
 389  1106.799
 390  1025.109
 391  991.3439
 392  989.2569
 393  994.5736
 394  1077.057
 395  1078.717
 396  1026.643
 397  1026.185
 398  972.9623
 399  1012.641
 400  1082.832
 401  1116.946
 402  1100.793
 403  1166.567
 404  1179.703
 405  1140.45
 406  1097.475
 407  1125.013
 408  1160.044
 409  1180.176
 410  1164.677
 411  1114.489
 412  1178.406
 413  1164.212
 414  1132.661
 415  1118.516
 416  1153.477
 417  1183.839
 418  1132.484
 419  1185.788
 420  1167.17
 421  1209.385
 422  1196.768
 423  1200.56
 424  1268.436
 425  1209.138
 426  1234.621
 427  1255.662
 428  1291.671
 429  1280.455
 430  1281.402
 431  1253.437
 432  1205.713
 433  1156.384
 434  1135.999
 435  1217.171
 436  1222.555
 437  1162.178
 438  1101.497
 439  1094.567
 440  1083.701
 441  1047.774
 442  1118.47
 443  1168.131
 444  1118.258
 445  1126.879
 446  1152.272
 447  1140.362
 448  1134.664
 449  1133.816
 450  1124.038
 451  1159.59
 452  1163.364
 453  1099.697
 454  1080.994
 455  1122.315
 456  1184.319
 457  1194.71
 458  1239.916
 459  1255.271
 460  1204.886
 461  1180.437
 462  1154.288
 463  1211.76
 464  1139.263
 465  1133.981
 466  1185.907
 467  1146.552
 468  1177.074
 469  1211.03
 470  1165.356
 471  1152.714
 472  1169.106
 473  1192.437
 474  1261.892
 475  1252.572
 476  1273.256
 477  1196.082
 478  1219.88
 479  1201.47
 480  1171.285
 481  1207.71
 482  1261.084
 483  1278.422
 484  1303.44
 485  1337.409
 486  1240.158
 487  1242.749
 488  1256.478
 489  1284.084
 490  1261.356
 491  1225.824
 492  1264.558
 493  1255.772
 494  1262.991
 495  1241.937
 496  1213.496
 497  1318.789
 498  1339.909
 499  1383.322
 500  1391.904
 501  1398.723
 502  1341.713
 503  1383.636
 504  1453.527
 505  1485.797
 506  1476.461
 507  1500.937
 508  1539.063
 509  1572.059
 510  1644.715
 511  1731.47
