# Input file       =  1205654617.111455_cleaned.dat
# Candidate        =  PSR_0332+5434
# Telescope        =  AR
# Epoch_topo       =  58198.335637864060
# Epoch_bary       =  N/A
# T_sample         =  0.002
# Data Folded      =  7143424
# Data Avg         =  0.0991138499401909
# Data StdDev      =  1.00014378145986 
# Profile Bins     =  512
# Profile Avg      =  1382.79589914414 
# Profile StdDev   =  118.13556774438  
# Reduced chi-sqr  =  1.183
# Prob(Noise)      <  0.00263   (~2.8 sigma)
# P_topo (ms)      =  714.575147222976  +/- 5.96e-05
# P'_topo (s/s)    =  -0                +/- 3.23e-11
# P''_topo (s/s^2) =  0                 +/- 1.47e-14
# P_bary (ms)      =  N/A
# P'_bary (s/s)    =  N/A
# P''_bary (s/s^2) =  N/A
# P_orb (s)        =  N/A
# asin(i)/c (s)    =  N/A
# eccentricity     =  N/A
# w (rad)          =  N/A
# T_peri           =  N/A
######################################################
   0  1774.448
   1  1699.941
   2  1615.697
   3  1510.211
   4  1497.166
   5  1509.689
   6  1417.091
   7  1352.922
   8  1318.437
   9  1405.251
  10  1523.348
  11  1461.361
  12  1438.887
  13  1470.76
  14  1442.569
  15  1487.045
  16  1351.34
  17  1304.14
  18  1421.01
  19  1451.429
  20  1438.564
  21  1355.012
  22  1222.595
  23  1231.594
  24  1261.261
  25  1303.622
  26  1331.76
  27  1352.363
  28  1412.155
  29  1449.129
  30  1359.257
  31  1372.774
  32  1290.129
  33  1344.715
  34  1320.731
  35  1363.804
  36  1460.689
  37  1451.835
  38  1291.344
  39  1307.333
  40  1262.183
  41  1307.356
  42  1369.395
  43  1463.244
  44  1505.881
  45  1455.856
  46  1444.842
  47  1475.158
  48  1283.73
  49  1227.573
  50  1239.637
  51  1282.283
  52  1268.249
  53  1296.853
  54  1302.805
  55  1247.368
  56  1247.218
  57  1295.982
  58  1180.945
  59  1256.328
  60  1400.369
  61  1384.007
  62  1305.485
  63  1256.081
  64  1236.962
  65  1273.289
  66  1267.069
  67  1232.796
  68  1219.433
  69  1330.754
  70  1347.235
  71  1319.591
  72  1394.604
  73  1291.895
  74  1266.529
  75  1319.315
  76  1349.391
  77  1416.278
  78  1400.967
  79  1392.729
  80  1315.717
  81  1368.692
  82  1323.866
  83  1292.168
  84  1278.245
  85  1330.399
  86  1288.006
  87  1356.586
  88  1265.628
  89  1267.202
  90  1227.877
  91  1168.907
  92  1249.521
  93  1363.52
  94  1435.377
  95  1441.125
  96  1410.352
  97  1292.574
  98  1170.324
  99  1202.563
 100  1203.156
 101  1332.79
 102  1418.059
 103  1480.882
 104  1356.12
 105  1267.573
 106  1214.91
 107  1238.717
 108  1343.736
 109  1374.576
 110  1404.505
 111  1507.48
 112  1527.213
 113  1387.967
 114  1308.353
 115  1507.705
 116  1510.357
 117  1518.743
 118  1447.859
 119  1445.741
 120  1333.682
 121  1392.409
 122  1469.697
 123  1476.309
 124  1372.739
 125  1427.555
 126  1436.208
 127  1420.624
 128  1509.916
 129  1500.242
 130  1370.312
 131  1308.639
 132  1340.398
 133  1352.525
 134  1489.645
 135  1443.189
 136  1425.63
 137  1370.392
 138  1311.531
 139  1253.522
 140  1345.778
 141  1292.887
 142  1363.118
 143  1335.175
 144  1476.276
 145  1464.847
 146  1554.177
 147  1418.653
 148  1328.881
 149  1411.741
 150  1538.014
 151  1430.66
 152  1390.529
 153  1420.606
 154  1377.191
 155  1380.179
 156  1323.549
 157  1302.645
 158  1379.252
 159  1349.967
 160  1377.514
 161  1443.859
 162  1558.232
 163  1348.087
 164  1384.569
 165  1406.989
 166  1469.883
 167  1528.999
 168  1381.184
 169  1397.852
 170  1364.379
 171  1302.219
 172  1248.312
 173  1258.382
 174  1336.058
 175  1367.997
 176  1376.012
 177  1412.305
 178  1392.611
 179  1452.584
 180  1338.064
 181  1335.153
 182  1362.351
 183  1310.442
 184  1280.277
 185  1314.088
 186  1296.066
 187  1323.646
 188  1297.265
 189  1279.299
 190  1298.356
 191  1323.781
 192  1396.5
 193  1473.32
 194  1485.877
 195  1372.333
 196  1329.536
 197  1350.118
 198  1309.038
 199  1275.818
 200  1335.991
 201  1370.611
 202  1433.32
 203  1415.491
 204  1333.02
 205  1269.944
 206  1204.923
 207  1211.247
 208  1337.684
 209  1257.948
 210  1328.416
 211  1393.022
 212  1338.476
 213  1334.864
 214  1262.968
 215  1219.25
 216  1331.725
 217  1362.365
 218  1348.589
 219  1290.616
 220  1258.828
 221  1301.09
 222  1279.895
 223  1189.038
 224  1239.96
 225  1255.705
 226  1256.349
 227  1258.248
 228  1330.428
 229  1305.714
 230  1211.996
 231  1286.91
 232  1383.155
 233  1308.312
 234  1355.392
 235  1394.386
 236  1348.318
 237  1222.86
 238  1379.757
 239  1479.982
 240  1452.891
 241  1386.661
 242  1438.565
 243  1461.696
 244  1457.495
 245  1397.098
 246  1347.853
 247  1393.124
 248  1444.573
 249  1368.724
 250  1342.985
 251  1423.046
 252  1308.644
 253  1365.158
 254  1432.275
 255  1281.281
 256  1268.659
 257  1363.392
 258  1411.096
 259  1459.626
 260  1491.916
 261  1372.112
 262  1340.35
 263  1401.978
 264  1337.707
 265  1370.546
 266  1452.686
 267  1470.194
 268  1549.971
 269  1560.308
 270  1519.563
 271  1415.347
 272  1420.568
 273  1433.768
 274  1358.498
 275  1356.096
 276  1382.749
 277  1320.456
 278  1374.075
 279  1289.718
 280  1204.036
 281  1258.597
 282  1317.218
 283  1468.242
 284  1408.387
 285  1384.052
 286  1366.421
 287  1301.371
 288  1324.881
 289  1283.027
 290  1326.482
 291  1331.895
 292  1430.788
 293  1472.212
 294  1443.407
 295  1391.08
 296  1331.819
 297  1446.158
 298  1445.078
 299  1395.234
 300  1448.204
 301  1458.253
 302  1339.026
 303  1191.995
 304  1334.288
 305  1338.802
 306  1384.157
 307  1434.398
 308  1418.508
 309  1437.633
 310  1312.779
 311  1383.383
 312  1353.879
 313  1309.421
 314  1348.976
 315  1397.056
 316  1358.817
 317  1372.695
 318  1366.708
 319  1376.797
 320  1378.356
 321  1368.102
 322  1247.904
 323  1179.118
 324  1344.748
 325  1317.947
 326  1306.519
 327  1304.749
 328  1235.045
 329  1223.004
 330  1217.397
 331  1329.508
 332  1406.342
 333  1350.341
 334  1390.251
 335  1364.872
 336  1227.696
 337  1244.108
 338  1269.772
 339  1309.098
 340  1359.836
 341  1422.762
 342  1480.979
 343  1516.694
 344  1367.116
 345  1226.301
 346  1291.891
 347  1319.467
 348  1289.49
 349  1271.725
 350  1318.924
 351  1386.277
 352  1293.121
 353  1238.254
 354  1273.435
 355  1341.156
 356  1384.435
 357  1359.324
 358  1367.71
 359  1469.194
 360  1478.186
 361  1490.31
 362  1319.388
 363  1169.72
 364  1296.034
 365  1328.383
 366  1330.163
 367  1345.869
 368  1391.831
 369  1461.914
 370  1442.654
 371  1396.955
 372  1278.546
 373  1361.418
 374  1510.386
 375  1351.048
 376  1482.896
 377  1452.554
 378  1391.125
 379  1438.64
 380  1462.874
 381  1356.045
 382  1405.247
 383  1465.136
 384  1427.518
 385  1453.863
 386  1418.649
 387  1320.31
 388  1322.368
 389  1315.098
 390  1433.312
 391  1469.885
 392  1522.669
 393  1589.921
 394  1490.152
 395  1362.325
 396  1409.936
 397  1425.426
 398  1465.226
 399  1452.147
 400  1443.07
 401  1475.72
 402  1394.243
 403  1411.065
 404  1496.042
 405  1554.272
 406  1476.093
 407  1374.672
 408  1393.613
 409  1469.777
 410  1482.228
 411  1532.575
 412  1478.106
 413  1469.203
 414  1418.908
 415  1502.413
 416  1507.109
 417  1433.807
 418  1451.317
 419  1430.058
 420  1375.727
 421  1361.929
 422  1582.485
 423  1600.893
 424  1536.079
 425  1560.347
 426  1496.144
 427  1427.769
 428  1357.701
 429  1456.172
 430  1529.581
 431  1467.644
 432  1489.974
 433  1561.756
 434  1508.273
 435  1554.615
 436  1504.936
 437  1490.063
 438  1524.916
 439  1525.91
 440  1513.438
 441  1572.317
 442  1626.577
 443  1516.726
 444  1415.65
 445  1348.756
 446  1343.347
 447  1438.216
 448  1576.008
 449  1554.548
 450  1464.61
 451  1457.256
 452  1378.01
 453  1359.079
 454  1380.746
 455  1479.049
 456  1435.809
 457  1464.046
 458  1478.306
 459  1529.257
 460  1352.157
 461  1286.292
 462  1318.552
 463  1405.28
 464  1341.073
 465  1340.183
 466  1400.384
 467  1503.692
 468  1420.31
 469  1423.501
 470  1386.466
 471  1413.783
 472  1387.597
 473  1440.216
 474  1470.609
 475  1522.195
 476  1463.077
 477  1448.272
 478  1359.684
 479  1345.126
 480  1379.731
 481  1499.762
 482  1520.135
 483  1452.364
 484  1433.853
 485  1337.63
 486  1307.084
 487  1322.918
 488  1283.544
 489  1370.684
 490  1392.185
 491  1405.739
 492  1304.632
 493  1424.467
 494  1391.451
 495  1329.312
 496  1456.526
 497  1412.509
 498  1467.35
 499  1446.404
 500  1484.234
 501  1384.111
 502  1252.756
 503  1326.465
 504  1432.596
 505  1477.487
 506  1382.168
 507  1416.811
 508  1549.594
 509  1621.466
 510  1678.014
 511  1669.801
