# Input file       =  1205065935.111248_cleaned.dat
# Candidate        =  PSR_0332+5434
# Telescope        =  AR
# Epoch_topo       =  58191.522188787596
# Epoch_bary       =  N/A
# T_sample         =  0.002
# Data Folded      =  7340032
# Data Avg         =  0.0901079518570587
# Data StdDev      =  1.00007844403393 
# Profile Bins     =  512
# Profile Avg      =  1291.72473045551 
# Profile StdDev   =  119.742428719134 
# Reduced chi-sqr  =  2.708
# Prob(Noise)      <  1.51e-81   (~19.1 sigma)
# P_topo (ms)      =  714.577752599759  +/- 0.000825
# P'_topo (s/s)    =  -0                +/- 4.36e-10
# P''_topo (s/s^2) =  0                 +/- 1.92e-13
# P_bary (ms)      =  N/A
# P'_bary (s/s)    =  N/A
# P''_bary (s/s^2) =  N/A
# P_orb (s)        =  N/A
# asin(i)/c (s)    =  N/A
# eccentricity     =  N/A
# w (rad)          =  N/A
# T_peri           =  N/A
######################################################
   0  1786.763
   1  1697.216
   2  1640.2
   3  1537.98
   4  1449.223
   5  1390.003
   6  1390.966
   7  1394.466
   8  1452.125
   9  1386.34
  10  1327.775
  11  1382.142
  12  1393.849
  13  1445.894
  14  1432.136
  15  1429.488
  16  1405.713
  17  1452.994
  18  1427.883
  19  1389.535
  20  1411.166
  21  1401.665
  22  1429.919
  23  1489.415
  24  1485.431
  25  1422.429
  26  1404.161
  27  1441.702
  28  1458.403
  29  1550.082
  30  1472.916
  31  1500.508
  32  1453.528
  33  1399.174
  34  1335.039
  35  1314.749
  36  1376.48
  37  1376.295
  38  1338.8
  39  1335.621
  40  1320.46
  41  1256.998
  42  1317.919
  43  1388.585
  44  1381.697
  45  1397.217
  46  1415.379
  47  1415.783
  48  1289.32
  49  1286.521
  50  1280.964
  51  1390.124
  52  1427.938
  53  1453.178
  54  1387.747
  55  1404.775
  56  1377.867
  57  1343.35
  58  1359.838
  59  1407.005
  60  1355.706
  61  1335.601
  62  1355.245
  63  1356.964
  64  1303.083
  65  1406.533
  66  1443.387
  67  1385.849
  68  1365.624
  69  1341.962
  70  1428.094
  71  1502.525
  72  1481.288
  73  1446.977
  74  1412.047
  75  1432.713
  76  1418.29
  77  1418.261
  78  1369.146
  79  1409.83
  80  1369.06
  81  1316.221
  82  1377.713
  83  1338.3
  84  1373.967
  85  1317.914
  86  1362.087
  87  1423.475
  88  1358.833
  89  1312.684
  90  1374.453
  91  1367.685
  92  1399.043
  93  1373.701
  94  1380.953
  95  1391.276
  96  1390.194
  97  1415.046
  98  1441.094
  99  1530.132
 100  1463.798
 101  1449.611
 102  1417.028
 103  1459.228
 104  1465.304
 105  1475.434
 106  1530.59
 107  1541.916
 108  1473.214
 109  1512.866
 110  1508.242
 111  1484.43
 112  1471.779
 113  1400.289
 114  1535.74
 115  1540.593
 116  1518.995
 117  1560.855
 118  1515.563
 119  1488.995
 120  1513.444
 121  1474.03
 122  1503.186
 123  1524.086
 124  1548.305
 125  1499.107
 126  1475.029
 127  1410.791
 128  1447.748
 129  1528.086
 130  1513.938
 131  1516.654
 132  1491.248
 133  1501.347
 134  1482.687
 135  1542.622
 136  1602.523
 137  1503.507
 138  1465.099
 139  1531.477
 140  1526.594
 141  1529.365
 142  1550.873
 143  1565.545
 144  1513.367
 145  1492.538
 146  1426.349
 147  1446.629
 148  1514.212
 149  1421.809
 150  1380.621
 151  1499.015
 152  1486.471
 153  1419.438
 154  1396.582
 155  1381.276
 156  1445.64
 157  1423.628
 158  1419.652
 159  1529.893
 160  1455.61
 161  1410.103
 162  1438.263
 163  1461.516
 164  1450.866
 165  1377.813
 166  1332.454
 167  1356.883
 168  1395.583
 169  1392.898
 170  1393.649
 171  1373.391
 172  1268.131
 173  1235.099
 174  1296.063
 175  1312.697
 176  1365.879
 177  1411.922
 178  1425.589
 179  1462.309
 180  1339.537
 181  1314.3
 182  1330.503
 183  1275.911
 184  1281.641
 185  1325.104
 186  1320.488
 187  1299.435
 188  1354.495
 189  1335.572
 190  1361.711
 191  1421.4
 192  1369.988
 193  1309.603
 194  1277.476
 195  1279.997
 196  1279.646
 197  1319.218
 198  1385.013
 199  1447.054
 200  1359.246
 201  1350.267
 202  1413.675
 203  1388.582
 204  1388.318
 205  1505.547
 206  1393.327
 207  1420.678
 208  1412.709
 209  1360.994
 210  1242.483
 211  1250.916
 212  1290.04
 213  1278.986
 214  1288.828
 215  1280.804
 216  1288.307
 217  1303.239
 218  1266.617
 219  1211.045
 220  1281.204
 221  1241.953
 222  1200.215
 223  1185.097
 224  1200.913
 225  1156.172
 226  1171.277
 227  1169.919
 228  1198.299
 229  1207.309
 230  1279.974
 231  1254.442
 232  1267.898
 233  1222.347
 234  1208.011
 235  1275.023
 236  1265.056
 237  1234.126
 238  1276.776
 239  1328.41
 240  1282.418
 241  1233.642
 242  1285.402
 243  1312.005
 244  1332.944
 245  1324.901
 246  1311.698
 247  1300.292
 248  1351.036
 249  1299.05
 250  1266.526
 251  1294.075
 252  1249.942
 253  1251.974
 254  1350.685
 255  1366.621
 256  1393.648
 257  1327.708
 258  1311.553
 259  1258.901
 260  1314.724
 261  1318.455
 262  1360.123
 263  1382.633
 264  1392.999
 265  1351.105
 266  1293.127
 267  1357.098
 268  1331.725
 269  1351.268
 270  1339.883
 271  1287.397
 272  1331.901
 273  1335.66
 274  1309.148
 275  1298.66
 276  1279.822
 277  1252.265
 278  1262.595
 279  1295.639
 280  1323.715
 281  1245.879
 282  1229.767
 283  1237.148
 284  1191.244
 285  1251.428
 286  1227.541
 287  1254.061
 288  1271.809
 289  1259.368
 290  1347.47
 291  1216.433
 292  1284.35
 293  1252.586
 294  1171.566
 295  1180.807
 296  1240.974
 297  1325.73
 298  1306.976
 299  1339.837
 300  1256.843
 301  1203.39
 302  1137.047
 303  1151.594
 304  1127.996
 305  1082.662
 306  1131.825
 307  1144.533
 308  1180.789
 309  1156.663
 310  1079.994
 311  1086.173
 312  1156.908
 313  1263.429
 314  1290.782
 315  1186.708
 316  1143.509
 317  1115.739
 318  1107.336
 319  1213.749
 320  1147.288
 321  1183.719
 322  1146.889
 323  1134.946
 324  1129.878
 325  1130.818
 326  1145.511
 327  1125.708
 328  1090.427
 329  1067.436
 330  1137.086
 331  1139.482
 332  1137.861
 333  1138.962
 334  1116.148
 335  1172.695
 336  1209.956
 337  1186.193
 338  1176.469
 339  1266.925
 340  1185.745
 341  1092.808
 342  1098.328
 343  1087.236
 344  1130.593
 345  1139.179
 346  1225.81
 347  1093.513
 348  1092.712
 349  1143.739
 350  1149.209
 351  1159.329
 352  1143.57
 353  1212.182
 354  1149.116
 355  1176.324
 356  1253.619
 357  1192.941
 358  1119.351
 359  1117.595
 360  1154.032
 361  1091.89
 362  1137.49
 363  1129.546
 364  1080.332
 365  1045.321
 366  1057.227
 367  1070.216
 368  1085.978
 369  1113.819
 370  1051.97
 371  1040.808
 372  1011.039
 373  1123.675
 374  1073.677
 375  968.497
 376  1040.245
 377  1006.468
 378  1066.117
 379  1036.811
 380  1126.414
 381  1146.787
 382  1034.949
 383  1073.468
 384  1052.914
 385  1052.255
 386  1032.156
 387  1137.364
 388  1189.016
 389  1142.752
 390  1075.196
 391  991.0663
 392  1012.682
 393  962.2482
 394  1053.389
 395  1068.925
 396  1077.787
 397  1005.257
 398  1021.739
 399  955.674
 400  1054.749
 401  1108.515
 402  1105.988
 403  1128.863
 404  1171.821
 405  1172.299
 406  1117.426
 407  1091.387
 408  1156.508
 409  1160.469
 410  1203.292
 411  1117.298
 412  1148.322
 413  1180.595
 414  1137.381
 415  1126.226
 416  1124.907
 417  1180.305
 418  1155.131
 419  1144.918
 420  1190.835
 421  1172.237
 422  1228.23
 423  1172.588
 424  1249.401
 425  1236.912
 426  1215.046
 427  1236.133
 428  1290.337
 429  1286.557
 430  1277.112
 431  1283.333
 432  1220.202
 433  1201.92
 434  1116.881
 435  1182.362
 436  1220.78
 437  1203.755
 438  1128.741
 439  1083.355
 440  1114.89
 441  1045.305
 442  1079.216
 443  1150.95
 444  1162.108
 445  1105.843
 446  1144.386
 447  1147.069
 448  1128.276
 449  1152.9
 450  1118.028
 451  1137.745
 452  1156.784
 453  1143.765
 454  1076.333
 455  1101.558
 456  1161.999
 457  1184.554
 458  1225.224
 459  1230.101
 460  1248.944
 461  1185.222
 462  1166.966
 463  1177.79
 464  1193.572
 465  1125.833
 466  1157.105
 467  1173.228
 468  1145.919
 469  1208.562
 470  1191.415
 471  1156.454
 472  1157.509
 473  1166.001
 474  1238.098
 475  1243.67
 476  1281.712
 477  1230.38
 478  1197.235
 479  1225.557
 480  1176.72
 481  1185.636
 482  1222.755
 483  1286.189
 484  1267.425
 485  1349.887
 486  1297.332
 487  1228.489
 488  1245.13
 489  1277.028
 490  1270.642
 491  1247.856
 492  1239.532
 493  1265.716
 494  1257.516
 495  1260.871
 496  1216.359
 497  1245.144
 498  1349.921
 499  1348.938
 500  1397.378
 501  1396.056
 502  1369.515
 503  1355.284
 504  1402.472
 505  1496.6
 506  1456.533
 507  1508.193
 508  1497.538
 509  1562.16
 510  1601.594
 511  1668.722
