# Input file       =  1205999253.103225_cleaned.dat
# Candidate        =  PSR_0332+5434
# Telescope        =  AR
# Epoch_topo       =  58202.324480361400
# Epoch_bary       =  N/A
# T_sample         =  0.002
# Data Folded      =  7208960
# Data Avg         =  0.0444551905632598
# Data StdDev      =  1.00005223832342 
# Profile Bins     =  512
# Profile Avg      =  625.86377712743  
# Profile StdDev   =  118.665374349932 
# Reduced chi-sqr  =  1.613
# Prob(Noise)      <  4.33e-17   (~8.3 sigma)
# P_topo (ms)      =  714.573274517685  +/- 7.1e-05
# P'_topo (s/s)    =  -0                +/- 3.82e-11
# P''_topo (s/s^2) =  0                 +/- 1.72e-14
# P_bary (ms)      =  N/A
# P'_bary (s/s)    =  N/A
# P''_bary (s/s^2) =  N/A
# P_orb (s)        =  N/A
# asin(i)/c (s)    =  N/A
# eccentricity     =  N/A
# w (rad)          =  N/A
# T_peri           =  N/A
######################################################
   0  1346.952
   1  1407.95
   2  1273.618
   3  937.1461
   4  645.1806
   5  610.0136
   6  553.4395
   7  676.0103
   8  712.7413
   9  718.2214
  10  664.9344
  11  595.0377
  12  612.6381
  13  643.1783
  14  547.5312
  15  544.4378
  16  564.4699
  17  622.4492
  18  669.5358
  19  663.8675
  20  454.3968
  21  533.8693
  22  609.499
  23  649.334
  24  656.9075
  25  655.2818
  26  652.7535
  27  579.1947
  28  491.0899
  29  495.4607
  30  533.985
  31  450.5162
  32  536.658
  33  569.8984
  34  578.7601
  35  521.3484
  36  536.0187
  37  554.1909
  38  508.1076
  39  496.5665
  40  503.1387
  41  619.5101
  42  663.6635
  43  541.8769
  44  477.9189
  45  549.8802
  46  575.6406
  47  562.6436
  48  596.742
  49  666.4063
  50  652.8525
  51  618.0427
  52  514.6813
  53  548.062
  54  532.6244
  55  579.7116
  56  679.1656
  57  620.8596
  58  615.0497
  59  594.7942
  60  501.912
  61  460.8681
  62  467.4979
  63  489.743
  64  568.3109
  65  623.728
  66  699.9459
  67  565.2935
  68  612.8423
  69  606.7296
  70  380.5765
  71  393.2896
  72  518.4058
  73  559.7993
  74  492.0465
  75  530.4777
  76  602.4324
  77  539.8613
  78  547.9872
  79  504.5186
  80  506.0381
  81  598.8878
  82  627.5927
  83  642.065
  84  596.7183
  85  614.4706
  86  560.3271
  87  417.884
  88  546.2496
  89  611.0587
  90  645.839
  91  539.6645
  92  597.194
  93  702.3514
  94  526.2124
  95  576.4768
  96  545.4592
  97  543.7542
  98  566.5445
  99  684.8168
 100  659.985
 101  695.2415
 102  633.0699
 103  521.5441
 104  523.0732
 105  502.6452
 106  520.975
 107  532.0809
 108  657.2744
 109  631.9267
 110  648.497
 111  601.1437
 112  508.4712
 113  459.3433
 114  388.2562
 115  455.7662
 116  538.0815
 117  578.6489
 118  510.0242
 119  470.8787
 120  560.8948
 121  531.4752
 122  655.7888
 123  632.4108
 124  606.3162
 125  616.8549
 126  602.2061
 127  658.8406
 128  633.7322
 129  544.3779
 130  513.1953
 131  470.7912
 132  608.5667
 133  696.4534
 134  599.796
 135  577.2596
 136  578.9329
 137  632.2542
 138  596.8734
 139  514.2717
 140  512.9792
 141  614.5182
 142  661.1743
 143  721.853
 144  589.5191
 145  587.2299
 146  562.6536
 147  586.201
 148  490.3256
 149  653.6649
 150  756.5397
 151  705.2253
 152  762.4929
 153  727.4455
 154  668.8196
 155  672.1868
 156  678.3024
 157  708.0118
 158  585.8674
 159  533.4136
 160  585.9492
 161  598.9512
 162  670.5395
 163  627.8923
 164  631.9548
 165  687.6069
 166  730.7975
 167  701.0713
 168  718.2986
 169  592.9365
 170  722.8239
 171  590.7761
 172  674.512
 173  589.2968
 174  713.2845
 175  747.5346
 176  715.3149
 177  672.3434
 178  619.135
 179  636.3625
 180  649.0058
 181  579.2087
 182  663.9896
 183  784.5627
 184  678.8867
 185  651.0387
 186  728.0494
 187  602.6456
 188  556.0323
 189  566.8093
 190  621.4019
 191  661.0669
 192  715.9562
 193  520.5836
 194  561.9613
 195  564.1642
 196  581.4182
 197  548.3304
 198  613.5186
 199  653.7646
 200  710.854
 201  594.3123
 202  537.8411
 203  674.6664
 204  589.7607
 205  511.4138
 206  502.2834
 207  626.9098
 208  707.6661
 209  501.9376
 210  554.0679
 211  585.262
 212  504.3708
 213  581.5945
 214  672.4119
 215  690.9718
 216  684.8486
 217  537.2008
 218  499.3542
 219  553.1172
 220  581.9137
 221  723.3284
 222  668.4213
 223  616.3338
 224  659.3096
 225  715.624
 226  664.6079
 227  601.666
 228  700.4455
 229  601.4542
 230  622.0171
 231  820.6763
 232  745.5543
 233  681.9625
 234  682.4165
 235  687.1119
 236  630.6165
 237  587.8732
 238  639.2966
 239  592.874
 240  627.062
 241  697.2137
 242  727.1737
 243  618.2534
 244  588.6774
 245  658.2354
 246  704.5385
 247  785.8341
 248  771.9735
 249  682.0718
 250  732.8582
 251  682.525
 252  575.0032
 253  606.5317
 254  594.8066
 255  639.2317
 256  643.9838
 257  833.5801
 258  798.3682
 259  772.1064
 260  722.1017
 261  707.6675
 262  619.6762
 263  660.7448
 264  643.362
 265  545.8734
 266  663.2183
 267  667.6164
 268  575.46
 269  537.0744
 270  562.8782
 271  632.5101
 272  622.6285
 273  592.0392
 274  586.8121
 275  666.1187
 276  586.264
 277  569.7358
 278  668.7028
 279  724.1572
 280  699.6019
 281  700.2669
 282  606.8882
 283  666.3564
 284  527.6554
 285  451.3906
 286  613.6126
 287  659.4349
 288  719.5081
 289  657.7252
 290  574.4663
 291  621.109
 292  659.3968
 293  652.8592
 294  656.401
 295  803.5591
 296  728.8981
 297  583.1926
 298  511.3079
 299  554.9733
 300  616.5777
 301  555.3146
 302  548.1431
 303  640.9188
 304  558.0549
 305  536.1868
 306  550.2423
 307  564.3964
 308  555.6039
 309  557.4565
 310  683.4665
 311  688.4763
 312  604.2558
 313  508.228
 314  600.0137
 315  704.3623
 316  639.4415
 317  486.8388
 318  613.178
 319  525.8785
 320  589.5168
 321  593.9408
 322  593.2453
 323  687.8731
 324  635.7512
 325  599.7278
 326  468.5433
 327  535.7682
 328  599.0699
 329  562.4542
 330  551.1858
 331  599.2811
 332  623.6232
 333  409.5257
 334  438.7962
 335  644.1179
 336  569.9124
 337  543.3413
 338  625.9294
 339  635.6501
 340  666.5676
 341  575.4664
 342  531.9507
 343  589.4739
 344  431.1347
 345  482.9688
 346  568.4279
 347  661.8132
 348  694.9812
 349  693.3082
 350  616.2834
 351  506.0065
 352  502.3188
 353  574.913
 354  621.9971
 355  526.1743
 356  558.1793
 357  572.463
 358  545.8386
 359  569.7568
 360  652.5101
 361  566.1901
 362  661.3792
 363  660.7846
 364  644.2219
 365  655.2441
 366  668.8776
 367  685.062
 368  644.9759
 369  779.6968
 370  644.5958
 371  644.0828
 372  763.9312
 373  733.5858
 374  695.9875
 375  672.7406
 376  770.942
 377  711.8813
 378  815.1445
 379  840.8705
 380  789.0088
 381  724.0547
 382  756.5024
 383  640.5425
 384  666.3213
 385  751.0836
 386  635.5272
 387  669.2463
 388  712.206
 389  778.669
 390  812.7977
 391  633.4639
 392  610.526
 393  641.7552
 394  718.1555
 395  713.9692
 396  622.4907
 397  612.0946
 398  708.863
 399  665.9945
 400  504.8596
 401  706.1274
 402  619.6357
 403  606.6061
 404  711.4852
 405  825.7698
 406  858.6179
 407  637.6382
 408  649.4799
 409  661.5946
 410  709.1083
 411  774.3652
 412  665.5239
 413  661.1055
 414  742.6412
 415  775.3849
 416  683.9192
 417  650.7953
 418  534.0502
 419  436.8739
 420  561.3709
 421  550.6278
 422  644.1285
 423  712.7185
 424  627.1456
 425  535.0685
 426  536.7539
 427  478.1371
 428  505.945
 429  683.0181
 430  604.0648
 431  651.0531
 432  646.0344
 433  525.1378
 434  477.2295
 435  558.3387
 436  577.8384
 437  615.4556
 438  730.8322
 439  870.4186
 440  620.047
 441  440.2884
 442  513.6261
 443  653.4841
 444  665.7274
 445  681.5524
 446  714.8367
 447  712.5543
 448  746.3173
 449  611.9547
 450  563.3209
 451  666.6856
 452  626.837
 453  706.5677
 454  736.5636
 455  708.8624
 456  731.3989
 457  656.1238
 458  580.3922
 459  609.5248
 460  646.205
 461  580.8727
 462  631.4384
 463  670.2613
 464  641.5784
 465  683.37
 466  554.097
 467  473.0642
 468  497.5812
 469  573.0981
 470  715.9557
 471  724.6813
 472  832.2404
 473  849.4276
 474  665.2512
 475  613.4731
 476  470.528
 477  491.8459
 478  618.8677
 479  769.8249
 480  628.0985
 481  561.3703
 482  495.0811
 483  575.608
 484  681.6876
 485  524.0404
 486  487.3988
 487  517.4623
 488  643.4465
 489  659.0185
 490  561.5276
 491  477.6751
 492  558.7474
 493  614.9611
 494  631.241
 495  657.7113
 496  698.4637
 497  644.7414
 498  588.2808
 499  530.8873
 500  539.1173
 501  570.7077
 502  613.8616
 503  707.1904
 504  692.6814
 505  792.3746
 506  781.1143
 507  728.4456
 508  785.5579
 509  926.0918
 510  1142.281
 511  1291.503
