# Input file       =  1205654617.111455_cleaned.dat
# Candidate        =  PSR_0332+5434
# Telescope        =  AR
# Epoch_topo       =  58198.335637864060
# Epoch_bary       =  N/A
# T_sample         =  0.002
# Data Folded      =  7143424
# Data Avg         =  0.0991138499401909
# Data StdDev      =  1.00014378145986 
# Profile Bins     =  512
# Profile Avg      =  1382.79589931853 
# Profile StdDev   =  118.13556774438  
# Reduced chi-sqr  =  1.186
# Prob(Noise)      <  0.00237   (~2.8 sigma)
# P_topo (ms)      =  714.575147140802  +/- 5.96e-05
# P'_topo (s/s)    =  -0                +/- 3.23e-11
# P''_topo (s/s^2) =  0                 +/- 1.47e-14
# P_bary (ms)      =  N/A
# P'_bary (s/s)    =  N/A
# P''_bary (s/s^2) =  N/A
# P_orb (s)        =  N/A
# asin(i)/c (s)    =  N/A
# eccentricity     =  N/A
# w (rad)          =  N/A
# T_peri           =  N/A
######################################################
   0  1756.671
   1  1653.128
   2  1559.768
   3  1472.981
   4  1520.089
   5  1470.241
   6  1371.583
   7  1326.982
   8  1348.288
   9  1484.137
  10  1508.943
  11  1440.391
  12  1450.834
  13  1459.552
  14  1453.433
  15  1445.748
  16  1287.347
  17  1377.185
  18  1447.249
  19  1438.85
  20  1408.655
  21  1275.734
  22  1197.069
  23  1257.561
  24  1274.125
  25  1338.621
  26  1346.471
  27  1369.471
  28  1453.791
  29  1392.984
  30  1378.1
  31  1319.851
  32  1326.582
  33  1319.837
  34  1335.932
  35  1407.864
  36  1501.466
  37  1332.529
  38  1299.179
  39  1284.632
  40  1284.789
  41  1342.785
  42  1412.17
  43  1499.4
  44  1493.252
  45  1426.851
  46  1491.547
  47  1356.994
  48  1239.049
  49  1224.391
  50  1270.465
  51  1295.21
  52  1260.359
  53  1315.223
  54  1271.785
  55  1234.818
  56  1286.681
  57  1230.558
  58  1190.523
  59  1363.099
  60  1404.943
  61  1343.285
  62  1260.599
  63  1255.752
  64  1241.481
  65  1298.993
  66  1231.378
  67  1232.242
  68  1246.403
  69  1375.602
  70  1313.383
  71  1362.722
  72  1363.397
  73  1242.844
  74  1309.711
  75  1327.839
  76  1389.698
  77  1423.181
  78  1390.483
  79  1369.397
  80  1319.004
  81  1369.147
  82  1280.75
  83  1292.932
  84  1296.088
  85  1316.253
  86  1308.879
  87  1326.22
  88  1253.914
  89  1250.529
  90  1186.642
  91  1192.914
  92  1333.187
  93  1406.924
  94  1454.874
  95  1428.18
  96  1361.345
  97  1198.866
  98  1179.66
  99  1189.018
 100  1271.186
 101  1403.622
 102  1458.182
 103  1421.907
 104  1293.286
 105  1238.355
 106  1225.807
 107  1276.942
 108  1393.424
 109  1357
 110  1490.422
 111  1509.36
 112  1486.859
 113  1278.852
 114  1431.659
 115  1522.444
 116  1531.982
 117  1478.701
 118  1428.654
 119  1400.486
 120  1345.328
 121  1450.001
 122  1481.224
 123  1416.134
 124  1382.724
 125  1457.692
 126  1411.834
 127  1454.375
 128  1536.314
 129  1433.649
 130  1321.891
 131  1320.078
 132  1341.992
 133  1408.644
 134  1498.202
 135  1427.156
 136  1397.08
 137  1341.927
 138  1253.683
 139  1327.29
 140  1306.513
 141  1342.883
 142  1322.642
 143  1422.388
 144  1471.281
 145  1528.581
 146  1486.68
 147  1355.015
 148  1348.924
 149  1500.697
 150  1507.635
 151  1373.689
 152  1421.989
 153  1392.618
 154  1382.621
 155  1368.64
 156  1273.351
 157  1377.962
 158  1327.671
 159  1389.66
 160  1382.716
 161  1551.965
 162  1449.687
 163  1324.568
 164  1414.266
 165  1419.104
 166  1532.312
 167  1449.512
 168  1371.422
 169  1412.032
 170  1316.996
 171  1263.628
 172  1238.28
 173  1308.926
 174  1362.647
 175  1368.469
 176  1398.961
 177  1385.238
 178  1436.767
 179  1408.084
 180  1310.119
 181  1370.192
 182  1331.422
 183  1274.331
 184  1308.223
 185  1306.182
 186  1319.37
 187  1302.609
 188  1287.625
 189  1287.745
 190  1313.671
 191  1354.157
 192  1441.41
 193  1487.021
 194  1441.972
 195  1320.894
 196  1348.088
 197  1333.475
 198  1278.305
 199  1303.516
 200  1357.603
 201  1415.735
 202  1434.075
 203  1379.426
 204  1298.146
 205  1222.833
 206  1184.673
 207  1290.036
 208  1307.459
 209  1280.47
 210  1373.891
 211  1360.704
 212  1339.253
 213  1309.403
 214  1215.471
 215  1282.708
 216  1352.926
 217  1365.89
 218  1315.741
 219  1272.441
 220  1270.778
 221  1306.222
 222  1217.352
 223  1212.148
 224  1245.77
 225  1272.513
 226  1238.811
 227  1312.4
 228  1334.237
 229  1244.256
 230  1223.039
 231  1366.23
 232  1334.97
 233  1323.45
 234  1387.882
 235  1383.578
 236  1257.886
 237  1287.927
 238  1454.011
 239  1478.882
 240  1410.441
 241  1405.663
 242  1451.931
 243  1468.924
 244  1429.154
 245  1358.157
 246  1359.049
 247  1445.102
 248  1406.44
 249  1336.947
 250  1405.811
 251  1361.887
 252  1310.292
 253  1432.205
 254  1361.781
 255  1235.319
 256  1331.359
 257  1393.115
 258  1433.698
 259  1505.084
 260  1419.905
 261  1319.806
 262  1387.781
 263  1365.472
 264  1349.995
 265  1418.606
 266  1467.144
 267  1504.364
 268  1573.717
 269  1549.78
 270  1453.106
 271  1403.167
 272  1441.967
 273  1390.314
 274  1352.647
 275  1374.913
 276  1343.421
 277  1345.024
 278  1355.493
 279  1217.494
 280  1232.81
 281  1286.733
 282  1401.938
 283  1456.028
 284  1383.103
 285  1378.242
 286  1319.136
 287  1317.229
 288  1299.457
 289  1310.062
 290  1333.635
 291  1375.01
 292  1454.947
 293  1458.425
 294  1433.632
 295  1341.97
 296  1397.763
 297  1447.158
 298  1414.448
 299  1427.756
 300  1467.816
 301  1403.01
 302  1220.623
 303  1273.229
 304  1357.995
 305  1340.823
 306  1434.198
 307  1401.75
 308  1457.905
 309  1357.203
 310  1339.065
 311  1374.382
 312  1331.16
 313  1303.986
 314  1405.317
 315  1373.067
 316  1368.617
 317  1368.744
 318  1364.176
 319  1398.172
 320  1364.695
 321  1318.271
 322  1169.24
 323  1268.851
 324  1365.237
 325  1290.155
 326  1310.964
 327  1262.633
 328  1228.586
 329  1208.043
 330  1279.75
 331  1386.717
 332  1371.073
 333  1372.948
 334  1394.262
 335  1291.862
 336  1200.325
 337  1274.406
 338  1273.873
 339  1342.674
 340  1387.646
 341  1472.044
 342  1500.17
 343  1472.864
 344  1248.86
 345  1258.288
 346  1316.821
 347  1304.557
 348  1273.474
 349  1292.714
 350  1378.248
 351  1339.968
 352  1252.713
 353  1247.611
 354  1309.798
 355  1370.591
 356  1368.926
 357  1343.748
 358  1442.444
 359  1474.007
 360  1487.47
 361  1425.024
 362  1202.1
 363  1229.792
 364  1333.03
 365  1328.741
 366  1322.254
 367  1372.893
 368  1439.445
 369  1464.581
 370  1414.327
 371  1337.165
 372  1270.34
 373  1501.108
 374  1414.23
 375  1394.85
 376  1506.458
 377  1389.418
 378  1426.131
 379  1473.378
 380  1406.718
 381  1351.191
 382  1452.532
 383  1453.281
 384  1430.027
 385  1450.183
 386  1347.495
 387  1324.33
 388  1304.806
 389  1381.974
 390  1458.681
 391  1487.255
 392  1574.493
 393  1561.693
 394  1401.763
 395  1366.356
 396  1437.494
 397  1414.36
 398  1494.837
 399  1424.126
 400  1485.718
 401  1415.887
 402  1406.688
 403  1440.456
 404  1560.222
 405  1511.042
 406  1417.117
 407  1365.538
 408  1449.724
 409  1468.632
 410  1518.994
 411  1491.157
 412  1480.552
 413  1430.009
 414  1472.373
 415  1516.798
 416  1455.817
 417  1434.861
 418  1456.534
 419  1405.342
 420  1345.212
 421  1467.013
 422  1630.396
 423  1550.8
 424  1552.13
 425  1527.228
 426  1457.888
 427  1389.545
 428  1406.728
 429  1515.193
 430  1507.115
 431  1437.206
 432  1544.402
 433  1541.598
 434  1510.86
 435  1550.832
 436  1476.222
 437  1530.795
 438  1520.337
 439  1521.275
 440  1529.028
 441  1614.44
 442  1592.33
 443  1451.159
 444  1369.749
 445  1340.577
 446  1359.407
 447  1521.308
 448  1607.472
 449  1483.8
 450  1467.442
 451  1411.552
 452  1363.162
 453  1366.631
 454  1440.665
 455  1453.872
 456  1453.925
 457  1462.694
 458  1533.84
 459  1444.423
 460  1276.607
 461  1300.639
 462  1373.732
 463  1389.601
 464  1337.803
 465  1343.88
 466  1473.51
 467  1454.764
 468  1428.246
 469  1402.434
 470  1414.688
 471  1382.459
 472  1420.373
 473  1453.621
 474  1514.89
 475  1472.399
 476  1470.159
 477  1380.119
 478  1368.092
 479  1341.571
 480  1456.014
 481  1519.777
 482  1477.313
 483  1454.091
 484  1378.905
 485  1307.296
 486  1322.69
 487  1286.668
 488  1342.568
 489  1369.448
 490  1424.19
 491  1334.992
 492  1363.974
 493  1439.132
 494  1312.75
 495  1416.02
 496  1424.594
 497  1441.53
 498  1469.506
 499  1466.944
 500  1441.213
 501  1299.745
 502  1276.676
 503  1400.225
 504  1462.251
 505  1434.797
 506  1353.794
 507  1518.472
 508  1583.454
 509  1666.301
 510  1668.333
 511  1723.563
