# Input file       =  1205755380.118942_cleaned.dat
# Candidate        =  PSR_0332+5434
# Telescope        =  AR
# Epoch_topo       =  58199.501876376642
# Epoch_bary       =  N/A
# T_sample         =  0.002
# Data Folded      =  7340032
# Data Avg         =  0.09228700819808 
# Data StdDev      =  1.00015134620955 
# Profile Bins     =  512
# Profile Avg      =  1323.3013006681  
# Profile StdDev   =  119.75115751798  
# Reduced chi-sqr  =  1.255
# Prob(Noise)      <  7.55e-05   (~3.8 sigma)
# P_topo (ms)      =  714.574639177604  +/- 0.000539
# P'_topo (s/s)    =  -0                +/- 2.84e-10
# P''_topo (s/s^2) =  0                 +/- 1.25e-13
# P_bary (ms)      =  N/A
# P'_bary (s/s)    =  N/A
# P''_bary (s/s^2) =  N/A
# P_orb (s)        =  N/A
# asin(i)/c (s)    =  N/A
# eccentricity     =  N/A
# w (rad)          =  N/A
# T_peri           =  N/A
######################################################
   0  1882.722
   1  1872.593
   2  1823.722
   3  1602.551
   4  1405.979
   5  1352.603
   6  1236.352
   7  1190.527
   8  1253.452
   9  1278.491
  10  1242.613
  11  1222.786
  12  1286.867
  13  1347.042
  14  1271.601
  15  1289.76
  16  1400.445
  17  1425.437
  18  1362.489
  19  1245.615
  20  1286.21
  21  1217.179
  22  1210.637
  23  1270.266
  24  1140.047
  25  1206.185
  26  1247.598
  27  1208.65
  28  1237.341
  29  1230.988
  30  1239.623
  31  1154.017
  32  1202.469
  33  1290.359
  34  1276.55
  35  1289.052
  36  1242.615
  37  1223.764
  38  1267.37
  39  1248.627
  40  1232.43
  41  1173.942
  42  1179.662
  43  1208.097
  44  1216.448
  45  1177.655
  46  1131.969
  47  1151.744
  48  1206.106
  49  1188.413
  50  1171.252
  51  1174.189
  52  1245.466
  53  1162.081
  54  1142.045
  55  1089.158
  56  1118.679
  57  1123.033
  58  1161.804
  59  1128.596
  60  1180.567
  61  1254.962
  62  1252.346
  63  1239.083
  64  1188.202
  65  1175.875
  66  1148.045
  67  1215.552
  68  1310.21
  69  1283.991
  70  1245.394
  71  1288.85
  72  1405.068
  73  1344.944
  74  1349.067
  75  1345.414
  76  1371.234
  77  1376.372
  78  1371.341
  79  1360.899
  80  1274.072
  81  1310.859
  82  1339.187
  83  1345.313
  84  1406.062
  85  1263.598
  86  1257.919
  87  1189.931
  88  1274.11
  89  1318.772
  90  1294.712
  91  1319.757
  92  1326.297
  93  1330.314
  94  1318.026
  95  1362.767
  96  1381.286
  97  1335.331
  98  1345.738
  99  1289.301
 100  1291.241
 101  1329.018
 102  1287.553
 103  1338.354
 104  1286.934
 105  1264.055
 106  1417.437
 107  1438.574
 108  1407.192
 109  1389.989
 110  1363.558
 111  1344.716
 112  1361.532
 113  1437.426
 114  1395.534
 115  1385.356
 116  1401.19
 117  1485.144
 118  1395.127
 119  1451.812
 120  1477.585
 121  1518.178
 122  1395.127
 123  1357.136
 124  1261.534
 125  1228.832
 126  1331.44
 127  1367.377
 128  1331.395
 129  1291.738
 130  1250.972
 131  1204.022
 132  1230.052
 133  1294.814
 134  1279.407
 135  1284.038
 136  1369.276
 137  1362.2
 138  1252.034
 139  1316.555
 140  1357.918
 141  1270.877
 142  1282.056
 143  1287.761
 144  1321.933
 145  1384.794
 146  1393.512
 147  1312.811
 148  1248.933
 149  1187.509
 150  1191.671
 151  1297.545
 152  1308.155
 153  1319.842
 154  1278.902
 155  1223.656
 156  1266.895
 157  1268.971
 158  1300.143
 159  1243.713
 160  1244.726
 161  1223.259
 162  1251.635
 163  1205.5
 164  1285.544
 165  1398.154
 166  1412.157
 167  1385.685
 168  1321.871
 169  1281.092
 170  1340.549
 171  1326.934
 172  1341.243
 173  1332.17
 174  1350.056
 175  1346.822
 176  1248.933
 177  1251.12
 178  1316.005
 179  1253.51
 180  1232.3
 181  1282.824
 182  1370.948
 183  1426.255
 184  1329.721
 185  1317.966
 186  1392.506
 187  1377.237
 188  1298.327
 189  1319.165
 190  1421.596
 191  1369.912
 192  1329.074
 193  1379.864
 194  1339.575
 195  1236.687
 196  1277.594
 197  1263.461
 198  1242.304
 199  1304.789
 200  1345.261
 201  1407.706
 202  1496.699
 203  1397.155
 204  1306.904
 205  1398.344
 206  1429.315
 207  1456.921
 208  1423.586
 209  1405.69
 210  1370.558
 211  1373.375
 212  1334.831
 213  1364.231
 214  1461.761
 215  1476.968
 216  1452.718
 217  1438.357
 218  1433.915
 219  1461.51
 220  1471.229
 221  1413.927
 222  1380.13
 223  1397.058
 224  1406.093
 225  1508.295
 226  1481.903
 227  1342.564
 228  1341.006
 229  1398.9
 230  1447.843
 231  1392.557
 232  1441.051
 233  1462.983
 234  1377.348
 235  1408.526
 236  1380.448
 237  1489.547
 238  1449.776
 239  1429.464
 240  1336.488
 241  1323.909
 242  1300.489
 243  1384.114
 244  1420.762
 245  1462.836
 246  1489.673
 247  1451.306
 248  1309.635
 249  1359.783
 250  1403.501
 251  1417.771
 252  1367.33
 253  1383.818
 254  1374.596
 255  1314.049
 256  1292.616
 257  1306.884
 258  1374.356
 259  1376.579
 260  1296.53
 261  1295.979
 262  1270.47
 263  1365.538
 264  1430.482
 265  1434.307
 266  1326.538
 267  1322.383
 268  1411.191
 269  1426.261
 270  1464.792
 271  1417.792
 272  1303.659
 273  1311.885
 274  1380.048
 275  1326.899
 276  1428.925
 277  1311.979
 278  1371.467
 279  1468.993
 280  1354.005
 281  1276.771
 282  1328.937
 283  1264.604
 284  1223.277
 285  1258.751
 286  1299.535
 287  1320.917
 288  1292.82
 289  1293.137
 290  1349.511
 291  1315.907
 292  1330.717
 293  1294.089
 294  1357.48
 295  1374.332
 296  1301.242
 297  1328.295
 298  1416.969
 299  1330.545
 300  1249.057
 301  1379.886
 302  1453.492
 303  1408.75
 304  1448.293
 305  1360.06
 306  1343.217
 307  1331.27
 308  1282.187
 309  1280.142
 310  1318.572
 311  1324.959
 312  1254.617
 313  1430.475
 314  1357.275
 315  1339.179
 316  1308.284
 317  1277.521
 318  1286.079
 319  1309.716
 320  1379.833
 321  1370.209
 322  1268.961
 323  1237.205
 324  1227.106
 325  1328.684
 326  1392.297
 327  1372.226
 328  1385.225
 329  1419.48
 330  1549.948
 331  1423.531
 332  1450.359
 333  1359.255
 334  1347.772
 335  1349.015
 336  1380.685
 337  1471.686
 338  1437.987
 339  1362.279
 340  1302.857
 341  1386.2
 342  1363.459
 343  1381.814
 344  1327.522
 345  1305.484
 346  1301.231
 347  1338.482
 348  1378.032
 349  1330.428
 350  1225.174
 351  1245.883
 352  1230.094
 353  1211.007
 354  1237.539
 355  1250.045
 356  1205.936
 357  1199.802
 358  1171.908
 359  1314.569
 360  1248.599
 361  1205.87
 362  1272.764
 363  1293.864
 364  1299.451
 365  1273.658
 366  1242.99
 367  1275.798
 368  1338.076
 369  1250.329
 370  1258.874
 371  1341.045
 372  1359.281
 373  1312.13
 374  1204.172
 375  1330.422
 376  1313.95
 377  1296.603
 378  1243.34
 379  1289.042
 380  1343.352
 381  1319.884
 382  1306.034
 383  1347.589
 384  1346.755
 385  1351.749
 386  1281.976
 387  1346.155
 388  1298.201
 389  1269.094
 390  1309.856
 391  1293.559
 392  1306.471
 393  1329.677
 394  1415.09
 395  1318.852
 396  1309.773
 397  1355.61
 398  1321.543
 399  1348.698
 400  1353.576
 401  1350.649
 402  1324.691
 403  1267.781
 404  1295.683
 405  1250.014
 406  1281.469
 407  1301.317
 408  1303.206
 409  1340.384
 410  1348.967
 411  1309.94
 412  1306.543
 413  1314.296
 414  1233.376
 415  1331.621
 416  1375.63
 417  1267.338
 418  1256.642
 419  1253.527
 420  1239.46
 421  1256.182
 422  1325.001
 423  1321.85
 424  1291.598
 425  1293.718
 426  1406.358
 427  1318.417
 428  1306.319
 429  1252.533
 430  1186.648
 431  1217.058
 432  1241.811
 433  1230.661
 434  1298.385
 435  1311.021
 436  1324.232
 437  1316.602
 438  1240.019
 439  1276.327
 440  1351.066
 441  1307.344
 442  1248.944
 443  1151.604
 444  1198.431
 445  1264.448
 446  1348.029
 447  1353.103
 448  1273.842
 449  1176.12
 450  1257.09
 451  1261.201
 452  1222.16
 453  1301.056
 454  1281.529
 455  1329.565
 456  1249.68
 457  1300.057
 458  1233.464
 459  1221.28
 460  1302.753
 461  1311.688
 462  1307.667
 463  1325.089
 464  1312.174
 465  1262.06
 466  1336.194
 467  1335.229
 468  1233.834
 469  1247.711
 470  1261.801
 471  1295.992
 472  1262.365
 473  1348.127
 474  1218.921
 475  1161.863
 476  1197.243
 477  1212.154
 478  1136.124
 479  1206.406
 480  1154.158
 481  1205.709
 482  1166.945
 483  1241.221
 484  1246.282
 485  1280.12
 486  1416.98
 487  1271.894
 488  1263.833
 489  1319.322
 490  1348.177
 491  1384.644
 492  1440.297
 493  1464.45
 494  1467.027
 495  1417.749
 496  1359.52
 497  1383.098
 498  1368.886
 499  1411.789
 500  1434.496
 501  1373.427
 502  1444.79
 503  1437.001
 504  1431.449
 505  1410.645
 506  1414.695
 507  1580.272
 508  1543.035
 509  1675.054
 510  1772.668
 511  1846.213
