# Input file       =  1205324951.116461_cleaned.dat
# Candidate        =  PSR_0332+5434
# Telescope        =  AR
# Epoch_topo       =  58194.520059218296
# Epoch_bary       =  N/A
# T_sample         =  0.002
# Data Folded      =  7340032
# Data Avg         =  0.115049420866177
# Data StdDev      =  1.00019692582733 
# Profile Bins     =  512
# Profile Avg      =  1649.40202873761 
# Profile StdDev   =  119.756614904013 
# Reduced chi-sqr  =  1.234
# Prob(Noise)      <  0.000231   (~3.5 sigma)
# P_topo (ms)      =  714.576718145174  +/- 0.000603
# P'_topo (s/s)    =  -0                +/- 3.18e-10
# P''_topo (s/s^2) =  0                 +/- 1.41e-13
# P_bary (ms)      =  N/A
# P'_bary (s/s)    =  N/A
# P''_bary (s/s^2) =  N/A
# P_orb (s)        =  N/A
# asin(i)/c (s)    =  N/A
# eccentricity     =  N/A
# w (rad)          =  N/A
# T_peri           =  N/A
######################################################
   0  2116.157
   1  2121.285
   2  2036.818
   3  1991.529
   4  1832.476
   5  1767.261
   6  1710.411
   7  1709.065
   8  1641.699
   9  1668.099
  10  1738.749
  11  1679.918
  12  1638.222
  13  1648.681
  14  1662.988
  15  1648.643
  16  1667.362
  17  1666.262
  18  1676.566
  19  1732.793
  20  1710.522
  21  1779.433
  22  1716.559
  23  1663.074
  24  1644.737
  25  1659.943
  26  1614.401
  27  1588.369
  28  1551.048
  29  1500.695
  30  1564.605
  31  1638.908
  32  1595.656
  33  1519.377
  34  1512.955
  35  1608.788
  36  1571.833
  37  1566.027
  38  1556.886
  39  1504.03
  40  1414.568
  41  1531.824
  42  1554.875
  43  1548.49
  44  1572.456
  45  1573.875
  46  1518.624
  47  1539.926
  48  1483.415
  49  1489.089
  50  1502.979
  51  1561.49
  52  1480.145
  53  1506.997
  54  1513.54
  55  1509.874
  56  1531.738
  57  1571.432
  58  1550.771
  59  1498.083
  60  1458.916
  61  1511.644
  62  1533.782
  63  1544.208
  64  1485.401
  65  1538.27
  66  1659.274
  67  1637.724
  68  1601.015
  69  1427.235
  70  1545.638
  71  1537.071
  72  1505.766
  73  1554.061
  74  1573.363
  75  1623.842
  76  1592.881
  77  1576.527
  78  1663.555
  79  1521.294
  80  1484.405
  81  1582.89
  82  1646.548
  83  1521.568
  84  1563.961
  85  1562.572
  86  1569.176
  87  1579.047
  88  1593.104
  89  1643.894
  90  1680.713
  91  1694.862
  92  1598.102
  93  1555.495
  94  1586.474
  95  1597.04
  96  1668.409
  97  1703.543
  98  1746.729
  99  1695.905
 100  1633.905
 101  1631.146
 102  1605.8
 103  1650.056
 104  1684.335
 105  1649.805
 106  1651.95
 107  1639.489
 108  1505.852
 109  1518.852
 110  1652.778
 111  1631.325
 112  1525.196
 113  1563.897
 114  1575.518
 115  1519.03
 116  1601.737
 117  1562.151
 118  1506.781
 119  1547.232
 120  1599.608
 121  1532.754
 122  1475.21
 123  1517.539
 124  1506.661
 125  1579.521
 126  1604.732
 127  1582.148
 128  1584.697
 129  1523.133
 130  1546.359
 131  1571.579
 132  1514.278
 133  1476.107
 134  1527.51
 135  1598.486
 136  1637.09
 137  1595.626
 138  1643.374
 139  1710.529
 140  1687.243
 141  1629.366
 142  1613.928
 143  1651.994
 144  1799.684
 145  1650.453
 146  1664.24
 147  1624.365
 148  1739.007
 149  1775.076
 150  1711.971
 151  1678.051
 152  1643.972
 153  1661.006
 154  1696.419
 155  1676.971
 156  1768.246
 157  1671.388
 158  1647.641
 159  1582.637
 160  1609.917
 161  1673.404
 162  1698.027
 163  1678.955
 164  1718.542
 165  1651.52
 166  1655.968
 167  1697.706
 168  1692.163
 169  1585.746
 170  1626.469
 171  1732.974
 172  1761.821
 173  1730.075
 174  1755.657
 175  1675.711
 176  1676.715
 177  1779.583
 178  1757.085
 179  1751.432
 180  1812.383
 181  1822.201
 182  1704.999
 183  1715.895
 184  1705.205
 185  1682.513
 186  1711.826
 187  1697.864
 188  1702.916
 189  1803.722
 190  1809.002
 191  1675.724
 192  1639.452
 193  1677.623
 194  1754.792
 195  1729.126
 196  1711.661
 197  1764.396
 198  1670.879
 199  1647.238
 200  1666.225
 201  1651.063
 202  1678.635
 203  1630.174
 204  1589.262
 205  1565.473
 206  1592.341
 207  1570.165
 208  1648.453
 209  1652.308
 210  1592.484
 211  1523.714
 212  1449.509
 213  1513.323
 214  1613.297
 215  1606.164
 216  1547.747
 217  1645.854
 218  1595.993
 219  1594.967
 220  1558.616
 221  1637.39
 222  1593.466
 223  1618.167
 224  1578.043
 225  1571.625
 226  1643.986
 227  1618.658
 228  1653.516
 229  1683.321
 230  1608.784
 231  1559.649
 232  1515.146
 233  1635.052
 234  1666.026
 235  1727.06
 236  1630.457
 237  1568.967
 238  1570.104
 239  1549.333
 240  1524.106
 241  1571.561
 242  1579.403
 243  1481.293
 244  1532.825
 245  1601.917
 246  1612.362
 247  1584.777
 248  1506.572
 249  1499.994
 250  1578.968
 251  1530.267
 252  1492.688
 253  1519.495
 254  1555.151
 255  1551.199
 256  1498.155
 257  1515.864
 258  1519.747
 259  1492.469
 260  1492.46
 261  1584.076
 262  1544.391
 263  1574.454
 264  1610.763
 265  1541.767
 266  1553.401
 267  1600.687
 268  1643.251
 269  1681.24
 270  1706.207
 271  1727.404
 272  1712.462
 273  1707.151
 274  1711.155
 275  1741.906
 276  1771.924
 277  1749.882
 278  1748.67
 279  1750.493
 280  1706.797
 281  1705.839
 282  1687.836
 283  1622.878
 284  1695.896
 285  1705.109
 286  1631.586
 287  1698.74
 288  1691.583
 289  1591.412
 290  1603.185
 291  1607.224
 292  1543.221
 293  1601.094
 294  1618.733
 295  1677.255
 296  1711.558
 297  1708.675
 298  1734.196
 299  1726.391
 300  1679.65
 301  1689.446
 302  1812.5
 303  1802.738
 304  1817.901
 305  1825.915
 306  1752.969
 307  1734.847
 308  1749.309
 309  1792.127
 310  1831.762
 311  1895.758
 312  1839.935
 313  1804.992
 314  1826.27
 315  1726.217
 316  1701.828
 317  1715.202
 318  1702.217
 319  1756.206
 320  1753.698
 321  1679.177
 322  1777.975
 323  1760.277
 324  1711.719
 325  1680.585
 326  1673.46
 327  1608.675
 328  1511.119
 329  1568.732
 330  1686.766
 331  1671.614
 332  1586.92
 333  1651.286
 334  1668.738
 335  1665.205
 336  1691.807
 337  1689.898
 338  1701.777
 339  1673.636
 340  1784.749
 341  1784.541
 342  1651.25
 343  1603.36
 344  1687.182
 345  1667.221
 346  1734.826
 347  1745.874
 348  1643.572
 349  1651.315
 350  1684.294
 351  1707.758
 352  1661.448
 353  1709.263
 354  1791.931
 355  1743.653
 356  1786.774
 357  1793.212
 358  1766.843
 359  1729.59
 360  1828.976
 361  1716.852
 362  1758.508
 363  1854.719
 364  1816.79
 365  1764.337
 366  1768.244
 367  1763.801
 368  1721.637
 369  1751.796
 370  1681.421
 371  1713.584
 372  1746.92
 373  1846.682
 374  1729.81
 375  1635.363
 376  1668.063
 377  1687.44
 378  1690.268
 379  1679.219
 380  1640.541
 381  1651.769
 382  1739.744
 383  1712.79
 384  1646.771
 385  1652.018
 386  1700.305
 387  1732.871
 388  1681.023
 389  1647.881
 390  1715.949
 391  1753.074
 392  1726.106
 393  1573.2
 394  1618.928
 395  1659.605
 396  1666.689
 397  1685.245
 398  1619.322
 399  1557.822
 400  1580.131
 401  1606.947
 402  1544.84
 403  1579.445
 404  1587.442
 405  1624.62
 406  1644.579
 407  1570.118
 408  1615.161
 409  1589.504
 410  1634.776
 411  1614.151
 412  1611.89
 413  1574.671
 414  1573.319
 415  1515.635
 416  1578.025
 417  1593.339
 418  1530.085
 419  1562.159
 420  1635.052
 421  1639.815
 422  1583.407
 423  1678.503
 424  1623.023
 425  1585.912
 426  1658.055
 427  1623.788
 428  1563.84
 429  1627.656
 430  1623.503
 431  1582.766
 432  1618.417
 433  1621.355
 434  1644.937
 435  1663.108
 436  1641.919
 437  1628.434
 438  1553.979
 439  1621.658
 440  1574.78
 441  1559.325
 442  1559.926
 443  1614.701
 444  1576.015
 445  1536.189
 446  1554.337
 447  1548.578
 448  1601.675
 449  1627.006
 450  1604.376
 451  1617.87
 452  1604.486
 453  1634.699
 454  1668.838
 455  1674.803
 456  1631.608
 457  1613.755
 458  1670.453
 459  1627.501
 460  1639.916
 461  1654.959
 462  1614.588
 463  1642.775
 464  1624.317
 465  1666.554
 466  1741.987
 467  1766.821
 468  1771.724
 469  1709.45
 470  1717.835
 471  1618.282
 472  1725.777
 473  1662.457
 474  1579.522
 475  1604.472
 476  1710.291
 477  1790.367
 478  1745.187
 479  1729.622
 480  1728.431
 481  1696.119
 482  1712.802
 483  1723.148
 484  1713.905
 485  1737.367
 486  1690.652
 487  1781.602
 488  1701.494
 489  1714.439
 490  1664.106
 491  1646.645
 492  1634.969
 493  1737.818
 494  1764.386
 495  1750.693
 496  1694.737
 497  1763.369
 498  1672.216
 499  1615.231
 500  1643.761
 501  1586.095
 502  1645.148
 503  1711.82
 504  1734.202
 505  1731.117
 506  1712.204
 507  1727.194
 508  1860.347
 509  1900.206
 510  1976.592
 511  2112.118
