# Input file       =  1205568517.108477_cleaned.dat
# Candidate        =  PSR_0332+5434
# Telescope        =  AR
# Epoch_topo       =  58197.339110051820
# Epoch_bary       =  N/A
# T_sample         =  0.002
# Data Folded      =  7405568
# Data Avg         =  0.0996967452042395
# Data StdDev      =  1.00024781173953 
# Profile Bins     =  512
# Profile Avg      =  1442.00948120252 
# Profile StdDev   =  120.296174445595 
# Reduced chi-sqr  =  1.924
# Prob(Noise)      <  3.14e-32   (~11.8 sigma)
# P_topo (ms)      =  714.575575004301  +/- 6.85e-05
# P'_topo (s/s)    =  -0                +/- 3.58e-11
# P''_topo (s/s^2) =  0                 +/- 1.57e-14
# P_bary (ms)      =  N/A
# P'_bary (s/s)    =  N/A
# P''_bary (s/s^2) =  N/A
# P_orb (s)        =  N/A
# asin(i)/c (s)    =  N/A
# eccentricity     =  N/A
# w (rad)          =  N/A
# T_peri           =  N/A
######################################################
   0  2182
   1  2087.117
   2  1992.262
   3  1865.303
   4  1668.013
   5  1742.372
   6  1771.131
   7  1747.246
   8  1700.583
   9  1614.431
  10  1594.693
  11  1604.568
  12  1636.736
  13  1689.791
  14  1648.286
  15  1526.219
  16  1504.548
  17  1510.921
  18  1592.264
  19  1571.607
  20  1496.397
  21  1438.392
  22  1387.44
  23  1475.107
  24  1615.077
  25  1604.546
  26  1610.244
  27  1516.961
  28  1443.682
  29  1420.25
  30  1473.795
  31  1547.963
  32  1474.46
  33  1417.194
  34  1547.823
  35  1474.354
  36  1339.251
  37  1463.695
  38  1554.716
  39  1490.232
  40  1456.369
  41  1525.544
  42  1482.82
  43  1481.449
  44  1439.582
  45  1396.226
  46  1374.856
  47  1448.293
  48  1377.842
  49  1369.174
  50  1499.337
  51  1456.401
  52  1338.815
  53  1427.942
  54  1431.953
  55  1370.153
  56  1517.382
  57  1557.24
  58  1562.727
  59  1423.309
  60  1355.782
  61  1454.01
  62  1359.04
  63  1305.605
  64  1349.656
  65  1368.957
  66  1350.672
  67  1379.047
  68  1373.162
  69  1386.906
  70  1442.944
  71  1486.78
  72  1390.689
  73  1386.611
  74  1516.567
  75  1533.898
  76  1456.502
  77  1484.515
  78  1424.292
  79  1337.99
  80  1407.788
  81  1514.987
  82  1418.193
  83  1432.224
  84  1500.405
  85  1419.919
  86  1448.117
  87  1476.706
  88  1455.91
  89  1404.142
  90  1555.035
  91  1590.754
  92  1509.293
  93  1437.633
  94  1427.229
  95  1492.31
  96  1565.772
  97  1506.369
  98  1472.369
  99  1564.754
 100  1534.022
 101  1474.721
 102  1432.208
 103  1463.646
 104  1463.561
 105  1540.603
 106  1572.825
 107  1641.009
 108  1631.064
 109  1486.448
 110  1438.757
 111  1461.682
 112  1513.721
 113  1446.454
 114  1547.248
 115  1554.413
 116  1469.815
 117  1406.849
 118  1422.872
 119  1456.176
 120  1439.975
 121  1485.617
 122  1617.402
 123  1631.185
 124  1551.374
 125  1549.216
 126  1405.554
 127  1365.688
 128  1396.721
 129  1432.593
 130  1459.011
 131  1482.473
 132  1434.595
 133  1458.084
 134  1333.696
 135  1312.092
 136  1346.461
 137  1298.78
 138  1367.341
 139  1422.817
 140  1434.851
 141  1399.984
 142  1406.792
 143  1376.902
 144  1329.114
 145  1245.493
 146  1227.021
 147  1333.751
 148  1394.175
 149  1445.059
 150  1415.644
 151  1339.349
 152  1293.265
 153  1360.556
 154  1371.14
 155  1288.216
 156  1267.191
 157  1377.512
 158  1501.226
 159  1453.546
 160  1283.736
 161  1262.901
 162  1237.272
 163  1230.724
 164  1285.968
 165  1279.566
 166  1401.278
 167  1274.527
 168  1312.745
 169  1311.513
 170  1253.116
 171  1379.185
 172  1410.951
 173  1417.593
 174  1477.543
 175  1281.636
 176  1269.276
 177  1350.31
 178  1310.327
 179  1278.383
 180  1284.491
 181  1341.268
 182  1373.96
 183  1329.968
 184  1371.594
 185  1433.38
 186  1393.807
 187  1364.874
 188  1292.402
 189  1420.816
 190  1384.496
 191  1395.547
 192  1417.44
 193  1419.408
 194  1371.813
 195  1377.685
 196  1343.196
 197  1347.973
 198  1437.045
 199  1390.113
 200  1331.909
 201  1314.022
 202  1371.037
 203  1354.393
 204  1371.203
 205  1411.385
 206  1444.944
 207  1465.291
 208  1559.467
 209  1573.472
 210  1462.744
 211  1306.626
 212  1320.101
 213  1373.36
 214  1371.03
 215  1376.278
 216  1450.495
 217  1444.233
 218  1394.934
 219  1408.788
 220  1318.781
 221  1374.995
 222  1419.289
 223  1551.963
 224  1594.172
 225  1497.828
 226  1348.423
 227  1296.968
 228  1296.346
 229  1366.05
 230  1392.653
 231  1410.797
 232  1374.325
 233  1376.474
 234  1297.343
 235  1282.197
 236  1314.809
 237  1310.59
 238  1364.861
 239  1484.411
 240  1466.177
 241  1358.124
 242  1246.919
 243  1288.612
 244  1232.688
 245  1236.004
 246  1174.305
 247  1317.303
 248  1374.842
 249  1284.748
 250  1191.202
 251  1210.032
 252  1258.855
 253  1337.741
 254  1398.921
 255  1472.611
 256  1367.088
 257  1327.33
 258  1275.276
 259  1227.209
 260  1343.987
 261  1292.431
 262  1314.514
 263  1250.019
 264  1316.187
 265  1338.578
 266  1271.336
 267  1275.022
 268  1340.038
 269  1370.481
 270  1349.071
 271  1399.875
 272  1474.408
 273  1560.001
 274  1428.541
 275  1408.328
 276  1441.803
 277  1329.247
 278  1404.649
 279  1509.309
 280  1457.94
 281  1457.615
 282  1484.722
 283  1420.092
 284  1332.445
 285  1378.739
 286  1410.292
 287  1463.321
 288  1402.948
 289  1488.06
 290  1545.461
 291  1471.522
 292  1497.015
 293  1488.872
 294  1367.777
 295  1389.99
 296  1468.565
 297  1472.212
 298  1517.071
 299  1454.682
 300  1381.892
 301  1377.592
 302  1333.795
 303  1404.845
 304  1416.117
 305  1565.434
 306  1601.264
 307  1457.353
 308  1372.649
 309  1300.845
 310  1272.229
 311  1286.838
 312  1394.785
 313  1504.697
 314  1455.077
 315  1323.873
 316  1236.461
 317  1276.822
 318  1345.762
 319  1389.681
 320  1508.96
 321  1573.773
 322  1518.672
 323  1481.8
 324  1410.767
 325  1357.142
 326  1296.975
 327  1324.418
 328  1293.65
 329  1295.482
 330  1387.148
 331  1474.823
 332  1490.475
 333  1348.811
 334  1363.33
 335  1408.173
 336  1353.488
 337  1354.33
 338  1423.753
 339  1389.73
 340  1366.704
 341  1404.67
 342  1384.74
 343  1352.529
 344  1305.02
 345  1373.99
 346  1374.245
 347  1437.197
 348  1423.489
 349  1375.502
 350  1449.592
 351  1448.867
 352  1489.869
 353  1447.535
 354  1428.157
 355  1522.875
 356  1586.159
 357  1517.362
 358  1429.616
 359  1388.446
 360  1356.925
 361  1395.833
 362  1352.014
 363  1472.676
 364  1520.568
 365  1424.248
 366  1448.651
 367  1499.37
 368  1485.407
 369  1438.842
 370  1426.689
 371  1472.849
 372  1605.252
 373  1641.585
 374  1585.757
 375  1364.447
 376  1349.739
 377  1345.024
 378  1415.064
 379  1470.273
 380  1556.034
 381  1624.766
 382  1517.972
 383  1421.809
 384  1434.939
 385  1537.099
 386  1405.048
 387  1491.286
 388  1480.925
 389  1563.364
 390  1496.741
 391  1484.266
 392  1483.01
 393  1491.32
 394  1510.217
 395  1536.26
 396  1519.35
 397  1437.646
 398  1530.335
 399  1525.058
 400  1349.598
 401  1282.93
 402  1356.159
 403  1541.564
 404  1535.811
 405  1546.793
 406  1574.047
 407  1436.602
 408  1382.572
 409  1421.474
 410  1503.392
 411  1382.901
 412  1438.117
 413  1494.562
 414  1444.379
 415  1453.147
 416  1471.079
 417  1415.089
 418  1360.062
 419  1337.802
 420  1415.266
 421  1415.389
 422  1485.656
 423  1493.249
 424  1506.884
 425  1418.253
 426  1383.955
 427  1378.007
 428  1363.905
 429  1275.558
 430  1283.255
 431  1364.654
 432  1407.384
 433  1287.986
 434  1302.292
 435  1457.874
 436  1475.116
 437  1534.782
 438  1541.084
 439  1375.915
 440  1326.175
 441  1396.839
 442  1400.539
 443  1416.715
 444  1348.805
 445  1363.664
 446  1452.982
 447  1446.962
 448  1256.591
 449  1260.519
 450  1405.527
 451  1447.399
 452  1523.341
 453  1588.038
 454  1585.772
 455  1484.151
 456  1386.324
 457  1338.771
 458  1375.866
 459  1444.326
 460  1462.414
 461  1381.962
 462  1493.933
 463  1532.535
 464  1448.239
 465  1440.907
 466  1475.28
 467  1519.612
 468  1532.409
 469  1448.657
 470  1447.787
 471  1532.845
 472  1468.859
 473  1369.972
 474  1341.135
 475  1399.282
 476  1421.635
 477  1504.489
 478  1544.61
 479  1441.023
 480  1431.568
 481  1526.871
 482  1516.549
 483  1468.974
 484  1494.556
 485  1563.433
 486  1563.808
 487  1699.107
 488  1713.091
 489  1573.43
 490  1579.507
 491  1567.362
 492  1605.364
 493  1617.37
 494  1673.951
 495  1541.113
 496  1639.841
 497  1657.059
 498  1573.09
 499  1541.288
 500  1544.731
 501  1523.821
 502  1585.34
 503  1662.092
 504  1730.27
 505  1591.853
 506  1679.172
 507  1697.38
 508  1574.685
 509  1731.188
 510  1877.515
 511  2088.965
