# Input file       =  1205568517.108477_cleaned.dat
# Candidate        =  PSR_0332+5434
# Telescope        =  AR
# Epoch_topo       =  58197.339110051820
# Epoch_bary       =  N/A
# T_sample         =  0.002
# Data Folded      =  7405568
# Data Avg         =  0.0996967452042395
# Data StdDev      =  1.00024781173953 
# Profile Bins     =  512
# Profile Avg      =  1442.00948114217 
# Profile StdDev   =  120.296174445595 
# Reduced chi-sqr  =  1.925
# Prob(Noise)      <  3.03e-32   (~11.8 sigma)
# P_topo (ms)      =  714.575575147397  +/- 6.86e-05
# P'_topo (s/s)    =  -0                +/- 3.59e-11
# P''_topo (s/s^2) =  0                 +/- 1.57e-14
# P_bary (ms)      =  N/A
# P'_bary (s/s)    =  N/A
# P''_bary (s/s^2) =  N/A
# P_orb (s)        =  N/A
# asin(i)/c (s)    =  N/A
# eccentricity     =  N/A
# w (rad)          =  N/A
# T_peri           =  N/A
######################################################
   0  2146.313
   1  2021.324
   2  1947.93
   3  1737.963
   4  1673.319
   5  1785.233
   6  1741.805
   7  1743.118
   8  1647.421
   9  1596.924
  10  1603.449
  11  1612.89
  12  1667.56
  13  1682.455
  14  1574.575
  15  1496.162
  16  1507.521
  17  1558.454
  18  1578.849
  19  1549.145
  20  1449.443
  21  1428.582
  22  1389.042
  23  1577.891
  24  1609.962
  25  1625.597
  26  1560.387
  27  1469.463
  28  1416.767
  29  1437.117
  30  1529.277
  31  1533.975
  32  1405.984
  33  1499.679
  34  1531.445
  35  1398
  36  1376.42
  37  1534.95
  38  1522.826
  39  1445.489
  40  1512.071
  41  1515.977
  42  1469.693
  43  1456.209
  44  1410.81
  45  1386.832
  46  1420.846
  47  1422.086
  48  1347.656
  49  1434.475
  50  1503.798
  51  1377.364
  52  1365.398
  53  1467.008
  54  1375.488
  55  1441.962
  56  1559.154
  57  1569.174
  58  1489.141
  59  1366.755
  60  1407.663
  61  1424.917
  62  1308.855
  63  1322.057
  64  1378.969
  65  1354.683
  66  1373.109
  67  1371.845
  68  1363.485
  69  1428.14
  70  1479.413
  71  1449.379
  72  1360.695
  73  1443.048
  74  1567.044
  75  1467.407
  76  1475.897
  77  1468.09
  78  1351.62
  79  1366.938
  80  1475.265
  81  1487.973
  82  1386.059
  83  1499.87
  84  1454.942
  85  1436.42
  86  1456.071
  87  1473.254
  88  1406.752
  89  1466.346
  90  1619.087
  91  1542.353
  92  1464.905
  93  1410.693
  94  1462.039
  95  1550.482
  96  1559.103
  97  1453.569
  98  1524.318
  99  1558.368
 100  1509.25
 101  1444.094
 102  1447.987
 103  1450.208
 104  1509.301
 105  1558.861
 106  1611.099
 107  1651.07
 108  1544.232
 109  1468.491
 110  1430.239
 111  1511.557
 112  1452.268
 113  1500.759
 114  1572.386
 115  1510.025
 116  1428.275
 117  1391.999
 118  1467.663
 119  1438.602
 120  1455.93
 121  1570.202
 122  1630.092
 123  1598.055
 124  1544.297
 125  1493.029
 126  1348
 127  1379.078
 128  1422.493
 129  1438.876
 130  1488.024
 131  1456.142
 132  1443.675
 133  1403.057
 134  1287.321
 135  1375.643
 136  1293.031
 137  1345.871
 138  1378.059
 139  1453.271
 140  1388.827
 141  1422.362
 142  1380.152
 143  1365.21
 144  1279.749
 145  1216.882
 146  1300.93
 147  1361.933
 148  1427.329
 149  1432.261
 150  1387.136
 151  1292.259
 152  1330.643
 153  1366.899
 154  1329.67
 155  1269.494
 156  1313.074
 157  1458.412
 158  1499.195
 159  1347.173
 160  1271.395
 161  1248.278
 162  1222.139
 163  1267.915
 164  1266.869
 165  1365.569
 166  1337.383
 167  1274.955
 168  1332.117
 169  1280.478
 170  1290.747
 171  1434.896
 172  1385.458
 173  1485.366
 174  1374.499
 175  1243.18
 176  1324.804
 177  1328.676
 178  1295.136
 179  1259.634
 180  1332.139
 181  1348.257
 182  1366.107
 183  1325.182
 184  1433.948
 185  1411.914
 186  1382.429
 187  1300.659
 188  1371.668
 189  1409.744
 190  1393.667
 191  1392.661
 192  1435.843
 193  1378.435
 194  1375.673
 195  1370.785
 196  1329.034
 197  1397.054
 198  1412.632
 199  1367.732
 200  1307.455
 201  1366.184
 202  1342.591
 203  1372.744
 204  1389.564
 205  1445.867
 206  1438.238
 207  1493.694
 208  1607.564
 209  1509.412
 210  1394.903
 211  1270.409
 212  1380.175
 213  1355.364
 214  1376.273
 215  1397.708
 216  1483.124
 217  1394.968
 218  1424.307
 219  1348.318
 220  1352.029
 221  1386.245
 222  1492.714
 223  1586.486
 224  1565.604
 225  1387.159
 226  1327.866
 227  1278.04
 228  1349.266
 229  1375.158
 230  1404.388
 231  1397.378
 232  1373.538
 233  1344.559
 234  1262.646
 235  1305.042
 236  1309.803
 237  1338.095
 238  1430.746
 239  1505.649
 240  1403.569
 241  1272.773
 242  1274.426
 243  1271.913
 244  1231.179
 245  1200.253
 246  1219.971
 247  1382.634
 248  1328.278
 249  1237.432
 250  1185.606
 251  1227.265
 252  1296.894
 253  1365.016
 254  1461.682
 255  1420.896
 256  1339.149
 257  1311.66
 258  1224.211
 259  1315.389
 260  1294.033
 261  1325.528
 262  1251.399
 263  1295.694
 264  1330.625
 265  1317.798
 266  1245.262
 267  1322.656
 268  1360.289
 269  1354.338
 270  1376.167
 271  1431.785
 272  1546.177
 273  1504.886
 274  1382.758
 275  1456.978
 276  1361.894
 277  1342.198
 278  1475.91
 279  1504.498
 280  1440.762
 281  1480.901
 282  1456.896
 283  1355.809
 284  1366.704
 285  1382.684
 286  1453.593
 287  1417.985
 288  1437.777
 289  1544.293
 290  1507.599
 291  1463.904
 292  1506.405
 293  1430.924
 294  1354.68
 295  1451.447
 296  1467.651
 297  1494.778
 298  1515.724
 299  1370.1
 300  1401.133
 301  1328.336
 302  1392.198
 303  1402.282
 304  1486.7
 305  1619.978
 306  1512.324
 307  1409.748
 308  1320.466
 309  1288.483
 310  1272.569
 311  1338.679
 312  1473.041
 313  1491.568
 314  1399.172
 315  1245.566
 316  1263.848
 317  1290.214
 318  1392.355
 319  1434.424
 320  1571.464
 321  1537.758
 322  1490.092
 323  1466.116
 324  1376.457
 325  1321.843
 326  1293.113
 327  1318.856
 328  1277.456
 329  1348.582
 330  1443.103
 331  1493.523
 332  1425.239
 333  1322.917
 334  1420.135
 335  1356.932
 336  1349.882
 337  1398.228
 338  1416.781
 339  1374.378
 340  1379.896
 341  1402.682
 342  1358.562
 343  1328
 344  1347.331
 345  1381.439
 346  1387.799
 347  1455.484
 348  1372.493
 349  1429.082
 350  1448.034
 351  1475.566
 352  1475.846
 353  1419.743
 354  1463.57
 355  1585.6
 356  1544.532
 357  1476.581
 358  1400.047
 359  1362.066
 360  1380.434
 361  1356.955
 362  1417.776
 363  1506.594
 364  1481.993
 365  1409.621
 366  1497.98
 367  1490.487
 368  1461.692
 369  1431.254
 370  1432.382
 371  1557.443
 372  1621.211
 373  1646.348
 374  1455.526
 375  1335.907
 376  1351.343
 377  1373.731
 378  1452.234
 379  1516.934
 380  1615.561
 381  1573.031
 382  1449.568
 383  1408.598
 384  1519.075
 385  1454.915
 386  1432.82
 387  1490.061
 388  1530.572
 389  1548.881
 390  1468.739
 391  1481.77
 392  1486.795
 393  1500.51
 394  1528.204
 395  1546.185
 396  1454.126
 397  1479.295
 398  1562.498
 399  1418.548
 400  1303.209
 401  1286.848
 402  1479.7
 403  1554.217
 404  1521.311
 405  1590.387
 406  1495.253
 407  1402.943
 408  1381.965
 409  1496.554
 410  1433.717
 411  1389.319
 412  1484.557
 413  1470.255
 414  1439.1
 415  1469.259
 416  1443.449
 417  1374.939
 418  1347.998
 419  1386.349
 420  1421.015
 421  1444.912
 422  1483.117
 423  1519.968
 424  1455.972
 425  1400.101
 426  1372.706
 427  1378.715
 428  1318.611
 429  1263.208
 430  1323.892
 431  1391.975
 432  1367.856
 433  1258.378
 434  1405.831
 435  1473.251
 436  1503.237
 437  1556.455
 438  1458.461
 439  1305.029
 440  1372.139
 441  1404.022
 442  1407.313
 443  1386.07
 444  1338.055
 445  1430.446
 446  1459.262
 447  1358.761
 448  1202.302
 449  1360.117
 450  1430.962
 451  1489.334
 452  1571.339
 453  1586.955
 454  1529.405
 455  1434.343
 456  1346.264
 457  1361.083
 458  1408.196
 459  1479.066
 460  1406.676
 461  1418.641
 462  1546.498
 463  1492.635
 464  1430.175
 465  1457.743
 466  1489.112
 467  1538.46
 468  1497.771
 469  1423.499
 470  1505.104
 471  1499.751
 472  1418.292
 473  1344.607
 474  1375.409
 475  1410.656
 476  1445.777
 477  1546.679
 478  1504.476
 479  1408.277
 480  1503.556
 481  1524.605
 482  1492.151
 483  1464.37
 484  1547.227
 485  1564.967
 486  1619.512
 487  1755.3
 488  1612.152
 489  1568.08
 490  1562.473
 491  1588.449
 492  1600.444
 493  1674.975
 494  1590.128
 495  1577.829
 496  1669.202
 497  1623.013
 498  1544.177
 499  1556.639
 500  1515.343
 501  1558.949
 502  1616.808
 503  1730.895
 504  1653.212
 505  1599.367
 506  1745.184
 507  1591.366
 508  1651.298
 509  1803.076
 510  2001.083
 511  2167.603
