# Input file       =  1205684143.112546_cleaned.dat
# Candidate        =  PSR_0332+5434
# Telescope        =  AR
# Epoch_topo       =  58198.677373987797
# Epoch_bary       =  N/A
# T_sample         =  0.002
# Data Folded      =  7340032
# Data Avg         =  0.104089985323153
# Data StdDev      =  1.00017794788617 
# Profile Bins     =  512
# Profile Avg      =  1492.15401864975 
# Profile StdDev   =  119.754342617494 
# Reduced chi-sqr  =  1.600
# Prob(Noise)      <  1.56e-16   (~8.2 sigma)
# P_topo (ms)      =  714.57534581571   +/- 0.00033
# P'_topo (s/s)    =  -0                +/- 1.74e-10
# P''_topo (s/s^2) =  0                 +/- 7.68e-14
# P_bary (ms)      =  N/A
# P'_bary (s/s)    =  N/A
# P''_bary (s/s^2) =  N/A
# P_orb (s)        =  N/A
# asin(i)/c (s)    =  N/A
# eccentricity     =  N/A
# w (rad)          =  N/A
# T_peri           =  N/A
######################################################
   0  2138.954
   1  2091.699
   2  1907.723
   3  1819.48
   4  1715.958
   5  1683.144
   6  1648.728
   7  1711.559
   8  1658.889
   9  1716.471
  10  1647.366
  11  1648.276
  12  1625.797
  13  1584.005
  14  1599.336
  15  1637.194
  16  1599.566
  17  1637.902
  18  1765.841
  19  1669.107
  20  1551.532
  21  1574.822
  22  1469.509
  23  1524.064
  24  1591.034
  25  1694.998
  26  1718.414
  27  1664.745
  28  1602.364
  29  1586.138
  30  1597.818
  31  1648.8
  32  1696.602
  33  1626.458
  34  1582.491
  35  1515.286
  36  1514.628
  37  1550.296
  38  1551.115
  39  1533.885
  40  1603.913
  41  1571.355
  42  1499.437
  43  1533.483
  44  1503.572
  45  1531.698
  46  1470.842
  47  1404.484
  48  1380.884
  49  1453.896
  50  1497.808
  51  1472.988
  52  1494.764
  53  1490.985
  54  1476.324
  55  1496.656
  56  1468.827
  57  1468.609
  58  1488.249
  59  1443.546
  60  1542.185
  61  1418.93
  62  1358.807
  63  1504.057
  64  1418.774
  65  1434.233
  66  1550.272
  67  1494.02
  68  1432.516
  69  1398.853
  70  1356.959
  71  1372.323
  72  1413.699
  73  1415.031
  74  1504.705
  75  1438.898
  76  1402.216
  77  1401.298
  78  1513.424
  79  1508.664
  80  1430.645
  81  1497.545
  82  1548.628
  83  1444.818
  84  1411.39
  85  1451.447
  86  1472.324
  87  1501.151
  88  1436.384
  89  1375.639
  90  1483.24
  91  1532.006
  92  1613.557
  93  1557.344
  94  1611.665
  95  1679.312
  96  1515.47
  97  1469.699
  98  1492.588
  99  1576.858
 100  1732.816
 101  1689.453
 102  1688.209
 103  1635.641
 104  1555.846
 105  1586.534
 106  1550.987
 107  1525.954
 108  1544.925
 109  1547.767
 110  1552.461
 111  1565.506
 112  1556.387
 113  1539.066
 114  1531.738
 115  1510.092
 116  1530.131
 117  1540.166
 118  1612.601
 119  1516.993
 120  1439.969
 121  1467.728
 122  1344.063
 123  1270.873
 124  1327.967
 125  1400.295
 126  1391.101
 127  1447.429
 128  1456.078
 129  1528.355
 130  1510.854
 131  1399.566
 132  1329.795
 133  1467.748
 134  1539.515
 135  1444.699
 136  1410.984
 137  1283.929
 138  1398.371
 139  1416.681
 140  1407.304
 141  1503.139
 142  1431.08
 143  1328.721
 144  1449.338
 145  1471.811
 146  1389.119
 147  1392.303
 148  1369.339
 149  1446.839
 150  1429.082
 151  1387.607
 152  1407.762
 153  1419.639
 154  1333.52
 155  1275.132
 156  1415.581
 157  1517.298
 158  1449.333
 159  1384.187
 160  1338.247
 161  1428.435
 162  1478.441
 163  1447.175
 164  1440.746
 165  1444.152
 166  1457.78
 167  1426.686
 168  1475.395
 169  1552.618
 170  1508.41
 171  1591.571
 172  1522.114
 173  1416.153
 174  1450.036
 175  1528.301
 176  1561.244
 177  1520.338
 178  1562.213
 179  1581.176
 180  1483.459
 181  1471.594
 182  1482.349
 183  1522.791
 184  1528.389
 185  1534.461
 186  1554.065
 187  1578.93
 188  1542.365
 189  1415.341
 190  1440.274
 191  1458.094
 192  1454.742
 193  1427.452
 194  1471.827
 195  1521.36
 196  1519.556
 197  1539.341
 198  1512.236
 199  1465.278
 200  1466.494
 201  1557.902
 202  1577.535
 203  1563.262
 204  1575.2
 205  1582.825
 206  1532.814
 207  1442.665
 208  1512.849
 209  1514.118
 210  1621.871
 211  1567.312
 212  1578.185
 213  1556.389
 214  1511.445
 215  1529.96
 216  1598.561
 217  1672.049
 218  1547.113
 219  1435.563
 220  1434.117
 221  1579.338
 222  1608.408
 223  1618.46
 224  1612.771
 225  1454.347
 226  1442.15
 227  1508.959
 228  1481.651
 229  1587.642
 230  1553.749
 231  1505.528
 232  1522.221
 233  1533.682
 234  1508.558
 235  1400.893
 236  1567.096
 237  1593.471
 238  1564.59
 239  1488.393
 240  1557.864
 241  1603.4
 242  1559.203
 243  1538.197
 244  1557.023
 245  1588.425
 246  1633.704
 247  1545.962
 248  1588.027
 249  1580.892
 250  1520.406
 251  1532.957
 252  1422.158
 253  1467.22
 254  1510.739
 255  1547.566
 256  1584.694
 257  1538.965
 258  1564.536
 259  1563.58
 260  1492.205
 261  1457.91
 262  1479.706
 263  1532.775
 264  1525.925
 265  1542.028
 266  1458.948
 267  1315.288
 268  1390.317
 269  1509.895
 270  1513.012
 271  1478.485
 272  1526.408
 273  1502.015
 274  1459.105
 275  1512.053
 276  1447.071
 277  1500.716
 278  1643.121
 279  1611.51
 280  1546.681
 281  1548.547
 282  1571.998
 283  1582.411
 284  1529.637
 285  1469.933
 286  1433.932
 287  1411.8
 288  1388.739
 289  1452.075
 290  1503.844
 291  1550.65
 292  1489.193
 293  1505.052
 294  1511.23
 295  1540.034
 296  1491.655
 297  1489.196
 298  1477.544
 299  1452.036
 300  1564.822
 301  1501.023
 302  1451.699
 303  1442.776
 304  1494.562
 305  1501.526
 306  1611.988
 307  1618.654
 308  1595.874
 309  1535.403
 310  1496.29
 311  1447.229
 312  1349.41
 313  1398.08
 314  1528.15
 315  1587.053
 316  1531.991
 317  1566.81
 318  1493.404
 319  1375.711
 320  1445.042
 321  1444.003
 322  1482.45
 323  1496.175
 324  1553.656
 325  1506.42
 326  1383.782
 327  1361.381
 328  1366.612
 329  1357.749
 330  1439.735
 331  1532.915
 332  1510.979
 333  1388.933
 334  1400.829
 335  1355.711
 336  1297.335
 337  1418.845
 338  1468.343
 339  1371.658
 340  1442.917
 341  1514.137
 342  1435.197
 343  1478.442
 344  1569.015
 345  1397.498
 346  1396.549
 347  1403.592
 348  1345.587
 349  1271.912
 350  1321.953
 351  1426.128
 352  1539.293
 353  1480.953
 354  1316.516
 355  1328.726
 356  1397.041
 357  1364.651
 358  1395.89
 359  1429.952
 360  1373.811
 361  1416.375
 362  1458.093
 363  1489.068
 364  1487.37
 365  1343.407
 366  1316.898
 367  1298.728
 368  1345.588
 369  1285.969
 370  1420.839
 371  1410.656
 372  1419.997
 373  1432.018
 374  1445.322
 375  1403.971
 376  1354.208
 377  1369.149
 378  1371.429
 379  1401.21
 380  1441.052
 381  1491.378
 382  1508.562
 383  1445.098
 384  1333.673
 385  1441.767
 386  1351.822
 387  1349.184
 388  1375.693
 389  1385.321
 390  1327.787
 391  1379.002
 392  1405.913
 393  1374.329
 394  1350.969
 395  1447.324
 396  1394.368
 397  1458.925
 398  1506.973
 399  1471.632
 400  1420.995
 401  1355.404
 402  1366.968
 403  1372.915
 404  1295.234
 405  1376.059
 406  1441.098
 407  1422.828
 408  1385.083
 409  1308.098
 410  1392.412
 411  1391.023
 412  1342.204
 413  1439.009
 414  1437.778
 415  1387.37
 416  1354.412
 417  1295.166
 418  1305.057
 419  1289.152
 420  1299.165
 421  1340.57
 422  1432.042
 423  1386.885
 424  1275.03
 425  1210.065
 426  1354.885
 427  1460.119
 428  1413.352
 429  1424.926
 430  1460.229
 431  1417.559
 432  1439.98
 433  1422.19
 434  1358.131
 435  1360.419
 436  1462.178
 437  1419.476
 438  1374.597
 439  1404.666
 440  1332.531
 441  1297.646
 442  1435.315
 443  1485.471
 444  1534.013
 445  1428.545
 446  1443.181
 447  1519.241
 448  1451.832
 449  1553.667
 450  1516.726
 451  1511.448
 452  1549.984
 453  1533.226
 454  1447.295
 455  1421.832
 456  1460.691
 457  1508.113
 458  1591.463
 459  1570.234
 460  1527.86
 461  1508.124
 462  1631.692
 463  1678.96
 464  1569.31
 465  1550.677
 466  1514.094
 467  1582.032
 468  1491.608
 469  1387.635
 470  1454.688
 471  1458.414
 472  1456.606
 473  1497.551
 474  1492.705
 475  1424.276
 476  1400.808
 477  1489.411
 478  1597.976
 479  1504.12
 480  1550.573
 481  1579.99
 482  1504.764
 483  1556.045
 484  1554.848
 485  1507.842
 486  1512.022
 487  1453.671
 488  1517.948
 489  1507.573
 490  1501.234
 491  1507.087
 492  1626.674
 493  1593.68
 494  1501.771
 495  1515.379
 496  1539.553
 497  1501.858
 498  1554.286
 499  1574.791
 500  1551.789
 501  1559.24
 502  1541.905
 503  1561.93
 504  1587.437
 505  1600.525
 506  1555.86
 507  1701.037
 508  1712.147
 509  1798.834
 510  2023.198
 511  2157.029
