# Input file       =  1205856444.106251_cleaned.dat
# Candidate        =  PSR_0332+5434
# Telescope        =  AR
# Epoch_topo       =  58200.671598451976
# Epoch_bary       =  N/A
# T_sample         =  0.002
# Data Folded      =  7340032
# Data Avg         =  0.0353115117357349
# Data StdDev      =  1.00006216162174 
# Profile Bins     =  512
# Profile Avg      =  506.25371198527  
# Profile StdDev   =  119.740479176484 
# Reduced chi-sqr  =  1.786
# Prob(Noise)      <  4.56e-25   (~10.3 sigma)
# P_topo (ms)      =  714.574428565883  +/- 0.000301
# P'_topo (s/s)    =  -0                +/- 1.59e-10
# P''_topo (s/s^2) =  0                 +/- 7e-14
# P_bary (ms)      =  N/A
# P'_bary (s/s)    =  N/A
# P''_bary (s/s^2) =  N/A
# P_orb (s)        =  N/A
# asin(i)/c (s)    =  N/A
# eccentricity     =  N/A
# w (rad)          =  N/A
# T_peri           =  N/A
######################################################
   0  1339.234
   1  1352.742
   2  1256.438
   3  1134.828
   4  948.6225
   5  676.4736
   6  561.4278
   7  681.7017
   8  671.8431
   9  565.6683
  10  629.5856
  11  683.3047
  12  644.7714
  13  584.7212
  14  509.91
  15  561.5422
  16  615.5598
  17  555.3333
  18  580.8293
  19  582.0072
  20  466.2546
  21  460.9813
  22  507.3193
  23  618.4639
  24  555.5431
  25  498.3983
  26  449.0502
  27  471.6467
  28  453.5343
  29  495.4609
  30  570.1105
  31  583.6944
  32  553.9639
  33  620.2974
  34  517.4145
  35  490.0091
  36  476.356
  37  549.208
  38  510.138
  39  608.5324
  40  667.675
  41  594.889
  42  490.843
  43  464.2648
  44  394.3772
  45  392.6502
  46  446.268
  47  574.4404
  48  522.3549
  49  583.6888
  50  493.1169
  51  428.8584
  52  432.8454
  53  505.7556
  54  518.4626
  55  553.2207
  56  487.3676
  57  530.6762
  58  495.8853
  59  526.5049
  60  500.9944
  61  405.2202
  62  594.731
  63  550.9084
  64  619.9464
  65  535.9432
  66  477.7589
  67  569.8264
  68  431.0999
  69  393.526
  70  514.0916
  71  490.2976
  72  693.9218
  73  603.1812
  74  553.9744
  75  399.4445
  76  284.565
  77  321.7401
  78  387.9608
  79  423.1421
  80  439.0747
  81  473.3343
  82  458.1847
  83  441.2168
  84  454.673
  85  462.3342
  86  438.5657
  87  444.9122
  88  578.1978
  89  577.5045
  90  417.1711
  91  380.6721
  92  347.2635
  93  330.2042
  94  396.3172
  95  544.3773
  96  571.7162
  97  633.8039
  98  559.3207
  99  557.7949
 100  688.5048
 101  654.5868
 102  535.2816
 103  498.7835
 104  507.8004
 105  547.0359
 106  523.7439
 107  361.7048
 108  390.475
 109  459.0397
 110  483.3625
 111  516.9929
 112  460.7412
 113  514.3702
 114  500.4435
 115  457.154
 116  498.7245
 117  508.043
 118  546.1295
 119  629.8137
 120  590.9698
 121  539.8464
 122  434.2947
 123  532.0261
 124  499.641
 125  406.0246
 126  567.9637
 127  518.0497
 128  360.4075
 129  473.2285
 130  466.0989
 131  446.6214
 132  572.3763
 133  540.368
 134  413.3729
 135  443.2075
 136  391.0573
 137  424.2641
 138  473.8028
 139  500.1357
 140  479.5871
 141  445.47
 142  493.1055
 143  496.8641
 144  472.0815
 145  519.6585
 146  559.4706
 147  430.9878
 148  414.9702
 149  335.4976
 150  522.4855
 151  474.6618
 152  485.096
 153  442.7475
 154  478.8879
 155  594.1788
 156  536.3542
 157  496.3567
 158  451.6792
 159  407.7054
 160  360.6579
 161  414.2602
 162  566.8884
 163  516.1045
 164  471.824
 165  557.2744
 166  645.6869
 167  534.542
 168  602.4292
 169  676.6781
 170  640.15
 171  611.975
 172  506.3805
 173  436.3146
 174  549.7335
 175  525.5549
 176  501.4893
 177  419.5492
 178  436.4623
 179  493.3746
 180  374.0375
 181  440.2985
 182  454.5196
 183  533.1707
 184  533.6161
 185  463.6779
 186  460.5091
 187  506.0539
 188  546.7038
 189  469.4701
 190  493.6321
 191  514.9315
 192  489.5698
 193  485.3134
 194  569.791
 195  506.4306
 196  565.5541
 197  443.6035
 198  396.0183
 199  485.3134
 200  644.603
 201  571.6216
 202  513.7935
 203  500.2166
 204  532.0869
 205  599.3292
 206  577.4569
 207  531.2817
 208  573.2593
 209  571.1271
 210  484.1877
 211  523.4871
 212  483.9789
 213  329.8537
 214  411.9023
 215  543.1857
 216  511.0875
 217  512.2465
 218  422.9355
 219  519.2906
 220  385.4254
 221  456.8733
 222  483.4986
 223  408.121
 224  437.303
 225  444.0136
 226  338.5549
 227  311.5696
 228  435.4699
 229  519.9653
 230  449.1923
 231  370.9601
 232  482.2935
 233  490.3063
 234  519.4719
 235  309.1391
 236  294.1186
 237  411.7406
 238  586.2723
 239  631.0314
 240  542.124
 241  461.8421
 242  461.782
 243  453.1458
 244  431.8623
 245  441.373
 246  428.2713
 247  391.1961
 248  407.1847
 249  384.7331
 250  553.6685
 251  472.9501
 252  424.141
 253  394.8532
 254  383.8201
 255  376.647
 256  418.1526
 257  437.9945
 258  407.8863
 259  452.3139
 260  519.0108
 261  481.2827
 262  352.159
 263  339.1545
 264  375.6185
 265  421.0751
 266  375.0939
 267  492.1416
 268  408.7406
 269  425.1714
 270  477.7511
 271  514.4471
 272  474.0565
 273  549.2398
 274  494.3721
 275  445.0531
 276  461.6468
 277  519.295
 278  443.0601
 279  511.5586
 280  472.7151
 281  514.7007
 282  536.8679
 283  600.6152
 284  520.2123
 285  461.6923
 286  608.5284
 287  519.7169
 288  463.4069
 289  465.2692
 290  497.8286
 291  458.8401
 292  366.9619
 293  394.0786
 294  544.9808
 295  466.9719
 296  414.2316
 297  561.2234
 298  428.0214
 299  333.1302
 300  339.1469
 301  357.6011
 302  531.7139
 303  404.5822
 304  373.0239
 305  400.1326
 306  397.7754
 307  396.6516
 308  456.1995
 309  485.0454
 310  456.5584
 311  442.5278
 312  503.1278
 313  353.1152
 314  482.6115
 315  565.0281
 316  550.4003
 317  420.4587
 318  502.8429
 319  517.151
 320  479.3158
 321  456.2683
 322  402.8125
 323  452.1801
 324  454.173
 325  405.5597
 326  424.219
 327  606.0887
 328  558.4703
 329  462.8592
 330  619.0048
 331  535.8377
 332  639.4677
 333  709.2126
 334  630.6023
 335  501.5602
 336  548.2708
 337  531.4801
 338  432.4929
 339  385.4797
 340  509.2703
 341  572.6392
 342  634.6507
 343  596.5911
 344  573.1177
 345  486.1725
 346  436.9216
 347  513.6801
 348  507.8451
 349  489.1597
 350  448.5097
 351  439.9023
 352  486.4792
 353  606.3639
 354  571.9045
 355  458.102
 356  453.4583
 357  477.7195
 358  500.9717
 359  441.0049
 360  477.2214
 361  457.5367
 362  419.3434
 363  423.7042
 364  423.6419
 365  350.009
 366  537.6927
 367  442.2528
 368  499.3485
 369  611.4007
 370  494.1578
 371  488.7207
 372  425.7392
 373  388.7657
 374  527.0315
 375  513.3624
 376  563.5091
 377  605.1498
 378  499.9938
 379  588.009
 380  530.6896
 381  582.4776
 382  670.2651
 383  556.434
 384  696.8748
 385  647.2607
 386  606.627
 387  566.124
 388  568.064
 389  572.1188
 390  514.9687
 391  514.4169
 392  507.9822
 393  547.7552
 394  496.2364
 395  447.0573
 396  328.5721
 397  459.0504
 398  433.7063
 399  396.2778
 400  483.5009
 401  473.9967
 402  522.1345
 403  524.6618
 404  429.3698
 405  346.7018
 406  470.4232
 407  546.0189
 408  602.7872
 409  645.0479
 410  532.6189
 411  501.3955
 412  419.8876
 413  423.3778
 414  542.1161
 415  640.4693
 416  513.1929
 417  525.222
 418  445.565
 419  504.599
 420  569.7381
 421  562.0699
 422  528.7069
 423  476.9776
 424  601.619
 425  492.4982
 426  459.3121
 427  549.5061
 428  515.7526
 429  554.3958
 430  525.3526
 431  545.8756
 432  440.4254
 433  442.0272
 434  506.7658
 435  506.8855
 436  504.1495
 437  405.5126
 438  442.9487
 439  379.2893
 440  336.335
 441  302.7412
 442  464.0898
 443  507.4712
 444  479.4752
 445  444.3371
 446  508.0402
 447  428.0119
 448  340.6614
 449  413.7708
 450  507.3699
 451  527.8956
 452  429.1946
 453  422.9597
 454  446.0808
 455  513.5866
 456  460.2044
 457  432.7757
 458  502.302
 459  588.4427
 460  566.8206
 461  545.2819
 462  348.0694
 463  400.13
 464  468.0151
 465  576.5891
 466  556.6186
 467  451.9993
 468  439.8767
 469  511.5951
 470  523.7839
 471  412.0276
 472  430.5167
 473  431.7974
 474  471.0359
 475  496.0442
 476  359.4407
 477  445.9167
 478  432.7388
 479  495.4408
 480  446.7155
 481  327.5722
 482  558.6522
 483  566.9954
 484  535.5325
 485  661.3483
 486  649.1213
 487  544.6456
 488  544.5771
 489  434.3163
 490  482.6344
 491  449.8541
 492  528.8534
 493  524.4715
 494  644.79
 495  646.3849
 496  670.123
 497  552.733
 498  582.3182
 499  465.1474
 500  486.4113
 501  603.4911
 502  624.921
 503  628.6395
 504  662.7838
 505  611.5808
 506  707.8045
 507  816.0084
 508  748.4225
 509  843.9745
 510  1011.915
 511  1233.747
