# Input file       =  1205482329.110533_cleaned.dat
# Candidate        =  PSR_0332+5434
# Telescope        =  AR
# Epoch_topo       =  58196.341563779315
# Epoch_bary       =  N/A
# T_sample         =  0.002
# Data Folded      =  7405568
# Data Avg         =  0.089012177154534
# Data StdDev      =  1.0002060134729  
# Profile Bins     =  512
# Profile Avg      =  1287.56265496727 
# Profile StdDev   =  120.291147519752 
# Reduced chi-sqr  =  1.595
# Prob(Noise)      <  2.56e-16   (~8.1 sigma)
# P_topo (ms)      =  714.575988132088  +/- 5.26e-05
# P'_topo (s/s)    =  -0                +/- 2.75e-11
# P''_topo (s/s^2) =  0                 +/- 1.2e-14
# P_bary (ms)      =  N/A
# P'_bary (s/s)    =  N/A
# P''_bary (s/s^2) =  N/A
# P_orb (s)        =  N/A
# asin(i)/c (s)    =  N/A
# eccentricity     =  N/A
# w (rad)          =  N/A
# T_peri           =  N/A
######################################################
   0  1920.326
   1  1726.182
   2  1583.18
   3  1470.886
   4  1336.414
   5  1237.041
   6  1232.386
   7  1375.251
   8  1243.479
   9  1207.323
  10  1276.17
  11  1215.146
  12  1203.289
  13  1178.538
  14  1314.125
  15  1335.832
  16  1254.523
  17  1238.622
  18  1132.108
  19  1167.999
  20  1125.172
  21  1071.506
  22  1167.563
  23  1233.298
  24  1122.802
  25  1103.892
  26  1142.683
  27  1087.406
  28  1119.315
  29  1248.354
  30  1326.001
  31  1294.223
  32  1239.398
  33  1159.236
  34  1130.821
  35  1175.445
  36  1196.44
  37  1140.648
  38  1269.048
  39  1263.888
  40  1262.195
  41  1279.451
  42  1290.052
  43  1331.807
  44  1294.108
  45  1287.317
  46  1320.364
  47  1319.848
  48  1351.776
  49  1255.469
  50  1137.723
  51  1197.328
  52  1191.357
  53  1289.625
  54  1349.103
  55  1318.086
  56  1322.548
  57  1232.339
  58  1179.681
  59  1168.083
  60  1201.509
  61  1277.097
  62  1192.265
  63  1287.146
  64  1444.347
  65  1307.484
  66  1196.347
  67  1193.131
  68  1264.282
  69  1349.302
  70  1276.928
  71  1200.164
  72  1254.95
  73  1299.037
  74  1232.009
  75  1144.379
  76  1186.213
  77  1132.943
  78  1152.986
  79  1348.848
  80  1386.872
  81  1326.039
  82  1145.306
  83  1219.023
  84  1262.156
  85  1290.779
  86  1376.89
  87  1352.581
  88  1293.715
  89  1313.512
  90  1198.679
  91  1188.841
  92  1196.255
  93  1185.97
  94  1178.094
  95  1369.771
  96  1451.952
  97  1456.349
  98  1299.737
  99  1275.141
 100  1352.054
 101  1326.865
 102  1439.662
 103  1427.603
 104  1403.678
 105  1530.332
 106  1591.866
 107  1334.036
 108  1223.602
 109  1333.088
 110  1298.771
 111  1301.962
 112  1384.162
 113  1358.712
 114  1307.564
 115  1259.434
 116  1329.505
 117  1279.257
 118  1341.124
 119  1310.88
 120  1295.641
 121  1399.946
 122  1325.185
 123  1349.186
 124  1392.308
 125  1383.126
 126  1337.811
 127  1253.719
 128  1305.064
 129  1450.988
 130  1478.303
 131  1542.75
 132  1327.902
 133  1388.908
 134  1461.997
 135  1543.942
 136  1520.203
 137  1374.652
 138  1455.56
 139  1460.548
 140  1394.691
 141  1450.572
 142  1349.124
 143  1515.869
 144  1555.117
 145  1484.096
 146  1476.548
 147  1479.396
 148  1400.01
 149  1379.292
 150  1408.131
 151  1314.225
 152  1295.761
 153  1385.352
 154  1465.49
 155  1336.816
 156  1351.75
 157  1245.911
 158  1254.177
 159  1247.325
 160  1280.639
 161  1295.031
 162  1384.736
 163  1328.89
 164  1326.841
 165  1307.2
 166  1268.7
 167  1225.654
 168  1242.176
 169  1317.543
 170  1287.879
 171  1383.41
 172  1403.495
 173  1261.133
 174  1164.927
 175  1318.787
 176  1348.86
 177  1337.439
 178  1252.627
 179  1364.286
 180  1527.147
 181  1498.858
 182  1429.482
 183  1402.278
 184  1403.478
 185  1270.601
 186  1237.294
 187  1303.19
 188  1395.22
 189  1240.45
 190  1270.7
 191  1304.128
 192  1296.796
 193  1157
 194  1258.139
 195  1308.585
 196  1401.416
 197  1397.955
 198  1317.473
 199  1318.812
 200  1284.167
 201  1279.589
 202  1329.347
 203  1381.618
 204  1380.152
 205  1371.642
 206  1299.29
 207  1254.935
 208  1292.483
 209  1207.668
 210  1269.448
 211  1211.408
 212  1288.72
 213  1241.558
 214  1299.178
 215  1333.859
 216  1247.556
 217  1336.656
 218  1326.123
 219  1300.911
 220  1311.047
 221  1388.132
 222  1365.268
 223  1217.75
 224  1258.114
 225  1294.069
 226  1383.033
 227  1341.606
 228  1411.813
 229  1334.803
 230  1333.67
 231  1305.076
 232  1176.371
 233  1202.149
 234  1301.236
 235  1313.548
 236  1329.657
 237  1337.243
 238  1315.227
 239  1277.215
 240  1261.652
 241  1264.374
 242  1235.073
 243  1243.399
 244  1224.715
 245  1369.358
 246  1360.141
 247  1224.662
 248  1146.683
 249  1174.936
 250  1150.455
 251  1251.848
 252  1288.355
 253  1288.918
 254  1296.502
 255  1247.422
 256  1226.403
 257  1199.311
 258  1314.701
 259  1340.265
 260  1385.803
 261  1371.889
 262  1412.791
 263  1383.326
 264  1409.536
 265  1297.366
 266  1201.494
 267  1352.516
 268  1357.239
 269  1381.901
 270  1475.515
 271  1339.208
 272  1333.835
 273  1246.064
 274  1222.477
 275  1349.786
 276  1249.354
 277  1255.234
 278  1367.593
 279  1372.914
 280  1255.633
 281  1157.071
 282  1200.112
 283  1222.949
 284  1169.111
 285  1326.965
 286  1309.83
 287  1275.109
 288  1285.327
 289  1177.466
 290  1110.272
 291  1221.107
 292  1309.66
 293  1270.556
 294  1394.323
 295  1486.059
 296  1312.188
 297  1231.703
 298  1288.91
 299  1323.456
 300  1272.613
 301  1161.163
 302  1350.589
 303  1323.095
 304  1250.17
 305  1170.587
 306  1160.603
 307  1170.191
 308  1272.944
 309  1263.573
 310  1287.768
 311  1388.041
 312  1285.852
 313  1127.427
 314  1141.744
 315  1148.178
 316  1214.807
 317  1212.524
 318  1210.937
 319  1271.535
 320  1263.893
 321  1155.414
 322  941.7703
 323  962.748
 324  1135.724
 325  1211.939
 326  1148.197
 327  1266.902
 328  1205.853
 329  1229.477
 330  1296.32
 331  1164.776
 332  1303.754
 333  1119.387
 334  1146.691
 335  1309.539
 336  1296.76
 337  1293.672
 338  1136.391
 339  1205.246
 340  1184.284
 341  1293.56
 342  1301.058
 343  1260.371
 344  1206.118
 345  1343.835
 346  1315.485
 347  1227.835
 348  1151.71
 349  1140
 350  1120.26
 351  1191.012
 352  1268.321
 353  1302.698
 354  1240.249
 355  1126.793
 356  1107.214
 357  1141.679
 358  1107.602
 359  1128.506
 360  1231.394
 361  1272.005
 362  1233.9
 363  1207.913
 364  1175.52
 365  1204.808
 366  1354.103
 367  1306.986
 368  1214.687
 369  1199.419
 370  1344.979
 371  1274.346
 372  1260.794
 373  1376.422
 374  1238.354
 375  1236.806
 376  1274.289
 377  1375.599
 378  1371.942
 379  1290.739
 380  1361.867
 381  1246.856
 382  1228.29
 383  1341.963
 384  1254.352
 385  1385.022
 386  1370.046
 387  1318.717
 388  1268.506
 389  1281.401
 390  1376.106
 391  1338.454
 392  1332.078
 393  1321.843
 394  1312.284
 395  1313.122
 396  1265.131
 397  1294.537
 398  1314.986
 399  1360.103
 400  1337.546
 401  1346.985
 402  1420.237
 403  1428.254
 404  1264.507
 405  1183.45
 406  1214.919
 407  1298.769
 408  1326.649
 409  1250.484
 410  1423.547
 411  1461.152
 412  1427.763
 413  1394.016
 414  1292.502
 415  1266.911
 416  1285.302
 417  1290.235
 418  1289.872
 419  1360.888
 420  1323.008
 421  1234.253
 422  1165.522
 423  1234.688
 424  1277.273
 425  1237.176
 426  1240.689
 427  1288.065
 428  1245.47
 429  1199.91
 430  1209.293
 431  1226.752
 432  1198.592
 433  1166.31
 434  1221.834
 435  1300.096
 436  1312.098
 437  1123.167
 438  1137.586
 439  1154.09
 440  1109.797
 441  1181.607
 442  1276.462
 443  1399.092
 444  1402.846
 445  1279.867
 446  1219.668
 447  1219.609
 448  1180.226
 449  1139.045
 450  1172.009
 451  1277.855
 452  1315.455
 453  1168.032
 454  1100.179
 455  1180.635
 456  1264.834
 457  1165.247
 458  1159.776
 459  1268.361
 460  1282.514
 461  1237.574
 462  1216.827
 463  1143.276
 464  1166.123
 465  1183.235
 466  1261.997
 467  1219.939
 468  1253.596
 469  1196.509
 470  1108.11
 471  1213.183
 472  1195.898
 473  1277.838
 474  1174.602
 475  1195.571
 476  1348.925
 477  1416.596
 478  1360.704
 479  1342.24
 480  1339.327
 481  1196.661
 482  1285.908
 483  1267.627
 484  1345.941
 485  1440.301
 486  1366.167
 487  1171.608
 488  1203.278
 489  1200.037
 490  1207.89
 491  1312.342
 492  1392.513
 493  1400.287
 494  1240.769
 495  1245.383
 496  1209.966
 497  1241.263
 498  1191.265
 499  1199.694
 500  1258.274
 501  1499.318
 502  1460.978
 503  1327.941
 504  1195.29
 505  1133.449
 506  1226.861
 507  1334.538
 508  1580.015
 509  1752.045
 510  1886.202
 511  1914.953
