# Input file       =  1206358626.111749_cleaned.dat
# Candidate        =  PSR_0332+5434
# Telescope        =  AR
# Epoch_topo       =  58206.483890182280
# Epoch_bary       =  N/A
# T_sample         =  0.002
# Data Folded      =  7340032
# Data Avg         =  0.0657329037082582
# Data StdDev      =  1.00011991923284 
# Profile Bins     =  512
# Profile Avg      =  942.324761403893 
# Profile StdDev   =  119.747394670634 
# Reduced chi-sqr  =  0.966
# Prob(Noise)      <  0.702   (~0.0 sigma)
# P_topo (ms)      =  714.571095597466  +/- 0.000284
# P'_topo (s/s)    =  -0                +/- 1.5e-10
# P''_topo (s/s^2) =  0                 +/- 6.61e-14
# P_bary (ms)      =  N/A
# P'_bary (s/s)    =  N/A
# P''_bary (s/s^2) =  N/A
# P_orb (s)        =  N/A
# asin(i)/c (s)    =  N/A
# eccentricity     =  N/A
# w (rad)          =  N/A
# T_peri           =  N/A
######################################################
   0  1349.104
   1  1252.751
   2  1197.718
   3  1088.924
   4  969.6464
   5  881.8444
   6  845.2397
   7  851.6993
   8  833.4848
   9  868.0573
  10  909.5765
  11  911.8259
  12  927.5145
  13  916.968
  14  924.872
  15  934.358
  16  973.7902
  17  1003.567
  18  981.2841
  19  943.1658
  20  986.7167
  21  942.8452
  22  879.377
  23  860.8646
  24  819.7252
  25  897.977
  26  962.7112
  27  966.7919
  28  976.3961
  29  1018.715
  30  1057.602
  31  973.9246
  32  969.5226
  33  930.4614
  34  983.1021
  35  909.4211
  36  829.1365
  37  884.1099
  38  898.1805
  39  917.6575
  40  879.5989
  41  856.4648
  42  946.6961
  43  900.6735
  44  939.658
  45  958.1248
  46  978.6884
  47  982.6933
  48  975.6509
  49  974.4564
  50  900.6723
  51  966.0995
  52  941.2623
  53  871.4402
  54  844.342
  55  843.2169
  56  820.8395
  57  798.8027
  58  904.8777
  59  935.8879
  60  953.2128
  61  945.0758
  62  876.2825
  63  857.2983
  64  926.6151
  65  855.588
  66  767.9396
  67  890.9369
  68  902.1732
  69  889.6913
  70  795.0563
  71  835.2442
  72  802.4211
  73  864.2752
  74  983.1689
  75  878.3295
  76  870.7565
  77  933.588
  78  1007.314
  79  978.7693
  80  961.7736
  81  941.4284
  82  874.5166
  83  942.3828
  84  1039.696
  85  1004.648
  86  1044.729
  87  972.8868
  88  982.9553
  89  1042.363
  90  997.2552
  91  927.9315
  92  1038.667
  93  1131.566
  94  1126.745
  95  1001.957
  96  1106.967
  97  1135.593
  98  1035.483
  99  1029.606
 100  984.8665
 101  986.6693
 102  1006.232
 103  1006.777
 104  1036.246
 105  1081.825
 106  1048.283
 107  1040.248
 108  1105.497
 109  1079.141
 110  1046.645
 111  1073.787
 112  1005.078
 113  1024.878
 114  1044.498
 115  1005.396
 116  942.632
 117  921.9818
 118  1051.594
 119  958.2754
 120  898.819
 121  909.1938
 122  941.2772
 123  965.7032
 124  991.6233
 125  1053.22
 126  1134.494
 127  1027.34
 128  976.6122
 129  1003.107
 130  1058.81
 131  1008.63
 132  1005.224
 133  965.7959
 134  1080.687
 135  1081.216
 136  1034.794
 137  1002.241
 138  1034.872
 139  1025.018
 140  1037.939
 141  1072.893
 142  1013.128
 143  1009.201
 144  972.6348
 145  956.433
 146  1042.105
 147  1032.675
 148  1008.109
 149  937.6288
 150  881.2044
 151  949.5305
 152  1027.002
 153  1059.228
 154  1003.892
 155  1007.501
 156  1020.508
 157  984.7141
 158  951.0977
 159  974.1276
 160  1036.085
 161  1012.177
 162  966.3793
 163  952.788
 164  920.9077
 165  902.0337
 166  897.2269
 167  940.3979
 168  1014.081
 169  1021.656
 170  956.8502
 171  953.0238
 172  919.2324
 173  905.429
 174  913.054
 175  968.5
 176  917.9595
 177  869.4689
 178  842.9615
 179  878.9617
 180  860.877
 181  844.4931
 182  948.8309
 183  881.687
 184  908.4434
 185  903.2097
 186  919.6981
 187  973.2656
 188  1019.159
 189  1030.131
 190  950.009
 191  862.2914
 192  912.3118
 193  914.9575
 194  975.662
 195  995.1136
 196  965.4689
 197  961.046
 198  921.3093
 199  940.3712
 200  953.3975
 201  864.7153
 202  918.3615
 203  914.8314
 204  916.5558
 205  889.8036
 206  939.6899
 207  903.7761
 208  852.2777
 209  931.2538
 210  948.5093
 211  1005.027
 212  990.3563
 213  942.6459
 214  960.5456
 215  916.4482
 216  964.5904
 217  890.8765
 218  936.162
 219  979.2741
 220  910.0004
 221  892.094
 222  954.9001
 223  1016.503
 224  961.4329
 225  956.0571
 226  947.9827
 227  956.1143
 228  989.1923
 229  918.4537
 230  943.3425
 231  938.5488
 232  1026.647
 233  968.517
 234  998.662
 235  1033.343
 236  1022.404
 237  997.3431
 238  890.1263
 239  860.845
 240  941.5766
 241  953.4554
 242  884.1713
 243  953.5602
 244  1005.208
 245  1003.924
 246  1048.666
 247  1030.899
 248  957.4147
 249  822.131
 250  833.9498
 251  905.5259
 252  893.9819
 253  902.313
 254  1012.067
 255  990.5103
 256  924.1098
 257  946.0792
 258  872.4496
 259  844.0667
 260  877.4651
 261  972.7281
 262  983.5143
 263  918.9261
 264  869.134
 265  939.2577
 266  939.9797
 267  927.1292
 268  903.4214
 269  883.7891
 270  854.3857
 271  893.8312
 272  846.2105
 273  810.4489
 274  863.9418
 275  888.5022
 276  944.2161
 277  944.2868
 278  955.6287
 279  878.1443
 280  872.5857
 281  920.3621
 282  897.2156
 283  820.4321
 284  818.4521
 285  792.161
 286  759.1963
 287  804.5451
 288  901.902
 289  851.4406
 290  883.6696
 291  766.4651
 292  693.6253
 293  785.3544
 294  872.7665
 295  886.5961
 296  865.5368
 297  864.4447
 298  853.6737
 299  851.7019
 300  824.7104
 301  894.6597
 302  990.506
 303  873.6701
 304  809.1416
 305  849.3124
 306  792.4748
 307  764.603
 308  842.6923
 309  918.8668
 310  866.9558
 311  906.514
 312  891.7206
 313  906.3147
 314  936.2621
 315  892.5433
 316  853.4775
 317  828.4777
 318  930.6051
 319  995.2821
 320  987.184
 321  996.012
 322  1057.403
 323  966.3098
 324  946.5353
 325  932.2127
 326  874.3804
 327  915.5623
 328  924.1427
 329  911.847
 330  829.325
 331  865.7586
 332  915.1893
 333  967.9665
 334  939.8318
 335  912.0987
 336  923.3708
 337  1011.715
 338  956.5931
 339  959.8437
 340  942.0129
 341  951.4903
 342  885.7786
 343  864.7628
 344  916.2291
 345  911.3135
 346  897.2563
 347  1016.753
 348  1008.91
 349  982.8172
 350  995.4401
 351  977.7375
 352  960.3165
 353  974.1008
 354  933.1473
 355  951.8187
 356  1017.067
 357  924.7692
 358  873.7266
 359  795.9097
 360  858.7993
 361  900.9025
 362  860.2536
 363  855.1059
 364  911.257
 365  878.2468
 366  868.826
 367  781.2943
 368  850.3803
 369  831.5921
 370  796.9265
 371  851.487
 372  887.6475
 373  855.4063
 374  896.7713
 375  834.2613
 376  810.4063
 377  862.7379
 378  834.8145
 379  873.1058
 380  888.908
 381  953.8676
 382  933.4384
 383  913.7897
 384  919.3527
 385  866.0161
 386  890.0401
 387  905.3471
 388  916.9636
 389  946.2931
 390  927.5988
 391  899.9622
 392  781.0972
 393  848.63
 394  875.1307
 395  879.1647
 396  951.6347
 397  927.7274
 398  822.3138
 399  773.3434
 400  890.8104
 401  966.7492
 402  1015.333
 403  976.575
 404  1089.785
 405  1003.648
 406  900.9044
 407  895.674
 408  937.4579
 409  1011.474
 410  1037.436
 411  1042.102
 412  1083.04
 413  1092.615
 414  1053.907
 415  1039.336
 416  1009.724
 417  957.5726
 418  997.5958
 419  999.5925
 420  1012.472
 421  1060.371
 422  1009.421
 423  1007.102
 424  1084.294
 425  1088.877
 426  969.9277
 427  936.8585
 428  1035.775
 429  1096.07
 430  1080.25
 431  1090.506
 432  1127.233
 433  1098.082
 434  1105.378
 435  1067.366
 436  1078.225
 437  1044.076
 438  991.3248
 439  998.5649
 440  1051.968
 441  1013.956
 442  1038.888
 443  1087.742
 444  1082.872
 445  1081.77
 446  1044.451
 447  960.9766
 448  898.5654
 449  884.0532
 450  986.4791
 451  1044.664
 452  951.1519
 453  1053.967
 454  1080.444
 455  1040.349
 456  942.0422
 457  913.7538
 458  934.1438
 459  791.9746
 460  884.2397
 461  937.4542
 462  915.4481
 463  952.3701
 464  1024.251
 465  950.6295
 466  878.416
 467  943.2438
 468  982.5397
 469  964.045
 470  944.7294
 471  902.1722
 472  918.7855
 473  854.7202
 474  750.5949
 475  809.5441
 476  929.1774
 477  939.2333
 478  855.0155
 479  865.5051
 480  898.2731
 481  888.2813
 482  984.7717
 483  909.3848
 484  916.2386
 485  881.692
 486  918.7451
 487  787.4379
 488  842.467
 489  871.7761
 490  830.7317
 491  849.6876
 492  871.0959
 493  946.1547
 494  795.0838
 495  866.6552
 496  855.4526
 497  879.6345
 498  910.8906
 499  875.3535
 500  809.6383
 501  911.9141
 502  901.423
 503  769.6902
 504  786.2745
 505  875.0399
 506  886.191
 507  916.1663
 508  982.4137
 509  1191.312
 510  1292.76
 511  1376.862
