# Input file       =  1206444813.112411_cleaned.dat
# Candidate        =  PSR_0332+5434
# Telescope        =  AR
# Epoch_topo       =  58207.481424912163
# Epoch_bary       =  N/A
# T_sample         =  0.002
# Data Folded      =  7340032
# Data Avg         =  0.0961894290268192
# Data StdDev      =  1.00010987174241 
# Profile Bins     =  512
# Profile Avg      =  1378.8914581245  
# Profile StdDev   =  119.746191654097 
# Reduced chi-sqr  =  1.012
# Prob(Noise)      <  0.416   (~0.2 sigma)
# P_topo (ms)      =  714.570535768182  +/- 0.000776
# P'_topo (s/s)    =  -0                +/- 4.09e-10
# P''_topo (s/s^2) =  0                 +/- 1.81e-13
# P_bary (ms)      =  N/A
# P'_bary (s/s)    =  N/A
# P''_bary (s/s^2) =  N/A
# P_orb (s)        =  N/A
# asin(i)/c (s)    =  N/A
# eccentricity     =  N/A
# w (rad)          =  N/A
# T_peri           =  N/A
######################################################
   0  1988.469
   1  1916.068
   2  1637.338
   3  1419.638
   4  1436.443
   5  1414.983
   6  1416.864
   7  1494.639
   8  1504.522
   9  1483.792
  10  1481.467
  11  1467.422
  12  1435.405
  13  1502.882
  14  1574.855
  15  1642.871
  16  1511.23
  17  1447.501
  18  1398.707
  19  1441.285
  20  1465.841
  21  1458.109
  22  1445.637
  23  1451.639
  24  1423.612
  25  1394.062
  26  1339.656
  27  1325.941
  28  1323.013
  29  1427.258
  30  1414.333
  31  1417.203
  32  1424.591
  33  1418.27
  34  1512.114
  35  1468.005
  36  1396.645
  37  1405.496
  38  1414.899
  39  1350.261
  40  1425.182
  41  1339.574
  42  1411.283
  43  1462.54
  44  1436.383
  45  1337.099
  46  1354.677
  47  1313.664
  48  1341.502
  49  1382.394
  50  1446.188
  51  1427.341
  52  1399.585
  53  1431.491
  54  1423.397
  55  1370.855
  56  1449.437
  57  1416.47
  58  1391.958
  59  1381.881
  60  1421.705
  61  1346.515
  62  1366.364
  63  1277.711
  64  1371.404
  65  1426.673
  66  1370.783
  67  1430.586
  68  1411.925
  69  1332.167
  70  1331.917
  71  1317.919
  72  1357.988
  73  1256.182
  74  1371.96
  75  1395.755
  76  1336.992
  77  1347.567
  78  1351.591
  79  1350.211
  80  1297.559
  81  1364.804
  82  1316.569
  83  1249.229
  84  1318.741
  85  1250.851
  86  1215.197
  87  1262.504
  88  1335.211
  89  1371.117
  90  1363.094
  91  1372.023
  92  1406.323
  93  1405.857
  94  1341.913
  95  1268.543
  96  1283.452
  97  1329.95
  98  1376.146
  99  1392.844
 100  1218.144
 101  1205.969
 102  1384.478
 103  1417.455
 104  1360.71
 105  1338.279
 106  1385.129
 107  1346.747
 108  1369.175
 109  1439.377
 110  1471.77
 111  1538.354
 112  1492.624
 113  1487.877
 114  1501.377
 115  1504.486
 116  1395.99
 117  1417.049
 118  1463.543
 119  1474.668
 120  1393.129
 121  1372.838
 122  1446.988
 123  1498.165
 124  1437.996
 125  1483.714
 126  1457.24
 127  1417.098
 128  1372.147
 129  1340.192
 130  1408.561
 131  1441.966
 132  1515.515
 133  1560.298
 134  1549.266
 135  1483.597
 136  1508.854
 137  1496.471
 138  1433.112
 139  1462.534
 140  1328.041
 141  1360.968
 142  1493.594
 143  1474.382
 144  1371.113
 145  1387.004
 146  1412.66
 147  1411.302
 148  1397.308
 149  1439.207
 150  1364.802
 151  1358.188
 152  1402.806
 153  1466.409
 154  1490.653
 155  1458.412
 156  1449.619
 157  1468.487
 158  1448.55
 159  1452.003
 160  1467.23
 161  1510.439
 162  1478.167
 163  1440.11
 164  1448.902
 165  1425.413
 166  1384.98
 167  1411.274
 168  1493.135
 169  1436.587
 170  1414.209
 171  1415.331
 172  1380.958
 173  1335.24
 174  1370.186
 175  1383.81
 176  1388.119
 177  1362.303
 178  1394.071
 179  1382.596
 180  1400.839
 181  1310.791
 182  1326.98
 183  1394.74
 184  1438.822
 185  1395.183
 186  1383.275
 187  1355.284
 188  1351.555
 189  1381.349
 190  1430.005
 191  1390.847
 192  1343.627
 193  1394.502
 194  1482.028
 195  1421.323
 196  1425.442
 197  1405.855
 198  1414.111
 199  1445.112
 200  1415.005
 201  1443.88
 202  1439.613
 203  1405.912
 204  1406.439
 205  1372.293
 206  1349.256
 207  1362.373
 208  1354.101
 209  1372.953
 210  1397.752
 211  1343.077
 212  1276.515
 213  1351.748
 214  1308.58
 215  1393.064
 216  1338.627
 217  1387.459
 218  1297.823
 219  1199.152
 220  1229.377
 221  1273.616
 222  1337.856
 223  1240.514
 224  1211.671
 225  1307.943
 226  1320.295
 227  1288.834
 228  1308.142
 229  1294.589
 230  1330.838
 231  1339.192
 232  1298.44
 233  1416.785
 234  1365.427
 235  1412.095
 236  1467.435
 237  1381.243
 238  1277.552
 239  1311.246
 240  1378.637
 241  1386.082
 242  1346.422
 243  1372.459
 244  1397.137
 245  1300.178
 246  1277.533
 247  1240.85
 248  1308.231
 249  1325.748
 250  1320.282
 251  1342.552
 252  1405.308
 253  1395.043
 254  1412.219
 255  1338.193
 256  1357.511
 257  1359.162
 258  1384.231
 259  1312.031
 260  1362.711
 261  1402.276
 262  1348.544
 263  1354.238
 264  1306.956
 265  1274.127
 266  1356.242
 267  1355.037
 268  1314.586
 269  1329.879
 270  1362.563
 271  1303.958
 272  1277.903
 273  1318.598
 274  1304.111
 275  1248.309
 276  1318.236
 277  1403.342
 278  1400.965
 279  1375.1
 280  1391.627
 281  1365.979
 282  1265.709
 283  1244.779
 284  1261.198
 285  1271.156
 286  1299.838
 287  1314.185
 288  1331.3
 289  1347.769
 290  1266.949
 291  1290.596
 292  1275.773
 293  1299.52
 294  1286.377
 295  1381.133
 296  1376.677
 297  1283.624
 298  1269.008
 299  1297.306
 300  1312.491
 301  1312.086
 302  1411.47
 303  1443.73
 304  1383.302
 305  1392.882
 306  1411.094
 307  1392.201
 308  1320.583
 309  1331.25
 310  1290.299
 311  1212.797
 312  1273.343
 313  1275.44
 314  1232.911
 315  1289.67
 316  1374.397
 317  1358.032
 318  1379.119
 319  1386.56
 320  1321.587
 321  1342.5
 322  1403.632
 323  1414.247
 324  1404.502
 325  1389.234
 326  1411.33
 327  1342.416
 328  1259.608
 329  1270.365
 330  1289.555
 331  1365.338
 332  1390.837
 333  1355.034
 334  1320.085
 335  1330.351
 336  1272.352
 337  1274.389
 338  1366.563
 339  1387.238
 340  1408.877
 341  1391.323
 342  1438.503
 343  1440.396
 344  1394.398
 345  1343.7
 346  1414.352
 347  1345.882
 348  1367.166
 349  1389.095
 350  1355.016
 351  1412.926
 352  1393.316
 353  1393.463
 354  1380.797
 355  1386.369
 356  1486.644
 357  1408.995
 358  1369.306
 359  1419.536
 360  1329.413
 361  1357.313
 362  1360.662
 363  1343.043
 364  1297.472
 365  1201.512
 366  1161.404
 367  1212.186
 368  1279.026
 369  1255.682
 370  1225.986
 371  1268.361
 372  1346.022
 373  1310.614
 374  1261.118
 375  1348.953
 376  1395.325
 377  1297.276
 378  1347.52
 379  1340.151
 380  1271.098
 381  1264.364
 382  1300.184
 383  1374.125
 384  1375.002
 385  1397.682
 386  1339.471
 387  1235.3
 388  1227.504
 389  1305.498
 390  1253.336
 391  1361.979
 392  1331.192
 393  1231.331
 394  1173.929
 395  1225.634
 396  1286.902
 397  1293.366
 398  1288.516
 399  1286.963
 400  1411.784
 401  1311.215
 402  1324.721
 403  1389.096
 404  1346.892
 405  1313.858
 406  1314.273
 407  1310.399
 408  1312.24
 409  1248.826
 410  1292.615
 411  1348.27
 412  1385.814
 413  1410.456
 414  1398.246
 415  1417.722
 416  1359.353
 417  1430.68
 418  1436.927
 419  1350.258
 420  1375.04
 421  1366.659
 422  1310.505
 423  1291.887
 424  1384.69
 425  1406.766
 426  1448.575
 427  1452.549
 428  1382.769
 429  1343.408
 430  1393.694
 431  1343.295
 432  1337.681
 433  1417.823
 434  1448.289
 435  1464.814
 436  1423.495
 437  1404.963
 438  1377.349
 439  1388.056
 440  1339.692
 441  1348.646
 442  1372.708
 443  1411.729
 444  1487.583
 445  1429.147
 446  1353.432
 447  1373.569
 448  1425.004
 449  1344.847
 450  1352.151
 451  1410.222
 452  1437.209
 453  1402.291
 454  1398.586
 455  1459.831
 456  1457.219
 457  1407.526
 458  1454.126
 459  1420.875
 460  1381.663
 461  1415.538
 462  1415.774
 463  1437.354
 464  1393.849
 465  1396.238
 466  1416.597
 467  1354.676
 468  1421.555
 469  1347.929
 470  1307.006
 471  1258.309
 472  1279.698
 473  1383.17
 474  1344.825
 475  1250.438
 476  1305.422
 477  1357.574
 478  1396.08
 479  1380.426
 480  1366.976
 481  1437.576
 482  1449.345
 483  1399.135
 484  1327.679
 485  1354.193
 486  1388.484
 487  1434.632
 488  1402.984
 489  1400.454
 490  1411.02
 491  1398.109
 492  1382.621
 493  1327.078
 494  1335.968
 495  1398.67
 496  1425.351
 497  1389.99
 498  1316.117
 499  1358.863
 500  1455.112
 501  1452.251
 502  1454.233
 503  1378.965
 504  1440.954
 505  1528.324
 506  1466.934
 507  1459.465
 508  1588.742
 509  1751.766
 510  1874.37
 511  1930.765
