# Input file       =  1206430175.134664_cleaned.dat
# Candidate        =  PSR_0332+5434
# Telescope        =  AR
# Epoch_topo       =  58207.312003873427
# Epoch_bary       =  N/A
# T_sample         =  0.002
# Data Folded      =  7208960
# Data Avg         =  0.0909536774301084
# Data StdDev      =  1.00009693123743 
# Profile Bins     =  512
# Profile Avg      =  1280.63310182551 
# Profile StdDev   =  118.670677574272 
# Reduced chi-sqr  =  2.684
# Prob(Noise)      <  6.79e-80   (~18.9 sigma)
# P_topo (ms)      =  714.570614733129  +/- 0.000355
# P'_topo (s/s)    =  -0                +/- 1.91e-10
# P''_topo (s/s^2) =  0                 +/- 8.58e-14
# P_bary (ms)      =  N/A
# P'_bary (s/s)    =  N/A
# P''_bary (s/s^2) =  N/A
# P_orb (s)        =  N/A
# asin(i)/c (s)    =  N/A
# eccentricity     =  N/A
# w (rad)          =  N/A
# T_peri           =  N/A
######################################################
   0  2307.374
   1  2237.726
   2  1903.966
   3  1668.289
   4  1495.796
   5  1405.767
   6  1372.209
   7  1485.22
   8  1497.21
   9  1417.228
  10  1429.858
  11  1502.844
  12  1468.359
  13  1484.537
  14  1438.011
  15  1474.348
  16  1468.467
  17  1400.085
  18  1210.972
  19  1281.379
  20  1287.151
  21  1318.705
  22  1380.47
  23  1413.649
  24  1395.923
  25  1369.778
  26  1385.744
  27  1298.101
  28  1331.431
  29  1382.609
  30  1281.893
  31  1182.973
  32  1274.698
  33  1326.091
  34  1232.894
  35  1098.622
  36  1231.827
  37  1299.583
  38  1301.04
  39  1373.495
  40  1299.458
  41  1317.139
  42  1283.924
  43  1298.794
  44  1285.819
  45  1333.196
  46  1237.332
  47  1147.655
  48  1206.811
  49  1292.56
  50  1312.997
  51  1249.25
  52  1228.485
  53  1275.791
  54  1299.016
  55  1310.122
  56  1349.664
  57  1293.477
  58  1220.565
  59  1308.669
  60  1270.995
  61  1289.681
  62  1229.265
  63  1289.688
  64  1190.065
  65  1183.842
  66  1250.659
  67  1235.157
  68  1210.177
  69  1304.904
  70  1337.555
  71  1359.445
  72  1272.175
  73  1351.118
  74  1361.198
  75  1322.036
  76  1389.796
  77  1261.5
  78  1101.869
  79  1174.039
  80  1165.695
  81  1066.218
  82  1115.48
  83  1101.017
  84  1038.678
  85  1125.827
  86  1332.611
  87  1278.487
  88  1163.405
  89  1227.33
  90  1158.326
  91  1139.473
  92  1206.922
  93  1157.71
  94  1187.418
  95  1274.134
  96  1351.955
  97  1209.573
  98  1179.027
  99  1212.333
 100  1151.039
 101  1190.217
 102  1216.745
 103  1231.275
 104  1335.218
 105  1186.479
 106  1259.051
 107  1233.787
 108  1208.522
 109  1320.979
 110  1270.725
 111  1143.347
 112  1196.553
 113  1137.205
 114  1083.75
 115  994.6677
 116  1006.168
 117  1062.942
 118  1105.269
 119  1106.502
 120  1052.307
 121  1006.845
 122  1183.052
 123  1278.846
 124  1167.004
 125  1178.414
 126  1153.064
 127  1201.317
 128  1230.491
 129  1049.953
 130  1037.485
 131  1185.81
 132  1191.763
 133  1181.626
 134  1118.032
 135  1100.67
 136  1173.524
 137  1148.015
 138  1135.931
 139  1131.741
 140  1192.988
 141  1304.057
 142  1265.149
 143  1174.344
 144  1097.024
 145  1152.95
 146  1189.502
 147  1069.616
 148  1113.107
 149  1201.535
 150  1151.299
 151  1099.7
 152  1207.687
 153  1221.431
 154  1160.159
 155  1189.802
 156  1223.366
 157  1223.569
 158  1173.635
 159  1226.436
 160  1168.259
 161  1075.278
 162  1068.187
 163  1066.616
 164  1053.296
 165  1060.945
 166  1089.083
 167  1105.465
 168  1284.793
 169  1229.664
 170  1168.711
 171  1212.556
 172  1232.423
 173  1240.523
 174  1256.052
 175  1222.83
 176  1211.527
 177  1176.727
 178  1208.065
 179  1225.248
 180  1209.913
 181  1144.31
 182  1147.165
 183  1093.242
 184  1059.558
 185  1056.317
 186  1077.238
 187  1077.55
 188  1256.482
 189  1266.065
 190  1217.086
 191  1089.217
 192  1132.938
 193  1152.315
 194  1165.411
 195  1158.548
 196  1186.918
 197  1145.68
 198  1086.218
 199  1138.849
 200  1125.379
 201  1195.79
 202  1148.49
 203  1132.857
 204  1262.419
 205  1257.085
 206  1180.262
 207  1235.192
 208  1220.868
 209  1228.565
 210  1135.76
 211  1218.93
 212  1279.817
 213  1175.363
 214  1248.269
 215  1174.115
 216  1160.639
 217  1202.428
 218  1275.769
 219  1163.32
 220  1226.112
 221  1227.192
 222  1246.139
 223  1233.462
 224  1235.066
 225  1169.458
 226  1238.023
 227  1349.453
 228  1215.131
 229  1237.323
 230  1328.983
 231  1321.972
 232  1262.204
 233  1301.199
 234  1280.145
 235  1274.111
 236  1254.278
 237  1421.892
 238  1289.6
 239  1293.747
 240  1325.565
 241  1208.263
 242  1205.191
 243  1305.798
 244  1222.157
 245  1004.003
 246  1046.334
 247  1119.868
 248  1153.393
 249  1135.009
 250  1160.354
 251  1185.095
 252  1272.032
 253  1239.136
 254  1219.226
 255  1210.454
 256  1234.441
 257  1183.552
 258  1086.912
 259  1006.977
 260  1153.584
 261  1277.326
 262  1398.625
 263  1248.025
 264  1187.801
 265  1206.615
 266  1061.551
 267  1087.898
 268  1187.013
 269  1152.126
 270  1146.665
 271  1249.336
 272  1298.913
 273  1379.432
 274  1385.948
 275  1277.276
 276  1264.577
 277  1313.985
 278  1232.065
 279  1253.29
 280  1273.155
 281  1278.946
 282  1178.476
 283  1232.783
 284  1322.306
 285  1252.588
 286  1292.305
 287  1345.249
 288  1401.21
 289  1405.55
 290  1303.946
 291  1398.606
 292  1310.397
 293  1228.375
 294  1271.016
 295  1263.419
 296  1247.056
 297  1291.748
 298  1253.553
 299  1195.471
 300  1269.459
 301  1301.92
 302  1278.955
 303  1358.341
 304  1386.159
 305  1299.418
 306  1263.397
 307  1327.12
 308  1301.183
 309  1305.945
 310  1251.142
 311  1089.61
 312  1122.005
 313  1159.567
 314  1235.827
 315  1248.26
 316  1197.061
 317  1221.724
 318  1316.758
 319  1264.319
 320  1212.965
 321  1198.959
 322  1277.193
 323  1287.656
 324  1210.944
 325  1260.492
 326  1329.25
 327  1213.984
 328  1147.241
 329  1207.836
 330  1225.153
 331  1208.45
 332  1259.741
 333  1298.37
 334  1270.117
 335  1221.818
 336  1214.535
 337  1240.238
 338  1292.186
 339  1287.701
 340  1271.66
 341  1295.466
 342  1164.699
 343  1225.877
 344  1071.534
 345  1181.577
 346  1224.807
 347  1297.499
 348  1306.864
 349  1208.687
 350  1163.649
 351  1271.036
 352  1310.958
 353  1194.802
 354  1369.775
 355  1349.609
 356  1333.013
 357  1289.001
 358  1272.439
 359  1350.375
 360  1249.548
 361  1152.226
 362  1246.489
 363  1228.708
 364  1207.122
 365  1217.218
 366  1259.148
 367  1261.719
 368  1312.186
 369  1246.262
 370  1355.88
 371  1377.474
 372  1362.871
 373  1371.849
 374  1330
 375  1303.097
 376  1268.389
 377  1262.828
 378  1198.735
 379  1197.998
 380  1276.342
 381  1293.419
 382  1288.938
 383  1319.692
 384  1289.813
 385  1440.957
 386  1462.639
 387  1389.43
 388  1430.968
 389  1393.038
 390  1274.117
 391  1295.6
 392  1344.981
 393  1341.03
 394  1240.74
 395  1257.764
 396  1267.556
 397  1340.037
 398  1382.996
 399  1339.798
 400  1303.932
 401  1403.908
 402  1302.69
 403  1336.019
 404  1339.105
 405  1365.083
 406  1254.803
 407  1400.453
 408  1467.957
 409  1291.169
 410  1232.801
 411  1358.668
 412  1434.354
 413  1376.53
 414  1326.264
 415  1315.173
 416  1356.034
 417  1388.29
 418  1338.156
 419  1366.291
 420  1416.405
 421  1398.124
 422  1332.881
 423  1345.004
 424  1460.496
 425  1351.034
 426  1440.183
 427  1268.129
 428  1289.391
 429  1359.291
 430  1310.462
 431  1281.511
 432  1313.606
 433  1457.985
 434  1357.473
 435  1356.033
 436  1424.298
 437  1428.289
 438  1383.063
 439  1335.198
 440  1368.315
 441  1348.244
 442  1406.981
 443  1350.437
 444  1360.974
 445  1411.963
 446  1398.599
 447  1404.095
 448  1388.531
 449  1390.444
 450  1323.571
 451  1367.766
 452  1401.637
 453  1418.96
 454  1466.922
 455  1456.433
 456  1339.548
 457  1374.869
 458  1444.951
 459  1411.516
 460  1371.555
 461  1309.15
 462  1369.671
 463  1368.1
 464  1295.139
 465  1325.704
 466  1340.965
 467  1340.278
 468  1339.706
 469  1365.119
 470  1424.402
 471  1476.458
 472  1523.059
 473  1402.581
 474  1365.451
 475  1265.137
 476  1344.533
 477  1243.14
 478  1307.669
 479  1243.244
 480  1383.175
 481  1368.38
 482  1307.066
 483  1360.691
 484  1308.971
 485  1406.591
 486  1533.758
 487  1566.625
 488  1467.562
 489  1403.581
 490  1410.773
 491  1510.595
 492  1502.059
 493  1551.815
 494  1491.209
 495  1480.508
 496  1416.532
 497  1431.719
 498  1384.56
 499  1334.331
 500  1299.571
 501  1373.679
 502  1509.145
 503  1461.895
 504  1526.655
 505  1598.866
 506  1522.645
 507  1494.951
 508  1587.859
 509  1676.561
 510  1957.77
 511  2232.212
