# Input file       =  1206430175.134664_cleaned.dat
# Candidate        =  PSR_0332+5434
# Telescope        =  AR
# Epoch_topo       =  58207.312003873427
# Epoch_bary       =  N/A
# T_sample         =  0.002
# Data Folded      =  7208960
# Data Avg         =  0.0909536774301084
# Data StdDev      =  1.00009693123743 
# Profile Bins     =  512
# Profile Avg      =  1280.63310184315 
# Profile StdDev   =  118.670677574272 
# Reduced chi-sqr  =  2.678
# Prob(Noise)      <  1.77e-79   (~18.8 sigma)
# P_topo (ms)      =  714.570614953525  +/- 0.000346
# P'_topo (s/s)    =  -0                +/- 1.86e-10
# P''_topo (s/s^2) =  0                 +/- 8.36e-14
# P_bary (ms)      =  N/A
# P'_bary (s/s)    =  N/A
# P''_bary (s/s^2) =  N/A
# P_orb (s)        =  N/A
# asin(i)/c (s)    =  N/A
# eccentricity     =  N/A
# w (rad)          =  N/A
# T_peri           =  N/A
######################################################
   0  2293.546
   1  2073.066
   2  1752.357
   3  1567.036
   4  1436.058
   5  1376.175
   6  1424.305
   7  1512.797
   8  1443.243
   9  1406.975
  10  1487.227
  11  1485.364
  12  1480.941
  13  1460.802
  14  1459.811
  15  1473.965
  16  1457.136
  17  1272.361
  18  1235.097
  19  1290.853
  20  1296.27
  21  1351.071
  22  1401.34
  23  1418.419
  24  1369.608
  25  1396.451
  26  1328.778
  27  1305.643
  28  1360.504
  29  1355.652
  30  1192.518
  31  1230.68
  32  1312.88
  33  1291.171
  34  1148.139
  35  1139.973
  36  1312.848
  37  1265.24
  38  1364.531
  39  1310.915
  40  1329.885
  41  1280.528
  42  1314.553
  43  1278.972
  44  1319.894
  45  1299.724
  46  1156.384
  47  1179.685
  48  1250.452
  49  1338.5
  50  1255.931
  51  1243.382
  52  1229.175
  53  1318.714
  54  1289.411
  55  1344.262
  56  1342.474
  57  1211.629
  58  1279.106
  59  1284.218
  60  1292.367
  61  1247.568
  62  1269.295
  63  1249.49
  64  1174.62
  65  1208.62
  66  1262.596
  67  1188.286
  68  1264.398
  69  1333.361
  70  1369.575
  71  1311.802
  72  1286.616
  73  1384.787
  74  1310.314
  75  1367.422
  76  1353.35
  77  1132.221
  78  1160.327
  79  1167.507
  80  1129.923
  81  1054.021
  82  1145.447
  83  1047.97
  84  1061.741
  85  1244.581
  86  1341.28
  87  1195.427
  88  1190.807
  89  1203.232
  90  1128.205
  91  1188.637
  92  1193.017
  93  1151.469
  94  1232.873
  95  1331.866
  96  1295.408
  97  1161.25
  98  1206.818
  99  1192.879
 100  1153.076
 101  1229.502
 102  1182.893
 103  1327.266
 104  1245.71
 105  1204.937
 106  1268.205
 107  1200.123
 108  1259.754
 109  1340.816
 110  1168.579
 111  1182.399
 112  1178.804
 113  1093.615
 114  1043.554
 115  975.4706
 116  1053.914
 117  1076.02
 118  1117.021
 119  1071.577
 120  1016.156
 121  1084.148
 122  1275.99
 123  1211.69
 124  1171.679
 125  1167.366
 126  1169.064
 127  1229.033
 128  1150.336
 129  983.9432
 130  1142.459
 131  1188.557
 132  1196.141
 133  1148.066
 134  1087.721
 135  1160.891
 136  1159.414
 137  1136.968
 138  1136.092
 139  1143.234
 140  1277.113
 141  1292.153
 142  1225.524
 143  1118.084
 144  1113.287
 145  1189.627
 146  1127.855
 147  1070.542
 148  1177.772
 149  1183.01
 150  1095.972
 151  1150.192
 152  1239.146
 153  1179.767
 154  1170.388
 155  1209.201
 156  1235.249
 157  1193.837
 158  1203.851
 159  1200.247
 160  1105.354
 161  1067.527
 162  1066.482
 163  1067.677
 164  1043.98
 165  1104.758
 166  1074.259
 167  1212.241
 168  1267.708
 169  1174.678
 170  1194.982
 171  1231.972
 172  1234.348
 173  1248.414
 174  1235.565
 175  1218.766
 176  1188.741
 177  1204.885
 178  1204.095
 179  1234.559
 180  1164.218
 181  1153.956
 182  1114.217
 183  1078.279
 184  1042.76
 185  1069.073
 186  1079.238
 187  1160.666
 188  1296.839
 189  1245.099
 190  1125.398
 191  1112.363
 192  1140.812
 193  1175.271
 194  1143.328
 195  1180.838
 196  1159.562
 197  1121.009
 198  1096.592
 199  1149.408
 200  1153.075
 201  1195.324
 202  1110.514
 203  1200.168
 204  1288.783
 205  1197.523
 206  1212.115
 207  1220.634
 208  1236.489
 209  1173.226
 210  1172.148
 211  1290.874
 212  1205.722
 213  1202.279
 214  1219.157
 215  1154.881
 216  1175.556
 217  1265.825
 218  1203.119
 219  1171.167
 220  1250.212
 221  1231.003
 222  1244.946
 223  1232.732
 224  1203.385
 225  1186.81
 226  1331.152
 227  1286.843
 228  1193.96
 229  1296.442
 230  1338.215
 231  1279.719
 232  1287.349
 233  1289.877
 234  1280.493
 235  1241.339
 236  1351.948
 237  1385.203
 238  1244.804
 239  1349.661
 240  1261.54
 241  1178.639
 242  1271.224
 243  1285.268
 244  1084.693
 245  1001.57
 246  1096.689
 247  1147.145
 248  1135.841
 249  1144.696
 250  1177.286
 251  1229.529
 252  1268.385
 253  1224.942
 254  1199.316
 255  1246.283
 256  1194.157
 257  1151.177
 258  1011.776
 259  1078.221
 260  1223.524
 261  1368.465
 262  1336.141
 263  1176.743
 264  1220.62
 265  1115.353
 266  1065.046
 267  1154.976
 268  1182.066
 269  1121.308
 270  1196.568
 271  1283.001
 272  1343.739
 273  1404.116
 274  1324.212
 275  1252.2
 276  1300.953
 277  1284.739
 278  1222.67
 279  1270.761
 280  1289.24
 281  1213.795
 282  1195.505
 283  1290.017
 284  1301.227
 285  1255.499
 286  1329.581
 287  1369.057
 288  1411.377
 289  1338.36
 290  1354.681
 291  1380.172
 292  1244.763
 293  1236.333
 294  1285.542
 295  1240.185
 296  1274.902
 297  1280.645
 298  1205.142
 299  1235.699
 300  1303.034
 301  1291.007
 302  1298.818
 303  1404.443
 304  1335.859
 305  1266.424
 306  1307.26
 307  1303.289
 308  1306.267
 309  1292.222
 310  1162.113
 311  1077.327
 312  1154.12
 313  1191.706
 314  1266.914
 315  1219.871
 316  1185.498
 317  1292.201
 318  1296.21
 319  1230.789
 320  1200.949
 321  1227.165
 322  1314.376
 323  1231.429
 324  1229.719
 325  1304.499
 326  1281.225
 327  1164.038
 328  1163.501
 329  1246.634
 330  1193.735
 331  1242.432
 332  1288.547
 333  1292.047
 334  1231.46
 335  1210.883
 336  1228.878
 337  1262.403
 338  1314.15
 339  1255.35
 340  1313.764
 341  1194.659
 342  1216.867
 343  1127.191
 344  1122.822
 345  1217.478
 346  1257.932
 347  1317.384
 348  1253.824
 349  1176.624
 350  1199.994
 351  1334.575
 352  1224.216
 353  1272.587
 354  1387.657
 355  1319.96
 356  1322.167
 357  1263.205
 358  1320.197
 359  1333.193
 360  1153.044
 361  1212.513
 362  1239.848
 363  1231.387
 364  1198.162
 365  1240.558
 366  1256.403
 367  1291.617
 368  1285.111
 369  1277.246
 370  1410.103
 371  1336.496
 372  1396.578
 373  1334.97
 374  1338.202
 375  1268.154
 376  1272.879
 377  1219.26
 378  1190.693
 379  1233.247
 380  1316.199
 381  1264.146
 382  1329.555
 383  1273.404
 384  1373.726
 385  1490.992
 386  1409.302
 387  1394.622
 388  1430.034
 389  1320.979
 390  1272.686
 391  1326.323
 392  1361.929
 393  1275.514
 394  1255.813
 395  1243.344
 396  1313.253
 397  1358.321
 398  1386.668
 399  1289.22
 400  1375.199
 401  1350.44
 402  1298.068
 403  1346.636
 404  1358.92
 405  1304.69
 406  1299.514
 407  1495.612
 408  1367.801
 409  1244.565
 410  1264.199
 411  1445.161
 412  1389.481
 413  1363.293
 414  1304.617
 415  1329.558
 416  1384.128
 417  1357.402
 418  1344.83
 419  1401.065
 420  1408.787
 421  1382.925
 422  1318.243
 423  1442.511
 424  1369.483
 425  1409.759
 426  1349.374
 427  1251.293
 428  1347.932
 429  1327.097
 430  1301.394
 431  1265.538
 432  1423.618
 433  1412.72
 434  1325.411
 435  1418.477
 436  1410.369
 437  1431.285
 438  1326.099
 439  1372.111
 440  1336.899
 441  1390.076
 442  1377.233
 443  1344.646
 444  1406.658
 445  1401.914
 446  1412.953
 447  1374.377
 448  1403.323
 449  1345.161
 450  1340.555
 451  1407.332
 452  1405.657
 453  1451.576
 454  1467.493
 455  1381.727
 456  1328.264
 457  1428.914
 458  1437.351
 459  1389.533
 460  1334.603
 461  1336.171
 462  1390.906
 463  1310.841
 464  1305.605
 465  1346.056
 466  1335.354
 467  1349.157
 468  1349.089
 469  1387.209
 470  1451.677
 471  1521.416
 472  1455.978
 473  1395.695
 474  1285.719
 475  1311.066
 476  1281.41
 477  1279.34
 478  1268.221
 479  1306.366
 480  1406.857
 481  1318.071
 482  1353.899
 483  1324.244
 484  1345.682
 485  1481.316
 486  1577.79
 487  1513.036
 488  1422.348
 489  1392.194
 490  1478.767
 491  1499.299
 492  1527.284
 493  1534.934
 494  1469.008
 495  1459.586
 496  1415.208
 497  1415.675
 498  1353.16
 499  1304.812
 500  1329.749
 501  1459.385
 502  1495.786
 503  1460.724
 504  1605.28
 505  1558.679
 506  1488.222
 507  1548.165
 508  1615.041
 509  1826.812
 510  2123.121
 511  2292.407
