# Input file       =  1206100079.114177_cleaned.dat
# Candidate        =  PSR_0332+5434
# Telescope        =  AR
# Epoch_topo       =  58203.491448080749
# Epoch_bary       =  N/A
# T_sample         =  0.002
# Data Folded      =  7340032
# Data Avg         =  0.062309292785022
# Data StdDev      =  1.00024729230187 
# Profile Bins     =  512
# Profile Avg      =  893.187055047125 
# Profile StdDev   =  119.762645434942 
# Reduced chi-sqr  =  1.255
# Prob(Noise)      <  7.48e-05   (~3.8 sigma)
# P_topo (ms)      =  714.572697241123  +/- 0.000392
# P'_topo (s/s)    =  -0                +/- 2.07e-10
# P''_topo (s/s^2) =  0                 +/- 9.13e-14
# P_bary (ms)      =  N/A
# P'_bary (s/s)    =  N/A
# P''_bary (s/s^2) =  N/A
# P_orb (s)        =  N/A
# asin(i)/c (s)    =  N/A
# eccentricity     =  N/A
# w (rad)          =  N/A
# T_peri           =  N/A
######################################################
   0  1396.706
   1  1448.812
   2  1438.706
   3  1165.144
   4  1020.711
   5  934.186
   6  919.17
   7  923.8881
   8  924.1451
   9  946.0826
  10  875.3254
  11  871.437
  12  808.0472
  13  819.1788
  14  891.5495
  15  948.0685
  16  945.9905
  17  945.4999
  18  913.2673
  19  888.3368
  20  852.5649
  21  838.7142
  22  820.1229
  23  853.04
  24  873.1251
  25  888.0833
  26  896.1249
  27  864.1179
  28  908.7188
  29  828.936
  30  733.2983
  31  672.8283
  32  703.0184
  33  701.2102
  34  728.5193
  35  765.0342
  36  793.2358
  37  838.4016
  38  858.8436
  39  829.7313
  40  869.9798
  41  924.2577
  42  883.6378
  43  768.6542
  44  812.4061
  45  848.5932
  46  911.9492
  47  939.0755
  48  969.6294
  49  937.1779
  50  913.8474
  51  925.292
  52  955.3252
  53  902.678
  54  915.6415
  55  937.0827
  56  962.0336
  57  1027.642
  58  983.636
  59  1008.284
  60  1023.964
  61  1011.633
  62  960.4136
  63  869.1514
  64  960.4316
  65  955.9506
  66  960.3937
  67  1020.124
  68  984.4327
  69  936.1651
  70  1007.698
  71  1010.415
  72  918.9033
  73  918.6292
  74  894.0004
  75  920.0562
  76  959.1854
  77  950.5588
  78  879.5236
  79  907.3188
  80  811.0182
  81  823.9251
  82  908.7851
  83  952.9844
  84  931.3187
  85  875.3412
  86  815.0423
  87  1000.488
  88  980.1039
  89  960.1425
  90  943.2254
  91  937.1948
  92  879.7283
  93  836.3244
  94  880.1385
  95  899.929
  96  817.1555
  97  873.7507
  98  862.6333
  99  756.3553
 100  855.0083
 101  851.0653
 102  835.5013
 103  886.6857
 104  801.3152
 105  743.7238
 106  776.8785
 107  884.1232
 108  816.5049
 109  807.409
 110  768.0032
 111  844.3499
 112  848.9481
 113  885.5598
 114  911.7159
 115  844.0663
 116  779.4104
 117  780.9396
 118  861.5943
 119  915.8984
 120  952.2039
 121  930.2668
 122  868.6885
 123  934.7418
 124  908.7147
 125  876.5815
 126  966.0515
 127  858.6484
 128  918.9867
 129  898.4305
 130  919.3552
 131  841.8583
 132  834.633
 133  866.2054
 134  920.2772
 135  874.3445
 136  831.2065
 137  899.789
 138  920.5718
 139  895.5003
 140  928.854
 141  957.1051
 142  877.0659
 143  902.0872
 144  939.2103
 145  1005.511
 146  996.386
 147  1049.935
 148  1030.977
 149  1053.595
 150  1033.051
 151  958.775
 152  980.1002
 153  974.8803
 154  1003.484
 155  1107.598
 156  1079.644
 157  1097.396
 158  1021.619
 159  1003.371
 160  965.7151
 161  949.6992
 162  1034.021
 163  1074.732
 164  1021.327
 165  1020.426
 166  979.5757
 167  908.0581
 168  937.2828
 169  941.845
 170  939.6386
 171  892.8061
 172  847.5527
 173  943.4691
 174  870.7056
 175  847.6397
 176  863.5488
 177  904.9808
 178  934.6901
 179  905.1227
 180  951.8182
 181  870.5066
 182  770.5191
 183  783.7918
 184  801.8369
 185  865.741
 186  875.9954
 187  915.0467
 188  864.81
 189  948.3785
 190  840.4011
 191  899.022
 192  895.6014
 193  941.0012
 194  907.7343
 195  938.7919
 196  899.1227
 197  929.2849
 198  981.0997
 199  947.9598
 200  886.2754
 201  934.6926
 202  992.7401
 203  900.9871
 204  838.8666
 205  900.8723
 206  906.8415
 207  887.3862
 208  946.3065
 209  927.344
 210  1040.278
 211  1014.131
 212  898.3847
 213  908.9285
 214  883.8636
 215  881.0128
 216  905.2426
 217  922.1868
 218  960.1216
 219  1007.155
 220  1062.945
 221  970.3924
 222  900.8693
 223  856.1694
 224  824.392
 225  855.7219
 226  924.0176
 227  911.3513
 228  912.7604
 229  925.5641
 230  887.377
 231  895.6836
 232  911.9619
 233  934.8519
 234  864.9935
 235  776.613
 236  835.7956
 237  953.1741
 238  960.3181
 239  868.9528
 240  836.7091
 241  863.9579
 242  818.9109
 243  765.9529
 244  777.3506
 245  784.9432
 246  862.1004
 247  823.9604
 248  794.3327
 249  824.8322
 250  816.2266
 251  787.507
 252  818.1948
 253  856.2275
 254  804.1444
 255  767.1693
 256  807.748
 257  812.5304
 258  734.9426
 259  755.9208
 260  780.9391
 261  714.0919
 262  674.8768
 263  702.9929
 264  617.6729
 265  657.2729
 266  713.1931
 267  743.4431
 268  742.3146
 269  706.6841
 270  701.0762
 271  684.4922
 272  730.0678
 273  760.1111
 274  737.5049
 275  699.0732
 276  707.6797
 277  772.8355
 278  692.7982
 279  706.4292
 280  716.6139
 281  759.3628
 282  782.4819
 283  817.6097
 284  887.345
 285  810.5358
 286  870.8064
 287  858.3145
 288  859.3409
 289  965.5613
 290  884.9736
 291  804.9213
 292  831.8026
 293  896.3212
 294  941.8162
 295  898.9372
 296  939.7046
 297  976.6827
 298  966.7994
 299  932.5789
 300  885.4133
 301  924.0344
 302  948.5262
 303  948.8307
 304  924.7153
 305  886.5884
 306  929.9614
 307  947.1036
 308  863.2068
 309  898.5008
 310  881.571
 311  835.6454
 312  927.7039
 313  890.0875
 314  870.6227
 315  872.8673
 316  871.8544
 317  838.6456
 318  797.7681
 319  825.1281
 320  839.6334
 321  856.5217
 322  859.8242
 323  885.8734
 324  890.1405
 325  835.3886
 326  830.2395
 327  889.1042
 328  822.7302
 329  849.5093
 330  818.841
 331  830.1768
 332  815.4064
 333  804.7509
 334  864.9727
 335  822.806
 336  808.7584
 337  775.989
 338  703.4906
 339  734.0392
 340  841.0089
 341  836.3575
 342  832.7598
 343  804.823
 344  877.603
 345  903.7679
 346  837.0615
 347  857.9163
 348  841.5883
 349  824.4822
 350  815.7787
 351  914.0924
 352  973.8171
 353  969.478
 354  904.676
 355  873.41
 356  944.455
 357  923.0347
 358  1008.914
 359  991.1028
 360  985.2384
 361  951.3992
 362  899.6095
 363  909.7576
 364  875.8488
 365  946.4892
 366  859.9984
 367  876.7894
 368  897.8606
 369  929.6265
 370  904.3069
 371  938.7827
 372  973.1074
 373  911.9701
 374  925.8535
 375  988.7748
 376  1047.869
 377  1019.752
 378  1023.758
 379  975.1245
 380  907.0325
 381  845.7483
 382  894.1115
 383  878.1852
 384  957.9861
 385  942.2946
 386  903.5214
 387  901.1126
 388  894.4751
 389  813.614
 390  859.267
 391  916.1788
 392  925.2349
 393  905.8555
 394  886.8003
 395  897.0955
 396  797.2502
 397  741.6051
 398  755.2152
 399  760.9647
 400  647.5727
 401  706.2372
 402  796.7386
 403  791.5303
 404  837.5485
 405  835.9118
 406  777.097
 407  678.1817
 408  708.6459
 409  783.8107
 410  777.7785
 411  835.9085
 412  811.7977
 413  739.3172
 414  726.2495
 415  836.0239
 416  798.2106
 417  716.9276
 418  713.5482
 419  812.5209
 420  856.7368
 421  858.2258
 422  857.0682
 423  890.5153
 424  970.3046
 425  943.9318
 426  891.9228
 427  956.1475
 428  967.1971
 429  860.7993
 430  809.7321
 431  932.0962
 432  885.5153
 433  928.1313
 434  892.2728
 435  877.1751
 436  890.5212
 437  891.4847
 438  914.2904
 439  940.384
 440  902.5034
 441  837.4192
 442  902.5596
 443  904.4066
 444  886.8101
 445  848.652
 446  798.8903
 447  823.8249
 448  871.6115
 449  864.5377
 450  969.7731
 451  1020.054
 452  974.1896
 453  903.7529
 454  972.053
 455  1027.71
 456  967.8323
 457  986.4267
 458  1024.576
 459  927.2081
 460  1020.976
 461  1024.619
 462  944.1973
 463  917.8588
 464  975.2109
 465  949.7888
 466  925.2617
 467  970.5085
 468  1010.598
 469  939.4973
 470  859.6158
 471  919.6126
 472  1014.487
 473  1025.294
 474  1017.987
 475  1027.733
 476  992.9046
 477  893.8962
 478  868.7471
 479  826.4402
 480  874.6389
 481  931.1304
 482  896.6994
 483  958.2478
 484  898.1481
 485  923.0928
 486  943.2136
 487  954.7234
 488  961.5697
 489  989.3511
 490  942.7275
 491  841.511
 492  924.2479
 493  1001.071
 494  1019.151
 495  891.4382
 496  906.8469
 497  858.7846
 498  806.8459
 499  913.2382
 500  995.1367
 501  963.1064
 502  905.1998
 503  951.2214
 504  988.7233
 505  1037.422
 506  1048.402
 507  1067.44
 508  1039.844
 509  1093.897
 510  1219.578
 511  1340.305
