# Input file       =  1206085431.110653_cleaned.dat
# Candidate        =  PSR_0332+5434
# Telescope        =  AR
# Epoch_topo       =  58203.321911002924
# Epoch_bary       =  N/A
# T_sample         =  0.002
# Data Folded      =  7208960
# Data Avg         =  0.0822017009069322
# Data StdDev      =  1.00011145300281 
# Profile Bins     =  512
# Profile Avg      =  1157.3293741714  
# Profile StdDev   =  118.672400714984 
# Reduced chi-sqr  =  1.974
# Prob(Noise)      <  6.08e-35   (~12.3 sigma)
# P_topo (ms)      =  714.572769485894  +/- 7.86e-05
# P'_topo (s/s)    =  -0                +/- 4.23e-11
# P''_topo (s/s^2) =  0                 +/- 1.9e-14
# P_bary (ms)      =  N/A
# P'_bary (s/s)    =  N/A
# P''_bary (s/s^2) =  N/A
# P_orb (s)        =  N/A
# asin(i)/c (s)    =  N/A
# eccentricity     =  N/A
# w (rad)          =  N/A
# T_peri           =  N/A
######################################################
   0  1813.922
   1  1748.758
   2  1725.055
   3  1527.179
   4  1256.779
   5  1217.61
   6  1161.79
   7  1216
   8  1216.291
   9  1263.603
  10  1217.094
  11  1273.468
  12  1348.397
  13  1326.319
  14  1176.731
  15  1213.102
  16  1291.099
  17  1274.258
  18  1178.686
  19  1165.674
  20  1150.554
  21  1134.001
  22  1089.075
  23  1050.653
  24  1097.054
  25  1241.659
  26  1165.385
  27  1269.229
  28  1236.524
  29  1127.828
  30  1104.647
  31  1084.521
  32  1139.114
  33  1190.735
  34  1219.348
  35  1228.542
  36  1142.567
  37  1146.796
  38  1184.194
  39  1132.715
  40  1022.626
  41  1005.289
  42  1058.481
  43  1182.186
  44  1248.268
  45  1272.015
  46  1236.157
  47  1120.51
  48  1162.135
  49  1109.619
  50  1132.916
  51  1134.27
  52  1152.405
  53  1162.264
  54  1109.755
  55  1130.172
  56  1047.64
  57  1029.099
  58  1051.608
  59  1122.223
  60  1219.718
  61  1304.115
  62  1158.364
  63  1091.529
  64  1040.48
  65  1148.132
  66  1204.717
  67  1111.077
  68  1116.437
  69  1115.016
  70  1097.792
  71  1172.688
  72  1152.089
  73  1132.326
  74  1115.992
  75  1071.297
  76  1222.538
  77  1230.98
  78  1274.007
  79  1135.109
  80  1144.41
  81  1034.919
  82  975.8325
  83  1140.328
  84  1083.277
  85  1154.071
  86  1206.271
  87  1124.885
  88  1133.147
  89  1136.264
  90  1092.585
  91  1012.991
  92  1008.093
  93  1183.372
  94  1273.571
  95  1189.753
  96  1189.129
  97  1162.68
  98  1164.998
  99  1145.289
 100  1071.178
 101  1104.598
 102  1139.312
 103  1216.185
 104  1231.885
 105  1141.917
 106  1117.745
 107  1138.445
 108  1099.799
 109  1114.352
 110  1128.504
 111  1181.207
 112  1176.682
 113  1201.709
 114  1247.506
 115  1210.403
 116  1048.202
 117  1063.881
 118  1196.809
 119  1269.149
 120  1212.283
 121  1021.598
 122  1034.939
 123  1061.892
 124  1040.059
 125  1070.497
 126  1230.097
 127  1255.049
 128  1204.026
 129  1092.355
 130  981.6852
 131  1088.186
 132  1077.548
 133  1053.599
 134  1155.209
 135  1295.181
 136  1129.738
 137  1021.375
 138  1067.102
 139  1095.515
 140  1107.407
 141  1112.216
 142  1171.163
 143  1198.18
 144  1162.339
 145  1049.856
 146  979.4291
 147  1075.592
 148  1098.158
 149  1092.868
 150  1076.57
 151  1134.624
 152  1221.389
 153  1072.769
 154  1066.15
 155  1126.39
 156  1179.221
 157  1223.289
 158  1136.973
 159  1173.666
 160  1190.069
 161  1144.236
 162  1076.696
 163  1124.395
 164  1240.413
 165  1177.616
 166  1110.573
 167  1061.142
 168  1159.183
 169  1168.97
 170  1239.834
 171  1242.365
 172  1143.507
 173  1150.477
 174  1239.684
 175  1236.826
 176  1199.19
 177  1235.953
 178  1290.546
 179  1229.282
 180  1250.355
 181  1312.943
 182  1272.588
 183  1109.995
 184  1296.297
 185  1511.598
 186  1368.709
 187  1325.308
 188  1275.592
 189  1258.577
 190  1261.251
 191  1186.804
 192  1368.674
 193  1306.118
 194  1257.595
 195  1223.897
 196  1261.753
 197  1218.051
 198  1171.886
 199  1206.31
 200  1286.873
 201  1270.065
 202  1183.679
 203  1146.448
 204  1003.612
 205  976.9786
 206  1079.102
 207  1089.115
 208  1115.935
 209  1258.618
 210  1295.108
 211  1120.048
 212  1055.528
 213  1122.371
 214  1204.401
 215  1152.99
 216  1144.268
 217  1170.068
 218  1183.944
 219  1186.82
 220  1046.972
 221  1002.185
 222  985.3193
 223  965.3528
 224  1024.859
 225  1073.852
 226  1072.769
 227  1103.724
 228  1049.505
 229  1110.757
 230  1077.59
 231  963.2883
 232  978.8651
 233  937.1519
 234  1070.663
 235  1134.064
 236  1017.253
 237  991.8266
 238  893.1157
 239  959.4423
 240  949.7718
 241  1042.883
 242  1129.452
 243  1180.239
 244  1013.809
 245  886.1848
 246  920.7006
 247  950.583
 248  991.5704
 249  1037.925
 250  1040.59
 251  1096.707
 252  1113.059
 253  959.6155
 254  927.1216
 255  1018.326
 256  933.9839
 257  1004.367
 258  1064.802
 259  1115.403
 260  1199.663
 261  1220.765
 262  1106.985
 263  1105.437
 264  1080.572
 265  1128.142
 266  1226.296
 267  1149.777
 268  1172.987
 269  1201.624
 270  1156.359
 271  975.4587
 272  926.2865
 273  1033.975
 274  1196.864
 275  1279.011
 276  1255.227
 277  1225.899
 278  1157.735
 279  1200.708
 280  1198.04
 281  1151.938
 282  1158.694
 283  1222.323
 284  1355.074
 285  1283.55
 286  1191.178
 287  1191.984
 288  1286.308
 289  1214.459
 290  1166.597
 291  1202.54
 292  1255.848
 293  1193.366
 294  1252.806
 295  1214.46
 296  1206.445
 297  1276.983
 298  1199.053
 299  1217.44
 300  1303.732
 301  1347.684
 302  1304.487
 303  1166.049
 304  1215.743
 305  1231.925
 306  1139.304
 307  1190.167
 308  1255.847
 309  1401.523
 310  1228.779
 311  1219.069
 312  1228.813
 313  1314.302
 314  1235.653
 315  1243.026
 316  1272.413
 317  1348.382
 318  1309.772
 319  1226.056
 320  1195.426
 321  1207.936
 322  1180.944
 323  1197.471
 324  1345.507
 325  1367.569
 326  1344.79
 327  1313.099
 328  1182.643
 329  1216.434
 330  1304.271
 331  1248.992
 332  1291.125
 333  1242.704
 334  1206.187
 335  1122.746
 336  1090.559
 337  1125.298
 338  1110.589
 339  1089.531
 340  1247.637
 341  1234.129
 342  1266.481
 343  1176.924
 344  1183.745
 345  1138.714
 346  1145.789
 347  1126.854
 348  1080.589
 349  1091.959
 350  1234.702
 351  1129.999
 352  1022.681
 353  973.3505
 354  1064.597
 355  1012.732
 356  1059.748
 357  1126.008
 358  1177.985
 359  1078.253
 360  1206.533
 361  1139.948
 362  1072.686
 363  1028.893
 364  1201.966
 365  1245.466
 366  1135.206
 367  1234.218
 368  1093.402
 369  1053.725
 370  1141.827
 371  1145.357
 372  1147.995
 373  1222.119
 374  1289.194
 375  1204.793
 376  1121.843
 377  1162.573
 378  1235.402
 379  1229.17
 380  1194.169
 381  1143.682
 382  1157.37
 383  1174.867
 384  1243.629
 385  1279.032
 386  1188.515
 387  1179.848
 388  1197.828
 389  1190.748
 390  1159.564
 391  1145.249
 392  1220.232
 393  1271.952
 394  1157.139
 395  1139.073
 396  1170.304
 397  1187.338
 398  1194.002
 399  1199.243
 400  1342.701
 401  1320.607
 402  1187.372
 403  1140.176
 404  1111.537
 405  1202.283
 406  1381.348
 407  1412.041
 408  1302.705
 409  1210.205
 410  1194.596
 411  1156.16
 412  1086.597
 413  1100.933
 414  1232.555
 415  1228.05
 416  1225.047
 417  1235.288
 418  1116.121
 419  1116.821
 420  986.8285
 421  1054.985
 422  1154.797
 423  1110.759
 424  1217.015
 425  1223.902
 426  1119.439
 427  1000.596
 428  1017.949
 429  1124.086
 430  1055.631
 431  1167.209
 432  1140.097
 433  1100.391
 434  1096.153
 435  1031.533
 436  1022.924
 437  996.6011
 438  923.0787
 439  956.7817
 440  1090.989
 441  1130.644
 442  1059.774
 443  946.603
 444  975.5927
 445  927.3785
 446  997.7922
 447  1001.079
 448  1047.083
 449  1030.013
 450  1020.104
 451  865.9014
 452  870.363
 453  971.429
 454  1031.306
 455  1085.355
 456  1091.529
 457  1060.772
 458  1031.771
 459  985.7256
 460  1010.596
 461  1000.876
 462  911.0493
 463  934.4894
 464  1081.587
 465  1093.236
 466  958.5441
 467  963.0845
 468  1033.004
 469  947.8971
 470  913.0342
 471  962.2128
 472  928.9884
 473  1098.891
 474  1145.959
 475  1128.899
 476  1174.796
 477  1149.785
 478  1069.274
 479  1080.417
 480  1126.233
 481  1111.955
 482  1169.502
 483  1161.653
 484  1145.834
 485  1109.141
 486  1118.149
 487  1062.778
 488  1125.178
 489  1121.895
 490  1240.17
 491  1223.062
 492  1245.575
 493  1297.365
 494  1280.873
 495  1219.413
 496  1235.784
 497  1269.68
 498  1373.411
 499  1400.605
 500  1311.979
 501  1301.224
 502  1286.385
 503  1236.326
 504  1190.606
 505  1179.069
 506  1383.88
 507  1387.725
 508  1349.488
 509  1455.601
 510  1661.047
 511  1835.565
