# Input file       =  1206343968.106489_cleaned.dat
# Candidate        =  PSR_0332+5434
# Telescope        =  AR
# Epoch_topo       =  58206.314237343620
# Epoch_bary       =  N/A
# T_sample         =  0.002
# Data Folded      =  7208960
# Data Avg         =  0.103192273554746
# Data StdDev      =  1.00019266778634 
# Profile Bins     =  512
# Profile Avg      =  1452.93875784951 
# Profile StdDev   =  118.68203759426  
# Reduced chi-sqr  =  1.813
# Prob(Noise)      <  1.88e-26   (~10.6 sigma)
# P_topo (ms)      =  714.571173272173  +/- 0.000123
# P'_topo (s/s)    =  -0                +/- 6.6e-11
# P''_topo (s/s^2) =  0                 +/- 2.97e-14
# P_bary (ms)      =  N/A
# P'_bary (s/s)    =  N/A
# P''_bary (s/s^2) =  N/A
# P_orb (s)        =  N/A
# asin(i)/c (s)    =  N/A
# eccentricity     =  N/A
# w (rad)          =  N/A
# T_peri           =  N/A
######################################################
   0  2167.425
   1  1968.274
   2  1712.339
   3  1607.542
   4  1490.168
   5  1496.83
   6  1511.296
   7  1511.488
   8  1571.428
   9  1422.831
  10  1348.429
  11  1362.674
  12  1361.194
  13  1390.359
  14  1263.377
  15  1344.557
  16  1360.316
  17  1329.518
  18  1302.503
  19  1363.593
  20  1409.999
  21  1372.151
  22  1357.038
  23  1446.391
  24  1428.024
  25  1360.719
  26  1345.97
  27  1292.107
  28  1274.431
  29  1261.406
  30  1304.179
  31  1245.437
  32  1292.833
  33  1372.468
  34  1220.963
  35  1236.976
  36  1307.637
  37  1457.965
  38  1414.654
  39  1356.499
  40  1357.123
  41  1393.717
  42  1254.204
  43  1283.276
  44  1279.972
  45  1295.592
  46  1231.513
  47  1265.694
  48  1355.431
  49  1278.07
  50  1249.566
  51  1204.999
  52  1250.241
  53  1408.106
  54  1401.699
  55  1325.622
  56  1331.408
  57  1439.348
  58  1377.848
  59  1335.798
  60  1244.389
  61  1329.35
  62  1418.943
  63  1355.793
  64  1228.988
  65  1263.983
  66  1375.854
  67  1377.999
  68  1344.426
  69  1416.563
  70  1415.026
  71  1456.555
  72  1464.224
  73  1422.522
  74  1508.738
  75  1404.018
  76  1242.795
  77  1312.916
  78  1279.719
  79  1290.644
  80  1225.034
  81  1281.283
  82  1240.321
  83  1364.818
  84  1362.304
  85  1363.105
  86  1447.498
  87  1515.812
  88  1496.531
  89  1483.463
  90  1565.768
  91  1560.559
  92  1452.215
  93  1320.143
  94  1489.4
  95  1491.222
  96  1444.231
  97  1456.122
  98  1537.595
  99  1502.865
 100  1541.271
 101  1555.713
 102  1699.11
 103  1628.501
 104  1587.681
 105  1599.132
 106  1561.51
 107  1583.295
 108  1577.648
 109  1585.195
 110  1490.185
 111  1544.172
 112  1529.753
 113  1564.503
 114  1493.295
 115  1411.44
 116  1507.707
 117  1489.079
 118  1417.38
 119  1509.759
 120  1590.778
 121  1623.673
 122  1636.047
 123  1592.708
 124  1502.824
 125  1475.595
 126  1460.161
 127  1553.077
 128  1516.85
 129  1494.125
 130  1450.436
 131  1422.85
 132  1496.123
 133  1583.84
 134  1451.652
 135  1388.882
 136  1465.775
 137  1502.996
 138  1542.166
 139  1469.645
 140  1522.187
 141  1491.999
 142  1456.509
 143  1342.164
 144  1353.708
 145  1363.57
 146  1414.48
 147  1434.98
 148  1385.269
 149  1364.433
 150  1271.688
 151  1358.1
 152  1482.436
 153  1335.081
 154  1369.878
 155  1409.799
 156  1378.58
 157  1443.446
 158  1414.297
 159  1376.335
 160  1369.176
 161  1344.4
 162  1317.142
 163  1365.151
 164  1339.523
 165  1424.57
 166  1351.634
 167  1258.975
 168  1182.528
 169  1325.804
 170  1508.979
 171  1430.477
 172  1423.714
 173  1570.078
 174  1524.93
 175  1362.221
 176  1336.406
 177  1314.346
 178  1365.362
 179  1349.23
 180  1190.358
 181  1353.606
 182  1425.861
 183  1307.52
 184  1305.137
 185  1338.14
 186  1364.285
 187  1390.719
 188  1427.798
 189  1472.295
 190  1415.193
 191  1350.047
 192  1330.872
 193  1429.295
 194  1334.664
 195  1317.283
 196  1386.253
 197  1337.897
 198  1452.808
 199  1477.045
 200  1428.052
 201  1456.254
 202  1456.932
 203  1454.303
 204  1361.133
 205  1450.777
 206  1438.054
 207  1525.555
 208  1522.242
 209  1481.619
 210  1477.822
 211  1548.565
 212  1523.254
 213  1500.273
 214  1473.191
 215  1382.273
 216  1370.485
 217  1437.803
 218  1472.204
 219  1500.69
 220  1491.187
 221  1512.349
 222  1505.47
 223  1450.99
 224  1478.324
 225  1380.531
 226  1335.739
 227  1384.053
 228  1422.852
 229  1422.06
 230  1425.947
 231  1403.097
 232  1443.074
 233  1499.071
 234  1443.268
 235  1474.435
 236  1570.391
 237  1636.016
 238  1585.308
 239  1601.252
 240  1609.054
 241  1526.633
 242  1490.736
 243  1474.805
 244  1535.024
 245  1525.491
 246  1443.933
 247  1401.772
 248  1490.392
 249  1462.137
 250  1437.657
 251  1529.255
 252  1595.363
 253  1559.727
 254  1516.975
 255  1526.331
 256  1527.951
 257  1510.293
 258  1565.361
 259  1601.54
 260  1465.022
 261  1471.102
 262  1415.372
 263  1423.973
 264  1585.171
 265  1588.268
 266  1488.115
 267  1538.505
 268  1610.557
 269  1680.318
 270  1672.212
 271  1605.961
 272  1712.096
 273  1624.62
 274  1587.406
 275  1497.618
 276  1523.537
 277  1502.624
 278  1504.071
 279  1445.374
 280  1590.191
 281  1625.785
 282  1492.453
 283  1409.902
 284  1514.44
 285  1574.294
 286  1622.807
 287  1610.578
 288  1597.944
 289  1479.261
 290  1412.284
 291  1476.794
 292  1569.923
 293  1624.764
 294  1620.004
 295  1625.833
 296  1620.713
 297  1673.358
 298  1601.746
 299  1499.672
 300  1513.393
 301  1591.876
 302  1598.151
 303  1581.176
 304  1611.584
 305  1609.751
 306  1613.037
 307  1557.017
 308  1495.416
 309  1508.04
 310  1545.206
 311  1606.855
 312  1536.39
 313  1544.308
 314  1570.775
 315  1557.671
 316  1501.094
 317  1483.488
 318  1490.601
 319  1520.295
 320  1544.155
 321  1636.608
 322  1648.673
 323  1548.1
 324  1563.652
 325  1472.38
 326  1565.744
 327  1429.83
 328  1426.112
 329  1477.215
 330  1496.355
 331  1400.325
 332  1327.577
 333  1411.472
 334  1559.198
 335  1475.795
 336  1524.245
 337  1627.632
 338  1549.288
 339  1435.032
 340  1405.755
 341  1383.785
 342  1479.814
 343  1465.773
 344  1338.485
 345  1299.593
 346  1315.237
 347  1329.203
 348  1300.772
 349  1289.916
 350  1312.757
 351  1448.333
 352  1439.231
 353  1418.874
 354  1484.527
 355  1527.799
 356  1464.281
 357  1432.419
 358  1276.409
 359  1241.963
 360  1330.197
 361  1298.888
 362  1229.648
 363  1357.126
 364  1364.337
 365  1357.594
 366  1353.184
 367  1447.088
 368  1481.11
 369  1357.593
 370  1365.441
 371  1419.237
 372  1405.934
 373  1436.933
 374  1368.959
 375  1319.162
 376  1392.889
 377  1544.685
 378  1389.715
 379  1458.329
 380  1522.489
 381  1496.536
 382  1426.833
 383  1394.641
 384  1506.313
 385  1580.996
 386  1562.309
 387  1555.501
 388  1563.716
 389  1515.617
 390  1420.575
 391  1284.608
 392  1410.761
 393  1405.761
 394  1357.689
 395  1370.867
 396  1324.941
 397  1317.995
 398  1321.082
 399  1382.888
 400  1488.358
 401  1517.819
 402  1586.08
 403  1518.322
 404  1572.195
 405  1552.109
 406  1458.759
 407  1455.839
 408  1442.977
 409  1393.297
 410  1399.808
 411  1446.663
 412  1501.875
 413  1478.416
 414  1445.708
 415  1466.683
 416  1569.687
 417  1637.837
 418  1594.037
 419  1491.61
 420  1399.615
 421  1472.183
 422  1487.04
 423  1499.01
 424  1503.648
 425  1472.419
 426  1394.628
 427  1494.35
 428  1500.344
 429  1578.533
 430  1550.812
 431  1497.126
 432  1475.359
 433  1516.272
 434  1514.447
 435  1498.271
 436  1553.178
 437  1555.764
 438  1600.661
 439  1574.291
 440  1471.836
 441  1451.927
 442  1450.225
 443  1455.284
 444  1395.108
 445  1393.604
 446  1494.742
 447  1450.56
 448  1377.701
 449  1428.159
 450  1510.189
 451  1506.29
 452  1510.333
 453  1585.367
 454  1598.941
 455  1516.504
 456  1519.82
 457  1379.554
 458  1378.665
 459  1377.487
 460  1310.479
 461  1376.76
 462  1493.251
 463  1438.096
 464  1377.169
 465  1467.359
 466  1504.093
 467  1441.896
 468  1497.76
 469  1492.594
 470  1549.975
 471  1512.772
 472  1486.621
 473  1387.111
 474  1278.177
 475  1302.423
 476  1427.882
 477  1392.206
 478  1368.465
 479  1345.276
 480  1302.693
 481  1354.864
 482  1373.422
 483  1425.332
 484  1352.767
 485  1356.598
 486  1428.632
 487  1435.582
 488  1388.057
 489  1351.421
 490  1334.439
 491  1391.505
 492  1376.316
 493  1378.238
 494  1387.7
 495  1406.747
 496  1420.268
 497  1444.109
 498  1290.569
 499  1404.265
 500  1496.296
 501  1499.961
 502  1538.958
 503  1524.298
 504  1481.808
 505  1484.04
 506  1440.47
 507  1423.121
 508  1533.741
 509  1767.649
 510  2003.402
 511  2141.948
