# Input file       =  1207808803.09915_cleaned.dat
# Candidate        =  PSR_0332+5434
# Telescope        =  AR
# Epoch_topo       =  58223.268346054974
# Epoch_bary       =  N/A
# T_sample         =  0.002
# Data Folded      =  7208960
# Data Avg         =  0.0682793102658473
# Data StdDev      =  1.00012080931638 
# Profile Bins     =  512
# Profile Avg      =  961.356824845219 
# Profile StdDev   =  118.67351092744  
# Reduced chi-sqr  =  2.714
# Prob(Noise)      <  5.76e-82   (~19.1 sigma)
# P_topo (ms)      =  714.559944854854  +/- 0.000177
# P'_topo (s/s)    =  -0                +/- 9.51e-11
# P''_topo (s/s^2) =  0                 +/- 4.28e-14
# P_bary (ms)      =  N/A
# P'_bary (s/s)    =  N/A
# P''_bary (s/s^2) =  N/A
# P_orb (s)        =  N/A
# asin(i)/c (s)    =  N/A
# eccentricity     =  N/A
# w (rad)          =  N/A
# T_peri           =  N/A
######################################################
   0  1876.341
   1  1879.875
   2  1670.462
   3  1278.12
   4  1177.912
   5  999.9396
   6  970.3452
   7  1152.908
   8  1188.816
   9  1124.698
  10  1026.148
  11  1003.629
  12  959.5743
  13  921.6691
  14  949.0812
  15  976.6915
  16  947.5284
  17  986.8868
  18  946.9824
  19  1001.388
  20  914.4472
  21  954.4757
  22  936.502
  23  1006.906
  24  1002.886
  25  1001.98
  26  1027.449
  27  1006.433
  28  868.8564
  29  859.8018
  30  824.4642
  31  837.5063
  32  781.8896
  33  811.2787
  34  757.2511
  35  809.9434
  36  864.9263
  37  856.2349
  38  745.021
  39  852.4436
  40  1068.835
  41  975.8303
  42  948.6613
  43  985.5132
  44  921.6167
  45  832.0287
  46  889.7594
  47  785.4124
  48  733.3944
  49  757.866
  50  889.3109
  51  900.5177
  52  875.7329
  53  915.2352
  54  782.454
  55  928.4708
  56  947.9411
  57  953.7555
  58  898.0255
  59  962.7327
  60  885.9338
  61  745.978
  62  684.1511
  63  708.8577
  64  736.703
  65  730.3406
  66  830.9965
  67  819.8317
  68  776.1763
  69  798.1877
  70  768.1557
  71  684.4009
  72  803.4877
  73  841.1083
  74  915.2311
  75  824.5513
  76  939.1183
  77  897.7714
  78  882.3837
  79  854.0773
  80  831.9573
  81  825.0172
  82  893.4183
  83  951.8655
  84  993.292
  85  780.2945
  86  887.7314
  87  953.3587
  88  1078.141
  89  1076.635
  90  1140.761
  91  1147.158
  92  1116.555
  93  1056.005
  94  1014.466
  95  1014.582
  96  967.0623
  97  852.7413
  98  895.688
  99  1033.488
 100  1089.592
 101  957.5219
 102  956.4401
 103  931.2296
 104  858.1057
 105  865.8922
 106  995.6945
 107  1112.74
 108  1119.228
 109  994.4097
 110  1060.77
 111  1004.481
 112  963.5088
 113  896.244
 114  890.1551
 115  991.6129
 116  909.7855
 117  936.4672
 118  940.9324
 119  904.8818
 120  1078.714
 121  1078.414
 122  1066.676
 123  1028.875
 124  1083.832
 125  1070.667
 126  1096.472
 127  1121.345
 128  1006.705
 129  962.5304
 130  1115.835
 131  1041.107
 132  1057.389
 133  965.5701
 134  954.8678
 135  925.0224
 136  1000.872
 137  1092.182
 138  1024.871
 139  892.9606
 140  1039.867
 141  1013.054
 142  912.2625
 143  931.9002
 144  815.0459
 145  802.9539
 146  938.6002
 147  946.5226
 148  950.2286
 149  884.2084
 150  942.3456
 151  873.2576
 152  813.9978
 153  938.9736
 154  860.1348
 155  1032.765
 156  1027.177
 157  996.6424
 158  993.9969
 159  973.2164
 160  905.0294
 161  1023.065
 162  1004.442
 163  861.8904
 164  840.2246
 165  837.4424
 166  894.207
 167  824.9408
 168  796.6099
 169  949.1123
 170  877.876
 171  831.387
 172  886.5506
 173  966.2433
 174  1042.341
 175  1053.924
 176  919.9453
 177  892.3972
 178  899.6042
 179  920.4031
 180  951.9985
 181  924.3561
 182  994.8572
 183  1067.82
 184  918.2689
 185  878.3715
 186  882.7168
 187  849.5607
 188  881.7199
 189  1002.13
 190  893.4803
 191  934.5258
 192  975.7076
 193  1037.462
 194  907.1878
 195  810.2084
 196  838.9547
 197  896.1541
 198  943.7935
 199  1023.123
 200  974.2253
 201  976.9493
 202  971.6091
 203  903.4518
 204  942.7621
 205  1089.968
 206  1209.904
 207  1172.992
 208  1131.809
 209  1137.772
 210  1009.077
 211  1048.162
 212  1092.47
 213  1046.394
 214  1068.714
 215  1073.986
 216  973.8639
 217  1012.042
 218  1004.666
 219  906.8026
 220  1069.427
 221  1192.612
 222  1129.041
 223  1173.077
 224  1189.346
 225  1073.567
 226  1036.03
 227  1148.079
 228  1120.606
 229  1123.357
 230  1147.234
 231  1104.639
 232  1054.244
 233  1028.498
 234  1030.767
 235  1038.722
 236  1037.892
 237  1204.93
 238  1157.063
 239  1263.808
 240  1315.542
 241  1248.783
 242  1205.203
 243  1109.287
 244  1084.624
 245  1117.951
 246  1124.677
 247  1095.447
 248  1038.889
 249  1133.016
 250  1201.017
 251  1127.2
 252  974.3102
 253  1038.307
 254  1067.779
 255  1128.016
 256  1223.202
 257  1182.698
 258  1153.893
 259  1096.482
 260  1110.594
 261  1093.271
 262  1075.901
 263  1034.694
 264  1027.097
 265  1060.069
 266  1216.677
 267  1160.036
 268  1074.693
 269  1140.797
 270  1124.371
 271  1082.274
 272  1127.811
 273  1166.397
 274  1032.667
 275  1013.479
 276  1083.486
 277  1040.943
 278  924.3786
 279  1029.654
 280  1131.111
 281  1030.915
 282  989.9398
 283  932.1896
 284  970.3159
 285  975.5427
 286  939.9344
 287  1007.055
 288  1012.128
 289  999.295
 290  982.3104
 291  902.0365
 292  930.0732
 293  982.2983
 294  882.4128
 295  987.9008
 296  1039.639
 297  913.6906
 298  1015.403
 299  1013.356
 300  1054.616
 301  1039.579
 302  975.415
 303  907.742
 304  985.2689
 305  969.8303
 306  981.9878
 307  1132.221
 308  981.3791
 309  886.7914
 310  916.3063
 311  896.5352
 312  975.3364
 313  1057.346
 314  1000.46
 315  940.7664
 316  1082.987
 317  956.3845
 318  918.2918
 319  961.5609
 320  923.7132
 321  973.3223
 322  1015.653
 323  1072.845
 324  968.2963
 325  965.5558
 326  1083.827
 327  1057.143
 328  988.2444
 329  923.7054
 330  1053.211
 331  1045.832
 332  938.7994
 333  882.7913
 334  910.9583
 335  992.7293
 336  1025.694
 337  1141.513
 338  1046.537
 339  994.104
 340  1002.208
 341  976.5645
 342  946.0439
 343  908.0795
 344  846.5059
 345  876.3118
 346  872.7784
 347  944.4617
 348  884.3254
 349  897.3109
 350  903.8804
 351  794.7921
 352  922.1694
 353  1054.831
 354  1013.246
 355  995.8431
 356  979.5926
 357  1011.106
 358  901.1786
 359  936.1268
 360  1036.437
 361  954.3005
 362  971.0717
 363  951.36
 364  740.7284
 365  753.7672
 366  833.6075
 367  892.025
 368  947.4041
 369  952.9341
 370  946.324
 371  970.5619
 372  989.2153
 373  980.6691
 374  1003.602
 375  1046.651
 376  881.8341
 377  866.2001
 378  888.1483
 379  926.2465
 380  999.8311
 381  778.5946
 382  859.3687
 383  839.9047
 384  936.1355
 385  1164.895
 386  1123.622
 387  965.8915
 388  927.5244
 389  929.3989
 390  1067.272
 391  990.9329
 392  968.4034
 393  961.022
 394  880.1165
 395  947.5683
 396  828.812
 397  870.9249
 398  950.5486
 399  919.3752
 400  907.0527
 401  1022.439
 402  1071.652
 403  1067.104
 404  1115.154
 405  1078.275
 406  971.3998
 407  1084.863
 408  1097.868
 409  989.7082
 410  921.7151
 411  1061.573
 412  1021.737
 413  988.4406
 414  964.3235
 415  959.569
 416  989.4594
 417  873.6435
 418  951.9979
 419  1009.332
 420  1077.297
 421  1092.328
 422  1067.23
 423  997.6097
 424  913.8651
 425  966.8887
 426  937.0239
 427  803.6781
 428  822.5605
 429  855.9384
 430  830.1659
 431  860.4086
 432  735.9721
 433  652.5096
 434  788.3724
 435  895.9373
 436  865.8243
 437  780.8817
 438  755.7446
 439  846.2492
 440  895.8641
 441  882.7581
 442  817.9832
 443  804.853
 444  833.1359
 445  876.3441
 446  824.4976
 447  831.894
 448  932.5212
 449  849.163
 450  756.1518
 451  832.6377
 452  874.4869
 453  824.9891
 454  805.3483
 455  788.1017
 456  835.6624
 457  754.5005
 458  728.372
 459  685.2253
 460  585.3096
 461  701.1293
 462  712.2302
 463  730.4562
 464  637.2801
 465  861.5118
 466  754.933
 467  722.9109
 468  903.3676
 469  856.9981
 470  875.9887
 471  845.7922
 472  793.1674
 473  761.0514
 474  871.8958
 475  905.5414
 476  826.393
 477  769.3723
 478  723.5621
 479  723.4615
 480  780.5401
 481  848.3676
 482  751.7232
 483  727.348
 484  791.8771
 485  797.3293
 486  947.2617
 487  903.3848
 488  834.4487
 489  843.7764
 490  875.8214
 491  837.9587
 492  741.4479
 493  738.5992
 494  865.2977
 495  920.088
 496  781.77
 497  812.1986
 498  852.4011
 499  792.2081
 500  918.8043
 501  860.2552
 502  1032.984
 503  1049.864
 504  1099.573
 505  1002.168
 506  897.5563
 507  968.9733
 508  1158.589
 509  1224.333
 510  1439.777
 511  1775.527
