# Input file       =  1207659017.11272_cleaned.dat
# Candidate        =  PSR_0332+5434
# Telescope        =  AR
# Epoch_topo       =  58221.534711952780
# Epoch_bary       =  N/A
# T_sample         =  0.002
# Data Folded      =  7340032
# Data Avg         =  0.0681109203656752
# Data StdDev      =  1.0001312997719  
# Profile Bins     =  512
# Profile Avg      =  976.482033176999 
# Profile StdDev   =  119.748757297131 
# Reduced chi-sqr  =  0.885
# Prob(Noise)      <  0.971   (~0.0 sigma)
# P_topo (ms)      =  714.561433715986  +/- 0.000494
# P'_topo (s/s)    =  -0                +/- 2.6e-10
# P''_topo (s/s^2) =  0                 +/- 1.15e-13
# P_bary (ms)      =  N/A
# P'_bary (s/s)    =  N/A
# P''_bary (s/s^2) =  N/A
# P_orb (s)        =  N/A
# asin(i)/c (s)    =  N/A
# eccentricity     =  N/A
# w (rad)          =  N/A
# T_peri           =  N/A
######################################################
   0  1366.36
   1  1280.681
   2  1165.489
   3  1021.846
   4  977.5597
   5  935.7128
   6  907.7769
   7  897.3325
   8  900.9235
   9  856.6547
  10  873.924
  11  951.4088
  12  961.2706
  13  1025.091
  14  980.5607
  15  1003.719
  16  980.8597
  17  888.0888
  18  972.1859
  19  984.0067
  20  969.4641
  21  935.3351
  22  1007.063
  23  1022.714
  24  1009.409
  25  1008.018
  26  973.6909
  27  980.8282
  28  920.9392
  29  978.5552
  30  1030.372
  31  960.9062
  32  922.0721
  33  962.0446
  34  981.0696
  35  967.6253
  36  938.3702
  37  1013.029
  38  947.1954
  39  927.0455
  40  926.8887
  41  989.4089
  42  987.1509
  43  931.2226
  44  939.8115
  45  927.4276
  46  984.0073
  47  935.0906
  48  953.4137
  49  908.8232
  50  913.1827
  51  928.9348
  52  913.0787
  53  898.5294
  54  860.5562
  55  905.2443
  56  893.9055
  57  885.7109
  58  887.5047
  59  861.2734
  60  924.5266
  61  899.5812
  62  906.8009
  63  912.5314
  64  886.4869
  65  948.2125
  66  984.1138
  67  902.673
  68  990.7086
  69  1066.024
  70  1011.873
  71  1009.215
  72  968.7994
  73  893.7803
  74  927.4338
  75  974.5375
  76  1025.261
  77  971.7012
  78  985.194
  79  986.4898
  80  1006.227
  81  914.0881
  82  969.632
  83  972.5102
  84  914.2072
  85  996.1416
  86  956.022
  87  1014.503
  88  1031.122
  89  1038.324
  90  1014.529
  91  951.8229
  92  1065.208
  93  1064.141
  94  990.9976
  95  1029.472
  96  1134.144
  97  1049.886
  98  1065.626
  99  1142.909
 100  1104.553
 101  1052.479
 102  1027.094
 103  1074.186
 104  1106.219
 105  1103.03
 106  1141.823
 107  1246.557
 108  1131.483
 109  1076.879
 110  1142.33
 111  1122.125
 112  1061.053
 113  1131.422
 114  1060.503
 115  1029.49
 116  1068.403
 117  1073.146
 118  1073.96
 119  1080.432
 120  1026.683
 121  1021.536
 122  1006.46
 123  1045.783
 124  1049.074
 125  1043.358
 126  1126.677
 127  1024.102
 128  943.775
 129  881.7764
 130  867.2687
 131  968.813
 132  1000.956
 133  957.4742
 134  865.2136
 135  942.0933
 136  1002.768
 137  1007.077
 138  980.126
 139  989.968
 140  898.322
 141  859.175
 142  980.8384
 143  978.3906
 144  936.415
 145  922.8142
 146  908.6633
 147  954.1845
 148  899.4321
 149  896.566
 150  966.6141
 151  1007.917
 152  989.1841
 153  932.8553
 154  910.5854
 155  900.3522
 156  958.4745
 157  911.4963
 158  894.419
 159  867.2428
 160  925.2736
 161  916.1371
 162  887.9385
 163  1018.089
 164  1021.643
 165  936.3193
 166  909.6936
 167  928.5598
 168  961.5645
 169  935.5024
 170  967.6148
 171  995.249
 172  1017.906
 173  935.0752
 174  971.6509
 175  1027.111
 176  1082.932
 177  1101.093
 178  1033.052
 179  964.7092
 180  891.5458
 181  960.033
 182  971.1544
 183  960.5353
 184  1004.399
 185  981.7738
 186  1010.518
 187  987.7222
 188  1007.508
 189  982.7814
 190  914.357
 191  968.7401
 192  974.6058
 193  977.9677
 194  990.7749
 195  974.8643
 196  1013.569
 197  957.6782
 198  982.4558
 199  993.081
 200  987.4894
 201  954.4712
 202  999.7977
 203  966.6346
 204  978.6116
 205  1047.899
 206  1034.217
 207  1002.173
 208  1000.168
 209  1039.435
 210  957.9854
 211  974.4385
 212  947.2988
 213  939.7926
 214  956.6005
 215  898.9474
 216  989.6262
 217  951.0337
 218  979.2195
 219  999.126
 220  967.3531
 221  1011.01
 222  1002.321
 223  972.2457
 224  955.9447
 225  926.5228
 226  961.6604
 227  914.4459
 228  889.5535
 229  901.3169
 230  1008.277
 231  961.972
 232  904.9262
 233  900.7533
 234  924.7203
 235  910.6298
 236  991.554
 237  976.8104
 238  980.8115
 239  1022.623
 240  897.7073
 241  932.752
 242  992.5258
 243  984.9587
 244  1031.131
 245  985.0458
 246  1032.089
 247  1008.087
 248  970.8233
 249  963.959
 250  937.6018
 251  943.0392
 252  975.0297
 253  995.9561
 254  1005.509
 255  929.1097
 256  791.9133
 257  845.2475
 258  954.6134
 259  952.6126
 260  887.0687
 261  925.0009
 262  892.9308
 263  947.0835
 264  911.7657
 265  914.3549
 266  931.6724
 267  896.8432
 268  861.8901
 269  912.3165
 270  923.1587
 271  917.2145
 272  894.774
 273  823.4651
 274  830.34
 275  903.9066
 276  862.606
 277  894.9426
 278  944.8145
 279  859.3452
 280  853.2239
 281  866.3625
 282  855.5293
 283  815.4798
 284  823.9229
 285  799.7566
 286  855.2052
 287  959.8825
 288  914.8704
 289  869.4569
 290  922.4165
 291  854.614
 292  796.1598
 293  883.2661
 294  911.7404
 295  958.8241
 296  911.1976
 297  888.1899
 298  902.2957
 299  883.1214
 300  878.5519
 301  859.5092
 302  868.5709
 303  929.3212
 304  971.437
 305  977.1266
 306  898.6104
 307  927.2985
 308  959.7551
 309  948.7321
 310  927.7236
 311  929.7579
 312  970.978
 313  1001.407
 314  996.2448
 315  1045.127
 316  1052.896
 317  1050.132
 318  999.5179
 319  966.6921
 320  1025.194
 321  1052.511
 322  1017.942
 323  1076.449
 324  1063.309
 325  1020.476
 326  1000.164
 327  1006.635
 328  945.6556
 329  981.2258
 330  905.3931
 331  922.364
 332  872.1017
 333  891.7891
 334  964.3453
 335  965.9856
 336  981.0306
 337  1018.669
 338  970.293
 339  1001.661
 340  998.4312
 341  911.6148
 342  850.9177
 343  870.8914
 344  924.1861
 345  922.5274
 346  1026.362
 347  945.458
 348  881.5147
 349  903.4687
 350  911.3544
 351  957.2684
 352  1004.176
 353  998.5054
 354  936.8081
 355  927.4396
 356  960.8719
 357  930.3109
 358  912.7115
 359  940.2587
 360  1020.612
 361  990.6235
 362  997.5578
 363  1022.109
 364  1017.56
 365  941.3237
 366  946.3801
 367  924.389
 368  972.3928
 369  985.1964
 370  1003.272
 371  941.6674
 372  1001.216
 373  987.3354
 374  1014.922
 375  957.8422
 376  957.942
 377  911.5494
 378  934.3763
 379  986.7244
 380  946.2613
 381  951.1765
 382  1018.724
 383  997.5555
 384  979.3657
 385  995.6773
 386  1015.197
 387  1087.774
 388  1030.622
 389  1074.873
 390  1103.855
 391  1090.613
 392  1150.625
 393  1096.305
 394  1057.688
 395  1047.217
 396  1012.281
 397  1126.916
 398  1083.769
 399  1080.433
 400  1138.572
 401  1088.232
 402  1044.351
 403  1112.029
 404  1094.156
 405  988.3054
 406  1042.666
 407  1060.403
 408  1045.519
 409  1015.118
 410  975.0758
 411  1024.926
 412  962.4347
 413  911.3775
 414  956.1758
 415  979.4978
 416  925.1277
 417  983.3268
 418  984.3048
 419  929.0454
 420  959.2786
 421  977.4559
 422  978.3765
 423  954.5725
 424  962.1331
 425  1029.381
 426  938.3892
 427  960.8099
 428  989.1101
 429  1015.016
 430  1060.936
 431  973.5894
 432  1015.765
 433  1066.045
 434  1071.419
 435  1079.782
 436  1028.684
 437  1029.248
 438  1088.573
 439  976.4044
 440  954.5128
 441  1018.449
 442  972.3793
 443  943.5349
 444  1012.368
 445  1092.368
 446  1086.136
 447  1094.187
 448  1079.684
 449  1020.945
 450  1027.752
 451  1008.541
 452  987.9772
 453  1045.761
 454  1062.084
 455  1024.285
 456  1013.376
 457  1033.025
 458  1031.238
 459  987.788
 460  994.719
 461  1024.996
 462  1019.354
 463  1039.015
 464  1087.599
 465  963.9057
 466  972.922
 467  1123.033
 468  1102.149
 469  1128.11
 470  1216.89
 471  1154.6
 472  1080.002
 473  1039.983
 474  1050.489
 475  1094.829
 476  1074.214
 477  971.993
 478  1007.222
 479  1055.983
 480  1062.205
 481  991.7477
 482  875.7888
 483  811.291
 484  889.4886
 485  933.5741
 486  918.6207
 487  876.0958
 488  885.9642
 489  794.427
 490  839.2343
 491  940.3089
 492  877.8228
 493  892.9489
 494  851.6235
 495  902.3878
 496  853.6006
 497  725.5333
 498  777.157
 499  836.5902
 500  858.2065
 501  917.9429
 502  864.5095
 503  919.9775
 504  950.424
 505  888.325
 506  950.7386
 507  943.7602
 508  1007.788
 509  1207.452
 510  1370.87
 511  1536.582
