# Input file       =  1207659017.11272_cleaned.dat
# Candidate        =  PSR_0332+5434
# Telescope        =  AR
# Epoch_topo       =  58221.534711952780
# Epoch_bary       =  N/A
# T_sample         =  0.002
# Data Folded      =  7340032
# Data Avg         =  0.0681109203656752
# Data StdDev      =  1.0001312997719  
# Profile Bins     =  512
# Profile Avg      =  976.482033185154 
# Profile StdDev   =  119.748757297131 
# Reduced chi-sqr  =  0.888
# Prob(Noise)      <  0.967   (~0.0 sigma)
# P_topo (ms)      =  714.5614336436    +/- 0.000494
# P'_topo (s/s)    =  -0                +/- 2.6e-10
# P''_topo (s/s^2) =  0                 +/- 1.15e-13
# P_bary (ms)      =  N/A
# P'_bary (s/s)    =  N/A
# P''_bary (s/s^2) =  N/A
# P_orb (s)        =  N/A
# asin(i)/c (s)    =  N/A
# eccentricity     =  N/A
# w (rad)          =  N/A
# T_peri           =  N/A
######################################################
   0  1489.549
   1  1306.28
   2  1250.425
   3  1090.722
   4  990.3343
   5  967.061
   6  902.6588
   7  912.3215
   8  897.1415
   9  895.4601
  10  843.8231
  11  915.8546
  12  948.1335
  13  1004.197
  14  999.2352
  15  985.8597
  16  1010.673
  17  933.4763
  18  911.1908
  19  984.7351
  20  985.3962
  21  952.8666
  22  954.2389
  23  1028.356
  24  1005.916
  25  1017.62
  26  982.3514
  27  982.3011
  28  960.4772
  29  924.6144
  30  1025.542
  31  1003.249
  32  925.9242
  33  943.8724
  34  970.1473
  35  1002.013
  36  923.5292
  37  981.3676
  38  982.2104
  39  939.4495
  40  913.9419
  41  962.0375
  42  998.9108
  43  965.1681
  44  923.0026
  45  929.6937
  46  952.0869
  47  970.1448
  48  930.7171
  49  949.249
  50  901.9121
  51  924.8217
  52  921.6021
  53  898.1683
  54  888.5916
  55  873.093
  56  917.7943
  57  878.6277
  58  896.5302
  59  862.3981
  60  888.2625
  61  925.4982
  62  893.7184
  63  912.5648
  64  899.5736
  65  900.3889
  66  979.7992
  67  948.5662
  68  919.7316
  69  1050.654
  70  1049.616
  71  996.4086
  72  1005.7
  73  919.9851
  74  912.6476
  75  942.7983
  76  1002.778
  77  1007.15
  78  962.7463
  79  992.2314
  80  1001.373
  81  975.3436
  82  898.6846
  83  1014.176
  84  919.3324
  85  962.0598
  86  979.1232
  87  959.3224
  88  1045.824
  89  1020.463
  90  1052.554
  91  968.59
  92  1001.864
  93  1081.602
  94  1019.913
  95  1008.604
  96  1068.322
  97  1123.968
  98  1014.298
  99  1110.096
 100  1136.447
 101  1079.055
 102  1044.737
 103  1034.542
 104  1106.176
 105  1095.634
 106  1118.581
 107  1183.586
 108  1237.919
 109  1064.736
 110  1120.709
 111  1130.007
 112  1096.91
 113  1078.775
 114  1133.512
 115  1012.144
 116  1055.275
 117  1071.359
 118  1074.077
 119  1078.303
 120  1072.144
 121  1006.756
 122  1020.373
 123  1003.211
 124  1072.736
 125  1027.006
 126  1091.199
 127  1098.116
 128  971.1934
 129  928.9736
 130  854.9673
 131  908.5643
 132  999.7944
 133  988.4857
 134  928.2109
 135  850.9922
 136  993.8472
 137  992.884
 138  1007.164
 139  987.1191
 140  965.384
 141  858.5225
 142  914.0104
 143  992.2704
 144  949.918
 145  936.8268
 146  900.893
 147  942.8455
 148  932.7809
 149  885.2253
 150  924.4347
 151  984.6149
 152  1012.863
 153  965.7997
 154  921.7378
 155  895.7337
 156  929.8188
 157  949.9608
 158  888.8796
 159  890.5369
 160  881.4564
 161  948.5652
 162  876.0605
 163  934.0651
 164  1046.328
 165  978.8575
 166  925.7272
 167  901.6451
 168  955.8468
 169  952.1235
 170  945.5996
 171  982.291
 172  1015.564
 173  978.4521
 174  933.8869
 175  993.4634
 176  1062.697
 177  1094.254
 178  1083.911
 179  996.1826
 180  938.1094
 181  897.6771
 182  987.2783
 183  947.3159
 184  978.0833
 185  1002.938
 186  991.8961
 187  1013.202
 188  982.0519
 189  1016.548
 190  930.4553
 191  940.1225
 192  975.7628
 193  972.4305
 194  991.8878
 195  978.2701
 196  990.3531
 197  989.504
 198  966.3451
 199  991.3417
 200  996.6639
 201  963.7878
 202  973.5791
 203  996.4724
 204  960.7202
 205  1008.937
 206  1050.121
 207  1027.611
 208  986.009
 209  1029.027
 210  1002.946
 211  955.064
 212  976.8571
 213  931.5848
 214  963.853
 215  910.4147
 216  942.871
 217  977.8386
 218  955.9649
 219  992.4694
 220  976.4085
 221  985.1733
 222  1011.638
 223  1002.737
 224  950.2787
 225  953.2216
 226  937.8972
 227  960.0802
 228  887.2102
 229  887.3915
 230  946.6422
 231  1009.156
 232  931.1127
 233  888.5739
 234  922.3837
 235  905.3507
 236  941.9406
 237  1004.062
 238  954.7817
 239  1023.044
 240  972.0159
 241  892.6312
 242  967.2261
 243  994.7912
 244  1000.366
 245  1021.095
 246  988.348
 247  1043.924
 248  968.5679
 249  979.6867
 250  955.0814
 251  939.7022
 252  953.9602
 253  978.7552
 254  1005.351
 255  984.059
 256  870.4373
 257  772.1204
 258  920.9753
 259  959.8338
 260  924.254
 261  889.5828
 262  920.0273
 263  916.3105
 264  940.9818
 265  909.1284
 266  913.8761
 267  929.9919
 268  865.9316
 269  885.0025
 270  923.5776
 271  912.5849
 272  923.7582
 273  852.5124
 274  817.9758
 275  864.5089
 276  896.656
 277  860.6122
 278  928.0648
 279  912.9813
 280  843.9783
 281  864.7701
 282  865.7347
 283  835.4998
 284  808.7332
 285  827.3038
 286  795.2764
 287  921.9245
 288  957.542
 289  871.1472
 290  905.7758
 291  902.1698
 292  813.0263
 293  823.3042
 294  903.6248
 295  935.5333
 296  954.2355
 297  882.7944
 298  900.5635
 299  895.479
 300  885.805
 301  872.2404
 302  853.1927
 303  889.346
 304  955.6633
 305  977.918
 306  943.2161
 307  891.4246
 308  952.4194
 309  958.7736
 310  935.8406
 311  930.1974
 312  938.0967
 313  1005.449
 314  985.6074
 315  1024.938
 316  1037.683
 317  1060.803
 318  1029.444
 319  978.6409
 320  984.3268
 321  1048.531
 322  1031.645
 323  1042.397
 324  1085.812
 325  1032.893
 326  1012.488
 327  1005.281
 328  980.5755
 329  956.1535
 330  959.4015
 331  903.8642
 332  907.1239
 333  868.7668
 334  926.3967
 335  972.7407
 336  960.2862
 337  999.8748
 338  1000.851
 339  975.7684
 340  1015.156
 341  966.0857
 342  883.7014
 343  848.8885
 344  899.5051
 345  909.4852
 346  973.155
 347  1011.154
 348  913.3448
 349  879.6653
 350  915.703
 351  918.9879
 352  982.8511
 353  1002.413
 354  979.3802
 355  919.1564
 356  946.5219
 357  952.2389
 358  920.2454
 359  916.9243
 360  972.0804
 361  1030.208
 362  971.2129
 363  1016.925
 364  1023.434
 365  992.2979
 366  936.4466
 367  937.6799
 368  927.3557
 369  986.2675
 370  993.5662
 371  978.6691
 372  956.7764
 373  1009.056
 374  1006.224
 375  981.7957
 376  967.1317
 377  933.0129
 378  910.0858
 379  962.1852
 380  982.7499
 381  924.4713
 382  983.764
 383  1024.424
 384  986.014
 385  991.7022
 386  985.4254
 387  1059.715
 388  1066.654
 389  1037.429
 390  1096.916
 391  1093.612
 392  1118.091
 393  1142.431
 394  1068.203
 395  1053.882
 396  1027.592
 397  1053.284
 398  1132.799
 399  1064.341
 400  1102.995
 401  1136.689
 402  1042.202
 403  1082.169
 404  1113.537
 405  1045.111
 406  995.161
 407  1075.839
 408  1046.044
 409  1037.782
 410  985.3508
 411  1001.399
 412  1003.939
 413  931.0106
 414  917.2604
 415  998.3779
 416  940.8756
 417  952.4357
 418  988.3737
 419  954.7497
 420  921.4078
 421  984.6729
 422  984.1644
 423  971.4457
 424  938.4558
 425  995.1348
 426  1016.395
 427  915.8727
 428  991.7306
 429  984.8275
 430  1057.115
 431  1010.323
 432  974.8201
 433  1047.311
 434  1064.898
 435  1087.193
 436  1052.417
 437  1024.293
 438  1058.319
 439  1064.569
 440  934.029
 441  997.0082
 442  1008.633
 443  952.343
 444  962.1932
 445  1055.888
 446  1091.242
 447  1085.814
 448  1089.409
 449  1062.591
 450  1009.804
 451  1037.412
 452  976.9166
 453  1019.468
 454  1057.665
 455  1052.454
 456  1003.407
 457  1025.649
 458  1035.722
 459  1015.791
 460  975.9384
 461  1027.176
 462  1014.671
 463  1028.6
 464  1060.516
 465  1057.281
 466  926.1744
 467  1049.398
 468  1130.659
 469  1086.633
 470  1175.781
 471  1214.392
 472  1112.365
 473  1061.152
 474  1033.346
 475  1074.703
 476  1100.439
 477  1028.422
 478  970.515
 479  1035.52
 480  1064.483
 481  1034.745
 482  941.0764
 483  833.0938
 484  833.6297
 485  921.4753
 486  932.5559
 487  906.043
 488  859.8269
 489  880.9052
 490  759.1638
 491  929.1003
 492  902.2773
 493  884.2214
 494  871.0063
 495  866.7269
 496  909.3542
 497  777.7342
 498  727.2286
 499  819.4131
 500  838.2127
 501  900.5192
 502  894.7779
 503  870.0403
 504  953.9968
 505  915.7075
 506  901.6779
 507  971.0193
 508  939.0906
 509  1100.845
 510  1267.384
 511  1474.568
