# Input file       =  1207823475.107672_cleaned.dat
# Candidate        =  PSR_0332+5434
# Telescope        =  AR
# Epoch_topo       =  58223.438160968428
# Epoch_bary       =  N/A
# T_sample         =  0.002
# Data Folded      =  7340032
# Data Avg         =  0.0534288824884277
# Data StdDev      =  0.999967982874081
# Profile Bins     =  512
# Profile Avg      =  765.949660723696 
# Profile StdDev   =  119.729202869064 
# Reduced chi-sqr  =  2.167
# Prob(Noise)      <  4.68e-46   (~14.2 sigma)
# P_topo (ms)      =  714.559831488787  +/- 0.000461
# P'_topo (s/s)    =  -0                +/- 2.43e-10
# P''_topo (s/s^2) =  0                 +/- 1.07e-13
# P_bary (ms)      =  N/A
# P'_bary (s/s)    =  N/A
# P''_bary (s/s^2) =  N/A
# P_orb (s)        =  N/A
# asin(i)/c (s)    =  N/A
# eccentricity     =  N/A
# w (rad)          =  N/A
# T_peri           =  N/A
######################################################
   0  1523.982
   1  1543.462
   2  1350.58
   3  1044.149
   4  868.2866
   5  754.2123
   6  736.0307
   7  779.7804
   8  725.6879
   9  749.0613
  10  758.2239
  11  705.2069
  12  751.8672
  13  837.007
  14  872.2388
  15  785.618
  16  816.8412
  17  788.4897
  18  778.9899
  19  740.7565
  20  708.2554
  21  714.3417
  22  721.4928
  23  716.4472
  24  656.1854
  25  689.2504
  26  611.1003
  27  644.9232
  28  672.248
  29  695.077
  30  709.2062
  31  700.6005
  32  667.9324
  33  623.4468
  34  586.8694
  35  578.0781
  36  658.2148
  37  644.6431
  38  671.5067
  39  668.8444
  40  650.7885
  41  551.3326
  42  551.3507
  43  565.0736
  44  627.508
  45  634.0648
  46  667.8741
  47  673.1072
  48  654.9497
  49  587.1483
  50  591.9594
  51  563.4888
  52  605.9044
  53  589.17
  54  637.2745
  55  634.6593
  56  521.1284
  57  539.4089
  58  502.545
  59  505.0349
  60  525.7187
  61  599.187
  62  587.125
  63  565.9333
  64  465.019
  65  507.5201
  66  573.0372
  67  594.4645
  68  570.4124
  69  667.5201
  70  606.7492
  71  594.9027
  72  640.1801
  73  603.431
  74  493.5875
  75  497.1517
  76  709.9465
  77  712.807
  78  606.5193
  79  585.3099
  80  601.7423
  81  578.089
  82  505.2644
  83  463.0932
  84  469.1276
  85  552.7894
  86  539.5526
  87  594.0602
  88  570.538
  89  586.4676
  90  673.4942
  91  744.908
  92  784.1697
  93  773.4485
  94  726.8414
  95  647.422
  96  707.8291
  97  707.3146
  98  687.2722
  99  777.5447
 100  746.7326
 101  684.0229
 102  653.4967
 103  757.518
 104  750.2736
 105  664.9974
 106  673.1207
 107  580.5811
 108  546.6411
 109  620.4675
 110  758.6439
 111  648.6863
 112  635.1614
 113  586.4092
 114  669.807
 115  734.5038
 116  755.9708
 117  714.009
 118  701.3831
 119  700.4033
 120  628.7099
 121  611.2556
 122  636.0712
 123  636.1144
 124  566.062
 125  593.6586
 126  586.5914
 127  684.7081
 128  646.3861
 129  598.0757
 130  617.8003
 131  588.4765
 132  616.6974
 133  581.4762
 134  657.0145
 135  668.7632
 136  575.3496
 137  611.7319
 138  677.7674
 139  629.6829
 140  564.2429
 141  551.285
 142  591.8192
 143  686.6425
 144  725.1705
 145  684.8265
 146  700.3518
 147  678.9719
 148  620.5618
 149  567.1215
 150  685.2917
 151  685.3394
 152  727.7499
 153  779.118
 154  714.1818
 155  648.7895
 156  708.659
 157  765.5682
 158  771.9557
 159  823.5273
 160  819.5186
 161  786.9357
 162  696.6511
 163  821.757
 164  870.687
 165  948.6673
 166  898.8443
 167  868.2748
 168  921.9065
 169  934.5659
 170  934.85
 171  912.3125
 172  909.6714
 173  834.9124
 174  872.5264
 175  943.7498
 176  825.1195
 177  856.5943
 178  884.8739
 179  869.4359
 180  963.7839
 181  955.4668
 182  937.3651
 183  864.6832
 184  813.0308
 185  795.6966
 186  678.1893
 187  753.8814
 188  745.7499
 189  755.2466
 190  731.0345
 191  732.0966
 192  767.4412
 193  688.1979
 194  611.2496
 195  684.5356
 196  711.3983
 197  717.6453
 198  707.511
 199  799.6676
 200  775.7242
 201  804.0742
 202  781.7791
 203  734.4032
 204  686.1456
 205  796.7452
 206  844.8845
 207  792.97
 208  817.7109
 209  872.3115
 210  823.8367
 211  835.1003
 212  788.6769
 213  768.1556
 214  803.9716
 215  725.837
 216  721.1744
 217  760.4272
 218  697.0027
 219  752.7726
 220  746.2993
 221  790.2681
 222  890.005
 223  776.1464
 224  792.5768
 225  748.2438
 226  709.996
 227  751.6531
 228  778.6409
 229  805.7632
 230  904.8378
 231  790.7764
 232  792.2007
 233  855.8441
 234  806.9895
 235  758.2118
 236  709.7537
 237  803.1031
 238  800.3827
 239  753.1265
 240  713.8383
 241  733.5596
 242  691.7947
 243  714.0478
 244  844.0955
 245  869.9058
 246  837.1216
 247  832.4396
 248  859.3856
 249  795.7574
 250  759.3431
 251  815.2436
 252  885.4072
 253  832.3589
 254  834.4162
 255  821.1285
 256  805.2643
 257  864.3138
 258  914.488
 259  851.3002
 260  817.4407
 261  855.2349
 262  769.9112
 263  767.3771
 264  771.4124
 265  741.4733
 266  762.4725
 267  774.0464
 268  861.0132
 269  833.0222
 270  793.3091
 271  856.9091
 272  831.7484
 273  829.9808
 274  836.4421
 275  790.3188
 276  814.7056
 277  801.2321
 278  705.0265
 279  816.6651
 280  880.7061
 281  832.9008
 282  795.0223
 283  816.5732
 284  828.2062
 285  858.0233
 286  900.5236
 287  925.0646
 288  885.074
 289  890.4239
 290  849.7269
 291  900.1232
 292  868.4106
 293  821.7037
 294  837.0908
 295  883.9012
 296  848.5469
 297  829.9142
 298  841.2536
 299  903.0085
 300  885.9845
 301  853.8325
 302  850.976
 303  873.215
 304  916.2137
 305  910.4169
 306  894.0498
 307  910.278
 308  848.1673
 309  868.7473
 310  803.0568
 311  767.3295
 312  855.8719
 313  917.9522
 314  845.4756
 315  840.6693
 316  860.2589
 317  867.2962
 318  909.2622
 319  955.928
 320  939.1195
 321  1009.26
 322  939.6871
 323  841.9048
 324  758.7537
 325  789.6595
 326  930.142
 327  947.972
 328  891.7949
 329  910.424
 330  915.6166
 331  894.2469
 332  906.2328
 333  822.2592
 334  850.4662
 335  875.662
 336  815.5366
 337  895.0593
 338  906.1202
 339  864.1741
 340  866.6569
 341  892.2699
 342  839.1268
 343  816.9272
 344  850.2033
 345  912.6269
 346  890.3748
 347  817.7228
 348  789.6945
 349  838.3622
 350  836.6324
 351  784.2847
 352  825.0172
 353  900.6168
 354  913.9611
 355  855.6945
 356  904.8116
 357  814.6847
 358  839.0336
 359  862.6362
 360  870.2477
 361  850.0916
 362  816.9059
 363  817.5681
 364  842.2302
 365  847.9533
 366  820.8118
 367  879.9019
 368  860.7422
 369  869.2546
 370  875.2903
 371  832.1859
 372  815.608
 373  830.5855
 374  865.6692
 375  928.7552
 376  884.4293
 377  864.0448
 378  929.2255
 379  890.7587
 380  909.8017
 381  883.5736
 382  879.7003
 383  892.9343
 384  833.4597
 385  826.8564
 386  841.1584
 387  855.2709
 388  838.6448
 389  853.6929
 390  811.3929
 391  827.3878
 392  755.2114
 393  784.0728
 394  780.7277
 395  650.0126
 396  713.7296
 397  775.9777
 398  767.1642
 399  721.1264
 400  725.8814
 401  693.3181
 402  701.8
 403  819.0571
 404  722.7123
 405  692.9445
 406  704.1456
 407  783.337
 408  759.0629
 409  720.3419
 410  720.6295
 411  668.523
 412  611.1618
 413  693.2001
 414  694.6206
 415  707.5386
 416  764.7693
 417  739.7008
 418  778.9007
 419  711.5541
 420  630.4919
 421  580.7828
 422  708.1292
 423  716.9624
 424  647.7385
 425  652.2502
 426  728.5593
 427  745.2772
 428  746.3385
 429  713.5035
 430  750.7281
 431  743.942
 432  820.6558
 433  772.9283
 434  690.4604
 435  690.8067
 436  756.4956
 437  742.412
 438  730.0266
 439  811.0577
 440  800.449
 441  728.4305
 442  742.9622
 443  753.2222
 444  734.9868
 445  682.7203
 446  743.629
 447  721.4693
 448  775.4899
 449  806.1823
 450  706.335
 451  694.0875
 452  791.6228
 453  835.8785
 454  813.4478
 455  797.854
 456  829.2773
 457  792.2876
 458  687.4517
 459  706.2421
 460  744.4188
 461  742.8038
 462  697.8134
 463  739.3373
 464  761.338
 465  780.7957
 466  804.6299
 467  742.9904
 468  696.0327
 469  760.9621
 470  900.6987
 471  812.7546
 472  809.9012
 473  840.8061
 474  840.871
 475  836.1988
 476  800.2706
 477  798.6106
 478  748.8314
 479  709.7561
 480  752.2087
 481  719.2898
 482  764.9642
 483  741.7506
 484  654.509
 485  667.2184
 486  642.2974
 487  729.9402
 488  689.9147
 489  677.8751
 490  692.2348
 491  743.7918
 492  809.3857
 493  874.2455
 494  759.8335
 495  816.1285
 496  716.3875
 497  652.9167
 498  723.2602
 499  738.343
 500  801.2305
 501  806.9202
 502  811.7944
 503  740.2824
 504  854.3951
 505  890.6353
 506  836.39
 507  819.374
 508  990.8845
 509  1150.058
 510  1403.151
 511  1551.265
