# Input file       =  1207924562.108558_cleaned.dat
# Candidate        =  PSR_0332+5434
# Telescope        =  AR
# Epoch_topo       =  58224.608149404608
# Epoch_bary       =  N/A
# T_sample         =  0.002
# Data Folded      =  7340032
# Data Avg         =  0.0399177882761166
# Data StdDev      =  1.00006206753368 
# Profile Bins     =  512
# Profile Avg      =  572.290561444715 
# Profile StdDev   =  119.740467911034 
# Reduced chi-sqr  =  1.404
# Prob(Noise)      <  3.91e-09   (~5.8 sigma)
# P_topo (ms)      =  714.559258495847  +/- 0.000288
# P'_topo (s/s)    =  -0                +/- 1.52e-10
# P''_topo (s/s^2) =  0                 +/- 6.72e-14
# P_bary (ms)      =  N/A
# P'_bary (s/s)    =  N/A
# P''_bary (s/s^2) =  N/A
# P_orb (s)        =  N/A
# asin(i)/c (s)    =  N/A
# eccentricity     =  N/A
# w (rad)          =  N/A
# T_peri           =  N/A
######################################################
   0  1272.103
   1  1235.394
   2  1014.961
   3  888.9363
   4  820.136
   5  705.0267
   6  602.5381
   7  678.529
   8  642.9269
   9  554.4041
  10  568.863
  11  671.3735
  12  728.5422
  13  524.537
  14  566.4825
  15  611.1487
  16  698.5173
  17  728.7806
  18  611.7374
  19  589.1184
  20  668.5686
  21  531.5645
  22  540.6712
  23  605.4398
  24  685.7542
  25  698.8614
  26  658.8517
  27  702.8524
  28  669.3699
  29  686.1133
  30  637.0443
  31  570.4433
  32  542.0189
  33  512.3856
  34  496.7011
  35  437.2185
  36  506.4375
  37  678.2726
  38  572.0989
  39  538.3159
  40  512.8078
  41  477.7278
  42  494.9672
  43  506.3789
  44  589.6926
  45  564.808
  46  534.318
  47  688.4031
  48  626.4608
  49  528.3202
  50  463.6052
  51  397.3637
  52  398.0741
  53  455.8574
  54  491.8958
  55  480.9135
  56  562.702
  57  582.6433
  58  650.3726
  59  656.85
  60  592.3743
  61  491.3987
  62  536.137
  63  544.233
  64  480.7424
  65  432.7274
  66  494.069
  67  486.1737
  68  433.1337
  69  433.0692
  70  589.827
  71  649.3698
  72  570.9833
  73  528.5527
  74  430.3881
  75  474.8698
  76  478.0924
  77  573.697
  78  696.2606
  79  634.9778
  80  528.0304
  81  579.0286
  82  568.1764
  83  562.1599
  84  641.0446
  85  673.7982
  86  594.5587
  87  573.9827
  88  536.5287
  89  579.7249
  90  523.0657
  91  551.1487
  92  609.606
  93  661.8862
  94  670.4471
  95  610.9342
  96  578.1575
  97  659.3741
  98  596.2275
  99  576.7583
 100  760.9066
 101  733.0592
 102  684.082
 103  687.4896
 104  695.2553
 105  516.0881
 106  646.6561
 107  759.8149
 108  702.3495
 109  689.6127
 110  654.391
 111  606.0965
 112  470.429
 113  476.8091
 114  548.5765
 115  543.1061
 116  581.4095
 117  576.1413
 118  543.2754
 119  672.608
 120  688.5563
 121  637.4481
 122  632.402
 123  615.2477
 124  704.6608
 125  649.4272
 126  651.494
 127  663.5453
 128  575.7609
 129  546.1452
 130  648.2251
 131  730.1392
 132  651.6995
 133  644.8564
 134  656.4063
 135  481.3792
 136  427.1964
 137  549.1202
 138  545.9562
 139  503.7786
 140  435.4947
 141  361.7118
 142  435.8743
 143  598.6382
 144  593.3594
 145  556.0522
 146  439.8466
 147  622.815
 148  544.1464
 149  493.7572
 150  555.8025
 151  653.5402
 152  596.0285
 153  631.9518
 154  599.0674
 155  540.7133
 156  483.2706
 157  557.9106
 158  577.062
 159  623.0283
 160  678.7004
 161  656.7863
 162  550.9618
 163  644.2335
 164  667.0362
 165  614.9221
 166  601.3105
 167  641.4298
 168  572.217
 169  473.1735
 170  659.8771
 171  637.9766
 172  550.0333
 173  560.238
 174  431.3241
 175  558.0172
 176  482.7481
 177  510.2698
 178  575.9336
 179  568.397
 180  496.7032
 181  579.0093
 182  638.9108
 183  714.8103
 184  638.3542
 185  516.7167
 186  525.0217
 187  453.015
 188  461.3864
 189  526.5283
 190  433.7471
 191  429.3505
 192  490.1359
 193  517.3264
 194  548.8306
 195  460.5573
 196  490.129
 197  591.065
 198  704.5733
 199  659.2615
 200  531.0811
 201  489.304
 202  586.2726
 203  593.4537
 204  511.1109
 205  525.969
 206  568.5262
 207  522.1432
 208  493.1908
 209  511.9572
 210  609.5681
 211  537.791
 212  580.1866
 213  599.3045
 214  553.8922
 215  535.152
 216  513.046
 217  625.9067
 218  530.364
 219  481.0135
 220  525.6775
 221  622.2858
 222  528.4635
 223  508.7454
 224  572.8988
 225  549.8323
 226  566.7025
 227  550.3441
 228  542.2434
 229  526.6453
 230  546.6876
 231  654.3433
 232  646.9327
 233  650.8201
 234  610.4161
 235  499.1699
 236  555.4039
 237  542.834
 238  622.4885
 239  558.7883
 240  499.8287
 241  581.1963
 242  586.0383
 243  591.8224
 244  519.7454
 245  496.7833
 246  543.1299
 247  508.7132
 248  508.3285
 249  563.163
 250  667.8702
 251  743.5781
 252  676.5367
 253  575.2479
 254  633.9201
 255  617.1359
 256  640.6433
 257  599.0696
 258  613.2579
 259  619.0333
 260  505.0499
 261  627.381
 262  663.4289
 263  694.737
 264  706.2706
 265  593.0025
 266  639.3441
 267  655.1275
 268  619.1539
 269  569.1743
 270  620.4013
 271  610.1766
 272  457.6677
 273  512.9563
 274  555.7605
 275  567.9256
 276  536.7179
 277  559.1948
 278  600.1466
 279  572.8123
 280  603.8516
 281  654.5443
 282  612.8328
 283  578.1342
 284  556.0299
 285  604.0696
 286  594.5999
 287  530.6249
 288  547.9245
 289  717.5399
 290  693.9492
 291  708.399
 292  655.9031
 293  698.1888
 294  609.237
 295  726.0887
 296  765.3953
 297  558.8069
 298  581.7144
 299  584.4409
 300  580.7915
 301  609.9904
 302  656.8944
 303  601.5876
 304  661.0239
 305  649.2103
 306  462.1853
 307  451.8837
 308  453.7996
 309  513.2868
 310  620.6453
 311  613.5665
 312  662.7756
 313  734.8705
 314  667.48
 315  670.3344
 316  628.2922
 317  687.3681
 318  659.2234
 319  614.8018
 320  523.1475
 321  458.7527
 322  467.3405
 323  610.1763
 324  630.9761
 325  495.6571
 326  494.9951
 327  646.6909
 328  610.4181
 329  611.0804
 330  651.785
 331  563.5208
 332  576.2028
 333  577.1282
 334  681.6633
 335  613.4111
 336  537.3558
 337  533.647
 338  522.9302
 339  598.7772
 340  519.3252
 341  556.4606
 342  572.3333
 343  553.7237
 344  527.667
 345  567.4377
 346  641.9282
 347  634.1033
 348  703.4019
 349  601.4061
 350  592.272
 351  579.2407
 352  489.04
 353  475.9425
 354  580.1041
 355  495.498
 356  512.2674
 357  575.6427
 358  522.2185
 359  550.2616
 360  537.6046
 361  675.9604
 362  644.3267
 363  575.6327
 364  539.4199
 365  514.5639
 366  541.2432
 367  499.6937
 368  439.9894
 369  556.8784
 370  588.0578
 371  531.2812
 372  629.3544
 373  617.8029
 374  520.466
 375  524.801
 376  644.8872
 377  691.0029
 378  609.9281
 379  590.6759
 380  579.6868
 381  577.6354
 382  606.7976
 383  497.8852
 384  485.343
 385  517.7155
 386  489.893
 387  465.7435
 388  476.584
 389  499.3308
 390  481.2106
 391  537.9484
 392  434.5293
 393  438.9231
 394  519.2891
 395  547.3091
 396  441.4544
 397  476.8777
 398  458.8789
 399  460.1367
 400  505.2144
 401  514.3261
 402  427.7091
 403  396.1776
 404  395.2994
 405  474.7107
 406  567.8999
 407  500.7731
 408  460.8427
 409  498.0898
 410  509.3891
 411  477.6289
 412  592.398
 413  685.6348
 414  528.4591
 415  411.4583
 416  460.0268
 417  480.0531
 418  442.7642
 419  487.8148
 420  432.8239
 421  359.7111
 422  449.8846
 423  456.0334
 424  600.2883
 425  519.6465
 426  596.8995
 427  596.5505
 428  470.9733
 429  534.1047
 430  600.1952
 431  543.8513
 432  561.6213
 433  515.6761
 434  581.904
 435  501.6532
 436  430.6202
 437  562.0456
 438  606.6928
 439  561.7787
 440  470.8139
 441  483.4425
 442  524.4507
 443  484.3618
 444  443.0103
 445  513.1741
 446  502.9802
 447  470.5122
 448  457.3557
 449  418.5515
 450  393.5321
 451  451.6653
 452  442.9373
 453  479.1134
 454  546.4572
 455  591.0698
 456  596.9575
 457  497.2273
 458  538.1885
 459  434.5012
 460  412.4248
 461  494.4428
 462  579.6964
 463  598.8951
 464  483.9798
 465  547.0231
 466  566.3226
 467  483.5755
 468  516.6263
 469  492.0576
 470  468.0657
 471  599.9969
 472  583.2993
 473  554.9689
 474  603.0513
 475  563.053
 476  577.537
 477  618.1957
 478  619.8199
 479  583.8832
 480  551.5549
 481  595.0275
 482  543.5818
 483  445.4344
 484  491.8159
 485  451.6228
 486  477.3128
 487  437.679
 488  350.2829
 489  442.5421
 490  605.6304
 491  569.4715
 492  503.8246
 493  489.7377
 494  536.9487
 495  556.8811
 496  585.5977
 497  578.9595
 498  493.1529
 499  493.6343
 500  592.669
 501  643.6212
 502  538.1148
 503  476.6906
 504  523.7439
 505  610.5155
 506  733.8116
 507  787.1918
 508  847.1213
 509  1002.423
 510  1081.466
 511  1244.87
