# Input file       =  1208756838.127308_cleaned.dat
# Candidate        =  PSR_0332+5434
# Telescope        =  AR
# Epoch_topo       =  58234.240973695691
# Epoch_bary       =  N/A
# T_sample         =  0.002
# Data Folded      =  7208960
# Data Avg         =  0.017035423052452
# Data StdDev      =  0.99998338979869 
# Profile Bins     =  512
# Profile Avg      =  239.772991271986 
# Profile StdDev   =  118.657204840733 
# Reduced chi-sqr  =  1.970
# Prob(Noise)      <  1.08e-34   (~12.2 sigma)
# P_topo (ms)      =  714.550911976121  +/- 0.00025
# P'_topo (s/s)    =  -0                +/- 1.35e-10
# P''_topo (s/s^2) =  0                 +/- 6.05e-14
# P_bary (ms)      =  N/A
# P'_bary (s/s)    =  N/A
# P''_bary (s/s^2) =  N/A
# P_orb (s)        =  N/A
# asin(i)/c (s)    =  N/A
# eccentricity     =  N/A
# w (rad)          =  N/A
# T_peri           =  N/A
######################################################
   0  1270.629
   1  1143.629
   2  798.627
   3  511.2479
   4  297.3168
   5  441.2359
   6  486.2513
   7  353.2685
   8  378.1687
   9  412.9204
  10  314.8403
  11  279.4624
  12  291.5327
  13  394.2535
  14  413.1774
  15  330.4639
  16  233.9558
  17  365.8211
  18  297.1135
  19  298.4445
  20  283.693
  21  272.4499
  22  273.1352
  23  328.6446
  24  227.2838
  25  174.2537
  26  258.2088
  27  354.0702
  28  170.8074
  29  352.7212
  30  446.1824
  31  274.107
  32  236.7482
  33  274.4381
  34  291.6312
  35  419.4567
  36  304.461
  37  200.9612
  38  164.2916
  39  233.2896
  40  301.2083
  41  210.9946
  42  279.9494
  43  241.3225
  44  163.8442
  45  188.6756
  46  241.8741
  47  76.08553
  48  158.4072
  49  284.0092
  50  295.3745
  51  227.8202
  52  137.6366
  53  282.4099
  54  284.4807
  55  279.2404
  56  274.0931
  57  257.3195
  58  108.3043
  59  83.82703
  60  241.4662
  61  211.5013
  62  111.4995
  63  131.4333
  64  151.0126
  65  134.8339
  66  206.2992
  67  182.0183
  68  159.4405
  69  262.0741
  70  206.3443
  71  208.2739
  72  209.028
  73  319.6618
  74  258.205
  75  113.0988
  76  106.4175
  77  183.5451
  78  281.5953
  79  307.9232
  80  142.3114
  81  96.19583
  82  106.5869
  83  263.0029
  84  205.295
  85  60.85469
  86  198.1933
  87  182.2421
  88  239.9806
  89  209.6082
  90  278.2235
  91  323.3531
  92  271.1416
  93  226.6264
  94  240.7143
  95  218.7578
  96  217.2463
  97  290.4002
  98  225.0432
  99  133.8568
 100  170.6984
 101  232.1047
 102  229.627
 103  235.7777
 104  276.8019
 105  248.2677
 106  138.7226
 107  247.5223
 108  230.6588
 109  167.5736
 110  216.2927
 111  251.6391
 112  263.2035
 113  176.8082
 114  245.0101
 115  234.1473
 116  233.4258
 117  210.2169
 118  240.2506
 119  251.2947
 120  228.1095
 121  191.8728
 122  275.176
 123  280.7466
 124  184.3781
 125  164.7018
 126  211.6961
 127  199.8518
 128  172.9593
 129  139.8335
 130  168.4202
 131  243.1789
 132  238.4087
 133  418.1737
 134  363.5038
 135  397.8655
 136  394.4159
 137  190.7444
 138  247.3652
 139  213.189
 140  161.5002
 141  114.0057
 142  87.01778
 143  99.88801
 144  95.7858
 145  194.5457
 146  179.6547
 147  215.9171
 148  311.2317
 149  136.7408
 150  8.622368
 151  160.6696
 152  165.0146
 153  155.0292
 154  283.7038
 155  193.1019
 156  147.9735
 157  115.326
 158  232.8617
 159  145.0385
 160  109.9934
 161  126.0915
 162  291.65
 163  269.7642
 164  321.3641
 165  295.3619
 166  252.3974
 167  190.6256
 168  341.858
 169  330.1951
 170  312.413
 171  230.5123
 172  78.70268
 173  138.2236
 174  280.936
 175  337.9052
 176  243.8387
 177  207.1145
 178  255.6472
 179  251.0055
 180  208.2274
 181  138.7139
 182  156.3273
 183  214.6595
 184  246.7248
 185  167.9683
 186  92.15012
 187  179.5404
 188  132.9306
 189  98.80303
 190  116.6683
 191  135.7605
 192  248.8259
 193  323.6042
 194  154.5673
 195  205.5967
 196  242.6295
 197  224.9791
 198  217.1002
 199  224.9938
 200  189.3661
 201  214.881
 202  237.4252
 203  167.1598
 204  -22.15951
 205  148.319
 206  138.334
 207  139.2939
 208  71.70236
 209  67.58528
 210  190.878
 211  221.2748
 212  225.1869
 213  153.0336
 214  70.67096
 215  225.3503
 216  337.7336
 217  250.8058
 218  174.6455
 219  233.0677
 220  219.1917
 221  135.7658
 222  179.6518
 223  151.4363
 224  125.0351
 225  260.6082
 226  155.448
 227  123.2839
 228  279.7759
 229  351.2356
 230  326.157
 231  288.083
 232  135.7705
 233  214.1053
 234  256.1529
 235  309.7896
 236  228.0132
 237  231.0079
 238  236.004
 239  187.3886
 240  141.7084
 241  79.47774
 242  142.6252
 243  254.3425
 244  379.6328
 245  219.1328
 246  152.1898
 247  272.7364
 248  291.7692
 249  221.4995
 250  203.3546
 251  104.1706
 252  184.7751
 253  233.0417
 254  204.0597
 255  199.2888
 256  169.5206
 257  162.9811
 258  121.3644
 259  244.1371
 260  291.1454
 261  320.6054
 262  291.1338
 263  340.1008
 264  324.1376
 265  261.7046
 266  228.742
 267  177.8949
 268  219.7003
 269  210.5463
 270  184.8846
 271  245.4796
 272  224.8347
 273  258.0737
 274  278.2946
 275  221.4379
 276  130.3737
 277  181.1693
 278  90.09577
 279  159.4978
 280  156.8449
 281  207.5528
 282  235.412
 283  227.9431
 284  203.9792
 285  143.4465
 286  210.2748
 287  129.8791
 288  81.23151
 289  78.26765
 290  112.2153
 291  96.29047
 292  146.746
 293  168.4168
 294  224.5561
 295  124.664
 296  97.2786
 297  217.5456
 298  203.1184
 299  376.5914
 300  337.351
 301  253.9449
 302  246.41
 303  243.3047
 304  261.3102
 305  175.407
 306  189.7241
 307  104.2846
 308  121.6911
 309  224.8035
 310  257.6643
 311  309.5612
 312  259.7764
 313  275.4651
 314  234.3628
 315  118.7706
 316  142.2523
 317  90.6283
 318  77.39137
 319  155.1638
 320  240.2195
 321  292.5123
 322  256.4604
 323  295.4521
 324  215.6262
 325  218.306
 326  257.4053
 327  51.90288
 328  114.6105
 329  229.1825
 330  257.2394
 331  271.017
 332  251.3377
 333  281.474
 334  201.248
 335  242.7892
 336  313.7184
 337  271.5821
 338  259.3732
 339  118.1478
 340  132.5951
 341  -9.884557
 342  122.5514
 343  342.574
 344  265.4073
 345  100.1114
 346  218.1301
 347  264.0972
 348  188.9385
 349  331.4753
 350  327.5903
 351  210.2567
 352  156.3726
 353  150.323
 354  161.228
 355  82.32553
 356  163.7218
 357  213.7562
 358  214.5495
 359  206.0955
 360  217.8161
 361  185.1726
 362  192.8621
 363  338.0244
 364  360.1702
 365  388.8777
 366  297.2631
 367  202.2144
 368  154.3918
 369  277.1556
 370  283.4999
 371  188.8132
 372  295.9774
 373  337.1446
 374  283.6957
 375  328.9543
 376  273.9338
 377  229.2626
 378  168.9219
 379  122.5066
 380  191.8146
 381  351.5652
 382  230.136
 383  186.284
 384  301.9961
 385  437.4674
 386  283.6705
 387  240.9811
 388  266.024
 389  300.9753
 390  277.9089
 391  331.1008
 392  279.2644
 393  195.0777
 394  216.4293
 395  386.0491
 396  234.9389
 397  111.2921
 398  190.4604
 399  273.3551
 400  253.4249
 401  264.1426
 402  305.745
 403  193.9092
 404  203.6507
 405  130.6557
 406  205.0445
 407  332.7319
 408  329.8276
 409  305.943
 410  257.9611
 411  208.5167
 412  133.7864
 413  95.13988
 414  201.5562
 415  188.0746
 416  151.2918
 417  117.4464
 418  128.077
 419  215.3783
 420  212.3688
 421  265.3803
 422  322.2769
 423  231.0307
 424  236.2012
 425  322.825
 426  316.0209
 427  210.2466
 428  193.4999
 429  272.1163
 430  245.625
 431  113.2587
 432  138.4833
 433  244.6629
 434  286.3421
 435  248.1353
 436  336.923
 437  366.31
 438  324.3334
 439  326.3178
 440  305.834
 441  329.6689
 442  309.6446
 443  263.3833
 444  221.9876
 445  227.4378
 446  210.0005
 447  126.7715
 448  203.5418
 449  409.8379
 450  282.1685
 451  248.8575
 452  225.4402
 453  303.4732
 454  327.6847
 455  409.6207
 456  350.7944
 457  339.2628
 458  320.5203
 459  305.4534
 460  283.0426
 461  287.1353
 462  211.3325
 463  259.5295
 464  160.2207
 465  173.5212
 466  349.024
 467  360.5617
 468  340.7104
 469  339.2559
 470  380.145
 471  297.1024
 472  272.6067
 473  240.9659
 474  322.314
 475  252.301
 476  149.16
 477  186.7511
 478  257.1439
 479  209.6643
 480  235.3664
 481  380.8658
 482  290.8466
 483  127.8179
 484  191.5823
 485  293.0092
 486  192.9816
 487  219.4004
 488  236.8529
 489  275.4068
 490  212.428
 491  144.8397
 492  92.65027
 493  213.0246
 494  221.827
 495  286.8704
 496  294.8507
 497  282.7234
 498  195.1752
 499  147.2276
 500  284.4619
 501  262.0556
 502  243.2045
 503  384.5171
 504  392.9515
 505  457.8235
 506  366.0826
 507  400.7866
 508  623.3511
 509  698.676
 510  974.1705
 511  1214.49
