# Input file       =  1208857737.106156_cleaned.dat
# Candidate        =  PSR_0332+5434
# Telescope        =  AR
# Epoch_topo       =  58235.408785950880
# Epoch_bary       =  N/A
# T_sample         =  0.002
# Data Folded      =  7340032
# Data Avg         =  0.0461924925398213
# Data StdDev      =  1.00017735465972 
# Profile Bins     =  512
# Profile Avg      =  662.216853051656 
# Profile StdDev   =  119.754271588689 
# Reduced chi-sqr  =  0.963
# Prob(Noise)      <  0.716   (~0.0 sigma)
# P_topo (ms)      =  714.549920370813  +/- 0.000441
# P'_topo (s/s)    =  -0                +/- 2.33e-10
# P''_topo (s/s^2) =  0                 +/- 1.03e-13
# P_bary (ms)      =  N/A
# P'_bary (s/s)    =  N/A
# P''_bary (s/s^2) =  N/A
# P_orb (s)        =  N/A
# asin(i)/c (s)    =  N/A
# eccentricity     =  N/A
# w (rad)          =  N/A
# T_peri           =  N/A
######################################################
   0  1203.32
   1  1137.416
   2  1011.888
   3  839.0805
   4  694.992
   5  694.2601
   6  608.2784
   7  576.2272
   8  540.0557
   9  579.7823
  10  706.8405
  11  789.8585
  12  806.3976
  13  703.8781
  14  703.0294
  15  754.3493
  16  751.541
  17  728.7496
  18  751.3602
  19  786.4208
  20  687.172
  21  643.7932
  22  618.1436
  23  655.2834
  24  755.008
  25  757.1081
  26  673.7653
  27  622.8165
  28  686.093
  29  684.5314
  30  622.0696
  31  620.4563
  32  624.4419
  33  663.8735
  34  629.0078
  35  650.6336
  36  682.3347
  37  689.2947
  38  638.6625
  39  653.3522
  40  599.536
  41  655.0424
  42  604.004
  43  505.3777
  44  512.9606
  45  551.7285
  46  589.9813
  47  660.3917
  48  638.9833
  49  656.6368
  50  616.6982
  51  595.3252
  52  593.2372
  53  555.8594
  54  626.6775
  55  688.3959
  56  649.2371
  57  583.1991
  58  571.7307
  59  593.7567
  60  568.9595
  61  599.2288
  62  567.666
  63  603.9489
  64  682.9565
  65  677.9134
  66  598.5685
  67  539.5219
  68  545.2443
  69  594.8442
  70  592.7886
  71  721.4952
  72  671.3933
  73  578.0403
  74  533.9918
  75  556.1389
  76  581.1042
  77  665.8602
  78  681.8846
  79  672.5851
  80  616.6052
  81  598.7443
  82  641.7441
  83  660.4115
  84  710.6741
  85  705.0875
  86  709.3022
  87  713.3117
  88  668.0402
  89  662.6277
  90  646.0837
  91  621.925
  92  663.4852
  93  689.295
  94  676.7662
  95  571.1401
  96  642.5074
  97  711.5323
  98  746.5835
  99  782.1267
 100  693.6395
 101  660.2215
 102  662.3879
 103  690.201
 104  659.6567
 105  687.7656
 106  707.6946
 107  639.622
 108  676.5089
 109  551.2106
 110  548.2548
 111  648.9612
 112  612.4808
 113  561.2781
 114  629.0889
 115  621.0939
 116  597.2145
 117  491.9178
 118  518.3895
 119  526.0554
 120  583.66
 121  699.3115
 122  668.2578
 123  659.69
 124  663.8219
 125  630.8383
 126  620.3865
 127  683.5474
 128  633.0684
 129  675.6777
 130  707.8709
 131  724.8395
 132  621.4996
 133  593.4019
 134  610.5924
 135  570.8403
 136  514.5837
 137  512.0435
 138  467.5445
 139  613.2233
 140  652.8395
 141  646.7548
 142  701.4004
 143  625.8167
 144  549.4959
 145  563.0728
 146  587.5024
 147  586.206
 148  578.7924
 149  634.2175
 150  598.9934
 151  595.2757
 152  578.6148
 153  574.7501
 154  604.6783
 155  672.1078
 156  600.9282
 157  659.8829
 158  634.368
 159  655.6244
 160  675.3557
 161  649.217
 162  700.1877
 163  712.4624
 164  707.9807
 165  682.0743
 166  715.9174
 167  741.8453
 168  777.5125
 169  679.1056
 170  670.8765
 171  625.7413
 172  654.5113
 173  638.992
 174  574.9923
 175  543.4905
 176  614.327
 177  544.2275
 178  494.6245
 179  479.4779
 180  552.6319
 181  555.1213
 182  539.2509
 183  535.6713
 184  460.8711
 185  501.1681
 186  545.5286
 187  525.3071
 188  491.0898
 189  539.8347
 190  568.1378
 191  583.2603
 192  638.665
 193  673.426
 194  609.8307
 195  536.8542
 196  565.8159
 197  599.7025
 198  638.2689
 199  641.3533
 200  617.7927
 201  662.6714
 202  695.0704
 203  669.9332
 204  651.6305
 205  723.0994
 206  655.7755
 207  679.4517
 208  690.2926
 209  709.4616
 210  691.9924
 211  632.6108
 212  669.4427
 213  655.6529
 214  722.1063
 215  726.2025
 216  759.8057
 217  721.5692
 218  729.3177
 219  713.9154
 220  677.1334
 221  656.7454
 222  640.245
 223  672.7573
 224  685.9272
 225  605.9437
 226  644.6728
 227  689.13
 228  712.7726
 229  752.5253
 230  724.3422
 231  606.4772
 232  643.961
 233  662.0599
 234  715.6207
 235  681.4921
 236  645.0874
 237  692.6942
 238  675.2958
 239  754.1425
 240  759.7407
 241  717.1339
 242  721.8905
 243  722.947
 244  743.2534
 245  731.2441
 246  762.7075
 247  793.2459
 248  795.0169
 249  757.1487
 250  767.7233
 251  743.8372
 252  685.7393
 253  653.3407
 254  712.754
 255  657.5814
 256  625.4962
 257  672.4971
 258  702.9579
 259  750.6241
 260  722.6769
 261  654.4337
 262  659.2424
 263  640.2715
 264  662.9941
 265  687.2733
 266  637.1816
 267  665.5714
 268  725.4106
 269  785.5167
 270  722.3723
 271  712.0285
 272  640.2891
 273  651.7612
 274  693.2043
 275  696.9566
 276  738.1889
 277  766.5582
 278  677.114
 279  609.3502
 280  649.1628
 281  697.6017
 282  655.8807
 283  659.7133
 284  713.6098
 285  650.9052
 286  648.1218
 287  756.3875
 288  765.3043
 289  735.5906
 290  777.7198
 291  784.5243
 292  747.8544
 293  748.3676
 294  776.1854
 295  722.9774
 296  633.2168
 297  676.8154
 298  661.547
 299  618.2604
 300  678.2955
 301  651.0061
 302  705.3814
 303  682.7986
 304  658.1628
 305  735.1886
 306  662.2625
 307  621.1979
 308  693.6755
 309  659.1831
 310  697.7345
 311  729.668
 312  718.1299
 313  787.5968
 314  747.3301
 315  677.3545
 316  707.9639
 317  661.3966
 318  704.2742
 319  636.272
 320  664.3356
 321  679.566
 322  709.1931
 323  756.2775
 324  746.6612
 325  647.538
 326  650.3834
 327  623.209
 328  511.2781
 329  553.3227
 330  640.9575
 331  653.5009
 332  653.4481
 333  647.2487
 334  631.1927
 335  592.2313
 336  637.3895
 337  683.944
 338  666.8185
 339  645.7181
 340  658.7643
 341  623.0237
 342  697.9716
 343  717.4651
 344  813.3459
 345  767.299
 346  655.9023
 347  652.6133
 348  665.0153
 349  685.439
 350  706.3604
 351  807.8876
 352  781.7593
 353  717.3238
 354  688.6583
 355  704.6163
 356  689.2328
 357  631.3969
 358  649.0267
 359  637.2348
 360  604.2241
 361  533.4777
 362  556.8464
 363  501.5905
 364  515.2561
 365  481.6498
 366  577.782
 367  610.028
 368  520.8528
 369  551.382
 370  612.8299
 371  580.8073
 372  541.6669
 373  560.1047
 374  637.4342
 375  591.5241
 376  576.3495
 377  586.7657
 378  584.7339
 379  516.4403
 380  565.8052
 381  691.5508
 382  640.829
 383  622.2807
 384  667.3848
 385  718.915
 386  716.1625
 387  734.6443
 388  703.5108
 389  654.434
 390  727.0435
 391  727.368
 392  700.3735
 393  684.0192
 394  648.7117
 395  640.1194
 396  642.2597
 397  684.2228
 398  633.2842
 399  592.5442
 400  614.0187
 401  669.2971
 402  665.2025
 403  616.6709
 404  579.6486
 405  596.5088
 406  591.1117
 407  651.6667
 408  714.6475
 409  671.0476
 410  591.6329
 411  557.8858
 412  566.6266
 413  598.0158
 414  612.4517
 415  671.4987
 416  722.3563
 417  684.7488
 418  670.6426
 419  738.7427
 420  724.3725
 421  693.0037
 422  764.0031
 423  874.1291
 424  770.9367
 425  672.892
 426  663.1758
 427  710.9411
 428  739.5375
 429  770.1245
 430  671.0168
 431  697.1457
 432  752.5264
 433  720.234
 434  712.4062
 435  662.6001
 436  634.014
 437  646.8895
 438  608.3214
 439  654.4943
 440  638.7423
 441  631.4561
 442  631.2151
 443  620.8226
 444  680.9224
 445  650.2662
 446  575.4951
 447  596.4838
 448  657.1132
 449  513.0959
 450  546.0492
 451  601.6243
 452  582.9065
 453  627.3073
 454  661.2778
 455  601.7504
 456  644.7139
 457  722.2209
 458  644.5961
 459  558.7654
 460  599.4969
 461  726.4097
 462  690.0299
 463  633.542
 464  722.5897
 465  697.0649
 466  717.6276
 467  736.7497
 468  724.535
 469  716.7968
 470  768.7285
 471  733.9783
 472  701.6841
 473  589.3859
 474  657.2775
 475  621.9274
 476  619.9474
 477  671.279
 478  640.5549
 479  671.3715
 480  614.8524
 481  568.4506
 482  557.516
 483  628.7183
 484  589.6445
 485  586.0609
 486  734.9401
 487  696.7681
 488  645.145
 489  695.8617
 490  749.3916
 491  714.3757
 492  732.9278
 493  777.0089
 494  662.6371
 495  649.5292
 496  671.9451
 497  662.2693
 498  671.3102
 499  648.4145
 500  641.8427
 501  687.9922
 502  748.6616
 503  686.5967
 504  746.3476
 505  836.3043
 506  793.5912
 507  805.0814
 508  875.0195
 509  994.9975
 510  1149.439
 511  1187.101
