# Input file       =  1208943319.116623_cleaned.dat
# Candidate        =  PSR_0332+5434
# Telescope        =  AR
# Epoch_topo       =  58236.399318479431
# Epoch_bary       =  N/A
# T_sample         =  0.002
# Data Folded      =  7340032
# Data Avg         =  0.0444653547683859
# Data StdDev      =  1.00015680132244 
# Profile Bins     =  512
# Profile Avg      =  637.458318147853 
# Profile StdDev   =  119.751810675209 
# Reduced chi-sqr  =  1.168
# Prob(Noise)      <  0.00512   (~2.6 sigma)
# P_topo (ms)      =  714.549042827393  +/- 0.000399
# P'_topo (s/s)    =  -0                +/- 2.1e-10
# P''_topo (s/s^2) =  0                 +/- 9.28e-14
# P_bary (ms)      =  N/A
# P'_bary (s/s)    =  N/A
# P''_bary (s/s^2) =  N/A
# P_orb (s)        =  N/A
# asin(i)/c (s)    =  N/A
# eccentricity     =  N/A
# w (rad)          =  N/A
# T_peri           =  N/A
######################################################
   0  1206.091
   1  1109.755
   2  934.9291
   3  724.9166
   4  662.2557
   5  628.4639
   6  627.0015
   7  603.7574
   8  729.742
   9  686.7438
  10  607.0182
  11  592.7891
  12  591.8325
  13  622.636
  14  620.2482
  15  693.8396
  16  746.8674
  17  585.4483
  18  557.9948
  19  547.7897
  20  566.1918
  21  640.1393
  22  665.077
  23  648.5798
  24  588.1123
  25  563.7703
  26  683.3065
  27  580.5707
  28  592.0458
  29  696.0723
  30  620.9417
  31  656.3668
  32  688.8199
  33  652.7424
  34  679.4844
  35  631.4756
  36  704.4664
  37  816.3707
  38  696.4763
  39  711.5441
  40  654.9009
  41  706.3005
  42  753.1301
  43  708.1421
  44  687.7242
  45  642.3209
  46  720.4078
  47  665.2813
  48  636.9339
  49  609.9002
  50  663.0267
  51  653.6564
  52  598.6508
  53  659.3701
  54  630.4966
  55  717.4909
  56  700.5801
  57  763.1998
  58  755.6986
  59  699.6422
  60  743.9432
  61  772.7789
  62  704.4583
  63  693.9011
  64  732.3384
  65  760.8711
  66  772.8282
  67  810.608
  68  807.5579
  69  732.6011
  70  718.3074
  71  751.7323
  72  684.778
  73  726.843
  74  783.166
  75  754.8852
  76  794.1545
  77  749.604
  78  737.4944
  79  740.3536
  80  663.1523
  81  587.4646
  82  550.7882
  83  526.1859
  84  611.9216
  85  647.1121
  86  663.5565
  87  594.5084
  88  623.6379
  89  677.2095
  90  632.7552
  91  575.2373
  92  660.1907
  93  745.0201
  94  754.4079
  95  710.6571
  96  735.9586
  97  668.7439
  98  637.7921
  99  650.0732
 100  609.9744
 101  488.1089
 102  533.2004
 103  620.7206
 104  627.5673
 105  504.4284
 106  519.6123
 107  618.7424
 108  573.7961
 109  424.6147
 110  440.8781
 111  551.8243
 112  576.0051
 113  580.0898
 114  562.6539
 115  608.0754
 116  617.3033
 117  505.6948
 118  488.0724
 119  523.5732
 120  582.5881
 121  580.4063
 122  590.8114
 123  625.8353
 124  605.3533
 125  563.7173
 126  646.8176
 127  700.8523
 128  663.6119
 129  700.7823
 130  661.7928
 131  610.3655
 132  682.5572
 133  684.7139
 134  726.2958
 135  714.6425
 136  696.5991
 137  712.754
 138  740.2999
 139  834.436
 140  739.7504
 141  773.4427
 142  738.3618
 143  616.3107
 144  650.5912
 145  693.236
 146  610.8669
 147  627.7846
 148  750.6117
 149  662.8948
 150  565.4682
 151  630.8694
 152  641.7007
 153  645.6457
 154  674.0345
 155  636.1196
 156  629.1488
 157  578.5016
 158  539.5295
 159  481.6001
 160  564.4807
 161  527.9327
 162  477.4174
 163  508.9084
 164  535.9935
 165  515.1881
 166  475.0701
 167  482.2073
 168  531.9954
 169  516.6295
 170  474.9116
 171  519.3548
 172  560.4259
 173  539.1442
 174  566.2078
 175  520.151
 176  450.3933
 177  514.0877
 178  575.8603
 179  483.8105
 180  415.3122
 181  453.1509
 182  372.5256
 183  369.6672
 184  383.8173
 185  416.445
 186  477.6299
 187  546.3067
 188  563.9734
 189  590.8072
 190  550.803
 191  526.7937
 192  556.6771
 193  507.5988
 194  544.367
 195  512.7937
 196  499.4304
 197  496.1388
 198  491.3155
 199  491.1439
 200  552.5895
 201  591.4991
 202  580.7855
 203  590.6215
 204  592.9158
 205  580.5262
 206  537.618
 207  548.226
 208  610.8163
 209  590.5688
 210  588.859
 211  653.8956
 212  607.6324
 213  616.7345
 214  570.084
 215  628.8249
 216  627.323
 217  664.4755
 218  703.1169
 219  708.6262
 220  669.5109
 221  727.4014
 222  688.932
 223  675.1273
 224  726.2666
 225  747.1682
 226  653.8154
 227  603.6369
 228  702.5441
 229  731.9847
 230  778.2551
 231  800.4141
 232  742.9453
 233  664.4546
 234  716.9206
 235  667.3122
 236  613.8101
 237  632.2529
 238  560.6486
 239  596.5529
 240  679.9944
 241  558.89
 242  519.3644
 243  490.6913
 244  611.3282
 245  575.2373
 246  601.3359
 247  660.2939
 248  595.2406
 249  521.8847
 250  611.8052
 251  635.3922
 252  600.9981
 253  646.9205
 254  651.8619
 255  677.5148
 256  644.9277
 257  677.9117
 258  603.3221
 259  618.069
 260  564.5372
 261  510.0476
 262  593.5365
 263  618.2265
 264  512.825
 265  487.7235
 266  614.8677
 267  653.2173
 268  621.2609
 269  601.7269
 270  567.8915
 271  566.2598
 272  603.5448
 273  570.7162
 274  633.1223
 275  621.4888
 276  603.7217
 277  626.3961
 278  696.0418
 279  645.0551
 280  588.6281
 281  614.4385
 282  664.9261
 283  693.2588
 284  579.6357
 285  629.8552
 286  560.9438
 287  593.9519
 288  725.7195
 289  683.9574
 290  515.1592
 291  501.3631
 292  548.593
 293  553.3142
 294  505.4896
 295  569.4523
 296  572.3425
 297  506.6033
 298  539.7179
 299  569.3481
 300  561.0324
 301  525.3645
 302  592.0031
 303  609.3737
 304  622.717
 305  575.877
 306  579.7294
 307  585.115
 308  653.6558
 309  628.7325
 310  581.3927
 311  604.7118
 312  551.4731
 313  574.0499
 314  555.2834
 315  478.0984
 316  585.7996
 317  635.2953
 318  563.0941
 319  551.3434
 320  625.7546
 321  649.1815
 322  504.1843
 323  432.2757
 324  537.0658
 325  484.8385
 326  631.3417
 327  650.7448
 328  620.5964
 329  670.4609
 330  614.5721
 331  627.5253
 332  596.4586
 333  601.3805
 334  701.4562
 335  640.7485
 336  650.2708
 337  588.8956
 338  627.6748
 339  690.5231
 340  671.0761
 341  689.9893
 342  674.7676
 343  626.7676
 344  647.0529
 345  647.2778
 346  663.6097
 347  668.074
 348  670.5814
 349  687.4533
 350  654.5361
 351  682.582
 352  674.0033
 353  650.9854
 354  768.6573
 355  789.0099
 356  711.1561
 357  657.5396
 358  631.6011
 359  717.9414
 360  708.1741
 361  672.9883
 362  680.6808
 363  646.4337
 364  686.3467
 365  600.421
 366  693.0938
 367  732.2079
 368  672.0131
 369  663.7983
 370  691.5016
 371  714.3536
 372  783.9498
 373  710.86
 374  685.8608
 375  752.2977
 376  743.7212
 377  655.5048
 378  669.0321
 379  564.2083
 380  551.8743
 381  525.9086
 382  617.9608
 383  648.752
 384  674.4636
 385  636.9688
 386  571.9434
 387  644.3965
 388  729.0491
 389  706.6952
 390  734.283
 391  772.3406
 392  708.6384
 393  747.7665
 394  725.1875
 395  635.1568
 396  641.5632
 397  708.7314
 398  668.2061
 399  673.2783
 400  663.4078
 401  653.1794
 402  612.6113
 403  705.6982
 404  611.4272
 405  626.2691
 406  730.9572
 407  779.425
 408  792.0468
 409  703.5426
 410  735.9989
 411  728.7279
 412  678.5911
 413  740.2078
 414  709.09
 415  702.0689
 416  725.8939
 417  728.0363
 418  748.5576
 419  763.8579
 420  682.4865
 421  644.4307
 422  622.6936
 423  699.7209
 424  691.0556
 425  633.5236
 426  664.7812
 427  633.5092
 428  586.4797
 429  580.7291
 430  624.1172
 431  721.5159
 432  740.6241
 433  709.5796
 434  702.4916
 435  763.3584
 436  701.9811
 437  765.4308
 438  758.7825
 439  589.1617
 440  546.4113
 441  604.6108
 442  695.6481
 443  638.5586
 444  670.2124
 445  637.5344
 446  529.5351
 447  561.8809
 448  579.0724
 449  509.2913
 450  519.8284
 451  605.2303
 452  621.0478
 453  572.704
 454  536.7772
 455  555.1
 456  563.9681
 457  540.7065
 458  505.0455
 459  524.5641
 460  529.5482
 461  562.5012
 462  543.188
 463  560.3347
 464  586.3223
 465  589.2067
 466  601.1493
 467  666.8857
 468  653.9824
 469  630.2947
 470  653.6791
 471  571.0306
 472  577.3784
 473  607.8464
 474  630.8856
 475  645.5085
 476  528.6152
 477  597.8383
 478  576.179
 479  623.1946
 480  683.2559
 481  698.5927
 482  674.0566
 483  672.4
 484  652.4383
 485  611.8801
 486  705.1734
 487  718.4185
 488  739.7065
 489  684.9628
 490  662.027
 491  666.9802
 492  650.3011
 493  653.8869
 494  737.0486
 495  730.1737
 496  665.7194
 497  610.9519
 498  639.4123
 499  734.7788
 500  685.8605
 501  660.2396
 502  625.9619
 503  677.7314
 504  723.4044
 505  758.2134
 506  755.9764
 507  766.0416
 508  855.1835
 509  948.4059
 510  1035.352
 511  1159.222
