# Input file       =  1208843057.118752_cleaned.dat
# Candidate        =  PSR_0332+5434
# Telescope        =  AR
# Epoch_topo       =  58235.238878689262
# Epoch_bary       =  N/A
# T_sample         =  0.002
# Data Folded      =  7208960
# Data Avg         =  0.0578155346266429
# Data StdDev      =  1.00039667639609 
# Profile Bins     =  512
# Profile Avg      =  814.04175694666  
# Profile StdDev   =  118.706245087747 
# Reduced chi-sqr  =  1.316
# Prob(Noise)      <  1.96e-06   (~4.6 sigma)
# P_topo (ms)      =  714.550043528059  +/- 0.000205
# P'_topo (s/s)    =  -0                +/- 1.1e-10
# P''_topo (s/s^2) =  0                 +/- 4.96e-14
# P_bary (ms)      =  N/A
# P'_bary (s/s)    =  N/A
# P''_bary (s/s^2) =  N/A
# P_orb (s)        =  N/A
# asin(i)/c (s)    =  N/A
# eccentricity     =  N/A
# w (rad)          =  N/A
# T_peri           =  N/A
######################################################
   0  1422.696
   1  1409.183
   2  1190.002
   3  997.1843
   4  823.087
   5  739.2513
   6  837.6418
   7  865.4543
   8  971.6085
   9  850.324
  10  892.8373
  11  767.6015
  12  757.1989
  13  816.4733
  14  790.4521
  15  834.3948
  16  747.5491
  17  774.8112
  18  830.6745
  19  678.6043
  20  733.8958
  21  845.9948
  22  845.1605
  23  887.7824
  24  740.6004
  25  786.554
  26  877.0719
  27  838.4246
  28  894.5985
  29  835.078
  30  818.7764
  31  834.3776
  32  792.9509
  33  847.2874
  34  823.3521
  35  765.6693
  36  791.0148
  37  760.7383
  38  747.4874
  39  792.2733
  40  793.9011
  41  769.3245
  42  882.8117
  43  778.2419
  44  799.7155
  45  893.5955
  46  925.4759
  47  1031.84
  48  898.4146
  49  864.8613
  50  758.3065
  51  801.5546
  52  944.6472
  53  941.7991
  54  922.6636
  55  911.7834
  56  981.2997
  57  840.797
  58  877.9185
  59  926.1481
  60  850.847
  61  811.8195
  62  777.7662
  63  754.6919
  64  798.1583
  65  826.7634
  66  972.1164
  67  865.5925
  68  706.149
  69  801.7239
  70  846.4203
  71  777.0888
  72  738.8965
  73  847.6718
  74  816.6859
  75  765.1303
  76  754.5107
  77  742.8494
  78  835.7106
  79  931.7589
  80  880.7062
  81  736.8694
  82  746.9873
  83  807.2383
  84  782.1328
  85  815.2712
  86  848.0802
  87  804.7119
  88  750.5869
  89  673.6472
  90  803.6479
  91  852.1608
  92  840.3788
  93  816.2822
  94  770.0811
  95  864.3394
  96  810.4891
  97  758.5142
  98  919.2346
  99  1014.873
 100  901.8543
 101  935.5414
 102  777.1514
 103  707.3314
 104  805.6939
 105  809.683
 106  709.9078
 107  872.0444
 108  786.4195
 109  785.0992
 110  722.2451
 111  843.821
 112  872.4048
 113  836.4703
 114  854.7428
 115  857.6306
 116  778.6006
 117  754.138
 118  752.427
 119  744.1754
 120  766.1439
 121  719.1961
 122  763.748
 123  744.7415
 124  766.9095
 125  824.3803
 126  800.5294
 127  731.6073
 128  743.5493
 129  746.9055
 130  829.3632
 131  916.207
 132  848.7552
 133  700.9098
 134  772.542
 135  844.849
 136  802.3404
 137  828.1714
 138  796.8774
 139  780.8917
 140  748.6575
 141  894.3441
 142  922.6467
 143  854.5204
 144  816.722
 145  848.0418
 146  763.5885
 147  766.1013
 148  804.3805
 149  784.0406
 150  724.5441
 151  727.1579
 152  752.536
 153  755.444
 154  763.2355
 155  811.0507
 156  835.5555
 157  846.9457
 158  818.9647
 159  753.7415
 160  708.2971
 161  723.1667
 162  716.126
 163  782.5637
 164  871.8478
 165  863.5084
 166  807.2692
 167  883.6215
 168  829.3082
 169  868.7642
 170  708.6581
 171  732.5598
 172  842.692
 173  764.8503
 174  859.6375
 175  881.6613
 176  915.2047
 177  802.1172
 178  758.4428
 179  841.8919
 180  816.4185
 181  820.5635
 182  924.4246
 183  827.2641
 184  776.8105
 185  786.3829
 186  619.6243
 187  723.0748
 188  764.0256
 189  780.4387
 190  750.7702
 191  742.8469
 192  791.2271
 193  712.4421
 194  737.4698
 195  688.8949
 196  779.0062
 197  798.4062
 198  769.3287
 199  748.7668
 200  776.9833
 201  860.7114
 202  928.087
 203  877.3381
 204  797.3177
 205  808.8232
 206  764.451
 207  901.6055
 208  878.9178
 209  894.8096
 210  759.8069
 211  701.9904
 212  888.1515
 213  840.3735
 214  764.2894
 215  791.212
 216  818.2853
 217  779.8648
 218  779.1944
 219  816.7234
 220  787.9846
 221  717.0915
 222  818.9671
 223  821.7806
 224  745.6558
 225  799.5996
 226  754.43
 227  885.5737
 228  972.8227
 229  900.3048
 230  807.0142
 231  906.9586
 232  849.1299
 233  819.8356
 234  891.1735
 235  852.6772
 236  871.7744
 237  889.4762
 238  882.7485
 239  872.5208
 240  807.9457
 241  889.2828
 242  853.3706
 243  889.5206
 244  847.3043
 245  898.2227
 246  1003.943
 247  950.9351
 248  890.1559
 249  833.2692
 250  876.8979
 251  707.5653
 252  740.1382
 253  822.4853
 254  915.1622
 255  1016.705
 256  909.2558
 257  927.4146
 258  982.3743
 259  926.8095
 260  796.758
 261  909.3005
 262  975.8567
 263  874.22
 264  791.3541
 265  834.3666
 266  898.8339
 267  893.7676
 268  712.2877
 269  732.1711
 270  783.4707
 271  908.5267
 272  897.1912
 273  944.6261
 274  935.6659
 275  884.5024
 276  869.6069
 277  776.7217
 278  844.6639
 279  890.7136
 280  837.2756
 281  735.15
 282  723.2604
 283  703.9845
 284  761.0538
 285  716.7191
 286  644.2458
 287  713.1512
 288  859.0639
 289  905.1464
 290  890.8455
 291  882.7305
 292  916.3716
 293  787.0867
 294  736.6911
 295  804.9419
 296  803.282
 297  741.8833
 298  853.4868
 299  884.2664
 300  864.8448
 301  770.9978
 302  670.3362
 303  725.2433
 304  840.3359
 305  693.2265
 306  785.3993
 307  842.3961
 308  845.5864
 309  788.5203
 310  875.9784
 311  945.3633
 312  1002.3
 313  911.5483
 314  818.4113
 315  811.7177
 316  770.9822
 317  746.7137
 318  701.8386
 319  805.08
 320  820.2528
 321  809.3472
 322  866.3532
 323  816.1899
 324  850.5453
 325  806.2156
 326  765.8922
 327  740.625
 328  891.6811
 329  885.0299
 330  924.6788
 331  893.5513
 332  835.7077
 333  924.7726
 334  788.2075
 335  682.8863
 336  732.0127
 337  749.3787
 338  862.2929
 339  830.267
 340  837.769
 341  835.1083
 342  777.8977
 343  739.075
 344  784.985
 345  848.5217
 346  861.0311
 347  781.3585
 348  795.4337
 349  899.5862
 350  863.5846
 351  822.1376
 352  942.3264
 353  1060.702
 354  934.6098
 355  863.4194
 356  952.5507
 357  898.9466
 358  845.8766
 359  839.6396
 360  857.3719
 361  819.0139
 362  781.4212
 363  835.7028
 364  814.83
 365  942.1141
 366  814.4275
 367  900.5362
 368  863.7114
 369  839.0377
 370  902.7304
 371  906.4496
 372  842.9256
 373  774.0682
 374  813.4777
 375  877.2413
 376  783.1843
 377  734.3769
 378  781.3389
 379  795.1428
 380  889.4385
 381  1033.394
 382  957.4735
 383  828.207
 384  765.5863
 385  762.8276
 386  753.561
 387  723.176
 388  782.5112
 389  741.5629
 390  712.2059
 391  846.4507
 392  862.1967
 393  879.2322
 394  648.502
 395  715.1535
 396  730.483
 397  798.8351
 398  796.0847
 399  627.4189
 400  775.0864
 401  788.7988
 402  808.2844
 403  673.8641
 404  655.8929
 405  654.8542
 406  675.6817
 407  718.1329
 408  611.0543
 409  630.9486
 410  719.3268
 411  752.671
 412  789.3174
 413  690.9725
 414  644.0681
 415  629.7031
 416  810.6619
 417  788.2295
 418  669.8091
 419  843.8057
 420  862.183
 421  691.0502
 422  730.5236
 423  854.5931
 424  833.3519
 425  722.7365
 426  734.3604
 427  821.5862
 428  694.1216
 429  668.6763
 430  811.5103
 431  774.0721
 432  704.0112
 433  661.0822
 434  736.5964
 435  768.0696
 436  806.9976
 437  636.2635
 438  591.2469
 439  676.3562
 440  662.6925
 441  757.1158
 442  667.6131
 443  741.1231
 444  815.8743
 445  799.4146
 446  834.2358
 447  725.2141
 448  710.0445
 449  734.2137
 450  632.1155
 451  671.9171
 452  767.3486
 453  747.4551
 454  644.9767
 455  736.3255
 456  807.7288
 457  852.7457
 458  788.5347
 459  818.7697
 460  766.2166
 461  746.5084
 462  816.0547
 463  797.1722
 464  800.5149
 465  821.2834
 466  763.5992
 467  795.301
 468  769.837
 469  737.2142
 470  643.1169
 471  725.0042
 472  781.4842
 473  769.6208
 474  760.6839
 475  610.4529
 476  807.4221
 477  822.4777
 478  867.8886
 479  815.0125
 480  883.0922
 481  744.4299
 482  682.348
 483  734.8248
 484  694.7951
 485  730.6105
 486  813.0049
 487  731.668
 488  709.5215
 489  762.8682
 490  862.6558
 491  767.0367
 492  875.4898
 493  844.2065
 494  827.7655
 495  868.6689
 496  846.0111
 497  792.4248
 498  744.3207
 499  768.7095
 500  763.0945
 501  729.658
 502  737.2203
 503  826.5587
 504  843.4945
 505  836.5942
 506  878.2197
 507  881.0184
 508  938.5421
 509  1148.423
 510  1408.118
 511  1571.588
