# Input file       =  1208685322.118577_cleaned.dat
# Candidate        =  PSR_0332+5434
# Telescope        =  AR
# Epoch_topo       =  58233.413242113158
# Epoch_bary       =  N/A
# T_sample         =  0.002
# Data Folded      =  7340032
# Data Avg         =  0.0526798389973209
# Data StdDev      =  1.00022203310365 
# Profile Bins     =  512
# Profile Avg      =  755.254001122155 
# Profile StdDev   =  119.759621074442 
# Reduced chi-sqr  =  1.375
# Prob(Noise)      <  3.41e-08   (~5.4 sigma)
# P_topo (ms)      =  714.55165016788   +/- 0.000581
# P'_topo (s/s)    =  -0                +/- 3.06e-10
# P''_topo (s/s^2) =  0                 +/- 1.35e-13
# P_bary (ms)      =  N/A
# P'_bary (s/s)    =  N/A
# P''_bary (s/s^2) =  N/A
# P_orb (s)        =  N/A
# asin(i)/c (s)    =  N/A
# eccentricity     =  N/A
# w (rad)          =  N/A
# T_peri           =  N/A
######################################################
   0  1347.925
   1  1273.292
   2  1056.842
   3  867.5016
   4  772.9916
   5  717.0803
   6  681.1375
   7  727.3017
   8  750.106
   9  832.7343
  10  829.702
  11  796.9326
  12  768.2156
  13  792.207
  14  911.8166
  15  861.2386
  16  798.0388
  17  782.5638
  18  791.6436
  19  709.4385
  20  581.5577
  21  674.502
  22  726.4954
  23  614.2657
  24  638.7023
  25  629.1055
  26  620.9344
  27  592.1002
  28  652.4537
  29  654.5713
  30  684.3649
  31  614.4379
  32  642.3278
  33  617.3627
  34  622.4118
  35  698.0856
  36  702.7385
  37  677.3826
  38  665.781
  39  702.0963
  40  631.667
  41  690.702
  42  733.5061
  43  696.2439
  44  702.6056
  45  686.1866
  46  681.1677
  47  689.0514
  48  726.2213
  49  753.9796
  50  844.9742
  51  791.694
  52  701.8587
  53  706.2558
  54  697.6922
  55  737.5313
  56  743.6109
  57  706.7307
  58  682.5038
  59  679.6688
  60  747.2552
  61  642.16
  62  642.6054
  63  721.5488
  64  740.9214
  65  739.1647
  66  742.9501
  67  755.9703
  68  783.959
  69  729.6395
  70  669.1064
  71  666.6412
  72  726.2721
  73  805.1385
  74  769.2673
  75  840.8632
  76  903.2982
  77  813.4701
  78  886.634
  79  899.2635
  80  801.3419
  81  796.7933
  82  875.2316
  83  872.2282
  84  833.4515
  85  786.836
  86  799.3947
  87  803.7672
  88  755.928
  89  746.1182
  90  714.1329
  91  744.4829
  92  699.8915
  93  820.5833
  94  876.8461
  95  834.8773
  96  775.809
  97  721.3539
  98  744.2449
  99  801.1888
 100  791.6922
 101  776.1002
 102  760.7638
 103  747.2376
 104  753.922
 105  785.993
 106  904.957
 107  902.088
 108  873.4628
 109  865.3244
 110  872.6392
 111  794.4485
 112  839.8589
 113  771.4585
 114  766.5119
 115  810.9577
 116  786.9717
 117  742.0259
 118  800.7411
 119  849.0641
 120  856.3766
 121  831.1068
 122  861.8137
 123  895.1426
 124  879.7336
 125  796.6718
 126  779.1585
 127  799.5932
 128  748.339
 129  712.3471
 130  690.6697
 131  708.0466
 132  704.2939
 133  795.2716
 134  798.6685
 135  762.1088
 136  728.2783
 137  760.3359
 138  742.1501
 139  740.5246
 140  774.3204
 141  768.2519
 142  770.5181
 143  684.7062
 144  672.6378
 145  766.0857
 146  716.1394
 147  812.3129
 148  800.7162
 149  740.6818
 150  805.3387
 151  827.8205
 152  841.8757
 153  893.1337
 154  805.3909
 155  773.7621
 156  685.7083
 157  728.0718
 158  796.6002
 159  756.9943
 160  744.2174
 161  804.5564
 162  770.5063
 163  826.8679
 164  764.8462
 165  719.8064
 166  627.0324
 167  664.2861
 168  680.0493
 169  704.8688
 170  768.3102
 171  693.805
 172  727.6505
 173  662.6817
 174  648.959
 175  617.7822
 176  657.5449
 177  635.9471
 178  651.4159
 179  712.4424
 180  671.5212
 181  659.0304
 182  624.2061
 183  710.6884
 184  659.7473
 185  757.1349
 186  800.8542
 187  706.6231
 188  738.9617
 189  738.4021
 190  833.516
 191  901.4261
 192  740.2261
 193  749.1381
 194  795.1831
 195  793.002
 196  755.5161
 197  784.8881
 198  796.6386
 199  832.2714
 200  773.0918
 201  763.3439
 202  743.3825
 203  654.3317
 204  710.6319
 205  720.9971
 206  597.6143
 207  639.3108
 208  725.4453
 209  681.7177
 210  644.6818
 211  705.5201
 212  792.1757
 213  749.5143
 214  656.404
 215  741.2858
 216  790.6964
 217  753.5931
 218  753.9545
 219  800.5671
 220  778.9852
 221  804.7241
 222  830.7803
 223  793.5523
 224  760.7441
 225  762.7786
 226  770.7252
 227  742.8124
 228  795.2915
 229  873.2518
 230  849.6087
 231  725.0781
 232  701.6084
 233  736.0189
 234  694.0064
 235  637.8751
 236  629.3107
 237  752.9066
 238  770.0104
 239  744.424
 240  754.9681
 241  699.3988
 242  742.0792
 243  712.1001
 244  675.4822
 245  665.2814
 246  663.7473
 247  658.5204
 248  709.0797
 249  698.3822
 250  602.2864
 251  626.4884
 252  658.9243
 253  674.3222
 254  747.7175
 255  742.8749
 256  750.3502
 257  757.4849
 258  759.3491
 259  844.2953
 260  885.3294
 261  845.7336
 262  795.7918
 263  736.7388
 264  774.8502
 265  753.5829
 266  669.1561
 267  758.1288
 268  746.8528
 269  750.7021
 270  799.7599
 271  838.7193
 272  792.2003
 273  796.2199
 274  777.6675
 275  895.9533
 276  887.5725
 277  890.8314
 278  953.2613
 279  934.8085
 280  937.1613
 281  893.1315
 282  889.6219
 283  875.3958
 284  911.6959
 285  927.5558
 286  899.5004
 287  930.1377
 288  887.7977
 289  858.7328
 290  846.7642
 291  881.4655
 292  819.0819
 293  871.1451
 294  906.442
 295  933.215
 296  865.0421
 297  822.2927
 298  835.957
 299  771.8915
 300  889.6496
 301  828.7229
 302  799.5484
 303  852.5414
 304  858.9804
 305  760.9855
 306  814.0229
 307  764.3083
 308  715.6603
 309  724.5703
 310  788.46
 311  786.0157
 312  676.8497
 313  751.0049
 314  781.1222
 315  791.9309
 316  780.5974
 317  820.8863
 318  712.4099
 319  676.4962
 320  679.0844
 321  791.8919
 322  839.7307
 323  779.4195
 324  720.8054
 325  775.8696
 326  777.1227
 327  777.0271
 328  773.4788
 329  799.9119
 330  729.2424
 331  749.8583
 332  746.1613
 333  713.6579
 334  706.7717
 335  744.6736
 336  735.3511
 337  733.7947
 338  756.7416
 339  670.5795
 340  712.7768
 341  807.9608
 342  781.1417
 343  842.212
 344  837.4447
 345  816.7192
 346  840.3038
 347  790.6417
 348  814.6562
 349  794.2438
 350  858.6543
 351  815.4832
 352  793.0001
 353  735.4681
 354  832.8118
 355  796.1062
 356  786.5411
 357  778.856
 358  732.0012
 359  781.1752
 360  842.8358
 361  778.3321
 362  794.8342
 363  778.8013
 364  827.3535
 365  779.6677
 366  774.8435
 367  813.5043
 368  819.7838
 369  842.3029
 370  783.7078
 371  754.9865
 372  816.7067
 373  800.4359
 374  787.5028
 375  779.676
 376  803.0527
 377  833.2602
 378  814.0641
 379  799.6813
 380  820.2696
 381  844.8591
 382  875.5134
 383  835.1142
 384  699.057
 385  651.1013
 386  753.2451
 387  767.1093
 388  737.905
 389  671.8967
 390  715.0542
 391  733.8585
 392  693.9316
 393  638.1438
 394  710.9349
 395  694.5792
 396  699.8391
 397  727.3
 398  778.1008
 399  656.3302
 400  623.8733
 401  589.0362
 402  679.7306
 403  668.9032
 404  703.5095
 405  668.2609
 406  642.6387
 407  649.6511
 408  622.3453
 409  655.7725
 410  683.6703
 411  659.9456
 412  647.2656
 413  663.032
 414  626.1482
 415  654.4365
 416  688.7565
 417  593.9742
 418  590.6873
 419  610.645
 420  615.8713
 421  611.929
 422  636.9147
 423  641.8792
 424  609.6293
 425  661.8346
 426  600.1012
 427  570.6091
 428  643.3516
 429  692.403
 430  672.2162
 431  680.8129
 432  689.2243
 433  642.3367
 434  643.4683
 435  580.5679
 436  714.5787
 437  611.3808
 438  626.8854
 439  633.957
 440  605.9369
 441  601.3948
 442  530.8651
 443  619.9087
 444  641.8201
 445  588.222
 446  586.5379
 447  655.3729
 448  619.8799
 449  570.7875
 450  529.5181
 451  560.3516
 452  566.4056
 453  684.7678
 454  664.296
 455  680.0543
 456  659.3252
 457  658.7831
 458  705.5122
 459  630.9607
 460  584.8511
 461  597.6665
 462  652.848
 463  717.6233
 464  597.2337
 465  604.0681
 466  692.0829
 467  586.4474
 468  613.1826
 469  657.4995
 470  750.6695
 471  732.5136
 472  651.6187
 473  655.5885
 474  661.2272
 475  706.7252
 476  741.4337
 477  715.2111
 478  731.2113
 479  675.9623
 480  765.9191
 481  828.4636
 482  760.4756
 483  792.8089
 484  808.2953
 485  757.0398
 486  799.7106
 487  806.5632
 488  806.4023
 489  743.5864
 490  909.7454
 491  920.877
 492  1028.386
 493  1096.524
 494  1002.275
 495  891.0682
 496  824.6836
 497  895.8726
 498  932.2977
 499  844.5182
 500  904.8331
 501  888.4072
 502  873.3635
 503  780.271
 504  793.0165
 505  832.1803
 506  893.2624
 507  919.1255
 508  983.0913
 509  1099.237
 510  1202.415
 511  1384.016
