# Input file       =  1208254407.118015_cleaned.dat
# Candidate        =  PSR_0332+5434
# Telescope        =  AR
# Epoch_topo       =  58228.425799977027
# Epoch_bary       =  N/A
# T_sample         =  0.002
# Data Folded      =  7340032
# Data Avg         =  0.0439468157511305
# Data StdDev      =  1.00000767243793 
# Profile Bins     =  512
# Profile Avg      =  630.031933087149 
# Profile StdDev   =  119.733955021055 
# Reduced chi-sqr  =  1.608
# Prob(Noise)      <  6.8e-17   (~8.3 sigma)
# P_topo (ms)      =  714.555852125864  +/- 0.000438
# P'_topo (s/s)    =  -0                +/- 2.31e-10
# P''_topo (s/s^2) =  0                 +/- 1.02e-13
# P_bary (ms)      =  N/A
# P'_bary (s/s)    =  N/A
# P''_bary (s/s^2) =  N/A
# P_orb (s)        =  N/A
# asin(i)/c (s)    =  N/A
# eccentricity     =  N/A
# w (rad)          =  N/A
# T_peri           =  N/A
######################################################
   0  1167.279
   1  1090.634
   2  954.6149
   3  767.7793
   4  677.7807
   5  708.03
   6  783.8438
   7  723.4241
   8  667.3362
   9  610.1286
  10  567.4178
  11  643.1667
  12  666.9759
  13  676.3136
  14  780.0624
  15  768.9727
  16  787.4871
  17  757.0756
  18  675.6961
  19  650.0224
  20  632.7476
  21  620.6225
  22  627.1871
  23  654.5809
  24  645.5909
  25  623.506
  26  665.4849
  27  676.256
  28  643.9068
  29  657.6769
  30  669.4299
  31  668.9643
  32  574.0563
  33  583.9471
  34  563.5372
  35  537.862
  36  547.6462
  37  549.6406
  38  524.0828
  39  436.8423
  40  508.3538
  41  571.1817
  42  565.7536
  43  499.4336
  44  513.7055
  45  560.3261
  46  589.3622
  47  528.0016
  48  530.5271
  49  560.2995
  50  647.4877
  51  625.2189
  52  563.6328
  53  620.7881
  54  673.5999
  55  725.9375
  56  648.2272
  57  690.3365
  58  793.0298
  59  713.9196
  60  565.5447
  61  657.6273
  62  656.2908
  63  684.4352
  64  657.5733
  65  652.8184
  66  675.338
  67  718.8524
  68  779.6092
  69  690.4812
  70  613.0106
  71  642.9485
  72  649.4196
  73  711.5369
  74  720.8304
  75  647.4658
  76  682.2369
  77  639.4539
  78  658.1303
  79  602.3394
  80  628.4041
  81  638.634
  82  661.8186
  83  624.0648
  84  668.7559
  85  597.9404
  86  598.1325
  87  594.3628
  88  601.7501
  89  580.7255
  90  553.5967
  91  591.347
  92  615.9227
  93  593.4727
  94  561.5963
  95  592.271
  96  669.9731
  97  732.4188
  98  622.0559
  99  582.5991
 100  595.9528
 101  658.7888
 102  630.1014
 103  606.1906
 104  586.9394
 105  617.1164
 106  640.1467
 107  598.5054
 108  494.0274
 109  495.0101
 110  539.1387
 111  589.7071
 112  582.775
 113  647.9882
 114  628.827
 115  547.0393
 116  543.1316
 117  562.4001
 118  652.8145
 119  646.273
 120  669.6968
 121  658.149
 122  536.6748
 123  609.3849
 124  598.6248
 125  617.5412
 126  672.368
 127  661.7023
 128  689.9745
 129  620.5863
 130  616.2107
 131  687.4221
 132  657.2769
 133  686.3127
 134  646.9492
 135  660.0851
 136  708.6601
 137  650.1974
 138  590.224
 139  701.1246
 140  787.7007
 141  698.7454
 142  680.7864
 143  701.1282
 144  698.3795
 145  677.5035
 146  643.0286
 147  678.6385
 148  670.946
 149  684.6581
 150  636.0499
 151  564.5165
 152  545.5358
 153  587.5205
 154  584.8374
 155  581.0339
 156  606.756
 157  610.1984
 158  585.2339
 159  545.7181
 160  658.3952
 161  597.1583
 162  517.1774
 163  553.0089
 164  537.4688
 165  545.4867
 166  582.6293
 167  575.9831
 168  595.9689
 169  548.5611
 170  528.4779
 171  595.8819
 172  510.2422
 173  577.4412
 174  558.5284
 175  456.7819
 176  484.1617
 177  567.5522
 178  491.1937
 179  528.5943
 180  489.9727
 181  545.1732
 182  632.0146
 183  557.9875
 184  616.4346
 185  691.2026
 186  625.1845
 187  573.7546
 188  591.9556
 189  541.3864
 190  539.3441
 191  569.9272
 192  667.2522
 193  699.3732
 194  660.523
 195  644.0078
 196  585.571
 197  594.5488
 198  642.296
 199  573.8623
 200  575.5338
 201  612.3394
 202  649.3282
 203  661.8029
 204  693.9874
 205  722.6503
 206  703.3833
 207  661.9055
 208  669.2344
 209  722.0507
 210  680.2266
 211  650.7394
 212  725.4747
 213  812.9305
 214  781.1244
 215  789.9789
 216  729.6312
 217  762.6709
 218  751.9238
 219  693.9059
 220  682.79
 221  678.1366
 222  711.3233
 223  734.4587
 224  686.0275
 225  611.8648
 226  693.0938
 227  596.7479
 228  633.968
 229  663.6228
 230  641.3352
 231  661.1176
 232  671.0464
 233  688.4793
 234  692.3887
 235  628.9644
 236  696.2435
 237  682.5793
 238  594.3617
 239  615.8728
 240  677.1128
 241  696.7277
 242  654.1805
 243  592.4896
 244  674.0634
 245  597.9319
 246  597.6695
 247  601.1404
 248  560.912
 249  512.0047
 250  583.5707
 251  663.2596
 252  646.2556
 253  701.8782
 254  639.1208
 255  608.3394
 256  538.0283
 257  642.0693
 258  651.4543
 259  602.1331
 260  621.4069
 261  671.3354
 262  628.0131
 263  518.8984
 264  561.382
 265  652.763
 266  656.3853
 267  584.09
 268  606.5489
 269  643.2112
 270  619.3564
 271  590.0624
 272  596.5472
 273  624.1927
 274  735.4337
 275  783.0993
 276  758.6324
 277  704.2117
 278  591.9586
 279  644.2798
 280  744.8378
 281  744.4022
 282  788.5867
 283  808.3871
 284  757.0589
 285  730.6354
 286  774.5147
 287  825.619
 288  788.4135
 289  688.5389
 290  674.4949
 291  763.4684
 292  809.2262
 293  822.7822
 294  730.3764
 295  685.4005
 296  623.2051
 297  740.1866
 298  823.2447
 299  745.3879
 300  769.2718
 301  748.8706
 302  719.6519
 303  687.8618
 304  709.0602
 305  720.6188
 306  758.3117
 307  693.8494
 308  714.3992
 309  643.1959
 310  653.2095
 311  632.7363
 312  652.6255
 313  669.4397
 314  660.1724
 315  706.6931
 316  663.6969
 317  674.9515
 318  708.0651
 319  759.4014
 320  692.3279
 321  667.865
 322  628.7332
 323  560.1872
 324  524.9337
 325  534.976
 326  526.838
 327  562.1534
 328  612.6521
 329  631.5133
 330  629.6725
 331  567.5161
 332  432.709
 333  498.2086
 334  546.6818
 335  556.6531
 336  519.2072
 337  497.0593
 338  510.0212
 339  496.8359
 340  546.4402
 341  502.585
 342  462.4955
 343  456.9746
 344  433.7147
 345  427.9258
 346  471.1976
 347  502.4246
 348  550.1172
 349  566.2001
 350  499.5309
 351  455.7996
 352  484.771
 353  626.4055
 354  555.2391
 355  536.7959
 356  563.6168
 357  538.6888
 358  530.5042
 359  452.1857
 360  533.6526
 361  530.2667
 362  546.5905
 363  511.3712
 364  455.6029
 365  526.7686
 366  496.2275
 367  443.1697
 368  417.7581
 369  524.7623
 370  482.9006
 371  469.0331
 372  503.6855
 373  471.4728
 374  433.0919
 375  456.0323
 376  519.6511
 377  486.7633
 378  335.5656
 379  304.8376
 380  354.1347
 381  405.2444
 382  378.0916
 383  381.5529
 384  378.5407
 385  352.2464
 386  330.9404
 387  342.1704
 388  436.6437
 389  521.7816
 390  480.9342
 391  387.7212
 392  430.1683
 393  485.4086
 394  547.3391
 395  520.1135
 396  480.8548
 397  573.9274
 398  491.6352
 399  483.4346
 400  451.9911
 401  486.7226
 402  550.0571
 403  495.9234
 404  378.1478
 405  464.3309
 406  490.3156
 407  499.6559
 408  461.8723
 409  453.7957
 410  521.548
 411  587.8815
 412  568.5319
 413  570.6561
 414  563.6185
 415  600.1525
 416  622.5356
 417  668.063
 418  677.5626
 419  684.8082
 420  655.426
 421  662.871
 422  676.2433
 423  611.0642
 424  662.6685
 425  692.8804
 426  667.0246
 427  684.4826
 428  776.8422
 429  786.0261
 430  761.1122
 431  794.8865
 432  827.9108
 433  811.4485
 434  711.1019
 435  735.0313
 436  738.4821
 437  676.2307
 438  684.579
 439  702.4686
 440  688.4095
 441  684.12
 442  698.7567
 443  693.8135
 444  641.8915
 445  634.382
 446  670.0858
 447  553.8698
 448  602.4016
 449  612.7113
 450  598.7142
 451  586.6724
 452  607.1789
 453  696.3968
 454  573.7574
 455  639.2097
 456  696.2266
 457  650.5794
 458  641.1913
 459  541.8582
 460  535.7097
 461  648.5088
 462  562.0575
 463  541.1398
 464  536.0439
 465  597.0553
 466  610.7753
 467  597.7649
 468  597.7617
 469  572.0026
 470  545.4478
 471  625.2439
 472  572.8458
 473  627.6779
 474  627.2698
 475  703.8141
 476  682.3441
 477  642.3509
 478  685.8569
 479  729.851
 480  710.905
 481  673.2086
 482  687.5837
 483  738.4927
 484  748.0297
 485  749.925
 486  728.767
 487  748.3322
 488  780.1592
 489  731.185
 490  756.0414
 491  863.944
 492  858.9335
 493  801.8735
 494  757.3501
 495  769.6808
 496  717.9106
 497  740.6729
 498  775.2458
 499  834.8416
 500  814.6901
 501  778.08
 502  790.3463
 503  791.0643
 504  833.4668
 505  797.5314
 506  809.7174
 507  891.7477
 508  925.9299
 509  963.0695
 510  1051.996
 511  1154.304
