# Input file       =  1208527894.109575_cleaned.dat
# Candidate        =  PSR_0332+5434
# Telescope        =  AR
# Epoch_topo       =  58231.591158675634
# Epoch_bary       =  N/A
# T_sample         =  0.002
# Data Folded      =  7340032
# Data Avg         =  0.0448857574610576
# Data StdDev      =  1.00011311570636 
# Profile Bins     =  512
# Profile Avg      =  643.507489436419 
# Profile StdDev   =  119.74658006375  
# Reduced chi-sqr  =  1.845
# Prob(Noise)      <  4.45e-28   (~10.9 sigma)
# P_topo (ms)      =  714.55354621928   +/- 0.000301
# P'_topo (s/s)    =  -0                +/- 1.59e-10
# P''_topo (s/s^2) =  0                 +/- 7.02e-14
# P_bary (ms)      =  N/A
# P'_bary (s/s)    =  N/A
# P''_bary (s/s^2) =  N/A
# P_orb (s)        =  N/A
# asin(i)/c (s)    =  N/A
# eccentricity     =  N/A
# w (rad)          =  N/A
# T_peri           =  N/A
######################################################
   0  1483.563
   1  1353.926
   2  1000.934
   3  768.1216
   4  662.4766
   5  607.0251
   6  596.6227
   7  587.0775
   8  633.8783
   9  676.7524
  10  705.9479
  11  650.8574
  12  667.394
  13  717.0149
  14  698.5405
  15  679.8807
  16  655.1078
  17  618.3607
  18  620.2202
  19  628.1411
  20  650.2936
  21  639.7773
  22  705.1302
  23  723.6946
  24  693.2727
  25  657.2637
  26  684.1668
  27  631.7472
  28  688.8724
  29  590.2114
  30  597.0165
  31  602.8283
  32  606.4073
  33  697.3253
  34  725.0214
  35  675.5084
  36  600.5341
  37  611.7559
  38  621.2916
  39  546.0227
  40  516.9255
  41  450.829
  42  491.1766
  43  494.8643
  44  553.4371
  45  596.8514
  46  615.1985
  47  517.7306
  48  602.3179
  49  653.2729
  50  621.2657
  51  620.7205
  52  582.1539
  53  576.4385
  54  525.5388
  55  525.019
  56  600.4558
  57  605.7234
  58  470.3396
  59  432.856
  60  464.3271
  61  471.0387
  62  425.5181
  63  495.1296
  64  523.0604
  65  494.0555
  66  445.9637
  67  487.0632
  68  534.3536
  69  495.5677
  70  539.6437
  71  622.7892
  72  701.5643
  73  587.0003
  74  474.7243
  75  515.3008
  76  539.198
  77  511.6463
  78  653.5067
  79  711.3439
  80  622.8933
  81  534.3824
  82  562.4224
  83  598.1897
  84  527.5765
  85  478.8489
  86  625.9691
  87  624.1646
  88  502.8753
  89  568.5972
  90  502.7237
  91  459.2012
  92  479.8733
  93  632.0016
  94  638.1096
  95  567.4504
  96  535.4178
  97  614.3618
  98  538.6786
  99  527.8643
 100  586.0581
 101  645.6318
 102  622.7995
 103  626.8716
 104  733.9641
 105  651.4305
 106  586.244
 107  526.6125
 108  604.1695
 109  654.9579
 110  531.965
 111  491.3514
 112  428.496
 113  566.5126
 114  546.8037
 115  570.4381
 116  598.6115
 117  568.717
 118  511.6981
 119  605.7217
 120  567.6531
 121  557.6893
 122  496.024
 123  470.9419
 124  530.9876
 125  528.9118
 126  528.9791
 127  527.9141
 128  583.056
 129  490.3728
 130  495.7991
 131  524.199
 132  657.6686
 133  582.084
 134  488.2906
 135  515.662
 136  546.6558
 137  443.2466
 138  496.3692
 139  489.8322
 140  554.9524
 141  584.1441
 142  644.7224
 143  724.8049
 144  581.0599
 145  456.6307
 146  560.1583
 147  560.8413
 148  644.7883
 149  638.7106
 150  648.7463
 151  613.8374
 152  693.5009
 153  770.6631
 154  632.0918
 155  555.6971
 156  777.7853
 157  852.9653
 158  750.7308
 159  593.8437
 160  717.0281
 161  917.6744
 162  791.4734
 163  791.7899
 164  868.5814
 165  858.0724
 166  786.0823
 167  919.6096
 168  861.5992
 169  793.168
 170  781.9644
 171  751.6168
 172  708.751
 173  774.9572
 174  822.9492
 175  908.8696
 176  936.3334
 177  829.5445
 178  821.7319
 179  816.3834
 180  787.3346
 181  893.6633
 182  849.9442
 183  715.8973
 184  746.3788
 185  801.8386
 186  774.9183
 187  682.5521
 188  660.3558
 189  703.3907
 190  698.1433
 191  669.2621
 192  601.9939
 193  717.4148
 194  757.6357
 195  720.1353
 196  721.9811
 197  767.9367
 198  660.3912
 199  654.1526
 200  631.5211
 201  608.9139
 202  698.6434
 203  667.5201
 204  549.6043
 205  526.0646
 206  717.1036
 207  780.996
 208  583.4105
 209  584.6165
 210  670.4922
 211  593.7654
 212  551.3411
 213  522.4716
 214  648.1805
 215  540.3395
 216  653.6018
 217  690.901
 218  583.1609
 219  638.0284
 220  605.0912
 221  564.5506
 222  613.6616
 223  661.4911
 224  686.3264
 225  574.0722
 226  530.3156
 227  641.6767
 228  762.5369
 229  852.3124
 230  870.4922
 231  726.5615
 232  818.2059
 233  796.0436
 234  879.8007
 235  887.9252
 236  806.3927
 237  755.0331
 238  747.6578
 239  883.8349
 240  834.6854
 241  772.2849
 242  729.8942
 243  797.6563
 244  882.4786
 245  792.371
 246  732.2381
 247  706.5283
 248  710.1797
 249  717.3264
 250  665.9483
 251  682.3584
 252  719.0931
 253  648.9414
 254  621.9805
 255  621.9238
 256  668.5059
 257  613.6135
 258  524.1118
 259  591.5333
 260  602.8137
 261  658.443
 262  696.4531
 263  612.3502
 264  604.2436
 265  662.1667
 266  571.3283
 267  573.6647
 268  681.8376
 269  625.0412
 270  628.9739
 271  617.8223
 272  598.2122
 273  688.0055
 274  709.9999
 275  657.744
 276  626.3621
 277  548.2161
 278  603.0859
 279  664.817
 280  679.9634
 281  667.1445
 282  692.1002
 283  666.6968
 284  566.013
 285  687.5885
 286  709.6317
 287  643.4019
 288  654.6463
 289  617.774
 290  575.8948
 291  440.8094
 292  506.7101
 293  579.5287
 294  766.2872
 295  704.6146
 296  689.7399
 297  633.536
 298  591.1058
 299  636.2156
 300  691.2937
 301  633.7374
 302  668.9614
 303  692.8217
 304  738.8738
 305  761.4218
 306  777.981
 307  718.5472
 308  685.2292
 309  720.0552
 310  648.9893
 311  630.0149
 312  873.4736
 313  846.0657
 314  772.9763
 315  829.5894
 316  724.3264
 317  715.0323
 318  751.4445
 319  727.4773
 320  724.1069
 321  718.629
 322  628.7432
 323  643.0654
 324  652.567
 325  690.8716
 326  819.0656
 327  688.6299
 328  661.918
 329  653.2961
 330  651.9286
 331  699.3923
 332  667.9597
 333  560.3627
 334  626.0124
 335  618.0519
 336  672.3152
 337  606.8123
 338  607.6448
 339  770.7906
 340  821.6653
 341  607.1959
 342  554.6047
 343  500.2337
 344  698.3785
 345  547.4478
 346  498.3499
 347  599.1742
 348  597.6236
 349  610.7653
 350  572.5286
 351  553.0355
 352  533.3121
 353  657.2276
 354  649.0189
 355  626.566
 356  747.1451
 357  608.315
 358  595.6996
 359  684.8174
 360  676.9255
 361  697.9432
 362  716.2158
 363  831.7403
 364  823.12
 365  740.8571
 366  719.6628
 367  624.0931
 368  626.4141
 369  649.5252
 370  607.7012
 371  591.5591
 372  634.9394
 373  601.4774
 374  635.3801
 375  638.3402
 376  649.4962
 377  669.3337
 378  691.9402
 379  698.075
 380  587.875
 381  619.9651
 382  727.066
 383  781.6261
 384  691.4374
 385  620.1698
 386  617.7896
 387  743.063
 388  744.8317
 389  683.9342
 390  644.769
 391  627.6581
 392  688.9323
 393  607.3805
 394  639.1946
 395  537.8159
 396  479.9762
 397  554.4539
 398  594.3551
 399  609.9608
 400  641.1569
 401  505.2715
 402  525.7326
 403  597.7383
 404  660.647
 405  626.6945
 406  544.2889
 407  523.6559
 408  537.3804
 409  556.5551
 410  540.9319
 411  551.3955
 412  620.6581
 413  615.0021
 414  442.1469
 415  433.199
 416  582.9122
 417  468.8153
 418  497.4691
 419  580.3771
 420  491.3172
 421  569.8163
 422  588.142
 423  526.8424
 424  426.0476
 425  526.3026
 426  562.6642
 427  527.4225
 428  571.5822
 429  605.1757
 430  568.6608
 431  605.4901
 432  537.037
 433  470.661
 434  557.4521
 435  525.4147
 436  521.1249
 437  481.5059
 438  482.5879
 439  559.0068
 440  534.136
 441  545.0295
 442  533.3214
 443  594.9957
 444  590.1351
 445  555.9755
 446  573.8517
 447  605.1983
 448  657.332
 449  807.5339
 450  738.1199
 451  697.2941
 452  687.2275
 453  723.102
 454  759.2217
 455  827.9491
 456  782.3742
 457  781.4827
 458  686.1956
 459  664.7034
 460  572.667
 461  648.015
 462  732.73
 463  639.927
 464  596.3798
 465  617.9598
 466  529.9902
 467  670.6362
 468  650.4434
 469  608.0966
 470  611.8176
 471  712.6358
 472  671.2578
 473  556.0677
 474  565.2471
 475  611.2867
 476  546.4056
 477  664.2213
 478  709.2801
 479  732.0242
 480  619.2119
 481  623.8983
 482  622.4083
 483  596.3492
 484  615.5624
 485  511.9117
 486  472.9505
 487  597.8594
 488  787.9501
 489  739.3757
 490  670.8727
 491  575.9161
 492  605.0284
 493  730.6987
 494  771.7203
 495  746.533
 496  666.0806
 497  549.4218
 498  618.5456
 499  702.5416
 500  574.7078
 501  582.9294
 502  635.6747
 503  641.2543
 504  603.898
 505  541.9825
 506  606.1468
 507  641.1474
 508  704.2658
 509  926.8795
 510  1167.785
 511  1322.845
