# Input file       =  1208928641.108855_cleaned.dat
# Candidate        =  PSR_0332+5434
# Telescope        =  AR
# Epoch_topo       =  58236.229434130270
# Epoch_bary       =  N/A
# T_sample         =  0.002
# Data Folded      =  7208960
# Data Avg         =  0.0426321915054105
# Data StdDev      =  1.00001463589334 
# Profile Bins     =  512
# Profile Avg      =  600.228257733083 
# Profile StdDev   =  118.660912476571 
# Reduced chi-sqr  =  1.731
# Prob(Noise)      <  1.96e-22   (~9.7 sigma)
# P_topo (ms)      =  714.549182629433  +/- 0.000118
# P'_topo (s/s)    =  -0                +/- 6.35e-11
# P''_topo (s/s^2) =  0                 +/- 2.86e-14
# P_bary (ms)      =  N/A
# P'_bary (s/s)    =  N/A
# P''_bary (s/s^2) =  N/A
# P_orb (s)        =  N/A
# asin(i)/c (s)    =  N/A
# eccentricity     =  N/A
# w (rad)          =  N/A
# T_peri           =  N/A
######################################################
   0  1308.504
   1  1299.812
   2  1097.778
   3  747.7144
   4  568.4107
   5  566.57
   6  577.4406
   7  589.77
   8  622.3785
   9  664.0123
  10  585.9719
  11  606.1128
  12  628.3955
  13  765.241
  14  777.5638
  15  822.507
  16  748.7083
  17  560.0264
  18  547.3029
  19  618.4255
  20  585.4446
  21  478.7289
  22  379.1264
  23  432.5846
  24  478.8136
  25  410.6403
  26  431.3472
  27  493.8682
  28  595.9014
  29  647.3347
  30  652.1502
  31  582.443
  32  434.2899
  33  500.4897
  34  461.0396
  35  443.7119
  36  545.4153
  37  485.4466
  38  421.4234
  39  596.7882
  40  581.9512
  41  460.2567
  42  507.92
  43  606.3758
  44  616.7762
  45  556.1042
  46  652.9507
  47  701.3696
  48  606.0098
  49  439.6954
  50  390.5784
  51  573.7844
  52  620.1464
  53  534.813
  54  506.1799
  55  480.9731
  56  495.5238
  57  599.6789
  58  537.8723
  59  555.7228
  60  553.2245
  61  494.7336
  62  490.2432
  63  648.2387
  64  640.5746
  65  588.8029
  66  606.9738
  67  668.4177
  68  681.4843
  69  773.7818
  70  648.743
  71  611.7423
  72  529.4894
  73  483.6198
  74  534.9451
  75  524.2634
  76  573.7728
  77  679.8993
  78  653.0269
  79  620.3508
  80  577.3841
  81  692.2992
  82  510.45
  83  570.163
  84  586.3314
  85  556.5885
  86  665.4201
  87  678.2027
  88  632.4431
  89  607.0377
  90  600.6249
  91  673.2655
  92  650.9617
  93  657.6934
  94  582.2009
  95  559.4232
  96  681.0018
  97  598.7906
  98  509.8738
  99  445.8318
 100  490.5245
 101  515.9569
 102  557.4207
 103  655.8586
 104  573.7291
 105  406.9123
 106  450.0761
 107  624.9901
 108  608.1074
 109  517.1588
 110  603.2081
 111  669.9694
 112  547.4166
 113  549.6227
 114  531.4693
 115  521.65
 116  602.9529
 117  651.6356
 118  697.4133
 119  596.4828
 120  502.9582
 121  503.938
 122  597.105
 123  634.1641
 124  510.4471
 125  496.324
 126  591.0967
 127  589.4709
 128  669.3984
 129  636.2617
 130  651.4434
 131  566.919
 132  547.4282
 133  463.6988
 134  604.9848
 135  568.7318
 136  626.8748
 137  542.382
 138  450.1914
 139  379.7097
 140  337.8387
 141  568.7344
 142  674.888
 143  603.8091
 144  607.6622
 145  688.1935
 146  593.4951
 147  589.564
 148  545.8035
 149  547.3659
 150  414.5389
 151  494.7605
 152  580.7631
 153  707.7416
 154  649.9474
 155  549.6543
 156  634.9712
 157  545.931
 158  552.7151
 159  499.9095
 160  584.8452
 161  733.1475
 162  771.1157
 163  723.7064
 164  566.1777
 165  594.7927
 166  666.1727
 167  687.9207
 168  584.449
 169  532.3967
 170  598.3384
 171  569.2946
 172  514.6295
 173  445.7369
 174  510.2385
 175  537.8829
 176  611.6503
 177  566.6906
 178  429.3735
 179  578.7628
 180  592.9818
 181  605.6956
 182  557.3734
 183  614.2367
 184  647.62
 185  612.1627
 186  524.1098
 187  506.4765
 188  478.7907
 189  569.9922
 190  602.0782
 191  500.6036
 192  583.4669
 193  704.7523
 194  565.5726
 195  533.7247
 196  649.5467
 197  629.6998
 198  571.728
 199  615.0413
 200  651.9885
 201  683.1317
 202  636.4764
 203  508.2679
 204  456.2646
 205  458.8588
 206  476.196
 207  566.5937
 208  785.8898
 209  676.9652
 210  615.0286
 211  701.1572
 212  528.1617
 213  470.766
 214  507.1634
 215  589.8007
 216  611.8395
 217  637.4534
 218  697.755
 219  629.4276
 220  558.0267
 221  529.4809
 222  512.554
 223  552.7637
 224  586.8201
 225  540.5983
 226  531.0156
 227  589.1367
 228  586.2281
 229  638.7654
 230  675.9143
 231  629.6055
 232  588.6099
 233  488.2816
 234  571.3474
 235  616.2383
 236  631.6859
 237  481.5908
 238  452.5008
 239  512.2133
 240  518.4549
 241  528.2542
 242  609.7157
 243  668.8337
 244  593.9986
 245  579.0834
 246  541.9442
 247  496.514
 248  505.4755
 249  559.5623
 250  530.2289
 251  518.2288
 252  534.9179
 253  586.9525
 254  484.2505
 255  522.4454
 256  533.1553
 257  629.3276
 258  544.0612
 259  554.6997
 260  662.7226
 261  711.6602
 262  716.7296
 263  755.3929
 264  670.7715
 265  627.9925
 266  691.1718
 267  588.1896
 268  558.08
 269  615.2327
 270  700.9987
 271  620.8876
 272  552.2586
 273  510.9548
 274  640.5226
 275  632.7717
 276  572.448
 277  746.6976
 278  687.8005
 279  666.0753
 280  571.2075
 281  570.9918
 282  583.0121
 283  524.0078
 284  525.4719
 285  582.566
 286  559.8894
 287  524.5124
 288  539.0681
 289  486.6118
 290  606.4526
 291  769.4956
 292  702.377
 293  600.6033
 294  646.1727
 295  701.0103
 296  624.0272
 297  594.6072
 298  535.623
 299  493.7934
 300  627.6022
 301  580.6523
 302  522.8391
 303  600.9873
 304  602.9762
 305  606.3718
 306  703.1678
 307  755.0676
 308  828.7737
 309  821.2026
 310  793.547
 311  748.3206
 312  638.6562
 313  527.2689
 314  483.8029
 315  475.4402
 316  640.393
 317  588.2338
 318  562.639
 319  650.9461
 320  514.0377
 321  464.5505
 322  437.6711
 323  538.6094
 324  504.6518
 325  614.4148
 326  649.2935
 327  692.3569
 328  734.8149
 329  657.4442
 330  445.8945
 331  456.5406
 332  515.1573
 333  619.6046
 334  530.9999
 335  527.3253
 336  555.3455
 337  494.9433
 338  489.5235
 339  434.067
 340  505.5729
 341  587.6468
 342  629.2251
 343  615.7307
 344  553.9656
 345  645.4297
 346  602.4971
 347  597.8499
 348  444.2031
 349  460.3089
 350  483.123
 351  455.3266
 352  447.1176
 353  547.7542
 354  484.7997
 355  484.2234
 356  601.9517
 357  676.0432
 358  652.5828
 359  590.6725
 360  595.0807
 361  623.3719
 362  531.854
 363  475.4478
 364  611.4813
 365  710.646
 366  684.109
 367  611.6302
 368  589.3805
 369  650.7598
 370  602.1093
 371  687.3409
 372  751.554
 373  710.9874
 374  558.159
 375  706.8395
 376  746.9015
 377  615.0772
 378  539.2162
 379  574.2396
 380  434.6223
 381  546.1683
 382  713.9825
 383  731.1758
 384  582.989
 385  487.3552
 386  474.6189
 387  532.3336
 388  611.5557
 389  656.4805
 390  792.0618
 391  864.6934
 392  823.6299
 393  745.4772
 394  698.4462
 395  564.3686
 396  478.1286
 397  504.3595
 398  549.1876
 399  679.2051
 400  597.8546
 401  602.1961
 402  687.3359
 403  654.4965
 404  636.3325
 405  599.8802
 406  538.1976
 407  573.7896
 408  686.4539
 409  643.4304
 410  674.6451
 411  663.2977
 412  697.5182
 413  489.7589
 414  544.1135
 415  653.6022
 416  674.7773
 417  580.5373
 418  622.4059
 419  691.1519
 420  587.6061
 421  663.8004
 422  649.1303
 423  678.1844
 424  808.3958
 425  659.6153
 426  662.7723
 427  673.6028
 428  558.0424
 429  579.9172
 430  628.9441
 431  565.4454
 432  568.5935
 433  597.579
 434  648.8832
 435  639.7829
 436  617.373
 437  550.7332
 438  663.4529
 439  720.2492
 440  617.8232
 441  590.0826
 442  694.4017
 443  709.2726
 444  766.3787
 445  757.853
 446  629.799
 447  746.7368
 448  737.4773
 449  742.4071
 450  586.4291
 451  672.4991
 452  766.6708
 453  559.0421
 454  567.4379
 455  705.8386
 456  685.4782
 457  687.3605
 458  786.7697
 459  869.3172
 460  819.5241
 461  654.9458
 462  551.0453
 463  577.9346
 464  578.0253
 465  614.5098
 466  662.043
 467  550.1213
 468  529.1194
 469  477.4599
 470  469.5478
 471  522.7377
 472  503.8096
 473  637.136
 474  650.042
 475  590.9136
 476  580.9115
 477  561.5677
 478  623.0832
 479  565.811
 480  436.2539
 481  385.9857
 482  561.5828
 483  606.7867
 484  564.2521
 485  562.959
 486  512.3707
 487  351.0111
 488  485.1042
 489  662.7454
 490  658.051
 491  588.0724
 492  573.2983
 493  754.2112
 494  563.2762
 495  575.6946
 496  433.6302
 497  413.6252
 498  530.9442
 499  745.7029
 500  739.2613
 501  533.5016
 502  523.6025
 503  574.9585
 504  628.0737
 505  594.4701
 506  681.5845
 507  822.0272
 508  987.6221
 509  1104.806
 510  1221.718
 511  1289.753
