# Input file       =  1208498346.111598_cleaned.dat
# Candidate        =  PSR_0332+5434
# Telescope        =  AR
# Epoch_topo       =  58231.249167958311
# Epoch_bary       =  N/A
# T_sample         =  0.002
# Data Folded      =  7208960
# Data Avg         =  0.0299575849172529
# Data StdDev      =  1.00020954804028 
# Profile Bins     =  512
# Profile Avg      =  421.820182088652 
# Profile StdDev   =  118.684040591279 
# Reduced chi-sqr  =  1.754
# Prob(Noise)      <  1.51e-23   (~9.9 sigma)
# P_topo (ms)      =  714.553473826869  +/- 0.000143
# P'_topo (s/s)    =  -0                +/- 7.66e-11
# P''_topo (s/s^2) =  0                 +/- 3.44e-14
# P_bary (ms)      =  N/A
# P'_bary (s/s)    =  N/A
# P''_bary (s/s^2) =  N/A
# P_orb (s)        =  N/A
# asin(i)/c (s)    =  N/A
# eccentricity     =  N/A
# w (rad)          =  N/A
# T_peri           =  N/A
######################################################
   0  1294.597
   1  1031.971
   2  755.8086
   3  544.5729
   4  509.3323
   5  489.9533
   6  503.5548
   7  458.7655
   8  339.3463
   9  279.1256
  10  305.9313
  11  556.9889
  12  498.5176
  13  381.0668
  14  483.9399
  15  541.6815
  16  480.7205
  17  402.174
  18  430.2004
  19  461.672
  20  478.6255
  21  445.3731
  22  482.5541
  23  416.4303
  24  209.4805
  25  215.5422
  26  435.7805
  27  635.861
  28  493.1392
  29  381.2187
  30  445.8498
  31  437.7959
  32  425.9145
  33  493.324
  34  538.3031
  35  545.9528
  36  408.5507
  37  282.7053
  38  295.5473
  39  354.7783
  40  305.6619
  41  380.4258
  42  505.7639
  43  541.3268
  44  446.5846
  45  473.5251
  46  342.749
  47  327.6303
  48  285.8467
  49  465.3406
  50  440.9188
  51  351.8272
  52  476.6731
  53  368.3274
  54  420.861
  55  257.5809
  56  337.9071
  57  439.0296
  58  383.7285
  59  317.1107
  60  302.312
  61  431.8122
  62  449.305
  63  467.1786
  64  372.8392
  65  406.9384
  66  394.4802
  67  291.1395
  68  299.989
  69  384.5186
  70  326.4213
  71  231.3618
  72  305.6453
  73  302.3445
  74  356.03
  75  390.9286
  76  386.0472
  77  286.1704
  78  215.3792
  79  365.5555
  80  421.5671
  81  447.6961
  82  295.5419
  83  371.5292
  84  325.8858
  85  296.9068
  86  245.3215
  87  375.6035
  88  332.8795
  89  339.8742
  90  362.2533
  91  489.9825
  92  490.9224
  93  356.9844
  94  361.8917
  95  502.769
  96  467.7692
  97  506.6481
  98  407.5125
  99  354.3041
 100  433.8909
 101  507.5744
 102  462.7051
 103  339.2361
 104  383.2915
 105  400.1776
 106  406.8568
 107  344.5824
 108  430.6174
 109  408.7034
 110  430.1599
 111  328.2397
 112  396.7439
 113  466.0761
 114  628.5681
 115  571.1194
 116  424.6641
 117  449.2057
 118  394.2811
 119  419.9165
 120  536.0223
 121  447.2309
 122  405.155
 123  397.0496
 124  357.5526
 125  411.1208
 126  582.3265
 127  623.6666
 128  468.1798
 129  468.6748
 130  414.3323
 131  414.5621
 132  267.3011
 133  338.983
 134  346.0982
 135  328.7951
 136  274.2511
 137  311.4363
 138  417.3918
 139  478.8145
 140  396.0529
 141  341.2183
 142  398.1934
 143  412.2354
 144  464.9625
 145  386.9256
 146  410.3666
 147  384.0238
 148  315.0042
 149  404.7726
 150  470.7178
 151  420.8866
 152  298.8696
 153  367.856
 154  320.8531
 155  357.5199
 156  383.4586
 157  349.6891
 158  353.7882
 159  329.0611
 160  331.4138
 161  312.7785
 162  295.0102
 163  414.3026
 164  417.6464
 165  337.5701
 166  351.8277
 167  428.4396
 168  378.0776
 169  360.4729
 170  275.8652
 171  253.1352
 172  350.1595
 173  451.6642
 174  344.3262
 175  369.6216
 176  310.1721
 177  285.645
 178  380.3896
 179  434.1684
 180  493.6396
 181  472.2594
 182  521.6414
 183  535.5092
 184  529.1983
 185  494.3134
 186  411.2106
 187  485.395
 188  528.2663
 189  530.6149
 190  436.5388
 191  478.3697
 192  487.4153
 193  596.5298
 194  502.7722
 195  498.4802
 196  553.5159
 197  523.0836
 198  558.6376
 199  477.0707
 200  487.9019
 201  406.9037
 202  353.8317
 203  390.7019
 204  279.7034
 205  354.9398
 206  207.7562
 207  303.6888
 208  379.1082
 209  411.7265
 210  401.4457
 211  362.7137
 212  355.7607
 213  429.9385
 214  526.3382
 215  428.3864
 216  369.3597
 217  476.7563
 218  439.5465
 219  382.7587
 220  365.4758
 221  327.9423
 222  337.1892
 223  420.8306
 224  471.8423
 225  485.2637
 226  557.1989
 227  482.4745
 228  438.1721
 229  419.9971
 230  358.9056
 231  286.7449
 232  268.2072
 233  297.115
 234  445.524
 235  483.7341
 236  440.0066
 237  406.8859
 238  167.1719
 239  144.4166
 240  299.2932
 241  308.6982
 242  339.7438
 243  457.9243
 244  479.5584
 245  410.0358
 246  359.5106
 247  403.3459
 248  481.3661
 249  507.8084
 250  442.2244
 251  449.6509
 252  423.0833
 253  254.4668
 254  248.438
 255  306.0555
 256  269.294
 257  237.7173
 258  284.7283
 259  352.6161
 260  400.9161
 261  525.7593
 262  589.0399
 263  484.086
 264  334.473
 265  331.9929
 266  412.0008
 267  323.095
 268  243.0764
 269  384.3402
 270  393.4554
 271  431.0489
 272  372.7998
 273  344.2525
 274  437.4996
 275  377.9563
 276  332.0177
 277  247.6623
 278  290.9794
 279  542.9312
 280  424.8075
 281  294.1357
 282  394.0682
 283  393.8823
 284  224.3529
 285  260.4404
 286  362.1917
 287  323.8554
 288  448.2678
 289  440.3218
 290  424.0744
 291  408.4008
 292  297.3567
 293  373.0147
 294  410.3306
 295  504.6905
 296  437.0081
 297  437.4517
 298  452.7169
 299  567.743
 300  506.0923
 301  446.4354
 302  377.4896
 303  473.4835
 304  497.9962
 305  388.5641
 306  299.7066
 307  338.4526
 308  387.4646
 309  374.6187
 310  309.7316
 311  431.6016
 312  451.1294
 313  313.9095
 314  344.0966
 315  502.5667
 316  426.9354
 317  379.4604
 318  330.7516
 319  488.4395
 320  457.5735
 321  393.8795
 322  434.1336
 323  382.2182
 324  352.93
 325  268.6574
 326  391.7863
 327  502.1129
 328  615.7214
 329  491.2299
 330  387.4965
 331  411.4127
 332  471.9257
 333  479.1134
 334  343.907
 335  195.8746
 336  356.0506
 337  418.5087
 338  391.0931
 339  406.1335
 340  496.2074
 341  499.9185
 342  392.045
 343  465.0346
 344  411.4233
 345  502.2512
 346  474.0881
 347  410.3891
 348  430.1437
 349  477.2815
 350  430.6448
 351  468.5288
 352  488.6054
 353  470.4293
 354  312.936
 355  212.472
 356  272.4002
 357  330.1794
 358  375.9487
 359  414.0529
 360  395.0091
 361  434.8737
 362  436.2195
 363  436.0369
 364  538.9501
 365  488.791
 366  502.9537
 367  472.2252
 368  354.2072
 369  458.2655
 370  394.5659
 371  393.3668
 372  484.4184
 373  445.328
 374  488.2552
 375  592.6412
 376  511.6678
 377  452.2533
 378  452.4064
 379  619.4764
 380  611.4892
 381  524.6548
 382  372.2895
 383  525.6319
 384  473.346
 385  350.0824
 386  229.1333
 387  317.0183
 388  342.4275
 389  456.4816
 390  552.7601
 391  505.5547
 392  422.1115
 393  408.7737
 394  430.6902
 395  315.5288
 396  471.4553
 397  476.9724
 398  471.4881
 399  453.7318
 400  431.9435
 401  469.2611
 402  558.8203
 403  557.5886
 404  493.3185
 405  294.8774
 406  357.5896
 407  409.5262
 408  470.723
 409  537.4753
 410  587.7916
 411  559.0032
 412  497.1481
 413  579.5704
 414  424.6183
 415  467.4384
 416  348.8557
 417  282.2502
 418  261.8952
 419  393.0335
 420  442.3989
 421  437.7198
 422  292.6773
 423  422.2928
 424  576.467
 425  577.2442
 426  524.0445
 427  415.1557
 428  431.1628
 429  426.3532
 430  410.5112
 431  381.6245
 432  284.7332
 433  249.4379
 434  358.415
 435  198.7835
 436  239.3338
 437  457.9304
 438  459.0735
 439  353.5961
 440  360.6361
 441  459.4788
 442  426.3243
 443  357.5338
 444  443.0009
 445  545.2424
 446  569.4901
 447  387.2584
 448  419.4497
 449  469.5645
 450  455.5508
 451  531.9792
 452  590.2443
 453  618.3932
 454  346.5562
 455  353.4096
 456  439.2932
 457  497.2169
 458  451.9188
 459  433.9387
 460  477.1665
 461  541.0671
 462  503.8165
 463  404.0517
 464  460.8157
 465  596.627
 466  383.6576
 467  339.9199
 468  415.2629
 469  402.4479
 470  370.1668
 471  341.92
 472  428.4457
 473  373.2691
 474  420.2012
 475  569.5416
 476  559.8549
 477  526.6979
 478  530.3052
 479  432.515
 480  447.5275
 481  435.6729
 482  400.8537
 483  475.5089
 484  473.0197
 485  515.3615
 486  400.6714
 487  204.4885
 488  271.1305
 489  469.7138
 490  502.6114
 491  417.7572
 492  433.6988
 493  556.2302
 494  480.3506
 495  426.3623
 496  377.9825
 497  398.9361
 498  388.4125
 499  438.5456
 500  497.9752
 501  384.5135
 502  445.9532
 503  586.7281
 504  567.0393
 505  547.7271
 506  540.0947
 507  420.8445
 508  615.1771
 509  905.6771
 510  1130.497
 511  1250.48
