# Input file       =  1209475210.112065_cleaned.dat
# Candidate        =  PSR_0332+5434
# Telescope        =  AR
# Epoch_topo       =  58242.555464260011
# Epoch_bary       =  N/A
# T_sample         =  0.002
# Data Folded      =  7340032
# Data Avg         =  0.0469142572872501
# Data StdDev      =  1.00010918536877 
# Profile Bins     =  512
# Profile Avg      =  672.591621196337 
# Profile StdDev   =  119.746109472496 
# Reduced chi-sqr  =  1.307
# Prob(Noise)      <  3.49e-06   (~4.5 sigma)
# P_topo (ms)      =  714.543833976365  +/- 0.000256
# P'_topo (s/s)    =  -0                +/- 1.35e-10
# P''_topo (s/s^2) =  0                 +/- 5.97e-14
# P_bary (ms)      =  N/A
# P'_bary (s/s)    =  N/A
# P''_bary (s/s^2) =  N/A
# P_orb (s)        =  N/A
# asin(i)/c (s)    =  N/A
# eccentricity     =  N/A
# w (rad)          =  N/A
# T_peri           =  N/A
######################################################
   0  1307.842
   1  1186.07
   2  1009.121
   3  971.7604
   4  714.5073
   5  637.0812
   6  715.4822
   7  697.2077
   8  740.1017
   9  681.2947
  10  769.4025
  11  737.4327
  12  812.9769
  13  712.4743
  14  677.79
  15  728.3653
  16  626.724
  17  628.9941
  18  609.8851
  19  556.5664
  20  622.9136
  21  596.7711
  22  485.238
  23  501.0417
  24  547.336
  25  634.8105
  26  624.7892
  27  613.0468
  28  740.5833
  29  641.4832
  30  681.8713
  31  597.3824
  32  625.7708
  33  645.0649
  34  496.2584
  35  552.3275
  36  655.4833
  37  666.5496
  38  728.967
  39  634.1605
  40  666.2225
  41  667.7637
  42  719.9568
  43  662.8989
  44  558.2619
  45  608.7924
  46  634.0479
  47  672.5811
  48  675.5602
  49  647.2698
  50  683.6237
  51  693.4413
  52  664.2517
  53  680.6091
  54  702.4354
  55  703.5425
  56  770.0437
  57  748.4848
  58  694.2302
  59  602.0646
  60  626.7053
  61  778.1032
  62  691.5522
  63  686.7023
  64  809.7631
  65  755.4872
  66  685.3486
  67  712.511
  68  705.6783
  69  628.8683
  70  682.4842
  71  690.0237
  72  612.0315
  73  758.6485
  74  754.4766
  75  668.6586
  76  605.2829
  77  637.7131
  78  800.0736
  79  782.1429
  80  778.1791
  81  731.6993
  82  600.7021
  83  599.5186
  84  701.3502
  85  699.0824
  86  762.5002
  87  734.0212
  88  666.6076
  89  618.2172
  90  666.0729
  91  678.3546
  92  737.8449
  93  686.2785
  94  673.8655
  95  728.5214
  96  704.4827
  97  694.9011
  98  568.4325
  99  626.3807
 100  631.0864
 101  663.731
 102  618.7678
 103  613.3954
 104  603.5221
 105  617.7913
 106  718.6702
 107  722.29
 108  730.606
 109  786.7787
 110  811.289
 111  770.4158
 112  746.6279
 113  724.8232
 114  708.88
 115  866.6188
 116  728.286
 117  609.6944
 118  668.145
 119  739.7703
 120  700.8277
 121  637.7236
 122  594.8272
 123  731.9222
 124  754.4777
 125  612.4352
 126  461.3241
 127  479.4382
 128  629.8154
 129  664.2507
 130  712.4211
 131  639.0594
 132  626.1913
 133  568.712
 134  541.7185
 135  613.4557
 136  750.8828
 137  680.6832
 138  555.7185
 139  635.4637
 140  756.7351
 141  672.2122
 142  642.7587
 143  663.1095
 144  681.4382
 145  630.4231
 146  625.5028
 147  543.0201
 148  586.5542
 149  536.7479
 150  584.6841
 151  594.1996
 152  589.3514
 153  596.4644
 154  612.1125
 155  705.5606
 156  655.3446
 157  672.3508
 158  692.7401
 159  683.5226
 160  588.9667
 161  624.3889
 162  693.7963
 163  727.4036
 164  659.1381
 165  701.8774
 166  692.7001
 167  537.8213
 168  615.1702
 169  742.1589
 170  767.1799
 171  740.9727
 172  639.511
 173  495.8867
 174  761.1892
 175  880.6131
 176  806.0073
 177  659.973
 178  577.8682
 179  612.1749
 180  590.8268
 181  526.0848
 182  501.3874
 183  494.2408
 184  673.5037
 185  701.2528
 186  650.2579
 187  700.231
 188  646.7316
 189  655.6356
 190  681.5815
 191  711.43
 192  664.2571
 193  724.9753
 194  838.1753
 195  804.2634
 196  698.5103
 197  756.0283
 198  824.3496
 199  695.3956
 200  702.6694
 201  748.2775
 202  727.0696
 203  757.0947
 204  625.2581
 205  676.145
 206  685.3845
 207  710.1844
 208  613.4182
 209  568.7419
 210  637.8046
 211  653.5759
 212  596.9391
 213  652.2705
 214  732.9742
 215  571.5423
 216  543.2587
 217  561.549
 218  741.0109
 219  770.4357
 220  726.6366
 221  746.1293
 222  739.5654
 223  819.7567
 224  725.0156
 225  728.5032
 226  720.5337
 227  693.9927
 228  627.6234
 229  641.5316
 230  629.3368
 231  605.9824
 232  586.1622
 233  567.5292
 234  521.5063
 235  590.4952
 236  598.298
 237  622.705
 238  770.0954
 239  851.0366
 240  798.9013
 241  791.918
 242  696.4141
 243  699.0957
 244  804.2841
 245  802.1801
 246  783.0458
 247  776.2563
 248  722.5768
 249  669.3873
 250  587.418
 251  610.0313
 252  642.2518
 253  648.0623
 254  634.2684
 255  712.3748
 256  825.8949
 257  773.2695
 258  813.0432
 259  767.6244
 260  768.7609
 261  770.7426
 262  716.8324
 263  625.836
 264  652.108
 265  684.3676
 266  604.661
 267  574.4834
 268  624.7848
 269  690.4055
 270  657.9366
 271  670.8358
 272  655.29
 273  658.8118
 274  717.3889
 275  688.5663
 276  586.5391
 277  685.5022
 278  613.8997
 279  570.429
 280  687.3447
 281  741.9327
 282  647.1477
 283  630.9011
 284  685.4405
 285  719.7473
 286  678.0726
 287  643.1003
 288  685.9584
 289  765.3564
 290  750.0257
 291  659.7127
 292  588.5141
 293  627.5891
 294  759.3865
 295  792.1185
 296  746.5456
 297  671.9692
 298  598.8118
 299  565.6746
 300  556.6217
 301  548.7592
 302  561.5716
 303  582.9962
 304  657.9384
 305  627.0195
 306  633.9883
 307  623.4628
 308  617.5127
 309  580.3438
 310  603.2097
 311  620.6671
 312  662.0774
 313  644.4919
 314  690.0082
 315  562.316
 316  567.7621
 317  515.675
 318  598.6644
 319  591.9404
 320  548.0443
 321  591.3579
 322  691.4308
 323  622.2873
 324  584.8423
 325  653.7777
 326  732.7425
 327  733.6446
 328  683.0026
 329  799.6597
 330  749.438
 331  588.9969
 332  518.311
 333  570.6713
 334  634.1921
 335  610.3185
 336  644.6209
 337  656.8426
 338  555.0884
 339  598.6646
 340  588.0688
 341  651.1752
 342  640.8384
 343  663.0995
 344  701.7682
 345  634.3921
 346  608.3387
 347  628.5942
 348  587.4537
 349  612.6848
 350  628.6735
 351  669.7691
 352  591.8516
 353  588.1569
 354  706.8065
 355  684.0856
 356  561.2103
 357  634.8801
 358  635.9734
 359  629.2418
 360  640.9695
 361  553.9684
 362  669.9965
 363  721.009
 364  667.6071
 365  749.2439
 366  818.0544
 367  771.5621
 368  797.762
 369  791.4203
 370  651.3553
 371  600.6718
 372  670.17
 373  649.8835
 374  694.2255
 375  654.652
 376  744.2762
 377  699.1811
 378  721.7551
 379  665.7927
 380  611.4415
 381  632.1653
 382  631.1781
 383  717.3256
 384  701.8267
 385  639.7261
 386  721.8839
 387  720.4572
 388  622.9214
 389  690.5804
 390  750.4768
 391  724.8105
 392  645.0736
 393  603.6624
 394  642.2517
 395  650.7281
 396  678.0353
 397  632.2239
 398  647.106
 399  640.3195
 400  658.6833
 401  792.7501
 402  881.5546
 403  748.1168
 404  704.4518
 405  748.4388
 406  723.1085
 407  724.4262
 408  776.4271
 409  725.5373
 410  726.4103
 411  784.8264
 412  670.2094
 413  737.8809
 414  782.6321
 415  738.7058
 416  815.0326
 417  877.3501
 418  721.1736
 419  688.1262
 420  791.5253
 421  754.5201
 422  716.0992
 423  673.7856
 424  730.9177
 425  687.2321
 426  616.8679
 427  609.4407
 428  595.2693
 429  650.9067
 430  540.8398
 431  590.7338
 432  612.8044
 433  552.7081
 434  539.9521
 435  494.0347
 436  510.137
 437  575.3317
 438  629.7619
 439  692.6199
 440  603.6185
 441  513.2248
 442  477.2481
 443  445.1319
 444  471.5281
 445  651.4077
 446  638.9763
 447  651.9333
 448  687.1329
 449  705.8101
 450  578.6249
 451  680.2866
 452  622.7352
 453  624.0353
 454  706.632
 455  779.9255
 456  763.271
 457  771.4242
 458  686.7562
 459  520.1392
 460  516.7779
 461  636.4318
 462  708.8285
 463  582.3074
 464  507.444
 465  517.6055
 466  657.8038
 467  767.4902
 468  620.5504
 469  497.2175
 470  626.8445
 471  756.7087
 472  689.7071
 473  785.6335
 474  821.764
 475  693.1085
 476  582.7656
 477  461.8251
 478  525.6828
 479  608.9216
 480  623.118
 481  564.9517
 482  536.9985
 483  450.7738
 484  433.1702
 485  633.5181
 486  705.7742
 487  595.4447
 488  678.9364
 489  644.7633
 490  570.1901
 491  610.7197
 492  752.1941
 493  787.8602
 494  780.2485
 495  813.8019
 496  782.6805
 497  665.0515
 498  667.2507
 499  701.8898
 500  650.7668
 501  721.3463
 502  844.44
 503  773.3553
 504  664.709
 505  754.9232
 506  723.9496
 507  673.3804
 508  842.3548
 509  1073.388
 510  1196.21
 511  1342.951
