# Input file       =  1209273393.117833_cleaned.dat
# Candidate        =  PSR_0332+5434
# Telescope        =  AR
# Epoch_topo       =  58240.219619419360
# Epoch_bary       =  N/A
# T_sample         =  0.002
# Data Folded      =  7208960
# Data Avg         =  0.0489274344267577
# Data StdDev      =  1.00002819071047 
# Profile Bins     =  512
# Profile Avg      =  688.76438504386  
# Profile StdDev   =  118.66252088     
# Reduced chi-sqr  =  1.829
# Prob(Noise)      <  3.18e-27   (~10.7 sigma)
# P_topo (ms)      =  714.545621191427  +/- 8.59e-05
# P'_topo (s/s)    =  -0                +/- 4.61e-11
# P''_topo (s/s^2) =  0                 +/- 2.07e-14
# P_bary (ms)      =  N/A
# P'_bary (s/s)    =  N/A
# P''_bary (s/s^2) =  N/A
# P_orb (s)        =  N/A
# asin(i)/c (s)    =  N/A
# eccentricity     =  N/A
# w (rad)          =  N/A
# T_peri           =  N/A
######################################################
   0  1191.78
   1  1273.946
   2  1183.675
   3  962.819
   4  856.1735
   5  685.8118
   6  563.269
   7  637.3938
   8  792.1994
   9  717.8052
  10  769.5944
  11  824.2352
  12  852.0616
  13  854.017
  14  814.0983
  15  706.4758
  16  806.7051
  17  646.0255
  18  615.599
  19  793.2076
  20  730.6548
  21  683.6577
  22  648.4027
  23  487.403
  24  473.2889
  25  553.1962
  26  589.1714
  27  560.2131
  28  700.0585
  29  762.4963
  30  677.9893
  31  541.8421
  32  519.9216
  33  457.13
  34  552.5256
  35  640.599
  36  782.7177
  37  743.9291
  38  779.7197
  39  647.6666
  40  620.3914
  41  500.5172
  42  469.0355
  43  525.6984
  44  692.1508
  45  791.5381
  46  758.2029
  47  626.6818
  48  453.9775
  49  592.8083
  50  762.1117
  51  749.5664
  52  663.3171
  53  674.2159
  54  715.7689
  55  648.7509
  56  647.4419
  57  502.1098
  58  576.0214
  59  635.9897
  60  666.8289
  61  707.3181
  62  643.9229
  63  855.0242
  64  871.9574
  65  766.1834
  66  633.3091
  67  628.8351
  68  669.4084
  69  632.3776
  70  634.9798
  71  681.5124
  72  751.4018
  73  671.0759
  74  583.0323
  75  570.16
  76  562.5036
  77  742.9647
  78  760.287
  79  863.0493
  80  767.0538
  81  670.2262
  82  740.5583
  83  739.8661
  84  736.2978
  85  628.3945
  86  660.0508
  87  640.9467
  88  555.6062
  89  462.7877
  90  508.0942
  91  604.7725
  92  560.4823
  93  633.0669
  94  709.17
  95  849.5079
  96  720.3399
  97  624.7563
  98  683.8791
  99  644.8201
 100  599.9642
 101  592.6657
 102  679.9319
 103  737.4423
 104  666.6754
 105  549.5234
 106  562.3574
 107  583.2405
 108  521.7449
 109  632.2061
 110  726.5722
 111  786.4099
 112  794.1459
 113  539.6254
 114  542.699
 115  621.4352
 116  735.6278
 117  714.0917
 118  739.6946
 119  745.7564
 120  578.5947
 121  551.259
 122  529.9467
 123  593.3325
 124  432.5711
 125  469.5446
 126  602.4887
 127  671.019
 128  654.3229
 129  570.4662
 130  620.8178
 131  598.3895
 132  611.0562
 133  697.8547
 134  672.051
 135  742.308
 136  638.9695
 137  621.7551
 138  611.124
 139  705.1318
 140  659.6187
 141  640.1907
 142  620.2206
 143  759.0482
 144  786.6747
 145  621.9398
 146  593.332
 147  561.6982
 148  702.6339
 149  621.1475
 150  442.7667
 151  449.8755
 152  558.6006
 153  553.5837
 154  546.5569
 155  527.3842
 156  371.4763
 157  542.796
 158  595.8017
 159  533.2572
 160  615.7431
 161  710.147
 162  749.9936
 163  619.0327
 164  614.2394
 165  525.3139
 166  623.5994
 167  669.1977
 168  745.5206
 169  691.0298
 170  699.9003
 171  510.8829
 172  594.2473
 173  542.4005
 174  495.6506
 175  587.4644
 176  769.0169
 177  701.9653
 178  650.2474
 179  723.582
 180  726.6804
 181  628.6166
 182  575.3362
 183  544.52
 184  554.7779
 185  539.1813
 186  514.6505
 187  533.7509
 188  512.8785
 189  584.6324
 190  565.0743
 191  601.9184
 192  636.6129
 193  679.5861
 194  637.8313
 195  660.7305
 196  625.8939
 197  574.8986
 198  580.1416
 199  629.658
 200  508.8359
 201  461.3799
 202  668.9006
 203  619.0425
 204  638.8149
 205  581.687
 206  436.4789
 207  301.5778
 208  367.8759
 209  547.7222
 210  589.4176
 211  610.5826
 212  721.0698
 213  683.1823
 214  568.5029
 215  556.4044
 216  574.1611
 217  536.7238
 218  643.911
 219  697.3187
 220  546.5098
 221  595.5557
 222  695.2538
 223  617.3037
 224  626.7365
 225  648.5316
 226  646.3381
 227  804.7576
 228  802.59
 229  744.2478
 230  664.5197
 231  741.8567
 232  706.3159
 233  537.5917
 234  644.3813
 235  636.5036
 236  793.3903
 237  667.3427
 238  630.084
 239  622.6391
 240  740.0688
 241  642.8673
 242  725.2875
 243  819.2389
 244  852.8923
 245  919.0143
 246  847.5964
 247  827.2191
 248  802.5754
 249  693.5764
 250  637.2983
 251  574.8821
 252  708.9695
 253  517.2498
 254  480.4337
 255  571.4769
 256  607.8556
 257  630.8378
 258  662.2303
 259  743.829
 260  808.8593
 261  854.6921
 262  695.5012
 263  744.7333
 264  616.7792
 265  551.8189
 266  628.1293
 267  672.3331
 268  686.1935
 269  670.6478
 270  692.6084
 271  674.2359
 272  591.0778
 273  610.467
 274  642.6468
 275  818.2931
 276  797.6328
 277  770.3864
 278  806.1031
 279  716.9155
 280  751.9963
 281  766.8137
 282  720.1727
 283  658.2822
 284  758.9269
 285  735.4162
 286  703.159
 287  690.191
 288  674.1113
 289  563.8528
 290  602.524
 291  658.9683
 292  745.5308
 293  711.9166
 294  748.7695
 295  728.051
 296  660.1296
 297  606.7184
 298  705.9405
 299  658.7288
 300  562.3141
 301  657.086
 302  656.0396
 303  757.1591
 304  717.5323
 305  612.538
 306  627.5449
 307  684.3344
 308  787.7849
 309  870.8922
 310  976.7499
 311  849.1535
 312  732.3475
 313  636.5126
 314  827.921
 315  773.3482
 316  691.059
 317  646.4408
 318  637.0158
 319  695.1768
 320  678.5657
 321  627.535
 322  723.033
 323  674.9526
 324  555.4989
 325  713.202
 326  722.8445
 327  766.4634
 328  750.2445
 329  831.4957
 330  766.7452
 331  618.4681
 332  703.6757
 333  699.9691
 334  624.7967
 335  830.691
 336  652.6811
 337  738.1776
 338  774.5312
 339  764.4718
 340  702.8553
 341  736.8083
 342  872.7763
 343  887.9673
 344  825.8762
 345  677.7667
 346  719.7947
 347  767.5685
 348  690.2486
 349  776.2115
 350  793.8273
 351  765.8415
 352  758.3231
 353  769.0753
 354  745.6272
 355  834.6713
 356  844.5356
 357  806.025
 358  827.2138
 359  1036.039
 360  912.3627
 361  762.6823
 362  681.0552
 363  634.2606
 364  702.8357
 365  821.0271
 366  781.419
 367  686.0312
 368  757.5134
 369  775.8922
 370  701.874
 371  781.9639
 372  700.5993
 373  678.3448
 374  886.8657
 375  844.5929
 376  761.3105
 377  757.4391
 378  790.7819
 379  814.4643
 380  793.53
 381  758.5388
 382  806.2545
 383  722.6672
 384  838.8132
 385  803.2346
 386  744.6591
 387  615.764
 388  776.5551
 389  787.0477
 390  741.4802
 391  729.0919
 392  747.6955
 393  800.2216
 394  879.0948
 395  767.3771
 396  742.9822
 397  713.2538
 398  698.2593
 399  655.7278
 400  693.5714
 401  745.9274
 402  529.4645
 403  566.0877
 404  685.0877
 405  559.0039
 406  574.2382
 407  763.1697
 408  798.1052
 409  811.6312
 410  725.9384
 411  744.6318
 412  732.313
 413  832.4036
 414  750.9523
 415  534.9909
 416  660.0558
 417  716.5959
 418  717.7435
 419  697.6497
 420  795.4994
 421  704.4506
 422  771.5843
 423  810.2036
 424  802.303
 425  909.3983
 426  787.1967
 427  785.9783
 428  775.9984
 429  780.5879
 430  625.343
 431  556.2555
 432  688.2763
 433  639.1071
 434  692.5876
 435  601.2064
 436  613.9508
 437  576.0692
 438  701.2861
 439  726.6143
 440  711.9224
 441  820.0693
 442  854.7623
 443  716.0232
 444  647.8761
 445  653.1578
 446  704.2828
 447  672.5364
 448  678.2108
 449  755.2507
 450  707.7761
 451  704.9806
 452  496.1044
 453  537.0742
 454  649.1458
 455  695.4153
 456  666.1267
 457  749.8336
 458  734.7698
 459  684.9566
 460  772.2858
 461  794.6564
 462  802.0975
 463  715.6331
 464  528.6671
 465  545.9161
 466  584.672
 467  680.4132
 468  610.3563
 469  510.3232
 470  489.5147
 471  609.1392
 472  640.3532
 473  660.2546
 474  685.6357
 475  675.2923
 476  749.1296
 477  849.6999
 478  761.729
 479  783.012
 480  760.3008
 481  902.1973
 482  741.3273
 483  694.8887
 484  713.4027
 485  666.9601
 486  712.9699
 487  844.8109
 488  702.5121
 489  676.8607
 490  786.3691
 491  732.7109
 492  891.9501
 493  872.5209
 494  726.8588
 495  691.7885
 496  743.8011
 497  785.8038
 498  687.0464
 499  758.3995
 500  691.189
 501  768.691
 502  689.913
 503  732.1636
 504  706.3721
 505  726.7886
 506  874.695
 507  824.2068
 508  839.2319
 509  1049.35
 510  1133.93
 511  1238.995
