# Input file       =  1209359564.108885_cleaned.dat
# Candidate        =  PSR_0332+5434
# Telescope        =  AR
# Epoch_topo       =  58241.216968852837
# Epoch_bary       =  N/A
# T_sample         =  0.002
# Data Folded      =  7143424
# Data Avg         =  0.0503773103543276
# Data StdDev      =  1.00006679237984 
# Profile Bins     =  512
# Profile Avg      =  702.836220290975 
# Profile StdDev   =  118.126473903228 
# Reduced chi-sqr  =  1.775
# Prob(Noise)      <  1.47e-24   (~10.2 sigma)
# P_topo (ms)      =  714.544715308278  +/- 0.000213
# P'_topo (s/s)    =  -0                +/- 1.15e-10
# P''_topo (s/s^2) =  0                 +/- 5.24e-14
# P_bary (ms)      =  N/A
# P'_bary (s/s)    =  N/A
# P''_bary (s/s^2) =  N/A
# P_orb (s)        =  N/A
# asin(i)/c (s)    =  N/A
# eccentricity     =  N/A
# w (rad)          =  N/A
# T_peri           =  N/A
######################################################
   0  1479.883
   1  1423.495
   2  1471.003
   3  1153.999
   4  984.5084
   5  760.1894
   6  676.8124
   7  705.3044
   8  751.9905
   9  789.4187
  10  765.874
  11  802.9295
  12  668.7399
  13  643.454
  14  810.3096
  15  806.5001
  16  634.6524
  17  714.8722
  18  727.8208
  19  638.4688
  20  728.3152
  21  872.2112
  22  701.9626
  23  697.3031
  24  695.8119
  25  659.1723
  26  645.5658
  27  639.8591
  28  698.137
  29  745.768
  30  835.5929
  31  732.8142
  32  652.588
  33  623.6235
  34  797.7805
  35  752.2615
  36  740.197
  37  693.2863
  38  662.9413
  39  628.7554
  40  650.0165
  41  622.906
  42  643.5153
  43  558.2939
  44  454.8221
  45  450.0725
  46  530.1548
  47  560.2075
  48  633.4198
  49  672.3058
  50  663.7733
  51  638.6438
  52  723.4041
  53  924.1431
  54  715.7787
  55  631.5348
  56  675.1788
  57  696.7444
  58  623.1636
  59  616.7813
  60  598.4154
  61  726.5036
  62  618.3038
  63  664.6008
  64  627.3735
  65  587.9318
  66  701.8593
  67  561.9784
  68  629.4985
  69  684.0342
  70  705.6212
  71  658.0784
  72  691.5452
  73  659.0994
  74  543.8229
  75  599.7266
  76  680.5867
  77  663.8772
  78  627.0919
  79  595.7137
  80  551.0287
  81  670.5477
  82  817.7776
  83  652.6357
  84  579.9342
  85  663.1907
  86  601.7938
  87  661.4573
  88  727.0582
  89  702.5804
  90  566.9188
  91  549.6607
  92  580.5792
  93  562.6315
  94  715.2539
  95  707.1132
  96  603.2774
  97  670.1248
  98  579.8655
  99  582.8888
 100  572.6747
 101  670.5787
 102  731.1273
 103  841.6796
 104  751.202
 105  688.2593
 106  598.4095
 107  536.2315
 108  528.837
 109  511.745
 110  468.853
 111  467.5908
 112  651.3768
 113  651.6702
 114  553.4202
 115  626.0217
 116  588.9993
 117  707.5641
 118  710.4437
 119  601.7718
 120  727.567
 121  716.3682
 122  611.6149
 123  523.8749
 124  523.9742
 125  653.3016
 126  629.397
 127  726.0466
 128  725.5005
 129  677.5062
 130  726.317
 131  607.3385
 132  639.9761
 133  606.9202
 134  613.0255
 135  640.4205
 136  566.1824
 137  568.8289
 138  711.2391
 139  602.7503
 140  504.4132
 141  615.4175
 142  735.2789
 143  698.9267
 144  569.6539
 145  643.6379
 146  582.6208
 147  595.3077
 148  746.0197
 149  689.3519
 150  682.0055
 151  804.1371
 152  801.6393
 153  722.6953
 154  733.0486
 155  628.5317
 156  688.7871
 157  574.1693
 158  590.8785
 159  691.6453
 160  579.3203
 161  528.7526
 162  538.1278
 163  614.8521
 164  675.1475
 165  636.5417
 166  669.1942
 167  768.5251
 168  849.6497
 169  772.3386
 170  651.8309
 171  684.869
 172  724.2512
 173  640.5762
 174  602.7009
 175  605.5873
 176  747.2746
 177  804.4214
 178  684.1832
 179  727.7609
 180  966.3306
 181  819.3845
 182  643.4557
 183  693.8608
 184  826.8126
 185  872.1133
 186  775.4962
 187  935.2145
 188  815.1694
 189  572.8752
 190  666.2914
 191  662.0627
 192  687.3316
 193  603.9376
 194  761.7513
 195  783.8483
 196  742.2859
 197  730.6059
 198  740.6034
 199  672.8916
 200  750.5818
 201  772.6273
 202  754.1083
 203  826.5325
 204  880.9548
 205  761.2382
 206  788.9982
 207  763.1275
 208  751.7124
 209  697.5239
 210  734.4315
 211  795.8332
 212  693.7601
 213  643.1062
 214  777.2259
 215  725.1193
 216  734.5401
 217  632.6475
 218  630.0324
 219  736.5312
 220  783.9715
 221  694.7001
 222  759.5902
 223  760.8979
 224  761.0967
 225  718.8403
 226  719.9384
 227  772.7791
 228  803.964
 229  789.435
 230  761.0812
 231  684.0049
 232  729.4879
 233  754.525
 234  760.5394
 235  766.3623
 236  795.537
 237  845.0748
 238  860.2065
 239  777.2327
 240  825.3325
 241  764.814
 242  736.4521
 243  677.9171
 244  646.7289
 245  750.1817
 246  683.444
 247  791.8263
 248  790.144
 249  754.3507
 250  850.4508
 251  894.2642
 252  805.0774
 253  714.754
 254  776.5374
 255  652.9506
 256  593.8743
 257  674.8548
 258  768.3751
 259  706.042
 260  725.4907
 261  683.4362
 262  685.6291
 263  716.0601
 264  563.0031
 265  692.5368
 266  808.5421
 267  731.7462
 268  736.7473
 269  809.879
 270  719.1423
 271  684.9824
 272  700.723
 273  700.7667
 274  606.5613
 275  621.1774
 276  535.592
 277  675.6468
 278  754.7222
 279  667.8192
 280  622.5542
 281  527.4073
 282  529.3938
 283  618.6084
 284  691.7023
 285  716.0231
 286  721.0403
 287  686.2455
 288  615.6682
 289  607.2297
 290  611.8218
 291  637.8605
 292  686.5413
 293  613.5792
 294  690.5999
 295  751.892
 296  596.6288
 297  575.2336
 298  674.7771
 299  732.0122
 300  855.8369
 301  831.7654
 302  745.2273
 303  669.0453
 304  627.113
 305  702.1399
 306  737.5634
 307  616.3338
 308  685.0763
 309  743.7904
 310  789.0679
 311  727.6581
 312  596.7812
 313  532.096
 314  538.0134
 315  678.9089
 316  753.9758
 317  707.5768
 318  673.5937
 319  729.5386
 320  784.372
 321  652.9796
 322  632.5392
 323  727.6382
 324  660.5481
 325  573.7933
 326  636.3675
 327  731.1374
 328  731.5259
 329  648.3
 330  674.6794
 331  630.1948
 332  716.9106
 333  755.8499
 334  806.1671
 335  727.3782
 336  764.6649
 337  759.0321
 338  672.8687
 339  719.9517
 340  815.5223
 341  774.7764
 342  682.0903
 343  791.9273
 344  807.1682
 345  647.0588
 346  604.2838
 347  711.2302
 348  765.891
 349  983.9644
 350  851.0543
 351  763.0217
 352  784.9982
 353  711.9368
 354  609.5272
 355  588.254
 356  636.9426
 357  642.3917
 358  790.6094
 359  740.931
 360  718.6168
 361  832.6199
 362  821.8913
 363  815.7518
 364  762.1979
 365  799.5938
 366  725.3218
 367  755.1583
 368  677.7419
 369  801.7466
 370  668.762
 371  667.3532
 372  615.5208
 373  667.3482
 374  689.0251
 375  533.7023
 376  658.4557
 377  679.7803
 378  659.0582
 379  692.1771
 380  631.202
 381  774.5496
 382  788.2501
 383  719.8499
 384  732.7632
 385  714.3383
 386  777.0712
 387  736.1868
 388  720.6126
 389  624.7715
 390  665.9332
 391  581.8953
 392  622.6241
 393  753.0898
 394  633.7994
 395  594.3698
 396  602.8403
 397  660.3936
 398  567.2211
 399  552.2109
 400  668.002
 401  854.2816
 402  717.6388
 403  698.4065
 404  696.4302
 405  625.2735
 406  637.8525
 407  611.7426
 408  669.9111
 409  687.139
 410  669.0148
 411  722.8586
 412  721.7718
 413  836.3932
 414  732.0919
 415  724.9576
 416  631.0327
 417  623.6808
 418  702.6669
 419  620.8062
 420  670.984
 421  693.4625
 422  636.9119
 423  701.3804
 424  691.7366
 425  793.9542
 426  741.795
 427  605.9329
 428  682.0688
 429  654.6912
 430  615.7272
 431  686.369
 432  756.7323
 433  647.1323
 434  660.4171
 435  784.5613
 436  695.6635
 437  749.1009
 438  656.0032
 439  543.0474
 440  565.1638
 441  728.2089
 442  768.145
 443  742.8076
 444  752.6511
 445  836.3751
 446  731.2828
 447  715.9967
 448  684.3876
 449  660.6696
 450  679.9521
 451  623.7274
 452  632.7959
 453  695.9534
 454  712.5213
 455  638.2465
 456  502.8767
 457  588.5604
 458  753.2752
 459  772.0927
 460  694.1097
 461  681.7489
 462  776.5321
 463  789.9898
 464  728.1245
 465  857.7675
 466  812.6277
 467  763.6449
 468  719.7329
 469  588.5071
 470  685.0574
 471  777.2742
 472  773.0413
 473  613.3782
 474  545.2256
 475  712.7579
 476  753.8186
 477  610.6679
 478  557.9231
 479  747.119
 480  800.1519
 481  596.861
 482  619.0411
 483  598.43
 484  574.0527
 485  653.1195
 486  711.4833
 487  663.6453
 488  644.4862
 489  648.7321
 490  693.3839
 491  754.5805
 492  736.8307
 493  833.1279
 494  813.2883
 495  826.5886
 496  803.4833
 497  778.012
 498  768.4221
 499  832.0917
 500  808.0798
 501  697.6112
 502  771.7028
 503  783.0941
 504  826.9573
 505  767.1309
 506  749.5905
 507  928.0175
 508  1004.742
 509  1032.937
 510  1208.242
 511  1443.187
