# Input file       =  1209445701.104754_cleaned.dat
# Candidate        =  PSR_0332+5434
# Telescope        =  AR
# Epoch_topo       =  58242.213924823540
# Epoch_bary       =  N/A
# T_sample         =  0.002
# Data Folded      =  7143424
# Data Avg         =  0.0353163272912718
# Data StdDev      =  1.00005334481457 
# Profile Bins     =  512
# Profile Avg      =  492.741493707155 
# Profile StdDev   =  118.124885495854 
# Reduced chi-sqr  =  1.667
# Prob(Noise)      <  1.83e-19   (~8.9 sigma)
# P_topo (ms)      =  714.543804004596  +/- 8.24e-05
# P'_topo (s/s)    =  -0                +/- 4.47e-11
# P''_topo (s/s^2) =  0                 +/- 2.03e-14
# P_bary (ms)      =  N/A
# P'_bary (s/s)    =  N/A
# P''_bary (s/s^2) =  N/A
# P_orb (s)        =  N/A
# asin(i)/c (s)    =  N/A
# eccentricity     =  N/A
# w (rad)          =  N/A
# T_peri           =  N/A
######################################################
   0  1386.594
   1  1252.552
   2  1096.828
   3  814.1467
   4  609.9639
   5  405.3503
   6  431.1063
   7  512.1054
   8  559.1648
   9  600.2283
  10  546.5239
  11  500.0227
  12  503.3735
  13  492.945
  14  570.7858
  15  636.3688
  16  651.3619
  17  525.3878
  18  332.2416
  19  369.5974
  20  447.5908
  21  459.1867
  22  451.237
  23  433.0196
  24  500.4731
  25  471.5225
  26  393.7538
  27  423.649
  28  523.6553
  29  430.3846
  30  303.6604
  31  557.4005
  32  677.8655
  33  614.9844
  34  585.6185
  35  505.844
  36  541.9097
  37  419.1039
  38  327.4721
  39  390.1877
  40  467.19
  41  600.4944
  42  538.6356
  43  491.4526
  44  601.9455
  45  525.5306
  46  555.6246
  47  566.4633
  48  430.3048
  49  525.6822
  50  546.2772
  51  571.6044
  52  485.6602
  53  500.0327
  54  459.7723
  55  446.2765
  56  487.1486
  57  483.8372
  58  508.6711
  59  570.2928
  60  491.6023
  61  408.6982
  62  403.6497
  63  423.1609
  64  543.8147
  65  641.7372
  66  699.6547
  67  665.2063
  68  490.0382
  69  447.4968
  70  541.4714
  71  445.4287
  72  416.9711
  73  519.2231
  74  510.8986
  75  464.6612
  76  467.9961
  77  525.3396
  78  498.9958
  79  474.7709
  80  520.7647
  81  529.6671
  82  466.9936
  83  375.474
  84  447.028
  85  480.646
  86  471.9359
  87  447.6835
  88  346.7253
  89  418.7394
  90  391.9379
  91  423.5287
  92  415.4688
  93  423.9157
  94  547.192
  95  525.749
  96  521.7091
  97  474.8675
  98  444.0036
  99  513.065
 100  560.6091
 101  593.4149
 102  561.6304
 103  516.1678
 104  341.4073
 105  291.0554
 106  420.2949
 107  468.7614
 108  472.2265
 109  428.1858
 110  603.2029
 111  710.7602
 112  563.788
 113  557.5569
 114  631.9155
 115  652.2459
 116  491.8267
 117  400.2404
 118  438.0791
 119  592.3968
 120  535.3599
 121  503.5143
 122  416.5843
 123  509.546
 124  389.2119
 125  452.5135
 126  472.5261
 127  529.6967
 128  600.6567
 129  539.3109
 130  399.0841
 131  439.9505
 132  490.3143
 133  400.0471
 134  409.8482
 135  494.953
 136  537.2336
 137  420.6466
 138  422.7125
 139  418.61
 140  469.1918
 141  549.065
 142  540.7533
 143  516.9468
 144  541.8796
 145  467.4998
 146  442.3733
 147  526.6099
 148  561.3839
 149  466.9186
 150  448.265
 151  451.4173
 152  321.3842
 153  364.0057
 154  486.8035
 155  490.5785
 156  475.1682
 157  608.166
 158  454.8735
 159  474.3151
 160  453.0702
 161  472.2189
 162  485.9088
 163  500.6598
 164  590.8118
 165  590.5964
 166  445.9662
 167  520.7352
 168  536.1348
 169  451.2188
 170  386.4342
 171  362.8389
 172  375.9334
 173  426.0081
 174  479.128
 175  513.2731
 176  432.7845
 177  400.1025
 178  374.1423
 179  458.0922
 180  551.6249
 181  596.0317
 182  643.4254
 183  603.4386
 184  440.6351
 185  441.6629
 186  493.5414
 187  535.1917
 188  549.4913
 189  481.6861
 190  392.5317
 191  493.1323
 192  350.5746
 193  548.086
 194  728.9272
 195  604.6082
 196  562.4209
 197  521.6238
 198  554.4753
 199  466.7156
 200  478.816
 201  492.1133
 202  514.9118
 203  509.7908
 204  603.1818
 205  579.0601
 206  686.7255
 207  542.8307
 208  457.1337
 209  459.8492
 210  531.5135
 211  533.5623
 212  549.2651
 213  614.2305
 214  570.2433
 215  619.4476
 216  628.2021
 217  598.3491
 218  562.8822
 219  468.9545
 220  427.7851
 221  384.141
 222  499.3347
 223  397.7798
 224  502.3253
 225  537.5336
 226  496.7961
 227  515.4545
 228  522.1315
 229  613.6056
 230  635.5923
 231  651.1779
 232  559.1918
 233  478.1797
 234  373.3531
 235  410.1118
 236  436.09
 237  338.144
 238  427.5861
 239  462.8228
 240  549.1765
 241  522.5571
 242  595.3515
 243  609.6149
 244  549.4745
 245  392.7432
 246  420.6349
 247  660.3113
 248  558.5012
 249  417.9411
 250  454.7725
 251  571.9949
 252  481.8949
 253  446.8995
 254  498.1828
 255  383.2803
 256  547.233
 257  616.679
 258  623.387
 259  591.104
 260  515.8934
 261  447.0716
 262  491.3114
 263  560.3011
 264  692.0729
 265  549.0994
 266  511.956
 267  427.9599
 268  462.1417
 269  452.3272
 270  404.2422
 271  437.8821
 272  479.7181
 273  447.1754
 274  430.3397
 275  529.1621
 276  578.6618
 277  555.5469
 278  525.0972
 279  593.2344
 280  719.5171
 281  716.8378
 282  534.1362
 283  514.9155
 284  571.0829
 285  459.6182
 286  444.4803
 287  485.6461
 288  485.9386
 289  464.406
 290  562.6323
 291  554.4827
 292  484.7891
 293  434.4515
 294  356.1322
 295  407.7215
 296  557.0912
 297  521.6135
 298  519.3773
 299  515.7328
 300  582.2026
 301  529.0321
 302  473.3229
 303  466.6587
 304  389.247
 305  524.455
 306  467.9614
 307  470.9349
 308  442.1828
 309  460.6801
 310  508.2524
 311  541.7682
 312  593.4772
 313  593.0967
 314  495.5736
 315  452.2286
 316  530.0393
 317  494.5773
 318  465.1807
 319  385.4095
 320  393.0316
 321  502.5561
 322  470.4247
 323  442.1657
 324  521.3346
 325  634.455
 326  689.2953
 327  555.3906
 328  547.8788
 329  491.2557
 330  582.5815
 331  427.5345
 332  441.3525
 333  575.2348
 334  582.149
 335  436.7074
 336  291.8059
 337  337.819
 338  449.3917
 339  447.8806
 340  404.8435
 341  479.2193
 342  402.6642
 343  466.6314
 344  432.4563
 345  452.1533
 346  530.3008
 347  571.9266
 348  398.5574
 349  461.408
 350  563.9503
 351  502.2613
 352  569.6553
 353  546.5524
 354  479.1428
 355  444.0495
 356  456.5896
 357  573.0446
 358  505.3194
 359  500.7827
 360  508.042
 361  353.7991
 362  436.5829
 363  583.7859
 364  455.3956
 365  374.7719
 366  495.0394
 367  506.4607
 368  455.582
 369  484.244
 370  459.7469
 371  558.3744
 372  591.7121
 373  463.7201
 374  492.7829
 375  594.9963
 376  531.8682
 377  512.5933
 378  663.2946
 379  432.4814
 380  342.5331
 381  363.507
 382  368.5597
 383  345.0021
 384  303.3864
 385  274.7495
 386  211.7847
 387  319.5601
 388  499.4223
 389  428.3119
 390  409.7281
 391  468.3689
 392  501.6535
 393  399.2934
 394  410.2827
 395  452.3725
 396  617.5386
 397  622.407
 398  527.7037
 399  543.8197
 400  476.1785
 401  377.0912
 402  311.5303
 403  317.9879
 404  417.5557
 405  334.0534
 406  417.5967
 407  582.2042
 408  533.4818
 409  469.0619
 410  431.5229
 411  427.267
 412  544.103
 413  517.1557
 414  397.0159
 415  404.0026
 416  344.8862
 417  415.128
 418  379.8857
 419  362.2339
 420  406.6573
 421  445.429
 422  574.8571
 423  526.4379
 424  409.8907
 425  521.9631
 426  536.7246
 427  374.4229
 428  440.151
 429  588.739
 430  536.9576
 431  481.9286
 432  401.0107
 433  474.7351
 434  369.6629
 435  360.1833
 436  330.6994
 437  441.4918
 438  450.522
 439  384.982
 440  503.4891
 441  528.7336
 442  488.0499
 443  375.1901
 444  321.1111
 445  475.1545
 446  579.6142
 447  543.0025
 448  508.6257
 449  420.5341
 450  458.8667
 451  378.9069
 452  280.5327
 453  336.2673
 454  426.1615
 455  474.2468
 456  460.7054
 457  450.5656
 458  437.0744
 459  338.0779
 460  411.963
 461  444.759
 462  472.7112
 463  446.4223
 464  439.5444
 465  371.8198
 466  329.5293
 467  344.9148
 468  365.3245
 469  404.6023
 470  459.1436
 471  424.0109
 472  309.5363
 473  368.3189
 474  348.5004
 475  419.3276
 476  384.6037
 477  362.8613
 478  356.0714
 479  569.14
 480  475.0672
 481  354.9211
 482  457.4477
 483  420.425
 484  368.1967
 485  462.5157
 486  447.0359
 487  519.1961
 488  572.2998
 489  636.7354
 490  552.5778
 491  615.3146
 492  447.1544
 493  467.1494
 494  662.9404
 495  549.411
 496  397.2096
 497  352.5335
 498  415.6429
 499  480.7849
 500  496.0638
 501  514.0865
 502  490.4819
 503  564.1625
 504  443.3434
 505  569.4858
 506  610.8198
 507  702.8401
 508  706.181
 509  673.9341
 510  928.8259
 511  1198.89
