# Input file       =  1209531821.109581_cleaned.dat
# Candidate        =  PSR_0332+5434
# Telescope        =  AR
# Epoch_topo       =  58243.210684138670
# Epoch_bary       =  N/A
# T_sample         =  0.002
# Data Folded      =  7143424
# Data Avg         =  0.0495158583241595
# Data StdDev      =  1.00005654124119 
# Profile Bins     =  512
# Profile Avg      =  690.863376597218 
# Profile StdDev   =  118.125263053242 
# Reduced chi-sqr  =  1.974
# Prob(Noise)      <  6.2e-35   (~12.3 sigma)
# P_topo (ms)      =  714.542886793595  +/- 0.000162
# P'_topo (s/s)    =  -0                +/- 8.79e-11
# P''_topo (s/s^2) =  0                 +/- 3.99e-14
# P_bary (ms)      =  N/A
# P'_bary (s/s)    =  N/A
# P''_bary (s/s^2) =  N/A
# P_orb (s)        =  N/A
# asin(i)/c (s)    =  N/A
# eccentricity     =  N/A
# w (rad)          =  N/A
# T_peri           =  N/A
######################################################
   0  1566.632
   1  1507.082
   2  1335.438
   3  1100.255
   4  997.6094
   5  872.1413
   6  785.2755
   7  719.6777
   8  820.8895
   9  821.6127
  10  808.2555
  11  773.0604
  12  775.8188
  13  798.3465
  14  826.2355
  15  789.0983
  16  769.9731
  17  749.3069
  18  682.957
  19  600.2318
  20  589.3106
  21  732.345
  22  760.8795
  23  777.3392
  24  728.6588
  25  692.7344
  26  594.1196
  27  572.6312
  28  656.8469
  29  654.8976
  30  641.3577
  31  753.7906
  32  778.2558
  33  752.076
  34  617.7623
  35  612.5022
  36  697.5415
  37  841.0659
  38  809.5405
  39  761.0977
  40  713.3401
  41  664.1857
  42  719.7074
  43  622.0607
  44  561.7403
  45  633.4734
  46  788.4944
  47  775.5624
  48  725.2677
  49  647.418
  50  680.6873
  51  613.0997
  52  602.7162
  53  683.0016
  54  710.702
  55  828.7997
  56  664.1107
  57  589.7058
  58  615.6445
  59  598.2758
  60  569.0408
  61  653.0956
  62  674.6776
  63  720.9106
  64  643.6877
  65  612.6885
  66  631.7273
  67  797.9779
  68  778.1404
  69  692.894
  70  783.8544
  71  882.7255
  72  852.1441
  73  797.1708
  74  761.5804
  75  546.8815
  76  570.8756
  77  687.0488
  78  775.3713
  79  825.613
  80  618.6849
  81  602.6535
  82  625.8785
  83  795.7312
  84  773.7447
  85  693.1024
  86  671.4476
  87  749.975
  88  729.8616
  89  639.3674
  90  496.6027
  91  575.2484
  92  486.6435
  93  535.7053
  94  560.1151
  95  558.0338
  96  557.5876
  97  702.2691
  98  659.1191
  99  636.8527
 100  528.8806
 101  560.7526
 102  671.22
 103  600.0479
 104  758.7673
 105  782.3038
 106  632.5489
 107  588.0607
 108  656.8038
 109  602.9456
 110  679.3652
 111  691.2855
 112  694.0603
 113  764.2906
 114  761.154
 115  584.5521
 116  478.8839
 117  503.3689
 118  573.1453
 119  649.519
 120  756.6268
 121  691.0742
 122  567.6114
 123  553.8404
 124  530.4778
 125  494.3577
 126  468.5762
 127  473.0338
 128  438.2295
 129  580.0352
 130  590.7504
 131  628.3488
 132  707.901
 133  635.9709
 134  696.8928
 135  749.5209
 136  772.2242
 137  730.0181
 138  755.0754
 139  670.7476
 140  491.1309
 141  665.7724
 142  663.5726
 143  544.4457
 144  646.5669
 145  640.4896
 146  615.1954
 147  558.7261
 148  625.1412
 149  731.5372
 150  725.4588
 151  659.0862
 152  699.4067
 153  763.7162
 154  728.4272
 155  667.7501
 156  630.4859
 157  695.2017
 158  712.1486
 159  709.2938
 160  573.821
 161  589.43
 162  656.3097
 163  776.1556
 164  649.1384
 165  670.069
 166  644.9246
 167  652.6616
 168  595.0503
 169  709.6953
 170  728.7669
 171  662.9523
 172  618.2299
 173  494.571
 174  571.0381
 175  771.5427
 176  751.9866
 177  693.4158
 178  722.71
 179  578.6763
 180  626.5536
 181  509.3167
 182  512.8033
 183  672.428
 184  704.3165
 185  729.9487
 186  746.2508
 187  840.9483
 188  656.5389
 189  509.8609
 190  648.7348
 191  717.5283
 192  661.3411
 193  632.3146
 194  680.1712
 195  593.6384
 196  784.9766
 197  606.3467
 198  509.7094
 199  560.6349
 200  582.7654
 201  670.7341
 202  642.637
 203  735.1205
 204  708.0339
 205  699.0433
 206  647.9232
 207  615.4593
 208  659.2218
 209  690.6628
 210  631.1121
 211  559.3028
 212  667.2024
 213  684.0792
 214  733.3736
 215  732.3632
 216  588.0348
 217  615.2498
 218  776.5414
 219  761.675
 220  601.0243
 221  585.6122
 222  645.2535
 223  613.6732
 224  601.3699
 225  666.8216
 226  601.8408
 227  557.1069
 228  600.2184
 229  558.2552
 230  660.9558
 231  690.579
 232  621.6507
 233  551.7737
 234  493.0291
 235  633.5392
 236  605.8983
 237  605.6586
 238  659.3786
 239  756.0535
 240  823.1751
 241  787.5601
 242  622.3269
 243  498.3314
 244  618.9269
 245  711.5956
 246  673.1649
 247  621.3519
 248  611.0422
 249  664.8682
 250  625.1904
 251  661.5186
 252  614.1692
 253  607.0884
 254  584.6489
 255  583.4139
 256  612.6797
 257  537.2575
 258  546.683
 259  625.643
 260  687.6183
 261  703.9031
 262  644.6078
 263  677.7534
 264  773.0031
 265  633.0957
 266  670.5203
 267  644.2216
 268  783.6754
 269  820.7123
 270  674.8221
 271  696.0337
 272  645.8738
 273  623.2738
 274  483.8462
 275  532.5102
 276  583.5654
 277  552.8678
 278  633.1591
 279  679.6113
 280  583.1735
 281  502.0797
 282  603.8884
 283  622.9979
 284  616.6429
 285  639.636
 286  692.5011
 287  760.8447
 288  725.6207
 289  617.3123
 290  627.8317
 291  790.1977
 292  726.65
 293  706.6205
 294  512.4314
 295  652.2298
 296  608.993
 297  681.4733
 298  610.2772
 299  568.4647
 300  587.7227
 301  580.5123
 302  685.3287
 303  684.7701
 304  620.9661
 305  617.7582
 306  581.7791
 307  535.5721
 308  550.7933
 309  556.1632
 310  619.7178
 311  663.6549
 312  687.2955
 313  575.0269
 314  690.7878
 315  635.8769
 316  706.2931
 317  620.4348
 318  694.7858
 319  855.6315
 320  758.3041
 321  711.433
 322  603.3394
 323  622.8333
 324  674.142
 325  684.9719
 326  757.775
 327  664.0646
 328  700.4022
 329  687.2761
 330  629.1544
 331  638.9943
 332  615.6359
 333  691.369
 334  748.7715
 335  753.7643
 336  772.6234
 337  786.4877
 338  794.2481
 339  842.4983
 340  685.4957
 341  610.6656
 342  635.6104
 343  744.8748
 344  780.6409
 345  866.7988
 346  907.6572
 347  716.0737
 348  564.6164
 349  670.0681
 350  743.9964
 351  762.1196
 352  792.2037
 353  809.5944
 354  724.1225
 355  617.9813
 356  693.4761
 357  640.5197
 358  650.6027
 359  675.5035
 360  725.9147
 361  870.8562
 362  878.006
 363  832.965
 364  837.9682
 365  709.7418
 366  678.6513
 367  788.7562
 368  810.2709
 369  831.4378
 370  856.9226
 371  805.5253
 372  709.8229
 373  665.6634
 374  659.2896
 375  626.3198
 376  693.7445
 377  715.223
 378  660.4792
 379  578.441
 380  647.5524
 381  631.6707
 382  640.4862
 383  518.7229
 384  612.9401
 385  693.1587
 386  703.0937
 387  601.4496
 388  651.6984
 389  740.3462
 390  706.5375
 391  556.2287
 392  638.0395
 393  677.778
 394  713.1649
 395  862.7119
 396  738.4807
 397  708.7989
 398  615.2897
 399  656.8743
 400  786.8384
 401  819.7522
 402  635.082
 403  603.5455
 404  727.7874
 405  711.7334
 406  611.0526
 407  572.1458
 408  542.9741
 409  639.525
 410  616.2975
 411  636.2378
 412  780.4679
 413  766.7662
 414  674.1576
 415  586.6129
 416  642.2106
 417  790.787
 418  652.4426
 419  724.5994
 420  708.0058
 421  574.0721
 422  476.4735
 423  557.0089
 424  719.1743
 425  644.1591
 426  704.642
 427  733.7774
 428  766.5518
 429  809.3369
 430  720.342
 431  723.7197
 432  758.5198
 433  772.3527
 434  805.9349
 435  856.3636
 436  666.0185
 437  626.0061
 438  670.286
 439  625.0896
 440  659.0121
 441  682.1979
 442  753.6846
 443  780.311
 444  668.0598
 445  638.9338
 446  616.4576
 447  774.1898
 448  879.0512
 449  814.9996
 450  778.5497
 451  739.834
 452  709.2353
 453  791.9404
 454  739.9007
 455  714.0717
 456  795.2755
 457  853.6353
 458  676.3152
 459  591.4746
 460  710.4576
 461  735.6763
 462  715.2867
 463  642.7839
 464  727.7405
 465  640.7571
 466  658.8862
 467  705.9415
 468  758.5787
 469  715.0916
 470  706.5333
 471  815.6794
 472  836.2059
 473  675.9229
 474  633.6553
 475  724.0779
 476  799.146
 477  820.6142
 478  731.0918
 479  754.892
 480  674.0104
 481  702.6856
 482  756.4055
 483  810.7175
 484  800.9647
 485  709.2018
 486  637.4335
 487  756.8809
 488  763.9658
 489  688.2676
 490  703.2508
 491  786.5305
 492  750.489
 493  810.1207
 494  732.9098
 495  658.2004
 496  739.1534
 497  760.215
 498  721.6971
 499  689.8181
 500  870.5041
 501  954.3981
 502  891.67
 503  812.4289
 504  891.7885
 505  775.1547
 506  779.6296
 507  929.2659
 508  1009.988
 509  1132.053
 510  1246.925
 511  1470.615
