# Input file       =  1209014843.115618_cleaned.dat
# Candidate        =  PSR_0332+5434
# Telescope        =  AR
# Epoch_topo       =  58237.227142541873
# Epoch_bary       =  N/A
# T_sample         =  0.002
# Data Folded      =  7208960
# Data Avg         =  0.0526744232649593
# Data StdDev      =  1.00005961764074 
# Profile Bins     =  512
# Profile Avg      =  741.619160325329 
# Profile StdDev   =  118.666249973643 
# Reduced chi-sqr  =  1.472
# Prob(Noise)      <  1.7e-11   (~6.6 sigma)
# P_topo (ms)      =  714.548301651026  +/- 9.07e-05
# P'_topo (s/s)    =  -0                +/- 4.87e-11
# P''_topo (s/s^2) =  0                 +/- 2.19e-14
# P_bary (ms)      =  N/A
# P'_bary (s/s)    =  N/A
# P''_bary (s/s^2) =  N/A
# P_orb (s)        =  N/A
# asin(i)/c (s)    =  N/A
# eccentricity     =  N/A
# w (rad)          =  N/A
# T_peri           =  N/A
######################################################
   0  1424.84
   1  1331.158
   2  1130.468
   3  972.0115
   4  891.9008
   5  804.4863
   6  746.3555
   7  784.0976
   8  713.1096
   9  827.5225
  10  828.4355
  11  838.7921
  12  887.7988
  13  802.2766
  14  630.9253
  15  722.0954
  16  752.5479
  17  684.6701
  18  745.2214
  19  697.8551
  20  795.1519
  21  731.9072
  22  674.0385
  23  532.1578
  24  599.0256
  25  784.9841
  26  753.7205
  27  758.447
  28  737.8291
  29  691.7189
  30  699.2889
  31  627.0927
  32  591.627
  33  626.7485
  34  739.3653
  35  750.743
  36  759.5997
  37  710.655
  38  655.9933
  39  631.3031
  40  561.9365
  41  568.0829
  42  581.2703
  43  661.4611
  44  758.2607
  45  767.4026
  46  726.5349
  47  679.2266
  48  728.7874
  49  732.5713
  50  757.3449
  51  740.4997
  52  756.7507
  53  685.1248
  54  736.3104
  55  754.6511
  56  747.1541
  57  793.3293
  58  660.1627
  59  708.0839
  60  696.0392
  61  909.5119
  62  927.1231
  63  784.5087
  64  705.0177
  65  686.8762
  66  689.2687
  67  727.776
  68  750.954
  69  878.2791
  70  762.2277
  71  697.1779
  72  641.0085
  73  633.0895
  74  680.2206
  75  743.323
  76  773.5257
  77  700.566
  78  681.746
  79  713.3802
  80  558.9186
  81  577.8096
  82  666.5476
  83  690.8157
  84  756.6972
  85  763.707
  86  644.1873
  87  714.5308
  88  658.7675
  89  700.8333
  90  756.3047
  91  751.1212
  92  744.9612
  93  734.9001
  94  739.1067
  95  676.8013
  96  654.5938
  97  558.7452
  98  710.0772
  99  821.106
 100  889.9012
 101  832.4208
 102  887.1234
 103  757.338
 104  709.8427
 105  598.4325
 106  633.614
 107  777.621
 108  752.991
 109  736.6339
 110  625.702
 111  758.9566
 112  896.7034
 113  667.5559
 114  570.3157
 115  501.9942
 116  620.2136
 117  744.6429
 118  735.5845
 119  727.6454
 120  731.8332
 121  616.2853
 122  708.7003
 123  819.5759
 124  889.7645
 125  783.4084
 126  740.3158
 127  805.8912
 128  714.6914
 129  583.7828
 130  622.916
 131  753.6605
 132  815.748
 133  812.3312
 134  849.3549
 135  800.1198
 136  868.8806
 137  802.0535
 138  821.2345
 139  837.2907
 140  738.1539
 141  714.6442
 142  813.3615
 143  910.1354
 144  959.0151
 145  969.2162
 146  799.9533
 147  786.3181
 148  803.5154
 149  847.3539
 150  752.8597
 151  786.729
 152  840.7269
 153  826.1921
 154  865.3486
 155  847.1851
 156  735.5742
 157  711.7604
 158  778.3728
 159  788.6296
 160  729.3023
 161  783.7502
 162  660.0209
 163  643.0854
 164  662.1662
 165  825.5656
 166  814.8915
 167  880.9952
 168  808.2975
 169  774.9885
 170  675.1079
 171  707.2631
 172  717.9423
 173  664.524
 174  781.1444
 175  704.1746
 176  533.7361
 177  695.7877
 178  768.7225
 179  714.5313
 180  691.2567
 181  787.1267
 182  830.8867
 183  834.9863
 184  803.3278
 185  689.5752
 186  625.8023
 187  733.6629
 188  704.6306
 189  660.3414
 190  711.4572
 191  641.3223
 192  601.8349
 193  607.0408
 194  675.4977
 195  628.6839
 196  676.0872
 197  651.5634
 198  663.7381
 199  722.8758
 200  776.4476
 201  707.7459
 202  703.0209
 203  624.9816
 204  584.7007
 205  611.6277
 206  602.444
 207  680.7843
 208  656.7106
 209  672.5272
 210  649.3979
 211  547.1592
 212  565.9419
 213  601.4907
 214  643.2392
 215  752.5123
 216  804.8743
 217  678.4554
 218  682.1921
 219  777.3748
 220  676.9467
 221  597.5701
 222  587.6137
 223  607.46
 224  658.2719
 225  694.382
 226  710.2292
 227  818.1403
 228  772.3817
 229  691.9639
 230  791.984
 231  811.2272
 232  842.8091
 233  712.4381
 234  759.455
 235  781.4128
 236  731.8865
 237  690.2642
 238  719.7621
 239  825.2227
 240  837.3149
 241  860.539
 242  861.3004
 243  769.9786
 244  794.5886
 245  758.825
 246  802.0469
 247  846.201
 248  888.9314
 249  961.1819
 250  922.1486
 251  931.3981
 252  969.074
 253  843.8657
 254  708.6029
 255  719.08
 256  702.7571
 257  888.3781
 258  805.2316
 259  791.482
 260  904.7574
 261  851.551
 262  712.0557
 263  642.4698
 264  667.1807
 265  674.2548
 266  761.6334
 267  874.5063
 268  898.4484
 269  744.4232
 270  646.7817
 271  766.0892
 272  835.1831
 273  726.8198
 274  751.7675
 275  795.8165
 276  763.9664
 277  778.0522
 278  816.7393
 279  749.4464
 280  848.6421
 281  995.8864
 282  930.8406
 283  973.9999
 284  867.5424
 285  863.6448
 286  774.6785
 287  719.1799
 288  718.6021
 289  676.0646
 290  835.0629
 291  773.301
 292  679.4712
 293  816.9302
 294  785.3919
 295  743.7308
 296  700.9373
 297  668.683
 298  682.4155
 299  766.6404
 300  744.692
 301  709.1425
 302  693.0229
 303  653.1211
 304  519.0089
 305  543.1683
 306  692.1701
 307  688.6259
 308  703.9147
 309  756.2536
 310  670.5998
 311  671.2658
 312  753.48
 313  766.1663
 314  835.2506
 315  740.415
 316  618.2238
 317  675.2867
 318  787.9188
 319  629.4097
 320  564.0328
 321  624.6309
 322  717.4797
 323  699.3766
 324  653.4286
 325  684.8747
 326  704.5351
 327  712.1385
 328  638.9158
 329  593.209
 330  651.0944
 331  814.9515
 332  726.2151
 333  732.4248
 334  755.3615
 335  674.1804
 336  628.1871
 337  636.8473
 338  665.3317
 339  750.4652
 340  650.4832
 341  698.4503
 342  683.2136
 343  677.8812
 344  625.4324
 345  630.0222
 346  691.9883
 347  628.6889
 348  691.8404
 349  635.2422
 350  729.0264
 351  748.6857
 352  631.1458
 353  573.891
 354  616.3237
 355  665.5688
 356  704.7623
 357  781.0891
 358  905.5209
 359  857.5514
 360  753.5768
 361  747.3038
 362  737.3047
 363  715.2873
 364  803.1793
 365  779.5157
 366  746.1582
 367  784.2296
 368  891.3295
 369  769.9528
 370  691.7751
 371  739.4824
 372  706.6291
 373  695.9384
 374  759.5754
 375  780.9216
 376  753.0526
 377  784.16
 378  801.7179
 379  757.2399
 380  816.3975
 381  791.6403
 382  916.5354
 383  965.5342
 384  943.3679
 385  721.1382
 386  628.3258
 387  691.4763
 388  767.5327
 389  762.1915
 390  750.2684
 391  939.3599
 392  846.2714
 393  803.2246
 394  708.1518
 395  715.2171
 396  743.0613
 397  687.0588
 398  727.4315
 399  734.7963
 400  791.8763
 401  802.7847
 402  658.6766
 403  700.6745
 404  717.7573
 405  754.0848
 406  696.3645
 407  687.2016
 408  761.8853
 409  710.6335
 410  718.0502
 411  770.1793
 412  795.9857
 413  735.5797
 414  688.6694
 415  751.3469
 416  759.1921
 417  735.493
 418  647.455
 419  809.7025
 420  757.0315
 421  767.3279
 422  719.7162
 423  734.8919
 424  796.2792
 425  752.8964
 426  683.7672
 427  619.2628
 428  695.4314
 429  714.0228
 430  701.6375
 431  762.6691
 432  759.9615
 433  685.2382
 434  623.0298
 435  567.4397
 436  534.1663
 437  637.3021
 438  694.2574
 439  634.1699
 440  671.6409
 441  712.7561
 442  710.4109
 443  623.3745
 444  646.3885
 445  685.5726
 446  561.2544
 447  624.9615
 448  762.7574
 449  839.7921
 450  776.9464
 451  737.5877
 452  658.7209
 453  699.2484
 454  739.2213
 455  710.0079
 456  721.5005
 457  644.3068
 458  761.5218
 459  781.3531
 460  682.0583
 461  796.3181
 462  745.7162
 463  690.806
 464  594.5255
 465  706.3525
 466  883.5103
 467  829.7147
 468  689.499
 469  692.2922
 470  747.585
 471  653.9061
 472  755.1058
 473  805.2224
 474  865.4988
 475  822.4922
 476  645.1418
 477  634.8186
 478  646.655
 479  749.3417
 480  704.9887
 481  734.4145
 482  763.3311
 483  749.1068
 484  857.1333
 485  828.6566
 486  741.263
 487  676.3196
 488  772.3754
 489  689.8519
 490  696.5923
 491  702.6267
 492  698.1349
 493  767.2672
 494  730.936
 495  786.6636
 496  840.2839
 497  914.3336
 498  808.0264
 499  681.5284
 500  777.2813
 501  776.9445
 502  649.9513
 503  660.0887
 504  827.0523
 505  905.3236
 506  863.8146
 507  968.9002
 508  1057.934
 509  1086.518
 510  1186.917
 511  1349.101
