# Input file       =  1209804988.111969_cleaned.dat
# Candidate        =  PSR_0332+5434
# Telescope        =  AR
# Epoch_topo       =  58246.372339258902
# Epoch_bary       =  N/A
# T_sample         =  0.002
# Data Folded      =  7340032
# Data Avg         =  0.0759485079857262
# Data StdDev      =  1.00014448077152 
# Profile Bins     =  512
# Profile Avg      =  1089.00343422067 
# Profile StdDev   =  119.750335498239 
# Reduced chi-sqr  =  1.046
# Prob(Noise)      <  0.228   (~0.7 sigma)
# P_topo (ms)      =  714.539946939281  +/- 0.000864
# P'_topo (s/s)    =  -0                +/- 4.56e-10
# P''_topo (s/s^2) =  0                 +/- 2.01e-13
# P_bary (ms)      =  N/A
# P'_bary (s/s)    =  N/A
# P''_bary (s/s^2) =  N/A
# P_orb (s)        =  N/A
# asin(i)/c (s)    =  N/A
# eccentricity     =  N/A
# w (rad)          =  N/A
# T_peri           =  N/A
######################################################
   0  1669.746
   1  1570.146
   2  1405.004
   3  1267.311
   4  1137.961
   5  1142.549
   6  1182.682
   7  1157.132
   8  1133.566
   9  1085.045
  10  1084.567
  11  1089.146
  12  1131.021
  13  1121.905
  14  1055.025
  15  1154.145
  16  1174.277
  17  1174.066
  18  1112.052
  19  1069.997
  20  1059.181
  21  1115.66
  22  1110.216
  23  1029.581
  24  1041.723
  25  1055.703
  26  1018.254
  27  1025.065
  28  1050.732
  29  1079.505
  30  1070.197
  31  964.0974
  32  914.6465
  33  938.6832
  34  1025.448
  35  992.2714
  36  999.1638
  37  1061.23
  38  1051.915
  39  998.656
  40  991.3587
  41  921.3904
  42  987.3369
  43  985.4055
  44  958.3905
  45  964.0863
  46  994.2247
  47  1002.693
  48  1081.727
  49  1075.408
  50  1002.03
  51  1069.367
  52  1072.052
  53  973.2693
  54  978.1303
  55  932.1617
  56  996.6703
  57  1069.774
  58  1059.536
  59  1015.957
  60  1059.751
  61  1031.194
  62  1039.117
  63  1010.266
  64  1007.641
  65  944.2417
  66  939.2123
  67  898.1967
  68  928.389
  69  919.4503
  70  957.263
  71  1006.54
  72  1070.981
  73  1041.505
  74  1074.132
  75  1035.634
  76  995.9045
  77  1046.837
  78  965.5995
  79  897.1727
  80  918.8937
  81  981.0048
  82  951.212
  83  957.5969
  84  1023.029
  85  1032.339
  86  1015.856
  87  986.7462
  88  958.2219
  89  998.0511
  90  994.7454
  91  1009.934
  92  1130.78
  93  1139.403
  94  970.8074
  95  964.4587
  96  1023.562
  97  1006.202
  98  1082.637
  99  1068.266
 100  1021.027
 101  1015.116
 102  1018.564
 103  988.6245
 104  977.4495
 105  1068.99
 106  982.9658
 107  1029.166
 108  1087.644
 109  1041.936
 110  1040.91
 111  1134.439
 112  1134.479
 113  1063.181
 114  1121.137
 115  1079.522
 116  984.9675
 117  1083.069
 118  1076.357
 119  1047.498
 120  1036.321
 121  1071.27
 122  1126.78
 123  1151.063
 124  1157.862
 125  1162.48
 126  1127.398
 127  1093.572
 128  1099.266
 129  1044.463
 130  1180.266
 131  1217.986
 132  1192.459
 133  1173.426
 134  1191.532
 135  1089.74
 136  1130.078
 137  1149.683
 138  1140.266
 139  1051.47
 140  1159.072
 141  1206.271
 142  1049.099
 143  955.3215
 144  1100.032
 145  1075.15
 146  1091.034
 147  1149.998
 148  1088.804
 149  1062.098
 150  1068.439
 151  1119.353
 152  1209.914
 153  1149.123
 154  1129.707
 155  1105.72
 156  1079.831
 157  1090.219
 158  1133.916
 159  1072.706
 160  1070.35
 161  1051.668
 162  1043.84
 163  992.6935
 164  958.2035
 165  1129.529
 166  1045.276
 167  907.2264
 168  1013.929
 169  1050.832
 170  1052.523
 171  1037.489
 172  1096.1
 173  1180.896
 174  1162.356
 175  1065.032
 176  1023.321
 177  1042.57
 178  1052.028
 179  1090.478
 180  1090.154
 181  1141.986
 182  1065.636
 183  1030.968
 184  1090.17
 185  1058.992
 186  970.8937
 187  1048.538
 188  997.6201
 189  1013.678
 190  1049.878
 191  1114.032
 192  1161.321
 193  1166.345
 194  1183.752
 195  1162.227
 196  1176.92
 197  1141.273
 198  1090.722
 199  1039.514
 200  1102.829
 201  1025.934
 202  1025.497
 203  1052.194
 204  1046.825
 205  1053.156
 206  1102.468
 207  1103.556
 208  1084.638
 209  1084.772
 210  1060.487
 211  1082.279
 212  1171.999
 213  1167.034
 214  1075.026
 215  1093.778
 216  1181.659
 217  1177.415
 218  1143.22
 219  1227.708
 220  1142.277
 221  1214.054
 222  1235.289
 223  1249.862
 224  1284.763
 225  1263.899
 226  1188.361
 227  1228.822
 228  1299.656
 229  1204.395
 230  1205.168
 231  1232.826
 232  1198.937
 233  1159.786
 234  1176.315
 235  1265.943
 236  1154.429
 237  1121.939
 238  1208.408
 239  1096.416
 240  1119.937
 241  1131.676
 242  1255.739
 243  1157.245
 244  1174.116
 245  1211.254
 246  1164.54
 247  1129.871
 248  1109.214
 249  1151.646
 250  1112.308
 251  1164.548
 252  1151.744
 253  1145.647
 254  1198.881
 255  1244.136
 256  1187.233
 257  1249.304
 258  1245.383
 259  1154.717
 260  1146.382
 261  1189.318
 262  1315.49
 263  1345.208
 264  1281.024
 265  1198.244
 266  1170.472
 267  1108.31
 268  1166.736
 269  1153.332
 270  1163.477
 271  1197.077
 272  1252.696
 273  1176.034
 274  1169.567
 275  1180.155
 276  1192.877
 277  1170.196
 278  1274.947
 279  1212.779
 280  1167.199
 281  1176.403
 282  1211.727
 283  1209.338
 284  1139.808
 285  1283.151
 286  1226.081
 287  1087.695
 288  1229.163
 289  1202.804
 290  1074.508
 291  1087.362
 292  1079.098
 293  1048.395
 294  971.6832
 295  1045.145
 296  1075.772
 297  991.3373
 298  1081.91
 299  1137.897
 300  1074.138
 301  1101.089
 302  1181.78
 303  1093.952
 304  1015.912
 305  932.8657
 306  986.8391
 307  1085.629
 308  1029.35
 309  1098.644
 310  1193.617
 311  1161.586
 312  1063.839
 313  1082.852
 314  1156.579
 315  1158.231
 316  1155.198
 317  1137.116
 318  1111.152
 319  1087.693
 320  1106.361
 321  1075.896
 322  1099.405
 323  1045.013
 324  1021.429
 325  970.3915
 326  1012.602
 327  930.2534
 328  1042.084
 329  1081.575
 330  1098.261
 331  1061.439
 332  1068.968
 333  948.3901
 334  1090.01
 335  1098.274
 336  1061.725
 337  1018.399
 338  1117.351
 339  1085.709
 340  1008.171
 341  1063.959
 342  997.9962
 343  978.9019
 344  1058.314
 345  1036.42
 346  1058.403
 347  1057.889
 348  1006.18
 349  991.5068
 350  1022.224
 351  1042.757
 352  1153.062
 353  1164.121
 354  1102.517
 355  1072.96
 356  999.329
 357  1010.933
 358  1087.954
 359  1037.924
 360  1101.18
 361  1132.573
 362  1108.711
 363  1122.717
 364  1146.968
 365  1156.018
 366  1013.322
 367  1056.115
 368  1131.067
 369  1019.376
 370  1055.574
 371  1042.606
 372  1107.521
 373  1089.758
 374  1116.365
 375  1133.717
 376  1140.439
 377  1059.823
 378  1067.874
 379  1155.39
 380  1135.041
 381  1096.858
 382  1108.183
 383  1152.544
 384  1124.667
 385  1048.17
 386  1184.165
 387  1121.747
 388  1105.408
 389  1090.003
 390  1041.729
 391  1062.725
 392  1028.731
 393  1034.96
 394  1017.399
 395  1007.786
 396  1066.447
 397  1045.226
 398  1093.632
 399  1076.832
 400  1107.611
 401  1081.961
 402  1136.897
 403  1118.073
 404  1117.03
 405  1060.374
 406  1054.23
 407  1088.446
 408  964.2917
 409  989.3174
 410  991.1022
 411  966.2871
 412  1055.846
 413  1050.444
 414  1004.29
 415  942.7202
 416  986.5502
 417  940.6693
 418  921.6034
 419  960.3314
 420  1032.443
 421  990.3196
 422  1028.193
 423  970.353
 424  914.4171
 425  994.236
 426  1016.03
 427  956.1437
 428  1023.885
 429  1011.455
 430  1073.489
 431  1131.602
 432  1111.733
 433  1082.228
 434  1141.353
 435  1050.107
 436  1017.012
 437  1163.835
 438  1123.594
 439  1112.36
 440  1053.727
 441  1009.322
 442  1062.058
 443  1119.044
 444  1120.128
 445  1041.09
 446  1072.927
 447  1120.849
 448  1069.339
 449  1066.395
 450  1136.483
 451  1116.234
 452  1115.578
 453  1107.216
 454  1137.931
 455  1131.627
 456  1063.928
 457  977.8077
 458  974.8917
 459  1073.248
 460  1070.434
 461  1014.365
 462  989.9196
 463  1168.469
 464  1096.907
 465  1044.193
 466  1103.978
 467  1081.765
 468  1080.807
 469  1130.342
 470  1090.554
 471  1076.338
 472  1040.921
 473  1076.423
 474  1105.705
 475  1081.466
 476  1126.296
 477  1084.822
 478  944.265
 479  963.3967
 480  1040.567
 481  1075.027
 482  1088.67
 483  1118.321
 484  1125.252
 485  1120.059
 486  1109.407
 487  1063.99
 488  1103.023
 489  1088.26
 490  1078.45
 491  1018.013
 492  1043.932
 493  1138.115
 494  1120.639
 495  1159.779
 496  1094.723
 497  1077.605
 498  1089.719
 499  1087.301
 500  1137.579
 501  1166.71
 502  1078.087
 503  1073.889
 504  1041.177
 505  1118.172
 506  1145.143
 507  1148.638
 508  1194.108
 509  1265.732
 510  1397.308
 511  1527.656
