# Input file       =  1209273393.117833_cleaned.dat
# Candidate        =  PSR_0332+5434
# Telescope        =  AR
# Epoch_topo       =  58240.219619419360
# Epoch_bary       =  N/A
# T_sample         =  0.002
# Data Folded      =  7208960
# Data Avg         =  0.0489274344267577
# Data StdDev      =  1.00002819071047 
# Profile Bins     =  512
# Profile Avg      =  688.764384986289 
# Profile StdDev   =  118.66252088     
# Reduced chi-sqr  =  1.806
# Prob(Noise)      <  4.62e-26   (~10.5 sigma)
# P_topo (ms)      =  714.545621137034  +/- 8.74e-05
# P'_topo (s/s)    =  -0                +/- 4.7e-11
# P''_topo (s/s^2) =  0                 +/- 2.11e-14
# P_bary (ms)      =  N/A
# P'_bary (s/s)    =  N/A
# P''_bary (s/s^2) =  N/A
# P_orb (s)        =  N/A
# asin(i)/c (s)    =  N/A
# eccentricity     =  N/A
# w (rad)          =  N/A
# T_peri           =  N/A
######################################################
   0  1253.012
   1  1250.723
   2  1062.081
   3  876.2159
   4  790.9731
   5  608.9083
   6  546.9488
   7  761.017
   8  753.686
   9  764.2321
  10  775.5826
  11  829.4362
  12  851.4782
  13  874.3234
  14  739.5676
  15  746.7302
  16  721.1417
  17  609.9034
  18  735.1752
  19  794.9026
  20  641.4491
  21  704.1554
  22  564.189
  23  473.7928
  24  488.6805
  25  560.8074
  26  594.7361
  27  633.75
  28  757.2977
  29  693.3784
  30  614.644
  31  529.7691
  32  508.4298
  33  452.1756
  34  627.014
  35  715.798
  36  783.2896
  37  756.9881
  38  717.0933
  39  636.4435
  40  541.5359
  41  469.5069
  42  488.4257
  43  646.3305
  44  745.3032
  45  770.1737
  46  685.8608
  47  519.3549
  48  529.1611
  49  682.8544
  50  771.1007
  51  678.3489
  52  693.5113
  53  714.6332
  54  642.0563
  55  648.6579
  56  569.1129
  57  570.0753
  58  586.0389
  59  634.3902
  60  698.3197
  61  686.4168
  62  766.1658
  63  867.679
  64  829.8472
  65  682.0706
  66  624.5637
  67  642.9128
  68  649.8269
  69  629.5844
  70  672.516
  71  706.0176
  72  727.3016
  73  609.6376
  74  586.1453
  75  541.3751
  76  658.1909
  77  782.2387
  78  802.2132
  79  840.4424
  80  662.9076
  81  720.3466
  82  757.2043
  83  746.9748
  84  664.4108
  85  614.1292
  86  708.4174
  87  584.3651
  88  509.0984
  89  412.0334
  90  616.3398
  91  595.2017
  92  608.3184
  93  636.0551
  94  774.9841
  95  844.3287
  96  627.8159
  97  666.0031
  98  645.1759
  99  635.3683
 100  602.0271
 101  622.2247
 102  710.528
 103  712.8193
 104  610.4991
 105  536.0422
 106  593.5609
 107  527.8232
 108  571.8064
 109  694.975
 110  723.6116
 111  862.8538
 112  631.6216
 113  549.0002
 114  541.0677
 115  701.0428
 116  737.5424
 117  738.2255
 118  747.6946
 119  623.178
 120  564.8528
 121  543.7994
 122  586.4488
 123  491.5816
 124  401.6339
 125  600.218
 126  642.6765
 127  684.8786
 128  548.0716
 129  618.9924
 130  611.9814
 131  612.0942
 132  634.4017
 133  694.1481
 134  718.8007
 135  709.9756
 136  611.9861
 137  612.4189
 138  658.5283
 139  701.7172
 140  638.5478
 141  629.4071
 142  668.6225
 143  824.9881
 144  671.9704
 145  605.4183
 146  563.5193
 147  657.2499
 148  677.2896
 149  505.6685
 150  404.2105
 151  570.7287
 152  549.3644
 153  519.0705
 154  538.9782
 155  444.354
 156  456.5035
 157  584.3987
 158  520.4713
 159  582.4299
 160  707.8401
 161  747.7048
 162  646.4635
 163  610.4847
 164  582.9198
 165  583.4352
 166  632.775
 167  703.3795
 168  720.7173
 169  743.2662
 170  580.4166
 171  527.5068
 172  584.2585
 173  506.7802
 174  524.5557
 175  695.1477
 176  762.9449
 177  668.9618
 178  675.8452
 179  734.816
 180  661.1985
 181  623.3615
 182  547.1384
 183  531.3166
 184  532.723
 185  541.1852
 186  556.8286
 187  494.996
 188  529.7944
 189  593.8369
 190  617.1309
 191  605.7727
 192  643.4809
 193  643.7538
 194  683.8332
 195  654.7936
 196  563.376
 197  565.3384
 198  609.1844
 199  629.3556
 200  421.8117
 201  580.2708
 202  658.9012
 203  629.9081
 204  605.79
 205  529.8369
 206  322.2632
 207  327.4457
 208  470.9589
 209  580.9252
 210  602.7715
 211  659.4534
 212  745.7344
 213  576.6826
 214  568.2318
 215  572.7974
 216  577.0432
 217  557.4835
 218  686.4602
 219  627.7896
 220  542.8366
 221  704.6257
 222  599.3333
 223  628.3253
 224  658.0694
 225  657.6118
 226  699.4404
 227  813.0733
 228  795.3026
 229  696.027
 230  703.5272
 231  729.778
 232  582.9023
 233  604.7581
 234  631.0173
 235  729.6173
 236  717.1899
 237  655.428
 238  607.2715
 239  730.8635
 240  662.9215
 241  671.3774
 242  773.8506
 243  838.0138
 244  894.9749
 245  904.3837
 246  826.9044
 247  841.6155
 248  704.8777
 249  688.6185
 250  576.5869
 251  669.7041
 252  601.8741
 253  450.745
 254  568.1713
 255  606.8031
 256  598.1021
 257  608.6647
 258  738.7753
 259  788.8909
 260  859.3373
 261  744.1879
 262  699.0723
 263  732.2599
 264  542.8258
 265  603.8212
 266  633.9087
 267  702.3704
 268  682.3063
 269  669.2118
 270  686.1168
 271  608.4543
 272  627.8257
 273  625.9961
 274  715.6329
 275  850.1382
 276  732.0149
 277  840.3608
 278  725.5222
 279  732.5285
 280  779.3401
 281  740.7054
 282  669.1546
 283  695.0272
 284  778.0689
 285  728.8759
 286  664.8929
 287  690.533
 288  612.4265
 289  613.5093
 290  613.0826
 291  683.3242
 292  736.8448
 293  750.2036
 294  750.6603
 295  675.6363
 296  584.081
 297  699.7504
 298  701.603
 299  608.1479
 300  571.5561
 301  679.7503
 302  696.8885
 303  785.3545
 304  626.8699
 305  607.5936
 306  658.2535
 307  750.8976
 308  819.155
 309  936.598
 310  925.4116
 311  790.4764
 312  634.4987
 313  740.8649
 314  846.4623
 315  725.6218
 316  648.0833
 317  626.9454
 318  671.8452
 319  723.0386
 320  628.968
 321  639.7429
 322  750.2119
 323  589.2198
 324  649.0609
 325  709.3798
 326  735.3313
 327  782.2902
 328  791.4339
 329  825.6827
 330  648.0647
 331  641.2592
 332  771.9382
 333  589.1133
 334  776.485
 335  722.8896
 336  682.7235
 337  773.3854
 338  784.6359
 339  700.4349
 340  730.4031
 341  785.8829
 342  931.4572
 343  825.9427
 344  770.6978
 345  665.995
 346  777.3175
 347  699.905
 348  740.8115
 349  805.6785
 350  786.9184
 351  727.8383
 352  776.9098
 353  766.0811
 354  800.9328
 355  818.472
 356  843.4848
 357  786.8507
 358  984.274
 359  965.1002
 360  799.8906
 361  727.6937
 362  663.7346
 363  658.2116
 364  753.7992
 365  829.0919
 366  718.4697
 367  734.1397
 368  773.0094
 369  719.1719
 370  730.1538
 371  782.9823
 372  634.3755
 373  808.1068
 374  886.2118
 375  790.1614
 376  766.0593
 377  747.2214
 378  835.7753
 379  797.3472
 380  767.2722
 381  785.3332
 382  750.9991
 383  797.4217
 384  829.9438
 385  775.3701
 386  629.377
 387  718.9663
 388  809.449
 389  743.7191
 390  707.3
 391  748.9858
 392  799.8469
 393  844.0533
 394  819.7427
 395  726.459
 396  771.0063
 397  702.5917
 398  665.0747
 399  633.6412
 400  752.4236
 401  663.0963
 402  493.9563
 403  661.5633
 404  621.9791
 405  534.4296
 406  702.3538
 407  785.9947
 408  787.5409
 409  775.4593
 410  739.4502
 411  727.1534
 412  783.8205
 413  846.025
 414  602.5789
 415  571.2262
 416  684.1583
 417  746.2015
 418  694.3224
 419  754.9561
 420  742.4713
 421  729.8839
 422  834.5742
 423  779.6161
 424  851.063
 425  859.9094
 426  786.3168
 427  791.0018
 428  771.0176
 429  684.8898
 430  564.4294
 431  647.5714
 432  673.7332
 433  646.5212
 434  653.2331
 435  606.7682
 436  600.8749
 437  613.9141
 438  733.5886
 439  714.1729
 440  774.6608
 441  874.6826
 442  751.6812
 443  684.3658
 444  635.2245
 445  703.0682
 446  660.8266
 447  677.4196
 448  741.8175
 449  726.4144
 450  704.3242
 451  601.9291
 452  499.9727
 453  596.0345
 454  675.0568
 455  665.3643
 456  739.9531
 457  758.0498
 458  680.7748
 459  706.4645
 460  805.771
 461  832.0209
 462  757.5488
 463  595.6077
 464  496.8504
 465  598.3692
 466  650.5002
 467  646.0079
 468  536.9035
 469  478.0392
 470  575.5634
 471  621.3995
 472  632.4074
 473  692.204
 474  686.6205
 475  707.4532
 476  801.8363
 477  799.7651
 478  792.7151
 479  755.8378
 480  836.7104
 481  851.7838
 482  673.2114
 483  717.1896
 484  675.1193
 485  663.941
 486  841.0043
 487  768.6245
 488  644.9008
 489  747.0767
 490  770.7343
 491  824.8713
 492  904.3228
 493  765.1426
 494  691.1838
 495  748.4641
 496  787.1208
 497  701.9969
 498  700.4501
 499  739.7147
 500  740.0258
 501  742.1778
 502  665.762
 503  749.521
 504  715.5633
 505  818.6133
 506  860.7521
 507  754.3537
 508  995.2439
 509  1087.789
 510  1220.77
 511  1192.325
