# Input file       =  1209014843.115618_cleaned.dat
# Candidate        =  PSR_0332+5434
# Telescope        =  AR
# Epoch_topo       =  58237.227142541873
# Epoch_bary       =  N/A
# T_sample         =  0.002
# Data Folded      =  7208960
# Data Avg         =  0.0526744232649593
# Data StdDev      =  1.00005961764074 
# Profile Bins     =  512
# Profile Avg      =  741.619160337173 
# Profile StdDev   =  118.666249973643 
# Reduced chi-sqr  =  1.468
# Prob(Noise)      <  2.37e-11   (~6.6 sigma)
# P_topo (ms)      =  714.548301508176  +/- 9.06e-05
# P'_topo (s/s)    =  -0                +/- 4.87e-11
# P''_topo (s/s^2) =  0                 +/- 2.19e-14
# P_bary (ms)      =  N/A
# P'_bary (s/s)    =  N/A
# P''_bary (s/s^2) =  N/A
# P_orb (s)        =  N/A
# asin(i)/c (s)    =  N/A
# eccentricity     =  N/A
# w (rad)          =  N/A
# T_peri           =  N/A
######################################################
   0  1398.492
   1  1395.083
   2  1249.32
   3  1038.965
   4  951.1033
   5  856.3008
   6  749.6096
   7  789.2117
   8  733.7125
   9  763.5751
  10  839.8014
  11  824.3895
  12  869.9617
  13  873.0576
  14  714.5867
  15  621.0903
  16  777.4279
  17  689.2186
  18  724.2638
  19  731.4312
  20  732.9822
  21  792.306
  22  688.2913
  23  646.2877
  24  504.1577
  25  710.4614
  26  761.4517
  27  750.3914
  28  773.2283
  29  703.0187
  30  704.6706
  31  665.9761
  32  605.3525
  33  589.5944
  34  688.6221
  35  738.0409
  36  762.7078
  37  731.7982
  38  697.3369
  39  642.4598
  40  602.5828
  41  553.4618
  42  571.5316
  43  622.6336
  44  702.6299
  45  775.2245
  46  750.3284
  47  692.637
  48  706.69
  49  730.1914
  50  747.4995
  51  730.4761
  52  762.6224
  53  721.8119
  54  728.567
  55  736.4851
  56  735.1221
  57  774.866
  58  734.6396
  59  684.9073
  60  686.5671
  61  780.9302
  62  943.1102
  63  872.6209
  64  737.1094
  65  683.8597
  66  694.6216
  67  695.9039
  68  756.6444
  69  798.0987
  70  852.7845
  71  707.3672
  72  686.1425
  73  628.1619
  74  642.3257
  75  702.5743
  76  769.0618
  77  766.1507
  78  672.1792
  79  721.335
  80  630.8079
  81  534.4604
  82  630.4793
  83  698.2999
  84  712.9158
  85  774.8506
  86  693.6588
  87  677.1196
  88  697.0287
  89  658.2109
  90  716.5474
  91  767.8572
  92  749.5892
  93  755.8854
  94  734.7603
  95  697.9981
  96  666.4703
  97  621.6053
  98  597.9811
  99  772.6212
 100  855.924
 101  863.96
 102  879.3887
 103  836.6862
 104  722.852
 105  644.2607
 106  608.2559
 107  697.6399
 108  788.0557
 109  734.7524
 110  682.0927
 111  659.9746
 112  854.2457
 113  814.0147
 114  605.9036
 115  520.5966
 116  542.2969
 117  687.5162
 118  770.4535
 119  699.9667
 120  751.762
 121  666.0517
 122  657.9581
 123  750.4882
 124  864.7669
 125  840.0695
 126  760.665
 127  776.069
 128  801.0795
 129  633.0869
 130  566.8115
 131  689.3953
 132  790.7707
 133  824.8543
 134  820.9095
 135  818.062
 136  837.0153
 137  856.9269
 138  791.1834
 139  830.9482
 140  813.9135
 141  697.4321
 142  770.2742
 143  849.7072
 144  938.399
 145  974.5789
 146  896.8491
 147  778.9389
 148  795.883
 149  832.0092
 150  801.8439
 151  748.2552
 152  830.3301
 153  833.5508
 154  831.9409
 155  878.8065
 156  804.3943
 157  707.6473
 158  740.3211
 159  792.6296
 160  743.1871
 161  764.7535
 162  741.5473
 163  639.3305
 164  634.5839
 165  723.8529
 166  843.6173
 167  827.3463
 168  873.0549
 169  782.4526
 170  737.7499
 171  681.4644
 172  717.0746
 173  695.5341
 174  693.2471
 175  803.115
 176  599.2658
 177  566.4147
 178  755.9562
 179  748.7645
 180  698.312
 181  738.6313
 182  806.7673
 183  829.8175
 184  824.5371
 185  773.1304
 186  639.3356
 187  676.4736
 188  727.0659
 189  676.5027
 190  683.0014
 191  703.957
 192  598.8553
 193  589.8996
 194  649.2706
 195  658.178
 196  661.6194
 197  663.9526
 198  659.8492
 199  658.9678
 200  774.7028
 201  752.3836
 202  709.5375
 203  669.2949
 204  579.7465
 205  609.8562
 206  595.7086
 207  637.9825
 208  667.946
 209  664.5424
 210  680.7467
 211  613.4559
 212  527.7874
 213  592.2526
 214  601.8165
 215  695.4389
 216  794.9831
 217  765.8728
 218  631.2059
 219  743.2432
 220  751.9893
 221  643.0714
 222  575.0347
 223  604.7692
 224  607.4536
 225  703.0374
 226  677.8535
 227  773.6922
 228  815.9454
 229  704.9849
 230  739.9212
 231  800.5024
 232  837.9737
 233  782.1417
 234  707.5334
 235  800.6675
 236  771.1194
 237  691.899
 238  676.4244
 239  776.9182
 240  854.2115
 241  844.7006
 242  859.4953
 243  820.1871
 244  767.1304
 245  801.3652
 246  750.4544
 247  842.1649
 248  839.645
 249  945.5627
 250  957.4915
 251  908.4613
 252  950.8802
 253  929.8051
 254  768.2994
 255  718.1914
 256  687.8981
 257  790.818
 258  879.5563
 259  785.3499
 260  826.5882
 261  921.2862
 262  765.4139
 263  686.8574
 264  625.9922
 265  697.8882
 266  689.6707
 267  824.7678
 268  880.593
 269  866.0573
 270  682.9136
 271  676.7903
 272  822.0393
 273  767.7793
 274  730.7925
 275  781.0497
 276  779.844
 277  741.2922
 278  824.4938
 279  790.1406
 280  780.7321
 281  935.894
 282  970.0308
 283  931.0198
 284  957.55
 285  852.6637
 286  838.2192
 287  710.7049
 288  748.18
 289  676.1536
 290  761.1333
 291  818.6083
 292  717.2214
 293  717.6365
 294  839.4393
 295  757.0365
 296  723.2038
 297  683.4764
 298  651.6868
 299  751.1578
 300  758.1409
 301  745.3887
 302  666.3423
 303  707.2755
 304  588.9051
 305  499.3361
 306  619.9786
 307  687.1832
 308  703.7529
 309  728.072
 310  745.3353
 311  635.5609
 312  708.1577
 313  757.9912
 314  795.995
 315  842.3263
 316  634.4324
 317  635.768
 318  724.1785
 319  781.9168
 320  544.9789
 321  598.7452
 322  646.4272
 323  743.0624
 324  669.4628
 325  668.7787
 326  690.2238
 327  724.8947
 328  667.4644
 329  633.5182
 330  573.2378
 331  742.7857
 332  770.8632
 333  736.0055
 334  743.075
 335  748.8862
 336  613.181
 337  647.0889
 338  622.3811
 339  736.681
 340  712.9835
 341  644.296
 342  710.9836
 343  661.522
 344  687.7469
 345  585.9763
 346  680.9195
 347  638.8947
 348  683.8271
 349  660.2028
 350  671.311
 351  747.8299
 352  708.0729
 353  602.0295
 354  572.1002
 355  659.8864
 356  661.7569
 357  743.0508
 358  838.9764
 359  901.5422
 360  814.7452
 361  715.879
 362  771.2374
 363  707.8176
 364  754.8217
 365  816.6921
 366  741.5836
 367  758.5876
 368  844.2256
 369  872.6105
 370  693.7153
 371  708.5411
 372  725.4573
 373  714.9422
 374  716.7916
 375  778.9285
 376  754.6605
 377  761.9311
 378  812.8621
 379  783.7792
 380  776.4658
 381  801.2142
 382  835.4579
 383  952.3422
 384  972.1566
 385  850.3798
 386  644.9953
 387  651.3601
 388  732.1327
 389  776.7852
 390  729.1901
 391  847.1725
 392  941.2407
 393  805.2708
 394  785.724
 395  656.3765
 396  765.6423
 397  693.7767
 398  721.1453
 399  730.5867
 400  739.5053
 401  815.4678
 402  734.6938
 403  669.0007
 404  707.0021
 405  740.8223
 406  734.3879
 407  687.2778
 408  712.2461
 409  754.8613
 410  695.1213
 411  743.906
 412  797.5454
 413  778.168
 414  702.3519
 415  708.0394
 416  743.8539
 417  773.0747
 418  686.8574
 419  691.7659
 420  832.5944
 421  721.0178
 422  787.6516
 423  706.1169
 424  757.0656
 425  779.1016
 426  723.155
 427  660.2487
 428  649.7267
 429  726.8693
 430  687.8379
 431  714.5194
 432  780.6013
 433  722.942
 434  660.1651
 435  586.4689
 436  551.5872
 437  566.0396
 438  704.2773
 439  655.8533
 440  642.9817
 441  698.2057
 442  702.0219
 443  687.3688
 444  591.4033
 445  689.2205
 446  638.3857
 447  570.7657
 448  694.9912
 449  799.8783
 450  810.5092
 451  761.8801
 452  724.3488
 453  639.3515
 454  751.7349
 455  692.3076
 456  749.3809
 457  674.5503
 458  672.751
 459  808.0458
 460  710.9333
 461  741.1637
 462  782.3544
 463  735.7276
 464  628.1505
 465  605.8384
 466  804.2101
 467  898.3181
 468  753.9343
 469  658.0478
 470  743.2936
 471  692.0787
 472  702.0286
 473  767.2483
 474  830.2603
 475  877.5437
 476  735.6871
 477  651.1077
 478  622.6781
 479  690.6951
 480  734.5983
 481  706.0583
 482  761.7542
 483  751.8492
 484  779.6094
 485  868.1561
 486  795.123
 487  691.2051
 488  742.1183
 489  730.9045
 490  694.0383
 491  690.6786
 492  704.8457
 493  713.8168
 494  755.4239
 495  735.1017
 496  829.3676
 497  892.8395
 498  887.5662
 499  712.6044
 500  699.6855
 501  823.547
 502  712.4097
 503  634.6578
 504  719.1132
 505  888.963
 506  900.713
 507  870.8616
 508  1042.25
 509  1050.05
 510  1129.655
 511  1263.063
