# Input file       =  1209546443.111069_cleaned.dat
# Candidate        =  PSR_0332+5434
# Telescope        =  AR
# Epoch_topo       =  58243.379920267005
# Epoch_bary       =  N/A
# T_sample         =  0.002
# Data Folded      =  7340032
# Data Avg         =  0.0759066834056693
# Data StdDev      =  1.00014028607825 
# Profile Bins     =  512
# Profile Avg      =  1088.94315240228 
# Profile StdDev   =  119.749833254877 
# Reduced chi-sqr  =  2.048
# Prob(Noise)      <  4e-39   (~13.0 sigma)
# P_topo (ms)      =  714.542740214107  +/- 0.000756
# P'_topo (s/s)    =  -0                +/- 3.99e-10
# P''_topo (s/s^2) =  0                 +/- 1.76e-13
# P_bary (ms)      =  N/A
# P'_bary (s/s)    =  N/A
# P''_bary (s/s^2) =  N/A
# P_orb (s)        =  N/A
# asin(i)/c (s)    =  N/A
# eccentricity     =  N/A
# w (rad)          =  N/A
# T_peri           =  N/A
######################################################
   0  1649.182
   1  1588.799
   2  1511.448
   3  1421.134
   4  1335.356
   5  1210.833
   6  1131.171
   7  1161.311
   8  1198.609
   9  1247.455
  10  1190.676
  11  1123.542
  12  1166.625
  13  1254.358
  14  1246.268
  15  1192.015
  16  1199.493
  17  1230.227
  18  1237.737
  19  1209.901
  20  1100.593
  21  1161.079
  22  1176.543
  23  1211.211
  24  1163.438
  25  1113.532
  26  1125.486
  27  1214.111
  28  1232.99
  29  1213.002
  30  1182.661
  31  1252.72
  32  1166.118
  33  1146.617
  34  1142.459
  35  1189.719
  36  1146.53
  37  1197.344
  38  1232.397
  39  1221.952
  40  1168.307
  41  1177.037
  42  1166.585
  43  1120.318
  44  1153.833
  45  1106.18
  46  1124.27
  47  1123.534
  48  1047.75
  49  965.1035
  50  953.8348
  51  1057.571
  52  1092.247
  53  1011.053
  54  999.5406
  55  1070.783
  56  1145.768
  57  1116.326
  58  1023.635
  59  1019.595
  60  1081.885
  61  1140.798
  62  1064.725
  63  1035.301
  64  1044.013
  65  1041.293
  66  1003.59
  67  1011.074
  68  983.9761
  69  998.7849
  70  1023.788
  71  927.5902
  72  906.9781
  73  866.3029
  74  939.2371
  75  946.2942
  76  910.572
  77  878.5206
  78  878.5923
  79  901.2558
  80  934.0041
  81  911.0264
  82  933.2896
  83  914.4141
  84  900.7599
  85  937.4156
  86  892.5223
  87  869.33
  88  949.8554
  89  945.7059
  90  936.9512
  91  905.2593
  92  965.0581
  93  1007.112
  94  987.8787
  95  1012.53
  96  996.5178
  97  936.6288
  98  939.1685
  99  944.4771
 100  1029.813
 101  1034.412
 102  963.6496
 103  1025.447
 104  1017.11
 105  1005.583
 106  996.3839
 107  1019.13
 108  979.9097
 109  950.8384
 110  1001.961
 111  990.1193
 112  972.0112
 113  934.0001
 114  961.9081
 115  1035.127
 116  1043.04
 117  966.91
 118  903.6691
 119  923.603
 120  1035.522
 121  1033.674
 122  982.4448
 123  999.8804
 124  1107.394
 125  1071.534
 126  974.4616
 127  984.9241
 128  1130.558
 129  1092.356
 130  1071.837
 131  1068.459
 132  1039.029
 133  946.9268
 134  892.1248
 135  968.2816
 136  1013.615
 137  976.3804
 138  955.4133
 139  909.9039
 140  892.0164
 141  1040.938
 142  991.7858
 143  956.3007
 144  1027.837
 145  1040.129
 146  997.6959
 147  966.3882
 148  950.135
 149  986.8953
 150  921.646
 151  943.1324
 152  984.2726
 153  965.1956
 154  988.4821
 155  989.2188
 156  987.3548
 157  1012.034
 158  971.8632
 159  1020.253
 160  1026.557
 161  986.3551
 162  990.7086
 163  1064.116
 164  999.2423
 165  1063.345
 166  1082.283
 167  1072.81
 168  1141.471
 169  1089.457
 170  1156.669
 171  1118.224
 172  1129.092
 173  1105.949
 174  1080.209
 175  1089.357
 176  1083.984
 177  1004.918
 178  984.5615
 179  959.3194
 180  926.1688
 181  1036.095
 182  985.5335
 183  1001.293
 184  996.3904
 185  1032.405
 186  1059.085
 187  1024.842
 188  1002.282
 189  1053.095
 190  1106.723
 191  1093.056
 192  1041.828
 193  974.9744
 194  979.0412
 195  960.5873
 196  967.0894
 197  991.4266
 198  1020.077
 199  963.3353
 200  840.4702
 201  841.3622
 202  827.1342
 203  910.2878
 204  938.6024
 205  925.7335
 206  871.3004
 207  860.1854
 208  957.4303
 209  912.6054
 210  878.0662
 211  920.2827
 212  933.3585
 213  890.2483
 214  1002.825
 215  976.0001
 216  854.3031
 217  912.1907
 218  904.4031
 219  932.0223
 220  924.2608
 221  843.2412
 222  854.5159
 223  858.5906
 224  830.3125
 225  890.5495
 226  944.7517
 227  914.3438
 228  938.7116
 229  871.3605
 230  853.4758
 231  907.8654
 232  915.2441
 233  803.5643
 234  775.6339
 235  880.1755
 236  880.0917
 237  883.9129
 238  948.8973
 239  889.5075
 240  963.2985
 241  891.0804
 242  831.4656
 243  866.8395
 244  933.8022
 245  955.8832
 246  898.4179
 247  961.9223
 248  989.009
 249  897.5394
 250  924.9064
 251  972.9162
 252  1037.849
 253  1052.561
 254  1053.033
 255  1069.62
 256  1007.226
 257  957.485
 258  1004.051
 259  980.6973
 260  965.4935
 261  999.147
 262  1025.23
 263  1059.521
 264  1091.392
 265  1076.329
 266  1149.111
 267  1117.783
 268  1062.062
 269  1057.867
 270  1072.322
 271  1106.61
 272  1041.227
 273  1019.38
 274  1049.689
 275  1081.589
 276  1094.743
 277  1075.728
 278  1017.038
 279  1101.116
 280  1128.781
 281  1126.941
 282  1075.805
 283  1140.945
 284  1219.607
 285  1131.064
 286  1163.585
 287  1226.162
 288  1173.802
 289  1124.286
 290  1082.084
 291  1096.203
 292  1163.514
 293  1135.576
 294  1178.167
 295  1153.79
 296  1139.261
 297  1263.936
 298  1244.409
 299  1241.263
 300  1155.514
 301  1035.478
 302  1049.671
 303  1102.971
 304  1082.762
 305  1069.096
 306  985.6973
 307  1044.596
 308  1056.75
 309  1056.022
 310  1025.841
 311  1080.637
 312  1037.608
 313  1085.276
 314  1092.485
 315  1048.245
 316  1083.481
 317  1115.081
 318  1107.915
 319  1165.799
 320  1167.101
 321  1183.522
 322  1135.161
 323  1171.434
 324  1117.665
 325  1058.262
 326  1036.568
 327  1003.982
 328  1164.205
 329  1202.685
 330  1172.759
 331  1216.912
 332  1156.363
 333  1183.363
 334  1120.676
 335  1113.522
 336  1088.489
 337  1180.849
 338  1198.062
 339  1185.687
 340  1149.536
 341  1209.271
 342  1280.43
 343  1292.006
 344  1217.837
 345  1159.574
 346  1247.251
 347  1194.407
 348  1159.056
 349  1140.345
 350  1192.4
 351  1160.777
 352  1143.308
 353  1132.802
 354  1168.371
 355  1211.011
 356  1154.678
 357  1110.954
 358  1096.587
 359  1176.461
 360  1191.615
 361  1194.872
 362  1073.288
 363  1113.371
 364  1182.081
 365  1159.531
 366  1169.802
 367  1196.589
 368  1146.509
 369  1205.747
 370  1251.675
 371  1273.667
 372  1278.449
 373  1263.787
 374  1228.419
 375  1293.37
 376  1281.084
 377  1317.015
 378  1264.017
 379  1206.487
 380  1191.76
 381  1287.099
 382  1307.051
 383  1278.427
 384  1218.192
 385  1232.259
 386  1177.232
 387  1097.606
 388  1132.361
 389  1209.022
 390  1241.062
 391  1199.88
 392  1211.259
 393  1192.073
 394  1200.008
 395  1172.655
 396  1141.397
 397  1129.398
 398  1132.172
 399  1173.968
 400  1232.453
 401  1198.189
 402  1153.24
 403  1176.627
 404  1141.795
 405  1160.184
 406  1102.746
 407  1175.754
 408  1221.117
 409  1214.235
 410  1199.681
 411  1185.387
 412  1167.775
 413  1196.307
 414  1201.88
 415  1204.67
 416  1246.227
 417  1155.755
 418  1118.834
 419  1178.652
 420  1187.031
 421  1164.868
 422  1211.544
 423  1242.499
 424  1274.28
 425  1293.784
 426  1253.947
 427  1246.12
 428  1214.49
 429  1193.638
 430  1139.101
 431  1200.807
 432  1206.857
 433  1178.838
 434  1168.942
 435  1223.197
 436  1205.411
 437  1113.187
 438  1137.475
 439  1223.383
 440  1203.044
 441  1128.816
 442  1107.445
 443  1168.409
 444  1127.15
 445  1080.083
 446  1092.281
 447  1096.841
 448  1118.86
 449  1153.917
 450  1195.404
 451  1181.292
 452  1224.483
 453  1210.32
 454  1207.432
 455  1216.097
 456  1228.842
 457  1241.018
 458  1259.855
 459  1294.685
 460  1229.937
 461  1287.755
 462  1224.895
 463  1186.733
 464  1188.406
 465  1258.201
 466  1172.785
 467  1155.445
 468  1176.551
 469  1251.04
 470  1220.096
 471  1158.547
 472  1242.918
 473  1215.149
 474  1170.318
 475  1153.491
 476  1128.236
 477  1123.318
 478  1142.749
 479  1176.473
 480  1028.603
 481  967.6544
 482  1048.947
 483  1167.418
 484  1080.875
 485  1045.296
 486  1064.749
 487  1115.258
 488  1118.994
 489  1238.58
 490  1205.004
 491  1144.587
 492  1115.022
 493  1103.671
 494  1106.689
 495  1000.942
 496  1082.826
 497  1085.206
 498  1039.86
 499  1074.833
 500  1130.064
 501  1113.111
 502  1098.684
 503  1094.31
 504  1143.515
 505  1225.874
 506  1193.284
 507  1241.43
 508  1302.771
 509  1340.604
 510  1386.599
 511  1520.648
