# Input file       =  1209475210.112065_cleaned.dat
# Candidate        =  PSR_0332+5434
# Telescope        =  AR
# Epoch_topo       =  58242.555464260011
# Epoch_bary       =  N/A
# T_sample         =  0.002
# Data Folded      =  7340032
# Data Avg         =  0.0469142572872501
# Data StdDev      =  1.00010918536877 
# Profile Bins     =  512
# Profile Avg      =  672.59162120879  
# Profile StdDev   =  119.746109472496 
# Reduced chi-sqr  =  1.313
# Prob(Noise)      <  2.31e-06   (~4.6 sigma)
# P_topo (ms)      =  714.543834127249  +/- 0.000258
# P'_topo (s/s)    =  -0                +/- 1.36e-10
# P''_topo (s/s^2) =  0                 +/- 6.01e-14
# P_bary (ms)      =  N/A
# P'_bary (s/s)    =  N/A
# P''_bary (s/s^2) =  N/A
# P_orb (s)        =  N/A
# asin(i)/c (s)    =  N/A
# eccentricity     =  N/A
# w (rad)          =  N/A
# T_peri           =  N/A
######################################################
   0  1349.063
   1  1281.672
   2  1082.726
   3  1001.313
   4  863.7718
   5  642.6566
   6  679.9111
   7  699.6223
   8  733.4821
   9  700.7979
  10  726.7518
  11  762.2695
  12  754.913
  13  800.3675
  14  667.5988
  15  714.0456
  16  684.6161
  17  605.2663
  18  642.7166
  19  571.3665
  20  589.3143
  21  633.9508
  22  531.4894
  23  479.8575
  24  523.1683
  25  582.293
  26  657.4248
  27  585.3475
  28  680.0579
  29  721.0596
  30  633.0771
  31  669.7166
  32  574.5621
  33  672.6401
  34  575.0722
  35  493.3342
  36  611.0566
  37  652.601
  38  707.8101
  39  677.1158
  40  660.8666
  41  648.7161
  42  703.5342
  43  702.9177
  44  606.1942
  45  564.6118
  46  640.5629
  47  635.9692
  48  701.0742
  49  636.8227
  50  680.2614
  51  687.7483
  52  673.02
  53  659.8311
  54  696.4334
  55  706.7623
  56  723.2561
  57  784.6624
  58  716.1011
  59  658.5352
  60  577.5757
  61  703.3702
  62  783.6194
  63  635.6672
  64  756.6051
  65  795.0617
  66  719.1429
  67  700.2078
  68  725.7404
  69  666.415
  70  623.6353
  71  717.1322
  72  637.5261
  73  661.5656
  74  791.3077
  75  703.5569
  76  652.754
  77  593.8111
  78  717.0081
  79  816.8989
  80  759.8412
  81  785.5086
  82  659.4753
  83  582.5716
  84  640.5308
  85  724.6411
  86  703.2219
  87  773.489
  88  691.2618
  89  644.5082
  90  654.3943
  91  664.2628
  92  709.1632
  93  722.3065
  94  661.9561
  95  697.0113
  96  733.0182
  97  703.5419
  98  644.3696
  99  570.1603
 100  641.92
 101  635.4396
 102  654.5758
 103  604.7808
 104  601.9022
 105  605.1258
 106  656.767
 107  741.571
 108  710.2899
 109  757.1945
 110  806.9841
 111  795.86
 112  750.0536
 113  744.2973
 114  711.8227
 115  770.0784
 116  849.6539
 117  642.5201
 118  634.4341
 119  715.6731
 120  728.2839
 121  667.0861
 122  601.3824
 123  627.6657
 124  785.1149
 125  684.0135
 126  560.4235
 127  434.617
 128  553.9286
 129  659.3035
 130  678.4935
 131  684.8984
 132  629.3154
 133  601.7756
 134  556.8007
 135  556.1776
 136  686.7014
 137  754.162
 138  596.7002
 139  579.0618
 140  694.0338
 141  738.5723
 142  651.4487
 143  633.639
 144  696.6877
 145  644.1002
 146  641.455
 147  577.4329
 148  567.6756
 149  562.6691
 150  556.1348
 151  586.2244
 152  592.0654
 153  584.9237
 154  594.8779
 155  667.4367
 156  689.6527
 157  656.6778
 158  684.879
 159  699.4721
 160  651.9033
 161  574.7617
 162  668.0731
 163  710.2901
 164  718.1818
 165  642.127
 166  736.731
 167  599.1034
 168  548.8055
 169  662.7452
 170  805.4828
 171  719.2538
 172  742.4657
 173  529.2476
 174  586.6266
 175  873.0438
 176  846.9308
 177  750.6409
 178  593.9167
 179  590.389
 180  606.802
 181  558.1659
 182  521.0235
 183  485.2153
 184  575.0762
 185  706.2062
 186  653.9868
 187  674.3673
 188  682.1901
 189  656.3396
 190  662.058
 191  712.4469
 192  683.0507
 193  683.0911
 194  766.7732
 195  852.7684
 196  741.2906
 197  714.4172
 198  804.5975
 199  777.5306
 200  675.34
 201  722.3425
 202  752.7585
 203  733.9572
 204  705.0537
 205  635.0267
 206  673.7987
 207  725.3616
 208  650.7655
 209  614.2018
 210  560.1487
 211  678.6799
 212  610.7628
 213  600.1534
 214  724.9084
 215  652.3899
 216  546.6675
 217  532.286
 218  640.3874
 219  790.9619
 220  740.7691
 221  732.0219
 222  718.5132
 223  806.5612
 224  775.1414
 225  725.2731
 226  723.7598
 227  714.9761
 228  665.3691
 229  623.0329
 230  643.9158
 231  619.9936
 232  598.3588
 233  573.6321
 234  550.1041
 235  526.1118
 236  627.5461
 237  583.0412
 238  688.4417
 239  829.5151
 240  816.9501
 241  804.1262
 242  749.4048
 243  691.2244
 244  739.7017
 245  816.5008
 246  789.7227
 247  785.8754
 248  749.534
 249  702.482
 250  623.2543
 251  590.0234
 252  635.7802
 253  646.0161
 254  636.1531
 255  655.0455
 256  772.2716
 257  810.0097
 258  773.202
 259  812.9086
 260  753.3914
 261  788.3885
 262  744.0889
 263  679.5783
 264  620.0446
 265  679.3066
 266  668.4178
 267  564.0912
 268  587.8378
 269  662.6576
 270  676.6645
 271  674.5884
 272  675.0517
 273  650.3004
 274  665.1708
 275  723.9361
 276  628.8588
 277  616.4915
 278  685.5528
 279  567.4745
 280  616.92
 281  737.9359
 282  694.3325
 283  629.4231
 284  643.8508
 285  722.7766
 286  702.4675
 287  665.1684
 288  628.9556
 289  744.4999
 290  765.9835
 291  723.5087
 292  606.2175
 293  589.6508
 294  696.9865
 295  790.3854
 296  780.064
 297  703.5374
 298  640.0656
 299  565.4131
 300  567.4092
 301  556.4481
 302  568.2189
 303  557.5233
 304  614.1794
 305  650.0679
 306  620.6883
 307  636.3954
 308  623.1422
 309  603.9472
 310  591.6282
 311  595.7308
 312  651.3403
 313  646.7292
 314  668.6242
 315  636.3587
 316  545.3519
 317  564.3231
 318  535.0089
 319  625.3305
 320  558.6957
 321  539.8986
 322  652.4524
 323  672.0747
 324  591.0708
 325  613.3519
 326  692.8292
 327  765.3482
 328  678.5647
 329  736.8456
 330  794.1071
 331  699.8187
 332  518.0041
 333  542.2469
 334  607.4195
 335  639.0911
 336  599.6602
 337  669.977
 338  606.4878
 339  557.8605
 340  605.6464
 341  602.756
 342  663.0285
 343  625.7263
 344  707.0858
 345  668.3788
 346  636.6508
 347  594.5435
 348  630.2056
 349  572.4469
 350  628.8984
 351  650.5921
 352  647.8704
 353  564.1863
 354  636.3668
 355  725.0523
 356  615.5168
 357  579.972
 358  656.7734
 359  625.2677
 360  650.8249
 361  601.6854
 362  588.3528
 363  709.3966
 364  682.9163
 365  677.383
 366  800.432
 367  801.061
 368  784.3937
 369  816.6017
 370  745.327
 371  583.9229
 372  652.1978
 373  654.3389
 374  674.4747
 375  657.3666
 376  684.7034
 377  753.3818
 378  699.6263
 379  717.8993
 380  620.2086
 381  634.9775
 382  610.6956
 383  673.5645
 384  720.5289
 385  674.5413
 386  665.6063
 387  742.5215
 388  658.3485
 389  636.1375
 390  728.2609
 391  764.0587
 392  680.0605
 393  611.6033
 394  609.8027
 395  664.253
 396  669.5762
 397  659.0107
 398  623.2714
 399  657.9368
 400  633.5508
 401  701.3719
 402  860.6223
 403  834.7037
 404  713.3665
 405  715.3471
 406  763.7612
 407  692.0001
 408  775.5505
 409  744.0613
 410  715.1348
 411  757.0024
 412  743.245
 413  684.6321
 414  772.9753
 415  763.5277
 416  746.5221
 417  879.7436
 418  819.3528
 419  678.1945
 420  730.513
 421  792.5935
 422  726.1769
 423  696.9204
 424  688.2271
 425  729.8283
 426  643.4716
 427  616.9819
 428  599.837
 429  624.1384
 430  616.5087
 431  531.5222
 432  621.8636
 433  574.5244
 434  555.1689
 435  519.3722
 436  480.1971
 437  546.144
 438  596.4857
 439  674.2021
 440  670.3914
 441  548.7592
 442  497.4243
 443  457.6593
 444  435.4825
 445  560.1836
 446  669.6994
 447  630.25
 448  650.2208
 449  719.8944
 450  643.7719
 451  614.6021
 452  671.0085
 453  616.7491
 454  640.8839
 455  770.1782
 456  758.7485
 457  771.5826
 458  761.592
 459  600.9683
 460  491.7441
 461  565.0318
 462  698.1077
 463  654.7722
 464  550.7205
 465  483.3096
 466  571.9673
 467  727.431
 468  725.3051
 469  554.5267
 470  509.5321
 471  717.72
 472  734.0704
 473  697.5443
 474  846.0089
 475  745.0303
 476  667.8665
 477  514.48
 478  464.6077
 479  579.9147
 480  615.5833
 481  600.7131
 482  558.4662
 483  514.6293
 484  406.1756
 485  515.1059
 486  681.9218
 487  667.7221
 488  598.3146
 489  707.5038
 490  599.4471
 491  562.3289
 492  677.7139
 493  777.844
 494  785.3655
 495  796.4664
 496  815.3748
 497  721.7256
 498  660.2927
 499  678.681
 500  688.8108
 501  663.2321
 502  785.1628
 503  861.6002
 504  680.8241
 505  706.2234
 506  748.0463
 507  700.8835
 508  702.271
 509  963.8199
 510  1116.057
 511  1282.183
