# Input file       =  1209201872.113502_cleaned.dat
# Candidate        =  PSR_0332+5434
# Telescope        =  AR
# Epoch_topo       =  58239.391830017383
# Epoch_bary       =  N/A
# T_sample         =  0.002
# Data Folded      =  7340032
# Data Avg         =  0.0627275018725531
# Data StdDev      =  0.999914946564682
# Profile Bins     =  512
# Profile Avg      =  898.248161550909 
# Profile StdDev   =  119.722852670701 
# Reduced chi-sqr  =  1.812
# Prob(Noise)      <  2.16e-26   (~10.6 sigma)
# P_topo (ms)      =  714.546379931127  +/- 0.000342
# P'_topo (s/s)    =  -0                +/- 1.81e-10
# P''_topo (s/s^2) =  0                 +/- 7.97e-14
# P_bary (ms)      =  N/A
# P'_bary (s/s)    =  N/A
# P''_bary (s/s^2) =  N/A
# P_orb (s)        =  N/A
# asin(i)/c (s)    =  N/A
# eccentricity     =  N/A
# w (rad)          =  N/A
# T_peri           =  N/A
######################################################
   0  1418.897
   1  1389.948
   2  1345.19
   3  1225.261
   4  998.6578
   5  1010.765
   6  988.3331
   7  1013.528
   8  964.3269
   9  972.9742
  10  955.4626
  11  932.4427
  12  968.224
  13  975.9264
  14  992.0806
  15  951.3708
  16  893.1478
  17  852.3329
  18  780.8074
  19  712.4478
  20  689.394
  21  687.4501
  22  695.3767
  23  664.8131
  24  631.6262
  25  631.6537
  26  717.2879
  27  741.6797
  28  764.3147
  29  783.0015
  30  814.2144
  31  730.4953
  32  707.6666
  33  702.8697
  34  698.5544
  35  670.2941
  36  634.8185
  37  544.2794
  38  630.1933
  39  710.539
  40  697.2084
  41  676.2451
  42  640.7403
  43  626.7863
  44  636.4045
  45  714.2789
  46  703.7041
  47  672.5545
  48  592.3458
  49  560.3049
  50  619.9887
  51  623.1251
  52  576.116
  53  612.7831
  54  685.1823
  55  675.1723
  56  697.8729
  57  769.478
  58  683.1069
  59  788.2077
  60  799.7446
  61  754.4045
  62  679.8562
  63  699.903
  64  698.9287
  65  715.7725
  66  705.5475
  67  754.7525
  68  792.6659
  69  744.9378
  70  816.1232
  71  734.5291
  72  789.2277
  73  850.4374
  74  883.5503
  75  863.5897
  76  802.5508
  77  804.5065
  78  795.7292
  79  765.0648
  80  837.7204
  81  862.3958
  82  846.9643
  83  845.4438
  84  846.0751
  85  893.6098
  86  930.8154
  87  934.5287
  88  950.3931
  89  965.3182
  90  861.9445
  91  876.8239
  92  947.6535
  93  943.7057
  94  877.8468
  95  817.972
  96  784.396
  97  783.6995
  98  828.6576
  99  886.3217
 100  879.6384
 101  893.9597
 102  966.8693
 103  800.5228
 104  814.3339
 105  855.8222
 106  774.0133
 107  739.6974
 108  732.1455
 109  810.6885
 110  771.5018
 111  777.1081
 112  751.0077
 113  681.1675
 114  779.1229
 115  789.2947
 116  852.5681
 117  831.8243
 118  888.772
 119  836.1732
 120  840.7205
 121  966.5391
 122  987.8555
 123  954.8896
 124  915.7375
 125  840.3516
 126  835.876
 127  842.0529
 128  778.0878
 129  811.5588
 130  916.8138
 131  902.1432
 132  872.8315
 133  867.4388
 134  927.1711
 135  877.5325
 136  819.3167
 137  862.3085
 138  921.1631
 139  905.4465
 140  859.8438
 141  906.0381
 142  868.3694
 143  920.0576
 144  868.0775
 145  799.7772
 146  892.2339
 147  934.5947
 148  917.2702
 149  837.1402
 150  886.009
 151  890.9043
 152  821.3297
 153  845.0953
 154  865.4667
 155  921.6127
 156  852.4351
 157  800.9299
 158  873.3078
 159  999.3057
 160  886.5079
 161  839.5789
 162  791.6499
 163  839.5733
 164  845.7842
 165  855.8493
 166  931.4753
 167  876.2606
 168  847.1798
 169  924.4996
 170  840.2763
 171  854.4691
 172  911.9431
 173  843.399
 174  848.4344
 175  852.2844
 176  913.4888
 177  871.6321
 178  851.8634
 179  855.5817
 180  782.8701
 181  797.2123
 182  832.8634
 183  859.0151
 184  848.6774
 185  802.8642
 186  840.347
 187  771.6239
 188  725.6074
 189  804.9151
 190  863.607
 191  885.0306
 192  814.6739
 193  825.5768
 194  779.2765
 195  749.0674
 196  802.986
 197  836.0158
 198  861.5994
 199  806.9584
 200  871.611
 201  922.288
 202  821.5617
 203  840.7445
 204  934.3275
 205  981.9843
 206  1002.048
 207  984.4263
 208  955.2624
 209  968.1885
 210  979.9277
 211  977.1254
 212  984.5753
 213  1051.515
 214  961.5663
 215  915.9422
 216  936.8253
 217  952.2703
 218  890.4813
 219  894.4998
 220  970.3918
 221  1076.927
 222  1060.019
 223  1034.48
 224  1042.824
 225  1037.378
 226  1001.256
 227  986.4509
 228  1007.916
 229  988.8473
 230  959.1703
 231  937.0692
 232  902.6331
 233  914.7057
 234  873.3909
 235  892.9617
 236  896.2706
 237  1048.917
 238  997.6917
 239  940.4781
 240  934.3727
 241  899.1149
 242  994.5722
 243  901.7695
 244  945.9036
 245  898.0995
 246  765.7736
 247  790.244
 248  868.1191
 249  852.868
 250  873.439
 251  814.9094
 252  838.2127
 253  883.784
 254  858.444
 255  813.4473
 256  828.6021
 257  851.5187
 258  911.272
 259  958.6092
 260  859.8997
 261  894.2134
 262  937.4296
 263  888.9601
 264  894.8074
 265  932.4076
 266  905.5048
 267  892.4301
 268  954.1558
 269  1074.625
 270  968.8662
 271  926.8521
 272  982.4551
 273  889.5091
 274  935.2333
 275  1006.563
 276  997.4755
 277  994.9841
 278  1047.559
 279  955.7187
 280  980.6795
 281  1033.41
 282  1051.047
 283  1045.826
 284  1046.137
 285  980.432
 286  959.8793
 287  954.1165
 288  1135.698
 289  1092.707
 290  1067.543
 291  1059.375
 292  1038.582
 293  955.4573
 294  1001.18
 295  1064
 296  1081.527
 297  974.9425
 298  944.0132
 299  1034.731
 300  1026.481
 301  956.5313
 302  915.1746
 303  946.9722
 304  1036.073
 305  1087.642
 306  1057.522
 307  945.2062
 308  1005.263
 309  1026.663
 310  1052.72
 311  1091.644
 312  1110.276
 313  1085.422
 314  1084.092
 315  1130.744
 316  1095.32
 317  1039.129
 318  1050.594
 319  1060.66
 320  1022.604
 321  1018.809
 322  1062.936
 323  1038.548
 324  909.299
 325  856.0023
 326  976.6297
 327  1029.198
 328  979.5052
 329  950.6818
 330  946.5356
 331  977.4525
 332  965.9318
 333  966.6754
 334  951.6451
 335  973.8881
 336  964.4553
 337  855.9424
 338  771.738
 339  820.4877
 340  893.5949
 341  874.3657
 342  925.4045
 343  893.9014
 344  972.2598
 345  1040.404
 346  998.2983
 347  947.1335
 348  952.2337
 349  954.7264
 350  1005.064
 351  1052.316
 352  978.8759
 353  929.2627
 354  936.6276
 355  958.4573
 356  979.5274
 357  1067.155
 358  1076.829
 359  1012.941
 360  1025.239
 361  1019.393
 362  1005.732
 363  1061.017
 364  1020.039
 365  894.5255
 366  904.6031
 367  902.7838
 368  849.7621
 369  850.2518
 370  866.5692
 371  962.8257
 372  1003.955
 373  957.593
 374  923.7957
 375  929.9769
 376  943.2427
 377  898.0798
 378  905.326
 379  897.2576
 380  941.7371
 381  916.8732
 382  885.9854
 383  923.7596
 384  902.2448
 385  932.4945
 386  953.5817
 387  979.7084
 388  1030.499
 389  972.6783
 390  946.4954
 391  968.3627
 392  973.7408
 393  935.158
 394  848.6064
 395  911.8869
 396  941.3193
 397  892.6558
 398  847.9427
 399  815.7917
 400  809.0859
 401  853.3323
 402  862.2866
 403  801.2149
 404  892.8627
 405  924.3538
 406  937.4266
 407  884.0895
 408  861.6419
 409  979.8803
 410  935.8134
 411  870.2117
 412  870.5652
 413  968.6117
 414  1016.958
 415  941.7436
 416  953.0936
 417  1012.402
 418  1014.948
 419  997.3673
 420  967.6038
 421  959.7369
 422  1028.757
 423  1037.662
 424  1029.647
 425  1079.028
 426  1033.415
 427  894.0074
 428  950.2082
 429  912.5815
 430  945.425
 431  977.5475
 432  955.1876
 433  960.3433
 434  986.7476
 435  935.272
 436  905.3294
 437  1001.961
 438  990.8503
 439  968.3772
 440  846.2039
 441  878.3947
 442  923.0576
 443  970.1343
 444  953.8824
 445  979.7718
 446  926.7355
 447  891.7733
 448  853.9977
 449  879.1943
 450  957.3792
 451  942.9698
 452  932.0798
 453  975.1151
 454  924.4467
 455  963.4401
 456  974.436
 457  832.3678
 458  796.7322
 459  884.6378
 460  942.0865
 461  924.806
 462  949.3207
 463  913.724
 464  817.3469
 465  840.806
 466  885.5703
 467  838.5718
 468  846.8499
 469  773.751
 470  819.1776
 471  777.1402
 472  686.1631
 473  801.7298
 474  895.5992
 475  839.4817
 476  808.2289
 477  748.6849
 478  774.0906
 479  753.3422
 480  795.4523
 481  833.9409
 482  792.4612
 483  815.8318
 484  778.0493
 485  760.6134
 486  768.2526
 487  817.0038
 488  831.3568
 489  858.4924
 490  902.1152
 491  895.972
 492  913.5026
 493  859.217
 494  878.7496
 495  868.4794
 496  879.5362
 497  941.0475
 498  869.26
 499  887.4276
 500  953.6165
 501  945.3981
 502  930.3656
 503  1005.329
 504  997.8849
 505  1037.03
 506  1034.185
 507  995.7759
 508  1041.388
 509  1144.506
 510  1277.092
 511  1383.264
