# Input file       =  1209561351.137129_cleaned.dat
# Candidate        =  PSR_0332+5434
# Telescope        =  AR
# Epoch_topo       =  58243.552466864923
# Epoch_bary       =  N/A
# T_sample         =  0.002
# Data Folded      =  7340032
# Data Avg         =  0.0473579380261997
# Data StdDev      =  1.00009814015897 
# Profile Bins     =  512
# Profile Avg      =  678.636315381445 
# Profile StdDev   =  119.744786995989 
# Reduced chi-sqr  =  1.181
# Prob(Noise)      <  0.00291   (~2.8 sigma)
# P_topo (ms)      =  714.5429134498    +/- 0.000512
# P'_topo (s/s)    =  -0                +/- 2.7e-10
# P''_topo (s/s^2) =  0                 +/- 1.19e-13
# P_bary (ms)      =  N/A
# P'_bary (s/s)    =  N/A
# P''_bary (s/s^2) =  N/A
# P_orb (s)        =  N/A
# asin(i)/c (s)    =  N/A
# eccentricity     =  N/A
# w (rad)          =  N/A
# T_peri           =  N/A
######################################################
   0  1249.457
   1  1197.923
   2  1092.632
   3  1002.76
   4  923.297
   5  831.0575
   6  729.0194
   7  623.658
   8  707.6682
   9  780.8363
  10  649.6379
  11  691.9136
  12  734.3865
  13  692.5294
  14  789.7258
  15  792.2003
  16  753.8082
  17  790.3802
  18  728.6821
  19  657.293
  20  666.7791
  21  662.3594
  22  662.4364
  23  678.6688
  24  713.3502
  25  780.3274
  26  696.3721
  27  588.8775
  28  626.7096
  29  678.932
  30  650.3032
  31  681.0732
  32  597.32
  33  539.855
  34  549.3516
  35  599.89
  36  622.5198
  37  600.4468
  38  582.1992
  39  578.0431
  40  523.2727
  41  500.1569
  42  530.6979
  43  547.2104
  44  536.0836
  45  530.2803
  46  521.8325
  47  672.6852
  48  619.4684
  49  513.0808
  50  486.1714
  51  498.8983
  52  429.063
  53  584.1642
  54  578.7248
  55  606.7361
  56  548.6319
  57  600.7642
  58  484.5013
  59  478.3109
  60  590.0012
  61  532.0255
  62  514.8001
  63  546.9352
  64  487.0945
  65  495.9415
  66  617.9155
  67  551.9943
  68  526.9415
  69  563.5678
  70  591.209
  71  649.4562
  72  597.9016
  73  692.3864
  74  723.4349
  75  745.4156
  76  652.7418
  77  660.5662
  78  586.5971
  79  566.5928
  80  668.8375
  81  605.0096
  82  587.5278
  83  554.9846
  84  640.0715
  85  710.985
  86  703.2831
  87  698.3931
  88  739.8081
  89  808.4531
  90  742.8538
  91  752.9454
  92  678.0876
  93  702.1178
  94  740.746
  95  649.9872
  96  719.6942
  97  722.0688
  98  659.8296
  99  676.1678
 100  552.308
 101  649.3805
 102  748.223
 103  747.1058
 104  808.8096
 105  771.4702
 106  748.4968
 107  724.6932
 108  786.1445
 109  790.4264
 110  780.8814
 111  655.9494
 112  625.841
 113  625.3106
 114  648.5172
 115  632.7567
 116  546.022
 117  662.83
 118  653.3074
 119  656.1498
 120  551.9201
 121  554.3734
 122  631.3525
 123  632.7007
 124  494.1239
 125  463.5878
 126  605.9083
 127  488.7633
 128  538.6085
 129  631.4982
 130  566.2092
 131  587.8491
 132  719.0969
 133  765.4687
 134  650.6728
 135  695.8097
 136  704.3275
 137  688.3383
 138  686.1749
 139  656.8566
 140  719.4698
 141  692.0745
 142  742.8699
 143  772.413
 144  837.5566
 145  698.8331
 146  546.2028
 147  715.7157
 148  711.1945
 149  659.3789
 150  626.3379
 151  628.3197
 152  722.3336
 153  669.0842
 154  575.2082
 155  615.4324
 156  697.0778
 157  705.0689
 158  705.1326
 159  544.0834
 160  642.9659
 161  639.8893
 162  481.7428
 163  697.216
 164  730.6109
 165  686.8058
 166  579.3459
 167  691.5831
 168  592.975
 169  609.0413
 170  650.2802
 171  647.5963
 172  506.8228
 173  530.5673
 174  656.7571
 175  697.0748
 176  653.7811
 177  601.769
 178  587.9395
 179  593.6541
 180  578.7509
 181  656.2229
 182  779.4753
 183  667.326
 184  611.5931
 185  687.9827
 186  677.6011
 187  723.4219
 188  670.6343
 189  625.5482
 190  673.3286
 191  685.0707
 192  612.9142
 193  622.0525
 194  568.9378
 195  671.4904
 196  594.1032
 197  470.8929
 198  559.7877
 199  646.1034
 200  575.1425
 201  542.9336
 202  620.302
 203  574.4678
 204  582.471
 205  610.068
 206  635.819
 207  615.8679
 208  677.8954
 209  731.001
 210  626.3189
 211  634.8658
 212  703.9318
 213  700.8645
 214  718.6096
 215  719.8276
 216  639.5317
 217  653.0767
 218  638.926
 219  693.5674
 220  686.4013
 221  604.6519
 222  539.9153
 223  636.021
 224  698.3236
 225  598.9349
 226  493.5098
 227  633.1509
 228  720.0383
 229  613.5219
 230  640.1577
 231  675.068
 232  601.0486
 233  660.756
 234  646.3823
 235  646.5145
 236  604.6419
 237  583.152
 238  614.8265
 239  677.5712
 240  568.5368
 241  562.5468
 242  614.7805
 243  644.2824
 244  655.6485
 245  595.4106
 246  610.9818
 247  678.8261
 248  662.9133
 249  691.2364
 250  778.5273
 251  697.546
 252  606.634
 253  675.1821
 254  759.0811
 255  739.7413
 256  602.1754
 257  683.6369
 258  742.1989
 259  787.5692
 260  654.6762
 261  597.5674
 262  647.9023
 263  608.8912
 264  667.9496
 265  693.4464
 266  676.1226
 267  714.163
 268  710.4553
 269  583.6475
 270  552.978
 271  569.7231
 272  635.7938
 273  633.8286
 274  671.7735
 275  652.3441
 276  572.9774
 277  645.0474
 278  747.3159
 279  672.8796
 280  540.0139
 281  630.9826
 282  643.5819
 283  657.017
 284  729.2119
 285  698.7601
 286  677.9247
 287  707.1947
 288  710.2708
 289  701.2752
 290  693.658
 291  694.261
 292  695.6229
 293  706.4716
 294  739.8605
 295  743.7628
 296  668.6793
 297  617.0341
 298  687.7574
 299  762.5069
 300  832.7107
 301  710.2525
 302  724.4915
 303  737.7901
 304  823.1805
 305  737.6633
 306  689.8357
 307  712.4224
 308  826.4861
 309  861.9869
 310  741.0964
 311  744.3544
 312  821.6395
 313  840.1054
 314  765.4406
 315  733.5502
 316  743.5198
 317  629.4211
 318  784.0573
 319  812.9971
 320  630.445
 321  790.2493
 322  796.4082
 323  908.7391
 324  803.2929
 325  643.8689
 326  657.1818
 327  656.1562
 328  555.1752
 329  710.7661
 330  647.0178
 331  662.5554
 332  765.6252
 333  692.2665
 334  733.171
 335  746.1442
 336  776.6671
 337  715.3924
 338  604.0211
 339  720.8604
 340  771.6583
 341  827.4166
 342  768.191
 343  790.0196
 344  750.1918
 345  690.9988
 346  588.1251
 347  611.2613
 348  633.504
 349  551.6053
 350  681.5714
 351  762.3011
 352  617.832
 353  662.598
 354  710.3729
 355  685.5717
 356  744.8122
 357  695.9036
 358  614.4147
 359  751.6306
 360  662.1498
 361  611.9742
 362  692.0177
 363  659.1401
 364  682.1891
 365  607.2155
 366  648.5181
 367  544.6146
 368  599.7665
 369  668.986
 370  655.1799
 371  635.1662
 372  772.3511
 373  748.8524
 374  660.876
 375  663.1489
 376  765.2599
 377  749.1049
 378  715.3378
 379  626.2897
 380  636.8798
 381  581.2609
 382  578.4067
 383  769.7064
 384  814.1723
 385  801.5059
 386  700.8948
 387  740.048
 388  843.7238
 389  747.8877
 390  686.3561
 391  571.4677
 392  626.0146
 393  744.7399
 394  794.4431
 395  715.6322
 396  696.2851
 397  745.1643
 398  766.0886
 399  746.7382
 400  607.0721
 401  600.1828
 402  664.6286
 403  724.6264
 404  750.5945
 405  694.471
 406  803.8447
 407  734.8734
 408  677.9366
 409  682.6001
 410  798.8479
 411  785.2166
 412  730.1677
 413  790.3762
 414  782.8895
 415  677.8871
 416  692.6504
 417  694.0162
 418  673.7159
 419  677.6553
 420  629.017
 421  655.2403
 422  730.2063
 423  677.7062
 424  735.3351
 425  721.8625
 426  625.5267
 427  690.4914
 428  678.5753
 429  741.0803
 430  733.1792
 431  697.8764
 432  671.3441
 433  689.8926
 434  738.1037
 435  785.0792
 436  745.8477
 437  688.7762
 438  658.5369
 439  681.5537
 440  724.2909
 441  673.8417
 442  676.3195
 443  717.6887
 444  840.8788
 445  753.8461
 446  669.2784
 447  659.6431
 448  689.2432
 449  706.673
 450  709.2791
 451  539.166
 452  588.1664
 453  616.451
 454  594.2207
 455  648.7692
 456  676.0742
 457  675.6501
 458  611.8759
 459  786.2177
 460  803.963
 461  737.4483
 462  705.9409
 463  654.6511
 464  711.7159
 465  698.1105
 466  689.466
 467  736.2755
 468  709.0701
 469  684.085
 470  674.0026
 471  763.9582
 472  848.4674
 473  761.667
 474  730.7868
 475  779.7256
 476  640.0375
 477  736.5706
 478  707.5941
 479  601.9664
 480  691.33
 481  741.5494
 482  747.7478
 483  751.6269
 484  780.36
 485  701.4219
 486  699.7429
 487  687.5532
 488  683.2549
 489  738.7562
 490  797.2986
 491  798.0007
 492  830.4412
 493  867.5929
 494  787.2457
 495  707.2903
 496  639.5839
 497  654.6482
 498  691.435
 499  669.5682
 500  652.7254
 501  618.9494
 502  638.4616
 503  819.4928
 504  813.71
 505  694.6456
 506  678.9564
 507  781.3293
 508  834.6472
 509  814.2469
 510  968.7958
 511  1214.932
