# Input file       =  1209891182.120269_cleaned.dat
# Candidate        =  PSR_0332+5434
# Telescope        =  AR
# Epoch_topo       =  58247.369955095710
# Epoch_bary       =  N/A
# T_sample         =  0.002
# Data Folded      =  7340032
# Data Avg         =  0.0764907244847506
# Data StdDev      =  1.00012384413869 
# Profile Bins     =  512
# Profile Avg      =  1097.1186284143  
# Profile StdDev   =  119.747864611529 
# Reduced chi-sqr  =  1.196
# Prob(Noise)      <  0.00152   (~3.0 sigma)
# P_topo (ms)      =  714.539004613948  +/- 0.000583
# P'_topo (s/s)    =  -0                +/- 3.08e-10
# P''_topo (s/s^2) =  0                 +/- 1.36e-13
# P_bary (ms)      =  N/A
# P'_bary (s/s)    =  N/A
# P''_bary (s/s^2) =  N/A
# P_orb (s)        =  N/A
# asin(i)/c (s)    =  N/A
# eccentricity     =  N/A
# w (rad)          =  N/A
# T_peri           =  N/A
######################################################
   0  1696.023
   1  1600.021
   2  1392.664
   3  1239.264
   4  1157.365
   5  1119.231
   6  1081.301
   7  930.3434
   8  1006.537
   9  975.5788
  10  1025.244
  11  1058.297
  12  1071.437
  13  1041.517
  14  1034.972
  15  1002.79
  16  1011.875
  17  1040.853
  18  997.4559
  19  1023.182
  20  1071.83
  21  1104.912
  22  1125.56
  23  974.907
  24  918.013
  25  907.4858
  26  984.4213
  27  1046.636
  28  1090.024
  29  1167.53
  30  1080.825
  31  1073.675
  32  1036.503
  33  1053.053
  34  1059.514
  35  1101.922
  36  1130.627
  37  1053.904
  38  1061.874
  39  1127.294
  40  1121.732
  41  1174.554
  42  1186.609
  43  1240.894
  44  1142.54
  45  1144.818
  46  1096.092
  47  1082.18
  48  1141.419
  49  1152.828
  50  1128.483
  51  1102.464
  52  1162.616
  53  1214.26
  54  1182.976
  55  1156.097
  56  1111.976
  57  1099.006
  58  1096.117
  59  1153.135
  60  1111.942
  61  1085.469
  62  1074.818
  63  1109.184
  64  1143.062
  65  1202.558
  66  1073.099
  67  1094.685
  68  1168.297
  69  1191.89
  70  1090.669
  71  1110.308
  72  1178.682
  73  1212.211
  74  1151.401
  75  1089.074
  76  1137.193
  77  1190.441
  78  1201.606
  79  1133.584
  80  1133.711
  81  1103.017
  82  1086.533
  83  1140.541
  84  1106.248
  85  1124.982
  86  1134.969
  87  1144.268
  88  1069.307
  89  1154.575
  90  1156.133
  91  1168.151
  92  1094.383
  93  1111.294
  94  1102.553
  95  1078.5
  96  1126.352
  97  1150.042
  98  1176.831
  99  1108.544
 100  1140.59
 101  1025.848
 102  1050.965
 103  1072.673
 104  1035.978
 105  1141.881
 106  1080.803
 107  1116.047
 108  1093.714
 109  1131.233
 110  1117.255
 111  1074.731
 112  1140.077
 113  1198.992
 114  1237.934
 115  1202.605
 116  1193.413
 117  1129.111
 118  1109.826
 119  1100.121
 120  1070.121
 121  1060.925
 122  1114.97
 123  1137.932
 124  1139.061
 125  1121.589
 126  1143.901
 127  1092.434
 128  1020.659
 129  1001.11
 130  1036.117
 131  998.3245
 132  1018.42
 133  1086.112
 134  1098.489
 135  1059.408
 136  990.9925
 137  980.7307
 138  1100.189
 139  1121.291
 140  1057.866
 141  951.4141
 142  1034.27
 143  1062.993
 144  1066.686
 145  980.699
 146  1026.544
 147  1088.258
 148  1085.554
 149  1059.655
 150  1027.747
 151  1040.773
 152  1085.241
 153  1034.943
 154  1075.306
 155  1088.26
 156  1071.313
 157  1047.366
 158  997.9427
 159  1095.693
 160  1188.004
 161  1175.634
 162  1150.96
 163  1177.716
 164  1186.709
 165  1215.446
 166  1256.167
 167  1188.185
 168  1189.246
 169  1199.068
 170  1230.928
 171  1220.953
 172  1171.854
 173  1172.811
 174  1197.315
 175  1189.834
 176  1195.917
 177  1216.046
 178  1260.577
 179  1300.42
 180  1328.534
 181  1273.024
 182  1249.283
 183  1261.843
 184  1264.856
 185  1230.822
 186  1239.363
 187  1251.496
 188  1230.92
 189  1257.057
 190  1209.077
 191  1200.897
 192  1255.074
 193  1191.875
 194  1216.2
 195  1226.726
 196  1214.214
 197  1234.005
 198  1161.099
 199  1133.507
 200  1281.602
 201  1342.609
 202  1264.309
 203  1150.277
 204  1153.658
 205  1195.555
 206  1209.406
 207  1260.984
 208  1271.461
 209  1212.348
 210  1162.999
 211  1258.163
 212  1178.268
 213  1156.312
 214  1153.903
 215  1116.097
 216  1206.465
 217  1212.968
 218  1153.646
 219  1135.571
 220  1092.79
 221  1118.971
 222  1226.899
 223  1229.02
 224  1087.109
 225  1099.47
 226  1199.87
 227  1177.676
 228  1152.29
 229  1117.485
 230  1190.587
 231  1236.289
 232  1085.158
 233  1114.126
 234  1102.643
 235  1094.813
 236  1141.341
 237  1094.033
 238  1077.168
 239  1125.338
 240  1165.746
 241  1096.695
 242  981.6698
 243  977.8129
 244  1045.817
 245  1038.742
 246  1029.763
 247  1101.033
 248  1099.66
 249  1048.499
 250  996.2502
 251  1088.438
 252  1073.21
 253  1048.504
 254  1096.403
 255  1079.507
 256  1033.314
 257  1063.047
 258  1109.023
 259  1091.365
 260  1089.133
 261  1025.258
 262  972.963
 263  1006.858
 264  1045.569
 265  985.4223
 266  930.6274
 267  1005.385
 268  964.2047
 269  994.4518
 270  1039.274
 271  1068.56
 272  1058.102
 273  973.8361
 274  982.3744
 275  981.2473
 276  1098.44
 277  1121.366
 278  1008.513
 279  999.5323
 280  979.2977
 281  999.1758
 282  1033.684
 283  998.7079
 284  986.2966
 285  989.923
 286  946.2649
 287  919.2648
 288  925.8848
 289  951.8941
 290  955.8685
 291  967.6526
 292  1011.026
 293  1036.202
 294  1053.197
 295  1071.489
 296  1020.562
 297  992.7694
 298  1022.258
 299  995.416
 300  942.1412
 301  911.181
 302  956.8956
 303  897.1658
 304  939.1295
 305  955.8823
 306  910.1387
 307  864.2371
 308  915.4886
 309  914.259
 310  873.5917
 311  907.565
 312  957.1957
 313  969.6909
 314  989.9545
 315  1023.975
 316  1047.917
 317  1024.2
 318  1026.155
 319  1040.824
 320  1061.418
 321  1118.618
 322  1073.51
 323  1057.401
 324  1052.026
 325  958.4805
 326  1018.195
 327  998.8278
 328  1001.785
 329  1001.327
 330  1056.856
 331  1087.85
 332  1063.645
 333  1027.321
 334  1026.821
 335  1022.114
 336  1093.237
 337  1146.579
 338  1117.98
 339  1083.499
 340  1079.363
 341  1101.105
 342  985.1158
 343  1038.484
 344  1107.763
 345  1038.401
 346  1093.624
 347  1034.677
 348  1045.865
 349  941.6062
 350  1035.196
 351  1064.939
 352  1036.914
 353  1014.66
 354  1054.568
 355  1087.948
 356  1063.781
 357  1010.05
 358  1049.139
 359  1192.477
 360  1119.618
 361  1050.386
 362  987.3638
 363  1003.679
 364  1035.338
 365  977.8726
 366  995.6094
 367  972.5876
 368  1044.014
 369  1091.56
 370  1057.974
 371  989.6552
 372  1034.833
 373  1043.839
 374  973.0997
 375  1030.195
 376  1051.657
 377  1035.505
 378  1085.867
 379  1047.617
 380  1000.325
 381  1073.585
 382  1096.138
 383  990.9896
 384  972.9965
 385  1030.744
 386  1010.617
 387  1029.595
 388  1070.853
 389  996.8791
 390  963.3291
 391  1011.868
 392  992.0021
 393  1006.151
 394  1131.917
 395  1045.606
 396  1098.077
 397  1180.403
 398  1120.258
 399  1094.156
 400  1097.97
 401  1087.766
 402  1113.468
 403  1104.235
 404  1131.456
 405  1127.977
 406  1067.178
 407  1097.789
 408  1078.525
 409  1093.242
 410  1101.417
 411  1134.275
 412  1232.82
 413  1162.79
 414  1240.265
 415  1232.929
 416  1196.695
 417  1142.644
 418  1084.722
 419  1152.137
 420  1184.09
 421  1153.284
 422  1212.262
 423  1166.309
 424  1156.53
 425  1095.949
 426  1102.932
 427  1051.237
 428  1148.406
 429  1085.024
 430  1006.868
 431  1012.145
 432  1093.008
 433  1196.387
 434  1138.856
 435  1066.68
 436  1086.275
 437  1102.019
 438  1052.643
 439  1121.182
 440  1152.336
 441  1178.086
 442  1210.455
 443  1195.844
 444  1111.129
 445  1042.676
 446  1103.639
 447  1072.452
 448  1059.862
 449  1076.944
 450  1168.788
 451  1162.608
 452  993.8884
 453  925.4862
 454  1017.748
 455  1090.939
 456  1074.5
 457  1084.952
 458  1020.262
 459  962.7938
 460  1074.042
 461  1061.405
 462  1039.638
 463  1100.356
 464  1092.682
 465  1113.794
 466  1126.353
 467  1063.17
 468  1057.22
 469  1077.327
 470  1108.559
 471  1049.983
 472  1073.159
 473  1108.965
 474  1014.784
 475  1083.162
 476  1132.232
 477  1144.501
 478  1097.813
 479  1173.684
 480  1074.442
 481  1107.172
 482  1095.333
 483  1100.492
 484  997.8215
 485  1020.772
 486  1178.978
 487  1167.975
 488  1160.472
 489  1177.514
 490  1074.181
 491  1108.804
 492  1100.114
 493  1126.968
 494  1090.338
 495  1154.594
 496  1139.086
 497  1055.949
 498  1067.789
 499  1077.714
 500  1094.221
 501  1067.563
 502  1122.479
 503  1161.377
 504  1139.63
 505  1112.88
 506  1177.452
 507  1278.449
 508  1301.122
 509  1354.126
 510  1481.748
 511  1611.821
