# Input file       =  1209216790.123209_cleaned.dat
# Candidate        =  PSR_0332+5434
# Telescope        =  AR
# Epoch_topo       =  58239.564492166770
# Epoch_bary       =  N/A
# T_sample         =  0.002
# Data Folded      =  7340032
# Data Avg         =  0.0416437319974884
# Data StdDev      =  1.00010556310281 
# Profile Bins     =  512
# Profile Avg      =  597.019770866858 
# Profile StdDev   =  119.745675767594 
# Reduced chi-sqr  =  1.239
# Prob(Noise)      <  0.000175   (~3.6 sigma)
# P_topo (ms)      =  714.546558771437  +/- 0.000355
# P'_topo (s/s)    =  -0                +/- 1.87e-10
# P''_topo (s/s^2) =  0                 +/- 8.27e-14
# P_bary (ms)      =  N/A
# P'_bary (s/s)    =  N/A
# P''_bary (s/s^2) =  N/A
# P_orb (s)        =  N/A
# asin(i)/c (s)    =  N/A
# eccentricity     =  N/A
# w (rad)          =  N/A
# T_peri           =  N/A
######################################################
   0  1366.234
   1  1253.291
   2  1110.697
   3  831.5511
   4  683.1268
   5  669.187
   6  723.9044
   7  664.9581
   8  678.4073
   9  619.6058
  10  597.6725
  11  538.7111
  12  615.7357
  13  655.3657
  14  650.1719
  15  710.2724
  16  720.0802
  17  701.2609
  18  610.8727
  19  653.3879
  20  812.5176
  21  705.1764
  22  583.6721
  23  659.9742
  24  637.5655
  25  531.8095
  26  553.4159
  27  608.9819
  28  658.0786
  29  645.2382
  30  584.4509
  31  575.9151
  32  615.994
  33  548.6801
  34  524.2167
  35  571.3132
  36  629.5808
  37  630.898
  38  617.6315
  39  562.6006
  40  498.4302
  41  504.0778
  42  509.4105
  43  561.2473
  44  647.3211
  45  616.9092
  46  527.7772
  47  504.8148
  48  587.6188
  49  648.525
  50  689.4699
  51  651.9077
  52  637.3096
  53  645.0867
  54  647.6771
  55  536.6735
  56  505.529
  57  551.2401
  58  587.347
  59  523.366
  60  546.7646
  61  559.6221
  62  676.0893
  63  695.1895
  64  584.8445
  65  594.1487
  66  604.8274
  67  588.3903
  68  590.8975
  69  580.4365
  70  636.7737
  71  644.528
  72  552.7556
  73  460.792
  74  425.6407
  75  547.978
  76  531.7359
  77  649.2636
  78  587.8517
  79  458.9542
  80  501.4094
  81  531.6304
  82  613.6315
  83  660.0126
  84  680.1708
  85  683.8043
  86  686.0274
  87  650.3704
  88  695.3004
  89  596.7772
  90  564.0797
  91  642.9271
  92  651.4561
  93  577.8994
  94  664.847
  95  692.0901
  96  674.8431
  97  671.478
  98  711.6653
  99  670.3922
 100  645.3152
 101  775.5347
 102  839.0997
 103  774.1575
 104  661.2784
 105  645.2219
 106  738.0491
 107  657.0223
 108  626.022
 109  610.9434
 110  661.7773
 111  684.743
 112  620.0922
 113  564.6016
 114  411.3465
 115  468.5196
 116  609.3133
 117  640.0457
 118  507.2766
 119  516.9493
 120  483.8692
 121  513.9416
 122  556.6024
 123  631.1605
 124  639.8901
 125  612.7396
 126  643.0696
 127  600.9525
 128  422.3181
 129  509.651
 130  564.6904
 131  446.9848
 132  519.4473
 133  573.9759
 134  560.9636
 135  500.7032
 136  463.6897
 137  579.1871
 138  541.8518
 139  499.7598
 140  552.7676
 141  547.6761
 142  473.7136
 143  600.6595
 144  569.9498
 145  484.7662
 146  371.4799
 147  466.5742
 148  460.7932
 149  512.0731
 150  658.5795
 151  595.2518
 152  536.1926
 153  551.2348
 154  598.0426
 155  529.3726
 156  480.5196
 157  517.1362
 158  552.1586
 159  580.8422
 160  634.9074
 161  427.649
 162  414.6456
 163  527.7512
 164  569.6625
 165  537.8129
 166  552.1428
 167  532.0939
 168  544.8397
 169  600.6169
 170  616.793
 171  610.2191
 172  609.4762
 173  570.6129
 174  485.0972
 175  459.0357
 176  587.2146
 177  619.3325
 178  535.7709
 179  568.1817
 180  586.7485
 181  525.1159
 182  558.5774
 183  503.1521
 184  494.8444
 185  428.2595
 186  535.1824
 187  530.7017
 188  468.3332
 189  555.3337
 190  617.3517
 191  553.6636
 192  545.9656
 193  662.7051
 194  625.3632
 195  514.1434
 196  519.7453
 197  500.6343
 198  594.7945
 199  729.9387
 200  724.6071
 201  670.9695
 202  626.6873
 203  636.4675
 204  671.647
 205  565.8523
 206  569.6243
 207  633.6089
 208  609.2658
 209  692.9324
 210  692.0572
 211  648.2465
 212  637.3058
 213  518.2224
 214  545.3699
 215  605.5229
 216  620.6805
 217  674.5565
 218  623.9789
 219  566.0772
 220  407.7888
 221  427.5113
 222  565.2669
 223  628.6124
 224  550.4614
 225  565.5178
 226  558.9533
 227  643.5417
 228  626.7271
 229  546.4294
 230  553.6576
 231  713.5691
 232  678.298
 233  595.9257
 234  660.1814
 235  676.8
 236  674.0231
 237  625.522
 238  683.7148
 239  784.5496
 240  696.5878
 241  669.593
 242  559.1843
 243  596.3002
 244  603.457
 245  707.7505
 246  696.6125
 247  691.3235
 248  560.029
 249  571.0512
 250  530.7697
 251  465.5571
 252  494.6977
 253  615.8484
 254  584.8903
 255  520.4396
 256  413.2963
 257  522.2938
 258  504.8781
 259  376.3773
 260  427.9402
 261  547.7731
 262  657.7122
 263  570.3231
 264  489.7112
 265  525.4088
 266  588.2083
 267  617.9911
 268  623.8351
 269  634.9694
 270  615.3423
 271  569.3646
 272  551.5453
 273  598.5587
 274  564.0648
 275  533.4237
 276  479.8757
 277  559.6821
 278  561.9901
 279  563.2101
 280  491.0703
 281  523.429
 282  617.4282
 283  624.5566
 284  554.9683
 285  574.8748
 286  561.2377
 287  588.4494
 288  566.5501
 289  540.9355
 290  466.2483
 291  537.9267
 292  572.7345
 293  587.9921
 294  571.7535
 295  692.7375
 296  581.1443
 297  399.5124
 298  477.9054
 299  547.0576
 300  659.5884
 301  605.3313
 302  520.6579
 303  585.6248
 304  576.8174
 305  603.0174
 306  586.8334
 307  468.4801
 308  575.7797
 309  554.1447
 310  534.1169
 311  584.6093
 312  605.3663
 313  610.3484
 314  595.9114
 315  488.1365
 316  522.3079
 317  512.2319
 318  612.6888
 319  732.4156
 320  793.8135
 321  811.1246
 322  720.5005
 323  556.617
 324  648.194
 325  737.6362
 326  790.9702
 327  827.5588
 328  703.5652
 329  671.7534
 330  603.3241
 331  558.1035
 332  500.425
 333  554.4229
 334  564.6254
 335  591.4554
 336  651.0763
 337  602.3522
 338  579.317
 339  609.9689
 340  660.9224
 341  587.9063
 342  622.228
 343  582.5193
 344  574.0695
 345  595.1148
 346  600.0285
 347  681.3251
 348  696.8794
 349  604.2717
 350  644.365
 351  538.5571
 352  636.9663
 353  657.8088
 354  599.9167
 355  615.0593
 356  610.6759
 357  545.8316
 358  589.5811
 359  601.2883
 360  659.2418
 361  557.5212
 362  608.5271
 363  689.1454
 364  648.0786
 365  592.1661
 366  708.9379
 367  597.0181
 368  589.5658
 369  594.0332
 370  616.8034
 371  619.7079
 372  657.6852
 373  612.5088
 374  613.8698
 375  528.6616
 376  636.1204
 377  735.7439
 378  635.3101
 379  539.8576
 380  553.4778
 381  533.2701
 382  610.6853
 383  497.4316
 384  531.6874
 385  708.3595
 386  747.7827
 387  579.3264
 388  591.4759
 389  652.1805
 390  637.016
 391  580.2863
 392  589.6265
 393  565.4137
 394  695.0784
 395  577.019
 396  498.2057
 397  576.4029
 398  552.728
 399  585.2601
 400  644.8439
 401  595.4462
 402  561.5398
 403  609.5522
 404  699.1111
 405  581.7614
 406  667.8754
 407  698.1622
 408  636.9022
 409  525.0682
 410  527.2302
 411  677.5861
 412  678.6873
 413  654.6895
 414  627.8472
 415  540.6061
 416  576.3243
 417  544.5015
 418  560.1797
 419  632.174
 420  576.2601
 421  602.9731
 422  590.7861
 423  440.1786
 424  426.7197
 425  488.5412
 426  453.3506
 427  474.3861
 428  505.327
 429  551.6001
 430  466.5523
 431  438.8893
 432  471.6419
 433  546.9115
 434  591.1716
 435  581.3492
 436  496.8317
 437  465.1397
 438  495.6712
 439  627.2082
 440  647.4072
 441  529.33
 442  486.6692
 443  496.1915
 444  538.9934
 445  542.7197
 446  565.5073
 447  517.2775
 448  619.002
 449  631.2806
 450  672.9272
 451  729.1486
 452  676.0558
 453  614.8747
 454  552.6204
 455  608.7256
 456  692.5148
 457  698.4647
 458  648.0157
 459  559.9409
 460  624.82
 461  636.0963
 462  655.6277
 463  681.7717
 464  640.7369
 465  634.9528
 466  574.0786
 467  523.1046
 468  512.5681
 469  575.3685
 470  657.6213
 471  582.8658
 472  567.4691
 473  513.8771
 474  500.6893
 475  618.0494
 476  531.1208
 477  561.6754
 478  543.5345
 479  502.8573
 480  602.9605
 481  618.5184
 482  596.5835
 483  466.9151
 484  491.504
 485  522.1014
 486  523.4282
 487  524.0464
 488  558.728
 489  587.9592
 490  611.8556
 491  622.8229
 492  550.4353
 493  605.5295
 494  643.9009
 495  599.5994
 496  511.0738
 497  557.5513
 498  611.1205
 499  610.0193
 500  646.8007
 501  603.1803
 502  642.6442
 503  706.4432
 504  627.1292
 505  630.2884
 506  706.0166
 507  717.0349
 508  734.4937
 509  871.602
 510  957.8292
 511  1165.833
