# Input file       =  1209389081.116451_cleaned.dat
# Candidate        =  PSR_0332+5434
# Telescope        =  AR
# Epoch_topo       =  58241.558600884848
# Epoch_bary       =  N/A
# T_sample         =  0.002
# Data Folded      =  7340032
# Data Avg         =  0.0407786354152728
# Data StdDev      =  1.00008973607797 
# Profile Bins     =  512
# Profile Avg      =  584.408840627239 
# Profile StdDev   =  119.743780749854 
# Reduced chi-sqr  =  1.672
# Prob(Noise)      <  1.08e-19   (~9.0 sigma)
# P_topo (ms)      =  714.544748617284  +/- 0.000292
# P'_topo (s/s)    =  -0                +/- 1.54e-10
# P''_topo (s/s^2) =  0                 +/- 6.81e-14
# P_bary (ms)      =  N/A
# P'_bary (s/s)    =  N/A
# P''_bary (s/s^2) =  N/A
# P_orb (s)        =  N/A
# asin(i)/c (s)    =  N/A
# eccentricity     =  N/A
# w (rad)          =  N/A
# T_peri           =  N/A
######################################################
   0  1324.23
   1  1303.009
   2  1152.502
   3  840.8924
   4  766.4738
   5  670.3284
   6  629.0079
   7  741.4195
   8  676.5917
   9  627.8015
  10  577.3646
  11  559.9852
  12  679.9677
  13  668.4904
  14  742.4191
  15  640.7661
  16  562.3183
  17  466.2184
  18  521.033
  19  568.9186
  20  540.7019
  21  532.3871
  22  506.7174
  23  477.382
  24  450.4689
  25  431.7204
  26  521.5852
  27  531.1722
  28  467.8846
  29  550.3187
  30  563.0298
  31  476.0743
  32  359.9829
  33  493.244
  34  605.5803
  35  523.1288
  36  544.2505
  37  670.8867
  38  677.7927
  39  567.8149
  40  547.512
  41  497.0439
  42  651.6943
  43  634.5705
  44  620.811
  45  579.9787
  46  650.2031
  47  521.2092
  48  449.3002
  49  546.2658
  50  599.8376
  51  571.0655
  52  586.2517
  53  534.095
  54  443.8155
  55  504.1147
  56  562.8334
  57  481.8314
  58  474.045
  59  537.4561
  60  618.9007
  61  657.278
  62  594.8076
  63  539.6842
  64  567.7705
  65  605.4433
  66  653.4227
  67  719.9954
  68  750.1447
  69  676.6595
  70  725.7678
  71  703.1221
  72  674.6304
  73  675.4656
  74  628.343
  75  545.0116
  76  495.1778
  77  583.2888
  78  611.0865
  79  474.6044
  80  402.3443
  81  428.0401
  82  511.6501
  83  495.0806
  84  578.9713
  85  463.8744
  86  422.2222
  87  417.1194
  88  444.899
  89  351.0813
  90  430.8042
  91  440.6526
  92  560.4866
  93  677.2977
  94  707.4725
  95  770.7786
  96  644.0723
  97  495.4266
  98  540.2562
  99  532.6561
 100  513.3932
 101  551.8527
 102  606.8114
 103  574.0225
 104  564.207
 105  493.5646
 106  529.8075
 107  612.1472
 108  611.0903
 109  626.8815
 110  521.6027
 111  551.019
 112  549.7596
 113  565.0625
 114  553.656
 115  594.4615
 116  560.5733
 117  566.082
 118  650.8348
 119  490.3744
 120  420.6884
 121  440.1921
 122  594.9725
 123  686.0316
 124  736.145
 125  706.9083
 126  586.8049
 127  594.2783
 128  598.7142
 129  562.8338
 130  577.382
 131  608.7934
 132  586.439
 133  649.0919
 134  660.582
 135  745.8159
 136  590.5461
 137  509.5286
 138  563.236
 139  719.8924
 140  803.3694
 141  736.4201
 142  683.5106
 143  594.8821
 144  589.0703
 145  584.61
 146  587.9093
 147  538.5195
 148  620.3953
 149  713.1824
 150  625.0152
 151  584.4759
 152  557.7997
 153  565.5342
 154  544.8321
 155  576.9929
 156  580.0285
 157  529.454
 158  529.5649
 159  621.5332
 160  514.985
 161  523.051
 162  444.2092
 163  388.5658
 164  491.9077
 165  599.5701
 166  549.7108
 167  579.9861
 168  519.442
 169  496.2987
 170  593.3458
 171  514.8662
 172  515.261
 173  474.5053
 174  510.4189
 175  488.9387
 176  404.7256
 177  471.2055
 178  383.4829
 179  457.2833
 180  461.996
 181  448.3537
 182  561.4317
 183  605.5095
 184  558.2272
 185  466.1673
 186  559.8108
 187  626.2043
 188  536.9294
 189  604.5289
 190  591.4561
 191  615.509
 192  574.1752
 193  619.4484
 194  651.4501
 195  611.9613
 196  613.894
 197  663.369
 198  644.6603
 199  595.8021
 200  608.7773
 201  672.0568
 202  695.6085
 203  696.1277
 204  690.5707
 205  666.6583
 206  637.5847
 207  621.4611
 208  600.4675
 209  542.6542
 210  594.4796
 211  674.6132
 212  591.4196
 213  507.1359
 214  602.5495
 215  741.0271
 216  677.9666
 217  580.6176
 218  636.7302
 219  624.1598
 220  546.4716
 221  477.0812
 222  578.6644
 223  657.9988
 224  587.08
 225  512.8801
 226  656.044
 227  582.6008
 228  477.7864
 229  415.1432
 230  418.2291
 231  486.725
 232  535.994
 233  532.4836
 234  494.0009
 235  505.8875
 236  515.6772
 237  448.6102
 238  569.0482
 239  580.9756
 240  443.4003
 241  446.3393
 242  529.2097
 243  654.8906
 244  545.8357
 245  489.1589
 246  512.4026
 247  463.0015
 248  459.6029
 249  599.8986
 250  570.4971
 251  591.8431
 252  528.6158
 253  437.4017
 254  371.064
 255  448.2378
 256  464.5013
 257  477.3125
 258  459.091
 259  447.4189
 260  368.829
 261  414.1992
 262  469.0964
 263  516.7227
 264  565.9648
 265  583.8156
 266  564.336
 267  470.0776
 268  417.9631
 269  538.563
 270  663.5248
 271  570.8841
 272  535.9517
 273  641.3948
 274  525.8127
 275  524.6785
 276  582.0034
 277  582.4827
 278  685.1538
 279  717.4385
 280  712.4622
 281  705.1274
 282  647.6785
 283  667.4086
 284  575.4731
 285  739.306
 286  706.3737
 287  706.7841
 288  734.1359
 289  706.5676
 290  647.9587
 291  591.0751
 292  692.5041
 293  632.907
 294  540.3665
 295  655.2283
 296  682.3437
 297  667.9795
 298  678.4632
 299  623.6398
 300  622.6133
 301  610.7498
 302  620.5223
 303  557.6111
 304  592.886
 305  661.6972
 306  606.4214
 307  586.8782
 308  564.8253
 309  655.4888
 310  651.7404
 311  588.9919
 312  640.792
 313  562.9568
 314  493.7881
 315  527.4998
 316  489.5456
 317  468.2866
 318  594.0793
 319  743.1477
 320  701.1818
 321  635.2953
 322  673.737
 323  637.2711
 324  688.8328
 325  667.8818
 326  622.7738
 327  659.69
 328  719.2285
 329  738.2065
 330  744.1341
 331  641.9221
 332  566.1301
 333  498.1874
 334  517.8854
 335  587.5785
 336  598.7685
 337  661.8312
 338  643.6851
 339  604.329
 340  556.0666
 341  605.4858
 342  528.3945
 343  600.792
 344  739.5886
 345  766.3914
 346  665.4724
 347  702.0551
 348  730.8815
 349  684.9723
 350  716.0068
 351  775.9437
 352  712.5898
 353  606.6351
 354  719.6948
 355  610.5055
 356  557.7997
 357  535.864
 358  597.6358
 359  683.8657
 360  683.0939
 361  645.8663
 362  738.5581
 363  698.7903
 364  657.5602
 365  585.6282
 366  562.8192
 367  645.8027
 368  572.1833
 369  604.5908
 370  567.2827
 371  446.8144
 372  443.66
 373  565.8901
 374  628.5797
 375  680.7616
 376  566.312
 377  467.2914
 378  529.1746
 379  572.7771
 380  538.8529
 381  473.4412
 382  554.1584
 383  456.7596
 384  404.05
 385  379.6331
 386  480.8775
 387  508.9373
 388  421.6322
 389  480.8044
 390  461.1322
 391  458.6412
 392  484.8383
 393  497.7173
 394  549.1283
 395  519.8307
 396  497.0159
 397  529.0942
 398  630.8531
 399  572.1541
 400  583.9203
 401  631.0649
 402  564.9005
 403  518.2783
 404  458.0422
 405  534.3907
 406  711.7852
 407  663.6198
 408  489.6146
 409  565.6526
 410  569.6188
 411  463.3153
 412  401.2664
 413  555.2535
 414  638.5654
 415  626.0833
 416  560.5601
 417  554.6808
 418  569.9222
 419  638.2105
 420  738.9539
 421  616.4983
 422  649.8391
 423  690.123
 424  635.2219
 425  624.0186
 426  579.1091
 427  641.9532
 428  624.8361
 429  587.2857
 430  722.0038
 431  674.7958
 432  572.7441
 433  567.7224
 434  655.2442
 435  642.7141
 436  532.9385
 437  568.8921
 438  538.7393
 439  552.3809
 440  612.9357
 441  698.5445
 442  539.0995
 443  586.2221
 444  572.8676
 445  567.0336
 446  548.0253
 447  587.8356
 448  644.298
 449  472.9258
 450  412.2621
 451  558.7693
 452  548.5944
 453  487.6573
 454  489.1365
 455  490.3513
 456  493.3721
 457  527.5863
 458  527.6907
 459  547.9373
 460  530.7389
 461  487.4735
 462  577.297
 463  579.5871
 464  552.6876
 465  553.4656
 466  480.3617
 467  444.8446
 468  543.2782
 469  643.6426
 470  561.4554
 471  355.7128
 472  527.3199
 473  576.8803
 474  374.8819
 475  379.6799
 476  470.9314
 477  489.6208
 478  484.6068
 479  504.1685
 480  508.4987
 481  518.9281
 482  559.4861
 483  494.311
 484  513.1929
 485  427.9465
 486  433.7184
 487  590.6409
 488  537.5982
 489  500.0388
 490  534.0372
 491  591.6768
 492  684.9781
 493  605.6538
 494  528.7045
 495  568.8111
 496  598.0283
 497  634.084
 498  624.0105
 499  619.6605
 500  719.7723
 501  763.7656
 502  672.5143
 503  691.838
 504  843.6238
 505  774.1327
 506  803.3994
 507  914.2247
 508  848.0212
 509  916.261
 510  1120.843
 511  1237.831
