# Input file       =  1209201872.113502_cleaned.dat
# Candidate        =  PSR_0332+5434
# Telescope        =  AR
# Epoch_topo       =  58239.391830017383
# Epoch_bary       =  N/A
# T_sample         =  0.002
# Data Folded      =  7340032
# Data Avg         =  0.0627275018725531
# Data StdDev      =  0.999914946564682
# Profile Bins     =  512
# Profile Avg      =  898.248161385811 
# Profile StdDev   =  119.722852670701 
# Reduced chi-sqr  =  1.813
# Prob(Noise)      <  1.87e-26   (~10.6 sigma)
# P_topo (ms)      =  714.546379919233  +/- 0.000341
# P'_topo (s/s)    =  -0                +/- 1.8e-10
# P''_topo (s/s^2) =  0                 +/- 7.95e-14
# P_bary (ms)      =  N/A
# P'_bary (s/s)    =  N/A
# P''_bary (s/s^2) =  N/A
# P_orb (s)        =  N/A
# asin(i)/c (s)    =  N/A
# eccentricity     =  N/A
# w (rad)          =  N/A
# T_peri           =  N/A
######################################################
   0  1418.242
   1  1357.822
   2  1314.606
   3  1075.752
   4  995.6877
   5  1005.281
   6  994.5936
   7  980.9771
   8  954.2521
   9  971.1765
  10  940.5914
  11  956.0618
  12  975.4818
  13  983.2576
  14  989.0419
  15  904.5942
  16  881.3641
  17  801.4667
  18  743.495
  19  690.9928
  20  698.8412
  21  688.736
  22  683.6078
  23  646.0126
  24  617.3923
  25  681.9175
  26  732.3163
  27  753.5961
  28  776.148
  29  807.3264
  30  771.2377
  31  703.2567
  32  705.1622
  33  712.7828
  34  687.4745
  35  656.1571
  36  576.8889
  37  571.4562
  38  687.5448
  39  708.3167
  40  688.6897
  41  654.7621
  42  643.1492
  43  607.2635
  44  676.9227
  45  723.8377
  46  684.0696
  47  638.2499
  48  555.629
  49  591.9069
  50  646.2855
  51  582.4516
  52  575.0989
  53  660.2191
  54  691.9702
  55  682.2702
  56  746.021
  57  717.8483
  58  728.0775
  59  812.2298
  60  780.9111
  61  702.0932
  62  691.2876
  63  695.5364
  64  723.5955
  65  709.5009
  66  713.2675
  67  791.3064
  68  751.9727
  69  788.8867
  70  786.8895
  71  744.7457
  72  832.6465
  73  857.8073
  74  891.0974
  75  824.937
  76  806.6762
  77  800.0811
  78  761.257
  79  810.4891
  80  858.2891
  81  857.1953
  82  841.3891
  83  840.1509
  84  876.428
  85  903.2759
  86  946.0421
  87  923.2366
  88  987.5443
  89  910.1173
  90  844.4695
  91  935.8048
  92  941.2711
  93  932.5118
  94  818.6906
  95  807.8461
  96  764.6081
  97  816.5773
  98  860.6211
  99  891.3016
 100  860.0792
 101  973.6215
 102  882.8998
 103  775.1931
 104  853.3473
 105  815.3397
 106  747.7724
 107  719.5723
 108  776.4141
 109  802.5289
 110  771.6801
 111  777.4699
 112  696.1792
 113  728.6226
 114  799.5578
 115  815.4769
 116  842.8045
 117  862.0431
 118  871.7896
 119  811.8536
 120  914.0505
 121  985.2278
 122  985.9448
 123  934.9097
 124  875.1378
 125  810.4598
 126  855.8645
 127  809.9648
 128  774.2062
 129  875.9789
 130  926.6172
 131  876.439
 132  872.7791
 133  897.3228
 134  906.0629
 135  841.867
 136  824.1929
 137  909.778
 138  927.6762
 139  870.2
 140  881.8376
 141  881.7155
 142  880.8613
 143  918.5542
 144  815.3225
 145  852.1605
 146  915.0201
 147  933.5745
 148  876.0304
 149  847.3655
 150  914.0875
 151  831.1929
 152  838.7073
 153  848.6239
 154  910.5101
 155  887.2161
 156  812.1655
 157  821.6857
 158  966.8286
 159  950.7374
 160  838.7468
 161  830.9547
 162  804.2096
 163  856.1512
 164  842.4302
 165  888.9619
 166  935.4547
 167  814.423
 168  915.3762
 169  872.4219
 170  844.1724
 171  895.8964
 172  870.8638
 173  843.3071
 174  845.403
 175  887.7084
 176  899.994
 177  844.2106
 178  870.3326
 179  817.6772
 180  778.0629
 181  810.865
 182  853.255
 183  868.018
 184  813.0319
 185  828.142
 186  807.6353
 187  735.0557
 188  763.0686
 189  834.7766
 190  886.8773
 191  852.4326
 192  818.1714
 193  817.665
 194  730.5863
 195  790.4122
 196  810.0532
 197  860.7134
 198  830.2098
 199  823.8582
 200  923.8492
 201  877.4728
 202  806.6609
 203  883.8922
 204  982.7411
 205  983.2193
 206  1003.313
 207  960.9786
 208  964.5167
 209  974.4254
 210  984.618
 211  957.7129
 212  1037.633
 213  1016.143
 214  923.2213
 215  915.0527
 216  958.0597
 217  926.1638
 218  884.1644
 219  916.5319
 220  1043.664
 221  1069.65
 222  1056.644
 223  1027.348
 224  1049.466
 225  1002.927
 226  1010.756
 227  974.9718
 228  1024.797
 229  949.1411
 230  969.9464
 231  909.1117
 232  906.5714
 233  889.7067
 234  892.8879
 235  883.296
 236  976.5419
 237  1030.984
 238  960.9963
 239  941.4856
 240  910.2906
 241  942.1719
 242  967.9521
 243  893.5237
 244  963.2612
 245  804.713
 246  758.619
 247  850.6934
 248  870.2099
 249  859.3066
 250  840.3896
 251  812.9174
 252  880.2051
 253  871.5777
 254  836.4037
 255  792.2836
 256  859.1266
 257  871.798
 258  955.9823
 259  911.2202
 260  848.3716
 261  951.3386
 262  903.0668
 263  873.1546
 264  925.1937
 265  927.7526
 266  889.5383
 267  912.3731
 268  1030.968
 269  1035.139
 270  927.1158
 271  952.2014
 272  958.5188
 273  876.759
 274  1000.641
 275  990.8563
 276  997.5953
 277  1028.634
 278  1013.397
 279  934.6255
 280  1027.203
 281  1037.655
 282  1049.589
 283  1051.266
 284  996.1617
 285  993.1888
 286  924.1451
 287  1068.879
 288  1126.519
 289  1076.337
 290  1053.888
 291  1070.675
 292  976.1414
 293  971.418
 294  1033.141
 295  1089.724
 296  1032.452
 297  918.913
 298  1012.479
 299  1037.131
 300  1003.63
 301  902.9754
 302  934.4423
 303  1000.635
 304  1082.581
 305  1085.231
 306  967.6354
 307  964.6747
 308  1031.712
 309  1039.384
 310  1074.653
 311  1102.442
 312  1117.633
 313  1055.43
 314  1125.334
 315  1102.6
 316  1071.649
 317  1029.893
 318  1062.259
 319  1045.022
 320  1007.16
 321  1062.005
 322  1047.354
 323  975.6161
 324  858.4384
 325  912.0916
 326  1031.549
 327  992.1204
 328  964.2742
 329  936.046
 330  982.6582
 331  961.9581
 332  972.6138
 333  957.9987
 334  953.4828
 335  994.2161
 336  906.5342
 337  799.5782
 338  786.4205
 339  862.2247
 340  880.4294
 341  890.6293
 342  931.9455
 343  914.2611
 344  1028.799
 345  1010.345
 346  982.808
 347  941.5978
 348  963.7692
 349  954.3965
 350  1047.131
 351  1021.802
 352  945.7816
 353  926.4553
 354  950.3016
 355  973.9255
 356  1022.485
 357  1088.893
 358  1032.152
 359  1010.836
 360  1029.293
 361  1006.52
 362  1018.742
 363  1083.717
 364  931.6716
 365  901.7643
 366  897.6416
 367  869.8329
 368  851.199
 369  845.8109
 370  920.4153
 371  993.4344
 372  995.2321
 373  922.36
 374  938.6594
 375  924.5557
 376  940.7693
 377  877.3312
 378  918.5956
 379  908.5447
 380  950.6546
 381  877.4482
 382  905.7394
 383  918.21
 384  900.1658
 385  965.7822
 386  957.4492
 387  1018.157
 388  1003.316
 389  938.5344
 390  978.5288
 391  952.6375
 392  978.8855
 393  867.3787
 394  880.89
 395  933.9603
 396  920.7644
 397  857.74
 398  836.6153
 399  810.3724
 400  824.6626
 401  870.05
 402  819.1376
 403  846.4213
 404  923.321
 405  927.6984
 406  929.4237
 407  845.4241
 408  936.0233
 409  960.5214
 410  899.072
 411  863.3528
 412  907.1135
 413  1019.997
 414  976.5991
 415  937.2245
 416  987.6162
 417  1019.865
 418  1000.745
 419  989.5122
 420  956.94
 421  992.4417
 422  1039.358
 423  1021.87
 424  1062.355
 425  1077.658
 426  933.7889
 427  921.5147
 428  942.3867
 429  921.6979
 430  971.4788
 431  960.2095
 432  953.9739
 433  982.4632
 434  960.33
 435  910.7995
 436  946.1344
 437  1022.691
 438  987.6044
 439  886.165
 440  853.4494
 441  890.6431
 442  976.3992
 443  949.8491
 444  956.6038
 445  976.8962
 446  894.0809
 447  878.6287
 448  851.1755
 449  928.7625
 450  957.8976
 451  929.3448
 452  956.0104
 453  952.6128
 454  931.2922
 455  994.1221
 456  892.2965
 457  788.5577
 458  846.2717
 459  927.5415
 460  935.6527
 461  930.2593
 462  947.1485
 463  861.6138
 464  810.4003
 465  876.7408
 466  853.4957
 467  851.6341
 468  798.9432
 469  795.3881
 470  807.0591
 471  719.8145
 472  729.3214
 473  878.2489
 474  861.6686
 475  821.4127
 476  771.8486
 477  762.3548
 478  763.2882
 479  767.6385
 480  831.37
 481  804.3081
 482  816.8718
 483  780.7529
 484  779.9283
 485  749.595
 486  803.3265
 487  819.6736
 488  844.467
 489  891.2978
 490  889.1218
 491  915.3758
 492  884.0422
 493  871.7607
 494  877.6216
 495  858.9142
 496  919.3867
 497  911.093
 498  871.056
 499  923.9526
 500  963.8277
 501  915.9199
 502  983.2741
 503  994.7526
 504  1025.137
 505  1034.806
 506  1015.854
 507  1004.95
 508  1096.811
 509  1212.628
 510  1349.599
 511  1404.37
