# Input file       =  1209906091.119043_cleaned.dat
# Candidate        =  PSR_0332+5434
# Telescope        =  AR
# Epoch_topo       =  58247.542512951884
# Epoch_bary       =  N/A
# T_sample         =  0.002
# Data Folded      =  7340032
# Data Avg         =  0.0788968482410097
# Data StdDev      =  1.00013710296559 
# Profile Bins     =  512
# Profile Avg      =  1130.89475718043 
# Profile StdDev   =  119.749452131133 
# Reduced chi-sqr  =  1.470
# Prob(Noise)      <  1.97e-11   (~6.6 sigma)
# P_topo (ms)      =  714.539174863932  +/- 0.000354
# P'_topo (s/s)    =  -0                +/- 1.87e-10
# P''_topo (s/s^2) =  0                 +/- 8.24e-14
# P_bary (ms)      =  N/A
# P'_bary (s/s)    =  N/A
# P''_bary (s/s^2) =  N/A
# P_orb (s)        =  N/A
# asin(i)/c (s)    =  N/A
# eccentricity     =  N/A
# w (rad)          =  N/A
# T_peri           =  N/A
######################################################
   0  1798.756
   1  1663.507
   2  1552.307
   3  1312.505
   4  1101.774
   5  1072.29
   6  1096.087
   7  1169.129
   8  1213.338
   9  1219.788
  10  1124.201
  11  1083.275
  12  1114.363
  13  1131.893
  14  1032.944
  15  1120.582
  16  1090.696
  17  1026.259
  18  1018.912
  19  1081.832
  20  1134.928
  21  994.114
  22  997.2651
  23  1086.663
  24  1069.705
  25  1034.756
  26  1075.436
  27  1209.971
  28  1247.905
  29  1254.052
  30  1120.579
  31  1115.771
  32  1076.681
  33  1009.923
  34  966.8903
  35  1089.809
  36  998.8517
  37  1034.902
  38  1137.182
  39  1077.708
  40  1135.605
  41  1127.174
  42  1114.611
  43  1094.73
  44  1050.197
  45  905.8412
  46  1021.559
  47  1091.486
  48  1134.989
  49  1128.212
  50  1133.858
  51  1161.154
  52  1072.262
  53  1096.032
  54  1128.63
  55  1035.229
  56  1082.888
  57  1072.826
  58  1070.964
  59  1140.417
  60  1210.845
  61  1100.362
  62  1040.797
  63  1097.823
  64  1133.768
  65  1188.299
  66  1062.073
  67  1033.664
  68  982.4997
  69  931.7477
  70  995.9122
  71  1031.034
  72  981.2651
  73  1009.612
  74  1031.137
  75  1115.055
  76  1128.535
  77  1073.147
  78  1005.659
  79  964.7487
  80  1090.413
  81  1160.505
  82  1196.441
  83  1179.273
  84  1094.552
  85  980.5574
  86  1003.81
  87  1010.267
  88  1048.247
  89  1138.974
  90  1130.773
  91  1117.12
  92  1055.262
  93  1002.393
  94  991.0745
  95  1151.146
  96  1148.589
  97  1084.959
  98  986.5746
  99  956.3197
 100  1047.473
 101  950.9282
 102  937.7673
 103  955.9476
 104  1000.246
 105  1144.805
 106  949.7996
 107  972.0385
 108  983.4724
 109  1013.485
 110  1129.164
 111  1123.582
 112  1102.679
 113  1153.942
 114  1079.636
 115  1022.513
 116  1104.016
 117  1119.48
 118  1143.494
 119  1119.188
 120  1162.652
 121  1100.499
 122  1205.384
 123  1108.937
 124  1071.421
 125  1112.619
 126  1165.057
 127  1184.621
 128  1243.246
 129  1187.576
 130  1260.685
 131  1228.92
 132  1151.199
 133  1115.361
 134  1096.738
 135  1108
 136  1091.103
 137  1146.023
 138  1038.242
 139  1021.548
 140  1085.877
 141  995.2772
 142  1009.058
 143  1034.201
 144  980.9904
 145  1039.321
 146  1120.387
 147  1045.269
 148  955.1428
 149  1045.359
 150  1053.575
 151  997.5668
 152  1029.427
 153  1165.661
 154  1144.301
 155  1118.734
 156  1121.485
 157  1164.121
 158  1055.31
 159  1009.033
 160  1153.856
 161  1174.455
 162  1082.398
 163  1000.074
 164  1054.928
 165  1065.963
 166  1142.085
 167  1076.203
 168  1038.671
 169  1106.674
 170  1154.798
 171  1195.668
 172  1206.471
 173  1243.238
 174  1122.108
 175  1011.597
 176  1023.341
 177  1143.852
 178  1307.705
 179  1224.415
 180  1123.432
 181  1133.865
 182  1184.765
 183  1168.022
 184  1196.343
 185  1096.541
 186  1142.964
 187  1191.447
 188  1159.554
 189  1176.101
 190  1178.574
 191  1340.244
 192  1317.81
 193  1208.964
 194  1219.332
 195  1155.1
 196  1164.018
 197  1187.576
 198  1298.75
 199  1271.134
 200  1187.16
 201  1136.681
 202  1159.013
 203  1199.795
 204  1141.778
 205  1298.42
 206  1174.41
 207  1247.601
 208  1284.71
 209  1211.126
 210  1279.919
 211  1358.741
 212  1299.536
 213  1312.665
 214  1262.822
 215  1363.464
 216  1370.674
 217  1385.916
 218  1297.068
 219  1144.894
 220  1170.146
 221  1219.704
 222  1277.363
 223  1272.744
 224  1258.159
 225  1177.789
 226  1178.589
 227  1251.214
 228  1201.491
 229  1110.535
 230  1189.136
 231  1274.807
 232  1274.038
 233  1226.686
 234  1183.713
 235  1119.95
 236  1210.03
 237  1296.648
 238  1329.155
 239  1302.464
 240  1137.902
 241  1267.234
 242  1202.499
 243  1162.249
 244  1210.589
 245  1148.221
 246  1154.763
 247  1197.511
 248  1151.705
 249  1075.376
 250  1096.053
 251  1165.985
 252  1146.474
 253  1174.578
 254  1296.503
 255  1233.702
 256  1156.875
 257  1152.424
 258  1192.291
 259  1283.476
 260  1255.343
 261  1190.635
 262  1175.396
 263  1181.078
 264  1201.026
 265  1318.514
 266  1358.794
 267  1244.175
 268  1046.992
 269  1053.594
 270  1244.241
 271  1318.647
 272  1202.327
 273  1253.002
 274  1280.617
 275  1285.141
 276  1330.501
 277  1176.202
 278  1046.395
 279  1054.514
 280  1164.411
 281  1229.328
 282  1212.665
 283  1213.594
 284  1251.224
 285  1210.707
 286  1184.814
 287  1222.692
 288  1194.595
 289  1129.262
 290  1170.858
 291  1161.214
 292  1157.375
 293  1244.071
 294  1289.024
 295  1367.347
 296  1265.53
 297  1237.971
 298  1350.611
 299  1445.334
 300  1358.728
 301  1240.754
 302  1256.126
 303  1205.548
 304  1140.969
 305  1326.418
 306  1320.268
 307  1208.954
 308  1136.101
 309  1159.32
 310  1258.498
 311  1258.001
 312  1160.976
 313  1155.639
 314  1231.836
 315  1233.344
 316  1166.693
 317  1142.442
 318  1157.46
 319  1172.31
 320  1220.223
 321  1204.163
 322  1220.13
 323  1187.439
 324  1172.453
 325  1102.761
 326  1052.65
 327  1182.535
 328  1197.405
 329  1169.818
 330  1088.525
 331  1160.933
 332  1249.175
 333  1197.532
 334  1056.898
 335  1081.69
 336  1145.803
 337  1183.235
 338  1177.794
 339  1259.391
 340  1187.432
 341  1102.91
 342  1205.722
 343  1204.269
 344  1072.767
 345  1071.351
 346  1094.477
 347  1165.346
 348  1125.701
 349  1128.274
 350  1129.549
 351  1080.753
 352  1101.662
 353  1031.772
 354  1084.139
 355  1109.438
 356  1123.058
 357  1164.999
 358  975.8743
 359  1076.836
 360  1086.295
 361  1119.323
 362  1157.373
 363  1037.152
 364  1154.666
 365  1128.831
 366  1016.355
 367  1062.52
 368  1091.842
 369  1061.221
 370  1062.546
 371  1161.766
 372  1154.62
 373  1105.847
 374  1144.821
 375  1136.555
 376  1130.694
 377  1067.727
 378  1137.752
 379  1193.166
 380  1206.392
 381  1142.748
 382  1098.271
 383  1057.495
 384  1203.029
 385  1148.795
 386  1081.28
 387  1070.929
 388  1104.206
 389  1138.076
 390  1109.917
 391  1113.636
 392  1040.707
 393  1138.15
 394  1095.104
 395  1098.82
 396  1173.467
 397  1207.79
 398  1191.356
 399  1035.099
 400  1006.947
 401  923.4939
 402  991.6565
 403  1072.45
 404  1025.687
 405  1026.231
 406  960.2835
 407  1005.75
 408  1050.06
 409  1032.403
 410  1021.096
 411  994.999
 412  1029.459
 413  1031.409
 414  1008.421
 415  924.946
 416  950.4037
 417  1080.889
 418  1086.886
 419  1105.64
 420  1092.802
 421  1110.355
 422  1019.726
 423  1066.961
 424  1122.64
 425  1076.051
 426  1021.595
 427  1080.969
 428  1090.162
 429  903.5071
 430  1058.89
 431  1094.04
 432  1045.018
 433  1041.802
 434  1054.299
 435  1027.754
 436  1078.862
 437  1093.22
 438  1123.467
 439  1075.979
 440  1110.71
 441  1043.723
 442  1123.271
 443  1062.356
 444  1036.238
 445  1126.314
 446  1188.399
 447  1200.304
 448  1157.172
 449  965.9796
 450  1000.074
 451  1058.026
 452  1098.225
 453  1092.186
 454  1088.749
 455  1157.263
 456  1166.078
 457  1112.429
 458  1126.088
 459  1157.112
 460  1233.561
 461  1093.194
 462  1112.568
 463  1093.258
 464  1137.022
 465  1239.138
 466  1109.152
 467  1054.488
 468  1074.574
 469  1067.201
 470  1070.753
 471  1047.677
 472  1030.085
 473  983.3551
 474  1048.561
 475  1066.798
 476  1012.824
 477  1093.411
 478  1083.627
 479  906.0693
 480  921.0968
 481  1093.099
 482  1158.783
 483  1119.88
 484  1093.93
 485  1105.573
 486  996.3682
 487  1015.404
 488  1051.04
 489  1095.408
 490  1180.466
 491  1138.897
 492  1032.744
 493  1100.805
 494  1068.142
 495  1140.667
 496  1098.059
 497  1082.6
 498  981.9865
 499  890.8308
 500  1017.649
 501  1119.015
 502  1001.325
 503  1071.257
 504  1055.16
 505  1157.881
 506  1072.433
 507  1070.031
 508  1124.315
 509  1303.268
 510  1399.587
 511  1686.618
