# Input file       =  1209029504.11775_cleaned.dat
# Candidate        =  PSR_0332+5434
# Telescope        =  AR
# Epoch_topo       =  58237.396830066551
# Epoch_bary       =  N/A
# T_sample         =  0.002
# Data Folded      =  7340032
# Data Avg         =  0.0440638900216752
# Data StdDev      =  1.00017268759313 
# Profile Bins     =  512
# Profile Avg      =  631.634569975707 
# Profile StdDev   =  119.753712786636 
# Reduced chi-sqr  =  1.053
# Prob(Noise)      <  0.198   (~0.8 sigma)
# P_topo (ms)      =  714.548161645858  +/- 0.000408
# P'_topo (s/s)    =  -0                +/- 2.15e-10
# P''_topo (s/s^2) =  0                 +/- 9.49e-14
# P_bary (ms)      =  N/A
# P'_bary (s/s)    =  N/A
# P''_bary (s/s^2) =  N/A
# P_orb (s)        =  N/A
# asin(i)/c (s)    =  N/A
# eccentricity     =  N/A
# w (rad)          =  N/A
# T_peri           =  N/A
######################################################
   0  1118.5
   1  1191.317
   2  1113.276
   3  850.4467
   4  767.9214
   5  676.7319
   6  643.4082
   7  614.5698
   8  573.632
   9  526.3457
  10  522.5618
  11  572.824
  12  623.1526
  13  549.0418
  14  565.5317
  15  565.1996
  16  565.7266
  17  589.2062
  18  573.1151
  19  584.3953
  20  508.8131
  21  531.9053
  22  561.0423
  23  560.7136
  24  614.6799
  25  650.9402
  26  590.7495
  27  524.5464
  28  499.9734
  29  611.2556
  30  649.4448
  31  628.3376
  32  692.4874
  33  750.4714
  34  662.755
  35  517.6439
  36  554.8104
  37  634.4512
  38  603.2908
  39  541.9865
  40  613.6168
  41  612.7221
  42  654.2554
  43  521.4128
  44  566.8353
  45  645.4565
  46  674.1599
  47  559.0074
  48  551.2662
  49  556.0507
  50  556.5436
  51  501.6201
  52  555.1294
  53  572.0067
  54  583.7228
  55  638.4216
  56  649.0729
  57  578.0812
  58  553.6003
  59  594.5667
  60  600.2504
  61  583.7155
  62  541.4421
  63  606.1483
  64  562.9487
  65  531.5282
  66  558.8207
  67  536.3117
  68  569.8259
  69  644.75
  70  593.1645
  71  583.7572
  72  586.9033
  73  585.0071
  74  575.584
  75  641.5963
  76  667.3382
  77  579.7776
  78  583.7006
  79  605.322
  80  596.8393
  81  591.8456
  82  608.3635
  83  552.5104
  84  604.0135
  85  698.2048
  86  602.277
  87  514.0538
  88  509.4714
  89  601.833
  90  620.5914
  91  603.642
  92  579.9448
  93  580.0013
  94  587.2607
  95  572.3068
  96  573.2957
  97  571.9258
  98  567.0356
  99  602.4374
 100  613.5329
 101  681.2728
 102  641.4728
 103  647.5735
 104  601.2397
 105  551.4433
 106  596.4855
 107  643.9355
 108  589.8306
 109  637.0266
 110  641.2853
 111  601.2491
 112  575.1372
 113  622.533
 114  628.1321
 115  593.6906
 116  735.8082
 117  665.156
 118  612.3498
 119  665.8776
 120  676.1077
 121  624.9723
 122  596.4403
 123  677.7506
 124  685.4901
 125  677.4286
 126  662.1906
 127  624.3652
 128  657.548
 129  705.7941
 130  672.1458
 131  669.2653
 132  725.296
 133  711.9047
 134  608.7676
 135  608.69
 136  656.8934
 137  623.315
 138  545.1888
 139  634.1968
 140  675.3577
 141  684.4429
 142  642.2286
 143  670.783
 144  744.0903
 145  750.4828
 146  720.8757
 147  742.1083
 148  786.5987
 149  776.3028
 150  763.4257
 151  708.314
 152  709.7512
 153  702.8872
 154  592.4141
 155  594.0812
 156  667.34
 157  621.0671
 158  657.8943
 159  682.3365
 160  750.692
 161  732.0615
 162  684.5286
 163  692.0179
 164  710.8242
 165  689.3358
 166  643.892
 167  632.4432
 168  654.9581
 169  716.6201
 170  690.4167
 171  702.1497
 172  675.3149
 173  590.5393
 174  603.54
 175  657.3877
 176  736.4911
 177  796.5217
 178  724.017
 179  734.8872
 180  752.991
 181  658.6053
 182  731.0652
 183  743.8493
 184  705.8867
 185  698.1536
 186  721.8983
 187  794.5315
 188  728.7291
 189  766.8202
 190  863.1121
 191  781.8952
 192  741.2806
 193  806.23
 194  722.1451
 195  654.8182
 196  642.0222
 197  746.659
 198  802.3527
 199  795.5884
 200  674.7966
 201  675.2732
 202  643.8824
 203  636.1146
 204  698.4022
 205  738.7301
 206  762.8889
 207  821.4199
 208  872.7269
 209  849.1752
 210  845.0339
 211  810.9673
 212  770.5121
 213  785.4752
 214  752.0464
 215  836.8578
 216  819.012
 217  694.4867
 218  636.5355
 219  644.3005
 220  664.309
 221  673.2505
 222  779.3047
 223  757.0208
 224  702.1725
 225  634.9221
 226  625.9595
 227  646.0989
 228  690.1335
 229  807.0119
 230  762.082
 231  731.1326
 232  768.0126
 233  747.693
 234  657.4402
 235  687.4299
 236  700.173
 237  734.4173
 238  690.0144
 239  637.0508
 240  627.0711
 241  684.9697
 242  604.1584
 243  676.8492
 244  657.7784
 245  723.3513
 246  707.2955
 247  685.8942
 248  623.7294
 249  695.7956
 250  722.9133
 251  720.3815
 252  653.2312
 253  644.5196
 254  701.4721
 255  617.9005
 256  599.0184
 257  706.6548
 258  677.1191
 259  670.1758
 260  664.2145
 261  649.53
 262  526.3916
 263  562.5566
 264  609.4622
 265  658.0972
 266  556.0853
 267  529.9966
 268  535.9584
 269  542.9045
 270  524.0337
 271  510.3619
 272  540.1219
 273  550.4199
 274  513.9319
 275  494.2005
 276  464.4718
 277  424.4457
 278  441.5862
 279  566.6596
 280  544.3019
 281  465.4201
 282  477.5203
 283  460.5992
 284  518.3093
 285  602.4272
 286  556.1141
 287  478.0892
 288  547.9372
 289  637.0714
 290  530.9501
 291  490.0524
 292  545.1047
 293  529.054
 294  510.054
 295  522.5447
 296  526.1337
 297  592.374
 298  594.5728
 299  600.5155
 300  583.6451
 301  599.8266
 302  685.5873
 303  568.7516
 304  592.0157
 305  591.3
 306  653.7104
 307  659.8032
 308  583.7399
 309  598.874
 310  675.7503
 311  678.1032
 312  696.2947
 313  669.5664
 314  618.6899
 315  584.848
 316  605.613
 317  643.6732
 318  592.7092
 319  602.3095
 320  581.1263
 321  542.7079
 322  564.4941
 323  653.3801
 324  627.524
 325  589.7522
 326  599.3909
 327  604.3243
 328  639.7712
 329  624.3407
 330  580.5136
 331  580.6788
 332  540.3121
 333  578.263
 334  587.1296
 335  524.5438
 336  522.5135
 337  496.4561
 338  552.098
 339  562.0793
 340  587.1262
 341  632.7026
 342  630.4703
 343  635.0611
 344  590.8676
 345  611.0092
 346  707.9972
 347  738.78
 348  659.0246
 349  639.9338
 350  597.7812
 351  622.4706
 352  646.2419
 353  637.8172
 354  660.9858
 355  635.5471
 356  610.1501
 357  592.4093
 358  604.4568
 359  601.5933
 360  547.6479
 361  584.8903
 362  596.0453
 363  529.6448
 364  586.3072
 365  636.494
 366  621.9598
 367  574.6725
 368  608.0745
 369  568.2507
 370  506.2558
 371  529.4541
 372  597.558
 373  609.4457
 374  578.2545
 375  572.5305
 376  608.2245
 377  530.7505
 378  588.0214
 379  640.8105
 380  558.9686
 381  534.7799
 382  530.4851
 383  584.5433
 384  520.7545
 385  525.224
 386  502.3155
 387  492.8984
 388  543.4551
 389  558.7036
 390  549.0587
 391  608.9443
 392  613.3253
 393  636.5682
 394  659.205
 395  706.8915
 396  716.2377
 397  690.765
 398  616.0657
 399  581.4929
 400  538.5812
 401  563.5273
 402  533.7781
 403  546.1353
 404  571.1024
 405  611.1725
 406  707.8629
 407  627.2325
 408  606.6982
 409  617.3381
 410  675.2993
 411  699.6764
 412  702.8216
 413  663.7843
 414  543.908
 415  579.6219
 416  643.4052
 417  613.3522
 418  504.7036
 419  487.2239
 420  589.1454
 421  585.8235
 422  648.516
 423  613.0029
 424  619.7704
 425  615.6011
 426  647.7382
 427  625.2907
 428  577.5641
 429  564.4578
 430  639.7639
 431  695.7001
 432  655.7363
 433  620.7363
 434  576.8474
 435  529.9665
 436  488.2877
 437  597.5079
 438  663.5733
 439  648.0543
 440  654.5754
 441  601.1739
 442  524.3427
 443  592.108
 444  624.5264
 445  605.5745
 446  630.6006
 447  676.0446
 448  600.1219
 449  614.4532
 450  586.6379
 451  630.6016
 452  634.3409
 453  626.8333
 454  589.1885
 455  523.6165
 456  535.163
 457  525.9739
 458  605.0686
 459  612.9177
 460  587.0972
 461  626.7588
 462  576.3605
 463  582.3242
 464  630.8806
 465  651.4009
 466  603.0376
 467  624.435
 468  669.9731
 469  665.4767
 470  648.2214
 471  708.1963
 472  715.2291
 473  658.9592
 474  599.2014
 475  685.8755
 476  651.1645
 477  626.9832
 478  675.9958
 479  589.6739
 480  706.2811
 481  693.9232
 482  664.4784
 483  664.5474
 484  666.0444
 485  580.7594
 486  544.3842
 487  593.4031
 488  601.385
 489  601.3167
 490  616.0691
 491  610.9092
 492  558.7244
 493  585.8801
 494  633.0491
 495  605.7665
 496  634.8827
 497  652.982
 498  623.6925
 499  560.929
 500  582.9322
 501  570.4348
 502  682.0195
 503  681.9532
 504  624.4999
 505  629.7509
 506  611.5886
 507  679.8849
 508  773.1696
 509  851.592
 510  1042.998
 511  1122.185
