# Input file       =  1209187230.109958_cleaned.dat
# Candidate        =  PSR_0332+5434
# Telescope        =  AR
# Epoch_topo       =  58239.222362383771
# Epoch_bary       =  N/A
# T_sample         =  0.002
# Data Folded      =  7208960
# Data Avg         =  0.0447225401307123
# Data StdDev      =  1.00006750078863 
# Profile Bins     =  512
# Profile Avg      =  629.683657686777 
# Profile StdDev   =  118.667185381474 
# Reduced chi-sqr  =  1.706
# Prob(Noise)      <  2.92e-21   (~9.4 sigma)
# P_topo (ms)      =  714.546520608801  +/- 9.45e-05
# P'_topo (s/s)    =  -0                +/- 5.07e-11
# P''_topo (s/s^2) =  0                 +/- 2.28e-14
# P_bary (ms)      =  N/A
# P'_bary (s/s)    =  N/A
# P''_bary (s/s^2) =  N/A
# P_orb (s)        =  N/A
# asin(i)/c (s)    =  N/A
# eccentricity     =  N/A
# w (rad)          =  N/A
# T_peri           =  N/A
######################################################
   0  1315.783
   1  1232.716
   2  933.0727
   3  815.674
   4  760.0779
   5  645.4305
   6  584.2176
   7  585.1909
   8  644.4896
   9  688.0765
  10  758.83
  11  748.7742
  12  714.8782
  13  641.3232
  14  709.2839
  15  728.8546
  16  735.8929
  17  744.3893
  18  764.0947
  19  659.9047
  20  563.2369
  21  596.8551
  22  569.6642
  23  571.3368
  24  539.8517
  25  533.033
  26  511.7986
  27  604.348
  28  765.294
  29  895.7305
  30  719.0093
  31  647.467
  32  696.8058
  33  715.7131
  34  693.8494
  35  688.1417
  36  693.7518
  37  654.2944
  38  701.7639
  39  560.2161
  40  699.176
  41  559.6378
  42  457.9059
  43  562.4728
  44  656.5948
  45  693.6135
  46  611.802
  47  729.3984
  48  760.5001
  49  734.246
  50  764.5787
  51  690.287
  52  664.7109
  53  633.5132
  54  754.8293
  55  755.0609
  56  694.0254
  57  656.4493
  58  597.1138
  59  632.4505
  60  687.1526
  61  744.6826
  62  747.3762
  63  595.2508
  64  479.4568
  65  574.6757
  66  607.0381
  67  679.9521
  68  750.0817
  69  729.7644
  70  725.6167
  71  662.8812
  72  806.9188
  73  743.1669
  74  610.2123
  75  580.8582
  76  697.4639
  77  689.8993
  78  805.1544
  79  882.1656
  80  743.3616
  81  719.087
  82  692.618
  83  757.5118
  84  651.8037
  85  626.6583
  86  705.5369
  87  797.5781
  88  651.2919
  89  597.4056
  90  495.8533
  91  494.6888
  92  581.5923
  93  699.3091
  94  781.186
  95  687.269
  96  668.3823
  97  721.4836
  98  578.7597
  99  641.5877
 100  620.8537
 101  521.7258
 102  614.4875
 103  590.5329
 104  549.0661
 105  665.6823
 106  675.6808
 107  578.8699
 108  556.3386
 109  563.5197
 110  603.0749
 111  731.7996
 112  805.4092
 113  653.7989
 114  639.3912
 115  598.6709
 116  598.1201
 117  686.7086
 118  533.535
 119  502.3024
 120  617.83
 121  603.3495
 122  551.953
 123  562.1227
 124  575.78
 125  669.5632
 126  703.2139
 127  705.2426
 128  709.7892
 129  608.5781
 130  709.3833
 131  533.5006
 132  583.7637
 133  700.1075
 134  790.0164
 135  670.4368
 136  567.9266
 137  652.3541
 138  744.1084
 139  602.748
 140  465.9513
 141  536.439
 142  669.1362
 143  672.2225
 144  741.2421
 145  667.7004
 146  599.0576
 147  659.7514
 148  767.2607
 149  681.5323
 150  461.643
 151  534.8447
 152  648.7842
 153  601.6557
 154  542.5287
 155  623.4374
 156  535.1605
 157  429.4416
 158  553.5823
 159  673.7181
 160  515.8964
 161  652.3702
 162  716.6081
 163  555.475
 164  450.5009
 165  536.9433
 166  735.166
 167  646.2293
 168  675.1862
 169  555.2048
 170  413.9257
 171  436.0046
 172  477.1508
 173  483.3965
 174  497.5564
 175  576.2761
 176  616.4846
 177  604.7868
 178  461.0078
 179  425.6842
 180  644.5185
 181  743.0578
 182  601.4235
 183  623.776
 184  627.0467
 185  513.1891
 186  422.3607
 187  640.4589
 188  590.5848
 189  622.3029
 190  483.5202
 191  585.8856
 192  525.6951
 193  581.1478
 194  605.5422
 195  645.8101
 196  543.971
 197  534.1757
 198  548.7496
 199  504.5156
 200  544.5466
 201  562.1656
 202  676.7383
 203  557.1545
 204  603.1529
 205  519.795
 206  496.2119
 207  493.843
 208  496.4777
 209  541.2536
 210  679.1483
 211  726.9135
 212  532.1527
 213  597.3519
 214  539.3689
 215  598.8688
 216  552.2981
 217  542.7581
 218  641.8763
 219  550.7517
 220  493.5674
 221  483.5305
 222  507.2115
 223  522.9327
 224  482.4106
 225  586.4437
 226  584.82
 227  636.8917
 228  522.6995
 229  612.7795
 230  669.1185
 231  710.69
 232  660.3549
 233  637.7297
 234  681.4767
 235  546.8838
 236  609.5264
 237  600.0801
 238  637.0273
 239  484.2356
 240  521.5078
 241  550.7819
 242  689.3045
 243  695.6522
 244  677.1371
 245  634.8965
 246  641.6292
 247  657.8761
 248  630.053
 249  544.7411
 250  662.1559
 251  664.7752
 252  439.0691
 253  465.791
 254  544.2703
 255  544.8687
 256  516.163
 257  532.7413
 258  606.1107
 259  633.2572
 260  595.7244
 261  577.8859
 262  532.891
 263  603.4181
 264  683.3306
 265  630.6721
 266  650.2941
 267  696.0427
 268  678.6716
 269  596.5459
 270  534.6926
 271  527.9566
 272  618.325
 273  527.7133
 274  658.1923
 275  598.9065
 276  625.4208
 277  640.8196
 278  523.9232
 279  511.4698
 280  594.4672
 281  551.1384
 282  660.442
 283  837.0714
 284  691.1633
 285  685.4554
 286  605.8464
 287  564.3696
 288  453.1757
 289  435.0988
 290  464.5924
 291  441.4716
 292  604.7256
 293  663.3458
 294  620.1855
 295  524.8525
 296  560.091
 297  531.3638
 298  558.9738
 299  527.0987
 300  519.3059
 301  627.2001
 302  635.8647
 303  561.6586
 304  488.5966
 305  585.8874
 306  418.1568
 307  451.4774
 308  589.9703
 309  632.0311
 310  612.2819
 311  574.1642
 312  519.3643
 313  387.682
 314  426.4839
 315  611.0481
 316  594.4924
 317  501.1185
 318  526.8448
 319  491.5249
 320  450.1827
 321  441.5279
 322  448.4916
 323  548.6799
 324  567.4842
 325  621.7774
 326  656.6981
 327  620.0887
 328  635.1572
 329  463.4738
 330  687.7404
 331  729.729
 332  770.6688
 333  612.3229
 334  628.157
 335  625.0742
 336  556.7295
 337  598.1498
 338  483.0349
 339  511.9109
 340  645.1082
 341  605.58
 342  576.5877
 343  517.4705
 344  637.1324
 345  662.5887
 346  660.1993
 347  749.53
 348  655.8926
 349  579.6449
 350  543.3791
 351  508.0961
 352  617.6288
 353  634.257
 354  600.2734
 355  554.7058
 356  549.9907
 357  518.166
 358  549.7694
 359  702.3054
 360  654.7715
 361  644.6829
 362  622.0245
 363  659.0231
 364  616.9615
 365  694.8864
 366  818.5729
 367  691.6745
 368  616.34
 369  582.0547
 370  682.3954
 371  573.3911
 372  516.1955
 373  653.1869
 374  696.5651
 375  700.0636
 376  717.7106
 377  671.9259
 378  552.2972
 379  523.345
 380  583.8934
 381  675.1445
 382  822.1238
 383  704.0878
 384  721.872
 385  736.0988
 386  632.989
 387  477.623
 388  479.2865
 389  566.1168
 390  557.7651
 391  692.038
 392  743.0236
 393  620.1521
 394  453.8213
 395  532.872
 396  562.735
 397  557.1873
 398  583.365
 399  651.7071
 400  702.6483
 401  645.9158
 402  555.975
 403  472.5648
 404  528.296
 405  503.9104
 406  446.3832
 407  501.1671
 408  539.7429
 409  581.9773
 410  642.7661
 411  654.7621
 412  589.7856
 413  521.1052
 414  643.8112
 415  618.9788
 416  656.7577
 417  643.062
 418  549.0241
 419  547.9107
 420  522.2184
 421  473.4646
 422  559.1725
 423  629.555
 424  721.6121
 425  703.3901
 426  631.2127
 427  628.5793
 428  643.1279
 429  812.6392
 430  730.7777
 431  780.3786
 432  788.5492
 433  727.0917
 434  614.5976
 435  507.3716
 436  575.9933
 437  635.3234
 438  613.3459
 439  635.6668
 440  680.0973
 441  755.9282
 442  833.624
 443  763.5214
 444  665.7858
 445  678.0093
 446  641.553
 447  751.6519
 448  740.8354
 449  764.3925
 450  657.3724
 451  608.6342
 452  559.7443
 453  576.7905
 454  626.9355
 455  756.0083
 456  794.872
 457  642.8251
 458  783.5052
 459  782.3587
 460  725.2045
 461  656.0035
 462  718.1592
 463  660.8643
 464  542.7718
 465  665.3804
 466  700.6113
 467  688.2498
 468  699.3975
 469  634.1667
 470  620.9225
 471  641.606
 472  623.7869
 473  633.1339
 474  724.5167
 475  714.2645
 476  750.101
 477  672.3714
 478  654.5553
 479  647.0486
 480  639.5927
 481  830.2317
 482  684.4951
 483  628.1943
 484  649.2036
 485  596.0756
 486  518.9995
 487  489.3761
 488  471.059
 489  661.7963
 490  826.6412
 491  821.4745
 492  816.0446
 493  767.3085
 494  624.6033
 495  591.4802
 496  716.889
 497  804.5912
 498  787.947
 499  626.7648
 500  631.5533
 501  567.8487
 502  515.9448
 503  562.8376
 504  681.4673
 505  726.8364
 506  856.078
 507  883.2579
 508  1065.987
 509  1099.853
 510  1218.08
 511  1260.769
