# Input file       =  1209561351.137129_cleaned.dat
# Candidate        =  PSR_0332+5434
# Telescope        =  AR
# Epoch_topo       =  58243.552466864923
# Epoch_bary       =  N/A
# T_sample         =  0.002
# Data Folded      =  7340032
# Data Avg         =  0.0473579380261997
# Data StdDev      =  1.00009814015897 
# Profile Bins     =  512
# Profile Avg      =  678.636315363723 
# Profile StdDev   =  119.744786995989 
# Reduced chi-sqr  =  1.177
# Prob(Noise)      <  0.00346   (~2.7 sigma)
# P_topo (ms)      =  714.542913456678  +/- 0.000515
# P'_topo (s/s)    =  -0                +/- 2.72e-10
# P''_topo (s/s^2) =  0                 +/- 1.2e-13
# P_bary (ms)      =  N/A
# P'_bary (s/s)    =  N/A
# P''_bary (s/s^2) =  N/A
# P_orb (s)        =  N/A
# asin(i)/c (s)    =  N/A
# eccentricity     =  N/A
# w (rad)          =  N/A
# T_peri           =  N/A
######################################################
   0  1230.391
   1  1145.937
   2  1026.891
   3  973.4178
   4  860.4978
   5  787.0297
   6  645.5226
   7  660.6572
   8  770.7388
   9  730.0323
  10  634.1599
  11  740.6382
  12  708.8573
  13  730.3318
  14  821.6343
  15  735.8182
  16  800.2289
  17  745.7879
  18  709.7895
  19  624.8445
  20  698.5756
  21  641.3325
  22  670.351
  23  690.2442
  24  765.1149
  25  748.9161
  26  614.9805
  27  588.7744
  28  674.0897
  29  671.3896
  30  645.7725
  31  665.8806
  32  556.0202
  33  541.2978
  34  570.2062
  35  613.4756
  36  638.2221
  37  572.3873
  38  586.2098
  39  544.8427
  40  501.4611
  41  520.8229
  42  536.4205
  43  547.7651
  44  532.2076
  45  512.9984
  46  606.2941
  47  675.0661
  48  547.3502
  49  481.5942
  50  512.0753
  51  438.1234
  52  531.7972
  53  578.4462
  54  606.6405
  55  549.6526
  56  593.8012
  57  551.0536
  58  450.1111
  59  538.5114
  60  577.1511
  61  510.326
  62  538.8158
  63  517.2739
  64  465.7144
  65  571.6227
  66  607.5197
  67  508.8652
  68  576.4149
  69  554.8378
  70  650.7019
  71  594.1337
  72  658.8691
  73  701.1351
  74  758.3264
  75  684.5993
  76  645.1429
  77  644.3436
  78  533.027
  79  652.6771
  80  632.7566
  81  601.1804
  82  558.6302
  83  586.4996
  84  698.3404
  85  704.7902
  86  703.7814
  87  694.1264
  88  820.1747
  89  737.1731
  90  774.5566
  91  682.0807
  92  693.2501
  93  736.6703
  94  695.2617
  95  680.2359
  96  746.1939
  97  680.7087
  98  679.2944
  99  600.1556
 100  573.3624
 101  724.1207
 102  742.5842
 103  777.6455
 104  801.781
 105  746.0063
 106  750.3134
 107  737.2706
 108  807.1082
 109  786.2921
 110  713.5055
 111  630.5192
 112  613.8561
 113  645.0525
 114  647.0646
 115  578.1867
 116  602.8296
 117  675.2791
 118  652.6888
 119  609.0303
 120  532.118
 121  599.4334
 122  652.4176
 123  558.0446
 124  436.2404
 125  568.4386
 126  539.0465
 127  492.7388
 128  607.905
 129  613.7374
 130  563.8694
 131  653.8682
 132  759.6723
 133  696.0259
 134  667.8558
 135  717.7589
 136  691.8454
 137  686.3269
 138  663.3777
 139  694.3762
 140  702.8015
 141  722.6936
 142  756.6512
 143  816.924
 144  784.8608
 145  571.8227
 146  623.8777
 147  746.5391
 148  669.0335
 149  657.1108
 150  583.0494
 151  714.7365
 152  694.6146
 153  634.3478
 154  568.6907
 155  678.29
 156  696.1393
 157  717.4589
 158  608.4638
 159  563.17
 160  694.5592
 161  511.6805
 162  595.369
 163  738.1854
 164  724.6011
 165  596.6205
 166  659.7933
 167  638.3298
 168  594.6689
 169  623.6608
 170  682.3438
 171  557.3238
 172  493.4756
 173  596.3273
 174  701.416
 175  673.9224
 176  622.3533
 177  582.4994
 178  597.7377
 179  581.6721
 180  610.9016
 181  746.4348
 182  730.8766
 183  602.473
 184  663.8509
 185  680.5148
 186  703.1636
 187  694.981
 188  659.2411
 189  640.8779
 190  704.6844
 191  619.8021
 192  625.5743
 193  575.2762
 194  638.7901
 195  632.7452
 196  529.4383
 197  477.6656
 198  645.1179
 199  605.6036
 200  541.1853
 201  591.4135
 202  605.1968
 203  574.5607
 204  586.5406
 205  645.8654
 206  618.9224
 207  628.7964
 208  743.9116
 209  667.5197
 210  620.5095
 211  676.5809
 212  688.7144
 213  723.5364
 214  712.6357
 215  691.4172
 216  617.4078
 217  674.5885
 218  644.5024
 219  721.3214
 220  640.5459
 221  558.6696
 222  574.3893
 223  676.267
 224  668.9949
 225  512.2662
 226  555.838
 227  711.2666
 228  664.8474
 229  609.0949
 230  667.386
 231  638.2756
 232  618.2335
 233  677.7559
 234  626.8477
 235  628.3814
 236  590.6075
 237  576.8323
 238  669.4802
 239  618.2271
 240  559.167
 241  593.4201
 242  637.5549
 243  638.5789
 244  655.4226
 245  571.5336
 246  676.1972
 247  656.3122
 248  673.074
 249  733.1802
 250  763.7368
 251  619.7225
 252  644.968
 253  714.8223
 254  782.1305
 255  641.0483
 256  647.9277
 257  720.5933
 258  780.91
 259  713.5497
 260  608.3369
 261  617.1473
 262  640.3856
 263  612.8729
 264  705.2805
 265  677.6519
 266  698.4113
 267  728.9197
 268  644.5453
 269  544.2407
 270  562.8621
 271  607.8734
 272  636.3816
 273  651.4171
 274  682.5231
 275  602.4954
 276  593.1171
 277  704.2035
 278  737.1282
 279  567.9246
 280  588.9025
 281  651.2087
 282  643.1849
 283  701.944
 284  724.6663
 285  683.6069
 286  683.644
 287  704.3205
 288  719.0007
 289  690.8679
 290  689.4038
 291  690.3957
 292  699.6413
 293  732.2621
 294  744.8914
 295  710.2927
 296  624.4565
 297  656.0189
 298  717.4818
 299  823.5038
 300  767.092
 301  710.9757
 302  723.0057
 303  810.0264
 304  780.5487
 305  697.8975
 306  693.6641
 307  759.9978
 308  886.7126
 309  777.795
 310  725.8334
 311  783.6223
 312  847.3028
 313  821.8002
 314  722.8831
 315  757.0465
 316  668.6204
 317  680.5421
 318  847.491
 319  699.5082
 320  694.5087
 321  815.0251
 322  848.7409
 323  888.2885
 324  698.9901
 325  622.8376
 326  688.4578
 327  573.4532
 328  635.057
 329  707.5316
 330  620.9418
 331  744.9665
 332  730.3551
 333  698.4326
 334  739.5753
 335  772.2089
 336  752.0068
 337  637.963
 338  662.4403
 339  756.8613
 340  819.3598
 341  793.6337
 342  767.1803
 343  785.6968
 344  706.3643
 345  637.5948
 346  583.2255
 347  651.1339
 348  568.7587
 349  591.9481
 350  762.2258
 351  695.3127
 352  607.0743
 353  706.8458
 354  686.1122
 355  706.6166
 356  756.9774
 357  623.392
 358  704.1505
 359  728.8386
 360  582.5634
 361  683.257
 362  660.0521
 363  697.3359
 364  604.6216
 365  656.5878
 366  578.1429
 367  574.516
 368  645.3008
 369  670.2133
 370  620.2579
 371  700.691
 372  789.9473
 373  702.0106
 374  648.9104
 375  723.2392
 376  759.6677
 377  734.7474
 378  661.5286
 379  622.8453
 380  628.3709
 381  548.3465
 382  682.0059
 383  815.2416
 384  796.9884
 385  772.6408
 386  684.0793
 387  832.7381
 388  784.3259
 389  720.1945
 390  612.1459
 391  573.1538
 392  701.3168
 393  784.7534
 394  762.2579
 395  698.8694
 396  713.2621
 397  766.3763
 398  752.1219
 399  686.4536
 400  576.8593
 401  638.8921
 402  678.939
 403  758.827
 404  707.9618
 405  755.6573
 406  786.002
 407  695.3257
 408  667.3036
 409  748.0698
 410  817.5452
 411  743.4141
 412  758.1835
 413  809.2883
 414  707.7999
 415  677.6605
 416  692.6529
 417  689.9963
 418  666.4623
 419  667.9062
 420  621.1745
 421  718.0706
 422  703.4555
 423  683.111
 424  765.7252
 425  646.7437
 426  665.0446
 427  680.3353
 428  709.1611
 429  736.809
 430  724.7733
 431  664.6967
 432  696.7162
 433  697.7316
 434  783.5695
 435  760.3648
 436  724.1411
 437  656.4391
 438  667.9388
 439  724.6339
 440  690.051
 441  682.4139
 442  662.6892
 443  798.1287
 444  814.0423
 445  709.5276
 446  661.9534
 447  662.843
 448  696.1995
 449  716.8195
 450  632.0216
 451  524.2453
 452  635.0799
 453  602.4949
 454  614.6835
 455  674.6215
 456  665.6821
 457  651.7328
 458  675.3555
 459  839.0875
 460  757.7884
 461  719.1091
 462  678.8245
 463  668.931
 464  725.385
 465  675.9731
 466  727.2688
 467  711.8429
 468  696.3937
 469  674.7051
 470  708.7784
 471  833.4139
 472  821.9802
 473  704.4241
 474  792.359
 475  686.5533
 476  666.3748
 477  767.9185
 478  622.33
 479  642.4769
 480  726.2697
 481  742.3721
 482  759.6558
 483  775.0658
 484  734.834
 485  695.0342
 486  684.8737
 487  695.4312
 488  688.3048
 489  811.6215
 490  770.5994
 491  822.1402
 492  852.7877
 493  831.2847
 494  743.5479
 495  664.7607
 496  634.7322
 497  672.6155
 498  698.8335
 499  657.4771
 500  651.2551
 501  584.496
 502  748.4088
 503  833.1875
 504  761.5175
 505  653.7507
 506  727.142
 507  823.1714
 508  819.9402
 509  868.8886
 510  1134.027
 511  1247.494
