# Input file       =  1209546443.111069_cleaned.dat
# Candidate        =  PSR_0332+5434
# Telescope        =  AR
# Epoch_topo       =  58243.379920267005
# Epoch_bary       =  N/A
# T_sample         =  0.002
# Data Folded      =  7340032
# Data Avg         =  0.0759066834056693
# Data StdDev      =  1.00014028607825 
# Profile Bins     =  512
# Profile Avg      =  1088.9431524087  
# Profile StdDev   =  119.749833254877 
# Reduced chi-sqr  =  2.048
# Prob(Noise)      <  4.12e-39   (~13.0 sigma)
# P_topo (ms)      =  714.542740032749  +/- 0.000753
# P'_topo (s/s)    =  -0                +/- 3.98e-10
# P''_topo (s/s^2) =  0                 +/- 1.75e-13
# P_bary (ms)      =  N/A
# P'_bary (s/s)    =  N/A
# P''_bary (s/s^2) =  N/A
# P_orb (s)        =  N/A
# asin(i)/c (s)    =  N/A
# eccentricity     =  N/A
# w (rad)          =  N/A
# T_peri           =  N/A
######################################################
   0  1628.381
   1  1549.627
   2  1456.117
   3  1381.595
   4  1256.974
   5  1164.286
   6  1130.939
   7  1197.209
   8  1210.084
   9  1246.54
  10  1135.993
  11  1139.191
  12  1217.156
  13  1257.792
  14  1215.892
  15  1187.079
  16  1215.635
  17  1245.901
  18  1228.968
  19  1141.986
  20  1114.415
  21  1181.696
  22  1202.223
  23  1193.134
  24  1130.56
  25  1109.767
  26  1167.086
  27  1242.819
  28  1225.38
  29  1182.969
  30  1224.565
  31  1206.649
  32  1146.746
  33  1138.716
  34  1190.042
  35  1158.717
  36  1165.347
  37  1215.213
  38  1241.04
  39  1192.565
  40  1163.328
  41  1191.861
  42  1127.487
  43  1140.995
  44  1125.857
  45  1107.695
  46  1131.484
  47  1087.534
  48  1001.969
  49  950.7468
  50  1005.015
  51  1087.358
  52  1049.493
  53  995.9602
  54  1035.925
  55  1108.761
  56  1156.894
  57  1048.477
  58  1019.69
  59  1038.514
  60  1135.215
  61  1102.795
  62  1042.4
  63  1037.225
  64  1052.434
  65  1011.625
  66  1015.129
  67  983.4904
  68  993.4279
  69  1016.577
  70  987.1519
  71  899.9729
  72  873.6176
  73  901.8173
  74  958.4825
  75  928.7203
  76  885.615
  77  892.0055
  78  876.8407
  79  927.8953
  80  909.318
  81  924.6292
  82  938.0647
  83  890.782
  84  928.569
  85  919.7132
  86  862.7985
  87  917.5046
  88  958.9037
  89  938.9114
  90  930.4944
  91  915.5104
  92  1002.843
  93  995.1307
  94  984.3353
  95  1029.129
  96  948.5862
  97  953.9713
  98  918.987
  99  999.2638
 100  1033.912
 101  1003.021
 102  975.4029
 103  1035.698
 104  1012.008
 105  995.9601
 106  1019.5
 107  1000.285
 108  956.681
 109  973.2327
 110  1005.845
 111  969.6415
 112  960.6318
 113  930.2269
 114  1013.128
 115  1045.62
 116  1011.166
 117  917.2331
 118  904.5307
 119  989.0344
 120  1047.325
 121  1000.224
 122  974.4687
 123  1068.046
 124  1095.468
 125  1033.154
 126  950.5532
 127  1071.891
 128  1124.431
 129  1072.308
 130  1079.165
 131  1049.962
 132  993.0262
 133  898.3115
 134  926.92
 135  1008.315
 136  983.8534
 137  975.5566
 138  930.2051
 139  888.2418
 140  974.8378
 141  1041.726
 142  938.6376
 143  1003.931
 144  1051.957
 145  1010.82
 146  982.2194
 147  946.1376
 148  972.2541
 149  969.9481
 150  897.8427
 151  997.3519
 152  960.7764
 153  979.7971
 154  994.6685
 155  975.8655
 156  1015.281
 157  983.5768
 158  998.0308
 159  1031.001
 160  1007.046
 161  964.9555
 162  1053.839
 163  1021.775
 164  1019.199
 165  1093.516
 166  1064.027
 167  1123.744
 168  1100.613
 169  1134.594
 170  1131.659
 171  1125.682
 172  1111.465
 173  1101.376
 174  1073.563
 175  1102.286
 176  1037.019
 177  983.2214
 178  981.6996
 179  917.5052
 180  998.7334
 181  1023.277
 182  977.2539
 183  1011.838
 184  1004.55
 185  1050.284
 186  1055.92
 187  986.4513
 188  1033.737
 189  1081.375
 190  1112.424
 191  1073.55
 192  989.796
 193  980.7893
 194  969.172
 195  964.9743
 196  974.7546
 197  1011.931
 198  1004.901
 199  878.985
 200  836.187
 201  833.059
 202  868.2594
 203  940.9279
 204  919.1951
 205  920.5775
 206  829.6161
 207  941.7678
 208  926.5121
 209  900.3691
 210  875.8665
 211  957.8154
 212  887.5587
 213  948.0443
 214  1023.462
 215  885.554
 216  878.9424
 217  921.7146
 218  909.5366
 219  942.249
 220  871.5863
 221  842.5879
 222  866.9493
 223  834.1392
 224  857.2933
 225  931.8493
 226  921.6412
 227  928.1529
 228  910.6946
 229  849.729
 230  876.2463
 231  922.2352
 232  868.5536
 233  761.9333
 234  836.6686
 235  894.014
 236  867.549
 237  930.1446
 238  911.2626
 239  927.7006
 240  942.5525
 241  848.0527
 242  837.1921
 243  909.3178
 244  953.2224
 245  928.4763
 246  905.2885
 247  1005.269
 248  930.9708
 249  900.1044
 250  960.6448
 251  1010.166
 252  1054.522
 253  1051.034
 254  1059.772
 255  1054.391
 256  959.733
 257  983.9794
 258  998.2596
 259  961.1386
 260  984.3555
 261  1012.775
 262  1035.229
 263  1099.357
 264  1065.041
 265  1109.098
 266  1157.695
 267  1081.083
 268  1056.203
 269  1061.545
 270  1090.291
 271  1087.47
 272  1017.421
 273  1039.924
 274  1060.105
 275  1091.89
 276  1097.538
 277  1031.284
 278  1052.933
 279  1124.767
 280  1137.944
 281  1093.577
 282  1091.692
 283  1203.72
 284  1183.891
 285  1120.482
 286  1217.625
 287  1199.967
 288  1142.773
 289  1105.447
 290  1072.196
 291  1141.248
 292  1148.916
 293  1146.113
 294  1187.894
 295  1117.524
 296  1221.441
 297  1271.941
 298  1229.269
 299  1221.106
 300  1057.131
 301  1040.41
 302  1075.705
 303  1101.641
 304  1085.676
 305  1019.488
 306  1010.731
 307  1051.976
 308  1059.692
 309  1026.881
 310  1066.149
 311  1047.58
 312  1061.609
 313  1105.142
 314  1059.589
 315  1066.03
 316  1099.299
 317  1123.881
 318  1131.947
 319  1169.746
 320  1185.543
 321  1146.946
 322  1164.188
 323  1136.976
 324  1087.983
 325  1047.189
 326  1007.098
 327  1076.603
 328  1212.001
 329  1159.19
 330  1217.864
 331  1172.286
 332  1178.742
 333  1149.385
 334  1119.406
 335  1090.158
 336  1142.649
 337  1189.784
 338  1208.625
 339  1137.406
 340  1197.67
 341  1236.336
 342  1309.986
 343  1251.733
 344  1163.911
 345  1216.346
 346  1231.886
 347  1167.295
 348  1137.642
 349  1176.422
 350  1178.654
 351  1153.513
 352  1131.349
 353  1144.997
 354  1198.464
 355  1190.148
 356  1120.629
 357  1101.087
 358  1127.621
 359  1197.722
 360  1198.435
 361  1146.215
 362  1059.763
 363  1170.72
 364  1170.006
 365  1159.353
 366  1190.674
 367  1161.935
 368  1160.115
 369  1239.638
 370  1265.263
 371  1283.834
 372  1282.028
 373  1227.549
 374  1268.066
 375  1290.095
 376  1304.76
 377  1291.335
 378  1233.115
 379  1172.128
 380  1261.695
 381  1288.961
 382  1319.029
 383  1230.072
 384  1225.503
 385  1209.37
 386  1125.523
 387  1101.173
 388  1180.838
 389  1237.985
 390  1213.767
 391  1210.047
 392  1192.996
 393  1209.177
 394  1182.997
 395  1159.676
 396  1128.954
 397  1128.708
 398  1146.438
 399  1203.101
 400  1233.675
 401  1150.604
 402  1182.108
 403  1140.994
 404  1171.313
 405  1117.236
 406  1138.654
 407  1210.148
 408  1218.108
 409  1201.777
 410  1207.172
 411  1165.933
 412  1177.415
 413  1206.527
 414  1184.026
 415  1252.46
 416  1197.708
 417  1127.406
 418  1143.517
 419  1200.865
 420  1166.193
 421  1180.151
 422  1233.596
 423  1257.327
 424  1293.701
 425  1272.852
 426  1245.258
 427  1234.749
 428  1200.75
 429  1165.28
 430  1159.281
 431  1220.442
 432  1186.21
 433  1166.834
 434  1197.208
 435  1243.778
 436  1138.112
 437  1118.675
 438  1171.017
 439  1235.814
 440  1160.036
 441  1113.223
 442  1132.024
 443  1165.977
 444  1078.902
 445  1096.643
 446  1084.115
 447  1119.567
 448  1126.16
 449  1192.64
 450  1178.583
 451  1206.365
 452  1220.615
 453  1205.378
 454  1212.536
 455  1219.681
 456  1247.216
 457  1232.796
 458  1297.378
 459  1253.516
 460  1255.676
 461  1268.322
 462  1193.2
 463  1183.447
 464  1229.994
 465  1231.348
 466  1139.987
 467  1169.019
 468  1208.782
 469  1258.896
 470  1159.804
 471  1212.901
 472  1231.139
 473  1186.799
 474  1172.039
 475  1125.047
 476  1142.939
 477  1107.23
 478  1193.365
 479  1096.916
 480  982.2268
 481  985.561
 482  1141.126
 483  1129.257
 484  1046.432
 485  1051.358
 486  1097.231
 487  1111.086
 488  1171.571
 489  1263.265
 490  1151.202
 491  1137.35
 492  1095.05
 493  1121.572
 494  1039.908
 495  1030.947
 496  1105.302
 497  1049.227
 498  1055.861
 499  1101.565
 500  1134.218
 501  1097.79
 502  1089.535
 503  1114.514
 504  1206.66
 505  1211.4
 506  1206.296
 507  1262.302
 508  1346.754
 509  1344.288
 510  1460.989
 511  1607.942
