# Input file       =  1209187230.109958_cleaned.dat
# Candidate        =  PSR_0332+5434
# Telescope        =  AR
# Epoch_topo       =  58239.222362383771
# Epoch_bary       =  N/A
# T_sample         =  0.002
# Data Folded      =  7208960
# Data Avg         =  0.0447225401307123
# Data StdDev      =  1.00006750078863 
# Profile Bins     =  512
# Profile Avg      =  629.68365768697  
# Profile StdDev   =  118.667185381474 
# Reduced chi-sqr  =  1.694
# Prob(Noise)      <  1.05e-20   (~9.3 sigma)
# P_topo (ms)      =  714.546520639564  +/- 9.33e-05
# P'_topo (s/s)    =  -0                +/- 5.01e-11
# P''_topo (s/s^2) =  0                 +/- 2.25e-14
# P_bary (ms)      =  N/A
# P'_bary (s/s)    =  N/A
# P''_bary (s/s^2) =  N/A
# P_orb (s)        =  N/A
# asin(i)/c (s)    =  N/A
# eccentricity     =  N/A
# w (rad)          =  N/A
# T_peri           =  N/A
######################################################
   0  1271.192
   1  1337.38
   2  1097.385
   3  842.6902
   4  799.5336
   5  691.4716
   6  645.7283
   7  532.5455
   8  649.1514
   9  641.0815
  10  739.7966
  11  762.1328
  12  723.3276
  13  699.7542
  14  624.4299
  15  757.0798
  16  717.717
  17  745.6298
  18  753.0584
  19  726.7693
  20  618.2369
  21  562.2623
  22  596.4957
  23  556.3384
  24  574.6864
  25  523.7648
  26  513.6503
  27  538.9169
  28  662.4183
  29  862.9777
  30  837.8291
  31  675.4293
  32  654.3845
  33  715.2167
  34  692.2198
  35  692.1351
  36  717.8576
  37  647.7434
  38  712.547
  39  604.8542
  40  623.0621
  41  669.4747
  42  492.6519
  43  488.9695
  44  608.6755
  45  682.1624
  46  658.3342
  47  646.3429
  48  755.4273
  49  737.4542
  50  758.171
  51  746.6655
  52  668.163
  53  645.9666
  54  684.2715
  55  784.7881
  56  704.1635
  57  664.0426
  58  647.8068
  59  592.5336
  60  680.7845
  61  678.5615
  62  792.3996
  63  662.3235
  64  529.2071
  65  510.7029
  66  610.4186
  67  637.7156
  68  701.7869
  69  758.4517
  70  733.857
  71  681.4122
  72  716.4868
  73  818.9225
  74  688.7764
  75  556.3138
  76  638.5779
  77  682.4204
  78  734.5355
  79  856.2398
  80  842.8708
  81  725.5478
  82  685.5521
  83  720.3423
  84  731.465
  85  652.1935
  86  623.0084
  87  770.4462
  88  724.8013
  89  639.5602
  90  555.5468
  91  467.2593
  92  539.262
  93  619.5403
  94  771.7059
  95  733.1622
  96  691.7042
  97  666.8326
  98  688.4437
  99  557.554
 100  699.7424
 101  537.3992
 102  551.8207
 103  624.8309
 104  556.5661
 105  602.3248
 106  669.6036
 107  657.7215
 108  534.6548
 109  574.2427
 110  566.8156
 111  658.5142
 112  788.8387
 113  738.1033
 114  633.0593
 115  642.3719
 116  564.5117
 117  658.3763
 118  610.7143
 119  520.5192
 120  539.2794
 121  642.1712
 122  559.3369
 123  566.1328
 124  553.3237
 125  602.6799
 126  706.8193
 127  690.2762
 128  736.688
 129  637.9036
 130  671.9044
 131  638.0054
 132  526.8184
 133  617.1863
 134  781.7899
 135  745.2604
 136  603.0467
 137  604.1121
 138  710.5559
 139  713.6447
 140  503.5498
 141  467.5603
 142  620.6762
 143  673.9155
 144  708.4674
 145  716.1519
 146  618.408
 147  585.6857
 148  751.2894
 149  741.4977
 150  605.6315
 151  420.111
 152  623.2657
 153  650.2348
 154  555.4911
 155  568.7166
 156  608.8284
 157  488.1129
 158  432.2214
 159  661.3175
 160  581.575
 161  571.7299
 162  692.1998
 163  682.2834
 164  482.5277
 165  453.369
 166  642.3317
 167  699.8528
 168  665.8445
 169  650.2937
 170  469.0815
 171  396.4661
 172  473.6331
 173  471.4827
 174  496.3301
 175  530.0242
 176  591.5814
 177  636.0712
 178  531.9537
 179  433.0537
 180  496.9691
 181  718.5425
 182  678.2582
 183  596.6727
 184  667.3875
 185  563.541
 186  453.723
 187  497.9452
 188  675.2207
 189  571.4313
 190  580.849
 191  495.3103
 192  602.9396
 193  521.1656
 194  591.6708
 195  637.9191
 196  579.2778
 197  542.4057
 198  539.8869
 199  546.1302
 200  510.1398
 201  541.4724
 202  631.9886
 203  630.3647
 204  570.8752
 205  565.8222
 206  517.6097
 207  472.9581
 208  512.6538
 209  498.3391
 210  589.7331
 211  753.9997
 212  605.5164
 213  581.4971
 214  552.0336
 215  573.7814
 216  565.3888
 217  552.8054
 218  592.2296
 219  607.0553
 220  524.0844
 221  456.0849
 222  530.4623
 223  492.5664
 224  523.2774
 225  505.9138
 226  604.4833
 227  595.1684
 228  595.7507
 229  537.9736
 230  646.0366
 231  702.3347
 232  695.3779
 233  648.9012
 234  656.3675
 235  629.2989
 236  552.315
 237  619.3146
 238  617.136
 239  565.4692
 240  501.5128
 241  517.944
 242  621.6872
 243  698.5496
 244  694.0925
 245  650.7407
 246  629.7549
 247  655.1041
 248  663.6052
 249  589.373
 250  540.4233
 251  732.9261
 252  528.7839
 253  451.8604
 254  496.7776
 255  567.147
 256  530.0884
 257  500.1679
 258  564.8806
 259  618.9752
 260  630.1192
 261  586.4273
 262  574.6317
 263  539.094
 264  651.2253
 265  650.1512
 266  633.851
 267  696.6643
 268  679.3276
 269  652.3099
 270  552.2261
 271  519.4933
 272  580.7305
 273  577.3433
 274  585.8721
 275  648.2451
 276  593.4813
 277  635.0466
 278  627.8104
 279  456.5711
 280  566.877
 281  566.8299
 282  576.1486
 283  773.9634
 284  787.5071
 285  666.9197
 286  673.7946
 287  585.7072
 288  516.4632
 289  427.143
 290  463.0216
 291  442.4048
 292  503.1493
 293  639.4399
 294  665.6448
 295  544.0509
 296  558.0342
 297  546.2143
 298  537.5715
 299  550.6526
 300  519.2672
 301  569.0507
 302  647.2155
 303  600.3503
 304  512.6255
 305  559.371
 306  514.2244
 307  390.5914
 308  522.5728
 309  630.6127
 310  613.4998
 311  606.3975
 312  555.8539
 313  442.5696
 314  378.0313
 315  494.4453
 316  671.3832
 317  526.1625
 318  508.1687
 319  512.298
 320  474.2646
 321  443.3245
 322  438.3141
 323  491.6951
 324  563.8827
 325  584.9141
 326  643.6258
 327  650.0248
 328  630.577
 329  540.0197
 330  550.706
 331  732.3719
 332  761.9041
 333  687.228
 334  610.6277
 335  650.9849
 336  581.365
 337  562.771
 338  563.9377
 339  464.336
 340  578.7755
 341  637.6353
 342  597.5998
 343  554.6353
 344  546.5786
 345  680.1183
 346  639.6146
 347  698.9144
 348  729.7818
 349  584.1104
 350  592.7407
 351  509.8782
 352  577.0612
 353  625.113
 354  621.6088
 355  570.21
 356  539.0436
 357  559.3414
 358  501.4431
 359  638.9532
 360  677.7975
 361  663.1222
 362  619.2381
 363  642.7033
 364  637.8486
 365  629.5717
 366  784.9464
 367  757.8453
 368  657.8011
 369  573.788
 370  644.746
 371  650.0303
 372  515.5178
 373  582.793
 374  696.3463
 375  681.7985
 376  721.4651
 377  707.4158
 378  619.3809
 379  516.5845
 380  546.3629
 381  623.1432
 382  742.3488
 383  789.4499
 384  675.0928
 385  750.8917
 386  704.5093
 387  560.5522
 388  467.9867
 389  525.8827
 390  550.5823
 391  616.5917
 392  737.2618
 393  704.6866
 394  515.6536
 395  478.9594
 396  557.6801
 397  552.5808
 398  556.4606
 399  616.7449
 400  695.3967
 401  678.3077
 402  610.7255
 403  508.1449
 404  487.9562
 405  526.5667
 406  471.8831
 407  449.5489
 408  543.8677
 409  539.3716
 410  638.2448
 411  645.5472
 412  631.7281
 413  520.2259
 414  592.4716
 415  661.5346
 416  611.6641
 417  679.6072
 418  590.1534
 419  544.8407
 420  540.6391
 421  481.8512
 422  504.9834
 423  581.1883
 424  679.4193
 425  728.3346
 426  692.048
 427  606.3001
 428  624.0668
 429  719.5708
 430  795.076
 431  747.4722
 432  766.9856
 433  801.7755
 434  657.6252
 435  579.8263
 436  492.3354
 437  631.2295
 438  624.173
 439  614.756
 440  652.6538
 441  702.0599
 442  803.7352
 443  822.1406
 444  718.8337
 445  663.9573
 446  655.3017
 447  670.0978
 448  764.9645
 449  769.0668
 450  711.1228
 451  644.6682
 452  558.145
 453  581.9198
 454  578.9298
 455  672.1951
 456  818.7348
 457  711.8749
 458  691.1599
 459  798.6489
 460  779.0184
 461  663.2429
 462  677.352
 463  713.7468
 464  602.958
 465  587.6107
 466  681.6609
 467  686.8593
 468  713.4014
 469  679.2
 470  613.0224
 471  636.4716
 472  637.6652
 473  622.5885
 474  674.2332
 475  725.1608
 476  712.135
 477  735.2126
 478  646.785
 479  677.8946
 480  623.0168
 481  720.466
 482  808.4216
 483  622.2161
 484  644.4323
 485  631.5575
 486  543.0703
 487  530.064
 488  438.7302
 489  556.3363
 490  741.0378
 491  856.3888
 492  800.6045
 493  817.3016
 494  707.7244
 495  585.6801
 496  627.4211
 497  773.3201
 498  818.9972
 499  707.5676
 500  619.7962
 501  609.3077
 502  547.3885
 503  521.7316
 504  613.169
 505  715.9022
 506  780.4191
 507  873.287
 508  946.1
 509  1107.987
 510  1123.299
 511  1250.029
