# Input file       =  1209906091.119043_cleaned.dat
# Candidate        =  PSR_0332+5434
# Telescope        =  AR
# Epoch_topo       =  58247.542512951884
# Epoch_bary       =  N/A
# T_sample         =  0.002
# Data Folded      =  7340032
# Data Avg         =  0.0788968482410097
# Data StdDev      =  1.00013710296559 
# Profile Bins     =  512
# Profile Avg      =  1130.89475735146 
# Profile StdDev   =  119.749452131133 
# Reduced chi-sqr  =  1.471
# Prob(Noise)      <  1.93e-11   (~6.6 sigma)
# P_topo (ms)      =  714.539174955654  +/- 0.000356
# P'_topo (s/s)    =  -0                +/- 1.88e-10
# P''_topo (s/s^2) =  0                 +/- 8.3e-14
# P_bary (ms)      =  N/A
# P'_bary (s/s)    =  N/A
# P''_bary (s/s^2) =  N/A
# P_orb (s)        =  N/A
# asin(i)/c (s)    =  N/A
# eccentricity     =  N/A
# w (rad)          =  N/A
# T_peri           =  N/A
######################################################
   0  1718.217
   1  1606.01
   2  1429.27
   3  1181.224
   4  1066.429
   5  1091.117
   6  1130.351
   7  1193.345
   8  1223.97
   9  1180.027
  10  1078.856
  11  1093.428
  12  1150.143
  13  1064.838
  14  1079.728
  15  1107.446
  16  1068.494
  17  989.8734
  18  1069.926
  19  1114.04
  20  1089.339
  21  948.9668
  22  1058.526
  23  1088.763
  24  1040.4
  25  1044.301
  26  1149.251
  27  1248.074
  28  1252.013
  29  1197.469
  30  1091.876
  31  1103.778
  32  1054.841
  33  945.3604
  34  1057.435
  35  1049.401
  36  987.1631
  37  1127.265
  38  1082.946
  39  1119.947
  40  1129.657
  41  1131.567
  42  1083.28
  43  1090.956
  44  959.3752
  45  942.2982
  46  1084.238
  47  1099.258
  48  1153.052
  49  1105.228
  50  1169.915
  51  1121.165
  52  1054.702
  53  1155.619
  54  1050.332
  55  1065.619
  56  1092.617
  57  1050.347
  58  1116.062
  59  1167.213
  60  1179.366
  61  1028.977
  62  1092.272
  63  1101.144
  64  1185.773
  65  1131.595
  66  1026.884
  67  1022.68
  68  937.3821
  69  964.7366
  70  1021.563
  71  1008.165
  72  973.6949
  73  1042.037
  74  1051.356
  75  1150.728
  76  1093.086
  77  1042.861
  78  971.6343
  79  1006.863
  80  1158.164
  81  1167.189
  82  1204.954
  83  1147.401
  84  1015.79
  85  994.3375
  86  1007.499
  87  1017.378
  88  1122.635
  89  1116.907
  90  1141.676
  91  1075.651
  92  1036.38
  93  969.1055
  94  1075.656
  95  1174.447
  96  1104.727
  97  1053.095
  98  937.3261
  99  1022.371
 100  1000.42
 101  922.9531
 102  969.7975
 103  934.2753
 104  1119.521
 105  1040.169
 106  947.4233
 107  995.0829
 108  983.9344
 109  1075.639
 110  1136.047
 111  1103.244
 112  1129.694
 113  1147.201
 114  1021.988
 115  1061.462
 116  1115.6
 117  1138.581
 118  1120.687
 119  1147.918
 120  1118.428
 121  1158.827
 122  1190.236
 123  1061.739
 124  1091.339
 125  1141.811
 126  1163.613
 127  1235.136
 128  1213.202
 129  1206.756
 130  1278.47
 131  1160.676
 132  1128.076
 133  1100.018
 134  1114.353
 135  1103.6
 136  1122.064
 137  1105.468
 138  986.8514
 139  1089.679
 140  1022.236
 141  1008.321
 142  1016.512
 143  1006.994
 144  1003.483
 145  1078.074
 146  1131.25
 147  932.1709
 148  1031.223
 149  1034.631
 150  1047.016
 151  978.0666
 152  1130.893
 153  1149.731
 154  1139.187
 155  1097.881
 156  1165.471
 157  1123.695
 158  991.5394
 159  1088.318
 160  1180.858
 161  1149.9
 162  1007.531
 163  1023.411
 164  1059.079
 165  1116.308
 166  1127.31
 167  1032.545
 168  1077.719
 169  1135.473
 170  1190.583
 171  1178.391
 172  1239.289
 173  1192.81
 174  1045.775
 175  1022.341
 176  1066.619
 177  1261.937
 178  1272.683
 179  1156.863
 180  1116.092
 181  1153.458
 182  1188.927
 183  1164.084
 184  1176.612
 185  1087.512
 186  1210.284
 187  1141.943
 188  1190.266
 189  1142.482
 190  1282.209
 191  1351.802
 192  1234.87
 193  1225.787
 194  1174.814
 195  1166.672
 196  1155.124
 197  1262.222
 198  1304.743
 199  1209.173
 200  1163.149
 201  1132.192
 202  1209.454
 203  1149.754
 204  1228.764
 205  1247.202
 206  1167.895
 207  1303.566
 208  1241.899
 209  1239.572
 210  1334.618
 211  1326.707
 212  1306.821
 213  1272.214
 214  1321.702
 215  1364.483
 216  1392.995
 217  1350.601
 218  1209.051
 219  1139.84
 220  1201.669
 221  1251.133
 222  1280.772
 223  1262.406
 224  1226.194
 225  1157.063
 226  1232.341
 227  1236.407
 228  1142.819
 229  1116.554
 230  1253.838
 231  1270.891
 232  1257.751
 233  1206.923
 234  1157.424
 235  1137.397
 236  1294.405
 237  1283.487
 238  1357.035
 239  1181.096
 240  1208.337
 241  1255.047
 242  1162.004
 243  1186.904
 244  1201.146
 245  1127.742
 246  1175.86
 247  1192.29
 248  1093.705
 249  1093.771
 250  1124.854
 251  1180.964
 252  1137.337
 253  1249.189
 254  1279.875
 255  1174.002
 256  1145.672
 257  1167.217
 258  1247.353
 259  1287.71
 260  1212.035
 261  1175.687
 262  1178.834
 263  1181.604
 264  1260.74
 265  1368.72
 266  1298.324
 267  1142.836
 268  1007.499
 269  1155.732
 270  1315.908
 271  1253.342
 272  1205.193
 273  1306.405
 274  1251.139
 275  1338.92
 276  1250.228
 277  1086.782
 278  1043.414
 279  1099.26
 280  1224.731
 281  1207.48
 282  1214.558
 283  1228.688
 284  1252.368
 285  1171.065
 286  1229.109
 287  1206.257
 288  1162.262
 289  1131.679
 290  1180.035
 291  1138.167
 292  1220.483
 293  1257.644
 294  1342.087
 295  1318.491
 296  1224.822
 297  1306.572
 298  1413.504
 299  1425.819
 300  1281.742
 301  1234.753
 302  1254.614
 303  1133.953
 304  1225.179
 305  1368.704
 306  1249.404
 307  1173.165
 308  1130.208
 309  1213.711
 310  1278.928
 311  1191.675
 312  1161.65
 313  1183.306
 314  1261.141
 315  1168.31
 316  1165.994
 317  1150.466
 318  1171.168
 319  1196.728
 320  1195.417
 321  1218.096
 322  1203.24
 323  1189.799
 324  1136.918
 325  1053.794
 326  1121.348
 327  1207.478
 328  1190.651
 329  1113.303
 330  1124.192
 331  1206.129
 332  1265.216
 333  1075.03
 334  1070.117
 335  1109.383
 336  1187.275
 337  1170.433
 338  1224.863
 339  1242.493
 340  1114.688
 341  1144.371
 342  1242.781
 343  1128.176
 344  1060.156
 345  1063.175
 346  1151.399
 347  1143.939
 348  1125.583
 349  1142.494
 350  1083.964
 351  1109.058
 352  1049.271
 353  1063.455
 354  1100.915
 355  1105.761
 356  1161.938
 357  1065.246
 358  992.2371
 359  1105.722
 360  1093.567
 361  1168.637
 362  1087.599
 363  1070.992
 364  1182.68
 365  1047.403
 366  1026.102
 367  1101.677
 368  1065.748
 369  1064.433
 370  1099.607
 371  1188.318
 372  1102.947
 373  1131.128
 374  1144.358
 375  1144.884
 376  1089.919
 377  1107.907
 378  1171.062
 379  1203.498
 380  1173.848
 381  1110.672
 382  1066.525
 383  1128.177
 384  1208.729
 385  1086.314
 386  1085.356
 387  1072.094
 388  1148.164
 389  1108.061
 390  1117.816
 391  1066.218
 392  1082.507
 393  1138.475
 394  1072.885
 395  1151.288
 396  1202.187
 397  1199.81
 398  1122.899
 399  1001.61
 400  977.5243
 401  911.6262
 402  1075.061
 403  1032.848
 404  1044.074
 405  974.0321
 406  962.1907
 407  1063.067
 408  1025.094
 409  1037.088
 410  991.1295
 411  1022.795
 412  1032.435
 413  1035.854
 414  949.4186
 415  913.0358
 416  1028.279
 417  1097.848
 418  1094.781
 419  1102.698
 420  1107.82
 421  1060.388
 422  1027.274
 423  1111.268
 424  1117.737
 425  1028.155
 426  1042.179
 427  1106.975
 428  974.3748
 429  958.9396
 430  1119.214
 431  1065.682
 432  1038.44
 433  1052.869
 434  1032.972
 435  1035.279
 436  1104.999
 437  1116.749
 438  1105.808
 439  1090.317
 440  1068.023
 441  1070.613
 442  1105.491
 443  1035.361
 444  1064.165
 445  1183.14
 446  1193.31
 447  1210.618
 448  1052.934
 449  954.7265
 450  1034.448
 451  1075.46
 452  1120.277
 453  1078.67
 454  1127.375
 455  1169.568
 456  1113.411
 457  1128.275
 458  1119.972
 459  1238.044
 460  1149.273
 461  1100.045
 462  1108.06
 463  1086.951
 464  1201.823
 465  1192.802
 466  1066.154
 467  1065.332
 468  1079.441
 469  1055.709
 470  1064.56
 471  1030.665
 472  1009.106
 473  1002.152
 474  1087.134
 475  1031.695
 476  1036.049
 477  1115.046
 478  987.4806
 479  878.86
 480  1017.644
 481  1150.204
 482  1139.055
 483  1102.988
 484  1101.494
 485  1057.898
 486  980.0645
 487  1053.964
 488  1058.608
 489  1139.372
 490  1182.292
 491  1059.424
 492  1085.255
 493  1075.32
 494  1114.773
 495  1120.905
 496  1082.87
 497  1039.587
 498  908.1438
 499  937.2133
 500  1104.069
 501  1052.57
 502  1029.867
 503  1072.089
 504  1101.812
 505  1138.89
 506  1056.953
 507  1079.344
 508  1224.553
 509  1344.618
 510  1562.165
 511  1796.67
