# Input file       =  1210423124.123347_cleaned.dat
# Candidate        =  PSR_0332+5434
# Telescope        =  AR
# Epoch_topo       =  58253.526691242441
# Epoch_bary       =  N/A
# T_sample         =  0.002
# Data Folded      =  7340032
# Data Avg         =  0.0388368641033018
# Data StdDev      =  1.00006183493652 
# Profile Bins     =  512
# Profile Avg      =  556.968407594138 
# Profile StdDev   =  119.740440061469 
# Reduced chi-sqr  =  1.321
# Prob(Noise)      <  1.35e-06   (~4.7 sigma)
# P_topo (ms)      =  714.533411944414  +/- 0.000272
# P'_topo (s/s)    =  -0                +/- 1.43e-10
# P''_topo (s/s^2) =  0                 +/- 6.33e-14
# P_bary (ms)      =  N/A
# P'_bary (s/s)    =  N/A
# P''_bary (s/s^2) =  N/A
# P_orb (s)        =  N/A
# asin(i)/c (s)    =  N/A
# eccentricity     =  N/A
# w (rad)          =  N/A
# T_peri           =  N/A
######################################################
   0  1249.381
   1  1312.458
   2  1268.608
   3  921.4841
   4  629.2163
   5  584.0513
   6  545.7221
   7  533.1807
   8  534.4339
   9  521.9193
  10  553.7532
  11  565.6702
  12  486.905
  13  493.9517
  14  575.5031
  15  610.1626
  16  599.9412
  17  609.2479
  18  545.2589
  19  519.0936
  20  499.2307
  21  462.4068
  22  528.0439
  23  651.4123
  24  576.2138
  25  666.3534
  26  510.6754
  27  580.4311
  28  557.1235
  29  553.0609
  30  642.7449
  31  620.224
  32  631.8754
  33  675.9329
  34  518.6619
  35  491.6852
  36  465.9975
  37  453.7309
  38  502.586
  39  591.704
  40  625.312
  41  551.8308
  42  616.9138
  43  579.1843
  44  484.9376
  45  547.519
  46  568.684
  47  562.4519
  48  462.4226
  49  446.8353
  50  470.458
  51  393.0685
  52  505.89
  53  514.5529
  54  493.6228
  55  487.024
  56  540.2486
  57  580.8108
  58  651.9966
  59  586.4239
  60  656.7288
  61  673.4498
  62  644.7688
  63  636.7128
  64  588.7694
  65  521.3636
  66  511.6755
  67  571.5583
  68  656.8427
  69  681.8679
  70  607.4337
  71  593.9112
  72  635.8827
  73  675.7144
  74  551.5152
  75  536.7411
  76  489.1077
  77  467.7055
  78  497.4694
  79  486.0434
  80  419.7303
  81  525.3843
  82  542.3594
  83  510.4115
  84  509.3676
  85  600.6678
  86  488.4881
  87  538.3731
  88  572.175
  89  510.8369
  90  590.3657
  91  636.0941
  92  565.0464
  93  528.1884
  94  455.3631
  95  414.6504
  96  510.5969
  97  577.5526
  98  612.2399
  99  462.6451
 100  447.5685
 101  523.5742
 102  577.4967
 103  586.9621
 104  403.2773
 105  443.7929
 106  586.6892
 107  449.4482
 108  541.191
 109  505.376
 110  509.4639
 111  529.7228
 112  486.6906
 113  556.6895
 114  558.9988
 115  475.1098
 116  577.0364
 117  614.6593
 118  473.4596
 119  516.1503
 120  549.3608
 121  507.6837
 122  579.4385
 123  549.7411
 124  571.6028
 125  504.8229
 126  468.5759
 127  529.1976
 128  538.1187
 129  546.123
 130  634.538
 131  727.7281
 132  585.9268
 133  596.4877
 134  695.3278
 135  634.7621
 136  557.896
 137  456.957
 138  530.8752
 139  604.5479
 140  522.806
 141  613.5477
 142  559.0817
 143  653.6326
 144  491.3178
 145  361.7907
 146  573.2622
 147  582.6645
 148  624.4844
 149  631.7965
 150  639.1809
 151  671.15
 152  666.0596
 153  613.1137
 154  547.4224
 155  542.7933
 156  520.8061
 157  607.8358
 158  555.4807
 159  593.9744
 160  602.7075
 161  588.9534
 162  450.8022
 163  389.1556
 164  449.6172
 165  568.7322
 166  603.3168
 167  580.5651
 168  543.5902
 169  524.516
 170  535.6072
 171  525.3212
 172  484.7256
 173  476.4994
 174  457.1011
 175  414.3021
 176  396.4239
 177  542.1931
 178  617.4496
 179  461.9352
 180  546.7665
 181  554.4105
 182  555.3167
 183  615.7496
 184  669.5969
 185  611.1213
 186  630.3651
 187  692.1322
 188  622.7467
 189  449.287
 190  500.6341
 191  672.8218
 192  640.0535
 193  669.0314
 194  610.2918
 195  582.7338
 196  520.452
 197  614.5966
 198  579.7962
 199  697.6186
 200  756.0175
 201  709.3026
 202  663.2538
 203  576.8572
 204  489.9992
 205  485.1477
 206  565.7901
 207  567.0913
 208  471.6938
 209  456.1069
 210  547.4318
 211  556.8878
 212  608.639
 213  580.6087
 214  633.897
 215  602.4549
 216  528.9087
 217  631.1986
 218  602.5941
 219  522.0994
 220  514.7998
 221  530.6
 222  494.8464
 223  581.8332
 224  618.1687
 225  654.4142
 226  656.7639
 227  588.2593
 228  444.5222
 229  516.873
 230  497.2689
 231  497.5055
 232  504.7751
 233  644.3592
 234  599.0124
 235  475.7277
 236  502.124
 237  538.8189
 238  566.8678
 239  655.1614
 240  625.4266
 241  562.3923
 242  527.4329
 243  491.6097
 244  489.6812
 245  552.4044
 246  628.9194
 247  618.9588
 248  623.8463
 249  568.0938
 250  546.039
 251  578.9361
 252  488.0589
 253  474.1868
 254  569.7283
 255  577.8461
 256  553.4595
 257  495.1536
 258  471.5241
 259  477.9854
 260  443.0563
 261  472.5695
 262  513.0663
 263  476.0898
 264  514.9122
 265  446.008
 266  507.6281
 267  554.52
 268  478.2126
 269  464.1045
 270  447.4634
 271  451.7202
 272  526.3018
 273  598.1499
 274  533.6428
 275  591.5141
 276  683.1219
 277  638.0971
 278  572.0326
 279  535.8479
 280  534.8134
 281  662.1537
 282  668.162
 283  547.5217
 284  523.1368
 285  566.9139
 286  610.898
 287  514.3667
 288  567.8982
 289  515.6418
 290  482.7202
 291  396.2135
 292  507.9601
 293  575.0977
 294  484.3611
 295  420.7957
 296  529.1939
 297  606.0129
 298  578.4576
 299  527.8044
 300  463.5112
 301  520.3613
 302  544.9097
 303  588.3671
 304  543.6984
 305  462.4909
 306  429.8997
 307  477.5926
 308  655.0421
 309  689.1464
 310  583.7531
 311  626.0401
 312  630.4857
 313  671.0417
 314  649.5115
 315  602.2397
 316  495.3233
 317  496.5292
 318  552.3556
 319  556.5749
 320  437.5526
 321  545.2387
 322  513.1298
 323  459.5316
 324  549.0146
 325  491.1817
 326  378.3869
 327  474.4878
 328  418.4883
 329  511.3899
 330  546.205
 331  547.2629
 332  544.4174
 333  568.0717
 334  752.1458
 335  592.1465
 336  557.4388
 337  538.1183
 338  416.6107
 339  426.0916
 340  506.5585
 341  499.7993
 342  437.3573
 343  395.9944
 344  413.8431
 345  638.3156
 346  555.0667
 347  471.4709
 348  588.2658
 349  507.1097
 350  494.8053
 351  543.1999
 352  492.8487
 353  442.1869
 354  477.3571
 355  622.3075
 356  530.433
 357  503.5611
 358  546.2402
 359  504.965
 360  540.25
 361  611.7239
 362  619.2357
 363  590.5809
 364  497.0182
 365  444.2548
 366  492.0155
 367  523.1017
 368  442.1522
 369  567.9985
 370  593.7659
 371  636.8269
 372  598.3909
 373  454.3411
 374  542.8533
 375  621.0912
 376  551.8238
 377  445.6836
 378  444.1445
 379  425.2555
 380  492.8182
 381  511.9742
 382  572.3784
 383  571.8471
 384  550.5496
 385  475.8602
 386  604.2681
 387  494.279
 388  512.0073
 389  568.8062
 390  574.5077
 391  477.2975
 392  425.0058
 393  546.344
 394  579.8966
 395  426.7422
 396  506.0966
 397  404.2956
 398  415.4497
 399  506.4345
 400  629.0816
 401  579.8248
 402  572.7664
 403  600.227
 404  551.6891
 405  563.9641
 406  539.4462
 407  564.3858
 408  583.2458
 409  626.3035
 410  641.3865
 411  592.0626
 412  410.7263
 413  336.9718
 414  422.5493
 415  539.8976
 416  592.2545
 417  521.7939
 418  570.0546
 419  523.0054
 420  423.3106
 421  475.0721
 422  559.4882
 423  487.0156
 424  500.0909
 425  518.2891
 426  528.5596
 427  537.2036
 428  608.4795
 429  532.6113
 430  533.064
 431  556.7532
 432  604.8911
 433  597.513
 434  560.3983
 435  531.2703
 436  563.8282
 437  604.4075
 438  596.8633
 439  563.0206
 440  561.0779
 441  561.0721
 442  590.0543
 443  586.0811
 444  572.4435
 445  552.0461
 446  552.8376
 447  586.9796
 448  580.7847
 449  553.9962
 450  465.2586
 451  521.2322
 452  622.0135
 453  679.0956
 454  537.0114
 455  550.7674
 456  661.9929
 457  702.1008
 458  584.0041
 459  641.5322
 460  645.7659
 461  557.332
 462  578.6376
 463  613.1837
 464  594.213
 465  585.9393
 466  559.9056
 467  509.5661
 468  440.3458
 469  429.9049
 470  496.8972
 471  494.1969
 472  446.9926
 473  457.5702
 474  408.7215
 475  452.1202
 476  478.8287
 477  563.5516
 478  492.3329
 479  656.9016
 480  461.1461
 481  618.9918
 482  724.6136
 483  577.7975
 484  495.5057
 485  588.2668
 486  622.1367
 487  445.1549
 488  443.6801
 489  483.7913
 490  555.0734
 491  520.3276
 492  583.6058
 493  678.6765
 494  666.8431
 495  603.4183
 496  591.8234
 497  556.554
 498  711.546
 499  658.4257
 500  648.6577
 501  585.3015
 502  543.8055
 503  627.2299
 504  581.8348
 505  603.8716
 506  732.2468
 507  733.5557
 508  766.8382
 509  851.2313
 510  1034.296
 511  1216.809
