# Input file       =  1210393607.115757_cleaned.dat
# Candidate        =  PSR_0332+5434
# Telescope        =  AR
# Epoch_topo       =  58253.185059210147
# Epoch_bary       =  N/A
# T_sample         =  0.002
# Data Folded      =  7143424
# Data Avg         =  0.0463877807222968
# Data StdDev      =  1.00007124463274 
# Profile Bins     =  512
# Profile Avg      =  647.190866366011 
# Profile StdDev   =  118.126999797039 
# Reduced chi-sqr  =  1.554
# Prob(Noise)      <  1.21e-14   (~7.6 sigma)
# P_topo (ms)      =  714.533397048745  +/- 0.000299
# P'_topo (s/s)    =  -0                +/- 1.62e-10
# P''_topo (s/s^2) =  0                 +/- 7.36e-14
# P_bary (ms)      =  N/A
# P'_bary (s/s)    =  N/A
# P''_bary (s/s^2) =  N/A
# P_orb (s)        =  N/A
# asin(i)/c (s)    =  N/A
# eccentricity     =  N/A
# w (rad)          =  N/A
# T_peri           =  N/A
######################################################
   0  1417.09
   1  1434.866
   2  1151.023
   3  919.8147
   4  809.3777
   5  740.0732
   6  680.1153
   7  693.4265
   8  678.1666
   9  627.7195
  10  691.5775
  11  643.7695
  12  693.5439
  13  776.5861
  14  600.9916
  15  579.7841
  16  587.0143
  17  701.6518
  18  628.785
  19  647.6566
  20  562.6177
  21  635.1107
  22  686.1948
  23  776.3178
  24  629.9807
  25  566.0623
  26  578.9572
  27  604.1132
  28  557.6863
  29  706.3304
  30  761.4218
  31  730.8925
  32  657.2393
  33  578.4622
  34  670.5945
  35  646.4856
  36  661.3512
  37  576.0333
  38  656.9283
  39  734.4598
  40  616.1926
  41  608.3032
  42  673.8615
  43  659.8016
  44  727.9344
  45  730.726
  46  567.2352
  47  553.916
  48  575.7405
  49  535.4166
  50  572.4963
  51  655.5941
  52  719.132
  53  686.5507
  54  562.613
  55  622.6347
  56  620.2247
  57  669.908
  58  600.316
  59  606.1892
  60  613.6818
  61  679.938
  62  651.7703
  63  645.9764
  64  688.7852
  65  659.3525
  66  685.0986
  67  692.1265
  68  771.7809
  69  693.2072
  70  604.1353
  71  706.1644
  72  607.4862
  73  535.2239
  74  609.1849
  75  676.6952
  76  600.6041
  77  679.5137
  78  666.8176
  79  584.6824
  80  585.5129
  81  619.4364
  82  667.7191
  83  772.5196
  84  759.635
  85  612.3268
  86  632.9645
  87  692.3807
  88  770.9814
  89  548.6313
  90  454.7505
  91  592.7778
  92  699.0773
  93  660.8122
  94  621.2804
  95  660.8068
  96  642.3427
  97  514.3502
  98  658.895
  99  657.1975
 100  621.9652
 101  715.575
 102  746.4023
 103  633.6581
 104  655.6962
 105  705.9844
 106  708.2174
 107  677.4621
 108  735.0744
 109  678.2833
 110  706.447
 111  739.6247
 112  679.8149
 113  719.0695
 114  751.8416
 115  696.1961
 116  623.0598
 117  669.157
 118  681.3475
 119  794.0717
 120  752.5314
 121  670.7751
 122  585.2032
 123  554.9531
 124  553.4974
 125  547.8262
 126  519.6058
 127  533.5733
 128  653.2368
 129  649.512
 130  632.7112
 131  788.4483
 132  739.7888
 133  714.7867
 134  650.7411
 135  561.5441
 136  683.2491
 137  646.2809
 138  674.0493
 139  678.2468
 140  690.0367
 141  631.7518
 142  552.0277
 143  601.0232
 144  618.6312
 145  513.7217
 146  690.2659
 147  737.0831
 148  715.0373
 149  723.6976
 150  637.2086
 151  753.0917
 152  692.9267
 153  597.3951
 154  577.7102
 155  615.9225
 156  602.1257
 157  540.4172
 158  623.7306
 159  605.6807
 160  655.5947
 161  601.9205
 162  612.7803
 163  626.7265
 164  735.4054
 165  746.2639
 166  705.6671
 167  748.3268
 168  538.8676
 169  520.8772
 170  636.7807
 171  627.0667
 172  595.3828
 173  481.3088
 174  583.4393
 175  592.0162
 176  721.2214
 177  664.0507
 178  592.3241
 179  498.7033
 180  630.2792
 181  682.0995
 182  601.8441
 183  730.1081
 184  699.4668
 185  611.4999
 186  529.4246
 187  499.6369
 188  450.0838
 189  614.6303
 190  649.8059
 191  610.4661
 192  622.1519
 193  654.3582
 194  762.3039
 195  731.7096
 196  683.1168
 197  693.063
 198  651.7909
 199  642.1039
 200  664.0493
 201  713.7726
 202  767.1938
 203  617.8094
 204  664.1387
 205  712.7678
 206  714.5504
 207  739.9128
 208  732.3394
 209  584.2455
 210  539.9763
 211  596.6761
 212  629.1921
 213  700.4185
 214  725.7703
 215  648.3624
 216  556.7635
 217  598.8878
 218  649.418
 219  693.378
 220  612.1351
 221  632.2993
 222  629.4323
 223  623.1542
 224  582.3454
 225  563.8859
 226  586.5658
 227  617.6831
 228  513.2217
 229  556.421
 230  608.8499
 231  690.9817
 232  751.2884
 233  654.522
 234  597.774
 235  494.4744
 236  547.8324
 237  595.1423
 238  580.1569
 239  627.4037
 240  612.9286
 241  571.6392
 242  506.6564
 243  579.1934
 244  614.5669
 245  644.7618
 246  590.5963
 247  600.1522
 248  661.3695
 249  547.7922
 250  590.0602
 251  647.9684
 252  670.433
 253  658.1155
 254  679.2476
 255  646.1002
 256  538.7761
 257  590.3963
 258  638.5388
 259  682.0989
 260  673.7146
 261  589.5097
 262  595.372
 263  618.5422
 264  590.1813
 265  584.9581
 266  616.6224
 267  633.1257
 268  674.1343
 269  667.1872
 270  416.7328
 271  473.3419
 272  527.7425
 273  533.4847
 274  523.4602
 275  584.8942
 276  592.8879
 277  560.8563
 278  670.2592
 279  581.1883
 280  513.092
 281  614.782
 282  627.0836
 283  556.504
 284  676.1508
 285  662.1796
 286  603.3623
 287  646.2236
 288  557.3909
 289  694.1003
 290  622.7933
 291  547.3762
 292  590.7274
 293  563.1301
 294  546.6107
 295  662.2961
 296  695.5952
 297  623.2178
 298  620.1463
 299  584.2739
 300  525.1445
 301  470.0217
 302  583.347
 303  647.0681
 304  684.2054
 305  584.1667
 306  629.7392
 307  603.3652
 308  552.0665
 309  476.2455
 310  589.8059
 311  495.7177
 312  462.9641
 313  442.402
 314  560.288
 315  540.5928
 316  562.0576
 317  565.6912
 318  561.8876
 319  654.106
 320  637.1061
 321  609.2745
 322  637.9918
 323  583.6797
 324  692.9257
 325  652.8054
 326  625.2316
 327  568.525
 328  539.7913
 329  624.8466
 330  754.0291
 331  753.506
 332  595.2841
 333  624.6321
 334  619.2671
 335  492.0211
 336  488.954
 337  614.4008
 338  633.8699
 339  546.3849
 340  665.8732
 341  587.2409
 342  546.9187
 343  491.3217
 344  621.006
 345  678.0436
 346  540.0789
 347  484.3704
 348  585.0884
 349  726.4966
 350  741.2578
 351  685.4953
 352  688.6932
 353  597.9128
 354  574.1086
 355  746.7545
 356  774.4036
 357  775.0599
 358  701.5373
 359  574.2
 360  664.4058
 361  718.4237
 362  617.5879
 363  567.5606
 364  688.8276
 365  713.7413
 366  756.2692
 367  756.655
 368  715.2414
 369  657.8554
 370  629.0333
 371  725.4321
 372  708.5689
 373  611.0137
 374  617.3176
 375  671.367
 376  659.9767
 377  719.6446
 378  812.0693
 379  775.0074
 380  746.5748
 381  650.3723
 382  706.3054
 383  628.8065
 384  670.2933
 385  620.7099
 386  596.8334
 387  621.7562
 388  724.1513
 389  560.8275
 390  654.6081
 391  714.335
 392  702.9676
 393  757.058
 394  595.899
 395  674.0574
 396  763.9166
 397  686.7201
 398  581.739
 399  563.1157
 400  602.4463
 401  665.1333
 402  714.5279
 403  770.7811
 404  752.7524
 405  741.3569
 406  692.0991
 407  703.9167
 408  630.4108
 409  628.197
 410  617.9739
 411  713.2026
 412  728.9886
 413  632.5529
 414  731.4124
 415  768.8958
 416  709.5697
 417  697.1034
 418  716.3658
 419  766.522
 420  828.451
 421  648.6091
 422  600.2396
 423  721.9169
 424  685.8047
 425  816.4056
 426  755.5537
 427  676.6422
 428  563.8517
 429  578.6959
 430  589.7599
 431  597.6979
 432  746.2866
 433  783.0537
 434  722.5223
 435  752.8492
 436  721.9973
 437  542.7867
 438  585.2915
 439  760.4565
 440  679.6758
 441  683.4754
 442  656.9016
 443  565.0234
 444  659.9054
 445  679.4121
 446  703.0639
 447  761.5725
 448  712.5834
 449  724.3419
 450  701.8868
 451  575.1463
 452  588.5047
 453  585.7957
 454  733.9326
 455  633.4597
 456  511.2059
 457  639.202
 458  670.1126
 459  711.2971
 460  717.5104
 461  737.274
 462  624.5064
 463  614.7705
 464  609.8008
 465  551.3203
 466  527.2585
 467  587.5927
 468  610.8905
 469  504.522
 470  537.8522
 471  563.7326
 472  553.658
 473  522.3986
 474  572.9233
 475  549.9409
 476  639.5115
 477  504.8754
 478  558.394
 479  618.6552
 480  562.6462
 481  622.2484
 482  630.1198
 483  675.6531
 484  495.9202
 485  388.7552
 486  584.8063
 487  573.7791
 488  612.4282
 489  499.4561
 490  518.0955
 491  489.1534
 492  636.7307
 493  633.9823
 494  575.7796
 495  653.3667
 496  681.7456
 497  648.1578
 498  657.7844
 499  638.9584
 500  610.9848
 501  623.4987
 502  782.1356
 503  683.9843
 504  658.1727
 505  640.1022
 506  703.3139
 507  829.7322
 508  1019.496
 509  1237.54
 510  1268.053
 511  1392.701
