# Input file       =  1210063501.123266_cleaned.dat
# Candidate        =  PSR_0332+5434
# Telescope        =  AR
# Epoch_topo       =  58249.364388000766
# Epoch_bary       =  N/A
# T_sample         =  0.002
# Data Folded      =  7340032
# Data Avg         =  0.071519817789976
# Data StdDev      =  0.999983619174005
# Profile Bins     =  512
# Profile Avg      =  1025.07483705659 
# Profile StdDev   =  119.731075050731 
# Reduced chi-sqr  =  2.004
# Prob(Noise)      <  1.38e-36   (~12.6 sigma)
# P_topo (ms)      =  714.537103657436  +/- 0.000504
# P'_topo (s/s)    =  -0                +/- 2.66e-10
# P''_topo (s/s^2) =  0                 +/- 1.17e-13
# P_bary (ms)      =  N/A
# P'_bary (s/s)    =  N/A
# P''_bary (s/s^2) =  N/A
# P_orb (s)        =  N/A
# asin(i)/c (s)    =  N/A
# eccentricity     =  N/A
# w (rad)          =  N/A
# T_peri           =  N/A
######################################################
   0  1827.679
   1  1735.986
   2  1634.347
   3  1376.531
   4  1173.426
   5  1119.204
   6  1057.763
   7  1111.64
   8  1140.087
   9  1006.739
  10  1073.373
  11  1059.852
  12  1059.228
  13  1208.957
  14  1191.979
  15  1192.331
  16  1138.19
  17  1113.413
  18  1056.364
  19  1033.955
  20  1152.951
  21  1181.641
  22  1124.555
  23  1089.715
  24  1142.725
  25  1132.337
  26  1074.251
  27  1089.848
  28  1083.191
  29  1157.252
  30  1099.547
  31  1091.093
  32  981.9763
  33  986.2355
  34  1012.399
  35  1019.835
  36  1019.39
  37  1072.122
  38  1046.086
  39  1076.339
  40  1068.99
  41  1051.82
  42  1022.371
  43  1023.18
  44  1002.006
  45  1027.593
  46  1094.989
  47  1112.793
  48  1029.475
  49  1035.577
  50  1103.541
  51  1004.58
  52  1000.949
  53  1063.418
  54  1074.342
  55  1043.659
  56  941.1819
  57  863.4699
  58  915.2889
  59  1052.101
  60  955.0078
  61  922.6251
  62  1052.863
  63  1012.075
  64  1004.02
  65  1019.08
  66  1082.516
  67  1029.789
  68  1055.732
  69  1021.389
  70  1090.595
  71  1000.022
  72  1000.997
  73  1016.708
  74  1093.631
  75  1154.218
  76  1051.929
  77  1027.607
  78  993.782
  79  1031.154
  80  1037.651
  81  943.2162
  82  876.6205
  83  986.9769
  84  1039.04
  85  1030.54
  86  1009.648
  87  965.2458
  88  918.0685
  89  803.8679
  90  903.2656
  91  962.5556
  92  969.6402
  93  914.6444
  94  952.956
  95  977.7269
  96  984.0096
  97  1002.714
  98  912.5305
  99  990.8956
 100  1020.125
 101  928.6496
 102  823.15
 103  933.601
 104  977.7534
 105  960.6489
 106  991.0344
 107  968.7191
 108  985.1912
 109  982.0688
 110  933.8216
 111  964.4463
 112  866.9556
 113  858.2266
 114  841.875
 115  824.3785
 116  851.652
 117  786.6938
 118  822.8591
 119  866.4235
 120  948.8236
 121  925.1048
 122  976.2379
 123  848.812
 124  882.079
 125  938.1615
 126  891.722
 127  871.1058
 128  1005.05
 129  929.3116
 130  870.828
 131  817.699
 132  875.0065
 133  935.331
 134  937.6287
 135  776.5596
 136  929.1118
 137  1026.057
 138  1066.711
 139  957.3446
 140  1004.858
 141  973.2401
 142  904.1851
 143  794.0679
 144  784.5065
 145  749.9703
 146  888.253
 147  988.9181
 148  933.4092
 149  967.2282
 150  968.09
 151  987.7256
 152  1046.913
 153  1078.039
 154  925.7557
 155  896.7441
 156  936.8208
 157  1006.618
 158  1044.05
 159  1026.844
 160  1031.421
 161  962.1361
 162  871.8636
 163  876.6335
 164  958.5818
 165  943.1954
 166  993.89
 167  869.8953
 168  874.0397
 169  894.1711
 170  910.958
 171  845.6643
 172  845.8447
 173  837.2457
 174  825.2709
 175  832.7281
 176  819.3203
 177  863.5438
 178  904.7827
 179  846.1685
 180  845.749
 181  766.6107
 182  789.4146
 183  848.1499
 184  854.7048
 185  771.4789
 186  800.2153
 187  805.5922
 188  822.9956
 189  899.7303
 190  914.0735
 191  877.269
 192  906.1674
 193  884.2121
 194  904.4411
 195  912.5093
 196  926.9197
 197  995.1086
 198  1020.659
 199  962.8252
 200  951.4983
 201  983.711
 202  1051.556
 203  975.6503
 204  966.4343
 205  980.02
 206  904.6132
 207  854.2499
 208  870.0591
 209  872.808
 210  895.8796
 211  915.7593
 212  967.9241
 213  927.3166
 214  876.5725
 215  894.3399
 216  928.0316
 217  945.1505
 218  882.4915
 219  856.6367
 220  922.3229
 221  916.5041
 222  887.9051
 223  906.6517
 224  951.6783
 225  902.2203
 226  940.5105
 227  929.9756
 228  931.2704
 229  928.5942
 230  963.7485
 231  970.2089
 232  973.806
 233  1126.286
 234  1080.463
 235  1032.183
 236  1049.434
 237  999.5477
 238  1074.597
 239  1014.871
 240  1106.937
 241  1091.97
 242  965.262
 243  1096.606
 244  1009.126
 245  1001.092
 246  957.3556
 247  939.7327
 248  1009.221
 249  987.6797
 250  1036.284
 251  911.1562
 252  864.6564
 253  936.155
 254  957.361
 255  878.8895
 256  891.1744
 257  926.0823
 258  891.4033
 259  952.1779
 260  1025.008
 261  936.3919
 262  962.1625
 263  996.1379
 264  923.7355
 265  945.4645
 266  972.3705
 267  1040.823
 268  1051.221
 269  1044.54
 270  1008.754
 271  980.4049
 272  973.1865
 273  1067.692
 274  1044.425
 275  1061.199
 276  1027.571
 277  1111.755
 278  1100.958
 279  1038.277
 280  1063.663
 281  1032.585
 282  1066.747
 283  1053.422
 284  1045.189
 285  1012.904
 286  1010.441
 287  994.7725
 288  987.8525
 289  1003.841
 290  1017.21
 291  986.7523
 292  1062.383
 293  942.548
 294  954.7491
 295  976.2649
 296  986.9169
 297  955.8855
 298  1005.409
 299  994.4012
 300  873.4009
 301  930.27
 302  920.9323
 303  883.8409
 304  986.4975
 305  948.2634
 306  912.938
 307  1039.292
 308  1086.73
 309  1059.364
 310  1049.531
 311  1098.569
 312  1089.874
 313  1108.517
 314  1099.746
 315  1138.23
 316  1078.027
 317  1039.446
 318  1023.271
 319  1082.922
 320  1124.085
 321  1096.453
 322  1158.817
 323  1127.276
 324  1099.047
 325  1082.486
 326  947.7021
 327  1057.448
 328  986.8516
 329  944.0698
 330  904.976
 331  1006.163
 332  992.932
 333  1017.962
 334  1027.349
 335  986.5106
 336  927.7613
 337  939.0959
 338  952.1414
 339  962.6823
 340  1000.804
 341  1002.724
 342  1028.036
 343  1052.613
 344  997.9896
 345  1014.535
 346  915.4716
 347  864.2192
 348  886.4838
 349  907.186
 350  940.3936
 351  958.1378
 352  961.7068
 353  985.637
 354  963.498
 355  929.0315
 356  1005.028
 357  982.6584
 358  946.0071
 359  956.266
 360  1022.592
 361  1095.093
 362  1046.162
 363  1070.447
 364  1156.797
 365  1212.896
 366  1098.875
 367  1084.218
 368  1096.136
 369  1075.25
 370  1087.175
 371  1118.469
 372  1074.822
 373  1056.843
 374  1148.763
 375  1182.958
 376  1076.861
 377  1017.347
 378  966.3994
 379  1018.823
 380  1114.486
 381  1085.368
 382  1085.114
 383  1099.906
 384  1103.644
 385  1050.905
 386  920.4839
 387  1025.213
 388  1100.8
 389  1089.543
 390  1114.394
 391  1084.974
 392  1109.488
 393  1196.001
 394  1148.564
 395  1127.568
 396  1119.389
 397  1089.363
 398  1132.375
 399  1094.341
 400  1119.628
 401  1189.409
 402  1128.712
 403  1142.986
 404  1133.59
 405  1115.517
 406  1120.15
 407  1097.323
 408  1139.462
 409  1190.463
 410  1118.014
 411  1149.389
 412  1108.792
 413  1157.37
 414  1202.547
 415  1190.829
 416  1150.663
 417  1117.1
 418  1058.128
 419  1169.806
 420  1127.595
 421  1074.652
 422  1094.41
 423  1062.88
 424  1075.884
 425  1023.918
 426  1089.199
 427  1029.324
 428  1005.583
 429  999.2217
 430  1101.221
 431  1134.522
 432  1093.123
 433  1125.254
 434  1128.204
 435  1109.669
 436  1051.152
 437  1028.611
 438  1094.787
 439  1111.299
 440  1081.854
 441  1185.689
 442  1193.959
 443  1161.294
 444  1145.207
 445  1152.512
 446  1221.616
 447  1093.494
 448  1087.485
 449  1160.13
 450  1198.784
 451  1195.593
 452  1211.564
 453  1193.302
 454  1152.441
 455  1228.991
 456  1233.386
 457  1205.803
 458  1203.486
 459  1221.826
 460  1223.998
 461  1231.864
 462  1182.854
 463  1170.406
 464  1198.732
 465  1131.845
 466  1035.247
 467  1070.836
 468  1087.724
 469  1092.623
 470  1082.094
 471  1018.344
 472  1029.136
 473  990.3821
 474  1051.761
 475  1084.566
 476  986.3607
 477  976.2921
 478  976.5261
 479  919.8948
 480  967.9545
 481  1053.909
 482  984.4644
 483  962.8694
 484  913.9127
 485  1044.167
 486  1120.931
 487  1027.593
 488  1068.465
 489  1020.69
 490  1129.379
 491  1136.138
 492  1171.184
 493  1172.7
 494  1127.638
 495  1137.271
 496  1152.676
 497  1143.829
 498  1132.176
 499  1116.812
 500  1167.77
 501  1125.908
 502  1151.833
 503  1135.557
 504  1138.032
 505  1147.47
 506  1173.049
 507  1235.611
 508  1242.359
 509  1333.562
 510  1558.166
 511  1752.603
