# Input file       =  1210307400.123657_cleaned.dat
# Candidate        =  PSR_0332+5434
# Telescope        =  AR
# Epoch_topo       =  58252.187293097879
# Epoch_bary       =  N/A
# T_sample         =  0.002
# Data Folded      =  7208960
# Data Avg         =  0.0439933374107757
# Data StdDev      =  1.00007238827235 
# Profile Bins     =  512
# Profile Avg      =  619.429649278823 
# Profile StdDev   =  118.667765326264 
# Reduced chi-sqr  =  1.988
# Prob(Noise)      <  1.06e-35   (~12.4 sigma)
# P_topo (ms)      =  714.534368171232  +/- 0.000123
# P'_topo (s/s)    =  -0                +/- 6.59e-11
# P''_topo (s/s^2) =  0                 +/- 2.96e-14
# P_bary (ms)      =  N/A
# P'_bary (s/s)    =  N/A
# P''_bary (s/s^2) =  N/A
# P_orb (s)        =  N/A
# asin(i)/c (s)    =  N/A
# eccentricity     =  N/A
# w (rad)          =  N/A
# T_peri           =  N/A
######################################################
   0  1444.603
   1  1407.041
   2  1196.399
   3  914.5314
   4  675.6102
   5  602.1307
   6  620.613
   7  672.1041
   8  682.7949
   9  698.0592
  10  592.6031
  11  603.4151
  12  583.1193
  13  589.3232
  14  695.5209
  15  748.9769
  16  791.3635
  17  719.8622
  18  612.5742
  19  491.0089
  20  550.5227
  21  584.535
  22  629.0187
  23  503.9782
  24  506.0326
  25  540.1738
  26  566.7126
  27  580.7237
  28  502.224
  29  528.7053
  30  591.3672
  31  512.8384
  32  448.9635
  33  531.2623
  34  594.694
  35  705.6505
  36  544.5076
  37  612.8021
  38  572.0333
  39  449.3673
  40  485.1681
  41  536.1165
  42  567.2988
  43  521.7417
  44  576.928
  45  672.2415
  46  726.3819
  47  717.2231
  48  612.5196
  49  531.7736
  50  576.9465
  51  581.3995
  52  627.2968
  53  623.757
  54  539.187
  55  512.8956
  56  582.8472
  57  685.7356
  58  688.7125
  59  625.6195
  60  535.2225
  61  464.6836
  62  473.0359
  63  609.8047
  64  682.1395
  65  673.1927
  66  722.5012
  67  559.2253
  68  417.6068
  69  546.1407
  70  636.7274
  71  593.901
  72  585.6419
  73  584.5705
  74  635.6794
  75  620.425
  76  637.0869
  77  652.817
  78  775.8108
  79  716.6549
  80  592.677
  81  614.8248
  82  716.2031
  83  776.57
  84  639.7339
  85  606.4393
  86  640.1644
  87  660.8503
  88  682.3593
  89  726.1483
  90  771.7179
  91  846.295
  92  693.7237
  93  622.7614
  94  685.5098
  95  616.2087
  96  688.1969
  97  691.6021
  98  688.5742
  99  587.6301
 100  617.816
 101  625.8019
 102  693.0736
 103  623.8452
 104  672.2984
 105  702.0062
 106  714.1695
 107  828.239
 108  856.3369
 109  671.5336
 110  701.6484
 111  714.6488
 112  713.6757
 113  762.1277
 114  700.5248
 115  709.658
 116  864.6436
 117  840.7238
 118  671.4436
 119  707.7666
 120  793.615
 121  906.3667
 122  800.8773
 123  824.8998
 124  898.6429
 125  839.7682
 126  655.0883
 127  654.3839
 128  725.686
 129  758.0793
 130  759.1153
 131  749.1197
 132  777.2304
 133  791.277
 134  700.4995
 135  721.4601
 136  779.7004
 137  846.4346
 138  879.8408
 139  766.4832
 140  732.6599
 141  795.714
 142  733.5425
 143  739.177
 144  676.0019
 145  703.0685
 146  703.0358
 147  728.6002
 148  645.5298
 149  769.7531
 150  686.9258
 151  694.1521
 152  704.5155
 153  696.975
 154  673.8005
 155  730.9694
 156  801.3204
 157  674.0772
 158  628.8406
 159  591.0303
 160  568.8916
 161  615.0125
 162  741.6737
 163  762.9045
 164  656.8927
 165  604.1488
 166  832.4425
 167  701.4543
 168  632.4299
 169  638.8966
 170  607.9881
 171  593.1057
 172  712.4922
 173  736.8468
 174  781.8907
 175  734.1868
 176  728.1547
 177  702.3823
 178  623.2208
 179  638.31
 180  639.5507
 181  811.7057
 182  789.3194
 183  658.1216
 184  537.2542
 185  700.7906
 186  703.7022
 187  753.9161
 188  708.9305
 189  676.0641
 190  690.9045
 191  631.7981
 192  674.3621
 193  622.3392
 194  566.8923
 195  538.8693
 196  554.7344
 197  599.3461
 198  723.7897
 199  710.921
 200  710.5802
 201  623.9258
 202  605.6868
 203  642.2486
 204  568.7092
 205  629.8609
 206  763.3749
 207  637.5549
 208  620.6207
 209  613.0092
 210  548.4964
 211  497.7194
 212  514.3821
 213  515.2161
 214  462.4454
 215  565.9091
 216  688.657
 217  685.5914
 218  492.6345
 219  615.1698
 220  565.0748
 221  496.3994
 222  554.3047
 223  670.7119
 224  614.9804
 225  609.5535
 226  615.2268
 227  703.7982
 228  634.9617
 229  511.188
 230  414.2672
 231  503.5081
 232  604.538
 233  539.2639
 234  609.0892
 235  645.4562
 236  565.7562
 237  572.9533
 238  595.8472
 239  598.0134
 240  543.1687
 241  500.2426
 242  430.4349
 243  575.2655
 244  455.2214
 245  502.1072
 246  602.4782
 247  643.7324
 248  680.7598
 249  502.9613
 250  465.9333
 251  560.6196
 252  544.1023
 253  564.0424
 254  426.172
 255  548.5965
 256  668.5715
 257  642.585
 258  621.5787
 259  545.5192
 260  579.8739
 261  562.3114
 262  611.7613
 263  646.2332
 264  735.9434
 265  638.8573
 266  579.1978
 267  452.6185
 268  461.3086
 269  594.3403
 270  727.1559
 271  558.7695
 272  557.5518
 273  594.3248
 274  648.7286
 275  610.8755
 276  599.777
 277  593.1384
 278  616.5396
 279  648.9098
 280  679.2272
 281  630.2357
 282  651.0012
 283  615.412
 284  697.3976
 285  670.4701
 286  581.6168
 287  608.1696
 288  575.8679
 289  667.2886
 290  671.1431
 291  628.5927
 292  515.1381
 293  585.368
 294  603.6202
 295  460.3681
 296  537.5771
 297  693.8276
 298  689.4247
 299  535.1091
 300  501.4113
 301  515.3669
 302  480.6451
 303  531.6661
 304  570.8345
 305  526.9401
 306  549.7707
 307  587.2802
 308  409.0044
 309  537.5313
 310  676.3129
 311  603.0475
 312  519.3575
 313  632.3187
 314  593.8415
 315  467.727
 316  479.2304
 317  501.2667
 318  533.9861
 319  582.7925
 320  569.6839
 321  552.5621
 322  604.6988
 323  540.9259
 324  472.1079
 325  509.5589
 326  522.7175
 327  456.2072
 328  497.543
 329  548.8883
 330  613.4416
 331  602.1884
 332  572.259
 333  533.9009
 334  460.8747
 335  322.4548
 336  539.2433
 337  641.7426
 338  521.6821
 339  580.6498
 340  475.2672
 341  439.6157
 342  361.064
 343  486.5646
 344  543.9158
 345  602.8611
 346  709.179
 347  697.478
 348  548.6767
 349  440.6645
 350  383.2582
 351  542.7454
 352  561.6117
 353  559.2502
 354  502.6727
 355  577.9641
 356  649.7769
 357  606.7371
 358  576.5017
 359  506.6503
 360  466.9745
 361  615.1248
 362  589.37
 363  536.7887
 364  473.9908
 365  539.6263
 366  491.9755
 367  441.7005
 368  636.5642
 369  607.6711
 370  609.4102
 371  507.7067
 372  607.8216
 373  586.4474
 374  510.2114
 375  479.322
 376  537.5217
 377  530.3749
 378  580.6089
 379  560.9794
 380  526.4297
 381  442.3356
 382  404.1659
 383  515.4877
 384  503.5092
 385  477.8001
 386  580.7079
 387  511.1855
 388  492.8174
 389  462.9061
 390  484.2039
 391  569.075
 392  658.4937
 393  670.9407
 394  521.3848
 395  532.2836
 396  553.0626
 397  553.2858
 398  435.7376
 399  423.7254
 400  486.9117
 401  643.7736
 402  700.7125
 403  562.2188
 404  628.3121
 405  580.4291
 406  658.1873
 407  582.9384
 408  613.4288
 409  611.623
 410  571.4393
 411  591.2832
 412  500.5873
 413  543.7344
 414  591.5063
 415  463.9952
 416  493.5782
 417  688.1904
 418  671.3687
 419  598.491
 420  580.932
 421  589.7836
 422  577.1206
 423  523.6287
 424  533.9263
 425  605.2722
 426  609.4089
 427  594.4155
 428  627.6068
 429  694.1654
 430  700.7885
 431  650.7751
 432  610.0504
 433  613.9397
 434  577.3758
 435  627.3542
 436  686.8508
 437  562.5029
 438  659.2308
 439  678.6421
 440  693.4398
 441  686.7087
 442  588.2501
 443  582.2731
 444  556.9361
 445  521.0438
 446  631.022
 447  519.845
 448  590.6328
 449  536.493
 450  471.0535
 451  626.4009
 452  733.2688
 453  730.0487
 454  681.4487
 455  665.1675
 456  512.2122
 457  511.6571
 458  542.0012
 459  422.1462
 460  629.5162
 461  661.478
 462  621.8175
 463  612.1867
 464  505.5032
 465  510.1378
 466  523.4341
 467  406.4217
 468  390.1724
 469  584.201
 470  658.7667
 471  553.8944
 472  459.8693
 473  482.2605
 474  431.7426
 475  555.9453
 476  775.5681
 477  679.5333
 478  622.3248
 479  614.6454
 480  717.3599
 481  580.7725
 482  524.2048
 483  587.3401
 484  615.2197
 485  696.5883
 486  640.1625
 487  689.9587
 488  570.0841
 489  500.8471
 490  640.0841
 491  710.8879
 492  699.035
 493  648.6511
 494  645.016
 495  766.7546
 496  725.2146
 497  719.0109
 498  564.7693
 499  478.9103
 500  526.2455
 501  693.24
 502  640.2841
 503  657.4741
 504  680.2715
 505  671.6958
 506  637.0056
 507  701.5288
 508  867.0564
 509  1096.88
 510  1216.931
 511  1341.362
