# Input file       =  1210839012.112088_cleaned.dat
# Candidate        =  PSR_0332+5434
# Telescope        =  AR
# Epoch_topo       =  58258.340209630645
# Epoch_bary       =  N/A
# T_sample         =  0.002
# Data Folded      =  7340032
# Data Avg         =  0.0559801566151442
# Data StdDev      =  1.00003272102084 
# Profile Bins     =  512
# Profile Avg      =  802.548283390633 
# Profile StdDev   =  119.736954163944 
# Reduced chi-sqr  =  1.221
# Prob(Noise)      <  0.000451   (~3.3 sigma)
# P_topo (ms)      =  714.528357658604  +/- 0.000191
# P'_topo (s/s)    =  -0                +/- 1.01e-10
# P''_topo (s/s^2) =  0                 +/- 4.46e-14
# P_bary (ms)      =  N/A
# P'_bary (s/s)    =  N/A
# P''_bary (s/s^2) =  N/A
# P_orb (s)        =  N/A
# asin(i)/c (s)    =  N/A
# eccentricity     =  N/A
# w (rad)          =  N/A
# T_peri           =  N/A
######################################################
   0  1415.359
   1  1273.172
   2  1168.932
   3  1023.176
   4  839.1013
   5  761.9945
   6  806.884
   7  720.5585
   8  745.0162
   9  844.3144
  10  824.2864
  11  835.0544
  12  908.4635
  13  1024.699
  14  1031.7
  15  999.7104
  16  905.2649
  17  887.2279
  18  841.3619
  19  912.3888
  20  967.0576
  21  875.8491
  22  846.9406
  23  887.4727
  24  860.7622
  25  861.7926
  26  881.4998
  27  978.4525
  28  970.2831
  29  886.0754
  30  807.8656
  31  840.6635
  32  812.3745
  33  777.3857
  34  725.2358
  35  715.3467
  36  688.4097
  37  687.6924
  38  771.7586
  39  822.1574
  40  813.9915
  41  756.2513
  42  771.6989
  43  854.9319
  44  801.6071
  45  816.8845
  46  823.3823
  47  788.7345
  48  798.1848
  49  878.2789
  50  875.3641
  51  887.6995
  52  892.2255
  53  821.6193
  54  711.1675
  55  869.1902
  56  830.7961
  57  806.5881
  58  847.1929
  59  880.0663
  60  856.1213
  61  934.4161
  62  930.9932
  63  955.6306
  64  883.5217
  65  832.9281
  66  899.4647
  67  893.4893
  68  860.8792
  69  856.6642
  70  783.5187
  71  759.0605
  72  680.3859
  73  692.4955
  74  800.0696
  75  817.89
  76  833.3013
  77  713.3608
  78  677.2883
  79  772.9759
  80  746.1741
  81  740.9988
  82  766.8981
  83  785.2509
  84  836.9297
  85  811.9931
  86  772.8926
  87  813.192
  88  868.498
  89  826.3112
  90  762.3493
  91  764.4282
  92  936.4397
  93  925.154
  94  861.0435
  95  806.4917
  96  894.9957
  97  943.1548
  98  1001.336
  99  930.1465
 100  829.6518
 101  886.2725
 102  870.8804
 103  832.9457
 104  927.2041
 105  883.2739
 106  878.1423
 107  947.224
 108  830.3044
 109  796.8821
 110  929.487
 111  922.5208
 112  780.6229
 113  864.3933
 114  970.2441
 115  898.921
 116  742.8149
 117  743.4374
 118  768.1437
 119  820.2246
 120  927.9886
 121  919.5928
 122  898.0349
 123  830.0684
 124  837.8286
 125  848.2529
 126  787.7622
 127  809.9186
 128  854.7205
 129  838.8572
 130  810.8945
 131  879.147
 132  758.9679
 133  789.7357
 134  868.0337
 135  721.2829
 136  699.8654
 137  678.0267
 138  714.5051
 139  812.1334
 140  880.5891
 141  867.2223
 142  835.5078
 143  655.7845
 144  737.0774
 145  817.2021
 146  836.3463
 147  719.5089
 148  709.2283
 149  812.4072
 150  838.9155
 151  774.2895
 152  770.3141
 153  762.9037
 154  746.8932
 155  762.2841
 156  693.4932
 157  714.2512
 158  719.8121
 159  601.8926
 160  658.2003
 161  644.6724
 162  639.0681
 163  720.2777
 164  700.8254
 165  616.4778
 166  595.3006
 167  550.288
 168  631.9559
 169  654.3589
 170  673.4777
 171  594.5853
 172  640.0037
 173  648.066
 174  718.8289
 175  785.7184
 176  796.8763
 177  732.6929
 178  664.7524
 179  731.9275
 180  745.5814
 181  886.019
 182  852.5522
 183  842.4415
 184  771.2937
 185  755.5943
 186  813.399
 187  716.4736
 188  892.722
 189  940.2957
 190  907.1052
 191  901.3509
 192  948.1851
 193  905.7667
 194  799.7273
 195  875.5845
 196  938.0767
 197  893.9563
 198  919.8137
 199  954.056
 200  860.4954
 201  746.6463
 202  713.914
 203  761.6898
 204  698.5137
 205  745.0118
 206  759.8217
 207  815.5946
 208  755.1446
 209  718.573
 210  737.8646
 211  828.216
 212  743.8461
 213  633.7217
 214  644.8457
 215  792.1899
 216  909.9949
 217  827.5253
 218  759.1692
 219  767.6438
 220  803.7118
 221  800.789
 222  744.8639
 223  816.1053
 224  835.5827
 225  839.0874
 226  803.425
 227  820.4269
 228  738.558
 229  768.3978
 230  757.8053
 231  810.6575
 232  887.3456
 233  872.9453
 234  849.6465
 235  776.0221
 236  743.299
 237  797.5417
 238  706.7727
 239  649.6262
 240  781.7189
 241  826.4243
 242  727.5573
 243  796.7195
 244  814.4275
 245  814.683
 246  773.2845
 247  801.2131
 248  831.6409
 249  827.7069
 250  795.3533
 251  807.1204
 252  746.6623
 253  765.7458
 254  851.2709
 255  849.9506
 256  865.9878
 257  770.0388
 258  890.2526
 259  868.0385
 260  726.0325
 261  769.7389
 262  837.5018
 263  849.6014
 264  861.7599
 265  780.4568
 266  704.5506
 267  821.1536
 268  810.9122
 269  797.4529
 270  800.3428
 271  798.282
 272  746.0578
 273  764.9397
 274  753.825
 275  773.8724
 276  851.5667
 277  843.0517
 278  773.9283
 279  742.3162
 280  811.1877
 281  815.9527
 282  858.6016
 283  898.9412
 284  882.5031
 285  870.1902
 286  803.1526
 287  798.887
 288  744.3011
 289  767.1473
 290  857.9842
 291  853.8615
 292  819.3412
 293  705.3593
 294  821.2634
 295  862.9885
 296  781.9203
 297  783.7499
 298  793.04
 299  742.142
 300  794.1739
 301  788.6485
 302  693.1085
 303  772.2905
 304  756.4545
 305  761.9006
 306  815.7047
 307  870.8981
 308  801.8706
 309  826.8552
 310  777.4897
 311  787.944
 312  807.6749
 313  865.5376
 314  854.7054
 315  925.082
 316  912.1194
 317  840.2427
 318  833.3768
 319  818.2927
 320  874.0219
 321  954.6449
 322  955.8549
 323  880.8041
 324  907.4609
 325  893.4598
 326  855.2344
 327  936.2797
 328  920.1317
 329  905.0547
 330  848.7043
 331  809.5427
 332  770.7266
 333  840.3513
 334  810.019
 335  774.2307
 336  798.3904
 337  828.3714
 338  901.1683
 339  808.5038
 340  785.7958
 341  814.317
 342  830.285
 343  868.1968
 344  826.2826
 345  827.9428
 346  799.3713
 347  787.0877
 348  780.0199
 349  828.0747
 350  748.7349
 351  725.5355
 352  682.5203
 353  741.5581
 354  731.2414
 355  813.1757
 356  879.9601
 357  856.15
 358  833.2225
 359  887.2178
 360  811.5386
 361  849.1692
 362  911.349
 363  956.2338
 364  891.9727
 365  830.8157
 366  721.4195
 367  748.2079
 368  748.0486
 369  842.0388
 370  836.0576
 371  749.8976
 372  776.5917
 373  843.7788
 374  812.7223
 375  839.5377
 376  773.1308
 377  821.1131
 378  819.4427
 379  793.5715
 380  664.8531
 381  778.2857
 382  848.8272
 383  758.1325
 384  722.2059
 385  699.6609
 386  718.9928
 387  817.1403
 388  811.2344
 389  755.159
 390  758.9313
 391  870.5149
 392  903.7031
 393  804.1276
 394  897.8212
 395  837.5145
 396  834.3449
 397  787.6364
 398  741.8381
 399  796.6902
 400  796.7405
 401  827.4854
 402  886.2008
 403  775.8867
 404  728.0945
 405  786.7731
 406  815.3241
 407  744.2938
 408  726.4799
 409  815.4686
 410  733.6239
 411  811.7543
 412  820.8163
 413  751.7784
 414  647.5717
 415  617.7466
 416  732.8395
 417  651.7896
 418  627.1609
 419  629.581
 420  635.3615
 421  595.3267
 422  663.3581
 423  676.1221
 424  702.1229
 425  669.431
 426  612.4173
 427  684.1717
 428  727.4755
 429  686.8835
 430  763.6632
 431  775.3532
 432  760.0287
 433  783.2785
 434  804.2819
 435  914.0046
 436  823.6974
 437  819.5963
 438  800.5056
 439  801.2225
 440  843.3325
 441  731.9007
 442  756.0875
 443  802.4447
 444  757.9828
 445  753.0749
 446  718.2714
 447  733.7459
 448  823.2249
 449  757.2
 450  707.7885
 451  733.5741
 452  785.5857
 453  702.0727
 454  699.0828
 455  731.2809
 456  762.0908
 457  783.5226
 458  757.5537
 459  661.1031
 460  720.8267
 461  791.6914
 462  716.0588
 463  639.4046
 464  680.6635
 465  730.2539
 466  630.9463
 467  587.6941
 468  680.1527
 469  711.0974
 470  638.0454
 471  694.8359
 472  567.7746
 473  708.7375
 474  800.2894
 475  752.0739
 476  690.606
 477  829.3918
 478  801.0697
 479  683.7021
 480  706.3836
 481  752.1142
 482  705.7043
 483  696.6636
 484  769.4299
 485  755.9977
 486  772.2383
 487  831.936
 488  754.0767
 489  824.0581
 490  846.1938
 491  852.3776
 492  905.5844
 493  828.9361
 494  794.2059
 495  736.381
 496  833.483
 497  807.1947
 498  745.2692
 499  859.763
 500  750.2654
 501  685.6716
 502  714.7501
 503  791.7574
 504  804.8483
 505  817.2154
 506  739.4417
 507  734.3788
 508  982.7401
 509  1142.996
 510  1244.699
 511  1386.855
