# Input file       =  1210681615.114721_cleaned.dat
# Candidate        =  PSR_0332+5434
# Telescope        =  AR
# Epoch_topo       =  58256.518485124085
# Epoch_bary       =  N/A
# T_sample         =  0.002
# Data Folded      =  7340032
# Data Avg         =  0.0401129036827987
# Data StdDev      =  1.00012500261045 
# Profile Bins     =  512
# Profile Avg      =  575.052274189392 
# Profile StdDev   =  119.748003318871 
# Reduced chi-sqr  =  1.368
# Prob(Noise)      <  5.6e-08   (~5.3 sigma)
# P_topo (ms)      =  714.530482262281  +/- 0.000239
# P'_topo (s/s)    =  -0                +/- 1.26e-10
# P''_topo (s/s^2) =  0                 +/- 5.58e-14
# P_bary (ms)      =  N/A
# P'_bary (s/s)    =  N/A
# P''_bary (s/s^2) =  N/A
# P_orb (s)        =  N/A
# asin(i)/c (s)    =  N/A
# eccentricity     =  N/A
# w (rad)          =  N/A
# T_peri           =  N/A
######################################################
   0  1275.547
   1  1202.913
   2  986.6094
   3  781.572
   4  590.4376
   5  473.3296
   6  458.6777
   7  480.4038
   8  489.9898
   9  562.4906
  10  668.2206
  11  573.6933
  12  561.5705
  13  625.7485
  14  665.9439
  15  676.3696
  16  620.6371
  17  681.5709
  18  663.1887
  19  598.4891
  20  732.8923
  21  743.7947
  22  606.4395
  23  576.8707
  24  570.9931
  25  579.9658
  26  649.654
  27  636.2913
  28  461.2198
  29  526.8468
  30  468.4364
  31  477.1324
  32  612.5788
  33  560.9299
  34  585.2328
  35  559.9348
  36  588.7108
  37  566.5549
  38  584.9316
  39  571.8842
  40  584.9451
  41  561.3196
  42  699.4614
  43  707.4169
  44  564.5596
  45  442.8108
  46  579.8226
  47  604.6859
  48  506.5909
  49  391.5692
  50  480.2636
  51  540.411
  52  629.7928
  53  640.9501
  54  503.3229
  55  468.7711
  56  459.5201
  57  493.8983
  58  500.4136
  59  560.1201
  60  532.301
  61  428.8475
  62  597.9261
  63  544.5566
  64  546.437
  65  492.2254
  66  459.9485
  67  658.1349
  68  471.9714
  69  403.8344
  70  424.6933
  71  500.8052
  72  527.2145
  73  610.9789
  74  696.0357
  75  576.2188
  76  509.7133
  77  545.1603
  78  498.0076
  79  602.5185
  80  514.1859
  81  532.0067
  82  557.4193
  83  561.4355
  84  536.075
  85  550.6435
  86  512.6509
  87  527.1709
  88  568.1309
  89  509.516
  90  454.2765
  91  427.7861
  92  547.4897
  93  620.4528
  94  625.7849
  95  668.665
  96  637.1248
  97  606.2528
  98  587.8021
  99  666.8951
 100  725.496
 101  723.0491
 102  701.2582
 103  678.3067
 104  668.8997
 105  694.9493
 106  804.6791
 107  698.0532
 108  550.0967
 109  653.4404
 110  626.6666
 111  686.1599
 112  714.6835
 113  736.5142
 114  704.678
 115  634.1362
 116  660.8937
 117  578.2672
 118  566.7491
 119  579.2217
 120  629.2612
 121  672.6454
 122  697.1611
 123  615.627
 124  622.6273
 125  524.0025
 126  492.0818
 127  488.7351
 128  512.9573
 129  546.5848
 130  525.5754
 131  515.3927
 132  431.0348
 133  477.1053
 134  600.9119
 135  514.5806
 136  455.1241
 137  478.8575
 138  472.1834
 139  470.6976
 140  536.0416
 141  581.8033
 142  465.3824
 143  604.4918
 144  641.6483
 145  570.0269
 146  513.8039
 147  593.7676
 148  491.9912
 149  360.298
 150  532.505
 151  623.8555
 152  620.4037
 153  573.9437
 154  621.1285
 155  590.0285
 156  494.7208
 157  481.0556
 158  512.7033
 159  486.395
 160  405.8883
 161  504.5103
 162  496.2109
 163  482.114
 164  578.0068
 165  585.7488
 166  497.0186
 167  434.5136
 168  443.3985
 169  508.3657
 170  538.4686
 171  418.0083
 172  438.9209
 173  461.1157
 174  548.0844
 175  476.9937
 176  491.7254
 177  493.339
 178  521.9027
 179  421.7862
 180  449.8633
 181  542.3441
 182  514.7115
 183  480.7178
 184  557.8126
 185  516.4409
 186  481.5498
 187  596.2845
 188  677.2271
 189  661.5458
 190  755.4327
 191  634.3998
 192  531.3803
 193  511.0268
 194  510.0934
 195  511.836
 196  503.3658
 197  561.3001
 198  473.3626
 199  608.7187
 200  578.1791
 201  435.4065
 202  387.5597
 203  258.5758
 204  280.1202
 205  294.4023
 206  334.164
 207  513.9528
 208  487.1129
 209  415.5813
 210  376.1702
 211  506.9371
 212  488.2715
 213  605.4752
 214  557.6389
 215  627.3588
 216  655.8255
 217  459.0446
 218  562.2563
 219  464.0679
 220  500.436
 221  576.0387
 222  584.9995
 223  544.6147
 224  607.5847
 225  611.2135
 226  614.176
 227  510.418
 228  502.3864
 229  582.3663
 230  499.7622
 231  545.5651
 232  659.1333
 233  619.0286
 234  414.0828
 235  535.0228
 236  628.6804
 237  562.7884
 238  502.3318
 239  583.5884
 240  718.2303
 241  589.9042
 242  444.0372
 243  376.0399
 244  427.612
 245  542.5316
 246  584.1729
 247  505.8178
 248  461.4171
 249  517.5342
 250  480.9113
 251  508.2319
 252  467.3624
 253  521.131
 254  588.7759
 255  633.4056
 256  544.2245
 257  724.4174
 258  655.7236
 259  554.8445
 260  552.8693
 261  628.1166
 262  631.728
 263  569.5443
 264  608.1746
 265  583.2546
 266  553.3071
 267  521.6731
 268  520.5591
 269  580.206
 270  539.8807
 271  582.462
 272  570.9137
 273  569.9565
 274  536.7666
 275  561.2325
 276  626.9312
 277  521.4159
 278  520.0424
 279  621.2523
 280  582.6561
 281  614.027
 282  626.4776
 283  536.4431
 284  657.599
 285  609.7118
 286  556.892
 287  571.5249
 288  559.7944
 289  552.5844
 290  646.9491
 291  669.4194
 292  668.9525
 293  582.5132
 294  505.7863
 295  472.2535
 296  493.7088
 297  549.0916
 298  687.8152
 299  650.3151
 300  591.4918
 301  555.5689
 302  527.9282
 303  587.0417
 304  588.0585
 305  621.7535
 306  719.5951
 307  714.8709
 308  615.8414
 309  562.6342
 310  522.7226
 311  562.5543
 312  570.4097
 313  657.409
 314  634.1995
 315  608.9744
 316  602.1178
 317  635.4648
 318  520.801
 319  626.3158
 320  670.1427
 321  540.7408
 322  498.1182
 323  589.5059
 324  675.3028
 325  560.0302
 326  537.7527
 327  508.1117
 328  610.4182
 329  508.186
 330  469.9203
 331  440.2979
 332  467.4407
 333  404.1271
 334  438.5323
 335  461.6578
 336  539.7972
 337  605.4624
 338  627.1466
 339  734.4398
 340  597.1641
 341  479.9579
 342  563.0103
 343  599.0286
 344  562.7792
 345  644.4235
 346  622.1581
 347  523.0649
 348  657.7468
 349  636.798
 350  567.8625
 351  535.0009
 352  671.6277
 353  547.6169
 354  538.1666
 355  570.9069
 356  497.9828
 357  447.972
 358  493.7507
 359  614.1151
 360  552.6426
 361  551.947
 362  649.4368
 363  619.6812
 364  554.1002
 365  539.6212
 366  615.6942
 367  608.5667
 368  494.7906
 369  492.8518
 370  534.994
 371  622.7394
 372  565.5419
 373  641.4962
 374  751.5916
 375  790.3397
 376  729.6339
 377  576.6199
 378  602.3963
 379  624.0496
 380  609.266
 381  543.2512
 382  691.6259
 383  663.0014
 384  589.5055
 385  493.5408
 386  444.6491
 387  538.1746
 388  604.0771
 389  533.3414
 390  646.2536
 391  598.7957
 392  571.9047
 393  566.5379
 394  598.6678
 395  537.1662
 396  464.063
 397  578.2099
 398  475.5456
 399  429.3694
 400  633.592
 401  548.2162
 402  506.3593
 403  685.3094
 404  617.5812
 405  636.6858
 406  601.2831
 407  662.9191
 408  627.7069
 409  566.3954
 410  575.472
 411  581.4015
 412  608.1037
 413  517.5277
 414  625.6656
 415  724.645
 416  636.9052
 417  631.6173
 418  555.5306
 419  603.3223
 420  552.3395
 421  522.0329
 422  660.1078
 423  627.6111
 424  512.3792
 425  507.2549
 426  561.0268
 427  557.8032
 428  543.1614
 429  690.7167
 430  713.0499
 431  510.5644
 432  454.8922
 433  478.8748
 434  602.2813
 435  639.4901
 436  600.4226
 437  531.2033
 438  627.6042
 439  659.0939
 440  560.0105
 441  523.1203
 442  503.9717
 443  624.1164
 444  596.6582
 445  542.1624
 446  658.4429
 447  722.3749
 448  781.3871
 449  696.8268
 450  650.3372
 451  675.5169
 452  577.5566
 453  560.7623
 454  524.0745
 455  513.0858
 456  562.2027
 457  535.0662
 458  422.1873
 459  491.5382
 460  577.7982
 461  633.8958
 462  594.9266
 463  643.5432
 464  608.0735
 465  669.0826
 466  609.4988
 467  414.0483
 468  491.7433
 469  590.7015
 470  503.7884
 471  560.6318
 472  689.3564
 473  678.9293
 474  570.9198
 475  495.479
 476  587.4112
 477  656.5817
 478  636.2623
 479  515.4569
 480  560.1131
 481  561.3792
 482  523.4959
 483  519.585
 484  604.5635
 485  670.5757
 486  620.6549
 487  563.022
 488  464.3074
 489  628.6948
 490  708.3889
 491  755.3867
 492  547.6517
 493  515.0789
 494  599.2914
 495  626.3547
 496  779.1443
 497  677.5914
 498  557.6104
 499  656.4092
 500  640.0472
 501  588.8154
 502  592.8718
 503  597.5588
 504  659.3199
 505  686.0646
 506  739.6093
 507  795.1949
 508  729.825
 509  867.2083
 510  1108.58
 511  1132.039
