# Input file       =  1210235853.118703_cleaned.dat
# Candidate        =  PSR_0332+5434
# Telescope        =  AR
# Epoch_topo       =  58251.359202762767
# Epoch_bary       =  N/A
# T_sample         =  0.002
# Data Folded      =  7340032
# Data Avg         =  -0.0443260948473635
# Data StdDev      =  1.00018033812217 
# Profile Bins     =  512
# Profile Avg      =  -635.769066487595
# Profile StdDev   =  119.754628807708 
# Reduced chi-sqr  =  0.894
# Prob(Noise)      <  0.96   (~0.0 sigma)
# P_topo (ms)      =  714.535183261608  +/- 0.00053
# P'_topo (s/s)    =  -0                +/- 2.8e-10
# P''_topo (s/s^2) =  0                 +/- 1.23e-13
# P_bary (ms)      =  N/A
# P'_bary (s/s)    =  N/A
# P''_bary (s/s^2) =  N/A
# P_orb (s)        =  N/A
# asin(i)/c (s)    =  N/A
# eccentricity     =  N/A
# w (rad)          =  N/A
# T_peri           =  N/A
######################################################
   0  -129.4712
   1  -225.0329
   2  -281.046
   3  -452.3805
   4  -655.6042
   5  -698.2809
   6  -583.281
   7  -611.1715
   8  -714.0776
   9  -704.6614
  10  -718.1093
  11  -722.0765
  12  -664.257
  13  -619.9052
  14  -599.8749
  15  -682.6347
  16  -676.2405
  17  -610.8248
  18  -621.2051
  19  -611.2935
  20  -633.95
  21  -639.9391
  22  -577.7191
  23  -518.3017
  24  -507.4545
  25  -566.7594
  26  -553.8144
  27  -565.3522
  28  -627.871
  29  -639.7863
  30  -621.3209
  31  -550.5801
  32  -548.8177
  33  -639.7994
  34  -617.5234
  35  -539.5397
  36  -517.0428
  37  -562.7726
  38  -543.2349
  39  -553.0973
  40  -525.342
  41  -537.7664
  42  -622.2196
  43  -521.1697
  44  -537.6976
  45  -532.9955
  46  -585.4712
  47  -658.2267
  48  -622.8167
  49  -636.2449
  50  -679.7391
  51  -660.6087
  52  -608.0089
  53  -606.6174
  54  -653.1454
  55  -673.7706
  56  -676.781
  57  -704.7634
  58  -695.993
  59  -573.5143
  60  -549.361
  61  -556.8381
  62  -602.3471
  63  -510.1336
  64  -544.8361
  65  -639.7706
  66  -724.7321
  67  -642.2184
  68  -556.0677
  69  -688.1234
  70  -678.0432
  71  -597.3887
  72  -639.5203
  73  -662.9865
  74  -625.4128
  75  -611.0501
  76  -597.3638
  77  -647.4992
  78  -662.1987
  79  -660.2391
  80  -604.1299
  81  -669.8604
  82  -739.7359
  83  -704.5582
  84  -675.71
  85  -600.4979
  86  -622.4382
  87  -678.9792
  88  -719.0778
  89  -718.3195
  90  -724.0052
  91  -723.9237
  92  -726.1392
  93  -700.6193
  94  -695.8438
  95  -680.8246
  96  -735.163
  97  -765.6729
  98  -739.538
  99  -778.0981
 100  -695.4929
 101  -640.7014
 102  -710.1813
 103  -721.0131
 104  -687.9698
 105  -620.2183
 106  -591.7563
 107  -677.5349
 108  -763.8306
 109  -746.8765
 110  -676.9315
 111  -704.1445
 112  -665.4687
 113  -694.7881
 114  -655.8961
 115  -539.0015
 116  -586.1422
 117  -598.9197
 118  -617.2332
 119  -581.9421
 120  -657.1089
 121  -650.3649
 122  -564.754
 123  -549.0594
 124  -600.1085
 125  -547.3941
 126  -546.9316
 127  -546.1846
 128  -581.6324
 129  -575.0721
 130  -621.9015
 131  -575.7537
 132  -519.5938
 133  -576.6274
 134  -648.4113
 135  -541.8738
 136  -621.6911
 137  -658.7206
 138  -639.5132
 139  -628.923
 140  -606.1218
 141  -559.3204
 142  -593.6891
 143  -578.1151
 144  -564.0367
 145  -543.366
 146  -531.9921
 147  -458.9034
 148  -475.9753
 149  -505.1707
 150  -514.877
 151  -484.6708
 152  -510.3574
 153  -594.439
 154  -556.5078
 155  -470.9448
 156  -580.6835
 157  -524.4364
 158  -535.4542
 159  -568.3864
 160  -590.3625
 161  -603.1144
 162  -517.9821
 163  -482.7615
 164  -510.1604
 165  -486.2405
 166  -468.3151
 167  -501.0682
 168  -465.251
 169  -535.3141
 170  -483.8593
 171  -498.1783
 172  -560.9697
 173  -556.0624
 174  -539.9626
 175  -496.5912
 176  -561.4757
 177  -598.5693
 178  -542.2706
 179  -531.7712
 180  -603.8983
 181  -586.0369
 182  -532.5217
 183  -621.7806
 184  -673.1391
 185  -650.3215
 186  -654.3159
 187  -667.4507
 188  -649.7205
 189  -617.9394
 190  -651.9518
 191  -600.2778
 192  -645.6221
 193  -680.7399
 194  -634.5487
 195  -601.2737
 196  -587.6262
 197  -681.502
 198  -671.2122
 199  -646.623
 200  -681.7212
 201  -662.6286
 202  -617.7573
 203  -629.7137
 204  -701.3737
 205  -715.1877
 206  -751.161
 207  -636.1986
 208  -599.3412
 209  -593.1205
 210  -659.9377
 211  -695.0253
 212  -672.6526
 213  -674.8789
 214  -728.8726
 215  -732.1345
 216  -720.3871
 217  -713.8513
 218  -801.1681
 219  -768.5842
 220  -827.2962
 221  -771.3497
 222  -754.2867
 223  -690.3702
 224  -668.173
 225  -792.0229
 226  -737.7475
 227  -757.0572
 228  -738.3765
 229  -717.3812
 230  -716.3393
 231  -750.0161
 232  -704.016
 233  -760.8356
 234  -699.3318
 235  -699.767
 236  -748.5551
 237  -749.1231
 238  -698.449
 239  -707.9554
 240  -725.3954
 241  -758.1159
 242  -787.7007
 243  -713.6245
 244  -642.9367
 245  -643.416
 246  -694.9678
 247  -677.4518
 248  -721.5431
 249  -727.1223
 250  -708.5739
 251  -707.39
 252  -693.812
 253  -666.1891
 254  -742.2886
 255  -714.4149
 256  -628.4437
 257  -656.9201
 258  -666.1707
 259  -737.5223
 260  -675.2178
 261  -684.2418
 262  -565.8768
 263  -601.576
 264  -693.6498
 265  -667.9808
 266  -622.7324
 267  -637.7982
 268  -617.0062
 269  -578.1041
 270  -643.0768
 271  -626.6364
 272  -620.5941
 273  -636.0439
 274  -637.689
 275  -651.6836
 276  -606.6909
 277  -552.7791
 278  -570.0323
 279  -558.5215
 280  -551.6536
 281  -547.1536
 282  -547.7951
 283  -577.2695
 284  -635.3323
 285  -668.5023
 286  -603.4564
 287  -566.3184
 288  -527.9723
 289  -565.7867
 290  -536.975
 291  -547.1474
 292  -565.2032
 293  -595.6948
 294  -613.7858
 295  -597.9424
 296  -651.2432
 297  -687.9492
 298  -683.8157
 299  -630.6593
 300  -664.9553
 301  -683.8002
 302  -659.5614
 303  -616.723
 304  -627.442
 305  -664.2202
 306  -616.6851
 307  -705.9443
 308  -708.5901
 309  -653.903
 310  -630.3857
 311  -565.814
 312  -550.8868
 313  -705.5914
 314  -705.1676
 315  -721.1445
 316  -670.3892
 317  -633.4931
 318  -673.7166
 319  -661.027
 320  -652.9457
 321  -636.4695
 322  -713.7566
 323  -635.8781
 324  -601.2606
 325  -529.3516
 326  -569.5869
 327  -647.6471
 328  -686.1927
 329  -601.6561
 330  -571.3275
 331  -598.5345
 332  -586.6981
 333  -614.9347
 334  -541.0565
 335  -559.1458
 336  -559.0494
 337  -623.9667
 338  -657.9306
 339  -622.032
 340  -587.6105
 341  -646.842
 342  -654.2922
 343  -685.7429
 344  -649.3793
 345  -631.8444
 346  -713.0254
 347  -653.8101
 348  -667.935
 349  -708.857
 350  -735.8976
 351  -683.9261
 352  -697.4153
 353  -740.4804
 354  -678.2463
 355  -644.5519
 356  -593.9778
 357  -632.8513
 358  -592.145
 359  -617.0455
 360  -629.5334
 361  -604.8552
 362  -590.8093
 363  -649.8226
 364  -683.9769
 365  -676.9114
 366  -691.9109
 367  -691.5148
 368  -575.3165
 369  -613.9592
 370  -634.4841
 371  -573.6686
 372  -573.9608
 373  -628.0175
 374  -586.6494
 375  -613.3794
 376  -644.1627
 377  -675.9081
 378  -650.9972
 379  -624.0493
 380  -598.0372
 381  -628.9272
 382  -681.5176
 383  -672.9071
 384  -678.9467
 385  -655.4611
 386  -671.8676
 387  -781.4482
 388  -734.9283
 389  -745.7686
 390  -702.2986
 391  -636.0842
 392  -662.6423
 393  -693.293
 394  -715.3415
 395  -704.9202
 396  -696.42
 397  -702.5699
 398  -657.8322
 399  -702.5611
 400  -782.9161
 401  -759.7325
 402  -621.7062
 403  -644.29
 404  -643.5817
 405  -584.1624
 406  -633.3907
 407  -689.5621
 408  -634.3575
 409  -607.5024
 410  -531.7071
 411  -516.5959
 412  -479.6859
 413  -554.251
 414  -506.4176
 415  -508.2841
 416  -430.736
 417  -503.6342
 418  -552.1232
 419  -535.3206
 420  -559.5941
 421  -573.0609
 422  -619.1688
 423  -625.5854
 424  -593.3278
 425  -532.1709
 426  -701.419
 427  -685.6189
 428  -736.2787
 429  -791.4928
 430  -690.6086
 431  -663.1496
 432  -643.9332
 433  -706.775
 434  -738.0081
 435  -729.7492
 436  -751.0552
 437  -635.861
 438  -600.9246
 439  -676.0121
 440  -748.6702
 441  -719.4797
 442  -696.2807
 443  -717.8397
 444  -692.8943
 445  -686.8538
 446  -775.8156
 447  -728.7515
 448  -722.7495
 449  -717.7813
 450  -672.9581
 451  -668.6929
 452  -682.189
 453  -630.3753
 454  -614.9672
 455  -633.0609
 456  -671.3964
 457  -638.6513
 458  -612.192
 459  -630.3855
 460  -658.3335
 461  -647.3829
 462  -605.7386
 463  -654.9847
 464  -662.4328
 465  -702.2646
 466  -645.596
 467  -676.4199
 468  -669.8826
 469  -604.1985
 470  -700.2477
 471  -758.6647
 472  -749.3306
 473  -662.0502
 474  -596.1059
 475  -704.047
 476  -703.2948
 477  -729.633
 478  -785.0733
 479  -762.8077
 480  -729.7097
 481  -737.5638
 482  -730.2575
 483  -739.9428
 484  -648.0653
 485  -702.1166
 486  -712.075
 487  -649.7654
 488  -692.6526
 489  -718.7549
 490  -694.326
 491  -674.6028
 492  -666.1233
 493  -679.1736
 494  -698.7216
 495  -682.1398
 496  -672.9278
 497  -702.8643
 498  -650.4479
 499  -659.327
 500  -694.2522
 501  -722.01
 502  -671.0467
 503  -687.5474
 504  -718.5983
 505  -679.9487
 506  -648.0225
 507  -606.0026
 508  -460.6855
 509  -410.5953
 510  -369.2126
 511  -207.7726
