# Input file       =  1210595454.117564_cleaned.dat
# Candidate        =  PSR_0332+5434
# Telescope        =  AR
# Epoch_topo       =  58255.521251360697
# Epoch_bary       =  N/A
# T_sample         =  0.002
# Data Folded      =  7340032
# Data Avg         =  0.0408627542356087
# Data StdDev      =  1.00012303114914 
# Profile Bins     =  512
# Profile Avg      =  585.812203214729 
# Profile StdDev   =  119.747767269821 
# Reduced chi-sqr  =  1.451
# Prob(Noise)      <  1.01e-10   (~6.4 sigma)
# P_topo (ms)      =  714.531460917852  +/- 0.00025
# P'_topo (s/s)    =  -0                +/- 1.32e-10
# P''_topo (s/s^2) =  0                 +/- 5.82e-14
# P_bary (ms)      =  N/A
# P'_bary (s/s)    =  N/A
# P''_bary (s/s^2) =  N/A
# P_orb (s)        =  N/A
# asin(i)/c (s)    =  N/A
# eccentricity     =  N/A
# w (rad)          =  N/A
# T_peri           =  N/A
######################################################
   0  1362.856
   1  1171.014
   2  929.5253
   3  830.2112
   4  709.3354
   5  604.7247
   6  573.7099
   7  573.8751
   8  605.9304
   9  604.2194
  10  568.7331
  11  622.2075
  12  736.3665
  13  753.4524
  14  732.4149
  15  744.9178
  16  652.0439
  17  608.376
  18  705.6656
  19  680.8467
  20  656.8765
  21  561.0364
  22  520.2864
  23  471.906
  24  469.1523
  25  470.9196
  26  511.4375
  27  503.3914
  28  531.1852
  29  612.4655
  30  497.2513
  31  387.5948
  32  363.2444
  33  456.7169
  34  485.3689
  35  527.6339
  36  631.8186
  37  595.2615
  38  560.7206
  39  577.108
  40  459.5594
  41  368.2509
  42  501.2312
  43  630.1021
  44  495.3868
  45  507.5138
  46  513.9942
  47  471.974
  48  568.2031
  49  587.9216
  50  588.5707
  51  616.5515
  52  603.0474
  53  486.1356
  54  503.1771
  55  637.0887
  56  651.6385
  57  601.7701
  58  579.4307
  59  552.1158
  60  638.5874
  61  582.9767
  62  519.4601
  63  550.5738
  64  465.2763
  65  425.1044
  66  427.1053
  67  436.6508
  68  370.885
  69  537.6573
  70  593.0246
  71  496.4912
  72  450.0406
  73  403.2135
  74  432.3848
  75  376.1944
  76  523.7822
  77  595.2568
  78  564.2764
  79  595.5081
  80  578.1202
  81  596.5884
  82  507.2465
  83  503.2748
  84  478.8325
  85  498.4959
  86  510.4019
  87  541.2993
  88  522.9664
  89  500.592
  90  572.3812
  91  532.8887
  92  617.2305
  93  732.2238
  94  618.3365
  95  582.3658
  96  462.367
  97  566.3263
  98  585.8566
  99  690.7303
 100  685.5218
 101  614.6306
 102  580.7748
 103  532.8314
 104  548.3238
 105  571.106
 106  677.4841
 107  723.4885
 108  496.8232
 109  521.9547
 110  613.8695
 111  595.0049
 112  572.6087
 113  505.4606
 114  524.1948
 115  499.4649
 116  464.3997
 117  453.7774
 118  402.1821
 119  435.7583
 120  465.2179
 121  500.0536
 122  568.4979
 123  601.7257
 124  574.3649
 125  558.5897
 126  620.5162
 127  519.2531
 128  561.5906
 129  526.3123
 130  519.5721
 131  528.8268
 132  455.9035
 133  535.1197
 134  597.3577
 135  641.7985
 136  631.4333
 137  619.1955
 138  596.8663
 139  611.5197
 140  590.5916
 141  757.183
 142  793.4888
 143  507.4763
 144  521.8799
 145  551.3749
 146  639.5287
 147  600.0884
 148  618.5932
 149  670.6682
 150  694.4537
 151  693.4696
 152  664.8624
 153  562.3719
 154  526.6378
 155  514.9974
 156  571.5068
 157  553.5975
 158  496.817
 159  503.9265
 160  480.3367
 161  647.4567
 162  634.4084
 163  632.6229
 164  675.4817
 165  527.2965
 166  480.8975
 167  508.5518
 168  532.6964
 169  554.3974
 170  534.0087
 171  488.1701
 172  537.7628
 173  632.5713
 174  543.2966
 175  498.267
 176  543.6575
 177  530.1622
 178  604.9448
 179  572.3145
 180  521.8206
 181  472.0441
 182  486.3872
 183  588.2982
 184  580.7362
 185  507.4624
 186  633.8755
 187  682.8639
 188  599.3651
 189  617.7999
 190  692.2048
 191  643.4575
 192  641.9788
 193  534.9792
 194  559.1956
 195  604.7709
 196  602.249
 197  475.0207
 198  497.8092
 199  459.0796
 200  516.5407
 201  497.3299
 202  462.9982
 203  468.965
 204  553.932
 205  497.7043
 206  449.9747
 207  549.9583
 208  562.9628
 209  494.7191
 210  437.7687
 211  510.9113
 212  507.0289
 213  481.8307
 214  574.0088
 215  491.4756
 216  613.9888
 217  601.6362
 218  564.1823
 219  655.0292
 220  601.7263
 221  666.3702
 222  663.1557
 223  669.144
 224  610.9211
 225  633.859
 226  654.5421
 227  621.069
 228  564.647
 229  567.4767
 230  502.642
 231  573.6979
 232  538.8043
 233  537.9446
 234  659.8597
 235  593.1886
 236  629.8473
 237  753.7376
 238  736.7921
 239  684.7509
 240  533.7728
 241  638.6028
 242  701.2086
 243  687.9612
 244  637.9994
 245  666.3008
 246  737.4983
 247  654.3548
 248  719.3496
 249  744.9229
 250  668.8599
 251  701.5552
 252  664.6276
 253  604.0513
 254  590.4567
 255  525.3373
 256  549.1861
 257  668.165
 258  616.4935
 259  603.56
 260  644.4077
 261  610.2519
 262  597.5036
 263  615.9548
 264  707.3566
 265  645.6589
 266  637.6083
 267  668.5305
 268  639.5137
 269  755.0519
 270  780.498
 271  650.7502
 272  620.6006
 273  752.8265
 274  714.4224
 275  682.5421
 276  731.4763
 277  698.3444
 278  585.3437
 279  628.5167
 280  648.5383
 281  525.7411
 282  482.6563
 283  532.5458
 284  637.3551
 285  733.1345
 286  637.9876
 287  578.8951
 288  637.9108
 289  596.7632
 290  456.8708
 291  425.953
 292  428.0156
 293  414.4827
 294  537.1479
 295  570.674
 296  497.3708
 297  470.1669
 298  404.26
 299  601.2277
 300  629.3596
 301  486.8363
 302  438.2852
 303  493.066
 304  514.5922
 305  513.5504
 306  581.7271
 307  582.6616
 308  604.4578
 309  628.4969
 310  562.185
 311  556.8847
 312  569.8819
 313  532.0544
 314  557.5423
 315  578.2027
 316  533.8112
 317  466.069
 318  497.2847
 319  555.0487
 320  462.5401
 321  563.7969
 322  480.4703
 323  547.679
 324  521.912
 325  554.6396
 326  628.3229
 327  665.3238
 328  590.329
 329  457.7624
 330  496.7766
 331  439.1304
 332  568.5289
 333  591.4487
 334  550.7596
 335  461.2325
 336  460.7085
 337  634.4163
 338  589.6119
 339  512.6044
 340  495.5564
 341  483.4466
 342  533.2062
 343  597.1517
 344  538.9566
 345  455.3224
 346  614.5337
 347  547.7923
 348  568.7152
 349  577.0157
 350  534.9046
 351  548.3571
 352  635.1477
 353  584.2949
 354  556.2014
 355  494.4872
 356  538.0999
 357  457.8444
 358  538.6849
 359  579.1973
 360  589.5576
 361  529.1734
 362  465.8871
 363  497.0261
 364  586.7914
 365  584.1192
 366  545.2747
 367  610.0829
 368  691.974
 369  545.3303
 370  581.2803
 371  529.4133
 372  460.016
 373  484.0599
 374  403.2995
 375  395.28
 376  461.2815
 377  586.1097
 378  635.2472
 379  600.5964
 380  534.2896
 381  577.0409
 382  586.9786
 383  545.5123
 384  566.6605
 385  573.1387
 386  647.6699
 387  695.8696
 388  622.1389
 389  632.3355
 390  650.9254
 391  649.2137
 392  709.5406
 393  751.0341
 394  813.8346
 395  815.8957
 396  694.7708
 397  718.1249
 398  640.3956
 399  751.0154
 400  734.307
 401  718.8369
 402  570.2438
 403  672.172
 404  691.3292
 405  716.817
 406  767.7667
 407  742.0928
 408  712.1987
 409  586.2073
 410  508.5063
 411  561.874
 412  620.0225
 413  726.9701
 414  691.4326
 415  714.9985
 416  686.3113
 417  614.7043
 418  629.2988
 419  690.6953
 420  591.3518
 421  578.7624
 422  629.3372
 423  528.8101
 424  611.1613
 425  660.0458
 426  687.5145
 427  759.4875
 428  646.4256
 429  659.89
 430  653.1073
 431  657.2124
 432  565.3974
 433  450.0648
 434  540.6166
 435  689.8781
 436  733.5301
 437  711.4319
 438  594.8079
 439  489.6215
 440  558.2763
 441  639.5962
 442  611.7464
 443  523.8116
 444  565.4095
 445  581.046
 446  590.1937
 447  643.0123
 448  594.4999
 449  615.5055
 450  618.6968
 451  581.056
 452  560.0209
 453  526.0324
 454  613.2291
 455  560.7624
 456  539.3696
 457  645.2266
 458  785.0043
 459  580.7549
 460  484.183
 461  457.6316
 462  576.7625
 463  592.6841
 464  502.0594
 465  450.4448
 466  388.2756
 467  452.7732
 468  501.432
 469  593.6122
 470  608.5469
 471  598.8828
 472  578.7199
 473  573.1546
 474  630.5328
 475  539.9337
 476  441.3617
 477  570.7953
 478  631.0729
 479  661.8707
 480  592.452
 481  635.8541
 482  592.0684
 483  617.7838
 484  565.807
 485  640.1627
 486  579.7499
 487  415.288
 488  583.4224
 489  666.4872
 490  690.3769
 491  677.3889
 492  758.7031
 493  703.9355
 494  491.9466
 495  610.8521
 496  621.0214
 497  500.9293
 498  529.7498
 499  504.8196
 500  656.5426
 501  657.6934
 502  519.2031
 503  504.0705
 504  565.03
 505  591.7567
 506  606.7772
 507  638.4073
 508  738.3745
 509  877.0982
 510  1053.651
 511  1315.863
