# Input file       =  1210235853.118703_cleaned.dat
# Candidate        =  PSR_0332+5434
# Telescope        =  AR
# Epoch_topo       =  58251.359202762767
# Epoch_bary       =  N/A
# T_sample         =  0.002
# Data Folded      =  7340032
# Data Avg         =  -0.0443260948473635
# Data StdDev      =  1.00018033812217 
# Profile Bins     =  512
# Profile Avg      =  -635.769066504704
# Profile StdDev   =  119.754628807708 
# Reduced chi-sqr  =  0.890
# Prob(Noise)      <  0.965   (~0.0 sigma)
# P_topo (ms)      =  714.53518321475   +/- 0.000529
# P'_topo (s/s)    =  -0                +/- 2.79e-10
# P''_topo (s/s^2) =  0                 +/- 1.23e-13
# P_bary (ms)      =  N/A
# P'_bary (s/s)    =  N/A
# P''_bary (s/s^2) =  N/A
# P_orb (s)        =  N/A
# asin(i)/c (s)    =  N/A
# eccentricity     =  N/A
# w (rad)          =  N/A
# T_peri           =  N/A
######################################################
   0  -172.71
   1  -267.8417
   2  -349.3106
   3  -575.7725
   4  -699.5498
   5  -648.2252
   6  -562.7496
   7  -687.8474
   8  -707.9696
   9  -710.5995
  10  -721.4761
  11  -700.7445
  12  -635.4378
  13  -600.2578
  14  -646.7717
  15  -689.2444
  16  -632.6596
  17  -621.4095
  18  -606.7277
  19  -628.7482
  20  -639.6766
  21  -608.8235
  22  -546.7414
  23  -495.7762
  24  -551.4435
  25  -555.3638
  26  -560.8632
  27  -589.5751
  28  -643.6028
  29  -631.5505
  30  -589.8514
  31  -524.6883
  32  -618.8497
  33  -622.1468
  34  -589.6073
  35  -506.4173
  36  -551.0311
  37  -549.7955
  38  -550.8057
  39  -547.7429
  40  -506.1666
  41  -593.0475
  42  -582.1163
  43  -503.7681
  44  -556.4808
  45  -538.6404
  46  -640.7627
  47  -655.5714
  48  -607.3171
  49  -676.5852
  50  -663.7527
  51  -646.2227
  52  -590.5859
  53  -638.0762
  54  -660.5838
  55  -679.0584
  56  -689.4803
  57  -715.1874
  58  -619.3608
  59  -555.4753
  60  -543.6041
  61  -593.8383
  62  -562.077
  63  -504.3391
  64  -596.9902
  65  -687.8663
  66  -706.1703
  67  -570.4185
  68  -623.4763
  69  -705.4991
  70  -624.9786
  71  -612.0733
  72  -661.4808
  73  -642.0616
  74  -617.5128
  75  -597.6454
  76  -627.6349
  77  -650.412
  78  -679.4136
  79  -622.0837
  80  -636.3362
  81  -707.6495
  82  -726.3641
  83  -680.6839
  84  -642.4675
  85  -594.4183
  86  -653.9902
  87  -708.8226
  88  -714.3743
  89  -732.4235
  90  -714.3951
  91  -732.983
  92  -714.9522
  93  -699.8002
  94  -686.606
  95  -692.097
  96  -774.1311
  97  -736.5669
  98  -770.3273
  99  -744.7995
 100  -643.0377
 101  -680.6382
 102  -722.4954
 103  -705.4519
 104  -655.6608
 105  -584.0222
 106  -635.5251
 107  -728.5549
 108  -781.4348
 109  -694.7316
 110  -702.4754
 111  -674.4656
 112  -669.5298
 113  -688.7972
 114  -577.1719
 115  -563.1287
 116  -601.0688
 117  -606.4691
 118  -609.147
 119  -600.3442
 120  -680.1641
 121  -591.0363
 122  -542.958
 123  -586.4079
 124  -582.331
 125  -537.5403
 126  -542.7618
 127  -561.4992
 128  -586.8793
 129  -594.2402
 130  -615.1594
 131  -533.9825
 132  -530.7723
 133  -643.3806
 134  -587.6254
 135  -566.3643
 136  -664.4225
 137  -641.5117
 138  -630.1509
 139  -623.5666
 140  -573.8165
 141  -575.8824
 142  -593.1759
 143  -571.9981
 144  -547.0439
 145  -552.3662
 146  -486.3487
 147  -464.1919
 148  -486.6758
 149  -514.5897
 150  -495.7985
 151  -489.2575
 152  -553.0667
 153  -597.8184
 154  -488.5253
 155  -530.008
 156  -571.8275
 157  -505.3549
 158  -567.6015
 159  -575.8303
 160  -595.1747
 161  -576.2881
 162  -472.2838
 163  -517.1974
 164  -495.9874
 165  -462.1236
 166  -501.11
 167  -470.5967
 168  -505.2335
 169  -520.778
 170  -458.3284
 171  -554.45
 172  -552.2515
 173  -558.7013
 174  -500.7235
 175  -517.1932
 176  -614.6945
 177  -559.6145
 178  -537.6053
 179  -550.7866
 180  -630.4481
 181  -527.1322
 182  -579.4638
 183  -660.5742
 184  -664.2253
 185  -650.3635
 186  -650.1122
 187  -680.1534
 188  -616.6333
 189  -647.845
 190  -626.1232
 191  -609.2778
 192  -680.0584
 193  -658.9926
 194  -617.2272
 195  -579.4256
 196  -637.3638
 197  -696.2166
 198  -641.372
 199  -669.6607
 200  -671.7956
 201  -648.102
 202  -603.2246
 203  -680.9626
 204  -704.2378
 205  -744.7737
 206  -694.7887
 207  -604.2609
 208  -584.8703
 209  -624.9428
 210  -691.6271
 211  -691.0144
 212  -656.0303
 213  -716.3787
 214  -731.989
 215  -735.9212
 216  -702.3381
 217  -763.1398
 218  -780.1021
 219  -798.4597
 220  -806.0417
 221  -756.4885
 222  -738.2495
 223  -641.2803
 224  -753.7932
 225  -762.515
 226  -748.4082
 227  -746.7255
 228  -732.647
 229  -718.3573
 230  -728.3513
 231  -735.6285
 232  -715.5447
 233  -751.7509
 234  -680.9051
 235  -721.3232
 236  -761.4164
 237  -710.2939
 238  -703.7901
 239  -724.5288
 240  -739.3149
 241  -777.6276
 242  -762.5453
 243  -661.5269
 244  -631.706
 245  -683.8226
 246  -678.0131
 247  -696.9258
 248  -734.1923
 249  -723.3257
 250  -702.1478
 251  -709.2621
 252  -662.1515
 253  -714.0772
 254  -745.5099
 255  -653.8285
 256  -631.814
 257  -662.8054
 258  -708.08
 259  -722.3365
 260  -668.2309
 261  -625.2045
 262  -559.8532
 263  -661.7896
 264  -698.785
 265  -630.6425
 266  -636.2532
 267  -631.4695
 268  -589.3699
 269  -598.4514
 270  -657.8742
 271  -608.1962
 272  -641.0174
 273  -631.0529
 274  -648.2015
 275  -629.3679
 276  -568.407
 277  -556.3467
 278  -566.4637
 279  -561.1392
 280  -544.0188
 281  -556.1335
 282  -556.9078
 283  -602.8404
 284  -663.0175
 285  -642.9134
 286  -571.0439
 287  -545.0142
 288  -549.9117
 289  -552.6371
 290  -535.4421
 291  -561.587
 292  -567.1777
 293  -626.39
 294  -595.4715
 295  -620.6138
 296  -676.9705
 297  -686.065
 298  -665.2531
 299  -631.277
 300  -693.581
 301  -655.8239
 302  -648.8049
 303  -606.4169
 304  -665.3758
 305  -629.8544
 306  -655.3088
 307  -717.3767
 308  -686.9067
 309  -627.9729
 310  -618.7513
 311  -515.5297
 312  -649.7209
 313  -715.6484
 314  -710.0061
 315  -709.0576
 316  -627.918
 317  -666.4677
 318  -662.6607
 319  -663.5346
 320  -629.3983
 321  -686.2874
 322  -681.6146
 323  -607.8816
 324  -566.9548
 325  -538.3094
 326  -619.374
 327  -680.5118
 328  -644.8214
 329  -567.6746
 330  -590.715
 331  -590.6166
 332  -606.9998
 333  -580.0859
 334  -540.2733
 335  -561.4058
 336  -585.095
 337  -648.1919
 338  -654.3528
 339  -586.7186
 340  -613.0615
 341  -657.3266
 342  -677.9006
 343  -675.1829
 344  -623.1962
 345  -679.5799
 346  -684.6633
 347  -649.8179
 348  -694.0486
 349  -735.2137
 350  -705.9907
 351  -682.1346
 352  -721.0032
 353  -724.4125
 354  -648.9586
 355  -615.478
 356  -606.8926
 357  -622.8799
 358  -595.8329
 359  -635.0919
 360  -616.9973
 361  -579.2441
 362  -623.5643
 363  -672.9534
 364  -691.1889
 365  -664.8289
 366  -721.1279
 367  -610.5338
 368  -599.6339
 369  -627.8751
 370  -610.5
 371  -547.5013
 372  -612.8828
 373  -615.4237
 374  -596.0455
 375  -627.5833
 376  -669.0998
 377  -659.8979
 378  -638.4752
 379  -604.0069
 380  -608.7062
 381  -659.6765
 382  -687.0119
 383  -671.561
 384  -679.7872
 385  -632.336
 386  -745.5432
 387  -763.0103
 388  -731.907
 389  -735.8065
 390  -657.5715
 391  -643.6282
 392  -684.9738
 393  -705.0975
 394  -715.8116
 395  -687.426
 396  -718.4898
 397  -667.35
 398  -676.7916
 399  -740.8953
 400  -802.7508
 401  -666.4062
 402  -628.8078
 403  -653.0237
 404  -617.2955
 405  -583.9252
 406  -678.8195
 407  -660.397
 408  -622.3241
 409  -568.3754
 410  -525.2824
 411  -489.8599
 412  -512.77
 413  -542.6252
 414  -502.5134
 415  -470.3477
 416  -448.6974
 417  -548.7794
 418  -534.8285
 419  -548.2308
 420  -562.8845
 421  -604.7618
 422  -626.3043
 423  -619.0742
 424  -538.1685
 425  -621.4858
 426  -712.0502
 427  -690.1339
 428  -791.2761
 429  -738.606
 430  -663.2153
 431  -659.1446
 432  -663.4533
 433  -737.2368
 434  -732.9629
 435  -742.734
 436  -694.0538
 437  -606.9688
 438  -624.4815
 439  -735.1642
 440  -736.3098
 441  -700.6578
 442  -706.8458
 443  -716.4075
 444  -669.2289
 445  -739.951
 446  -764.6615
 447  -703.8217
 448  -735.8532
 449  -700.4307
 450  -656.9682
 451  -692.2581
 452  -649.5431
 453  -614.9081
 454  -617.8497
 455  -669.2818
 456  -639.6915
 457  -630.2501
 458  -604.9151
 459  -657.2783
 460  -657.4621
 461  -621.483
 462  -627.0245
 463  -660.2079
 464  -690.4354
 465  -674.6464
 466  -648.7593
 467  -683.3256
 468  -624.9385
 469  -639.4435
 470  -752.4299
 471  -755.0813
 472  -722.8228
 473  -600.6738
 474  -659.3769
 475  -704.0321
 476  -716.7556
 477  -757.7104
 478  -784.8996
 479  -741.2915
 480  -726.5229
 481  -734.2203
 482  -742.8427
 483  -692.774
 484  -660.2034
 485  -727.0162
 486  -669.6083
 487  -667.8453
 488  -720.5403
 489  -700.942
 490  -687.7593
 491  -657.9026
 492  -669.5328
 493  -694.1116
 494  -695.0231
 495  -668.3956
 496  -696.1593
 497  -675.2504
 498  -646.7952
 499  -682.1844
 500  -717.1038
 501  -699.0516
 502  -651.1562
 503  -731.6178
 504  -685.3257
 505  -683.6425
 506  -615.7749
 507  -534.5486
 508  -407.3641
 509  -416.6244
 510  -279.0356
 511  -140.2465
