# Input file       =  1210048853.110351_cleaned.dat
# Candidate        =  PSR_0332+5434
# Telescope        =  AR
# Epoch_topo       =  58249.194850814252
# Epoch_bary       =  N/A
# T_sample         =  0.002
# Data Folded      =  7208960
# Data Avg         =  0.0650359557938261
# Data StdDev      =  1.00009245347714 
# Profile Bins     =  512
# Profile Avg      =  915.642550912724 
# Profile StdDev   =  118.670146246928 
# Reduced chi-sqr  =  2.520
# Prob(Noise)      <  1.36e-68   (~17.5 sigma)
# P_topo (ms)      =  714.537254769799  +/- 9.12e-05
# P'_topo (s/s)    =  -0                +/- 4.9e-11
# P''_topo (s/s^2) =  0                 +/- 2.2e-14
# P_bary (ms)      =  N/A
# P'_bary (s/s)    =  N/A
# P''_bary (s/s^2) =  N/A
# P_orb (s)        =  N/A
# asin(i)/c (s)    =  N/A
# eccentricity     =  N/A
# w (rad)          =  N/A
# T_peri           =  N/A
######################################################
   0  1800.023
   1  1697.082
   2  1500.914
   3  1258.178
   4  956.2184
   5  854.3754
   6  856.4245
   7  897.5546
   8  956.9377
   9  1106.487
  10  1061.464
  11  988.4496
  12  1051.44
  13  1050.14
  14  970.1845
  15  1061.298
  16  1096.481
  17  1037.507
  18  980.3848
  19  911.3339
  20  846.8652
  21  824.5032
  22  894.5785
  23  864.715
  24  876.298
  25  1035.14
  26  1031.749
  27  971.4948
  28  943.1653
  29  917.7264
  30  831.2859
  31  809.5604
  32  863.8531
  33  779.542
  34  895.8317
  35  985.8903
  36  1052.381
  37  1024.707
  38  952.4637
  39  827.4808
  40  754.4465
  41  778.2023
  42  863.7415
  43  1049.434
  44  1034.677
  45  1032.521
  46  830.6957
  47  760.9527
  48  707.995
  49  725.9926
  50  848.1099
  51  912.5044
  52  939.653
  53  759.1165
  54  820.0228
  55  868.3608
  56  842.0908
  57  846.8749
  58  963.3807
  59  1037.924
  60  908.6735
  61  849.9795
  62  971.0555
  63  912.1129
  64  791.1292
  65  846.8783
  66  787.0396
  67  872.8929
  68  921.7341
  69  1039.598
  70  987.2088
  71  1008.995
  72  902.6249
  73  802.6151
  74  823.5951
  75  887.5977
  76  1039.907
  77  958.8875
  78  891.9196
  79  907.9124
  80  833.2118
  81  864.5294
  82  897.0163
  83  907.746
  84  848.9718
  85  899.5741
  86  956.3292
  87  940.9796
  88  903.7665
  89  850.6263
  90  970.5121
  91  972.0139
  92  936.2391
  93  926.6104
  94  953.7053
  95  903.6151
  96  859.9493
  97  814.8509
  98  787.0453
  99  809.9122
 100  880.4186
 101  899.5568
 102  904.9822
 103  828.3666
 104  891.4845
 105  977.3328
 106  875.8478
 107  861.6835
 108  773.4621
 109  801.4659
 110  764.1329
 111  802.6471
 112  831.5561
 113  843.2552
 114  841.5988
 115  829.1724
 116  869.6864
 117  882.164
 118  892.385
 119  728.9814
 120  843.4429
 121  853.7949
 122  714.677
 123  786.9188
 124  782.2507
 125  887.8114
 126  947.634
 127  951.3171
 128  842.0099
 129  735.6251
 130  780.2466
 131  804.8146
 132  774.6355
 133  786.4452
 134  818.2568
 135  780.1931
 136  720.3757
 137  713.7275
 138  679.0327
 139  673.9515
 140  644.5703
 141  745.9473
 142  853.2824
 143  844.0911
 144  954.2014
 145  927.6416
 146  809.9148
 147  631.7566
 148  627.3068
 149  753.7532
 150  782.5693
 151  856.122
 152  951.0049
 153  836.6927
 154  795.9832
 155  735.4113
 156  778.6929
 157  885.0968
 158  788.007
 159  881.1117
 160  971.0991
 161  1018.676
 162  933.7241
 163  859.2915
 164  790.1026
 165  811.8508
 166  881.2089
 167  844.171
 168  875.1595
 169  899.9042
 170  893.4003
 171  913.2815
 172  771.739
 173  783.98
 174  871.3848
 175  887.2281
 176  775.7026
 177  864.2513
 178  813.9307
 179  851.1083
 180  905.1771
 181  830.172
 182  808.3275
 183  848.564
 184  869.6235
 185  801.0025
 186  777.0848
 187  820.7451
 188  867.3712
 189  883.9019
 190  759.0674
 191  821.4461
 192  886.6027
 193  818.3182
 194  797.6758
 195  733.7798
 196  673.4338
 197  767.9457
 198  885.5256
 199  880.418
 200  884.9823
 201  932.405
 202  942.4882
 203  917.3185
 204  889.6069
 205  788.1014
 206  826.0065
 207  852.6116
 208  838.6066
 209  904.866
 210  1001.665
 211  915.6143
 212  855.5212
 213  916.1212
 214  928.6695
 215  789.4223
 216  841.7484
 217  1021.375
 218  909.5051
 219  1036.357
 220  1069.49
 221  947.0665
 222  803.4673
 223  785.6525
 224  873.1211
 225  959.071
 226  923.8948
 227  873.5498
 228  804.1566
 229  832.5732
 230  698.513
 231  763.8427
 232  753.8225
 233  833.1097
 234  910.1373
 235  861.3939
 236  827.306
 237  870.6751
 238  839.5518
 239  798.3561
 240  915.5168
 241  1018.213
 242  946.449
 243  958.7731
 244  921.5379
 245  866.2227
 246  882.9381
 247  946.2257
 248  888.7509
 249  868.1183
 250  953.1407
 251  930.8766
 252  818.4767
 253  749.6039
 254  888.7941
 255  946.2136
 256  886.3461
 257  880.8978
 258  876.9597
 259  793.8088
 260  916.5637
 261  843.2039
 262  707.6995
 263  688.2877
 264  823.6747
 265  827.0283
 266  815.3735
 267  886.6017
 268  872.1155
 269  897.0414
 270  857.7088
 271  837.2532
 272  730.4771
 273  703.1732
 274  863.7818
 275  922.4083
 276  803.5677
 277  683.8251
 278  633.3776
 279  647.6363
 280  819.0818
 281  822.6498
 282  879.9323
 283  880.1213
 284  857.8096
 285  778.5568
 286  827.1196
 287  830.7856
 288  807.1524
 289  813.6389
 290  815.891
 291  825.176
 292  800.6844
 293  787.3816
 294  820.274
 295  814.1567
 296  774.6854
 297  740.1604
 298  784.6305
 299  708.4846
 300  752.4437
 301  820.6382
 302  856.4911
 303  847.4506
 304  807.3391
 305  862.663
 306  816.1574
 307  881.3406
 308  896.1501
 309  819.2766
 310  879.9057
 311  914.8024
 312  797.1155
 313  780.9979
 314  731.9424
 315  815.2545
 316  759.4267
 317  941.689
 318  880.1312
 319  734.1472
 320  720.0834
 321  704.5781
 322  768.0152
 323  844.6012
 324  820.7747
 325  742.66
 326  808.6512
 327  749.9431
 328  764.5009
 329  743.6973
 330  777.6001
 331  787.4674
 332  962.6085
 333  950.6331
 334  869.0114
 335  837.994
 336  945.082
 337  997.4872
 338  861.1389
 339  856.6534
 340  869.3326
 341  940.9744
 342  886.3372
 343  840.9793
 344  806.6148
 345  853.6654
 346  900.9618
 347  852.291
 348  834.2168
 349  952.8506
 350  1027.797
 351  949.7405
 352  870.5762
 353  994.6229
 354  955.947
 355  876.7106
 356  963.9383
 357  945.7101
 358  926.2741
 359  951.6883
 360  1022.479
 361  1015.417
 362  960.5544
 363  1141.406
 364  1054.348
 365  933.3964
 366  974.1298
 367  1008.953
 368  974.5976
 369  834.6189
 370  790.6745
 371  887.8632
 372  951.4808
 373  1031.828
 374  959.2145
 375  1068.038
 376  945.0013
 377  931.6038
 378  893.2845
 379  995.3358
 380  1062.977
 381  1099.801
 382  1129.413
 383  1118.422
 384  1121.262
 385  1049.483
 386  991.027
 387  968.9603
 388  933.0494
 389  1013.414
 390  1098.411
 391  1165.039
 392  1139.767
 393  938.6499
 394  895.7422
 395  984.9235
 396  916.6378
 397  1015.463
 398  1060.805
 399  1097.781
 400  1011.46
 401  886.7399
 402  884.0539
 403  845.4329
 404  866.393
 405  1073.355
 406  1084.479
 407  982.6233
 408  1100.123
 409  1125.168
 410  1104.098
 411  1027.784
 412  988.89
 413  1125.351
 414  1048.365
 415  1052.27
 416  1126.847
 417  1117.26
 418  1065.213
 419  961.1213
 420  986.7574
 421  1068.076
 422  1056.875
 423  1060.324
 424  1096.648
 425  1079.06
 426  992.5654
 427  932.749
 428  1007.563
 429  1062.801
 430  1035.962
 431  1050.88
 432  1052.679
 433  945.3887
 434  921.8326
 435  1044.416
 436  1087.621
 437  971.5989
 438  1092.984
 439  1165.28
 440  1069.07
 441  977.73
 442  1004.391
 443  925.1089
 444  912.8058
 445  883.8201
 446  1015.762
 447  1038.91
 448  987.1412
 449  966.5334
 450  973.6306
 451  982.7018
 452  950.3968
 453  1026.898
 454  1065.02
 455  1091.472
 456  1022.129
 457  987.8119
 458  991.205
 459  918.3016
 460  874.1114
 461  899.924
 462  927.0487
 463  1008.759
 464  1051.949
 465  1084.476
 466  1017.243
 467  869.4752
 468  953.1336
 469  937.7693
 470  1025.605
 471  1047.47
 472  1076.255
 473  1128.675
 474  1132.503
 475  1107.823
 476  1064.425
 477  805.2917
 478  916.9199
 479  918.8922
 480  1045.251
 481  1134.798
 482  1077.223
 483  985.3636
 484  879.6844
 485  898.1984
 486  912.5744
 487  958.1464
 488  1008.897
 489  1052.139
 490  1059.976
 491  1058.513
 492  1054.789
 493  935.2835
 494  1039.627
 495  999.6238
 496  946.5192
 497  1045.677
 498  1163.302
 499  1201.22
 500  1104.455
 501  995.8683
 502  957.74
 503  1056.639
 504  972.1324
 505  1131.536
 506  1185.389
 507  1192.204
 508  1308.303
 509  1344.411
 510  1604.206
 511  1741.577
