# Input file       =  1210839012.112088_cleaned.dat
# Candidate        =  PSR_0332+5434
# Telescope        =  AR
# Epoch_topo       =  58258.340209630645
# Epoch_bary       =  N/A
# T_sample         =  0.002
# Data Folded      =  7340032
# Data Avg         =  0.0559801566151442
# Data StdDev      =  1.00003272102084 
# Profile Bins     =  512
# Profile Avg      =  802.548283201323 
# Profile StdDev   =  119.736954163944 
# Reduced chi-sqr  =  1.224
# Prob(Noise)      <  0.000386   (~3.4 sigma)
# P_topo (ms)      =  714.528357717898  +/- 0.000189
# P'_topo (s/s)    =  -0                +/- 1e-10
# P''_topo (s/s^2) =  0                 +/- 4.41e-14
# P_bary (ms)      =  N/A
# P'_bary (s/s)    =  N/A
# P''_bary (s/s^2) =  N/A
# P_orb (s)        =  N/A
# asin(i)/c (s)    =  N/A
# eccentricity     =  N/A
# w (rad)          =  N/A
# T_peri           =  N/A
######################################################
   0  1448.792
   1  1352.218
   2  1222.968
   3  1099.363
   4  960.4688
   5  761.3604
   6  793.5165
   7  777.3171
   8  697.051
   9  812.1168
  10  831.362
  11  834.2311
  12  847.4403
  13  970.2411
  14  1036.462
  15  1014.265
  16  970.085
  17  880.0015
  18  876.3048
  19  851.3602
  20  958.8649
  21  937.9218
  22  834.8368
  23  876.3104
  24  871.0867
  25  870.0198
  26  855.2277
  27  930.2816
  28  987.3598
  29  943.801
  30  841.4014
  31  815.0214
  32  832.2095
  33  794.709
  34  753.6396
  35  719.8066
  36  714.0192
  37  662.4946
  38  728.8694
  39  799.559
  40  837.375
  41  773.6268
  42  763.2243
  43  807.9249
  44  854.3362
  45  778.074
  46  824.4869
  47  814.554
  48  778.2415
  49  853.1309
  50  870.6838
  51  881.3145
  52  886.6765
  53  879.8735
  54  759.0207
  55  759.4578
  56  887.5461
  57  792.302
  58  841.1823
  59  854.8049
  60  869.6581
  61  877.4399
  62  942.1816
  63  942.1342
  64  948.4403
  65  843.3287
  66  868.6862
  67  891.9384
  68  884.1086
  69  844.7097
  70  839.7825
  71  756.9227
  72  736.8147
  73  671.4584
  74  728.4471
  75  829.5128
  76  806.3839
  77  831.0878
  78  640.8344
  79  746.8862
  80  754.8188
  81  740.9894
  82  750.3404
  83  766.0248
  84  817.1547
  85  841.7477
  86  795.1891
  87  777.7689
  88  842.1553
  89  866.4618
  90  787.4664
  91  743.0261
  92  831.2349
  93  963.5246
  94  884.9971
  95  835.0281
  96  824.4817
  97  937.123
  98  972.3311
  99  992.9958
 100  854.592
 101  861.2518
 102  894.3776
 103  849.627
 104  860.4479
 105  928.7689
 106  868.3291
 107  910.3409
 108  930.133
 109  759.3384
 110  865.9473
 111  942.0681
 112  854.1377
 113  791.3624
 114  933.6461
 115  953.382
 116  832.0135
 117  707.0393
 118  771.5345
 119  765.36
 120  898.5303
 121  923.7686
 122  924.5793
 123  854.8239
 124  825.2773
 125  837.1174
 126  829.2834
 127  785.7408
 128  840.3789
 129  858.9302
 130  810.9524
 131  859.4356
 132  825.7451
 133  753.4447
 134  831.2158
 135  830.19
 136  670.0299
 137  727.4861
 138  655.0403
 139  776.5554
 140  843.0833
 141  877.9647
 142  872.1844
 143  746.4343
 144  652.7358
 145  793.0738
 146  826.6198
 147  803.8112
 148  681.016
 149  767.636
 150  838.8842
 151  813.3122
 152  753.3387
 153  783.0743
 154  731.9868
 155  777.1324
 156  731.5324
 157  694.0145
 158  727.2593
 159  653.8595
 160  622.8898
 161  675.4851
 162  619.7955
 163  678.3521
 164  725.1441
 165  662.5422
 166  605.0298
 167  566.4356
 168  578.4316
 169  650.7378
 170  662.793
 171  639.3753
 172  613.0605
 173  648.7821
 174  667.2055
 175  754.3701
 176  803.6526
 177  783.2858
 178  684.9873
 179  680.9637
 180  726.5879
 181  817.472
 182  882.6221
 183  848.9013
 184  813.8002
 185  746.963
 186  795.9528
 187  765.3624
 188  756.401
 189  950.7263
 190  921.9323
 191  912.2637
 192  918.1088
 193  945.882
 194  848.7935
 195  810.8683
 196  920.2751
 197  919.1259
 198  889.8996
 199  958.562
 200  926.9438
 201  801.9221
 202  716.6931
 203  729.6316
 204  743.2344
 205  696.6683
 206  760.7427
 207  788.5775
 208  801.5636
 209  737.8048
 210  706.2801
 211  790.6083
 212  801.7051
 213  696.9876
 214  608.1186
 215  716.0821
 216  861.6345
 217  883.1682
 218  788.9021
 219  746.837
 220  787.6962
 221  824.3706
 222  770.1141
 223  766.5865
 224  826.3255
 225  852.4991
 226  795.855
 227  841.3044
 228  765.0918
 229  765.988
 230  751.4329
 231  779.7048
 232  836.8329
 233  895.9563
 234  855.6854
 235  833.2979
 236  751.4936
 237  763.4417
 238  779.7571
 239  638.4752
 240  709.4796
 241  827.5264
 242  769.9951
 243  745.4367
 244  817.2338
 245  827.8145
 246  795.6906
 247  775.2177
 248  819.1035
 249  832.4234
 250  815.0403
 251  795.7961
 252  769.811
 253  751.2231
 254  803.2038
 255  861.7958
 256  865.1894
 257  826.3629
 258  805.1321
 259  922.2051
 260  781.6555
 261  722.6859
 262  804.4185
 263  847.5262
 264  862.0486
 265  838.0266
 266  729.7795
 267  747.3898
 268  838.8152
 269  800.1548
 270  793.0211
 271  802.2678
 272  768.4948
 273  755.442
 274  771.5497
 275  741.4536
 276  812.7314
 277  860.561
 278  817.5643
 279  743.4248
 280  771.0955
 281  815.7595
 282  842.6285
 283  874.4647
 284  908.2603
 285  862.9124
 286  858.4225
 287  779.2429
 288  799.4224
 289  716.4254
 290  821.9079
 291  844.7907
 292  864.8875
 293  747.7692
 294  747.327
 295  852.7499
 296  848.1274
 297  754.7535
 298  815.3941
 299  747.5887
 300  755.9985
 301  820.9959
 302  737.8769
 303  715.7871
 304  779.8699
 305  741.142
 306  780.3376
 307  847.8044
 308  851.6026
 309  806.6481
 310  813.3693
 311  777.209
 312  793.6751
 313  846.1765
 314  846.1675
 315  879.0311
 316  937.5959
 317  875.1874
 318  830.3715
 319  831.3497
 320  827.7716
 321  927.7994
 322  960.6971
 323  923.6827
 324  871.9504
 325  924.8085
 326  864.1161
 327  878.7329
 328  950.2936
 329  911.4517
 330  874.8303
 331  843.4036
 332  773.8215
 333  804.5591
 334  843.4308
 335  780.384
 336  797.4772
 337  784.2227
 338  871.1661
 339  867.3154
 340  797.1562
 341  784.437
 342  830.4906
 343  840.9144
 344  865.0233
 345  816.4337
 346  827.8008
 347  784.8777
 348  771.6838
 349  806.6794
 350  799.7653
 351  741.0767
 352  701.731
 353  707.4273
 354  737.2235
 355  765.3762
 356  840.2184
 357  897.6583
 358  811.5095
 359  884.4448
 360  840.8704
 361  826.9849
 362  864.4641
 363  955.2362
 364  926.9
 365  875.3431
 366  772.8481
 367  725.3563
 368  751.8824
 369  765.4407
 370  871.8384
 371  788.1193
 372  742.4375
 373  822.4588
 374  818.2786
 375  842.2786
 376  799.6793
 377  793.9144
 378  806.5887
 379  838.4373
 380  713.1961
 381  699.9294
 382  841.2878
 383  810.3692
 384  734.691
 385  711.1832
 386  693.554
 387  759.8082
 388  837.642
 389  772.3392
 390  760.2437
 391  786.6769
 392  929.257
 393  826.2211
 394  851.4882
 395  889.9064
 396  827.1607
 397  828.7816
 398  749.6142
 399  760.1151
 400  806.2092
 401  804.6197
 402  859.5251
 403  855.3428
 404  731.7318
 405  749.262
 406  812.9426
 407  796.3354
 408  701.9333
 409  794.4131
 410  772.0886
 411  750.7054
 412  826.0819
 413  798.3832
 414  707.226
 415  615.9851
 416  670.6731
 417  711.8574
 418  625.9599
 419  631.0328
 420  646.5646
 421  602.4194
 422  618.423
 423  677.8267
 424  684.364
 425  718.4169
 426  620.2639
 427  639.9662
 428  707.7047
 429  701.8568
 430  719.5667
 431  775.9089
 432  764.9479
 433  769.9618
 434  790.5977
 435  862.5547
 436  885.2595
 437  803.0218
 438  834.3469
 439  772.4171
 440  845.5321
 441  787.1567
 442  714.2402
 443  800.9943
 444  771.1805
 445  763.5905
 446  744.3077
 447  704.3796
 448  777.8346
 449  821.7393
 450  712.2595
 451  723.5179
 452  742.0555
 453  773.3152
 454  674.3334
 455  731.1615
 456  739.1729
 457  779.3713
 458  779.8976
 459  714.6871
 460  664.0314
 461  766.1466
 462  771.4038
 463  666.9949
 464  647.9193
 465  712.9685
 466  694.1099
 467  593.1558
 468  623.7558
 469  725.4022
 470  656.1479
 471  673.4927
 472  639.4119
 473  607.8394
 474  776.5515
 475  790.7939
 476  697.9445
 477  733.4323
 478  851.9189
 479  740.5486
 480  678.0967
 481  741.0099
 482  733.6023
 483  687.9955
 484  734.1562
 485  772.2288
 486  745.521
 487  823.7917
 488  796.5317
 489  766.4537
 490  840.8391
 491  839.022
 492  887.1627
 493  882.7518
 494  813.4749
 495  746.0586
 496  787.717
 497  839.8848
 498  763.8655
 499  800.2052
 500  824.4131
 501  710.5088
 502  677.7207
 503  764.5438
 504  793.5169
 505  814.2858
 506  797.6932
 507  697.1852
 508  848.5315
 509  1058.538
 510  1194.896
 511  1296.811
