# Input file       =  1211858286.131636_cleaned.dat
# Candidate        =  PSR_0332+5434
# Telescope        =  AR
# Epoch_topo       =  58270.137362634676
# Epoch_bary       =  N/A
# T_sample         =  0.002
# Data Folded      =  7143424
# Data Avg         =  0.0657277408600173
# Data StdDev      =  1.0000563130323  
# Profile Bins     =  512
# Profile Avg      =  917.016390442098 
# Profile StdDev   =  118.125236097531 
# Reduced chi-sqr  =  1.420
# Prob(Noise)      <  1.19e-09   (~6.0 sigma)
# P_topo (ms)      =  714.516795990377  +/- 0.000336
# P'_topo (s/s)    =  -0                +/- 1.82e-10
# P''_topo (s/s^2) =  0                 +/- 8.27e-14
# P_bary (ms)      =  N/A
# P'_bary (s/s)    =  N/A
# P''_bary (s/s^2) =  N/A
# P_orb (s)        =  N/A
# asin(i)/c (s)    =  N/A
# eccentricity     =  N/A
# w (rad)          =  N/A
# T_peri           =  N/A
######################################################
   0  1625.243
   1  1571.771
   2  1381.731
   3  1109.068
   4  1056.426
   5  1075.131
   6  1060.066
   7  977.5612
   8  926.5285
   9  984.2151
  10  916.9092
  11  1035.706
  12  965.0701
  13  845.5531
  14  987.0479
  15  995.8836
  16  947.6072
  17  921.6862
  18  1010.068
  19  1094.155
  20  930.7292
  21  895.7622
  22  961.5688
  23  962.741
  24  898.4034
  25  941.0239
  26  1054.164
  27  993.3859
  28  983.395
  29  1031.705
  30  997.818
  31  969.0177
  32  928.0223
  33  1012.22
  34  1022.724
  35  889.9595
  36  955.7463
  37  952.6224
  38  833.7632
  39  886.8082
  40  906.9676
  41  937.8895
  42  897.8768
  43  906.6562
  44  875.8441
  45  896.6224
  46  978.8503
  47  873.0157
  48  871.2841
  49  899.418
  50  882.7684
  51  901.3832
  52  933.9579
  53  990.7435
  54  992.1475
  55  951.8329
  56  823.9914
  57  792.3982
  58  898.0872
  59  838.9219
  60  794.5656
  61  878.2252
  62  839.3342
  63  807.2323
  64  898.6389
  65  1029.497
  66  902.6754
  67  905.4324
  68  985.2344
  69  934.0672
  70  920.8407
  71  921.4136
  72  977.68
  73  1001.461
  74  775.1234
  75  695.4626
  76  898.6669
  77  930.6964
  78  756.8237
  79  785.7889
  80  847.2919
  81  907.0927
  82  902.8485
  83  1008.073
  84  957.944
  85  933.3563
  86  976.1038
  87  961.9188
  88  970.6093
  89  1006.692
  90  970.9609
  91  933.6951
  92  989.0309
  93  1025.872
  94  926.938
  95  930.2255
  96  955.1768
  97  889.9798
  98  879.1822
  99  952.8517
 100  922.8406
 101  830.6015
 102  897.9506
 103  887.4839
 104  953.0972
 105  964.7811
 106  886.6441
 107  872.8127
 108  882.7219
 109  924.9342
 110  967.4752
 111  930.3576
 112  825.4676
 113  811.0179
 114  853.2581
 115  885.7118
 116  915.7515
 117  931.2952
 118  1005.661
 119  974.9822
 120  895.7929
 121  901.1346
 122  900.3212
 123  845.1829
 124  843.6304
 125  895.7527
 126  853.418
 127  915.8168
 128  848.9115
 129  825.6971
 130  822.7518
 131  784.4907
 132  830.4114
 133  884.502
 134  1035.643
 135  945.3909
 136  817.7909
 137  882.2588
 138  845.772
 139  817.4719
 140  867.2631
 141  906.0262
 142  872.3755
 143  813.1995
 144  784.5662
 145  773.3575
 146  880.3696
 147  935.5522
 148  837.124
 149  767.8488
 150  833.918
 151  842.1294
 152  917.5742
 153  836.2769
 154  873.0845
 155  908.2589
 156  865.1879
 157  797.5214
 158  764.0347
 159  857.9257
 160  799.0602
 161  870.7576
 162  883.2899
 163  819.9514
 164  829.8716
 165  839.675
 166  934.2451
 167  1021.429
 168  857.5379
 169  888.4092
 170  845.063
 171  906.9129
 172  895.4298
 173  909.4397
 174  758.5943
 175  769.6496
 176  935.1207
 177  924.585
 178  877.9866
 179  997.5874
 180  996.8302
 181  1053.368
 182  1023.34
 183  897.0016
 184  921.2087
 185  949.522
 186  945.7467
 187  1052.394
 188  1032.076
 189  892.8303
 190  846.3226
 191  891.2763
 192  1007.21
 193  989.3699
 194  969.7852
 195  949.468
 196  1004.709
 197  980.0428
 198  885.3519
 199  803.5054
 200  895.2299
 201  946.8381
 202  930.9128
 203  915.3017
 204  812.4
 205  887.2293
 206  939.125
 207  947.2955
 208  919.0011
 209  896.9112
 210  1123.283
 211  1058.234
 212  953.1971
 213  894.8348
 214  982.2795
 215  1002.528
 216  1025.686
 217  939.3942
 218  1029.625
 219  922.8605
 220  977.1525
 221  956.0529
 222  924.6848
 223  1000.883
 224  903.6547
 225  850.0388
 226  954.2578
 227  916.6863
 228  917.0139
 229  998.0372
 230  933.6228
 231  919.2368
 232  876.0756
 233  940.4642
 234  1037.996
 235  1060.843
 236  1019.401
 237  939.2736
 238  917.6458
 239  877.6132
 240  857.5432
 241  869.1216
 242  916.623
 243  984.73
 244  878.9374
 245  851.3279
 246  813.4649
 247  874.7639
 248  914.4149
 249  909.0999
 250  947.0557
 251  947.279
 252  844.8183
 253  888.3629
 254  984.7184
 255  966.9536
 256  858.9659
 257  814.9776
 258  977.2061
 259  931.5968
 260  833.4393
 261  936.1212
 262  921.4778
 263  938.5387
 264  933.1713
 265  965.896
 266  977.9324
 267  968.1643
 268  1028.398
 269  954.7755
 270  984.0472
 271  1011.456
 272  976.0646
 273  940.6999
 274  934.0972
 275  1080.056
 276  1033.185
 277  833.6864
 278  799.8372
 279  872.2401
 280  826.4242
 281  795.1825
 282  967.9598
 283  1119.149
 284  1047.185
 285  962.2783
 286  910.6352
 287  865.0348
 288  792.3583
 289  881.9871
 290  922.913
 291  953.7303
 292  922.0349
 293  740.8367
 294  820.6881
 295  1012.003
 296  1040.803
 297  839.2772
 298  940.2998
 299  1018.001
 300  1010.956
 301  939.1411
 302  841.9756
 303  822.9326
 304  743.4771
 305  823.6823
 306  813.4346
 307  918.6826
 308  842.7761
 309  968.861
 310  911.9384
 311  914.2073
 312  929.5485
 313  885.1417
 314  861.1934
 315  868.9527
 316  786.5336
 317  737.8417
 318  840.8705
 319  967.7142
 320  926.9629
 321  932.334
 322  927.7092
 323  765.8803
 324  792.8103
 325  870.9645
 326  898.682
 327  816.2014
 328  885.8893
 329  924.0981
 330  984.0623
 331  915.3603
 332  921.0921
 333  918.0872
 334  948.5094
 335  855.6362
 336  864.3541
 337  844.4223
 338  837.1657
 339  852.1534
 340  884.9766
 341  973.932
 342  951.8651
 343  803.4569
 344  857.7441
 345  882.389
 346  913.0037
 347  888.1567
 348  880.3774
 349  1057.636
 350  1012.914
 351  951.3128
 352  886.8312
 353  977.5219
 354  933.6989
 355  857.9578
 356  977.3804
 357  984.2361
 358  978.4286
 359  854.7449
 360  763.6194
 361  1011.529
 362  960.5202
 363  880.3332
 364  899.3191
 365  1010.528
 366  985.5859
 367  918.3959
 368  851.5703
 369  966.2072
 370  934.1095
 371  920.6346
 372  972.5328
 373  896.3757
 374  879.6732
 375  937.229
 376  947.7549
 377  912.0494
 378  970.9431
 379  966.5177
 380  797.1704
 381  706.2028
 382  900.5059
 383  998.1264
 384  957.0867
 385  945.0417
 386  974.9863
 387  838.3081
 388  845.4775
 389  856.3763
 390  748.9436
 391  783.1675
 392  908.4827
 393  964.445
 394  945.0076
 395  895.0176
 396  888.8877
 397  942.8543
 398  922.6941
 399  901.5129
 400  881.1001
 401  928.0933
 402  1054.997
 403  1005.933
 404  947.3108
 405  938.2845
 406  889.1252
 407  775.1578
 408  928.9714
 409  932.209
 410  855.0219
 411  861.3882
 412  785.4531
 413  880.4861
 414  926.1783
 415  937.9291
 416  911.726
 417  796.518
 418  751.4111
 419  818.5316
 420  786.8785
 421  864.3387
 422  821.7014
 423  849.2683
 424  784.1016
 425  774.4776
 426  785.9902
 427  753.4557
 428  777.7005
 429  710.7131
 430  885.4021
 431  855.9263
 432  839.3006
 433  847.5452
 434  921.6245
 435  832.8022
 436  798.9031
 437  848.3157
 438  825.3881
 439  859.6035
 440  832.2383
 441  794.0961
 442  806.8774
 443  626.9669
 444  621.5548
 445  832.5523
 446  836.7612
 447  782.1545
 448  872.0202
 449  917.0787
 450  871.4396
 451  871.2041
 452  792.5624
 453  711.9011
 454  719.5283
 455  808.5677
 456  823.4019
 457  766.7795
 458  817.6295
 459  868.9088
 460  882.7322
 461  886.537
 462  846.8878
 463  742.5759
 464  798.2261
 465  921.4842
 466  920.451
 467  978.4387
 468  1027.899
 469  1054.65
 470  985.3136
 471  906.0829
 472  962.9202
 473  1042.057
 474  1054.726
 475  918.8402
 476  888.3814
 477  921.8072
 478  989.8104
 479  997.8843
 480  1039.899
 481  940.36
 482  995.8191
 483  1028.736
 484  953.1041
 485  880.0347
 486  909.8242
 487  959.4393
 488  813.2779
 489  919.2496
 490  965.4753
 491  965.1276
 492  1056.938
 493  924.2523
 494  938.4051
 495  1043.246
 496  1070.786
 497  1090.553
 498  983.8419
 499  936.9929
 500  1109.696
 501  1126.027
 502  968.1439
 503  844.8773
 504  989.14
 505  1018.6
 506  1015.598
 507  1169.004
 508  1215.798
 509  1227.693
 510  1419.072
 511  1547.938
