# Input file       =  1211513688.100121_cleaned.dat
# Candidate        =  PSR_0332+5434
# Telescope        =  AR
# Epoch_topo       =  58266.148959492144
# Epoch_bary       =  N/A
# T_sample         =  0.002
# Data Folded      =  7143424
# Data Avg         =  0.063706393754876
# Data StdDev      =  1.00015883139117 
# Profile Bins     =  512
# Profile Avg      =  888.833521191188 
# Profile StdDev   =  118.137345420963 
# Reduced chi-sqr  =  1.635
# Prob(Noise)      <  4.87e-18   (~8.6 sigma)
# P_topo (ms)      =  714.520686168708  +/- 8.91e-05
# P'_topo (s/s)    =  -0                +/- 4.83e-11
# P''_topo (s/s^2) =  0                 +/- 2.19e-14
# P_bary (ms)      =  N/A
# P'_bary (s/s)    =  N/A
# P''_bary (s/s^2) =  N/A
# P_orb (s)        =  N/A
# asin(i)/c (s)    =  N/A
# eccentricity     =  N/A
# w (rad)          =  N/A
# T_peri           =  N/A
######################################################
   0  1571.34
   1  1618.138
   2  1330.378
   3  1032.228
   4  902.6306
   5  891.905
   6  834.9101
   7  863.9319
   8  904.5156
   9  960.7029
  10  966.7103
  11  878.1245
  12  847.2959
  13  912.2858
  14  969.1716
  15  965.6804
  16  964.1748
  17  876.1783
  18  927.7196
  19  942.4139
  20  737.149
  21  762.1836
  22  910.9587
  23  898.9034
  24  920.3231
  25  901.3151
  26  973.0383
  27  976.4771
  28  865.3475
  29  775.642
  30  715.3043
  31  854.5331
  32  995.4952
  33  994.4394
  34  1028.905
  35  1115.451
  36  982.3301
  37  913.4769
  38  974.8884
  39  1024.007
  40  1003.13
  41  973.5695
  42  1109.472
  43  1001.187
  44  1039.898
  45  868.0593
  46  894.3375
  47  870.7057
  48  1055.059
  49  1054.242
  50  909.493
  51  942.2288
  52  927.0939
  53  954.4091
  54  952.5376
  55  932.8802
  56  971.0402
  57  915.3433
  58  923.5052
  59  877.2247
  60  960.0244
  61  917.4299
  62  861.4752
  63  879.8664
  64  836.4804
  65  819.9451
  66  906.563
  67  932.4843
  68  917.8597
  69  967.1748
  70  912.3683
  71  908.3945
  72  1026.098
  73  977.3001
  74  997.7311
  75  1001.641
  76  970.3405
  77  937.1968
  78  934.9693
  79  927.1788
  80  802.3173
  81  810.7913
  82  932.7285
  83  1024.757
  84  966.3218
  85  1001.238
  86  1026.295
  87  1088.062
  88  987.3471
  89  876.7802
  90  917.0768
  91  1058.118
  92  971.6831
  93  958.4483
  94  909.2165
  95  883.8798
  96  946.0473
  97  928.9341
  98  882.3072
  99  864.4554
 100  1063.357
 101  1008.285
 102  829.8962
 103  971.687
 104  1057.835
 105  1067.69
 106  1028.863
 107  1008.532
 108  951.2016
 109  1083.895
 110  949.1241
 111  916.8907
 112  884.2601
 113  961.1165
 114  1033.28
 115  943.9935
 116  1058.776
 117  1037.328
 118  1116.555
 119  906.6478
 120  822.7728
 121  942.5135
 122  932.9147
 123  912.4938
 124  993.6985
 125  927.6201
 126  854.9912
 127  939.1831
 128  975.519
 129  878.8581
 130  860.2562
 131  919.3557
 132  940.6919
 133  1027.892
 134  922.3412
 135  851.1656
 136  920.3486
 137  1094.447
 138  992.5416
 139  946.8713
 140  906.749
 141  835.9816
 142  929.0063
 143  1056.735
 144  937.0167
 145  1002.391
 146  933.3737
 147  1024.811
 148  940.3218
 149  954.5104
 150  976.5446
 151  952.8304
 152  934.7897
 153  1071.634
 154  1055.48
 155  1044.885
 156  856.8858
 157  958.8272
 158  1080.789
 159  1083.637
 160  1031.571
 161  1014.985
 162  1009.681
 163  875.6445
 164  850.3589
 165  924.9401
 166  937.394
 167  959.7665
 168  1027.755
 169  892.2576
 170  834.1459
 171  859.2648
 172  942.0828
 173  932.4577
 174  1044.652
 175  906.0999
 176  991.5142
 177  971.0529
 178  831.2532
 179  817.272
 180  926.2582
 181  1040.413
 182  1019.485
 183  970.0882
 184  918.3405
 185  911.0614
 186  909.5585
 187  839.6258
 188  906.5409
 189  1024.369
 190  924.8879
 191  923.1634
 192  920.8632
 193  907.4424
 194  855.1532
 195  812.119
 196  903.0919
 197  835.2321
 198  883.8876
 199  972.0023
 200  1130.701
 201  989.858
 202  981.7804
 203  948.6796
 204  893.1521
 205  891.7963
 206  824.8755
 207  840.0091
 208  887.0253
 209  843.5171
 210  920.7943
 211  930.5986
 212  902.0562
 213  825.0051
 214  846.1161
 215  924.7846
 216  977.0104
 217  895.9816
 218  908.7117
 219  966.4143
 220  836.8643
 221  856.9299
 222  941.0712
 223  936.8576
 224  1058.328
 225  982.7433
 226  906.1855
 227  893.2438
 228  832.9966
 229  865.2085
 230  850.6304
 231  840.2062
 232  942.1059
 233  808.5654
 234  858.8826
 235  910.4589
 236  947.9839
 237  969.4921
 238  799.5901
 239  754.9147
 240  889.1172
 241  845.4896
 242  859.1234
 243  703.0157
 244  685.1456
 245  746.8865
 246  834.7344
 247  957.4022
 248  857.4179
 249  828.7851
 250  1006.378
 251  882.4628
 252  708.0098
 253  797.6187
 254  936.5743
 255  1001.01
 256  898.0089
 257  855.4797
 258  905.2067
 259  858.2087
 260  734.1366
 261  692.706
 262  811.0853
 263  784.5782
 264  752.9017
 265  778.0323
 266  794.9821
 267  658.1754
 268  762.1203
 269  908.3722
 270  925.9936
 271  789.1123
 272  935.7038
 273  989.2895
 274  818.322
 275  764.6874
 276  796.8174
 277  723.5205
 278  766.7298
 279  874.5875
 280  946.8782
 281  930.3051
 282  937.2584
 283  895.7388
 284  775.7938
 285  847.4972
 286  861.6777
 287  747.1771
 288  746.8692
 289  855.5273
 290  855.4917
 291  922.8831
 292  862.3225
 293  809.3267
 294  724.8008
 295  858.2359
 296  791.8058
 297  838.8243
 298  918.9358
 299  814.4077
 300  875.5632
 301  945.999
 302  895.035
 303  900.9576
 304  768.9075
 305  932.1719
 306  936.8658
 307  897.4287
 308  797.5717
 309  762.2444
 310  774.4743
 311  810.598
 312  816.7327
 313  856.8904
 314  859.4747
 315  839.227
 316  768.3853
 317  685.2278
 318  733.1287
 319  729.7881
 320  751.4876
 321  837.8686
 322  818.0801
 323  785.4338
 324  816.4053
 325  811.4232
 326  718.4719
 327  680.6304
 328  787.6159
 329  808.176
 330  828.8004
 331  915.3381
 332  969.4861
 333  781.7275
 334  781.8799
 335  804.386
 336  817.6337
 337  840.0488
 338  859.3096
 339  811.0432
 340  701.0126
 341  845.1155
 342  819.949
 343  753.7445
 344  778.9966
 345  786.4849
 346  833.3541
 347  810.6165
 348  917.6574
 349  1017.379
 350  907.1573
 351  764.2095
 352  876.3917
 353  907.665
 354  997.7155
 355  1043.492
 356  1018.509
 357  773.0611
 358  829.8596
 359  778.526
 360  804.821
 361  793.0789
 362  727.3699
 363  803.0392
 364  803.0858
 365  941.1389
 366  876.5037
 367  800.2891
 368  833.1205
 369  832.0306
 370  714.2028
 371  792.7549
 372  892.7789
 373  993.6332
 374  955.9147
 375  815.4011
 376  816.2322
 377  792.6801
 378  870.0579
 379  792.1252
 380  777.0712
 381  812.8272
 382  848.4527
 383  747.7897
 384  749.5463
 385  892.5511
 386  759.9402
 387  814.6758
 388  910.1022
 389  896.7878
 390  912.3118
 391  924.9651
 392  830.4419
 393  794.746
 394  888.5649
 395  923.6736
 396  737.1771
 397  871.1401
 398  955.1841
 399  907.9821
 400  836.2612
 401  720.343
 402  848.3087
 403  792.2004
 404  740.3544
 405  767.8719
 406  802.639
 407  819.1411
 408  760.0594
 409  751.6966
 410  755.0443
 411  769.989
 412  754.5019
 413  898.1059
 414  848.1938
 415  907.6475
 416  909.8568
 417  792.1793
 418  872.874
 419  845.0052
 420  887.1611
 421  895.6821
 422  1007.824
 423  1037.394
 424  892.4457
 425  883.9248
 426  821.1557
 427  895.2389
 428  873.0366
 429  852.2948
 430  904.1323
 431  950.9833
 432  897.0862
 433  794.3607
 434  828.8702
 435  840.5925
 436  753.5573
 437  926.7189
 438  897.2343
 439  769.6384
 440  768.9518
 441  759.2307
 442  686.7941
 443  658.0056
 444  697.3708
 445  723.2016
 446  761.9959
 447  797.3912
 448  752.9043
 449  754.4539
 450  861.2059
 451  860.5522
 452  713.9654
 453  813.2484
 454  852.0163
 455  824.9985
 456  867.2576
 457  704.3043
 458  671.5698
 459  757.5112
 460  707.2068
 461  768.6151
 462  839.7821
 463  918.8597
 464  961.6383
 465  775.2258
 466  718.5922
 467  787.3813
 468  731.2833
 469  780.4581
 470  891.8323
 471  946.5235
 472  899.6649
 473  878.2252
 474  807.4598
 475  750.4247
 476  698.9954
 477  693.2151
 478  687.6335
 479  839.4445
 480  995.4666
 481  951.4764
 482  776.3541
 483  875.9234
 484  879.1776
 485  900.1445
 486  1029.256
 487  913.1825
 488  870.177
 489  844.961
 490  825.0729
 491  886.9368
 492  840.9462
 493  834.1872
 494  879.6971
 495  852.1239
 496  883.8759
 497  799.0181
 498  770.6475
 499  907.3267
 500  929.2092
 501  1003.007
 502  950.4959
 503  909.7155
 504  911.8311
 505  907.2812
 506  889.5666
 507  958.5679
 508  1032.849
 509  1171.165
 510  1302.863
 511  1452.481
