# Input file       =  1211685997.11615_cleaned.dat
# Candidate        =  PSR_0332+5434
# Telescope        =  AR
# Epoch_topo       =  58268.143276807292
# Epoch_bary       =  N/A
# T_sample         =  0.002
# Data Folded      =  7143424
# Data Avg         =  0.0751028092280594
# Data StdDev      =  1.0000952144009  
# Profile Bins     =  512
# Profile Avg      =  1047.81965123061 
# Profile StdDev   =  118.129831072123 
# Reduced chi-sqr  =  1.369
# Prob(Noise)      <  5.1e-08   (~5.3 sigma)
# P_topo (ms)      =  714.518738955232  +/- 0.000148
# P'_topo (s/s)    =  -0                +/- 8.01e-11
# P''_topo (s/s^2) =  0                 +/- 3.63e-14
# P_bary (ms)      =  N/A
# P'_bary (s/s)    =  N/A
# P''_bary (s/s^2) =  N/A
# P_orb (s)        =  N/A
# asin(i)/c (s)    =  N/A
# eccentricity     =  N/A
# w (rad)          =  N/A
# T_peri           =  N/A
######################################################
   0  1557.668
   1  1558.691
   2  1530.885
   3  1316.669
   4  1124.037
   5  992.3479
   6  1007.846
   7  1004.76
   8  965.0373
   9  1026.236
  10  1040.033
  11  914.6785
  12  864.1122
  13  870.3248
  14  933.5532
  15  1016.818
  16  1078.643
  17  1012.984
  18  985.5657
  19  976.5457
  20  960.8708
  21  881.6309
  22  754.0491
  23  785.5855
  24  843.5869
  25  964.5484
  26  1100.625
  27  1009.114
  28  878.087
  29  920.8813
  30  889.2322
  31  947.4596
  32  866.6817
  33  873.8072
  34  936.7687
  35  1014.941
  36  981.8562
  37  1013.322
  38  946.8822
  39  894.9948
  40  938.8666
  41  917.1207
  42  945.1531
  43  853.2456
  44  887.4081
  45  909.8528
  46  926.2844
  47  930.3486
  48  919.0787
  49  961.8767
  50  977.4899
  51  951.9406
  52  958.571
  53  936.9869
  54  948.5148
  55  1003.793
  56  971.6181
  57  1040.867
  58  1085.179
  59  1155.97
  60  1165.573
  61  1074.09
  62  960.381
  63  1044.521
  64  1077.281
  65  1085.176
  66  958.5728
  67  915.033
  68  963.4564
  69  933.3069
  70  956.2906
  71  981.3165
  72  893.501
  73  989.0015
  74  1064.826
  75  1109.484
  76  1040.108
  77  1062.805
  78  980.8807
  79  945.0802
  80  931.0587
  81  955.3721
  82  1060.774
  83  1120.122
  84  1061.012
  85  1098.603
  86  1075.629
  87  1039.088
  88  961.1223
  89  1047.123
  90  1065.49
  91  1106.077
  92  1095.535
  93  1050.114
  94  922.3332
  95  1009.863
  96  1063.895
  97  1094.543
  98  1062.225
  99  1065.307
 100  1021.875
 101  972.1898
 102  987.6848
 103  1040.6
 104  1002.411
 105  1088.296
 106  1082.691
 107  1062.464
 108  971.0748
 109  1105.875
 110  1083.72
 111  1103.496
 112  959.8999
 113  929.175
 114  1057.021
 115  1005.514
 116  1037.448
 117  1007.92
 118  1102.95
 119  1082.468
 120  1026.759
 121  1031.782
 122  989.1851
 123  1003.922
 124  1094.947
 125  1184.282
 126  1058.469
 127  972.588
 128  928.1197
 129  972.0518
 130  969.1958
 131  985.8473
 132  1012.483
 133  945.9967
 134  979.2124
 135  942.6588
 136  851.8254
 137  919.5628
 138  998.3738
 139  916.584
 140  870.7439
 141  1063.543
 142  1015.626
 143  872.5541
 144  945.572
 145  985.002
 146  954.6586
 147  1045.788
 148  920.1735
 149  863.2821
 150  1049.256
 151  1049.043
 152  949.6851
 153  946.6664
 154  860.2896
 155  926.9887
 156  944.2756
 157  981.6097
 158  944.4255
 159  903.3907
 160  940.986
 161  1085.456
 162  1059.048
 163  1015.877
 164  1047.492
 165  958.8127
 166  979.1517
 167  988.0632
 168  932.0265
 169  877.4183
 170  955.5143
 171  936.8079
 172  991.7357
 173  1011.648
 174  1121.236
 175  1064.244
 176  844.7953
 177  906.9612
 178  994.0759
 179  1023.127
 180  1003.149
 181  905.0529
 182  882.5497
 183  872.479
 184  983.5834
 185  1017.154
 186  998.5562
 187  987.261
 188  1073.206
 189  1133.48
 190  1046.295
 191  964.3033
 192  930.1378
 193  944.2131
 194  1064.411
 195  1043.315
 196  1086.044
 197  1183.651
 198  1152.109
 199  1022.152
 200  1061
 201  1110.279
 202  1008.716
 203  990.5468
 204  1090.326
 205  1074.126
 206  1100.364
 207  1104.921
 208  1126.745
 209  1160.985
 210  1021.659
 211  1032.815
 212  932.4015
 213  1005.793
 214  1057.883
 215  1112.43
 216  1157.356
 217  1178.348
 218  1055.158
 219  1057.378
 220  1125.629
 221  1083.974
 222  1152.288
 223  1155.828
 224  1134.364
 225  1216.623
 226  1052.372
 227  1060.597
 228  1075.399
 229  1064.97
 230  1045.149
 231  1088.765
 232  1159.106
 233  1213.882
 234  1143.559
 235  1132.669
 236  1037.301
 237  1092.411
 238  1111.008
 239  1032.392
 240  1088.434
 241  1219.123
 242  1195.026
 243  1145.833
 244  1147.525
 245  1132.669
 246  1072.863
 247  1200.283
 248  1232.129
 249  1140.759
 250  1096.25
 251  1222.244
 252  1123.344
 253  1149.504
 254  1099.102
 255  1079.378
 256  1177.818
 257  1238.146
 258  1150.468
 259  1086.18
 260  1116.677
 261  1172.471
 262  1102.151
 263  1126.574
 264  1094.081
 265  1159.448
 266  1139.529
 267  1113.037
 268  1091.959
 269  1071.224
 270  1039.997
 271  1029.18
 272  1166.354
 273  1088.945
 274  1042.993
 275  1080.592
 276  1074.183
 277  866.0628
 278  929.2469
 279  1116.852
 280  1084.312
 281  1052.574
 282  1083.342
 283  1050.142
 284  1052.555
 285  1171.408
 286  1140.062
 287  1105.802
 288  1133.364
 289  1053.496
 290  1089.127
 291  1071.991
 292  1033.245
 293  1158.443
 294  1126.163
 295  1117.841
 296  1156.152
 297  1192.455
 298  1124.862
 299  990.1526
 300  1101.338
 301  1119.009
 302  984.5151
 303  1228.464
 304  1241.277
 305  1159.589
 306  1201.307
 307  1258.708
 308  1067.261
 309  1094.218
 310  1173.233
 311  1220.583
 312  1208.485
 313  1135.446
 314  1152.995
 315  1072.548
 316  1094.963
 317  1111.947
 318  1188.748
 319  1191.031
 320  973.6784
 321  1037.436
 322  1185.172
 323  1233.934
 324  1126.891
 325  1059.445
 326  1138.792
 327  1190.751
 328  1186.445
 329  1247.849
 330  1159.394
 331  1134.902
 332  1269.381
 333  1273.617
 334  1227.135
 335  1213.313
 336  1144.46
 337  1098.558
 338  1050.37
 339  1178.163
 340  1199.294
 341  1042.302
 342  1080.087
 343  1084.286
 344  1073.005
 345  1026.145
 346  1147.157
 347  1154.033
 348  1193.941
 349  1120.937
 350  1129.527
 351  1057.364
 352  1037.713
 353  1036.44
 354  973.9874
 355  995.7252
 356  984.7434
 357  955.4496
 358  1097.558
 359  1048.583
 360  1033.03
 361  1095.179
 362  1164.019
 363  1055.752
 364  1029.354
 365  1057.659
 366  1108.332
 367  1076.688
 368  1102.365
 369  1078.81
 370  1081.695
 371  1129.417
 372  1138.883
 373  1190.192
 374  1125.479
 375  1082.549
 376  1042.347
 377  1074.963
 378  1039.546
 379  1070.634
 380  1137.588
 381  1111.195
 382  1105.757
 383  932.7433
 384  933.0904
 385  950.7586
 386  1020.482
 387  1040.313
 388  947.8859
 389  1127.668
 390  1164.497
 391  1076.682
 392  975.709
 393  918.3119
 394  971.5833
 395  974.754
 396  953.1021
 397  1070.495
 398  1083.865
 399  1001.678
 400  1011.799
 401  1019.824
 402  981.4841
 403  1052.408
 404  1080.871
 405  1115.786
 406  1080.366
 407  1065.662
 408  1127.883
 409  1072.958
 410  896.794
 411  947.4239
 412  930.8028
 413  980.7206
 414  985.1229
 415  978.1541
 416  996.9073
 417  978.9917
 418  1065.684
 419  1041.706
 420  1039.254
 421  1032.642
 422  1079.76
 423  1073.041
 424  1060.853
 425  1028.755
 426  905.5016
 427  1033.547
 428  1148.419
 429  1046.579
 430  1049.93
 431  1001.088
 432  933.2853
 433  919.2061
 434  973.6082
 435  951.4157
 436  1021.85
 437  1007.253
 438  1043.165
 439  1093.963
 440  1141.368
 441  1115.545
 442  1108.418
 443  1099.2
 444  1119.468
 445  1176.624
 446  1163.515
 447  1078.246
 448  1038.609
 449  1100.505
 450  993.304
 451  923.493
 452  928.855
 453  1019.064
 454  1090.797
 455  1130.394
 456  1033.974
 457  1024.66
 458  997.1815
 459  1042.885
 460  1094.19
 461  1000.421
 462  972.8095
 463  1093.733
 464  1054.107
 465  984.8801
 466  884.1456
 467  948.0473
 468  1032.62
 469  1120.909
 470  995.655
 471  1043.577
 472  1265.514
 473  1165.241
 474  956.7787
 475  1001.642
 476  1036.489
 477  965.3541
 478  994.6337
 479  1120.852
 480  1019.587
 481  1030.05
 482  902.5344
 483  974.9716
 484  997.1216
 485  997.3937
 486  1009.404
 487  982.8488
 488  1006.388
 489  969.3311
 490  963.5988
 491  972.0005
 492  1046.059
 493  1077.26
 494  1041.336
 495  995.0625
 496  1099.913
 497  995.4915
 498  1012.676
 499  979.8521
 500  946.0182
 501  901.7167
 502  878.8203
 503  1091.374
 504  1037.76
 505  1058.081
 506  1071.958
 507  1113.852
 508  1203.793
 509  1163.101
 510  1319.783
 511  1482.77
