# Input file       =  1211030064.097827_cleaned.dat
# Candidate        =  PSR_0332+5434
# Telescope        =  AR
# Epoch_topo       =  58260.551459465591
# Epoch_bary       =  N/A
# T_sample         =  0.002
# Data Folded      =  7340032
# Data Avg         =  0.0956807983617338
# Data StdDev      =  1.00025393465471 
# Profile Bins     =  512
# Profile Avg      =  1371.73687906069 
# Profile StdDev   =  119.763440744016 
# Reduced chi-sqr  =  1.166
# Prob(Noise)      <  0.00557   (~2.5 sigma)
# P_topo (ms)      =  714.526616210185  +/- 5.68e-05
# P'_topo (s/s)    =  -0                +/- 3e-11
# P''_topo (s/s^2) =  0                 +/- 1.32e-14
# P_bary (ms)      =  N/A
# P'_bary (s/s)    =  N/A
# P''_bary (s/s^2) =  N/A
# P_orb (s)        =  N/A
# asin(i)/c (s)    =  N/A
# eccentricity     =  N/A
# w (rad)          =  N/A
# T_peri           =  N/A
######################################################
   0  1786.675
   1  1757.521
   2  1529.446
   3  1343.989
   4  1233.837
   5  1347.098
   6  1375.21
   7  1406.506
   8  1364.691
   9  1374.122
  10  1297.969
  11  1223.489
  12  1268.01
  13  1359.265
  14  1413.439
  15  1387.72
  16  1342.425
  17  1191.194
  18  1180.916
  19  1252.821
  20  1342.811
  21  1385.934
  22  1363.358
  23  1409.074
  24  1395.747
  25  1252.453
  26  1234.3
  27  1303.479
  28  1321.484
  29  1324.721
  30  1401.646
  31  1403.363
  32  1316.324
  33  1388.788
  34  1478.923
  35  1451.501
  36  1396.312
  37  1431.308
  38  1357.822
  39  1453.558
  40  1491.131
  41  1466.621
  42  1458.84
  43  1448.473
  44  1436.205
  45  1371.394
  46  1289.078
  47  1348.231
  48  1433.948
  49  1486.252
  50  1334.343
  51  1266.478
  52  1244.749
  53  1376.19
  54  1454.22
  55  1495.758
  56  1482.995
  57  1338.244
  58  1369.06
  59  1495.638
  60  1491.223
  61  1470.245
  62  1421.552
  63  1364.262
  64  1423.354
  65  1321.332
  66  1375.729
  67  1543.36
  68  1549.732
  69  1491.377
  70  1367.14
  71  1306.65
  72  1296.643
  73  1399.095
  74  1468.245
  75  1453.02
  76  1462.402
  77  1314.413
  78  1259.268
  79  1266.366
  80  1361.234
  81  1458.64
  82  1348.537
  83  1237.829
  84  1253.083
  85  1287.38
  86  1360.541
  87  1473.377
  88  1492.931
  89  1427.876
  90  1390.882
  91  1313.538
  92  1377.432
  93  1377.902
  94  1371.744
  95  1464.828
  96  1442.174
  97  1397.186
  98  1333.304
  99  1414.163
 100  1395.776
 101  1401.812
 102  1422.218
 103  1332.064
 104  1267.639
 105  1271.705
 106  1279.068
 107  1438.11
 108  1565.601
 109  1458.825
 110  1428.374
 111  1377.074
 112  1317.604
 113  1336.193
 114  1458.888
 115  1417.346
 116  1414.718
 117  1420.28
 118  1353.986
 119  1354.746
 120  1467.988
 121  1349.3
 122  1389.578
 123  1428.941
 124  1308.858
 125  1285.451
 126  1427.521
 127  1533.686
 128  1526.323
 129  1419.809
 130  1390.496
 131  1366.258
 132  1371.425
 133  1352.301
 134  1437.571
 135  1451.96
 136  1435.048
 137  1392.203
 138  1376.036
 139  1443.338
 140  1441.754
 141  1443.503
 142  1380.624
 143  1368.607
 144  1429.545
 145  1602.963
 146  1610.659
 147  1545.182
 148  1469.642
 149  1357.949
 150  1290.525
 151  1281.462
 152  1450.272
 153  1511.944
 154  1523.372
 155  1561.069
 156  1473.204
 157  1470.849
 158  1388.35
 159  1264.955
 160  1376.629
 161  1473.039
 162  1432.279
 163  1501.906
 164  1325.88
 165  1169.465
 166  1234.055
 167  1276.144
 168  1297.025
 169  1355.333
 170  1416.709
 171  1406.338
 172  1399.552
 173  1403.301
 174  1477.651
 175  1451.008
 176  1485.407
 177  1307.85
 178  1375.351
 179  1495.265
 180  1517.982
 181  1537.653
 182  1566.671
 183  1467.516
 184  1308
 185  1355.86
 186  1458.404
 187  1475.858
 188  1469.23
 189  1414.849
 190  1326.165
 191  1282.634
 192  1375.127
 193  1468.709
 194  1426.838
 195  1382.631
 196  1424.406
 197  1438.695
 198  1421.865
 199  1480.036
 200  1535.329
 201  1591.26
 202  1500.665
 203  1385.466
 204  1378.804
 205  1305.843
 206  1342.135
 207  1434.774
 208  1510.893
 209  1526.723
 210  1441.249
 211  1421.392
 212  1441.009
 213  1473.662
 214  1467.798
 215  1387.025
 216  1432.541
 217  1462.862
 218  1542.536
 219  1465.781
 220  1439.266
 221  1375.951
 222  1304.965
 223  1420.766
 224  1527.817
 225  1461.414
 226  1426.091
 227  1405.565
 228  1393.068
 229  1473.19
 230  1466.109
 231  1466.582
 232  1429.056
 233  1386.143
 234  1440.682
 235  1469.077
 236  1379.493
 237  1348.777
 238  1370.697
 239  1304.453
 240  1282.339
 241  1402.326
 242  1415.16
 243  1390.336
 244  1263.017
 245  1265.931
 246  1308.915
 247  1288.95
 248  1283.172
 249  1444.384
 250  1460.119
 251  1447.376
 252  1388.301
 253  1408.844
 254  1455.61
 255  1343.05
 256  1383.725
 257  1377.087
 258  1365.893
 259  1398.5
 260  1418.866
 261  1417.857
 262  1346.984
 263  1343.886
 264  1327.093
 265  1350.395
 266  1334.858
 267  1372.127
 268  1346.242
 269  1479.322
 270  1442.225
 271  1417.995
 272  1285.284
 273  1303.433
 274  1425.388
 275  1413.62
 276  1455.671
 277  1238.643
 278  1186.349
 279  1281.6
 280  1339.455
 281  1370.066
 282  1377.889
 283  1405.283
 284  1414.361
 285  1366.676
 286  1333.577
 287  1421.441
 288  1308.99
 289  1329.089
 290  1378.377
 291  1395.522
 292  1340.442
 293  1276.67
 294  1316.913
 295  1293.95
 296  1264.343
 297  1280.567
 298  1427.682
 299  1356.781
 300  1311.742
 301  1336.735
 302  1365.4
 303  1358.219
 304  1344.599
 305  1372.786
 306  1368.341
 307  1490.773
 308  1451.386
 309  1535.53
 310  1378.444
 311  1264.825
 312  1213.381
 313  1293.905
 314  1455.955
 315  1379.389
 316  1372.72
 317  1392.921
 318  1276.83
 319  1235.924
 320  1404.618
 321  1392.221
 322  1383.538
 323  1327.545
 324  1318.283
 325  1280.459
 326  1356.793
 327  1387.357
 328  1404.666
 329  1401.185
 330  1367.776
 331  1495.772
 332  1448.925
 333  1333.663
 334  1426.22
 335  1468.85
 336  1342.566
 337  1347.418
 338  1393.045
 339  1320.058
 340  1315.544
 341  1318.702
 342  1358.188
 343  1250.447
 344  1216.292
 345  1189.535
 346  1216.226
 347  1340.853
 348  1391.059
 349  1461.852
 350  1443.577
 351  1384.503
 352  1266.139
 353  1375.889
 354  1455.308
 355  1287.315
 356  1282.653
 357  1290.775
 358  1326.932
 359  1355.076
 360  1414.265
 361  1346.544
 362  1287.214
 363  1312.718
 364  1462.32
 365  1469.503
 366  1496.343
 367  1530.986
 368  1498.975
 369  1442.948
 370  1293.625
 371  1286.177
 372  1292.279
 373  1361.366
 374  1416.787
 375  1342.661
 376  1258.632
 377  1272.902
 378  1189.259
 379  1255.092
 380  1258.647
 381  1353.097
 382  1369.305
 383  1243.003
 384  1241.668
 385  1360.953
 386  1480.601
 387  1383.357
 388  1328.666
 389  1350.148
 390  1404.431
 391  1301.662
 392  1242.904
 393  1235.935
 394  1300.614
 395  1411.04
 396  1375.296
 397  1341.12
 398  1216.077
 399  1234.704
 400  1276.445
 401  1375.924
 402  1347.412
 403  1298.73
 404  1304.219
 405  1273.845
 406  1331.169
 407  1402.884
 408  1382.281
 409  1433.599
 410  1350.411
 411  1190.465
 412  1256.361
 413  1314.852
 414  1412.435
 415  1513.037
 416  1491.056
 417  1309.306
 418  1230.666
 419  1319.579
 420  1486.017
 421  1419.038
 422  1321.32
 423  1271.635
 424  1380.941
 425  1402.675
 426  1383.484
 427  1411.064
 428  1358.481
 429  1230.014
 430  1198.151
 431  1219.534
 432  1295.111
 433  1500.581
 434  1476.923
 435  1343.935
 436  1245.866
 437  1258.322
 438  1323.753
 439  1383.818
 440  1291.492
 441  1256.606
 442  1325.676
 443  1315.273
 444  1296.713
 445  1286.171
 446  1292.736
 447  1372.102
 448  1426.276
 449  1424.829
 450  1343.2
 451  1310.029
 452  1334.165
 453  1341.833
 454  1399.708
 455  1386.014
 456  1351.098
 457  1331.781
 458  1312.629
 459  1241.042
 460  1282.625
 461  1220.144
 462  1182.841
 463  1258.229
 464  1199.221
 465  1245.201
 466  1182.253
 467  1287.709
 468  1397.982
 469  1292.78
 470  1239.047
 471  1229.669
 472  1317.834
 473  1346.539
 474  1393.73
 475  1371.113
 476  1345.042
 477  1196.036
 478  1103.787
 479  1203.448
 480  1273.508
 481  1365.989
 482  1424.954
 483  1292.694
 484  1191.9
 485  1191.715
 486  1149.577
 487  1264.083
 488  1280.874
 489  1206.305
 490  1264.704
 491  1276.78
 492  1360.921
 493  1265.277
 494  1298.622
 495  1246.689
 496  1249.09
 497  1213.497
 498  1325.818
 499  1423.935
 500  1441.288
 501  1444.178
 502  1336.58
 503  1301.59
 504  1232.665
 505  1310.318
 506  1389.65
 507  1503.481
 508  1618.773
 509  1691.96
 510  1683.189
 511  1702.479
