# Input file       =  1211030064.097827_cleaned.dat
# Candidate        =  PSR_0332+5434
# Telescope        =  AR
# Epoch_topo       =  58260.551459465591
# Epoch_bary       =  N/A
# T_sample         =  0.002
# Data Folded      =  7340032
# Data Avg         =  0.0956807983617338
# Data StdDev      =  1.00025393465471 
# Profile Bins     =  512
# Profile Avg      =  1371.7368790642  
# Profile StdDev   =  119.763440744016 
# Reduced chi-sqr  =  1.159
# Prob(Noise)      <  0.00734   (~2.4 sigma)
# P_topo (ms)      =  714.526616638308  +/- 5.43e-05
# P'_topo (s/s)    =  -0                +/- 2.86e-11
# P''_topo (s/s^2) =  0                 +/- 1.26e-14
# P_bary (ms)      =  N/A
# P'_bary (s/s)    =  N/A
# P''_bary (s/s^2) =  N/A
# P_orb (s)        =  N/A
# asin(i)/c (s)    =  N/A
# eccentricity     =  N/A
# w (rad)          =  N/A
# T_peri           =  N/A
######################################################
   0  1723.39
   1  1813.853
   2  1658.291
   3  1434.076
   4  1275.698
   5  1260.128
   6  1383.159
   7  1395.35
   8  1388.883
   9  1362.805
  10  1344.896
  11  1251.369
  12  1232.996
  13  1318.083
  14  1393.451
  15  1414.178
  16  1371.262
  17  1283.676
  18  1148.867
  19  1225.138
  20  1288.594
  21  1378.227
  22  1371.209
  23  1366.919
  24  1415.961
  25  1362.755
  26  1194.264
  27  1290.763
  28  1305.127
  29  1318.8
  30  1350.244
  31  1420.266
  32  1363.694
  33  1334.201
  34  1443.94
  35  1467.414
  36  1413.016
  37  1419.2
  38  1396.699
  39  1389.99
  40  1482.194
  41  1494.561
  42  1459.738
  43  1437.38
  44  1455.781
  45  1407.286
  46  1335.48
  47  1294.884
  48  1386.651
  49  1466.148
  50  1434.677
  51  1299.948
  52  1254.098
  53  1278.768
  54  1427.934
  55  1454.651
  56  1525.653
  57  1410.722
  58  1326.534
  59  1445.017
  60  1495.488
  61  1485.838
  62  1439.537
  63  1387.357
  64  1395.949
  65  1400.243
  66  1303.557
  67  1473.226
  68  1556.666
  69  1521.566
  70  1448.914
  71  1319.721
  72  1304.173
  73  1316.577
  74  1458.968
  75  1458.723
  76  1459.244
  77  1409.321
  78  1272.848
  79  1265.343
  80  1287.587
  81  1420.932
  82  1422.431
  83  1301.337
  84  1234.046
  85  1270.677
  86  1308.642
  87  1404.841
  88  1508.667
  89  1448.568
  90  1429.89
  91  1328.118
  92  1354.282
  93  1373.77
  94  1374.033
  95  1406.651
  96  1470.625
  97  1434.973
  98  1345.287
  99  1385.508
 100  1399.768
 101  1394.492
 102  1408.976
 103  1401.751
 104  1276.764
 105  1296.14
 106  1253.785
 107  1331.621
 108  1519.821
 109  1521.837
 110  1447.568
 111  1405.218
 112  1356.783
 113  1289.269
 114  1409.822
 115  1431.813
 116  1436.801
 117  1397.394
 118  1424.024
 119  1305.038
 120  1434.38
 121  1427.996
 122  1332.847
 123  1447.38
 124  1354.87
 125  1280.938
 126  1340.415
 127  1495.174
 128  1540.285
 129  1480.85
 130  1393.125
 131  1380.935
 132  1380.025
 133  1340.815
 134  1392.837
 135  1446.52
 136  1465.054
 137  1416.7
 138  1375.182
 139  1408.749
 140  1448.149
 141  1444.721
 142  1406.829
 143  1374.141
 144  1378.657
 145  1507.219
 146  1626.307
 147  1576.298
 148  1521.497
 149  1419.405
 150  1325.272
 151  1274.336
 152  1346.777
 153  1491.044
 154  1510.255
 155  1542.198
 156  1540.426
 157  1449.945
 158  1465.227
 159  1320.807
 160  1276.184
 161  1468.254
 162  1414.793
 163  1504.048
 164  1425.269
 165  1250.099
 166  1154.591
 167  1286.675
 168  1268.453
 169  1327.372
 170  1388.164
 171  1421.777
 172  1397.863
 173  1375.216
 174  1464.302
 175  1435.415
 176  1517.334
 177  1381.639
 178  1331.432
 179  1428.728
 180  1514.455
 181  1519.479
 182  1553.365
 183  1548.489
 184  1381.261
 185  1309.438
 186  1398.142
 187  1478.802
 188  1464.918
 189  1474.948
 190  1362.948
 191  1289.801
 192  1316.675
 193  1420.873
 194  1477.179
 195  1381.341
 196  1406.602
 197  1433.682
 198  1444.347
 199  1424.395
 200  1521.401
 201  1547.87
 202  1582.898
 203  1430.183
 204  1376.179
 205  1360.675
 206  1290.779
 207  1389.248
 208  1468.365
 209  1544.013
 210  1482.073
 211  1435.37
 212  1403.521
 213  1472.434
 214  1467.384
 215  1441.691
 216  1393.467
 217  1453.057
 218  1510.063
 219  1499.155
 220  1470.929
 221  1385.784
 222  1359.384
 223  1308.302
 224  1517.204
 225  1504.226
 226  1432.753
 227  1429.674
 228  1374.302
 229  1444.159
 230  1464.036
 231  1469.687
 232  1455.244
 233  1400.549
 234  1397.341
 235  1460.282
 236  1447.454
 237  1353.347
 238  1367.316
 239  1338.113
 240  1278.834
 241  1336.611
 242  1422.546
 243  1422.927
 244  1329.148
 245  1239.831
 246  1278.285
 247  1321.231
 248  1256.475
 249  1370.099
 250  1451.034
 251  1472.432
 252  1407.127
 253  1391.195
 254  1441.947
 255  1413.596
 256  1346.475
 257  1392.078
 258  1360.369
 259  1373.313
 260  1399.992
 261  1434.551
 262  1404.168
 263  1335.606
 264  1340.626
 265  1323.325
 266  1347.831
 267  1360.562
 268  1343.645
 269  1416.018
 270  1473.9
 271  1428.336
 272  1354.987
 273  1273.833
 274  1362.118
 275  1441.477
 276  1417.925
 277  1398.118
 278  1158.087
 279  1239.133
 280  1317.458
 281  1344.345
 282  1391.008
 283  1369.188
 284  1428.106
 285  1387.535
 286  1334.482
 287  1392.495
 288  1379.826
 289  1298.153
 290  1349.875
 291  1397.753
 292  1369.884
 293  1311.828
 294  1283.532
 295  1324.495
 296  1261.813
 297  1265.302
 298  1344.284
 299  1442.897
 300  1296.883
 301  1332.524
 302  1334.815
 303  1381.825
 304  1347.482
 305  1358.732
 306  1366.075
 307  1413.516
 308  1495.225
 309  1480.291
 310  1492.217
 311  1304.162
 312  1247.288
 313  1207.399
 314  1397.924
 315  1431.082
 316  1366.747
 317  1395.054
 318  1345.5
 319  1232.09
 320  1299.178
 321  1422.554
 322  1390.319
 323  1357.627
 324  1340.936
 325  1267.059
 326  1328.636
 327  1352.579
 328  1425.219
 329  1392.07
 330  1379.345
 331  1419.014
 332  1499.405
 333  1394.264
 334  1341.565
 335  1492.717
 336  1399.645
 337  1323.715
 338  1380.964
 339  1368.228
 340  1309.819
 341  1313.846
 342  1330.504
 343  1335.136
 344  1219.136
 345  1204.673
 346  1197.172
 347  1261.645
 348  1380.31
 349  1413.94
 350  1460.918
 351  1427.14
 352  1321.535
 353  1288.471
 354  1443.727
 355  1383.612
 356  1268.006
 357  1303.276
 358  1285.488
 359  1347.837
 360  1369.696
 361  1420.58
 362  1307.246
 363  1281.558
 364  1371.971
 365  1487.226
 366  1454.458
 367  1524.435
 368  1542.715
 369  1460.192
 370  1391.128
 371  1254.211
 372  1303.993
 373  1313.32
 374  1386.374
 375  1411.933
 376  1276.38
 377  1276.822
 378  1229.094
 379  1210.99
 380  1258.234
 381  1303.385
 382  1376.527
 383  1333.728
 384  1188.958
 385  1294.123
 386  1434.179
 387  1462.886
 388  1358.53
 389  1318.718
 390  1378.835
 391  1364.51
 392  1266.778
 393  1235.791
 394  1256.079
 395  1360.846
 396  1397.061
 397  1369.457
 398  1271.251
 399  1223.217
 400  1245.733
 401  1337.309
 402  1358.938
 403  1327.901
 404  1287.209
 405  1299.228
 406  1293.157
 407  1363.845
 408  1414.955
 409  1380.144
 410  1441.948
 411  1235.26
 412  1219.302
 413  1289.075
 414  1358.372
 415  1462.337
 416  1515.138
 417  1412.682
 418  1255.214
 419  1254.354
 420  1411.695
 421  1488.626
 422  1352.392
 423  1290.871
 424  1296.121
 425  1419.024
 426  1386.688
 427  1408.09
 428  1390.693
 429  1302.042
 430  1186.54
 431  1227.918
 432  1227.097
 433  1391.482
 434  1538.493
 435  1402.533
 436  1294.783
 437  1225.533
 438  1289.586
 439  1360.77
 440  1363.142
 441  1260.339
 442  1283.849
 443  1320.537
 444  1295.653
 445  1301.456
 446  1279.768
 447  1339.445
 448  1394.617
 449  1446.259
 450  1394.148
 451  1302.74
 452  1343.588
 453  1311.171
 454  1386.505
 455  1384.29
 456  1383.365
 457  1320.801
 458  1344.028
 459  1264.283
 460  1261.574
 461  1276.596
 462  1167.293
 463  1237.185
 464  1213.626
 465  1238.306
 466  1208.427
 467  1214.934
 468  1356.082
 469  1373.917
 470  1242.633
 471  1219.798
 472  1284.533
 473  1317.813
 474  1387.818
 475  1362.283
 476  1382.233
 477  1279.531
 478  1141.197
 479  1139.529
 480  1256.249
 481  1301.296
 482  1399.61
 483  1374.848
 484  1227.318
 485  1202.187
 486  1167.638
 487  1193.068
 488  1284.75
 489  1250.659
 490  1222.04
 491  1275.08
 492  1329.972
 493  1314.463
 494  1274.154
 495  1279.227
 496  1235.624
 497  1234.517
 498  1238.785
 499  1394.357
 500  1426.926
 501  1453.998
 502  1393.386
 503  1318.65
 504  1266.655
 505  1262.144
 506  1351.5
 507  1443.413
 508  1545.467
 509  1677.254
 510  1671.704
 511  1699.464
