# Input file       =  1211457068.105972_cleaned.dat
# Candidate        =  PSR_0332+5434
# Telescope        =  AR
# Epoch_topo       =  58265.493635485785
# Epoch_bary       =  N/A
# T_sample         =  0.002
# Data Folded      =  7340032
# Data Avg         =  0.0367703838698173
# Data StdDev      =  1.00010242057708 
# Profile Bins     =  512
# Profile Avg      =  527.158470744153 
# Profile StdDev   =  119.745299503447 
# Reduced chi-sqr  =  1.097
# Prob(Noise)      <  0.0645   (~1.5 sigma)
# P_topo (ms)      =  714.521673690247  +/- 0.000379
# P'_topo (s/s)    =  -0                +/- 2e-10
# P''_topo (s/s^2) =  0                 +/- 8.83e-14
# P_bary (ms)      =  N/A
# P'_bary (s/s)    =  N/A
# P''_bary (s/s^2) =  N/A
# P_orb (s)        =  N/A
# asin(i)/c (s)    =  N/A
# eccentricity     =  N/A
# w (rad)          =  N/A
# T_peri           =  N/A
######################################################
   0  1064.815
   1  1110.559
   2  882.2642
   3  709.4475
   4  594.8498
   5  520.921
   6  554.386
   7  576.3154
   8  489.3512
   9  391.9995
  10  360.415
  11  498.8821
  12  470.7673
  13  487.1693
  14  501.7319
  15  475.9465
  16  379.99
  17  401.5512
  18  420.9047
  19  436.3301
  20  446.838
  21  483.2676
  22  481.0645
  23  479.545
  24  539.621
  25  481.9069
  26  396.9899
  27  508.1701
  28  654.1437
  29  495.7397
  30  415.4392
  31  435.5581
  32  478.9529
  33  529.2723
  34  428.6028
  35  459.9979
  36  496.3549
  37  481.2051
  38  581.9484
  39  599.1777
  40  553.3412
  41  478.1591
  42  442.8754
  43  498.9472
  44  529.0607
  45  491.1469
  46  572.2063
  47  548.8976
  48  514.7458
  49  510.476
  50  569.006
  51  506.9849
  52  664.7687
  53  586.1501
  54  557.3385
  55  484.3083
  56  440.9315
  57  534.1916
  58  587.6544
  59  438.2376
  60  443.9398
  61  365.7566
  62  463.8541
  63  428.976
  64  353.1658
  65  519.5552
  66  507.6375
  67  464.4818
  68  470.7065
  69  440.197
  70  487.9469
  71  550.2947
  72  550.5155
  73  482.3076
  74  499.7207
  75  462.8341
  76  493.4195
  77  643.1569
  78  601.2726
  79  396.9005
  80  406.3601
  81  431.1543
  82  472.1758
  83  534.5793
  84  507.7562
  85  549.7692
  86  432.8705
  87  388.3783
  88  380.3119
  89  470.5648
  90  606.4084
  91  476.2676
  92  326.3421
  93  423.0794
  94  525.0263
  95  558.1734
  96  456.9749
  97  390.466
  98  542.8287
  99  546.7274
 100  543.7317
 101  560.866
 102  518.2094
 103  464.3743
 104  544.9856
 105  479.3234
 106  423.0644
 107  437.8587
 108  466.1018
 109  461.4738
 110  471.4015
 111  478.0927
 112  490.4151
 113  424.5634
 114  382.865
 115  396.8873
 116  427.7092
 117  515.0081
 118  381.4622
 119  381.4985
 120  428.2169
 121  432.0532
 122  456.8316
 123  430.4156
 124  463.8825
 125  542.8191
 126  525.4606
 127  543.0358
 128  532.2497
 129  498.0055
 130  474.1038
 131  440.7129
 132  482.5843
 133  519.324
 134  566.39
 135  627.1847
 136  627.6031
 137  646.2205
 138  582.6531
 139  537.9362
 140  627.597
 141  592.8879
 142  505.9565
 143  424.8896
 144  496.5922
 145  516.1566
 146  515.032
 147  495.3185
 148  564.9743
 149  500.4712
 150  536.8996
 151  491.3434
 152  491.357
 153  491.5128
 154  529.3497
 155  491.6725
 156  408.3964
 157  426.6328
 158  546.0125
 159  507.7987
 160  474.175
 161  573.838
 162  592.8804
 163  601.8872
 164  531.9518
 165  498.679
 166  589.1422
 167  571.9421
 168  480.1876
 169  488.412
 170  457.1264
 171  445.6967
 172  523.1312
 173  555.0903
 174  509.1452
 175  422.3057
 176  644.6347
 177  607.3561
 178  598.048
 179  513.6769
 180  495.124
 181  499.9947
 182  575.0399
 183  599.9897
 184  530.6482
 185  519.7184
 186  511.0427
 187  565.5244
 188  598.5087
 189  421.6347
 190  352.6945
 191  451.0937
 192  450.7418
 193  439.6484
 194  363.441
 195  375.964
 196  352.298
 197  354.3187
 198  357.2386
 199  352.5051
 200  478.2392
 201  563.7548
 202  531.9999
 203  571.3837
 204  511.1643
 205  467.6815
 206  501.1396
 207  518.3921
 208  469.4356
 209  465.2522
 210  408.0458
 211  464.4703
 212  451.6085
 213  531.4012
 214  400.0641
 215  447.8544
 216  433.5453
 217  609.4274
 218  550.905
 219  506.0763
 220  577.224
 221  565.7264
 222  632.1982
 223  558.4667
 224  513.4222
 225  638.9912
 226  605.2388
 227  524.5588
 228  538.1349
 229  608.876
 230  603.2624
 231  612.674
 232  552.6877
 233  557.0779
 234  652.7348
 235  718.4772
 236  704.7955
 237  680.655
 238  636.7085
 239  627.4036
 240  676.4974
 241  577.7136
 242  509.709
 243  507.9555
 244  605.7697
 245  579.9849
 246  712.6766
 247  673.0566
 248  633.174
 249  587.6146
 250  598.0085
 251  588.8077
 252  532.0636
 253  459.9746
 254  567.743
 255  628.859
 256  645.324
 257  596.6407
 258  456.3872
 259  495.7546
 260  529.7104
 261  581.4262
 262  587.9056
 263  639.0625
 264  590.6415
 265  641.6096
 266  540.8707
 267  521.7853
 268  529.9933
 269  541.8359
 270  522.5699
 271  515.0812
 272  490.9154
 273  512.66
 274  540.1819
 275  531.9481
 276  478.1693
 277  475.4575
 278  544.1111
 279  502.5909
 280  560.2713
 281  529.7319
 282  537.6025
 283  595.2236
 284  512.2229
 285  428.9677
 286  490.515
 287  538.6111
 288  444.6145
 289  448.9191
 290  393.3814
 291  305.6939
 292  367.3098
 293  503.4143
 294  487.8541
 295  437.8134
 296  408.0038
 297  345.8968
 298  412.5837
 299  384.4301
 300  463.7202
 301  434.657
 302  425.6848
 303  498.5757
 304  444.0975
 305  533.0288
 306  629.3895
 307  550.4874
 308  570.6428
 309  535.5465
 310  572.5103
 311  507.5949
 312  342.7246
 313  450.3443
 314  484.7348
 315  529.1943
 316  512.2724
 317  464.508
 318  566.9102
 319  616.373
 320  660.3862
 321  636.7296
 322  485.1999
 323  470.2382
 324  513.3832
 325  547.9295
 326  557.7212
 327  550.6587
 328  564.5901
 329  521.1623
 330  620.2388
 331  596.2319
 332  602.5632
 333  578.9719
 334  628.5443
 335  583.1946
 336  597.2637
 337  540.0123
 338  442.9836
 339  588.3598
 340  655.677
 341  594.7466
 342  572.1552
 343  500.6657
 344  504.4068
 345  602.9435
 346  632.9137
 347  647.7068
 348  537.346
 349  629.7488
 350  602.4636
 351  537.7073
 352  628.472
 353  689.2675
 354  633.5208
 355  644.6747
 356  612.3834
 357  585.9848
 358  588.7226
 359  510.1498
 360  543.9224
 361  599.1263
 362  573.6901
 363  599.9664
 364  565.7172
 365  460.8998
 366  572.2767
 367  605.3271
 368  512.3343
 369  481.7677
 370  519.7386
 371  469.8712
 372  549.5061
 373  531.3395
 374  574.0242
 375  468.061
 376  331.521
 377  303.7379
 378  458.2943
 379  503.4843
 380  443.0134
 381  558.8445
 382  621.2646
 383  603.347
 384  534.0892
 385  522.0486
 386  613.5636
 387  575.3835
 388  528.9223
 389  574.9771
 390  510.693
 391  557.6461
 392  517.7648
 393  479.1367
 394  455.1593
 395  517.146
 396  599.1712
 397  648.0408
 398  640.5091
 399  643.8207
 400  504.9359
 401  487.7462
 402  420.211
 403  539.7316
 404  577.7082
 405  536.9821
 406  621.0142
 407  529.3906
 408  534.5071
 409  641.0148
 410  551.7859
 411  494.1741
 412  433.4346
 413  390.8806
 414  468.9121
 415  615.1016
 416  544.7299
 417  465.3316
 418  559.53
 419  557.9762
 420  522.0447
 421  485.1026
 422  550.4771
 423  472.5591
 424  564.2545
 425  705.4656
 426  594.6108
 427  435.2786
 428  360.5708
 429  499.1563
 430  561.2393
 431  611.0551
 432  651.3734
 433  583.9042
 434  520.9492
 435  522.8176
 436  574.6949
 437  569.1715
 438  610.1002
 439  604.0279
 440  580.8921
 441  559.1368
 442  553.4356
 443  614.526
 444  605.7988
 445  615.284
 446  570.939
 447  520.9085
 448  554.8638
 449  474.3993
 450  472.0537
 451  482.2397
 452  485.6767
 453  367.4628
 454  398.0834
 455  523.6598
 456  450.9158
 457  429.9426
 458  463.7676
 459  405.5576
 460  433.1802
 461  399.958
 462  391.8452
 463  501.5158
 464  477.9718
 465  561.3615
 466  539.3801
 467  592.0575
 468  644.5169
 469  499.0524
 470  499.9647
 471  587.2767
 472  645.1764
 473  655.9958
 474  527.3217
 475  516.1292
 476  641.4136
 477  620.4149
 478  520.2513
 479  604.5043
 480  577.4194
 481  687.54
 482  618.2128
 483  634.6316
 484  679.158
 485  613.3779
 486  634.6021
 487  472.4935
 488  459.9165
 489  675.9028
 490  558.624
 491  473.9366
 492  498.9552
 493  449.796
 494  349.361
 495  533.0953
 496  612.6541
 497  617.4406
 498  528.499
 499  490.1824
 500  534.3152
 501  466.7423
 502  461.544
 503  535.1199
 504  601.1763
 505  675.0455
 506  570.8177
 507  547.0985
 508  662.8212
 509  745.3481
 510  842.6069
 511  977.7229
