# Input file       =  1211944410.106287_cleaned.dat
# Candidate        =  PSR_0332+5434
# Telescope        =  AR
# Epoch_topo       =  58271.134167896838
# Epoch_bary       =  N/A
# T_sample         =  0.002
# Data Folded      =  7208960
# Data Avg         =  0.0725419663016795
# Data StdDev      =  1.00007148411417 
# Profile Bins     =  512
# Profile Avg      =  1021.33252752728 
# Profile StdDev   =  118.6676580396   
# Reduced chi-sqr  =  1.195
# Prob(Noise)      <  0.00154   (~3.0 sigma)
# P_topo (ms)      =  714.515826945498  +/- 0.000205
# P'_topo (s/s)    =  -0                +/- 1.1e-10
# P''_topo (s/s^2) =  0                 +/- 4.94e-14
# P_bary (ms)      =  N/A
# P'_bary (s/s)    =  N/A
# P''_bary (s/s^2) =  N/A
# P_orb (s)        =  N/A
# asin(i)/c (s)    =  N/A
# eccentricity     =  N/A
# w (rad)          =  N/A
# T_peri           =  N/A
######################################################
   0  1592.279
   1  1474.588
   2  1363.443
   3  1196.175
   4  1083.337
   5  1080.895
   6  978.7724
   7  974.4427
   8  1050.035
   9  1096.342
  10  1088.464
  11  944.1806
  12  1020.783
  13  981.1764
  14  962.0193
  15  930.9482
  16  995.442
  17  1048.952
  18  1022.407
  19  961.0663
  20  931.8287
  21  935.6234
  22  1010.099
  23  1091.306
  24  1069.802
  25  959.5135
  26  1031.847
  27  1061.074
  28  1021.331
  29  944.1806
  30  991.8119
  31  1113.033
  32  1052.124
  33  937.5775
  34  915.522
  35  1019.061
  36  1016.598
  37  1028.851
  38  1017.305
  39  949.0431
  40  903.432
  41  870.0881
  42  1081.564
  43  1051.619
  44  996.774
  45  967.5098
  46  1101.419
  47  1095.928
  48  1002.32
  49  1005.341
  50  1007.341
  51  953.5001
  52  1017.754
  53  1179.237
  54  1047.922
  55  996.4431
  56  959.5446
  57  932.076
  58  971.6161
  59  1032.979
  60  1012.196
  61  1044.33
  62  937.3351
  63  976.5086
  64  994.5174
  65  963.3162
  66  980.408
  67  954.6524
  68  958.1776
  69  955.5239
  70  1019.231
  71  1070.021
  72  946.7675
  73  885.6969
  74  1072.987
  75  1163.977
  76  1145.025
  77  983.5618
  78  1096.649
  79  1161.414
  80  1175.9
  81  1033.548
  82  997.7565
  83  1087.573
  84  1111.298
  85  1037.557
  86  912.8768
  87  937.2165
  88  1072.814
  89  1033.666
  90  1045.408
  91  1056.452
  92  1118.84
  93  1029.239
  94  974.9089
  95  1110.856
  96  1095.495
  97  1074.875
  98  961.5346
  99  891.0246
 100  971.714
 101  1114.471
 102  1122.263
 103  1086.623
 104  1011.569
 105  1075.723
 106  1074.653
 107  1017.885
 108  949.7986
 109  1051.561
 110  1048.021
 111  1134.287
 112  1160.082
 113  1204.264
 114  987.7248
 115  1055.865
 116  1041.772
 117  919.0468
 118  909.3843
 119  971.951
 120  1016.933
 121  1045.393
 122  1169.643
 123  1165.323
 124  980.1395
 125  1103.86
 126  987.7883
 127  1068.215
 128  1046.621
 129  1031.152
 130  946.3655
 131  942.8895
 132  979.3584
 133  1075.911
 134  1048.806
 135  1022.577
 136  1037.297
 137  1007.046
 138  964.3008
 139  869.3806
 140  898.7396
 141  1036.671
 142  1018.048
 143  1037.846
 144  935.3124
 145  857.1343
 146  987.405
 147  976.2216
 148  955.873
 149  1004.318
 150  927.9991
 151  974.0264
 152  960.8528
 153  1020.83
 154  949.2711
 155  864.2278
 156  813.2914
 157  951.9374
 158  897.2888
 159  928.5958
 160  959.0669
 161  979.0507
 162  1093.593
 163  930.9523
 164  938.0712
 165  814.9313
 166  820.5294
 167  798.5774
 168  922.2141
 169  901.4793
 170  884.9435
 171  930.9099
 172  1014.399
 173  875.184
 174  896.1627
 175  941.0535
 176  926.8118
 177  958.3994
 178  992.7162
 179  978.059
 180  918.642
 181  902.5555
 182  910.8348
 183  1045.098
 184  972.2437
 185  1057.6
 186  1029.453
 187  909.0782
 188  847.8844
 189  928.9756
 190  891.0704
 191  948.2118
 192  983.9875
 193  1108.405
 194  1125.211
 195  1043.215
 196  945.9541
 197  910.0583
 198  923.2135
 199  966.3006
 200  1115.567
 201  1116.036
 202  1055.261
 203  988.8376
 204  1097.902
 205  982.6224
 206  1059.952
 207  1048.506
 208  1088.378
 209  1054.981
 210  987.4503
 211  939.7251
 212  1027.99
 213  1100.104
 214  1034.265
 215  951.4415
 216  954.9702
 217  1032.245
 218  875.1327
 219  860.3862
 220  1033.814
 221  1027.75
 222  1086.536
 223  1176.974
 224  1054.361
 225  1050.799
 226  1098.904
 227  1083.35
 228  1068.013
 229  1006.901
 230  923.2972
 231  945.4406
 232  1037.884
 233  1042.11
 234  920.2362
 235  1020.3
 236  1044.656
 237  961.3331
 238  934.2284
 239  1030.58
 240  980.4874
 241  925.4703
 242  1072.358
 243  1215.419
 244  1153.328
 245  1130.096
 246  1122.306
 247  1057.442
 248  1088.511
 249  1160.189
 250  1117.847
 251  973.5489
 252  1018.529
 253  1145.75
 254  1018.326
 255  1032.424
 256  1053.243
 257  1078.036
 258  1004.197
 259  1041.644
 260  1085.626
 261  972.9055
 262  964.9705
 263  1097.684
 264  1172.88
 265  1085.99
 266  986.2374
 267  930.9732
 268  1016.057
 269  1061.075
 270  1088.907
 271  1002.261
 272  1022.021
 273  1079.212
 274  1061.122
 275  984.5869
 276  968.563
 277  935.8878
 278  1027.187
 279  1042.132
 280  1150.801
 281  1046.107
 282  1071.938
 283  1087.461
 284  1078.155
 285  1058.926
 286  926.4346
 287  867.7449
 288  920.2051
 289  883.4404
 290  1035.441
 291  1067.934
 292  953.1516
 293  1042.153
 294  1201.846
 295  1145.653
 296  1230.138
 297  1120.894
 298  984.8889
 299  856.2849
 300  932.1654
 301  1011.806
 302  1008.613
 303  921.2596
 304  978.1281
 305  988.046
 306  1028.135
 307  1106.695
 308  1037.804
 309  967.714
 310  969.6988
 311  981.7178
 312  966.4584
 313  965.0671
 314  1039.293
 315  992.873
 316  953.5919
 317  997.912
 318  1040.505
 319  1011.206
 320  965.788
 321  950.5193
 322  1114.443
 323  1087.488
 324  1016.199
 325  1068.463
 326  1067.356
 327  1061.529
 328  1022.288
 329  1005.379
 330  1039.988
 331  1108.697
 332  1021.695
 333  1060.606
 334  1118.999
 335  1048.722
 336  962.8279
 337  916.3892
 338  993.6265
 339  967.7902
 340  1058.339
 341  1113.302
 342  1097.202
 343  1109.147
 344  1118.762
 345  1089.5
 346  1065.751
 347  1089.027
 348  1017.407
 349  1041.508
 350  980.0194
 351  960.3828
 352  933.8785
 353  1015.558
 354  1123.751
 355  1115.826
 356  1061.74
 357  981.6115
 358  926.9157
 359  1054.19
 360  1173.02
 361  1148.5
 362  1137.251
 363  1131.636
 364  1051.69
 365  1024.776
 366  998.0049
 367  1037.86
 368  950.2024
 369  1029.07
 370  1013.595
 371  1014.343
 372  1140.096
 373  1066.569
 374  1050.144
 375  1073.143
 376  1009.522
 377  994.8119
 378  983.2261
 379  1028.147
 380  1012.617
 381  891.1617
 382  944.6523
 383  947.9717
 384  991.9466
 385  1122.89
 386  1029.874
 387  938.9202
 388  927.2929
 389  931.5124
 390  981.4724
 391  1048.667
 392  1075.809
 393  1181.495
 394  1190.423
 395  1043.844
 396  1031.78
 397  958.8729
 398  875.1528
 399  896.3868
 400  921.7401
 401  972.4956
 402  966.2395
 403  997.7194
 404  996.9254
 405  997.1691
 406  929.3471
 407  934.5187
 408  948.5859
 409  1051.571
 410  987.2214
 411  941.7122
 412  926.7194
 413  947.0571
 414  1032.029
 415  1002.333
 416  992.3024
 417  1001.647
 418  1018.527
 419  1003.065
 420  1000.459
 421  1097.375
 422  1023.974
 423  929.0572
 424  874.5961
 425  976.5397
 426  1129.552
 427  1036.004
 428  1040.345
 429  951.9875
 430  997.6841
 431  987.4916
 432  931.6592
 433  947.1782
 434  1003.213
 435  1002.25
 436  935.3776
 437  982.0945
 438  1028.69
 439  980.3858
 440  945.7949
 441  1112.368
 442  1068.612
 443  1032.027
 444  1126.514
 445  1014.987
 446  890.4701
 447  980.7621
 448  1016.99
 449  882.8138
 450  1026.839
 451  1023.156
 452  881.0146
 453  876.3627
 454  1032.831
 455  1047.072
 456  881.077
 457  992.1773
 458  1097.073
 459  1077.258
 460  983.4437
 461  988.6032
 462  1099.762
 463  1131.971
 464  1015.36
 465  982.5768
 466  1029.149
 467  1016.859
 468  1000.196
 469  951.8593
 470  945.1551
 471  984.1432
 472  943.1865
 473  939.3969
 474  948.804
 475  1000.018
 476  1094.017
 477  1115.482
 478  1091.145
 479  943.8326
 480  910.9942
 481  1007.222
 482  1065.537
 483  909.6497
 484  958.1857
 485  1066.755
 486  1023.852
 487  1088.144
 488  1038.437
 489  953.821
 490  1004.607
 491  1102.284
 492  1184.964
 493  1158.8
 494  1036.763
 495  1002.656
 496  1038.972
 497  1070.472
 498  976.3508
 499  1104.749
 500  1024.13
 501  1104.534
 502  1087.538
 503  1160.518
 504  1151.372
 505  1126.648
 506  1198.764
 507  1131.082
 508  1225.025
 509  1459.401
 510  1615.616
 511  1607.045
