# Input file       =  1211513688.100121_cleaned.dat
# Candidate        =  PSR_0332+5434
# Telescope        =  AR
# Epoch_topo       =  58266.148959492144
# Epoch_bary       =  N/A
# T_sample         =  0.002
# Data Folded      =  7143424
# Data Avg         =  0.063706393754876
# Data StdDev      =  1.00015883139117 
# Profile Bins     =  512
# Profile Avg      =  888.833521225982 
# Profile StdDev   =  118.137345420963 
# Reduced chi-sqr  =  1.632
# Prob(Noise)      <  6.51e-18   (~8.5 sigma)
# P_topo (ms)      =  714.520686277683  +/- 8.88e-05
# P'_topo (s/s)    =  -0                +/- 4.82e-11
# P''_topo (s/s^2) =  0                 +/- 2.18e-14
# P_bary (ms)      =  N/A
# P'_bary (s/s)    =  N/A
# P''_bary (s/s^2) =  N/A
# P_orb (s)        =  N/A
# asin(i)/c (s)    =  N/A
# eccentricity     =  N/A
# w (rad)          =  N/A
# T_peri           =  N/A
######################################################
   0  1537.628
   1  1608.404
   2  1513.551
   3  1182.893
   4  944.4315
   5  906.3068
   6  863.7296
   7  843.5784
   8  882.8019
   9  919.4882
  10  960.8863
  11  940.8255
  12  836.2205
  13  902.9259
  14  912.7798
  15  988.4025
  16  956.9114
  17  950.6036
  18  863.8689
  19  975.5346
  20  850.8575
  21  707.9748
  22  838.0107
  23  905.9824
  24  909.2671
  25  918.5358
  26  920.2631
  27  1004.09
  28  916.3884
  29  824.3364
  30  733.8508
  31  756.8759
  32  940.8336
  33  1012.952
  34  985.6567
  35  1096.172
  36  1052.981
  37  941.0095
  38  928.9519
  39  1012.277
  40  1022.104
  41  948.9693
  42  1061.878
  43  1062.233
  44  1042.264
  45  957.6333
  46  868.6278
  47  872.6785
  48  937.4542
  49  1093.237
  50  967.6143
  51  924.2983
  52  942.7407
  53  923.4816
  54  970.0427
  55  921.4379
  56  979.4544
  57  914.454
  58  948.6511
  59  887.6504
  60  921.233
  61  944.5038
  62  884.3681
  63  871.8666
  64  868.605
  65  804.1548
  66  864.9298
  67  916.4443
  68  942.8007
  69  923.0027
  70  964.9233
  71  877.6291
  72  986.6762
  73  1014.952
  74  978.0588
  75  976.9819
  76  1014.772
  77  931.2113
  78  957.8895
  79  933.4395
  80  873.2657
  81  790.7881
  82  843.7077
  83  1003.288
  84  1001.263
  85  970.1883
  86  1009.036
  87  1077.038
  88  1037.077
  89  947.8045
  90  848.3333
  91  1022.47
  92  1013.324
  93  964.907
  94  923.6843
  95  904.5962
  96  901.6168
  97  956.3643
  98  910.0539
  99  842.4204
 100  946.1206
 101  1077.571
 102  929.655
 103  842.2733
 104  1069.228
 105  1023.755
 106  1079.971
 107  1007.627
 108  962.29
 109  1029.04
 110  1040.311
 111  930.0771
 112  888.5544
 113  919.0228
 114  1006.424
 115  991.274
 116  966.9603
 117  1073.07
 118  1072.113
 119  1058.988
 120  813.103
 121  883.2089
 122  957.3196
 123  907.9955
 124  952.0856
 125  989.2806
 126  874.144
 127  890.7019
 128  966.2949
 129  934.7073
 130  863.4545
 131  882.7656
 132  935.2025
 133  966.04
 134  1019.137
 135  855.4877
 136  867.5966
 137  1016.919
 138  1057.246
 139  964.1948
 140  922.7977
 141  901.0685
 142  817.4794
 143  1039.313
 144  974.1963
 145  980.3841
 146  986.0924
 147  954.4485
 148  1012.388
 149  924.3555
 150  971.4093
 151  972.6312
 152  912.6654
 153  1010.28
 154  1065.202
 155  1076.466
 156  955.1207
 157  875.579
 158  1015.754
 159  1110.289
 160  1042.496
 161  1036.274
 162  1008.638
 163  961.9484
 164  832.7522
 165  895.2248
 166  928.0199
 167  928.7052
 168  1004.126
 169  983.8852
 170  845.6478
 171  840.1387
 172  911.2058
 173  925.1019
 174  1000.806
 175  988.9197
 176  918.5074
 177  1022.937
 178  892.6954
 179  816.1011
 180  844.0021
 181  1001.605
 182  1032.897
 183  1011.703
 184  937.7422
 185  911.6127
 186  906.7931
 187  890.8745
 188  830.0372
 189  994.0014
 190  963.366
 191  926.4026
 192  919.3447
 193  931.6007
 194  876.9854
 195  827.7184
 196  850.9595
 197  882.4363
 198  834.2446
 199  901.5141
 200  1084.493
 201  1083.279
 202  982.2885
 203  965.4714
 204  926.8538
 205  877.2149
 206  868.7479
 207  816.014
 208  880.4842
 209  860.6802
 210  867.9277
 211  931.1942
 212  940.5494
 213  843.1726
 214  839.1887
 215  859.533
 216  974.5476
 217  942.6425
 218  870.3816
 219  961.3084
 220  915.3878
 221  814.4607
 222  925.3161
 223  932.1409
 224  984.3004
 225  1048.341
 226  923.6873
 227  914.4207
 228  867.5463
 229  828.7526
 230  878.6007
 231  819.8154
 232  912.6667
 233  880.1158
 234  811.4562
 235  886.6193
 236  918.2162
 237  978.1118
 238  904.8216
 239  753.3049
 240  822.0934
 241  892.4507
 242  839.545
 243  815.4763
 244  650.1925
 245  732.1921
 246  764.0212
 247  900.2526
 248  938.3497
 249  791.4098
 250  932.8832
 251  982.5213
 252  788.2764
 253  711.1714
 254  864.4215
 255  984.3035
 256  966.4367
 257  868.468
 258  877.0917
 259  904.0505
 260  806.1374
 261  688.6648
 262  763.5461
 263  797.4105
 264  767.7366
 265  723.5649
 266  819.1501
 267  746.8805
 268  659.6772
 269  866.8966
 270  912.713
 271  882.9172
 272  798.4621
 273  1015.949
 274  911.0842
 275  776.4278
 276  778.5686
 277  768.7354
 278  724.2125
 279  819.9171
 280  913.8248
 281  941.5539
 282  929.4615
 283  945.5877
 284  830.7391
 285  786.1512
 286  882.9742
 287  801.8658
 288  713.1073
 289  804.2558
 290  857.8316
 291  906.3691
 292  894.2924
 293  858.1733
 294  741.8276
 295  770.4972
 296  862.5212
 297  755.3072
 298  939.9808
 299  835.9654
 300  854.9323
 301  891.8341
 302  954.7883
 303  889.8097
 304  840.7564
 305  821.462
 306  944.9852
 307  923.0908
 308  853.1689
 309  775.7114
 310  764.5112
 311  783.2672
 312  817.618
 313  835.48
 314  879.1103
 315  828.7893
 316  836.9288
 317  701.1508
 318  712.9384
 319  740.4974
 320  710.8768
 321  809.8931
 322  833.4532
 323  798.3116
 324  791.8414
 325  826.2656
 326  783.0292
 327  664.0227
 328  757.4644
 329  784.4796
 330  832.2748
 331  822.9883
 332  983.384
 333  885.6129
 334  765.246
 335  807.3555
 336  796.2145
 337  833.378
 338  839.9102
 339  867.3981
 340  739.4189
 341  761.6909
 342  854.506
 343  781.9019
 344  750.7231
 345  795.3746
 346  798.0482
 347  833.5038
 348  834.9585
 349  981.2833
 350  989.8959
 351  820.8611
 352  806.2369
 353  888.3838
 354  955.4763
 355  1000.919
 356  1108.481
 357  861.6375
 358  792.5337
 359  805.7997
 360  778.2935
 361  816.3683
 362  739.6605
 363  767.7342
 364  793.541
 365  868.68
 366  939.9062
 367  818.0695
 368  808.4926
 369  852.5532
 370  784.2535
 371  720.1799
 372  851.4141
 373  938.0919
 374  994.392
 375  895.888
 376  792.3139
 377  821.7719
 378  809.46
 379  869.5098
 380  765.1062
 381  793.254
 382  828.6342
 383  817.4561
 384  708.0728
 385  852.0947
 386  816.517
 387  775.5099
 388  860.1897
 389  925.5614
 390  887.1052
 391  935.7508
 392  882.0565
 393  806.7831
 394  812.3048
 395  951.2325
 396  825.8826
 397  748.1601
 398  953.9399
 399  929.5001
 400  899.4575
 401  748.6841
 402  780.3372
 403  840.9348
 404  757.9786
 405  731.7783
 406  798.2918
 407  812.0138
 408  815.4877
 409  737.1136
 410  749.681
 411  778.3217
 412  740.2856
 413  829.2225
 414  881.4187
 415  855.1387
 416  948.6226
 417  815.7287
 418  836.6543
 419  855.9053
 420  871.3557
 421  902.8253
 422  933.5872
 423  1048.239
 424  968.4012
 425  872.8116
 426  849.7809
 427  850.0593
 428  887.2579
 429  856.8902
 430  873.5238
 431  932.6884
 432  949.9154
 433  829.3341
 434  809.9815
 435  844.3301
 436  780.0007
 437  820.5593
 438  962.951
 439  838.5659
 440  746.0245
 441  758.5104
 442  734.0298
 443  667.9398
 444  661.5329
 445  734.7111
 446  720.9829
 447  798.1102
 448  764.1349
 449  745.1793
 450  802.058
 451  897.7885
 452  766.6219
 453  750.5473
 454  842.0568
 455  835.9481
 456  851.33
 457  822.3862
 458  649.104
 459  718.4302
 460  746.3713
 461  710.2866
 462  823.8397
 463  839.4077
 464  986.8995
 465  884.4333
 466  712.3016
 467  769.2784
 468  761.0301
 469  744.029
 470  827.6442
 471  918.7968
 472  931.522
 473  887.1353
 474  859.3813
 475  765.4178
 476  736.4379
 477  689.1697
 478  688.7562
 479  727.4883
 480  915.2546
 481  1018.402
 482  852.4651
 483  809.1862
 484  890.8701
 485  875.2183
 486  972.1442
 487  1007.876
 488  860.2747
 489  874.6033
 490  817.3221
 491  861.2192
 492  873.2418
 493  826.9426
 494  867.1833
 495  868.4264
 496  850.4496
 497  870.0735
 498  740.8633
 499  843.0049
 500  918.0387
 501  959.2487
 502  1002.75
 503  918.6429
 504  918.5322
 505  920.0218
 506  884.5775
 507  915.9302
 508  994.3557
 509  1067.223
 510  1251.727
 511  1356.661
