# Input file       =  1211113075.123591_cleaned.dat
# Candidate        =  PSR_0332+5434
# Telescope        =  AR
# Epoch_topo       =  58261.512235226750
# Epoch_bary       =  N/A
# T_sample         =  0.002
# Data Folded      =  7340032
# Data Avg         =  0.0403041104178757
# Data StdDev      =  1.00016594188595 
# Profile Bins     =  512
# Profile Avg      =  577.812054829966 
# Profile StdDev   =  119.752905102633 
# Reduced chi-sqr  =  0.975
# Prob(Noise)      <  0.649   (~0.0 sigma)
# P_topo (ms)      =  714.525592885562  +/- 0.00018
# P'_topo (s/s)    =  -0                +/- 9.48e-11
# P''_topo (s/s^2) =  0                 +/- 4.18e-14
# P_bary (ms)      =  N/A
# P'_bary (s/s)    =  N/A
# P''_bary (s/s^2) =  N/A
# P_orb (s)        =  N/A
# asin(i)/c (s)    =  N/A
# eccentricity     =  N/A
# w (rad)          =  N/A
# T_peri           =  N/A
######################################################
   0  1166.722
   1  1131.849
   2  1018.302
   3  718.2972
   4  564.8864
   5  519.0565
   6  547.3794
   7  616.1087
   8  526.7547
   9  526.413
  10  531.9858
  11  580.9961
  12  579.2438
  13  602.9075
  14  534.5175
  15  553.752
  16  632.2175
  17  676.088
  18  591.4622
  19  581.0382
  20  660.6402
  21  559.131
  22  530.3761
  23  505.6968
  24  474.092
  25  560.1889
  26  605.5122
  27  531.0547
  28  549.4695
  29  590.8723
  30  431.5041
  31  440.4947
  32  512.6905
  33  526.5256
  34  560.8157
  35  568.3216
  36  537.6871
  37  521.5169
  38  603.9433
  39  570.4722
  40  555.5261
  41  683.0381
  42  583.3264
  43  458.8146
  44  551.8378
  45  587.9282
  46  474.0718
  47  472.1216
  48  503.374
  49  658.851
  50  673.5511
  51  560.5901
  52  488.2188
  53  409.3604
  54  467.468
  55  488.3049
  56  381.273
  57  501.9289
  58  515.1773
  59  437.6168
  60  511.8249
  61  441.2535
  62  388.0719
  63  460.6352
  64  505.0226
  65  558.2521
  66  472.9011
  67  590.9091
  68  578.7152
  69  438.315
  70  378.2343
  71  508.5023
  72  556.7299
  73  557.912
  74  599.4115
  75  658.6086
  76  603.051
  77  642.6662
  78  590.408
  79  698.1113
  80  635.0122
  81  558.4769
  82  663.8985
  83  666.1298
  84  682.3971
  85  625.6809
  86  653.3849
  87  721.0934
  88  619.6372
  89  619.6091
  90  701.0805
  91  695.58
  92  662.2455
  93  612.3281
  94  692.6218
  95  609.7009
  96  593.9116
  97  547.073
  98  599.8628
  99  583.5671
 100  628.6312
 101  585.6023
 102  687.9515
 103  602.8317
 104  527.0241
 105  482.8577
 106  578.1061
 107  513.8975
 108  504.3886
 109  459.6842
 110  532.9016
 111  439.1574
 112  501.4253
 113  590.5364
 114  524.3313
 115  531.4061
 116  662.1301
 117  690.2715
 118  508.4947
 119  483.5036
 120  554.5571
 121  396.2484
 122  432.7496
 123  562.9732
 124  587.3633
 125  595.7256
 126  545.3985
 127  498.7812
 128  582.8836
 129  487.7429
 130  523.4663
 131  503.0582
 132  448.5528
 133  408.5941
 134  570.4077
 135  568.8622
 136  705.4092
 137  629.9822
 138  644.8314
 139  617.2939
 140  684.0017
 141  698.8337
 142  645.1879
 143  564.0432
 144  562.8514
 145  699.6959
 146  653.8916
 147  541.5285
 148  603.2813
 149  656.9177
 150  752.9034
 151  693.0027
 152  676.4586
 153  624.5379
 154  547.0475
 155  555.5646
 156  603.0496
 157  616.4424
 158  605.2524
 159  516.2277
 160  483.1101
 161  558.4743
 162  579.2747
 163  434.8029
 164  476.9732
 165  577.0903
 166  641.197
 167  563.7927
 168  533.7738
 169  594.6818
 170  648.8345
 171  652.1428
 172  570.4996
 173  565.7553
 174  610.7491
 175  526.5661
 176  581.7245
 177  719.7532
 178  713.7747
 179  607.4705
 180  516.5187
 181  591.6167
 182  652.6213
 183  736.2222
 184  565.1723
 185  639.2094
 186  611.1538
 187  577.1384
 188  609.0017
 189  539.6972
 190  568.592
 191  495.1021
 192  533.8849
 193  558.4388
 194  614.7211
 195  601.9734
 196  568.8527
 197  665.2119
 198  544.2043
 199  613.504
 200  538.9377
 201  558.6143
 202  594.6996
 203  608.6822
 204  601.7158
 205  557.0667
 206  461.1616
 207  604.4825
 208  559.7125
 209  567.388
 210  702.3743
 211  703.395
 212  580.9429
 213  647.9398
 214  627.3303
 215  632.6016
 216  681.7261
 217  678.7546
 218  681.1208
 219  573.5107
 220  610.3088
 221  582.9836
 222  618.0342
 223  590.5187
 224  493.2011
 225  431.6499
 226  652.4514
 227  613.0329
 228  505.0264
 229  522.2237
 230  588.9904
 231  695.2658
 232  697.5937
 233  643.0162
 234  519.4445
 235  559.3622
 236  547.9783
 237  519.5687
 238  609.7073
 239  541.8483
 240  504.5089
 241  550.218
 242  523.1602
 243  543.5259
 244  550.0604
 245  608.6015
 246  546.6739
 247  508.6564
 248  624.6394
 249  588.9069
 250  535.9025
 251  576.0494
 252  560.7126
 253  649.7744
 254  665.3835
 255  621.5643
 256  604.1752
 257  613.7783
 258  571.0661
 259  519.2693
 260  526.1052
 261  692.4106
 262  598.0012
 263  631.7128
 264  573.333
 265  549.7531
 266  548.6602
 267  609.6559
 268  619.6171
 269  534.4462
 270  528.6988
 271  519.7742
 272  549.0508
 273  461.9481
 274  695.4752
 275  676.3738
 276  663.6593
 277  601.1469
 278  637.4478
 279  548.6583
 280  524.968
 281  421.5789
 282  409.8535
 283  509.0779
 284  505.5944
 285  571.749
 286  535.694
 287  466.9313
 288  560.6737
 289  587.8181
 290  609.9301
 291  516.9911
 292  568.9024
 293  634.8173
 294  549.6127
 295  700.2889
 296  766.3065
 297  561.9114
 298  526.3645
 299  598.9132
 300  601.6559
 301  539.3837
 302  524.1962
 303  577.746
 304  578.2588
 305  625.0134
 306  555.2081
 307  628.9596
 308  576.3646
 309  477.2255
 310  506.474
 311  637.967
 312  660.0087
 313  604.592
 314  683.9116
 315  628.1933
 316  565.2578
 317  693.1792
 318  684.2948
 319  653.3752
 320  624.5078
 321  575.5022
 322  617.7357
 323  588.9378
 324  535.5389
 325  569.0731
 326  608.9865
 327  645.1273
 328  564.8845
 329  600.2457
 330  634.7794
 331  697.0256
 332  605.6353
 333  626.0076
 334  557.6066
 335  505.0349
 336  614.3456
 337  574.6605
 338  524.7156
 339  665.6834
 340  631.0509
 341  561.265
 342  568.7977
 343  464.2235
 344  508.6859
 345  562.989
 346  619.6476
 347  679.1511
 348  619.716
 349  542.1487
 350  507.6453
 351  545.2204
 352  600.8977
 353  674.311
 354  723.0118
 355  651.6578
 356  646.3729
 357  570.6892
 358  492.1559
 359  556.9427
 360  585.8239
 361  569.7595
 362  607.7888
 363  657.4434
 364  637.8786
 365  582.9653
 366  417.7958
 367  484.43
 368  559.7033
 369  587.5706
 370  636.4975
 371  466.2461
 372  486.2537
 373  449.3124
 374  551.4772
 375  519.5248
 376  475.4903
 377  510.6696
 378  626.3915
 379  552.2459
 380  522.6581
 381  532.3087
 382  561.0534
 383  618.4654
 384  581.1756
 385  603.0142
 386  622.0489
 387  628.3909
 388  775.6441
 389  628.9225
 390  456.585
 391  432.0924
 392  538.7807
 393  536.9499
 394  442.6924
 395  447.3982
 396  510.0872
 397  415.7571
 398  428.0578
 399  434.56
 400  510.4242
 401  477.2988
 402  401.9771
 403  455.584
 404  475.6387
 405  522.2878
 406  520.9619
 407  438.5785
 408  483.619
 409  445.134
 410  520.3145
 411  573.3451
 412  527.3339
 413  541.0449
 414  549.6045
 415  550.4802
 416  582.1099
 417  613.0823
 418  705.2028
 419  563.806
 420  473.218
 421  513.9894
 422  585.7511
 423  633.1289
 424  555.8691
 425  498.9042
 426  407.8033
 427  471.4027
 428  555.4705
 429  552.199
 430  435.4716
 431  436.5901
 432  380.7609
 433  387.8197
 434  507.3882
 435  627.8773
 436  598.6369
 437  586.0045
 438  584.3517
 439  644.3448
 440  638.5596
 441  579.5964
 442  524.341
 443  482.6079
 444  646.5162
 445  609.3742
 446  673.9927
 447  646.1608
 448  482.191
 449  547.2918
 450  526.7664
 451  555.2855
 452  587.9003
 453  577.4647
 454  652.5928
 455  786.3383
 456  695.8191
 457  603.9722
 458  564.8759
 459  472.6096
 460  546.5005
 461  650.8461
 462  704.3297
 463  665.84
 464  588.47
 465  668.0401
 466  632.3757
 467  475.2361
 468  540.9243
 469  440.7118
 470  511.3065
 471  495.4954
 472  576.843
 473  657.0961
 474  671.1375
 475  635.8037
 476  629.4172
 477  660.6882
 478  603.3978
 479  596.3948
 480  637.0504
 481  576.4424
 482  613.9705
 483  625.9896
 484  694.7875
 485  529.0856
 486  551.4399
 487  614.7284
 488  561.7338
 489  644.6583
 490  590.5237
 491  586.9453
 492  630.1177
 493  562.8124
 494  523.4863
 495  643.3383
 496  651.3763
 497  607.3696
 498  692.222
 499  680.2451
 500  638.7601
 501  509.4344
 502  613.1207
 503  687.2238
 504  652.732
 505  654.773
 506  514.925
 507  578.8278
 508  667.9926
 509  630.9813
 510  680.6503
 511  861.222
