# Input file       =  1211442149.106837_cleaned.dat
# Candidate        =  PSR_0332+5434
# Telescope        =  AR
# Epoch_topo       =  58265.320961884689
# Epoch_bary       =  N/A
# T_sample         =  0.002
# Data Folded      =  7340032
# Data Avg         =  0.0378771347036232
# Data StdDev      =  1.00008403467366 
# Profile Bins     =  512
# Profile Avg      =  543.00822008368  
# Profile StdDev   =  119.743098103404 
# Reduced chi-sqr  =  1.234
# Prob(Noise)      <  0.000228   (~3.5 sigma)
# P_topo (ms)      =  714.521508442437  +/- 0.000609
# P'_topo (s/s)    =  -0                +/- 3.21e-10
# P''_topo (s/s^2) =  0                 +/- 1.42e-13
# P_bary (ms)      =  N/A
# P'_bary (s/s)    =  N/A
# P''_bary (s/s^2) =  N/A
# P_orb (s)        =  N/A
# asin(i)/c (s)    =  N/A
# eccentricity     =  N/A
# w (rad)          =  N/A
# T_peri           =  N/A
######################################################
   0  1113.925
   1  1095.383
   2  892.8516
   3  691.6114
   4  596.8019
   5  576.5088
   6  531.6144
   7  558.6194
   8  638.8258
   9  652.5554
  10  677.7255
  11  614.767
  12  512.8139
  13  463.512
  14  564.3399
  15  572.0795
  16  660.207
  17  634.491
  18  398.6842
  19  406.4013
  20  516.1751
  21  542.1207
  22  589.1118
  23  532.2696
  24  503.0056
  25  522.4837
  26  489.8387
  27  567.6166
  28  664.0421
  29  652.184
  30  614.6256
  31  448.2508
  32  481.263
  33  569.126
  34  616.6085
  35  637.277
  36  616.5145
  37  510.775
  38  567.4017
  39  616.7969
  40  555.9664
  41  659.326
  42  619.2276
  43  626.3657
  44  671.3017
  45  670.3734
  46  599.8016
  47  653.4014
  48  687.3149
  49  589.106
  50  584.3896
  51  664.1461
  52  656.81
  53  531.9788
  54  620.493
  55  632.4793
  56  606.9035
  57  599.869
  58  612.0002
  59  588.956
  60  580.711
  61  577.69
  62  503.9687
  63  579.5527
  64  451.3166
  65  460.8249
  66  492.1853
  67  452.4491
  68  532.78
  69  508.4487
  70  536.5667
  71  543.5519
  72  529.2502
  73  513.0018
  74  478.0036
  75  497.6352
  76  516.27
  77  614.9846
  78  553.6061
  79  486.2985
  80  508.2221
  81  512.7685
  82  561.9759
  83  608.1345
  84  482.7354
  85  466.5407
  86  575.9576
  87  692.2264
  88  594.3501
  89  555.053
  90  711.8497
  91  707.5756
  92  622.1393
  93  626.5748
  94  599.8723
  95  585.457
  96  586.7912
  97  707.1129
  98  701.1697
  99  676.8265
 100  652.9445
 101  666.0826
 102  662.3005
 103  607.5164
 104  657.6614
 105  656.994
 106  662.6054
 107  655.293
 108  600.5071
 109  507.6164
 110  495.3843
 111  582.1843
 112  591.3746
 113  574.2404
 114  497.0647
 115  544.5432
 116  526.3674
 117  573.9917
 118  625.914
 119  583.7654
 120  629.8314
 121  642.6152
 122  585.1038
 123  450.312
 124  521.7955
 125  571.1225
 126  571.569
 127  585.7834
 128  553.6929
 129  567.6245
 130  542.0426
 131  524.9639
 132  613.7767
 133  613.9573
 134  587.7682
 135  604.5486
 136  495.4995
 137  553.7406
 138  622.2889
 139  548.8578
 140  629.9252
 141  641.1837
 142  639.0266
 143  572.2566
 144  617.981
 145  612.7004
 146  608.5836
 147  644.8265
 148  650.1528
 149  632.0074
 150  646.1945
 151  564.0068
 152  591.88
 153  587.7198
 154  567.7205
 155  560.3519
 156  560.8986
 157  538.8753
 158  590.3929
 159  671.2974
 160  627.6407
 161  554.5647
 162  667.105
 163  602.607
 164  563.723
 165  510.1087
 166  529.2201
 167  514.3304
 168  466.2287
 169  550.8423
 170  510.5771
 171  540.8221
 172  612.6416
 173  603.5934
 174  596.0882
 175  599.5131
 176  602.2601
 177  605.3662
 178  595.4031
 179  597.5907
 180  586.8434
 181  767.2559
 182  742.0359
 183  629.1423
 184  586.9047
 185  630.1317
 186  629.8031
 187  641.7835
 188  679.2663
 189  511.3871
 190  573.1953
 191  619.6481
 192  714.731
 193  648.6452
 194  699.701
 195  671.4443
 196  640.5564
 197  641.317
 198  588.1498
 199  623.6226
 200  678.325
 201  707.7736
 202  653.1379
 203  554.0105
 204  553.3352
 205  620.4943
 206  594.2308
 207  561.5951
 208  664.7911
 209  618.0305
 210  506.3736
 211  559.2391
 212  621.5103
 213  540.8982
 214  535.1342
 215  615.8598
 216  558.424
 217  570.8055
 218  735.5657
 219  671.5472
 220  587.1
 221  602.5392
 222  484.9431
 223  470.9025
 224  477.2324
 225  643.1352
 226  603.4745
 227  606.0302
 228  585.8804
 229  551.3339
 230  572.1519
 231  570.7926
 232  691.2395
 233  614.8149
 234  502.3311
 235  492.7664
 236  504.1665
 237  530.6941
 238  516.6752
 239  552.3641
 240  405.292
 241  549.5294
 242  548.9685
 243  560.6795
 244  499.8949
 245  554.5566
 246  510.5909
 247  440.9343
 248  386.2452
 249  463.2363
 250  470.0918
 251  494.5137
 252  586.9192
 253  590.764
 254  479.3446
 255  541.5665
 256  595.6304
 257  610.2833
 258  613.2032
 259  655.5529
 260  587.4836
 261  491.6797
 262  447.6659
 263  554.5328
 264  436.2388
 265  417.6597
 266  485.9271
 267  558.9232
 268  503.3276
 269  427.0838
 270  511.681
 271  545.9939
 272  429.7693
 273  405.1873
 274  493.8618
 275  465.7209
 276  462.2256
 277  429.9051
 278  476.304
 279  447.7061
 280  446.7024
 281  492.2418
 282  516.0541
 283  473.6951
 284  428.3125
 285  416.3132
 286  427.3288
 287  454.159
 288  390.8379
 289  348.9527
 290  433.7755
 291  480.7945
 292  534.8187
 293  437.9676
 294  522.2168
 295  451.334
 296  420.4567
 297  383.8837
 298  467.865
 299  530.8571
 300  434.4394
 301  413.0176
 302  419.0237
 303  398.7633
 304  480.9569
 305  512.1627
 306  544.8298
 307  465.804
 308  421.1443
 309  343.8197
 310  416.1053
 311  455.1471
 312  373.7343
 313  410.1956
 314  444.3643
 315  454.6682
 316  433.8944
 317  516.895
 318  523.6613
 319  474.2507
 320  520.6177
 321  442.2614
 322  425.5809
 323  445.989
 324  455.4768
 325  430.8534
 326  317.9572
 327  332.2513
 328  453.7502
 329  455.9484
 330  464.0294
 331  387.913
 332  515.6018
 333  550.8799
 334  562.6057
 335  440.7477
 336  439.0963
 337  424.8766
 338  487.1877
 339  384.364
 340  409.1212
 341  450.6064
 342  481.9576
 343  449.5139
 344  489.8918
 345  483.4853
 346  548.4398
 347  459.8017
 348  436.2352
 349  407.4449
 350  394.4873
 351  400.7333
 352  370.2205
 353  354.4626
 354  416.2822
 355  346.2145
 356  457.5347
 357  484.111
 358  509.3655
 359  435.4863
 360  503.6729
 361  524.7716
 362  483.0474
 363  520.42
 364  519.5475
 365  464.8943
 366  410.061
 367  498.2243
 368  493.3471
 369  431.3461
 370  420.0566
 371  493.2537
 372  433.8579
 373  476.3953
 374  494.8665
 375  469.0993
 376  505.3758
 377  609.3685
 378  598.5575
 379  464.2569
 380  545.4716
 381  576.8052
 382  540.4119
 383  620.0566
 384  668.4847
 385  600.3936
 386  531.3359
 387  580.0067
 388  605.2718
 389  574.8718
 390  540.6313
 391  454.3673
 392  561.9645
 393  495.6879
 394  424.8956
 395  560.0652
 396  609.0543
 397  527.3038
 398  517.2697
 399  422.7524
 400  478.5694
 401  469.7736
 402  485.3801
 403  481.6894
 404  457.2353
 405  521.5179
 406  470.4753
 407  451.752
 408  430.4917
 409  498.6383
 410  560.3506
 411  523.7151
 412  505.9397
 413  493.7233
 414  540.4298
 415  537.7592
 416  486.6898
 417  437.9197
 418  481.481
 419  468.4413
 420  452.2521
 421  377.8278
 422  363.6902
 423  451.6611
 424  449.9171
 425  494.8717
 426  533.7272
 427  490.0554
 428  559.4319
 429  551.3368
 430  540.8434
 431  433.8492
 432  498.9302
 433  516.2324
 434  488.404
 435  559.9509
 436  559.1719
 437  568.1559
 438  544.4282
 439  540.5865
 440  488.7662
 441  472.0049
 442  511.4451
 443  466.375
 444  400.8432
 445  372.1745
 446  492.7517
 447  599.3487
 448  491.6909
 449  451.8337
 450  432.1484
 451  472.8718
 452  447.2893
 453  521.7347
 454  394.7935
 455  467.6359
 456  463.6645
 457  468.7311
 458  468.3677
 459  510.87
 460  542.5515
 461  536.2958
 462  451.0914
 463  606.9246
 464  497.7586
 465  446.0477
 466  553.623
 467  625.4949
 468  545.2042
 469  507.1329
 470  601.269
 471  530.9756
 472  502.0113
 473  472.7531
 474  518.8701
 475  549.8956
 476  605.4045
 477  679.507
 478  649.6932
 479  638.6372
 480  566.0774
 481  597.5428
 482  505.4947
 483  467.4257
 484  533.2744
 485  525.2331
 486  568.4451
 487  498.6059
 488  562.7399
 489  560.6883
 490  527.5904
 491  493.0873
 492  513.7494
 493  522.8617
 494  545.5402
 495  525.5756
 496  510.1251
 497  472.343
 498  549.1514
 499  529.4599
 500  574.4993
 501  558.6894
 502  478.1111
 503  497.0262
 504  637.227
 505  629.4659
 506  722.7108
 507  739.6462
 508  848.1624
 509  838.9687
 510  973.3187
 511  1076.056
