# Input file       =  1211685997.11615_cleaned.dat
# Candidate        =  PSR_0332+5434
# Telescope        =  AR
# Epoch_topo       =  58268.143276807292
# Epoch_bary       =  N/A
# T_sample         =  0.002
# Data Folded      =  7143424
# Data Avg         =  0.0751028092280594
# Data StdDev      =  1.0000952144009  
# Profile Bins     =  512
# Profile Avg      =  1047.81965113174 
# Profile StdDev   =  118.129831072123 
# Reduced chi-sqr  =  1.371
# Prob(Noise)      <  4.44e-08   (~5.3 sigma)
# P_topo (ms)      =  714.518738841297  +/- 0.000145
# P'_topo (s/s)    =  -0                +/- 7.84e-11
# P''_topo (s/s^2) =  0                 +/- 3.56e-14
# P_bary (ms)      =  N/A
# P'_bary (s/s)    =  N/A
# P''_bary (s/s^2) =  N/A
# P_orb (s)        =  N/A
# asin(i)/c (s)    =  N/A
# eccentricity     =  N/A
# w (rad)          =  N/A
# T_peri           =  N/A
######################################################
   0  1562.837
   1  1555.071
   2  1441.293
   3  1196.472
   4  1060.266
   5  965.303
   6  1031.14
   7  950.6631
   8  1012.451
   9  1042.236
  10  979.9871
  11  859.9228
  12  881.3395
  13  884.6478
  14  991.1996
  15  1056.981
  16  1061.554
  17  983.7485
  18  981.4313
  19  966.3637
  20  915.9752
  21  817.4801
  22  737.0048
  23  827.5001
  24  895.2822
  25  1056.381
  26  1096.345
  27  898.4707
  28  909.3269
  29  890.851
  30  919.1639
  31  922.0211
  32  839.1891
  33  919.4386
  34  976.8349
  35  1014.391
  36  1002.233
  37  977.8108
  38  906.1387
  39  910.1279
  40  950.3125
  41  918.4319
  42  919.2719
  43  831.7312
  44  933.4278
  45  885.4699
  46  971.1736
  47  877.1672
  48  986.5432
  49  935.9689
  50  1007.089
  51  923.988
  52  967.4804
  53  911.6443
  54  991.7946
  55  984.1727
  56  1006.738
  57  1069.751
  58  1109.666
  59  1171.908
  60  1128.769
  61  1001.513
  62  998.6605
  63  1060.708
  64  1101.455
  65  1029.028
  66  910.0417
  67  941.7917
  68  958.5211
  69  923.3462
  70  1007.967
  71  899.6622
  72  950.1633
  73  1026.234
  74  1104.919
  75  1068.629
  76  1039.607
  77  1044.618
  78  939.1691
  79  961.0329
  80  918.366
  81  1012.021
  82  1114.714
  83  1078.989
  84  1079.542
  85  1082.292
  86  1070.845
  87  974.0228
  88  1013.465
  89  1051.793
  90  1110.799
  91  1090.784
  92  1091.524
  93  958.0931
  94  954.9977
  95  1073.785
  96  1063.761
  97  1095.656
  98  1019.293
  99  1068.29
 100  991.3549
 101  970.0472
 102  1034.949
 103  1007.337
 104  1059.656
 105  1089.91
 106  1078.829
 107  985.5919
 108  1039.546
 109  1101.72
 110  1094.564
 111  1040.541
 112  908.1238
 113  1014.266
 114  1022.58
 115  1031.464
 116  1022.957
 117  1054.487
 118  1110.449
 119  1039.463
 120  1020.951
 121  1025.345
 122  978.721
 123  1052.408
 124  1166.083
 125  1125.655
 126  1015.262
 127  923.0738
 128  954.0618
 129  961.9258
 130  969.1732
 131  1029.055
 132  970.3107
 133  976.681
 134  950.0424
 135  905.4531
 136  843.2961
 137  1004.827
 138  946.6735
 139  876.4265
 140  950.9001
 141  1087.036
 142  917.5338
 143  897.3952
 144  998.4938
 145  952.101
 146  1005.552
 147  1015.197
 148  821.6591
 149  988.4101
 150  1056.485
 151  992.991
 152  947.3134
 153  896.6653
 154  884.9362
 155  935.9691
 156  975.7404
 157  967.2733
 158  928.8645
 159  883.6395
 160  1059.3
 161  1066.021
 162  1049.909
 163  1019.482
 164  998.5392
 165  959.6367
 166  981.5797
 167  984.5262
 168  870.5876
 169  936.8828
 170  947.225
 171  960.1339
 172  1005.303
 173  1049.078
 174  1141.278
 175  927.7117
 176  859.5626
 177  959.6448
 178  1000.394
 179  1027.725
 180  943.2146
 181  917.867
 182  843.0044
 183  944.7568
 184  999.9259
 185  1018.467
 186  971.8436
 187  1024.59
 188  1129.03
 189  1107.656
 190  995.1841
 191  941.0739
 192  919.0023
 193  1004.274
 194  1063.733
 195  1042.788
 196  1155.07
 197  1180.902
 198  1097.694
 199  996.0381
 200  1124.511
 201  1050.051
 202  974.9361
 203  1050.206
 204  1086.089
 205  1081.469
 206  1118.375
 207  1099.28
 208  1175.291
 209  1064.104
 210  1034.613
 211  976.5069
 212  953.7044
 213  1067.308
 214  1046.703
 215  1168.457
 216  1151.915
 217  1135.524
 218  1022.282
 219  1101.11
 220  1120.328
 221  1096.479
 222  1197.48
 223  1111.028
 224  1210.836
 225  1124.98
 226  1049.947
 227  1063.014
 228  1076.46
 229  1043.912
 230  1062.13
 231  1120.263
 232  1200.585
 233  1182.369
 234  1140.699
 235  1087.454
 236  1037.132
 237  1129.684
 238  1059.894
 239  1047.901
 240  1177.967
 241  1224.055
 242  1153.96
 243  1139.083
 244  1147.262
 245  1084.793
 246  1132.022
 247  1234.434
 248  1199.117
 249  1077.721
 250  1185.485
 251  1173.697
 252  1132.104
 253  1132.449
 254  1060.202
 255  1132.553
 256  1228.828
 257  1202.169
 258  1116.269
 259  1084.635
 260  1164.189
 261  1122.425
 262  1111.678
 263  1126.257
 264  1115.491
 265  1172.543
 266  1107.087
 267  1102.367
 268  1072.834
 269  1062.798
 270  1011.721
 271  1114.489
 272  1138.514
 273  1050.726
 274  1054.469
 275  1111.406
 276  950.0623
 277  857.3173
 278  1049.703
 279  1120.697
 280  1054.848
 281  1077.833
 282  1074.625
 283  1030.675
 284  1110.37
 285  1179.497
 286  1096.621
 287  1146.012
 288  1081.064
 289  1072.748
 290  1089.678
 291  1032.217
 292  1102.915
 293  1164.192
 294  1106.97
 295  1134.463
 296  1174.761
 297  1187.039
 298  1030.01
 299  1019.164
 300  1159.915
 301  999.1729
 302  1117.238
 303  1269.532
 304  1193.065
 305  1156.573
 306  1269.383
 307  1145.233
 308  1055.847
 309  1142.086
 310  1198.862
 311  1237.368
 312  1159.142
 313  1144.17
 314  1120.613
 315  1074.274
 316  1106.446
 317  1136.305
 318  1220.607
 319  1063.413
 320  979.4727
 321  1124.345
 322  1226.661
 323  1189.794
 324  1075.586
 325  1090.519
 326  1186.029
 327  1160.305
 328  1243.207
 329  1206.018
 330  1131.334
 331  1207.914
 332  1296.679
 333  1220.856
 334  1235.266
 335  1161.039
 336  1138.635
 337  1047.873
 338  1113.007
 339  1223.145
 340  1109.789
 341  1039.358
 342  1095.429
 343  1088.876
 344  1034.696
 345  1097.28
 346  1148.432
 347  1197.778
 348  1125.344
 349  1143.859
 350  1066.62
 351  1066.259
 352  1041.201
 353  1008.013
 354  969.182
 355  999.5861
 356  952.8471
 357  1020.912
 358  1109.021
 359  1012.086
 360  1074.725
 361  1141.654
 362  1115.261
 363  1020.187
 364  1043.218
 365  1088.945
 366  1093.592
 367  1086.154
 368  1096.053
 369  1078.809
 370  1097.77
 371  1145.64
 372  1151.403
 373  1185.691
 374  1094.299
 375  1055.722
 376  1057.533
 377  1076.445
 378  1016.884
 379  1131.377
 380  1090.828
 381  1143.209
 382  1006.521
 383  928.1216
 384  943.4196
 385  976.2769
 386  1049.011
 387  981.1938
 388  1014.517
 389  1190.372
 390  1112.143
 391  1037.593
 392  905.0551
 393  958.3619
 394  966.592
 395  966.3693
 396  1002.098
 397  1101.27
 398  1047.169
 399  986.1058
 400  1052.546
 401  971.0334
 402  1028.287
 403  1069.045
 404  1099.314
 405  1099.092
 406  1050.306
 407  1108.522
 408  1124.151
 409  966.6588
 410  900.623
 411  949.2546
 412  948.6134
 413  993.1369
 414  982.4434
 415  987.5123
 416  984.3245
 417  1012.39
 418  1068.478
 419  1035.959
 420  1041.82
 421  1054.328
 422  1078.308
 423  1065.014
 424  1049.615
 425  967.4092
 426  937.251
 427  1132.015
 428  1090.352
 429  1046.579
 430  1034.476
 431  962.1008
 432  900.6247
 433  956.7994
 434  969.7336
 435  972.7415
 436  1050.71
 437  991.1232
 438  1091.331
 439  1105.558
 440  1136.144
 441  1115.293
 442  1103.427
 443  1095.516
 444  1162.229
 445  1161.942
 446  1152.926
 447  1012.831
 448  1104.607
 449  1036.547
 450  948.8451
 451  914.6655
 452  964.7501
 453  1079.743
 454  1104.9
 455  1099.956
 456  1007.033
 457  1020.093
 458  1009.679
 459  1084.783
 460  1048.148
 461  954.6615
 462  1043.459
 463  1093.255
 464  1032.462
 465  903.9359
 466  913.192
 467  976.1245
 468  1108.031
 469  1072.596
 470  970.3237
 471  1193.367
 472  1248.373
 473  1028.276
 474  950.0981
 475  1033.501
 476  1006.661
 477  956.7071
 478  1094.828
 479  1050.087
 480  1034.072
 481  955.4521
 482  929.7579
 483  1007.964
 484  980.7645
 485  1016.907
 486  992.3874
 487  993.1394
 488  996.7328
 489  962.9892
 490  961.3525
 491  1008.432
 492  1074.584
 493  1057.926
 494  1001.279
 495  1063.966
 496  1059.062
 497  990.2714
 498  999.9847
 499  965.6611
 500  922.472
 501  871.1461
 502  986.8463
 503  1095.208
 504  1016.539
 505  1077.288
 506  1078.188
 507  1163.059
 508  1191.559
 509  1218.633
 510  1438.096
 511  1523.466
