# Input file       =  1211858286.131636_cleaned.dat
# Candidate        =  PSR_0332+5434
# Telescope        =  AR
# Epoch_topo       =  58270.137362634676
# Epoch_bary       =  N/A
# T_sample         =  0.002
# Data Folded      =  7143424
# Data Avg         =  0.0657277408600173
# Data StdDev      =  1.0000563130323  
# Profile Bins     =  512
# Profile Avg      =  917.01639050899  
# Profile StdDev   =  118.125236097531 
# Reduced chi-sqr  =  1.425
# Prob(Noise)      <  7.69e-10   (~6.0 sigma)
# P_topo (ms)      =  714.516796262866  +/- 0.000328
# P'_topo (s/s)    =  -0                +/- 1.78e-10
# P''_topo (s/s^2) =  0                 +/- 8.06e-14
# P_bary (ms)      =  N/A
# P'_bary (s/s)    =  N/A
# P''_bary (s/s^2) =  N/A
# P_orb (s)        =  N/A
# asin(i)/c (s)    =  N/A
# eccentricity     =  N/A
# w (rad)          =  N/A
# T_peri           =  N/A
######################################################
   0  1588.776
   1  1626.719
   2  1490.798
   3  1259.261
   4  1041.022
   5  1087.095
   6  1059.697
   7  1042.486
   8  924.1166
   9  960.4075
  10  955.2219
  11  937.6588
  12  1067.016
  13  871.769
  14  896.8522
  15  1022.945
  16  965.8398
  17  932.5208
  18  947.4773
  19  1068.667
  20  1039.172
  21  872.5892
  22  940.9208
  23  965.6221
  24  933.3455
  25  898.7937
  26  999.1083
  27  1048.491
  28  958.7826
  29  1027.163
  30  1006.193
  31  999.8641
  32  930.2963
  33  964.2489
  34  1042.069
  35  962.8909
  36  893.0732
  37  999.902
  38  869.6204
  39  851.6539
  40  892.5592
  41  921.3462
  42  932.0558
  43  882.7334
  44  920.4796
  45  848.4181
  46  966.9059
  47  927.6006
  48  858.3082
  49  882.827
  50  893.5223
  51  889.3809
  52  903.6407
  53  961.7131
  54  1015.343
  55  966.0828
  56  923.2195
  57  766.5052
  58  855.4482
  59  879.2711
  60  796.9608
  61  835.1993
  62  876.5052
  63  818.1425
  64  807.408
  65  999.8179
  66  983.026
  67  888.8352
  68  951.9517
  69  987.3807
  70  901.1765
  71  928.9259
  72  915.7736
  73  1023.343
  74  909.4549
  75  697.1595
  76  774.4857
  77  969.0182
  78  848.2782
  79  732.5889
  80  823.2592
  81  871.7068
  82  918.2573
  83  933.3334
  84  1020.338
  85  921.9108
  86  963.4393
  87  963.0764
  88  959.7607
  89  986.9814
  90  999.7545
  91  956.46
  92  928.6492
  93  1050.18
  94  960.2009
  95  929.8307
  96  944.6898
  97  926.2735
  98  880.9647
  99  905.6689
 100  960.1096
 101  863.8192
 102  862.878
 103  901.5067
 104  906.8748
 105  965.757
 106  926.0889
 107  873.2276
 108  883.6302
 109  893.9488
 110  954.035
 111  967.3312
 112  880.7606
 113  800.6017
 114  826.5931
 115  863.071
 116  916.9256
 117  913.8962
 118  967.7006
 119  994.3875
 120  943.1667
 121  885.9878
 122  918.5908
 123  868.525
 124  828.0548
 125  881.0535
 126  880.4051
 127  872.0182
 128  913.6075
 129  805.3082
 130  851.9962
 131  787.0125
 132  810.1633
 133  842.9866
 134  947.2001
 135  1037.11
 136  841.7717
 137  848.2114
 138  884.9364
 139  829.6203
 140  839.8145
 141  876.4015
 142  900.0456
 143  845.4065
 144  794.5746
 145  777.6221
 146  818.9332
 147  915.5389
 148  919.5892
 149  750.9436
 150  820.1913
 151  815.3004
 152  894.6871
 153  890.4728
 154  839.7734
 155  901.4944
 156  899.6005
 157  828.7872
 158  775.3424
 159  800.7261
 160  843.6202
 161  814.685
 162  901.6137
 163  844.5526
 164  813.9673
 165  839.2161
 166  850.7108
 167  1018.448
 168  929.0187
 169  885.2715
 170  857.8868
 171  887.356
 172  882.4038
 173  927.7443
 174  829.126
 175  743.7517
 176  843.2415
 177  959.2382
 178  875.5655
 179  925.2193
 180  1012.489
 181  1013.673
 182  1072.706
 183  962.054
 184  884.9061
 185  947.2783
 186  932.6555
 187  1001.454
 188  1050.795
 189  974.7631
 190  841.0686
 191  871.4215
 192  949.1284
 193  1010.834
 194  980.828
 195  952.8525
 196  982.0226
 197  997.23
 198  943.6813
 199  830.9626
 200  834.5442
 201  934.8066
 202  933.055
 203  941.8156
 204  861.2224
 205  830.219
 206  914.4086
 207  961.5558
 208  925.2277
 209  905.2517
 210  971.9866
 211  1158.651
 212  974.972
 213  933.413
 214  918.8324
 215  1011.411
 216  1006.75
 217  979.2003
 218  968.1004
 219  1010.647
 220  920.4761
 221  986.2948
 222  924.5685
 223  961.6576
 224  990.0748
 225  854.6565
 226  890.9178
 227  956.6827
 228  893.9851
 229  962.9595
 230  982.0467
 231  902.9495
 232  906.4514
 233  884.8878
 234  1006.799
 235  1046.378
 236  1060.752
 237  971.3065
 238  929.4433
 239  894.7028
 240  856.7324
 241  877.5662
 242  855.2438
 243  996.8425
 244  909.7124
 245  888.1478
 246  816.0769
 247  827.4113
 248  914.0518
 249  902.0975
 250  939.2852
 251  944.8654
 252  910.653
 253  828.8781
 254  953.8496
 255  985.3435
 256  937.41
 257  801.6222
 258  899.409
 259  984.382
 260  863.2726
 261  863.7855
 262  956.7043
 263  918.6585
 264  940.5144
 265  942.8112
 266  966.8849
 267  971.9007
 268  1000.095
 269  1001.361
 270  959.7457
 271  998.8573
 272  1006.798
 273  964.8939
 274  916.5071
 275  993.0667
 276  1095.829
 277  940.098
 278  795.845
 279  832.8438
 280  859.0334
 281  793.2197
 282  850.6171
 283  1057.32
 284  1115.047
 285  996.2779
 286  949.5439
 287  883.711
 288  843.4379
 289  798.6346
 290  927.1436
 291  909.383
 292  970.637
 293  831.9384
 294  749.2618
 295  906.0497
 296  1075.214
 297  931.3647
 298  870.2789
 299  976.1442
 300  1040.282
 301  972.1204
 302  897.6898
 303  828.3865
 304  774.209
 305  776.0873
 306  814.9526
 307  863.8981
 308  887.4197
 309  885.4843
 310  967.1783
 311  900.3668
 312  926.3065
 313  917.0197
 314  856.8545
 315  880.2487
 316  837.9769
 317  757.1265
 318  753.5912
 319  933.9841
 320  954.3094
 321  911.3849
 322  951.9413
 323  841.6606
 324  767.7153
 325  820.2457
 326  916.605
 327  844.6116
 328  848.9321
 329  892.8079
 330  968.8333
 331  939.3956
 332  930.2292
 333  893.0782
 334  965.9248
 335  886.4742
 336  867.0838
 337  860.4313
 338  827.2423
 339  866.3434
 340  831.2202
 341  944.28
 342  973.9017
 343  892.0432
 344  804.2173
 345  876.9337
 346  871.667
 347  938.8607
 348  837.6279
 349  999.6142
 350  1034.079
 351  1004.539
 352  893.4085
 353  931.0997
 354  978.0679
 355  870.0399
 356  904.1753
 357  991.2237
 358  986.46
 359  944.7761
 360  781.0767
 361  861.4283
 362  1030.005
 363  911.7583
 364  874.5317
 365  974.2014
 366  984.8517
 367  986.9645
 368  848.7204
 369  915.9487
 370  945.5935
 371  914.1811
 372  955.2946
 373  955.7699
 374  884.1614
 375  892.9454
 376  962.98
 377  904.5593
 378  940.8259
 379  987.1096
 380  904.0838
 381  722.4412
 382  773.1185
 383  977.5688
 384  989.9957
 385  941.3609
 386  965.066
 387  931.4561
 388  787.8948
 389  908.515
 390  771.305
 391  774.0237
 392  818.6848
 393  964.0914
 394  952.6985
 395  924.8917
 396  884.7924
 397  900.1167
 398  966.8507
 399  881.2403
 400  908.2512
 401  859.1717
 402  1013.662
 403  1041.386
 404  988.6056
 405  930.5717
 406  943.5825
 407  815.6917
 408  814.9703
 409  976.972
 410  855.2586
 411  891.0046
 412  810.5211
 413  825.3715
 414  916.8083
 415  921.7969
 416  939.7891
 417  864.3933
 418  757.9788
 419  790.2028
 420  786.9881
 421  833.8413
 422  834.5137
 423  855.4056
 424  811.7076
 425  779.6272
 426  768.983
 427  781.6279
 428  769.91
 429  729.8361
 430  789.3298
 431  894.3864
 432  845.3368
 433  832.0289
 434  877.6736
 435  895.8786
 436  804.7606
 437  820.8757
 438  863.4547
 439  805.9788
 440  880.0625
 441  785.0297
 442  815.667
 443  741.4301
 444  569.9312
 445  731.3158
 446  864.9725
 447  793.2784
 448  817.1124
 449  900.8496
 450  907.086
 451  855.7744
 452  858.4621
 453  737.1225
 454  718.4183
 455  752.9954
 456  837.905
 457  789.3322
 458  771.2798
 459  854.6722
 460  881.8779
 461  885.5292
 462  871.6133
 463  796.8079
 464  722.9767
 465  887.6879
 466  905.4092
 467  951.8152
 468  991.4587
 469  1059.943
 470  1040.347
 471  939.0067
 472  915.4794
 473  1000.074
 474  1069.969
 475  1000.92
 476  883.4859
 477  898.2864
 478  949.9921
 479  987.2313
 480  1035.697
 481  998.4946
 482  961.774
 483  1017.466
 484  1007.007
 485  902.464
 486  873.804
 487  945.8577
 488  896.2751
 489  823.2531
 490  991.447
 491  921.629
 492  1029.236
 493  1007.227
 494  901.4562
 495  1008.328
 496  1049.169
 497  1102.633
 498  1042.534
 499  944.638
 500  993.8503
 501  1163.1
 502  1056.369
 503  886.8346
 504  889.5084
 505  1042.665
 506  998.4858
 507  1081.076
 508  1222.267
 509  1189.36
 510  1300.941
 511  1491.432
