# Input file       =  1211599777.101234_cleaned.dat
# Candidate        =  PSR_0332+5434
# Telescope        =  AR
# Epoch_topo       =  58267.145359967988
# Epoch_bary       =  N/A
# T_sample         =  0.002
# Data Folded      =  7208960
# Data Avg         =  0.0471396376719111
# Data StdDev      =  1.00004250539094 
# Profile Bins     =  512
# Profile Avg      =  663.722678033428 
# Profile StdDev   =  118.664219448186 
# Reduced chi-sqr  =  1.424
# Prob(Noise)      <  8.5e-10   (~6.0 sigma)
# P_topo (ms)      =  714.519713702983  +/- 7.46e-05
# P'_topo (s/s)    =  -0                +/- 4.01e-11
# P''_topo (s/s^2) =  0                 +/- 1.8e-14
# P_bary (ms)      =  N/A
# P'_bary (s/s)    =  N/A
# P''_bary (s/s^2) =  N/A
# P_orb (s)        =  N/A
# asin(i)/c (s)    =  N/A
# eccentricity     =  N/A
# w (rad)          =  N/A
# T_peri           =  N/A
######################################################
   0  1329.423
   1  1316.521
   2  1094.099
   3  911.7451
   4  803.4588
   5  830.8428
   6  667.7731
   7  604.7708
   8  722.709
   9  617.1694
  10  684.0409
  11  631.579
  12  716.211
  13  615.0294
  14  718.6201
  15  824.7629
  16  781.5057
  17  758.1319
  18  711.4968
  19  658.9227
  20  627.5292
  21  729.7189
  22  699.4133
  23  720.6649
  24  806.888
  25  723.6143
  26  677.2484
  27  652.1493
  28  683.1163
  29  773.3103
  30  637.3505
  31  671.9599
  32  731.1669
  33  614.4687
  34  464.0166
  35  424.4888
  36  544.6559
  37  716.7162
  38  668.7636
  39  560.4146
  40  588.4324
  41  630.3813
  42  662.0167
  43  658.4266
  44  503.4738
  45  562.9437
  46  578.7742
  47  587.674
  48  631.7975
  49  722.8986
  50  638.5843
  51  622.178
  52  618.8052
  53  654.8322
  54  493.8734
  55  442.2242
  56  523.6775
  57  498.6689
  58  630.7234
  59  591.1444
  60  504.0018
  61  553.4354
  62  465.3686
  63  453.6727
  64  523.2882
  65  564.3251
  66  702.0082
  67  627.4274
  68  510.9688
  69  443.7959
  70  562.2268
  71  568.1172
  72  431.527
  73  520.7563
  74  679.9212
  75  706.3705
  76  586.7596
  77  636.3873
  78  536.8039
  79  448.4927
  80  518.2212
  81  692.7855
  82  745.1622
  83  650.9774
  84  643.797
  85  608.0314
  86  670.4518
  87  639.6682
  88  692.5869
  89  651.6598
  90  620.4117
  91  661.774
  92  516.9454
  93  558.6889
  94  587.8264
  95  521.0179
  96  498.7106
  97  479.3849
  98  560.6155
  99  631.184
 100  597.8229
 101  562.1312
 102  632.9393
 103  568.5358
 104  464.262
 105  511.6338
 106  595.5268
 107  667.5989
 108  664.1717
 109  649.7224
 110  570.3326
 111  512.952
 112  467.1192
 113  551.6243
 114  632.146
 115  732.3571
 116  680.1008
 117  603.2148
 118  588.0451
 119  530.8472
 120  529.0175
 121  500.3032
 122  682.8276
 123  781.8612
 124  834.4342
 125  700.957
 126  652.9786
 127  583.886
 128  531.9034
 129  544.4282
 130  600.0472
 131  637.2341
 132  680.9764
 133  616.1641
 134  588.2574
 135  684.9143
 136  622.7105
 137  620.918
 138  662.9473
 139  623.9482
 140  645.7299
 141  702.0668
 142  683.2007
 143  546.6973
 144  604.4972
 145  536.035
 146  504.0897
 147  598.097
 148  687.0534
 149  738.3197
 150  773.231
 151  767.5908
 152  743.8198
 153  619.8443
 154  516.2272
 155  705.3504
 156  896.4216
 157  882.4291
 158  651.6559
 159  648.7294
 160  747.5417
 161  659.2978
 162  594.6798
 163  669.9385
 164  714.4918
 165  747.2435
 166  788.6637
 167  841.0133
 168  778.4676
 169  597.774
 170  623.7599
 171  652.8295
 172  756.4564
 173  781.9637
 174  708.4463
 175  747.5514
 176  748.0414
 177  716.4528
 178  700.7522
 179  730.928
 180  676.5306
 181  780.2148
 182  840.8455
 183  861.7111
 184  797.8107
 185  829.9409
 186  802.363
 187  697.4312
 188  563.5455
 189  655.5497
 190  724.4268
 191  572.1007
 192  608.0573
 193  642.4276
 194  727.8719
 195  643.0345
 196  664.3237
 197  753.3806
 198  698.3947
 199  725.4104
 200  727.4365
 201  648.8001
 202  674.9086
 203  673.7103
 204  563.3579
 205  546.2946
 206  588.0276
 207  556.8054
 208  533.6733
 209  589.7692
 210  727.7658
 211  598.1935
 212  477.2343
 213  570.5185
 214  615.1574
 215  758.3508
 216  849.9703
 217  759.7399
 218  688.1184
 219  558.1718
 220  666.7842
 221  545.6168
 222  644.0804
 223  796.9411
 224  772.7334
 225  767.8816
 226  615.1387
 227  567.6603
 228  586.7885
 229  591.2208
 230  639.8187
 231  661.4949
 232  767.3547
 233  820.889
 234  752.1978
 235  651.9298
 236  661.1534
 237  657.8874
 238  651.5507
 239  633.0128
 240  738.981
 241  827.3311
 242  654.4585
 243  589.2705
 244  690.9276
 245  618.9138
 246  672.4679
 247  736.3634
 248  785.4389
 249  694.3505
 250  666.4696
 251  671.5257
 252  713.9798
 253  720.1353
 254  670.019
 255  668.3017
 256  654.9614
 257  741.1318
 258  661.1613
 259  726.1078
 260  839.2614
 261  793.3439
 262  695.1841
 263  709.4323
 264  783.8595
 265  688.4453
 266  737.1253
 267  695.2353
 268  692.3017
 269  767.1905
 270  853.5913
 271  784.1515
 272  763.5558
 273  739.8683
 274  687.0817
 275  670.6992
 276  742.2393
 277  672.2911
 278  607.4006
 279  654.8079
 280  709.2089
 281  700.1437
 282  698.1494
 283  663.839
 284  727.0903
 285  692.1291
 286  742.3989
 287  782.6587
 288  727.1672
 289  716.5016
 290  734.4373
 291  752.4053
 292  680.9545
 293  672.8552
 294  648.9699
 295  644.0325
 296  738.3635
 297  789.8353
 298  669.8025
 299  614.85
 300  677.1257
 301  658.6937
 302  602.8579
 303  592.4259
 304  712.4945
 305  840.2601
 306  750.1748
 307  835.4335
 308  797.3586
 309  627.3359
 310  585.1956
 311  558.7925
 312  598.3148
 313  690.1999
 314  645.3351
 315  765.4051
 316  649.3661
 317  627.1091
 318  628.9227
 319  593.0551
 320  657.4598
 321  626.4623
 322  710.4636
 323  808.015
 324  610.4951
 325  650.1107
 326  680.7471
 327  644.1525
 328  594.2852
 329  702.8686
 330  761.5284
 331  693.1234
 332  679.0419
 333  759.5032
 334  848.3994
 335  743.0023
 336  664.8714
 337  708.5662
 338  725.4975
 339  736.3315
 340  695.7152
 341  562.3119
 342  577.3192
 343  613.1801
 344  612.0927
 345  573.6654
 346  748.7216
 347  728.27
 348  715.729
 349  669.7527
 350  607.4395
 351  578.9355
 352  582.1537
 353  556.281
 354  565.0494
 355  645.9333
 356  760.942
 357  672.1743
 358  617.2711
 359  574.927
 360  618.6717
 361  739.3953
 362  841.4048
 363  779.4826
 364  693.3552
 365  612.4662
 366  763.2631
 367  750.2503
 368  653.9276
 369  616.8292
 370  578.6433
 371  619.8053
 372  684.2933
 373  711.6584
 374  630.8994
 375  637.5095
 376  704.5507
 377  548.1946
 378  543.9132
 379  669.4777
 380  620.6495
 381  515.6547
 382  589.9096
 383  672.7274
 384  626.0818
 385  504.8074
 386  581.9913
 387  554.6148
 388  596.2714
 389  648.0905
 390  592.32
 391  591.2474
 392  516.0743
 393  523.9166
 394  523.2833
 395  600.1051
 396  755.5741
 397  788.8544
 398  690.3484
 399  714.5723
 400  691.1931
 401  642.83
 402  609.4334
 403  645.8828
 404  660.4911
 405  656.1954
 406  568.9033
 407  539.5063
 408  557.3323
 409  548.4184
 410  531.9568
 411  569.324
 412  680.1879
 413  788.4158
 414  686.2003
 415  722.261
 416  761.4843
 417  607.1636
 418  657.8707
 419  518.8005
 420  478.6122
 421  585.3013
 422  700.3546
 423  669.487
 424  712.8369
 425  655.2744
 426  656.1238
 427  723.5875
 428  695.6825
 429  709.1361
 430  684.6705
 431  690.8294
 432  726.217
 433  653.9866
 434  738.6568
 435  717.1849
 436  711.158
 437  776.954
 438  707.5054
 439  691.4968
 440  597.8362
 441  635.0621
 442  684.9266
 443  582.3449
 444  570.3331
 445  594.1974
 446  665.7226
 447  651.5316
 448  590.5046
 449  763.5247
 450  632.3167
 451  652.1591
 452  617.9752
 453  587.9163
 454  699.6816
 455  712.9459
 456  720.9006
 457  652.1989
 458  603.2402
 459  586.0675
 460  730.2756
 461  812.0625
 462  766.2278
 463  701.7672
 464  656.8098
 465  595.3223
 466  704.322
 467  649.7501
 468  621.6545
 469  655.4803
 470  676.4807
 471  725.8809
 472  764.8788
 473  800.1691
 474  596.882
 475  603.0648
 476  585.0127
 477  529.8734
 478  549.9871
 479  668.7101
 480  692.8963
 481  539.8527
 482  576.5439
 483  601.4797
 484  579.7031
 485  563.6787
 486  707.0214
 487  692.7911
 488  731.7563
 489  641.3488
 490  663.0506
 491  619.3465
 492  469.0247
 493  552.6008
 494  756.6123
 495  637.2883
 496  657.0699
 497  736.7069
 498  738.7324
 499  692.6359
 500  707.4822
 501  686.4137
 502  551.0555
 503  689.6408
 504  696.3957
 505  664.5328
 506  616.8519
 507  716.1553
 508  909.326
 509  937.0343
 510  1001.657
 511  1197.294
