# Input file       =  1212030580.120176_cleaned.dat
# Candidate        =  PSR_0332+5434
# Telescope        =  AR
# Epoch_topo       =  58272.131506020560
# Epoch_bary       =  N/A
# T_sample         =  0.002
# Data Folded      =  7208960
# Data Avg         =  0.0634458750215794
# Data StdDev      =  1.00007500701217 
# Profile Bins     =  512
# Profile Avg      =  893.375323750987 
# Profile StdDev   =  118.668076063773 
# Reduced chi-sqr  =  1.438
# Prob(Noise)      <  2.87e-10   (~6.2 sigma)
# P_topo (ms)      =  714.514858038008  +/- 0.000119
# P'_topo (s/s)    =  -0                +/- 6.4e-11
# P''_topo (s/s^2) =  0                 +/- 2.88e-14
# P_bary (ms)      =  N/A
# P'_bary (s/s)    =  N/A
# P''_bary (s/s^2) =  N/A
# P_orb (s)        =  N/A
# asin(i)/c (s)    =  N/A
# eccentricity     =  N/A
# w (rad)          =  N/A
# T_peri           =  N/A
######################################################
   0  1489.805
   1  1514.264
   2  1465.006
   3  1141.797
   4  983.5981
   5  939.2143
   6  1027.966
   7  861.0677
   8  794.9131
   9  810.1356
  10  843.4935
  11  907.6419
  12  967.0676
  13  990.939
  14  926.5182
  15  950.626
  16  861.877
  17  862.8942
  18  870.149
  19  975.1832
  20  908.6448
  21  894.6404
  22  862.0872
  23  803.9958
  24  751.2917
  25  846.9452
  26  877.253
  27  892.6585
  28  880.6935
  29  889.5572
  30  820.6273
  31  787.4954
  32  855.8608
  33  724.983
  34  820.6332
  35  823.4791
  36  886.375
  37  954.5226
  38  885.5479
  39  954.2775
  40  873.0269
  41  929.1894
  42  964.0463
  43  994.087
  44  1023.506
  45  912.9396
  46  892.1798
  47  912.0941
  48  989.3372
  49  889.2805
  50  863.1187
  51  794.3806
  52  792.469
  53  894.1765
  54  1035.178
  55  1001.49
  56  950.1622
  57  973.858
  58  905.8289
  59  856.4774
  60  905.6031
  61  937.5416
  62  956.4919
  63  1020.991
  64  948.6213
  65  894.6284
  66  869.9296
  67  905.0912
  68  1026.417
  69  1073.177
  70  900.8133
  71  924.437
  72  864.0825
  73  747.5556
  74  738.2689
  75  886.0256
  76  960.9442
  77  966.0376
  78  835.3923
  79  767.9345
  80  826.8928
  81  883.2799
  82  903.3115
  83  796.3752
  84  837.022
  85  880.4819
  86  905.1927
  87  981.1034
  88  932.4114
  89  901.894
  90  909.5337
  91  899.7042
  92  887.0939
  93  872.6241
  94  1032.051
  95  1007.62
  96  936.0218
  97  964.9827
  98  883.0936
  99  875.1651
 100  961.3901
 101  959.8401
 102  968.4838
 103  985.9771
 104  847.2861
 105  947.045
 106  1013.983
 107  983.4288
 108  1076.992
 109  1024.268
 110  1006.705
 111  1055.692
 112  934.4472
 113  910.9065
 114  907.3917
 115  818.6097
 116  804.8229
 117  874.7236
 118  884.4199
 119  670.3394
 120  733.45
 121  881.6376
 122  817.9269
 123  757.077
 124  928.9426
 125  915.1806
 126  812.9626
 127  748.1515
 128  879.2585
 129  892.1663
 130  840.2585
 131  898.6177
 132  948.2489
 133  892.9609
 134  908.1101
 135  869.9283
 136  923.7314
 137  869.7891
 138  878.0186
 139  864.7735
 140  884.0073
 141  826.3615
 142  896.7365
 143  849.6505
 144  829.6335
 145  806.8187
 146  758.2557
 147  716.5059
 148  732.3696
 149  910.0264
 150  1009.649
 151  919.5878
 152  893.6229
 153  847.1379
 154  871.7048
 155  818.7114
 156  878.2441
 157  903.6652
 158  964.2136
 159  970.3278
 160  992.5159
 161  877.5447
 162  859.9384
 163  910.3823
 164  839.3452
 165  873.5166
 166  990.4473
 167  806.8043
 168  943.9351
 169  985.2859
 170  882.0104
 171  817.0473
 172  920.7975
 173  842.4648
 174  771.7349
 175  795.5108
 176  799.9086
 177  826.7457
 178  887.2767
 179  992.0673
 180  946.7474
 181  951.1673
 182  978.8319
 183  942.981
 184  926.7885
 185  898.1688
 186  936.472
 187  807.5967
 188  713.2144
 189  914.7742
 190  912.323
 191  850.4456
 192  847.5698
 193  912.6334
 194  969.8705
 195  930.2887
 196  1028.307
 197  971.837
 198  892.8489
 199  932.0799
 200  989.6041
 201  907.743
 202  771.3676
 203  879.7869
 204  914.5433
 205  850.3602
 206  816.5441
 207  684.201
 208  768.1331
 209  855.2256
 210  836.6548
 211  900.1395
 212  834.8715
 213  670.4201
 214  731.3494
 215  748.9102
 216  747.7208
 217  831.5748
 218  915.8666
 219  883.8955
 220  805.8083
 221  790.8233
 222  898.716
 223  852.5886
 224  766.659
 225  718.1224
 226  772.9786
 227  815.2993
 228  920.0232
 229  816.8171
 230  874.4557
 231  865.7359
 232  817.9507
 233  923.1561
 234  881.6275
 235  742.8564
 236  660.6226
 237  767.325
 238  956.5466
 239  991.7611
 240  955.6907
 241  866.226
 242  883.5277
 243  778.8986
 244  774.0481
 245  695.0556
 246  855.3654
 247  994.0768
 248  866.1799
 249  811.989
 250  754.2877
 251  873.2068
 252  897.2687
 253  932.4273
 254  841.3578
 255  776.6987
 256  760.3708
 257  848.6215
 258  988.8953
 259  1097.881
 260  1092.863
 261  1027.458
 262  944.8041
 263  799.6055
 264  859.457
 265  874.2063
 266  905.1678
 267  891.1376
 268  828.5786
 269  653.9521
 270  750.8282
 271  943.927
 272  815.5428
 273  796.4042
 274  860.3124
 275  989.7661
 276  912.7297
 277  831.0563
 278  773.4034
 279  801.4559
 280  860.5595
 281  790.3937
 282  819.4713
 283  834.6175
 284  822.8813
 285  757.4809
 286  851.4503
 287  854.4543
 288  948.1279
 289  823.984
 290  668.5082
 291  702.6876
 292  749.2264
 293  697.889
 294  725.2278
 295  733.7363
 296  757.9059
 297  730.7475
 298  761.6487
 299  892.3047
 300  778.3347
 301  724.6996
 302  732.0002
 303  747.3006
 304  827.4318
 305  865.9778
 306  871.76
 307  939.0524
 308  918.9568
 309  836.5093
 310  786.8094
 311  846.0079
 312  818.5404
 313  771.7573
 314  839.7103
 315  748.5181
 316  854.4435
 317  841.9321
 318  826.6617
 319  781.9998
 320  924.7653
 321  960.9855
 322  887.7875
 323  841.2617
 324  903.7532
 325  973.4249
 326  870.3154
 327  847.2247
 328  835.061
 329  804.0352
 330  912.8639
 331  966.2134
 332  936.5184
 333  885.4661
 334  879.4503
 335  912.0934
 336  874.3648
 337  945.9713
 338  987.0795
 339  831.095
 340  788.2509
 341  860.6221
 342  737.9091
 343  839.3868
 344  762.8891
 345  780.475
 346  743.0591
 347  846.2155
 348  968.8094
 349  925.4058
 350  892.4313
 351  806.2611
 352  810.7906
 353  983.0225
 354  922.4498
 355  930.585
 356  862.7213
 357  835.1445
 358  918.2199
 359  936.9056
 360  841.4635
 361  731.0573
 362  862.3379
 363  840.7629
 364  825.2561
 365  850.6815
 366  972.6748
 367  874.6259
 368  801.2773
 369  815.8734
 370  876.7267
 371  863.9442
 372  872.1646
 373  820.7312
 374  940.0154
 375  957.7032
 376  998.2427
 377  972.0256
 378  912.7534
 379  771.278
 380  847.2603
 381  968.298
 382  1059.659
 383  1062.52
 384  931.7726
 385  926.3474
 386  930.3889
 387  938.8944
 388  936.9822
 389  906.579
 390  928.1462
 391  1030.084
 392  1015.865
 393  942.8058
 394  840.8141
 395  895.4714
 396  970.7993
 397  1050.839
 398  964.8038
 399  1014.534
 400  928.8268
 401  898.5329
 402  888.1362
 403  1039.497
 404  989.4371
 405  948.7283
 406  951.6298
 407  1016.11
 408  1018.062
 409  1008.779
 410  1044.971
 411  917.5357
 412  878.0836
 413  809.148
 414  833.9479
 415  928.244
 416  904.5302
 417  896.0522
 418  858.5099
 419  849.8381
 420  806.6639
 421  775.3953
 422  846.3529
 423  802.806
 424  848.8058
 425  896.6062
 426  852.196
 427  834.3354
 428  977.4835
 429  912.6776
 430  876.5206
 431  929.1216
 432  1004.887
 433  940.6924
 434  830.0935
 435  738.3564
 436  866.852
 437  977.6514
 438  987.0112
 439  996.5367
 440  1001.157
 441  986.8503
 442  993.695
 443  903.48
 444  921.6691
 445  813.8779
 446  852.1909
 447  827.5289
 448  862.9991
 449  942.8531
 450  954.5642
 451  1029.255
 452  989.1644
 453  797.0797
 454  893.5419
 455  930.0744
 456  934.0822
 457  931.04
 458  946.819
 459  1082.749
 460  933.1929
 461  893.0914
 462  808.9612
 463  1025.601
 464  1044.21
 465  948.3953
 466  1041.582
 467  1031.348
 468  954.0208
 469  978.6117
 470  1022.329
 471  976.3775
 472  919.4223
 473  959.8225
 474  950.7286
 475  863.1655
 476  778.7012
 477  1000.559
 478  910.1427
 479  1041.582
 480  1046.272
 481  843.381
 482  762.0467
 483  808.1467
 484  823.5676
 485  905.88
 486  967.641
 487  925.5475
 488  860.012
 489  949.799
 490  1057.451
 491  1142.518
 492  1119.854
 493  1017.605
 494  936.5966
 495  904.3329
 496  927.7336
 497  923.2486
 498  900.9667
 499  843.1452
 500  769.8655
 501  798.0654
 502  735.5985
 503  811.094
 504  925.8732
 505  982.816
 506  956.6846
 507  1063.832
 508  1140.852
 509  1232.148
 510  1222
 511  1432.676
