# Input file       =  1212116758.118906_cleaned.dat
# Candidate        =  PSR_0332+5434
# Telescope        =  AR
# Epoch_topo       =  58273.128936561414
# Epoch_bary       =  N/A
# T_sample         =  0.002
# Data Folded      =  7208960
# Data Avg         =  0.0605606559678886
# Data StdDev      =  1.00010236217463 
# Profile Bins     =  512
# Profile Avg      =  852.73226178681  
# Profile StdDev   =  118.671322004805 
# Reduced chi-sqr  =  1.183
# Prob(Noise)      <  0.00272   (~2.8 sigma)
# P_topo (ms)      =  714.513890618196  +/- 0.000145
# P'_topo (s/s)    =  -0                +/- 7.79e-11
# P''_topo (s/s^2) =  0                 +/- 3.5e-14
# P_bary (ms)      =  N/A
# P'_bary (s/s)    =  N/A
# P''_bary (s/s^2) =  N/A
# P_orb (s)        =  N/A
# asin(i)/c (s)    =  N/A
# eccentricity     =  N/A
# w (rad)          =  N/A
# T_peri           =  N/A
######################################################
   0  1456.783
   1  1433.823
   2  1226.893
   3  1051.561
   4  1000.319
   5  892.9761
   6  885.3602
   7  935.2747
   8  948.165
   9  819.1762
  10  806.8656
  11  808.9479
  12  778.8625
  13  925.4185
  14  890.1155
  15  832.0587
  16  799.0043
  17  804.3984
  18  876.4395
  19  881.7556
  20  856.1646
  21  886.2145
  22  964.0147
  23  830.3351
  24  734.1667
  25  781.9115
  26  926.5938
  27  729.5273
  28  711.4623
  29  690.0117
  30  764.6396
  31  820.8522
  32  855.7899
  33  731.4694
  34  757.1135
  35  888.9108
  36  938.6956
  37  892.226
  38  820.9162
  39  925.6873
  40  917.991
  41  742.5463
  42  683.0791
  43  773.8378
  44  854.9551
  45  868.4785
  46  782.2819
  47  779.6551
  48  740.6237
  49  617.0688
  50  778.959
  51  844.0571
  52  911.0276
  53  875.3694
  54  887.0502
  55  873.5272
  56  849.4254
  57  801.5933
  58  820.5106
  59  837.7401
  60  684.0048
  61  930.8797
  62  1053.437
  63  833.0569
  64  898.382
  65  858.4247
  66  829.1006
  67  840.4225
  68  839.1817
  69  919.4896
  70  924.3424
  71  867.2606
  72  903.0309
  73  799.2125
  74  838.2132
  75  845.3889
  76  763.7827
  77  859.6401
  78  834.4879
  79  809.6437
  80  879.4776
  81  936.3235
  82  910.1153
  83  889.8947
  84  916.377
  85  900.5763
  86  837.6232
  87  960.7278
  88  869.6547
  89  939.4462
  90  1184.29
  91  1016.465
  92  860.233
  93  890.5814
  94  975.5659
  95  928.5377
  96  913.8059
  97  969.8218
  98  997.6693
  99  913.5413
 100  886.2123
 101  879.7892
 102  1044.972
 103  881.9553
 104  889.0298
 105  898.2032
 106  896.1727
 107  853.4731
 108  899.95
 109  955.4834
 110  902.2107
 111  790.7762
 112  811.1252
 113  883.7595
 114  954.641
 115  830.4438
 116  749.366
 117  766.3409
 118  916.6676
 119  966.9836
 120  975.4807
 121  853.0519
 122  740.9689
 123  778.4683
 124  907.0016
 125  912.12
 126  887.1013
 127  793.6068
 128  931.1035
 129  898.8188
 130  902.9207
 131  863.1106
 132  854.2126
 133  935.12
 134  884.1126
 135  830.6853
 136  942.8267
 137  943.6411
 138  827.4827
 139  884.3706
 140  849.1161
 141  799.7944
 142  762.2841
 143  909.2184
 144  918.5546
 145  814.1954
 146  902.8768
 147  896.2958
 148  1012.631
 149  941.7373
 150  863.8577
 151  770.4218
 152  809.6945
 153  960.532
 154  939.995
 155  920.4358
 156  781.0196
 157  823.9051
 158  761.0653
 159  729.3278
 160  821.4105
 161  956.7271
 162  961.1821
 163  842.9307
 164  911.3411
 165  859.1288
 166  832.2507
 167  717.9522
 168  896.5022
 169  887.2711
 170  917.098
 171  887.9407
 172  901.0601
 173  888.8168
 174  905.2557
 175  954.2958
 176  863.2311
 177  936.21
 178  945.304
 179  848.1686
 180  727.7148
 181  817.5526
 182  941.6712
 183  889.8738
 184  796.9261
 185  823.8227
 186  819.809
 187  913.5979
 188  869.0683
 189  892.764
 190  865.9167
 191  888.0938
 192  918.4276
 193  853.6741
 194  714.6533
 195  792.7798
 196  825.6344
 197  897.6663
 198  835.7747
 199  821.8268
 200  825.1648
 201  887.4058
 202  869.8973
 203  696.3972
 204  728.636
 205  766.7021
 206  761.6545
 207  868.7916
 208  978.5242
 209  848.0237
 210  787.6884
 211  781.5284
 212  762.133
 213  734.7433
 214  706.7434
 215  850.0607
 216  896.8845
 217  870.6857
 218  870.0222
 219  808.2553
 220  738.4459
 221  713.7375
 222  771.9269
 223  798.5198
 224  846.0507
 225  689.0061
 226  823.0652
 227  780.4094
 228  932.6713
 229  860.6479
 230  807.3455
 231  776.1935
 232  700.1583
 233  840.7015
 234  755.5876
 235  773.8317
 236  807.3627
 237  971.2037
 238  908.7648
 239  860.9973
 240  810.4502
 241  826.3276
 242  786.8177
 243  723.326
 244  883.2661
 245  927.6923
 246  849.129
 247  828.173
 248  746.4562
 249  804.032
 250  841.8459
 251  841.6865
 252  914.9988
 253  802.3923
 254  825.205
 255  960.7698
 256  781.5746
 257  782.6382
 258  888.8485
 259  1029.397
 260  828.8049
 261  820.8525
 262  852.4872
 263  971.5201
 264  867.7386
 265  849.9054
 266  830.07
 267  895.1801
 268  995.4741
 269  936.324
 270  941.4926
 271  920.1328
 272  987.1104
 273  851.9227
 274  923.4478
 275  828.0276
 276  785.168
 277  933.2841
 278  895.1623
 279  918.3817
 280  803.5214
 281  651.7818
 282  719.7695
 283  830.4991
 284  852.5162
 285  874.2363
 286  1007.736
 287  892.158
 288  800.4015
 289  792.1503
 290  850.436
 291  838.355
 292  838.7455
 293  905.8347
 294  922.0984
 295  788.3917
 296  818.214
 297  774.7311
 298  801.3754
 299  766.6434
 300  951.0441
 301  973.9299
 302  1027.44
 303  927.7526
 304  823.5045
 305  799.3118
 306  967.7924
 307  873.417
 308  837.5693
 309  785.6998
 310  816.2284
 311  795.7976
 312  726.202
 313  841.2155
 314  758.8038
 315  777.9891
 316  820.6964
 317  900.8485
 318  863.9514
 319  848.2377
 320  805.2266
 321  734.3383
 322  717.9211
 323  771.0227
 324  709.465
 325  769.4322
 326  786.9222
 327  863.5388
 328  1003.425
 329  886.1287
 330  933.3785
 331  888.8102
 332  814.9544
 333  862.0485
 334  810.4859
 335  974.7631
 336  857.0635
 337  707.5477
 338  781.8542
 339  855.0937
 340  801.8373
 341  718.5852
 342  942
 343  928.585
 344  904.6019
 345  803.0463
 346  832.3613
 347  767.5352
 348  751.521
 349  716.6258
 350  752.2224
 351  863.8324
 352  828.7036
 353  885.2296
 354  845.5671
 355  908.2244
 356  931.8798
 357  866.6268
 358  916.9792
 359  900.0466
 360  834.7581
 361  844.769
 362  819.1871
 363  814.3724
 364  727.6352
 365  859.8389
 366  1017.583
 367  1006.541
 368  850.7598
 369  729.9697
 370  738.8903
 371  908.3022
 372  921.7264
 373  838.778
 374  851.1741
 375  1006.082
 376  841.7018
 377  721.0989
 378  786.6276
 379  792.4854
 380  833.7666
 381  859.7423
 382  820.7425
 383  896.7041
 384  820.548
 385  813.4393
 386  815.493
 387  738.849
 388  678.8179
 389  647.2748
 390  758.9923
 391  782.0123
 392  943.6381
 393  959.6445
 394  920.2983
 395  873.0061
 396  884.1935
 397  761.7128
 398  857.1071
 399  1037.671
 400  914.7463
 401  815.8022
 402  843.127
 403  744.6516
 404  777.6648
 405  889.0198
 406  715.037
 407  798.4608
 408  820.963
 409  883.252
 410  854.8391
 411  931.4509
 412  826.6777
 413  830.3403
 414  810.7784
 415  858.1265
 416  715.1055
 417  720.9364
 418  899.1069
 419  863.569
 420  892.913
 421  766.1642
 422  809.9839
 423  876.4985
 424  795.092
 425  779.2999
 426  910.326
 427  894.4609
 428  823.0352
 429  822.6972
 430  761.0323
 431  831.9995
 432  869.7383
 433  806.8002
 434  808.444
 435  825.5046
 436  851.5701
 437  861.2336
 438  832.5956
 439  903.8806
 440  817.8337
 441  744.3192
 442  807.7293
 443  842.8215
 444  811.1494
 445  772.2693
 446  751.8049
 447  749.0639
 448  747.4636
 449  792.9734
 450  840.2914
 451  765.6166
 452  707.4534
 453  689.1961
 454  726.6022
 455  797.98
 456  825.4612
 457  716.1155
 458  750.3561
 459  791.3155
 460  712.5181
 461  661.5182
 462  697.8855
 463  783.7319
 464  889.7726
 465  904.9801
 466  910.9609
 467  942.7236
 468  902.2448
 469  852.1872
 470  732.735
 471  820.1113
 472  743.0645
 473  771.016
 474  927.9597
 475  921.862
 476  887.3478
 477  866.2122
 478  842.5152
 479  807.325
 480  811.5689
 481  830.7118
 482  808.0203
 483  854.2878
 484  860.9243
 485  943.4127
 486  882.6972
 487  828.1594
 488  807.141
 489  871.8447
 490  938.5115
 491  940.3595
 492  923.1884
 493  801.0925
 494  816.4489
 495  820.4928
 496  887.0816
 497  906.7731
 498  870.6045
 499  818.3414
 500  884.1583
 501  916.3672
 502  863.4802
 503  774.7342
 504  861.0119
 505  891.0627
 506  810.0734
 507  880.8843
 508  956.41
 509  1062.601
 510  1315.251
 511  1456.5
