# Input file       =  1212289145.117255_cleaned.dat
# Candidate        =  PSR_0332+5434
# Telescope        =  AR
# Epoch_topo       =  58275.124156449710
# Epoch_bary       =  N/A
# T_sample         =  0.002
# Data Folded      =  7143424
# Data Avg         =  0.0483483647049526
# Data StdDev      =  1.00006141580261 
# Profile Bins     =  512
# Profile Avg      =  674.579501770669 
# Profile StdDev   =  118.125838829537 
# Reduced chi-sqr  =  2.069
# Prob(Noise)      <  2.79e-40   (~13.2 sigma)
# P_topo (ms)      =  714.511959875839  +/- 0.000252
# P'_topo (s/s)    =  -0                +/- 1.36e-10
# P''_topo (s/s^2) =  0                 +/- 6.19e-14
# P_bary (ms)      =  N/A
# P'_bary (s/s)    =  N/A
# P''_bary (s/s^2) =  N/A
# P_orb (s)        =  N/A
# asin(i)/c (s)    =  N/A
# eccentricity     =  N/A
# w (rad)          =  N/A
# T_peri           =  N/A
######################################################
   0  1394.597
   1  1335.369
   2  1235.104
   3  1026.045
   4  840.9968
   5  725.0831
   6  740.8366
   7  669.7921
   8  767.8397
   9  819.4061
  10  734.684
  11  849.0848
  12  906.8506
  13  926.5106
  14  769.0493
  15  796.4465
  16  922.8976
  17  821.7993
  18  859.0521
  19  760.5555
  20  738.7229
  21  729.4922
  22  766.848
  23  819.8629
  24  799.6505
  25  755.4454
  26  779.9462
  27  789.1822
  28  712.5884
  29  782.5025
  30  692.743
  31  706.0806
  32  785.0121
  33  771.6801
  34  783.2007
  35  751.3593
  36  824.5538
  37  742.9299
  38  675.8557
  39  637.1994
  40  672.3696
  41  690.6531
  42  772.7308
  43  840.6277
  44  894.2447
  45  727.8922
  46  654.1874
  47  747.7709
  48  874.1401
  49  749.9297
  50  704.455
  51  849.3243
  52  863.6961
  53  881.2529
  54  890.146
  55  737.6467
  56  700.629
  57  695.5635
  58  815.8763
  59  967.5015
  60  860.649
  61  807.0988
  62  837.0804
  63  705.7089
  64  699.3598
  65  750.5881
  66  805.5813
  67  797.3391
  68  829.5853
  69  864.0082
  70  887.0439
  71  796.7947
  72  825.595
  73  865.5809
  74  732.8041
  75  642.2904
  76  674.6315
  77  783.1113
  78  626.0569
  79  699.7362
  80  739.8231
  81  703.8156
  82  542.0776
  83  604.5342
  84  707.664
  85  572.4688
  86  700.3853
  87  819.1299
  88  700.7591
  89  704.3751
  90  703.6106
  91  718.9161
  92  685.8622
  93  700.8488
  94  647.5156
  95  717.491
  96  683.9773
  97  716.9642
  98  733.0845
  99  619.121
 100  567.3612
 101  590.087
 102  671.2422
 103  533.7966
 104  621.8405
 105  719.2646
 106  575.7478
 107  648.1931
 108  680.3956
 109  765.1752
 110  717.8347
 111  639.2872
 112  652.0101
 113  633.3654
 114  746.8391
 115  624.7963
 116  552.7436
 117  551.111
 118  625.1443
 119  637.722
 120  618.9059
 121  555.9515
 122  505.9535
 123  633.7657
 124  661.8024
 125  653.6512
 126  650.9017
 127  742.226
 128  719.631
 129  585.6466
 130  570.173
 131  630.9803
 132  565.47
 133  562.3022
 134  737.8816
 135  718.3058
 136  519.1224
 137  540.3243
 138  612.2159
 139  549.7419
 140  476.5511
 141  543.7494
 142  694.8402
 143  823.5496
 144  700.5998
 145  644.654
 146  638.6226
 147  489.6345
 148  519.3141
 149  613.8441
 150  742.382
 151  706.6498
 152  540.1084
 153  652.6607
 154  717.8127
 155  646.8012
 156  621.6693
 157  557.4906
 158  645.4899
 159  574.5679
 160  656.3676
 161  713.0323
 162  543.1605
 163  526.8759
 164  631.5747
 165  538.8876
 166  569.8217
 167  582.8929
 168  521.3062
 169  608.5037
 170  704.4967
 171  635.9285
 172  705.6781
 173  542.1426
 174  505.7699
 175  555.6423
 176  573.1248
 177  678.7014
 178  651.3182
 179  639.7211
 180  655.9667
 181  566.692
 182  476.1751
 183  611.3972
 184  549.8113
 185  582.2829
 186  498.3195
 187  557.899
 188  589.0287
 189  468.0943
 190  556.6245
 191  671.3846
 192  554.0638
 193  624.4146
 194  676.2919
 195  643.6215
 196  649.1759
 197  584.2395
 198  562.1935
 199  697.2802
 200  747.8998
 201  786.1912
 202  704.2526
 203  552.4089
 204  592.3502
 205  663.0035
 206  762.3995
 207  704.0671
 208  536.5282
 209  560.2326
 210  659.8604
 211  633.0856
 212  641.086
 213  707.5114
 214  618.7587
 215  580.5533
 216  561.7565
 217  573.4364
 218  592.6909
 219  549.3483
 220  575.1956
 221  603.3923
 222  673.8409
 223  574.3157
 224  546.9401
 225  687.9415
 226  673.4604
 227  652.3671
 228  572.717
 229  430.3281
 230  380.5193
 231  418.1367
 232  580.6125
 233  671.329
 234  625.4359
 235  545.8865
 236  486.0097
 237  524.4313
 238  590.9799
 239  506.633
 240  554.386
 241  525.3102
 242  544.0742
 243  666.3771
 244  607.561
 245  553.0948
 246  422.6725
 247  399.8878
 248  493.956
 249  591.3301
 250  564.2095
 251  624.1152
 252  565.8123
 253  465.6423
 254  494.7082
 255  574.3578
 256  545.6276
 257  469.7329
 258  523.2803
 259  603.8593
 260  611.3541
 261  585.9795
 262  665.9465
 263  518.342
 264  431.2541
 265  513.0993
 266  572.8529
 267  473.5301
 268  474.9969
 269  609.8141
 270  614.6052
 271  561.4641
 272  586.4567
 273  617.7297
 274  526.8981
 275  470.8057
 276  532.8966
 277  526.3969
 278  514.9406
 279  669.5848
 280  659.4745
 281  642.896
 282  700.2141
 283  588.212
 284  594.5843
 285  569.117
 286  475.1847
 287  441.8122
 288  595.2278
 289  726.5804
 290  518.1135
 291  472.6149
 292  531.3984
 293  530.0325
 294  586.2535
 295  466.9126
 296  469.9702
 297  502.4924
 298  622.862
 299  636.5613
 300  604.5895
 301  698.0405
 302  720.8566
 303  651.1053
 304  560.3008
 305  548.9244
 306  605.1417
 307  648.6979
 308  713.3105
 309  587.6617
 310  609.9696
 311  663.8883
 312  643.2125
 313  614.5195
 314  644.8398
 315  617.7231
 316  706.7516
 317  723.0854
 318  766.7458
 319  741.5613
 320  610.2195
 321  491.6313
 322  678.2449
 323  696.8075
 324  576.0082
 325  676.3033
 326  768.0906
 327  724.6594
 328  519.2382
 329  523.366
 330  602.0879
 331  587.7645
 332  693.4019
 333  662.0594
 334  674.9078
 335  732.4443
 336  680.8696
 337  617.5593
 338  610.883
 339  592.2198
 340  698.1771
 341  727.4413
 342  888.5358
 343  825.6994
 344  778.3255
 345  781.5826
 346  770.4244
 347  735.2735
 348  675.0016
 349  685.4475
 350  775.9104
 351  708.3041
 352  702.8318
 353  706.4871
 354  736.7515
 355  792.6432
 356  833.9922
 357  777.8965
 358  648.0004
 359  678.5162
 360  727.3707
 361  730.1412
 362  757.3403
 363  675.7271
 364  481.977
 365  534.1619
 366  670.6965
 367  562.4526
 368  587.6046
 369  504.5886
 370  596.3033
 371  592.598
 372  728.728
 373  660.4432
 374  708.3392
 375  856.9428
 376  867.0737
 377  741.2798
 378  755.3168
 379  685.2309
 380  607.2695
 381  667.2158
 382  761.6044
 383  831.7516
 384  843.3444
 385  792.1279
 386  729.0403
 387  629.44
 388  626.6118
 389  659.6003
 390  613.5028
 391  704.7892
 392  678.4312
 393  691.563
 394  643.1693
 395  622.9965
 396  584.3466
 397  608.1296
 398  660.0092
 399  742.8946
 400  666.6429
 401  678.1127
 402  682.8206
 403  677.5301
 404  565.2536
 405  508.3235
 406  586.4664
 407  673.6863
 408  627.8709
 409  666.3104
 410  664.2272
 411  724.9455
 412  679.272
 413  702.8683
 414  769.1672
 415  651.0077
 416  624.2128
 417  602.6739
 418  626.876
 419  652.4432
 420  736.8336
 421  748.25
 422  569.8728
 423  608.2105
 424  798.3391
 425  719.9374
 426  731.6257
 427  744.816
 428  760.2553
 429  755.5587
 430  666.9778
 431  527.7897
 432  539.7177
 433  652.0283
 434  702.0649
 435  615.4772
 436  652.9207
 437  655.2933
 438  595.2498
 439  617.2222
 440  702.2984
 441  665.074
 442  683.4164
 443  567.2101
 444  557.1721
 445  633.5446
 446  649.3824
 447  572.4919
 448  591.3401
 449  689.8168
 450  712.3241
 451  679.6964
 452  749.9052
 453  789.2866
 454  626.3572
 455  721.9841
 456  687.6673
 457  788.667
 458  772.1334
 459  767.3609
 460  682.2299
 461  661.0139
 462  650.8942
 463  692.5406
 464  641.5442
 465  684.1264
 466  747.3707
 467  816.0214
 468  848.7552
 469  754.0232
 470  698.1515
 471  654.6895
 472  634.5212
 473  772.037
 474  813.3163
 475  675.6086
 476  709.7459
 477  816.6819
 478  802.2618
 479  737.3414
 480  726.1699
 481  736.8879
 482  803.2099
 483  744.0547
 484  667.7742
 485  611.9315
 486  648.9771
 487  724.4746
 488  751.1251
 489  819.407
 490  830.1933
 491  827.3792
 492  845.9374
 493  821.9349
 494  713.0306
 495  766.512
 496  705.3113
 497  763.5886
 498  907.6198
 499  930.4744
 500  767.0204
 501  730.9544
 502  867.358
 503  933.255
 504  850.7906
 505  777.6327
 506  784.3313
 507  912.7824
 508  875.722
 509  1054.919
 510  1210.013
 511  1267.971
