# Input file       =  1212375269.110713_cleaned.dat
# Candidate        =  PSR_0332+5434
# Telescope        =  AR
# Epoch_topo       =  58276.120961929548
# Epoch_bary       =  N/A
# T_sample         =  0.002
# Data Folded      =  7143424
# Data Avg         =  0.0560754278818227
# Data StdDev      =  1.00003985890191 
# Profile Bins     =  512
# Profile Avg      =  782.329333992765 
# Profile StdDev   =  118.12329255894  
# Reduced chi-sqr  =  1.672
# Prob(Noise)      <  1.05e-19   (~9.0 sigma)
# P_topo (ms)      =  714.510999266656  +/- 0.000214
# P'_topo (s/s)    =  -0                +/- 1.16e-10
# P''_topo (s/s^2) =  0                 +/- 5.25e-14
# P_bary (ms)      =  N/A
# P'_bary (s/s)    =  N/A
# P''_bary (s/s^2) =  N/A
# P_orb (s)        =  N/A
# asin(i)/c (s)    =  N/A
# eccentricity     =  N/A
# w (rad)          =  N/A
# T_peri           =  N/A
######################################################
   0  1528.012
   1  1521.744
   2  1286.316
   3  987.0324
   4  733.9851
   5  715.5732
   6  825.7998
   7  842.7311
   8  819.2974
   9  890.663
  10  755.8172
  11  824.462
  12  876.3813
  13  894.3063
  14  939.6619
  15  874.3085
  16  816.1748
  17  764.1849
  18  714.2938
  19  843.0194
  20  830.5864
  21  770.9708
  22  818.9338
  23  866.5441
  24  789.7394
  25  843.3038
  26  845.6364
  27  758.983
  28  735.7441
  29  813.4596
  30  754.6426
  31  688.897
  32  884.5082
  33  777.1652
  34  803.6514
  35  879.1224
  36  804.6195
  37  724.7354
  38  705.5588
  39  700.5367
  40  743.9608
  41  809.4664
  42  772.4169
  43  698.3094
  44  599.054
  45  660.1179
  46  697.6042
  47  698.8259
  48  763.2386
  49  746.9752
  50  698.5235
  51  826.6096
  52  624.3243
  53  625.5554
  54  783.6552
  55  738.8458
  56  774.2147
  57  746.227
  58  708.2935
  59  735.8649
  60  735.0989
  61  641.5752
  62  639.9287
  63  782.8557
  64  873.0088
  65  724.3568
  66  640.1583
  67  604.3195
  68  584.1731
  69  593.8068
  70  725.516
  71  695.6828
  72  597.5756
  73  588.4799
  74  622.3975
  75  656.3979
  76  757.0346
  77  697.9507
  78  580.4427
  79  656.1807
  80  632.0833
  81  635.0771
  82  662.8522
  83  663.5256
  84  695.0339
  85  621.3214
  86  707.266
  87  682.5382
  88  641.1494
  89  618.9211
  90  646.7133
  91  645.9743
  92  632.9697
  93  645.9022
  94  719.0963
  95  673.2916
  96  668.766
  97  643.4706
  98  675.1349
  99  748.5016
 100  748.6138
 101  641.5297
 102  614.4122
 103  598.121
 104  658.6603
 105  740.4495
 106  613.8514
 107  595.1177
 108  687.57
 109  678.7414
 110  580.0474
 111  637.0254
 112  654.7477
 113  676.0062
 114  660.4742
 115  736.3293
 116  763.6722
 117  755.5935
 118  778.0375
 119  715.9992
 120  689.3914
 121  673.832
 122  662.6752
 123  633.5046
 124  765.4716
 125  817.734
 126  732.944
 127  780.5131
 128  682.7483
 129  697.0532
 130  711.9997
 131  764.5921
 132  668.1964
 133  719.0672
 134  747.524
 135  705.3597
 136  714.147
 137  658.7762
 138  754.0356
 139  797.0956
 140  641.0805
 141  546.0699
 142  573.7167
 143  653.6647
 144  642.3087
 145  743.2372
 146  662.8387
 147  607.1993
 148  580.2015
 149  657.1999
 150  801.1713
 151  824.0012
 152  695.5236
 153  686.1703
 154  700.5464
 155  709.3885
 156  652.2002
 157  705.6558
 158  740.943
 159  765.064
 160  616.4893
 161  582.288
 162  523.7635
 163  644.4695
 164  777.9738
 165  781.2061
 166  785.7972
 167  733.5053
 168  676.5513
 169  750.317
 170  694.2793
 171  736.5953
 172  909.7784
 173  886.2995
 174  825.7462
 175  788.243
 176  772.1191
 177  719.1425
 178  719.5687
 179  701.4238
 180  728.9567
 181  887.0257
 182  767.9149
 183  774.6782
 184  793.175
 185  719.3755
 186  767.596
 187  776.3664
 188  791.2921
 189  837.6607
 190  930.8105
 191  948.2067
 192  831.8422
 193  819.4471
 194  841.4501
 195  806.6118
 196  821.1084
 197  873.5707
 198  784.4492
 199  690.2914
 200  719.7309
 201  768.884
 202  807.6049
 203  856.2808
 204  727.9982
 205  784.047
 206  825.5356
 207  885.7688
 208  918.775
 209  808.2723
 210  850.3873
 211  800.9822
 212  747.5453
 213  709.18
 214  715.5044
 215  867.4078
 216  859.9379
 217  844.3851
 218  1003.52
 219  945.2272
 220  884.2653
 221  764.5037
 222  746.0923
 223  822.9429
 224  691.9064
 225  584.4509
 226  761.2377
 227  738.3237
 228  821.4333
 229  786.2219
 230  810.0418
 231  807.5798
 232  845.4923
 233  806.6146
 234  771.1191
 235  770.9138
 236  809.6508
 237  869.031
 238  938.137
 239  940.5194
 240  924.6684
 241  869.6469
 242  897.6407
 243  806.0023
 244  871.4596
 245  887.7321
 246  894.6484
 247  838.5751
 248  945.2107
 249  812.0647
 250  776.3989
 251  720.1864
 252  793.7004
 253  807.9609
 254  844.4531
 255  782.3175
 256  805.9773
 257  689.0098
 258  635.5667
 259  641.6268
 260  800.5201
 261  825.5609
 262  765.1465
 263  792.5981
 264  870.7499
 265  745.099
 266  698.4838
 267  749.2071
 268  722.7394
 269  875.7809
 270  863.4353
 271  745.4221
 272  794.1315
 273  834.1843
 274  812.949
 275  797.6829
 276  768.5821
 277  793.5525
 278  859.0066
 279  857.5403
 280  768.0926
 281  844.7009
 282  900.3559
 283  814.8827
 284  737.8675
 285  709.9381
 286  883.6046
 287  820.73
 288  730.0765
 289  862.7162
 290  988.0997
 291  932.9832
 292  789.589
 293  633.904
 294  716.8652
 295  738.384
 296  855.2122
 297  870.3784
 298  817.1195
 299  886.8444
 300  820.9741
 301  757.4304
 302  773.7327
 303  697.709
 304  727.8151
 305  841.6376
 306  870.3627
 307  699.4861
 308  789.6489
 309  855.7009
 310  876.4097
 311  831.3708
 312  842.931
 313  848.8462
 314  767.7137
 315  824.7327
 316  771.7807
 317  669.3121
 318  777.7798
 319  761.8602
 320  719.4478
 321  823.2247
 322  843.123
 323  908.7753
 324  824.2267
 325  693.9781
 326  802.9491
 327  778.299
 328  824.1882
 329  764.7476
 330  734.37
 331  791.5912
 332  816.3332
 333  662.7723
 334  791.9891
 335  779.983
 336  732.3671
 337  737.5723
 338  838.6705
 339  754.2893
 340  685.8751
 341  770.4306
 342  815.7522
 343  763.094
 344  811.9315
 345  760.4801
 346  843.515
 347  837.3977
 348  767.7759
 349  756.8462
 350  732.7819
 351  740.0623
 352  828.5276
 353  874.4032
 354  737.4816
 355  711.3845
 356  754.412
 357  881.9075
 358  787.8693
 359  701.6096
 360  794.5865
 361  773.0273
 362  701.7114
 363  872.8533
 364  901.0398
 365  756.3577
 366  637.7966
 367  730.1356
 368  644.0922
 369  750.2748
 370  837.1963
 371  867.7768
 372  840.7405
 373  756.0384
 374  764.9008
 375  634.627
 376  728.4315
 377  823.4152
 378  887.6826
 379  936.3154
 380  885.158
 381  661.9667
 382  720.1456
 383  765.4502
 384  817.7732
 385  867.5777
 386  695.0894
 387  769.637
 388  758.9655
 389  713.9062
 390  812.0385
 391  802.8558
 392  769.7296
 393  875.4884
 394  774.1896
 395  792.8736
 396  818.2245
 397  795.4478
 398  803.9796
 399  814.6431
 400  801.8548
 401  793.4486
 402  746.7322
 403  690.9086
 404  812.7564
 405  843.3895
 406  682.9777
 407  708.9927
 408  769.2499
 409  775.9651
 410  941.7368
 411  921.3889
 412  914.814
 413  911.205
 414  876.4604
 415  804.4583
 416  758.5175
 417  791.1301
 418  816.2062
 419  837.4816
 420  807.7891
 421  941.7803
 422  927.4933
 423  880.868
 424  989.3068
 425  932.8309
 426  858.48
 427  765.512
 428  723.7338
 429  842.2532
 430  841.4183
 431  859.445
 432  792.0775
 433  865.6959
 434  836.2341
 435  805.3171
 436  902.707
 437  864.8738
 438  877.4421
 439  883.3815
 440  798.0272
 441  827.9072
 442  805.9642
 443  810.6918
 444  786.0234
 445  786.642
 446  954.7628
 447  857.5051
 448  775.6428
 449  906.317
 450  929.8005
 451  853.1749
 452  808.5668
 453  783.3102
 454  817.4393
 455  918.9645
 456  884.3549
 457  992.6898
 458  986.1957
 459  899.2203
 460  950.1819
 461  910.6934
 462  927.0272
 463  810.9579
 464  775.8381
 465  752.1329
 466  674.4121
 467  747.6704
 468  700.3096
 469  757.9026
 470  852.8262
 471  722.4645
 472  713.4545
 473  812.8186
 474  766.8063
 475  785.9095
 476  644.8679
 477  823.448
 478  862.3659
 479  740.6052
 480  705.5123
 481  666.8047
 482  669.3335
 483  848.4037
 484  765.1924
 485  771.9575
 486  839.5356
 487  758.1696
 488  735.773
 489  717.2048
 490  712.6257
 491  743.298
 492  759.8589
 493  762.9287
 494  867.7401
 495  894.7686
 496  756.7305
 497  768.8155
 498  813.8448
 499  790.0795
 500  712.2632
 501  813.2527
 502  913.705
 503  868.9246
 504  864.7807
 505  838.0642
 506  943.0886
 507  1005.107
 508  1005.56
 509  1164.809
 510  1332.245
 511  1466.266
