# Input file       =  1212461417.113944_cleaned.dat
# Candidate        =  PSR_0332+5434
# Telescope        =  AR
# Epoch_topo       =  58277.118045300282
# Epoch_bary       =  N/A
# T_sample         =  0.002
# Data Folded      =  7143424
# Data Avg         =  0.043932523541829
# Data StdDev      =  1.00001658636893 
# Profile Bins     =  512
# Profile Avg      =  612.938116959619 
# Profile StdDev   =  118.120543640287 
# Reduced chi-sqr  =  1.590
# Prob(Noise)      <  4.17e-16   (~8.0 sigma)
# P_topo (ms)      =  714.510040359889  +/- 0.000229
# P'_topo (s/s)    =  -0                +/- 1.24e-10
# P''_topo (s/s^2) =  0                 +/- 5.64e-14
# P_bary (ms)      =  N/A
# P'_bary (s/s)    =  N/A
# P''_bary (s/s^2) =  N/A
# P_orb (s)        =  N/A
# asin(i)/c (s)    =  N/A
# eccentricity     =  N/A
# w (rad)          =  N/A
# T_peri           =  N/A
######################################################
   0  1357.888
   1  1293.472
   2  1005.622
   3  819.4892
   4  821.3488
   5  660.1155
   6  497.7637
   7  519.6204
   8  618.7911
   9  631.0201
  10  601.899
  11  662.4813
  12  768.3922
  13  755.2928
  14  646.2803
  15  790.1079
  16  603.7705
  17  536.451
  18  426.9553
  19  509.1985
  20  574.4031
  21  538.5324
  22  544.6998
  23  542.7064
  24  632.0756
  25  542.7338
  26  414.7879
  27  521.5271
  28  568.1572
  29  732.1611
  30  608.6332
  31  704.334
  32  576.6569
  33  348.5769
  34  432.8222
  35  550.5913
  36  643.4122
  37  647.7568
  38  628.1319
  39  503.744
  40  546.8255
  41  514.6631
  42  485.5135
  43  425.9417
  44  439.2906
  45  531.7179
  46  539.2784
  47  702.8108
  48  662.4257
  49  582.6475
  50  528.873
  51  621.7913
  52  491.1944
  53  521.8188
  54  629.8188
  55  597.339
  56  565.666
  57  620.4809
  58  580.192
  59  565.6792
  60  602.5579
  61  552.2585
  62  482.7448
  63  458.5093
  64  610.0131
  65  571.6915
  66  587.7869
  67  553.0218
  68  597.22
  69  608.4472
  70  614.9628
  71  640.2032
  72  678.5371
  73  711.9456
  74  544.2372
  75  688.8931
  76  643.2304
  77  649.0529
  78  575.5924
  79  446.7318
  80  553.6339
  81  620.4186
  82  647.1286
  83  644.5067
  84  581.9434
  85  615.3289
  86  574.0856
  87  511.88
  88  675.3431
  89  650.4321
  90  672.1841
  91  742.1254
  92  633.8414
  93  649.98
  94  519.4225
  95  516.8962
  96  629.8477
  97  646.7097
  98  586.9737
  99  610.7976
 100  652.0659
 101  583.5248
 102  533.2873
 103  597.2133
 104  513.5135
 105  648.0452
 106  776.0791
 107  725.6532
 108  689.4044
 109  636.5989
 110  646.9288
 111  694.5356
 112  695.8355
 113  662.009
 114  517.4304
 115  668.9847
 116  580.3575
 117  572.8248
 118  674.751
 119  700.3958
 120  659.5972
 121  569.5541
 122  573.8546
 123  548.7827
 124  646.4398
 125  639.8189
 126  593.7919
 127  549.0406
 128  599.5901
 129  621.8785
 130  643.7237
 131  655.5671
 132  558.3602
 133  657.7211
 134  712.6102
 135  620.2725
 136  630.5502
 137  663.0955
 138  584.0775
 139  657.741
 140  640.0694
 141  588.4736
 142  566.4578
 143  653.7845
 144  565.9244
 145  514.4339
 146  629.9364
 147  671.414
 148  658.4551
 149  581.6514
 150  565.7579
 151  405.3302
 152  590.5477
 153  806.7556
 154  635.2647
 155  689.4448
 156  668.5929
 157  645.4144
 158  600.1842
 159  663.3328
 160  584.7781
 161  591.4492
 162  471.1867
 163  540.7823
 164  679.7078
 165  717.2971
 166  603.228
 167  521.8235
 168  514.6462
 169  431.1675
 170  377.1002
 171  590.6227
 172  606.4376
 173  490.074
 174  631.2015
 175  504.7242
 176  577.7002
 177  671.2997
 178  671.0571
 179  675.3795
 180  544.7498
 181  591.3774
 182  609.3937
 183  636.9601
 184  594.8583
 185  623.025
 186  672.0196
 187  572.1887
 188  607.7905
 189  612.2869
 190  459.2005
 191  456.8553
 192  566.3278
 193  654.9002
 194  582.981
 195  518.949
 196  603.0706
 197  612.8225
 198  583.3288
 199  483.4929
 200  687.0476
 201  654.4285
 202  700.7778
 203  686.5174
 204  614.9993
 205  587.2576
 206  459.3691
 207  499.389
 208  465.5668
 209  410.5733
 210  543.3536
 211  588.8306
 212  551.2857
 213  598.8184
 214  624.343
 215  665.7842
 216  582.1464
 217  560.5128
 218  580.4036
 219  595.4811
 220  598.0777
 221  673.5729
 222  511.5136
 223  673.6926
 224  627.5931
 225  506.7574
 226  503.1278
 227  640.2463
 228  686.5625
 229  517.3289
 230  556.2879
 231  740.3867
 232  816.4422
 233  655.5609
 234  676.4887
 235  704.2885
 236  667.7863
 237  554.8174
 238  570.7014
 239  600.2172
 240  700.7566
 241  721.2773
 242  508.7605
 243  593.5802
 244  640.1342
 245  541.3803
 246  491.5208
 247  713.8755
 248  715.9893
 249  575.3752
 250  477.4717
 251  572.1392
 252  608.5514
 253  588.9312
 254  622.6981
 255  753.6213
 256  766.4011
 257  620.5861
 258  670.7962
 259  680.6426
 260  735.7735
 261  649.3788
 262  654.642
 263  578.8671
 264  621.0101
 265  691.0128
 266  589.2978
 267  719.8112
 268  784.9351
 269  703.0193
 270  875.9656
 271  699.4949
 272  612.5778
 273  708.7667
 274  722.3071
 275  758.4182
 276  675.5865
 277  696.7943
 278  740.6947
 279  660.5339
 280  701.1966
 281  686.8396
 282  666.884
 283  667.7679
 284  642.4214
 285  655.144
 286  689.7251
 287  615.5439
 288  580.1326
 289  624.3315
 290  608.2128
 291  634.361
 292  739.951
 293  678.1093
 294  607.7278
 295  574.5198
 296  630.9577
 297  474.9582
 298  449.8861
 299  536.6043
 300  528.3652
 301  633.7538
 302  660.8484
 303  623.5892
 304  700.2322
 305  722.2903
 306  580.7035
 307  484.5883
 308  534.9006
 309  609.2502
 310  678.3444
 311  723.8591
 312  676.4465
 313  604.6053
 314  588.697
 315  599.9252
 316  510.2158
 317  520.4169
 318  665.2115
 319  569.5012
 320  559.58
 321  515.7996
 322  405.8438
 323  486.0255
 324  547.5531
 325  519.3284
 326  504.8619
 327  623.2331
 328  601.4299
 329  614.0691
 330  543.3885
 331  564.5195
 332  493.8484
 333  621.0417
 334  669.2273
 335  529.962
 336  558.6061
 337  508.4557
 338  439.0271
 339  502.9724
 340  567.0377
 341  656.0121
 342  700.6085
 343  622.5293
 344  611.0265
 345  605.0067
 346  644.1055
 347  724.0252
 348  656.6074
 349  466.4218
 350  527.595
 351  558.7233
 352  646.9142
 353  569.4786
 354  601.0828
 355  594.8585
 356  527.3551
 357  635.0235
 358  751.3914
 359  728.7291
 360  591.3984
 361  566.5305
 362  464.5584
 363  521.3898
 364  680.2684
 365  716.6313
 366  865.6187
 367  762.4854
 368  776.2092
 369  761.8601
 370  776.7513
 371  660.5099
 372  704.8798
 373  610.9404
 374  629.3214
 375  805.0014
 376  658.6765
 377  618.0279
 378  709.9299
 379  627.7014
 380  591.5117
 381  554.7786
 382  531.5672
 383  656.9196
 384  621.0615
 385  659.3114
 386  589.0837
 387  583.1512
 388  581.0779
 389  662.5905
 390  680.0206
 391  643.3359
 392  568.0728
 393  584.7252
 394  589.2266
 395  677.7758
 396  724.168
 397  684.121
 398  684.5641
 399  638.2167
 400  650.9203
 401  629.6053
 402  787.2098
 403  660.4033
 404  575.5048
 405  593.9966
 406  500.119
 407  603.2129
 408  670.3239
 409  574.9439
 410  584.9495
 411  641.0829
 412  635.4603
 413  543.2719
 414  471.9341
 415  469.0141
 416  422.9924
 417  471.0927
 418  607.2205
 419  622.7623
 420  622.921
 421  632.2602
 422  587.9941
 423  693.1857
 424  589.9912
 425  414.7686
 426  558.7032
 427  613.5292
 428  587.3556
 429  531.5809
 430  544.619
 431  663.5041
 432  685.9355
 433  596.119
 434  492.0414
 435  490.2588
 436  527.3168
 437  463.9689
 438  394.4279
 439  380.412
 440  513.1145
 441  560.5355
 442  649.1819
 443  669.7571
 444  635.7514
 445  555.5351
 446  490.7386
 447  486.9307
 448  432.9286
 449  600.3792
 450  606.9064
 451  502.6903
 452  523.2398
 453  567.215
 454  507.163
 455  469.4866
 456  515.3726
 457  606.868
 458  592.517
 459  599.0005
 460  604.5613
 461  566.0276
 462  639.9973
 463  649.0147
 464  617.1998
 465  498.7689
 466  490.305
 467  478.6417
 468  522.69
 469  538.7844
 470  529.4268
 471  518.6812
 472  507.2921
 473  522.5887
 474  641.9479
 475  673.2669
 476  654.8901
 477  705.7488
 478  608.4268
 479  530.343
 480  555.6956
 481  629.4564
 482  613.3016
 483  559.5506
 484  521.3218
 485  560.1251
 486  619.0278
 487  657.6718
 488  644.1981
 489  594.0593
 490  615.4537
 491  712.8932
 492  760.9442
 493  679.8251
 494  608.5292
 495  677.9562
 496  661.6774
 497  629.9653
 498  649.808
 499  599.262
 500  525.6476
 501  501.2106
 502  663.3115
 503  698.9246
 504  709.5055
 505  692.9574
 506  734.148
 507  794.8573
 508  872.5045
 509  1023.734
 510  1266.615
 511  1366.881
