# Input file       =  1212719885.108598_cleaned.dat
# Candidate        =  PSR_0332+5434
# Telescope        =  AR
# Epoch_topo       =  58280.109573016183
# Epoch_bary       =  N/A
# T_sample         =  0.002
# Data Folded      =  7143424
# Data Avg         =  0.0469955437916299
# Data StdDev      =  1.00002888013482 
# Profile Bins     =  512
# Profile Avg      =  655.569567184481 
# Profile StdDev   =  118.121995762512 
# Reduced chi-sqr  =  1.116
# Prob(Noise)      <  0.0351   (~1.8 sigma)
# P_topo (ms)      =  714.507178990838  +/- 0.000226
# P'_topo (s/s)    =  -0                +/- 1.23e-10
# P''_topo (s/s^2) =  0                 +/- 5.57e-14
# P_bary (ms)      =  N/A
# P'_bary (s/s)    =  N/A
# P''_bary (s/s^2) =  N/A
# P_orb (s)        =  N/A
# asin(i)/c (s)    =  N/A
# eccentricity     =  N/A
# w (rad)          =  N/A
# T_peri           =  N/A
######################################################
   0  1201.055
   1  1073.407
   2  864.5574
   3  681.3196
   4  610.7461
   5  586.679
   6  734.3109
   7  704.9056
   8  671.4095
   9  538.9907
  10  604.705
  11  740.1182
  12  674.3844
  13  711.1096
  14  741.9632
  15  695.6817
  16  613.1853
  17  588.5658
  18  557.1705
  19  440.2466
  20  521.7563
  21  615.8298
  22  726.7292
  23  639.2772
  24  623.8104
  25  545.3499
  26  504.5533
  27  749.3784
  28  755.8439
  29  692.1172
  30  650.7555
  31  651.7921
  32  656.1033
  33  563.0894
  34  580.7748
  35  572.2411
  36  624.3147
  37  697.6874
  38  558.653
  39  600.6804
  40  701.59
  41  677.5846
  42  649.4813
  43  487.7795
  44  526.314
  45  724.0315
  46  802.0687
  47  591.7812
  48  450.5508
  49  554.3889
  50  660.5685
  51  629.1152
  52  515.5314
  53  521.3152
  54  639.1802
  55  683.1382
  56  697.5155
  57  695.8326
  58  597.823
  59  586.5189
  60  601.3492
  61  595.5643
  62  692.6157
  63  775.6186
  64  691.3178
  65  634.7805
  66  620.1145
  67  516.9056
  68  526.6195
  69  610.7908
  70  686.6749
  71  721.297
  72  576.5729
  73  562.3345
  74  659.4202
  75  607.9242
  76  511.336
  77  636.2288
  78  720.1249
  79  570.8912
  80  574.3594
  81  572.2877
  82  653.4033
  83  613.6102
  84  530.4797
  85  566.2169
  86  619.8
  87  706.1704
  88  771.4447
  89  591.9662
  90  687.6141
  91  793.8938
  92  699.4615
  93  591.1395
  94  569.9916
  95  446.8036
  96  555.9991
  97  523.1335
  98  667.2888
  99  802.3499
 100  652.5267
 101  501.3105
 102  552.0085
 103  647.1943
 104  706.8816
 105  615.2881
 106  647.9273
 107  652.815
 108  624.3454
 109  654.2776
 110  682.2798
 111  639.2854
 112  595.5504
 113  665.6247
 114  645.326
 115  511.8808
 116  592.3983
 117  682.9371
 118  660.2622
 119  555.1923
 120  615.947
 121  625.4861
 122  574.2866
 123  593.1667
 124  564.4371
 125  463.8643
 126  479.7994
 127  569.4285
 128  669.5626
 129  638.3341
 130  700.3892
 131  550.3903
 132  608.5253
 133  677.2096
 134  635.0759
 135  536.73
 136  609.2808
 137  824.9728
 138  746.9496
 139  727.2376
 140  729.0923
 141  497.5537
 142  608.615
 143  668.8929
 144  742.4771
 145  679.1828
 146  646.5511
 147  625.2617
 148  520.5574
 149  600.2565
 150  710.8707
 151  669.0716
 152  645.3269
 153  630.8594
 154  655.3075
 155  532.3657
 156  550.9781
 157  646.2955
 158  648.9813
 159  563.14
 160  533.7103
 161  753.1933
 162  761.5759
 163  646.2668
 164  643.1158
 165  699.1449
 166  596.5194
 167  484.5782
 168  464.9232
 169  587.7449
 170  666.6313
 171  651.381
 172  680.8811
 173  692.6901
 174  670.9224
 175  624.3642
 176  608.1517
 177  617.2155
 178  592.4304
 179  581.1414
 180  561.6429
 181  542.2914
 182  605.7485
 183  506.0536
 184  567.673
 185  662.8438
 186  547.5644
 187  421.7424
 188  490.5932
 189  627.0411
 190  640.8569
 191  623.558
 192  567.6917
 193  712.5635
 194  793.8441
 195  755.771
 196  691.7064
 197  577.2963
 198  645.832
 199  681.3749
 200  588.7825
 201  582.3
 202  556.4777
 203  583.0533
 204  609.4637
 205  621.9366
 206  656.7282
 207  646.1559
 208  581.232
 209  657.5228
 210  675.1506
 211  715.3521
 212  675.5457
 213  711.7126
 214  686.5493
 215  670.7205
 216  605.4724
 217  571.8328
 218  513.7827
 219  637.0656
 220  626.7054
 221  609.1686
 222  562.0267
 223  567.6821
 224  575.4971
 225  654.4309
 226  690.2659
 227  608.1254
 228  702.8754
 229  641.7933
 230  615.0272
 231  483.4621
 232  622.3148
 233  744.9786
 234  788.4052
 235  596.616
 236  675.586
 237  688.94
 238  726.6459
 239  810.6182
 240  799.5952
 241  813.7739
 242  767.5119
 243  632.8088
 244  601.0783
 245  578.3447
 246  617.8902
 247  584.9008
 248  662.5121
 249  718.4424
 250  633.0131
 251  727.3243
 252  777.628
 253  666.8245
 254  745.5944
 255  677.6746
 256  554.6932
 257  661.9672
 258  614.3826
 259  655.2882
 260  595.6705
 261  709.8286
 262  740.4738
 263  740.9014
 264  673.4162
 265  712.3766
 266  642.9321
 267  658.8735
 268  649.042
 269  736.1177
 270  759.2819
 271  783.5259
 272  825.5462
 273  793.1734
 274  679.7872
 275  774.536
 276  819.8973
 277  677.9618
 278  652.1341
 279  626.7652
 280  617.7719
 281  642.3424
 282  722.8013
 283  724.5779
 284  797.4772
 285  850.8024
 286  702.6909
 287  616.3622
 288  592.136
 289  593.826
 290  699.075
 291  598.2979
 292  753.0243
 293  751.1191
 294  805.4222
 295  695.6627
 296  549.8845
 297  553.2108
 298  559.0193
 299  704.7999
 300  746.5334
 301  748.0651
 302  746.9113
 303  711.6559
 304  647.5765
 305  558.2986
 306  775.0251
 307  676.3402
 308  533.3682
 309  640.8058
 310  679.3177
 311  638.2411
 312  616.7352
 313  699.9078
 314  730.8209
 315  721.2968
 316  691.3279
 317  734.4215
 318  826.7999
 319  688.5145
 320  634.2202
 321  690.8943
 322  609.5508
 323  622.3603
 324  609.6904
 325  738.6302
 326  694.5246
 327  638.5352
 328  726.8422
 329  609.8532
 330  719.327
 331  739.3598
 332  701.1207
 333  792.9478
 334  894.0961
 335  740.7704
 336  617.8663
 337  652.7405
 338  751.3919
 339  723.268
 340  617.8534
 341  693.7421
 342  672.9145
 343  632.4462
 344  680.7952
 345  571.9424
 346  638.6046
 347  646.7521
 348  662.8346
 349  777.9459
 350  706.5098
 351  724.8009
 352  788.9261
 353  804.1534
 354  794.6328
 355  794.3001
 356  844.2568
 357  608.3914
 358  539.0949
 359  656.8096
 360  699.8907
 361  733.436
 362  748.8632
 363  679.9299
 364  698.4712
 365  753.782
 366  711.9573
 367  697.1981
 368  733.2206
 369  708.4101
 370  641.2982
 371  657.1754
 372  707.4944
 373  642.532
 374  680.3043
 375  730.7613
 376  625.7513
 377  685.5725
 378  622.6717
 379  594.3806
 380  616.623
 381  584.6012
 382  586.9206
 383  626.5913
 384  764.4214
 385  601.6453
 386  525.5948
 387  640.2028
 388  671.3212
 389  635.8353
 390  508.7078
 391  601.0395
 392  592.7197
 393  515.6921
 394  532.3195
 395  630.8029
 396  578.0455
 397  627.9623
 398  806.0642
 399  728.1364
 400  609.0521
 401  543.879
 402  547.0108
 403  620.8688
 404  642.6329
 405  638.2077
 406  563.5515
 407  601.6079
 408  623.2868
 409  744.6495
 410  776.387
 411  725.0909
 412  575.8601
 413  592.0493
 414  668.5831
 415  598.0868
 416  637.7413
 417  617.5054
 418  622.5831
 419  699.3436
 420  705.4314
 421  688.7153
 422  758.9493
 423  750.7599
 424  798.978
 425  829.9361
 426  637.8784
 427  569.1772
 428  563.3616
 429  609.6182
 430  734.3513
 431  674.2353
 432  525.6941
 433  575.6577
 434  682.0361
 435  742.9135
 436  802.2822
 437  853.2384
 438  764.9206
 439  612.311
 440  664.7239
 441  638.9031
 442  698.2029
 443  651.1627
 444  652.3542
 445  826.4023
 446  778.5589
 447  703.6849
 448  631.7969
 449  716.8096
 450  725.5175
 451  684.0803
 452  630.3408
 453  665.4093
 454  610.2899
 455  682.4223
 456  724.1688
 457  731.2729
 458  721.3905
 459  645.0255
 460  701.1964
 461  662.6434
 462  690.6844
 463  676.158
 464  652.3318
 465  659.7238
 466  709.4579
 467  731.3172
 468  714.0272
 469  660.9451
 470  645.6562
 471  600.4846
 472  607.7738
 473  574.3966
 474  573.6742
 475  599.3861
 476  649.0245
 477  662.4972
 478  660.6104
 479  606.652
 480  588.6753
 481  539.4614
 482  561.8167
 483  593.6536
 484  650.7007
 485  619.739
 486  622.7276
 487  546.4659
 488  527.0933
 489  580.8621
 490  575.6118
 491  537.9943
 492  491.0615
 493  623.1288
 494  634.8249
 495  619.3175
 496  776.4761
 497  727.7878
 498  512.7864
 499  617.97
 500  651.8587
 501  658.6476
 502  731.361
 503  703.2006
 504  600.1627
 505  704.5367
 506  809.4018
 507  885.5898
 508  921.7816
 509  838.2634
 510  948.4077
 511  1121.322
