# Input file       =  1212131393.119983_cleaned.dat
# Candidate        =  PSR_0332+5434
# Telescope        =  AR
# Epoch_topo       =  58273.298323147952
# Epoch_bary       =  N/A
# T_sample         =  0.002
# Data Folded      =  7340032
# Data Avg         =  0.0517570637530211
# Data StdDev      =  1.00023268153056 
# Profile Bins     =  512
# Profile Avg      =  741.915166627636 
# Profile StdDev   =  119.760896042929 
# Reduced chi-sqr  =  0.888
# Prob(Noise)      <  0.967   (~0.0 sigma)
# P_topo (ms)      =  714.513736712802  +/- 0.000458
# P'_topo (s/s)    =  -0                +/- 2.42e-10
# P''_topo (s/s^2) =  0                 +/- 1.07e-13
# P_bary (ms)      =  N/A
# P'_bary (s/s)    =  N/A
# P''_bary (s/s^2) =  N/A
# P_orb (s)        =  N/A
# asin(i)/c (s)    =  N/A
# eccentricity     =  N/A
# w (rad)          =  N/A
# T_peri           =  N/A
######################################################
   0  1193.257
   1  1092.54
   2  974.8508
   3  889.7543
   4  824.5388
   5  678.9413
   6  672.0176
   7  660.5955
   8  689.7778
   9  668.6274
  10  649.9745
  11  660.7673
  12  581.0554
  13  544.3174
  14  666.0225
  15  785.8386
  16  751.0519
  17  635.5585
  18  696.7753
  19  726.1382
  20  726.5292
  21  639.8698
  22  548.8326
  23  618.7018
  24  596.5475
  25  615.18
  26  598.5472
  27  609.7462
  28  683.0527
  29  729.3798
  30  724.1553
  31  671.6899
  32  668.2868
  33  675.5759
  34  641.6683
  35  714.5259
  36  705.1573
  37  750.3099
  38  769.1149
  39  812.8113
  40  864.5649
  41  807.0607
  42  801.926
  43  826.219
  44  719.3355
  45  647.5498
  46  647.2829
  47  701.1791
  48  739.5479
  49  815.7742
  50  792.8152
  51  762.3393
  52  788.5103
  53  767.4551
  54  674.6982
  55  709.2738
  56  777.4272
  57  737.6614
  58  702.9527
  59  785.5416
  60  842.2742
  61  809.0064
  62  827.9635
  63  852.8406
  64  842.5363
  65  836.7859
  66  892.3408
  67  941.2539
  68  876.8048
  69  899.9429
  70  729.2773
  71  720.9895
  72  722.2886
  73  756.9655
  74  693.0063
  75  694.0618
  76  710.0353
  77  736.9873
  78  740.7287
  79  679.9193
  80  698.9984
  81  649.8243
  82  648.5514
  83  698.0538
  84  719.5875
  85  818.744
  86  866.5383
  87  862.5404
  88  866.2027
  89  808.575
  90  782.3292
  91  814.5552
  92  932.8536
  93  813.8701
  94  732.8107
  95  839.1719
  96  861.0172
  97  878.7513
  98  796.9708
  99  821.2041
 100  789.3759
 101  837.8602
 102  787.0476
 103  700.9055
 104  712.5176
 105  713.7087
 106  724.0459
 107  722.5428
 108  707.7475
 109  803.041
 110  759.8257
 111  756.0492
 112  715.6303
 113  625.4653
 114  725.5156
 115  710.8081
 116  687.6458
 117  647.6557
 118  739.8679
 119  710.8502
 120  711.8618
 121  752.1431
 122  663.2385
 123  739.2529
 124  807.9053
 125  698.7837
 126  641.5659
 127  657.5601
 128  804.3989
 129  932.8508
 130  818.5764
 131  697.6846
 132  820.8265
 133  843.4271
 134  792.9221
 135  820.2281
 136  715.1318
 137  676.5337
 138  707.0367
 139  711.513
 140  707.9399
 141  715.9584
 142  749.6785
 143  654.5612
 144  687.8595
 145  778.6595
 146  695.4915
 147  638.5738
 148  676.0911
 149  633.7718
 150  650.7894
 151  706.9922
 152  785.1501
 153  829.1729
 154  803.6096
 155  686.0067
 156  654.4424
 157  743.7811
 158  698.899
 159  718.6244
 160  750.0473
 161  769.0035
 162  750.529
 163  646.1152
 164  662.7749
 165  796.5681
 166  685.3057
 167  602.828
 168  618.8016
 169  559.1416
 170  664.7646
 171  712.6901
 172  706.4989
 173  666.0918
 174  624.7236
 175  593.2086
 176  650.5602
 177  627.7961
 178  624.8382
 179  586.3929
 180  641.6617
 181  676.0671
 182  711.0527
 183  681.8768
 184  633.8497
 185  584.1832
 186  664.3987
 187  669.0552
 188  713.7727
 189  657.2885
 190  595.6132
 191  680.3226
 192  738.6862
 193  751.5644
 194  810.2393
 195  706.7269
 196  662.2523
 197  785.3414
 198  815.7452
 199  836.6842
 200  672.2823
 201  708.7402
 202  767.4954
 203  669.5283
 204  741.4813
 205  754.5921
 206  787.8441
 207  844.4955
 208  819.9771
 209  727.6261
 210  728.1854
 211  718.292
 212  791.6951
 213  782.9512
 214  713.9678
 215  742.2148
 216  783.2477
 217  854.354
 218  789.1608
 219  726.7447
 220  803.0111
 221  916.4726
 222  888.7296
 223  900.2144
 224  924.0843
 225  807.1977
 226  812.7714
 227  725.9231
 228  906.6581
 229  896.3934
 230  792.9275
 231  691.4196
 232  754.5406
 233  810.3192
 234  827.1973
 235  815.6092
 236  831.4084
 237  815.6611
 238  798.9426
 239  882.0548
 240  874.2021
 241  844.7173
 242  853.3444
 243  808.8238
 244  730.6927
 245  722.3481
 246  715.5836
 247  757.7443
 248  835.4192
 249  783.9273
 250  710.4492
 251  728.2379
 252  938.1053
 253  784.1836
 254  709.5408
 255  786.5699
 256  867.1392
 257  748.0477
 258  765.0366
 259  759.0771
 260  769.6238
 261  802.3787
 262  748.2762
 263  674.9939
 264  748.2208
 265  796.0961
 266  797.2996
 267  731.9633
 268  793.0186
 269  664.8282
 270  686.7911
 271  698.9098
 272  701.679
 273  785.8499
 274  754.7991
 275  726.6309
 276  735.6941
 277  757.8734
 278  757.4031
 279  788.7358
 280  766.8621
 281  739.6419
 282  743.8448
 283  639.2897
 284  708.9481
 285  725.5092
 286  782.6651
 287  756.7722
 288  775.4213
 289  796.983
 290  746.1849
 291  680.3577
 292  703.0649
 293  757.6645
 294  709.2416
 295  723.1654
 296  777.8426
 297  724.9582
 298  779.9877
 299  726.1672
 300  701.417
 301  665.684
 302  722.4502
 303  746.4701
 304  710.6399
 305  781.8502
 306  794.6688
 307  695.367
 308  778.9393
 309  750.1824
 310  770.2528
 311  831.1184
 312  826.5029
 313  806.0286
 314  794.3634
 315  756.9691
 316  788.606
 317  727.0701
 318  700.8141
 319  670.5399
 320  668.462
 321  777.5659
 322  716.2037
 323  689.4395
 324  775.1504
 325  650.9153
 326  639.7057
 327  683.1874
 328  734.2305
 329  842.5727
 330  758.5705
 331  680.3912
 332  741.2551
 333  776.804
 334  755.5462
 335  832.4108
 336  837.7673
 337  676.2316
 338  719.1549
 339  796.3978
 340  747.9088
 341  760.9545
 342  672.4023
 343  745.8171
 344  629.8791
 345  721.6168
 346  601.0429
 347  650.2443
 348  687.2496
 349  709.1497
 350  786.2517
 351  868.3611
 352  810.2993
 353  808.8867
 354  724.4232
 355  705.5068
 356  800.3601
 357  781.0088
 358  776.1912
 359  720.7084
 360  796.8204
 361  794.692
 362  806.8951
 363  667.707
 364  713.0361
 365  712.1486
 366  704.5928
 367  662.3124
 368  659.2513
 369  761.4828
 370  779.8905
 371  747.9874
 372  753.7455
 373  678.0538
 374  673.7622
 375  664.3377
 376  742.1948
 377  741.8442
 378  637.5347
 379  681.3151
 380  655.1641
 381  698.4329
 382  736.5812
 383  656.6273
 384  579.3913
 385  688.9507
 386  658.8885
 387  637.4896
 388  728.5784
 389  683.3356
 390  639.885
 391  607.2799
 392  635.0805
 393  734.5196
 394  756.2634
 395  592.7135
 396  588.1475
 397  550.3571
 398  571.3019
 399  728.8869
 400  796.0443
 401  704.356
 402  689.9973
 403  705.1241
 404  653.7441
 405  730.0585
 406  705.0652
 407  659.7117
 408  625.8214
 409  764.2572
 410  890.2952
 411  791.8854
 412  817.8053
 413  781.8897
 414  778.5834
 415  792.7562
 416  816.9711
 417  811.7913
 418  825.933
 419  825.1581
 420  761.3965
 421  828.6899
 422  783.9467
 423  822.5637
 424  845.5629
 425  797.2426
 426  817.2467
 427  825.0326
 428  769.6028
 429  727.0956
 430  776.4659
 431  824.037
 432  829.2799
 433  903.0922
 434  790.7459
 435  757.4294
 436  807.5154
 437  854.4544
 438  753.1425
 439  731.2346
 440  804.5684
 441  702.3996
 442  690.6944
 443  816.0862
 444  878.828
 445  798.4467
 446  815.3795
 447  693.1183
 448  689.4285
 449  641.7975
 450  688.4779
 451  791.2871
 452  777.7726
 453  741.2819
 454  714.7358
 455  561.069
 456  701.9217
 457  766.6086
 458  698.6489
 459  678.0012
 460  852.348
 461  735.9893
 462  692.3626
 463  752.7861
 464  727.1714
 465  712.9911
 466  633.3602
 467  625.726
 468  712.9283
 469  816.8621
 470  728.0165
 471  707.2961
 472  579.4617
 473  615.9675
 474  635.9383
 475  733.0096
 476  846.8017
 477  769.1237
 478  826.6439
 479  784.7955
 480  723.461
 481  747.3965
 482  732.3799
 483  685.3609
 484  678.9678
 485  669.7172
 486  666.6413
 487  741.9819
 488  737.5919
 489  729.7798
 490  730.7653
 491  676.2589
 492  728.952
 493  715.9286
 494  778.5979
 495  744.4828
 496  744.722
 497  634.9773
 498  646.5865
 499  684.8475
 500  713.468
 501  674.7952
 502  802.3776
 503  747.1021
 504  736.3712
 505  722.5959
 506  811.4397
 507  770.7502
 508  729.948
 509  828.3831
 510  1040.933
 511  1195.95
