# Input file       =  1212547564.111335_cleaned.dat
# Candidate        =  PSR_0332+5434
# Telescope        =  AR
# Epoch_topo       =  58278.115117029338
# Epoch_bary       =  N/A
# T_sample         =  0.002
# Data Folded      =  7143424
# Data Avg         =  0.0500286425279887
# Data StdDev      =  1.00002966623821 
# Profile Bins     =  512
# Profile Avg      =  698.008213004481 
# Profile StdDev   =  118.122088615932 
# Reduced chi-sqr  =  1.349
# Prob(Noise)      <  2.08e-07   (~5.1 sigma)
# P_topo (ms)      =  714.509083627751  +/- 0.000135
# P'_topo (s/s)    =  -0                +/- 7.33e-11
# P''_topo (s/s^2) =  0                 +/- 3.33e-14
# P_bary (ms)      =  N/A
# P'_bary (s/s)    =  N/A
# P''_bary (s/s^2) =  N/A
# P_orb (s)        =  N/A
# asin(i)/c (s)    =  N/A
# eccentricity     =  N/A
# w (rad)          =  N/A
# T_peri           =  N/A
######################################################
   0  1304.762
   1  1143.836
   2  1043.342
   3  969.6643
   4  958.8372
   5  738.882
   6  630.511
   7  726.7209
   8  612.6929
   9  666.8172
  10  687.3364
  11  727.9449
  12  685.8519
  13  731.6478
  14  836.1377
  15  819.3321
  16  795.4093
  17  791.1951
  18  683.5646
  19  747.9355
  20  699.9613
  21  692.1108
  22  699.4313
  23  651.0737
  24  652.9724
  25  613.2361
  26  627.3488
  27  577.4522
  28  634.3312
  29  629.2546
  30  603.9655
  31  687.1667
  32  795.8475
  33  762.904
  34  710.2322
  35  826.216
  36  628.0687
  37  603.4972
  38  724.2636
  39  723.9597
  40  699.3823
  41  642.5393
  42  641.3247
  43  506.4572
  44  532.9042
  45  649.4757
  46  616.0408
  47  725.0085
  48  675.283
  49  668.8782
  50  675.6924
  51  674.0425
  52  575.4368
  53  620.6723
  54  731.9241
  55  706.8185
  56  539.1234
  57  482.2964
  58  434.5247
  59  556.5988
  60  673.0784
  61  680.4907
  62  719.3857
  63  763.6569
  64  809.1334
  65  727.0459
  66  614.5087
  67  512.3608
  68  669.862
  69  628.1396
  70  660.9421
  71  825.6107
  72  821.5637
  73  835.0529
  74  786.9352
  75  885.9602
  76  766.4405
  77  585.2833
  78  626.2282
  79  741.5095
  80  738.4775
  81  711.8033
  82  736.015
  83  736.2648
  84  703.3387
  85  792.1387
  86  701.9628
  87  683.3885
  88  652.9606
  89  752.8597
  90  786.6239
  91  786.2484
  92  789.426
  93  774.228
  94  628.6476
  95  698.3591
  96  676.5595
  97  638.9573
  98  676.2981
  99  805.8463
 100  690.7903
 101  557.8642
 102  655.1526
 103  551.0919
 104  632.904
 105  738.6134
 106  709.606
 107  803.6849
 108  807.2931
 109  787.4811
 110  781.1534
 111  767.3474
 112  767.5248
 113  763.8576
 114  927.6793
 115  768.3845
 116  803.9246
 117  795.2774
 118  590.1044
 119  746.8821
 120  714.48
 121  671.8602
 122  751.8882
 123  812.5059
 124  911.9163
 125  811.4427
 126  716.1274
 127  651.8775
 128  678.6547
 129  717.7412
 130  669.8641
 131  807.2484
 132  783.1472
 133  698.6418
 134  661.9198
 135  683.1901
 136  674.5406
 137  691.431
 138  703.2901
 139  648.4045
 140  640.0778
 141  669.9563
 142  651.0685
 143  700.9694
 144  817.3915
 145  643.7196
 146  656.2359
 147  813.8535
 148  788.5968
 149  749.8645
 150  714.1912
 151  697.2283
 152  733.4476
 153  676.1299
 154  795.9696
 155  815.7409
 156  844.9037
 157  733.0727
 158  721.1816
 159  708.3282
 160  700.5381
 161  583.1119
 162  638.9869
 163  588.1429
 164  671.4194
 165  708.0676
 166  798.7896
 167  571.629
 168  589.2044
 169  636.8083
 170  688.1434
 171  676.9583
 172  743.2189
 173  729.9431
 174  633.1307
 175  609.1232
 176  693.8169
 177  552.0281
 178  601.622
 179  634.2637
 180  505.68
 181  681.3431
 182  724.9865
 183  754.3884
 184  838.3474
 185  808.5038
 186  765.4334
 187  690.4562
 188  876.6188
 189  823.826
 190  762.1135
 191  771.451
 192  730.5994
 193  675.4514
 194  639.9225
 195  749.7079
 196  683.0985
 197  722.7718
 198  790.0451
 199  781.0571
 200  741.6154
 201  717.9365
 202  690.8882
 203  744.0432
 204  822.838
 205  720.5406
 206  765.4167
 207  604.5847
 208  608.4531
 209  622.8109
 210  546.8902
 211  518.6958
 212  476.4868
 213  676.0759
 214  707.6065
 215  676.9046
 216  741.399
 217  780.8957
 218  891.7294
 219  834.2771
 220  726.1541
 221  722.4346
 222  759.3251
 223  669.7789
 224  643.868
 225  713.7624
 226  543.4294
 227  627.6345
 228  808.6288
 229  937.9752
 230  855.9559
 231  685.5142
 232  739.3648
 233  567.004
 234  598.1315
 235  726.0686
 236  699.0849
 237  657.1157
 238  537.1694
 239  569.0563
 240  627.0674
 241  648.8847
 242  600.4714
 243  595.4521
 244  622.0746
 245  752.8812
 246  792.2068
 247  668.3623
 248  649.2593
 249  671.3193
 250  720.0904
 251  620.2303
 252  677.8898
 253  730.5659
 254  651.582
 255  632.7461
 256  685.29
 257  684.6496
 258  671.0309
 259  559.5135
 260  503.891
 261  521.7569
 262  721.0524
 263  715.8215
 264  812.4396
 265  737.3546
 266  763.1173
 267  835.7852
 268  700.4142
 269  596.1875
 270  787.9764
 271  848.3594
 272  754.618
 273  642.7913
 274  591.7631
 275  545.1779
 276  639.7179
 277  723.5911
 278  567.4686
 279  735.7002
 280  799.2938
 281  598.6567
 282  648.8007
 283  656.7615
 284  743.3282
 285  695.9868
 286  677.3797
 287  721.8623
 288  575.1896
 289  642.6248
 290  612.8777
 291  697.8052
 292  712.8232
 293  688.8734
 294  705.9721
 295  713.1478
 296  631.2665
 297  601.1724
 298  552.9813
 299  607.8573
 300  491.5306
 301  629.5493
 302  687.3832
 303  666.4072
 304  620.1146
 305  610.3932
 306  758.5382
 307  648.9335
 308  613.4425
 309  662.4534
 310  699.9724
 311  698.4508
 312  646.604
 313  689.5531
 314  611.2349
 315  654.1461
 316  723.7677
 317  703.1732
 318  708.9464
 319  730.9587
 320  653.7964
 321  600.5715
 322  650.005
 323  649.9042
 324  604.2461
 325  695.7316
 326  624.222
 327  570.2647
 328  786.5378
 329  790.6587
 330  814.105
 331  835.223
 332  733.3672
 333  568.7078
 334  564.3018
 335  638.504
 336  779.8901
 337  710.7715
 338  690.1472
 339  748.5956
 340  669.9934
 341  669.5127
 342  611.2849
 343  648.7673
 344  736.664
 345  800.3408
 346  693.222
 347  753.1254
 348  697.3356
 349  750.7214
 350  786.7053
 351  638.4869
 352  623.239
 353  619.4995
 354  710.8018
 355  593.6248
 356  477.572
 357  562.9856
 358  619.627
 359  556.601
 360  654.5084
 361  677.9294
 362  709.5405
 363  645.8547
 364  404.8917
 365  478.9998
 366  593.2022
 367  674.7063
 368  663.4388
 369  610.3311
 370  654.3172
 371  572.2728
 372  514.7403
 373  636.942
 374  580.8372
 375  692.5103
 376  632.374
 377  662.4506
 378  722.1392
 379  525.4318
 380  560.4835
 381  641.7285
 382  700.119
 383  632.525
 384  643.1646
 385  614.4559
 386  736.8306
 387  648.8848
 388  520.8862
 389  568.6055
 390  632.2608
 391  639.8718
 392  571.5422
 393  606.3838
 394  764.5982
 395  677.8859
 396  490.8517
 397  562.4608
 398  717.1548
 399  668.4355
 400  643.7819
 401  754.6891
 402  789.4136
 403  694.867
 404  644.9973
 405  640.7557
 406  597.6719
 407  617.9414
 408  627.4208
 409  693.0564
 410  731.5469
 411  706.0613
 412  752.9008
 413  683.8606
 414  762.2551
 415  639.1743
 416  628.507
 417  566.5363
 418  603.9853
 419  748.3074
 420  695.2637
 421  592.3934
 422  561.5674
 423  624.1075
 424  681.173
 425  648.2298
 426  636.3405
 427  800.0872
 428  759.6782
 429  725.2142
 430  664.8608
 431  712.1538
 432  788.8486
 433  621.4736
 434  667.6575
 435  810.8078
 436  829.0536
 437  868.4705
 438  772.3604
 439  755.1588
 440  696.2007
 441  598.5842
 442  652.7739
 443  658.8413
 444  713.6827
 445  887.4344
 446  754.7964
 447  694.7228
 448  683.01
 449  717.4117
 450  740.7321
 451  720.6689
 452  818.4189
 453  857.2637
 454  704.8478
 455  612.3663
 456  663.3958
 457  675.2957
 458  723.946
 459  700.8452
 460  676.8987
 461  699.294
 462  745.4163
 463  709.5681
 464  589.9671
 465  748.364
 466  764.1475
 467  747.8384
 468  693.5009
 469  709.5216
 470  711.1214
 471  610.773
 472  714.7023
 473  703.1956
 474  618.7006
 475  758.5359
 476  678.9151
 477  742.1706
 478  759.9238
 479  798.2276
 480  763.1116
 481  692.8445
 482  662.2122
 483  779.6431
 484  779.8113
 485  748.1142
 486  740.8077
 487  838.9279
 488  792.6871
 489  781.1517
 490  778.3718
 491  782.4844
 492  617.9167
 493  757.5364
 494  882.7242
 495  758.8954
 496  912.7001
 497  780.3327
 498  727.452
 499  730.9984
 500  632.3143
 501  710.7707
 502  799.7645
 503  874.0936
 504  855.762
 505  802.8937
 506  769.6991
 507  676.0767
 508  784.8504
 509  1044.183
 510  1092.063
 511  1262.644
