# Input file       =  1212131393.119983_cleaned.dat
# Candidate        =  PSR_0332+5434
# Telescope        =  AR
# Epoch_topo       =  58273.298323147952
# Epoch_bary       =  N/A
# T_sample         =  0.002
# Data Folded      =  7340032
# Data Avg         =  0.0517570637530211
# Data StdDev      =  1.00023268153056 
# Profile Bins     =  512
# Profile Avg      =  741.915166712576 
# Profile StdDev   =  119.760896042929 
# Reduced chi-sqr  =  0.886
# Prob(Noise)      <  0.97   (~0.0 sigma)
# P_topo (ms)      =  714.513736784469  +/- 0.000456
# P'_topo (s/s)    =  -0                +/- 2.41e-10
# P''_topo (s/s^2) =  0                 +/- 1.06e-13
# P_bary (ms)      =  N/A
# P'_bary (s/s)    =  N/A
# P''_bary (s/s^2) =  N/A
# P_orb (s)        =  N/A
# asin(i)/c (s)    =  N/A
# eccentricity     =  N/A
# w (rad)          =  N/A
# T_peri           =  N/A
######################################################
   0  1210.224
   1  1147.355
   2  1037.475
   3  922.4531
   4  887.1308
   5  751.1328
   6  673.5863
   7  649.9101
   8  684.5604
   9  678.4685
  10  655.9703
  11  649.2971
  12  653.8458
  13  536.5312
  14  604.7531
  15  710.3418
  16  795.1312
  17  678.8796
  18  647.2472
  19  728.2485
  20  724.592
  21  709.2065
  22  575.043
  23  580.6429
  24  614.9706
  25  602.6346
  26  611.5967
  27  593.5204
  28  641.1304
  29  708.8878
  30  741.0563
  31  699.5168
  32  659.6637
  33  682.5732
  34  650.2225
  35  680.4893
  36  716.7271
  37  714.5811
  38  754.9661
  39  786.8626
  40  844.4324
  41  864.3177
  42  769.9919
  43  839.444
  44  777.4706
  45  677.7238
  46  630.0753
  47  676.9014
  48  718.5717
  49  778.3629
  50  809.5173
  51  772.9165
  52  763.326
  53  809.2781
  54  706.645
  55  687.1531
  56  732.9019
  57  781.8253
  58  708.6861
  59  726.3468
  60  827.5312
  61  815.215
  62  814.4464
  63  851.7953
  64  852.1379
  65  846.7147
  66  835.1754
  67  946.4758
  68  884.3367
  69  901.728
  70  820.7968
  71  727.9564
  72  720.0695
  73  741.809
  74  727.735
  75  686.0198
  76  711.3509
  77  706.3757
  78  752.8185
  79  703.5775
  80  699.8065
  81  676.6204
  82  638.656
  83  667.4867
  84  711.5734
  85  753.149
  86  861.4645
  87  861.1556
  88  866.8538
  89  828.3231
  90  807.5074
  91  773.8093
  92  887.7562
  93  903.554
  94  751.5989
  95  776.7517
  96  860.6259
  97  865.9332
  98  853.9565
  99  789.4807
 100  814.4224
 101  800.269
 102  839.7548
 103  731.472
 104  704.5333
 105  713.6652
 106  718.0634
 107  729.0674
 108  697.2573
 109  753.0788
 110  788.481
 111  758.7833
 112  749.2985
 113  655.7003
 114  663.8899
 115  734.2288
 116  701.0609
 117  672.7665
 118  673.8343
 119  760.4609
 120  672.7929
 121  755.4592
 122  706.762
 123  676.9543
 124  784.1176
 125  786.376
 126  643.3195
 127  650.6213
 128  707.5403
 129  872.5066
 130  916.9785
 131  727.0854
 132  752.1733
 133  851.0354
 134  811.9407
 135  802.8986
 136  791.869
 137  674.2656
 138  698.3129
 139  713.3733
 140  703.7557
 141  705.4315
 142  742.569
 143  730.1313
 144  628.8744
 145  756.0726
 146  730.3908
 147  665.343
 148  637.8179
 149  668.8751
 150  637.5282
 151  677.762
 152  755.4061
 153  805.9917
 154  828.9879
 155  754.1359
 156  646.9691
 157  702.65
 158  734.0051
 159  684.2294
 160  752.198
 161  753.2088
 162  765.1808
 163  704.8353
 164  622.4689
 165  745.7649
 166  775.7686
 167  610.3715
 168  626.7823
 169  582.4811
 170  589.8287
 171  705.5112
 172  712.6729
 173  687.1282
 174  656.7855
 175  602.3884
 176  625.9374
 177  632.8271
 178  620.574
 179  607.8088
 180  602.1154
 181  674.2186
 182  697.0911
 183  702.2662
 184  657.1544
 185  605.0242
 186  596.4177
 187  691.65
 188  670.0364
 189  726.4943
 190  603.1148
 191  629.5701
 192  714.3406
 193  739.4739
 194  783.5751
 195  788.1674
 196  655.4208
 197  709.9729
 198  804.4319
 199  839.1883
 200  772.3009
 201  656.0787
 202  760.4506
 203  720.4503
 204  680.4916
 205  776.7411
 206  755.4434
 207  820.7056
 208  835.499
 209  777.9282
 210  707.3813
 211  734.9177
 212  728.6179
 213  822.6733
 214  731.3708
 215  723.7172
 216  753.106
 217  824.458
 218  835.9994
 219  752.7312
 220  742.8459
 221  870.7427
 222  933.1815
 223  860.9803
 224  950.0344
 225  840.9517
 226  825.8219
 227  762.042
 228  780.7653
 229  946.275
 230  838.5098
 231  752.1749
 232  680.6925
 233  817.2853
 234  798.9012
 235  843.0258
 236  802.5915
 237  841.2537
 238  791.0377
 239  838.3572
 240  895.3447
 241  856.7178
 242  858.9755
 243  827.4777
 244  782.7303
 245  698.8449
 246  735.1891
 247  704.1235
 248  820.4434
 249  806.803
 250  777.1611
 251  657.9781
 252  860.5295
 253  886.0592
 254  731.4669
 255  719.4965
 256  857.5847
 257  813.0491
 258  748.5778
 259  760.8309
 260  760.3453
 261  781.6984
 262  792.7145
 263  699.0035
 264  707.1978
 265  770.9648
 266  818.2469
 267  739.7193
 268  770.4351
 269  748.5212
 270  651.7383
 271  716.1373
 272  675.6613
 273  760.8793
 274  763.7966
 275  746.4529
 276  711.9235
 277  757.0237
 278  746.3344
 279  783.6093
 280  784.601
 281  744.2955
 282  743.6504
 283  695.2977
 284  668.8331
 285  723.1562
 286  753.4822
 287  765.9369
 288  763.6028
 289  781.3958
 290  795.4266
 291  698.0082
 292  687.034
 293  734.3835
 294  752.311
 295  698.1281
 296  748.5953
 297  755.9456
 298  742.6717
 299  779.7905
 300  711.4875
 301  670.503
 302  680.0991
 303  740.9027
 304  725.0098
 305  741.7198
 306  797.9179
 307  754.8089
 308  709.5932
 309  811.5363
 310  720.5807
 311  817.1024
 312  816.2204
 313  822.7759
 314  803.7846
 315  777.5413
 316  763.4918
 317  775.5045
 318  698.9967
 319  704.23
 320  649.9694
 321  726.9499
 322  771.9711
 323  672.5865
 324  737.1298
 325  740.2517
 326  619.748
 327  678.3976
 328  681.2793
 329  793.6415
 330  826.061
 331  706.4218
 332  695.1501
 333  771.7194
 334  756.3719
 335  781.847
 336  852.5142
 337  765.4946
 338  663.0573
 339  774.4814
 340  784.2089
 341  743.9855
 342  735.8093
 343  693.8516
 344  712.0021
 345  640.4315
 346  694.1425
 347  591.8809
 348  691.6747
 349  682.7442
 350  738.6141
 351  836.6667
 352  854.8495
 353  802.6565
 354  790.2961
 355  670.863
 356  765.265
 357  783.405
 358  792.9515
 359  742.8456
 360  755.5735
 361  793.0152
 362  821.3486
 363  734.7418
 364  669.0804
 365  730.0621
 366  694.0183
 367  710.155
 368  630.7039
 369  715.7315
 370  784.7134
 371  757.3833
 372  760.5352
 373  727.0177
 374  669.5662
 375  659.8004
 376  695.4633
 377  757.0563
 378  697.5677
 379  643.9639
 380  678.0771
 381  661.1152
 382  715.27
 383  728.1023
 384  588.7595
 385  628.3758
 386  701.7535
 387  633.9793
 388  687.872
 389  713.0743
 390  665.6852
 391  604.8558
 392  625.8793
 393  656.6768
 394  786.9222
 395  680.9199
 396  572.7883
 397  579.7068
 398  540.3463
 399  629.9044
 400  799.4682
 401  748.1121
 402  676.834
 403  702.6925
 404  675.403
 405  689.7015
 406  730.6237
 407  692.9509
 408  631.7691
 409  669.1019
 410  846.5845
 411  849.5995
 412  785.4382
 413  810.4566
 414  782.8005
 415  774.7769
 416  803.7037
 417  823.468
 418  799.1517
 419  853.5229
 420  781.653
 421  790.6581
 422  822.9424
 423  778.6957
 424  850.2952
 425  823.8677
 426  796.6439
 427  835.5103
 428  800.9316
 429  741.4512
 430  740.4802
 431  821.1582
 432  810.6046
 433  856.18
 434  873.7037
 435  743.0282
 436  789.2769
 437  836.4047
 438  826.9032
 439  720.6588
 440  767.9229
 441  774.6894
 442  663.213
 443  744.9024
 444  872.4911
 445  859.2617
 446  787.8612
 447  782.2212
 448  656.4713
 449  691.4762
 450  625.1524
 451  747.1214
 452  795.4767
 453  759.2634
 454  748.1074
 455  642.3568
 456  584.9522
 457  770.65
 458  742.5878
 459  669.6163
 460  766.1652
 461  818.7928
 462  679.5618
 463  721.204
 464  743.5764
 465  736.65
 466  670.7006
 467  633.2233
 468  634.1348
 469  798.5413
 470  766.6503
 471  727.4125
 472  648.9563
 473  574.0533
 474  629.6249
 475  661.1312
 476  809.953
 477  818.7267
 478  768.2261
 479  840.5561
 480  729.3181
 481  743.9584
 482  737.58
 483  718.6499
 484  688.2328
 485  668.0109
 486  656.698
 487  691.5197
 488  771.4239
 489  725.5627
 490  743.2626
 491  688.7875
 492  695.4567
 493  734.3297
 494  727.4635
 495  784.7668
 496  733.0095
 497  705.7392
 498  623.497
 499  664.058
 500  703.2786
 501  696.0215
 502  723.9061
 503  811.6828
 504  722.7319
 505  724.6068
 506  748.2762
 507  819.0103
 508  728.4095
 509  761.8336
 510  915.3309
 511  1139.802
