# Input file       =  1212202951.119541_cleaned.dat
# Candidate        =  PSR_0332+5434
# Telescope        =  AR
# Epoch_topo       =  58274.126540735429
# Epoch_bary       =  N/A
# T_sample         =  0.002
# Data Folded      =  7208960
# Data Avg         =  0.0516735778716067
# Data StdDev      =  1.00005779860108 
# Profile Bins     =  512
# Profile Avg      =  727.561566688723 
# Profile StdDev   =  118.666034127896 
# Reduced chi-sqr  =  2.019
# Prob(Noise)      <  1.84e-37   (~12.7 sigma)
# P_topo (ms)      =  714.512924255705  +/- 7.79e-05
# P'_topo (s/s)    =  -0                +/- 4.19e-11
# P''_topo (s/s^2) =  0                 +/- 1.88e-14
# P_bary (ms)      =  N/A
# P'_bary (s/s)    =  N/A
# P''_bary (s/s^2) =  N/A
# P_orb (s)        =  N/A
# asin(i)/c (s)    =  N/A
# eccentricity     =  N/A
# w (rad)          =  N/A
# T_peri           =  N/A
######################################################
   0  1315.263
   1  1294.879
   2  1179.885
   3  957.8569
   4  782.0573
   5  875.4697
   6  916.874
   7  772.2253
   8  780.5027
   9  735.3793
  10  641.132
  11  724.347
  12  859.4764
  13  914.8569
  14  1048.859
  15  1066.708
  16  813.9996
  17  785.7889
  18  882.7226
  19  825.7273
  20  848.8294
  21  896.1299
  22  858.3397
  23  802.8492
  24  741.5105
  25  736.5727
  26  739.2835
  27  809.1534
  28  786.1978
  29  653.0757
  30  809.4725
  31  849.6313
  32  908.8929
  33  853.9674
  34  806.719
  35  805.6919
  36  747.4414
  37  855.3539
  38  776.9397
  39  738.5463
  40  709.4252
  41  795.9711
  42  859.3038
  43  764.9279
  44  764.6511
  45  874.8058
  46  953.6487
  47  940.5203
  48  833.2977
  49  879.4078
  50  899.7687
  51  743.1444
  52  813.7554
  53  836.713
  54  745.7529
  55  742.1439
  56  885.5664
  57  901.5657
  58  762.8264
  59  793.5334
  60  739.1412
  61  751.1279
  62  921.4579
  63  925.804
  64  944.5699
  65  864.6724
  66  841.176
  67  849.2263
  68  845.393
  69  876.2827
  70  906.902
  71  950.3292
  72  948.3408
  73  799.3763
  74  823.1107
  75  815.6964
  76  674.7289
  77  678.8288
  78  852.7872
  79  998.0512
  80  1017.486
  81  1097.136
  82  1030.502
  83  893.4775
  84  919.6752
  85  935.589
  86  915.7216
  87  802.3336
  88  774.9265
  89  793.222
  90  754.012
  91  719.7582
  92  717.1773
  93  798.4878
  94  797.1792
  95  722.5397
  96  672.0386
  97  730.4739
  98  863.7286
  99  900.7441
 100  683.575
 101  735.3917
 102  846.4457
 103  782.7747
 104  725.8082
 105  816.0598
 106  833.371
 107  772.8085
 108  729.4216
 109  633.8563
 110  706.8879
 111  701.6686
 112  787.6215
 113  776.7545
 114  674.0834
 115  690.4639
 116  807.1154
 117  719.1617
 118  633.4713
 119  716.0955
 120  713.4477
 121  685.1069
 122  688.1824
 123  660.1713
 124  741.8174
 125  622.4575
 126  769.3782
 127  713.5963
 128  589.8286
 129  606.084
 130  735.1703
 131  768.0775
 132  696.6324
 133  712.4802
 134  895.4315
 135  818.0143
 136  757.2029
 137  758.6586
 138  703.2059
 139  693.7656
 140  756.6834
 141  778.7409
 142  784.0485
 143  716.4047
 144  703.244
 145  813.5381
 146  774.2528
 147  759.0605
 148  780.4034
 149  852.7299
 150  749.4933
 151  733.7691
 152  706.4927
 153  790.8425
 154  763.2834
 155  730.6699
 156  824.9629
 157  868.0078
 158  802.9637
 159  775.1913
 160  799.8229
 161  778.3292
 162  776.6013
 163  865.0459
 164  845.1129
 165  864.9223
 166  849.908
 167  734.3723
 168  696.826
 169  678.1611
 170  793.0364
 171  772.687
 172  804.3588
 173  774.4612
 174  698.5888
 175  727.574
 176  739.8781
 177  851.0138
 178  810.4432
 179  734.9545
 180  866.0809
 181  838.3552
 182  727.4139
 183  679.6494
 184  679.9633
 185  670.0115
 186  778.5422
 187  756.3876
 188  661.444
 189  647.0226
 190  623.7922
 191  541.8285
 192  578.0251
 193  603.8113
 194  733.2942
 195  698.4789
 196  712.0125
 197  732.1684
 198  727.4011
 199  741.6805
 200  709.4673
 201  631.8278
 202  622.1304
 203  679.3143
 204  651.851
 205  585.4418
 206  498.304
 207  584.7793
 208  563.0659
 209  597.9784
 210  540.119
 211  544.9429
 212  640.9362
 213  653.4302
 214  733.8141
 215  681.3372
 216  705.7169
 217  716.9463
 218  728.5904
 219  722.8444
 220  598.0911
 221  555.3525
 222  593.6007
 223  604.8006
 224  559.7564
 225  582.1588
 226  644.6627
 227  782.2581
 228  689.883
 229  764.7381
 230  755.3206
 231  703.6527
 232  471.6494
 233  629.9119
 234  697.9351
 235  708.2005
 236  653.5077
 237  720.4758
 238  714.5997
 239  518.571
 240  392.1549
 241  429.3105
 242  590.3176
 243  623.3497
 244  706.9949
 245  753.2717
 246  852.2349
 247  611.338
 248  547.3988
 249  681.287
 250  652.7173
 251  715.1785
 252  689.0851
 253  611.6577
 254  641.9556
 255  581.4937
 256  599.0303
 257  529.9404
 258  517.3002
 259  686.3608
 260  777.5019
 261  649.0598
 262  731.7681
 263  737.6075
 264  718.2494
 265  641.5202
 266  716.6694
 267  691.8572
 268  546.3743
 269  613.3527
 270  652.1001
 271  597.673
 272  552.1331
 273  422.0815
 274  548.7932
 275  628.9639
 276  590.2783
 277  681.1216
 278  728.9456
 279  737.3243
 280  720.0081
 281  689.5657
 282  654.1471
 283  498.1034
 284  667.278
 285  660.5688
 286  603.9497
 287  713.2051
 288  552.4756
 289  589.498
 290  682.8848
 291  635.6179
 292  496.0834
 293  561.7153
 294  768.6158
 295  747.8369
 296  792.5266
 297  766.6273
 298  631.8918
 299  592.0332
 300  594.804
 301  551.4423
 302  590.2058
 303  646.6801
 304  781.708
 305  807.6516
 306  734.9144
 307  566.3452
 308  616.8865
 309  618.4019
 310  560.9514
 311  699.4301
 312  720.6628
 313  719.916
 314  760.364
 315  649.7079
 316  572.986
 317  607.1622
 318  630.0004
 319  663.0059
 320  704.0206
 321  676.8687
 322  615.8641
 323  498.8401
 324  449.2651
 325  507.2446
 326  595.5999
 327  719.5635
 328  608.3665
 329  648.3458
 330  668.5752
 331  586.549
 332  691.9521
 333  697.3013
 334  572.0452
 335  668.6942
 336  737.2253
 337  700.8181
 338  675.1787
 339  544.4166
 340  612.1312
 341  500.095
 342  570.6626
 343  675.5798
 344  773.9984
 345  737.2626
 346  733.4343
 347  693.6703
 348  577.7608
 349  589.7839
 350  550.4419
 351  664.3091
 352  649.7137
 353  761.147
 354  672.6107
 355  627.3425
 356  614.681
 357  649.3194
 358  621.5546
 359  615.4113
 360  684.1389
 361  843.9801
 362  846.8201
 363  625.9396
 364  710.56
 365  778.5202
 366  669.2639
 367  529.9419
 368  589.0945
 369  750.5762
 370  686.4649
 371  676.8787
 372  615.7733
 373  586.5734
 374  659.4153
 375  681.5004
 376  644.8484
 377  739.5327
 378  770.0084
 379  703.629
 380  741.6869
 381  732.5563
 382  690.2991
 383  642.4376
 384  645.308
 385  720.152
 386  686.6525
 387  756.8282
 388  610.1478
 389  504.0848
 390  599.7307
 391  660.4529
 392  753.5349
 393  739.6407
 394  762.8932
 395  783.9556
 396  796.2847
 397  737.6534
 398  644.5795
 399  671.8644
 400  720.1536
 401  787.2741
 402  815.5928
 403  732.0596
 404  713.5532
 405  617.7805
 406  573.1806
 407  683.59
 408  680.7572
 409  746.1726
 410  732.544
 411  819.9426
 412  781.3513
 413  733.0256
 414  741.8647
 415  703.1328
 416  686.8686
 417  814.5225
 418  811.1198
 419  731.0302
 420  628.5292
 421  676.4352
 422  667.3499
 423  674.4551
 424  668.6607
 425  693.6575
 426  830.6926
 427  820.8746
 428  864.9904
 429  979.1309
 430  759.3931
 431  668.9947
 432  760.9553
 433  826.8107
 434  742.1311
 435  699.5574
 436  788.7871
 437  704.9564
 438  640.5781
 439  512.0737
 440  629.1439
 441  768.5324
 442  640.7968
 443  638.3035
 444  682.1598
 445  730.0626
 446  691.6539
 447  813.3282
 448  826.2834
 449  715.0374
 450  655.23
 451  633.436
 452  716.0136
 453  594.5245
 454  546.5204
 455  657.288
 456  713.0648
 457  566.505
 458  586.5294
 459  727.5057
 460  801.3165
 461  863.5787
 462  737.5464
 463  645.3311
 464  611.9535
 465  615.7315
 466  728.3248
 467  744.7382
 468  779.5532
 469  766.3983
 470  671.0132
 471  674.3136
 472  620.7906
 473  615.8792
 474  659.1653
 475  688.3303
 476  756.7629
 477  827.2828
 478  709.412
 479  748.5059
 480  856.895
 481  732.7799
 482  695.2836
 483  629.194
 484  686.9199
 485  688.9489
 486  821.4523
 487  764.6883
 488  691.3208
 489  710.09
 490  693.1627
 491  686.155
 492  685.2733
 493  856.6536
 494  895.856
 495  883.181
 496  957.635
 497  869.65
 498  797.9813
 499  769.8154
 500  713.9216
 501  930.7812
 502  958.4427
 503  803.914
 504  697.9543
 505  683.4473
 506  700.9034
 507  718.2319
 508  941.1776
 509  1142.195
 510  1358.032
 511  1367.446
