# Input file       =  1212289145.117255_cleaned.dat
# Candidate        =  PSR_0332+5434
# Telescope        =  AR
# Epoch_topo       =  58275.124156449710
# Epoch_bary       =  N/A
# T_sample         =  0.002
# Data Folded      =  7143424
# Data Avg         =  0.0483483647049526
# Data StdDev      =  1.00006141580261 
# Profile Bins     =  512
# Profile Avg      =  674.579501739302 
# Profile StdDev   =  118.125838829537 
# Reduced chi-sqr  =  2.079
# Prob(Noise)      <  6.81e-41   (~13.3 sigma)
# P_topo (ms)      =  714.511959995516  +/- 0.000255
# P'_topo (s/s)    =  -0                +/- 1.38e-10
# P''_topo (s/s^2) =  0                 +/- 6.26e-14
# P_bary (ms)      =  N/A
# P'_bary (s/s)    =  N/A
# P''_bary (s/s^2) =  N/A
# P_orb (s)        =  N/A
# asin(i)/c (s)    =  N/A
# eccentricity     =  N/A
# w (rad)          =  N/A
# T_peri           =  N/A
######################################################
   0  1379.702
   1  1294.844
   2  1114.133
   3  947.0078
   4  736.0662
   5  741.9898
   6  690.4624
   7  709.1585
   8  827.5355
   9  744.9725
  10  782.8442
  11  891.9196
  12  939.2877
  13  850.218
  14  746.4742
  15  889.522
  16  874.7381
  17  819.6773
  18  846.9244
  19  704.3353
  20  758.1375
  21  713.3483
  22  834.1957
  23  810.0692
  24  791.7782
  25  759.3791
  26  792.945
  27  730.6708
  28  742.7617
  29  752.0726
  30  673.9334
  31  765.1743
  32  771.4666
  33  781.9424
  34  759.5261
  35  780.7577
  36  804.3252
  37  698.4046
  38  651.8427
  39  664.5192
  40  665.5963
  41  735.007
  42  806.9001
  43  897.4019
  44  803.533
  45  679.203
  46  672.2186
  47  853.522
  48  813.5459
  49  700.4824
  50  771.8853
  51  879.2197
  52  855.5939
  53  910.1359
  54  814.5773
  55  692.6143
  56  692.1049
  57  756.0051
  58  901.9904
  59  946.5514
  60  774.1628
  61  870.4887
  62  746.5689
  63  707.2601
  64  707.5487
  65  798.8412
  66  802.8468
  67  796.7812
  68  862.4852
  69  879.8928
  70  854.8554
  71  766.9958
  72  890.256
  73  786.47
  74  692.9738
  75  606.563
  76  789.7839
  77  686.8411
  78  639.4681
  79  736.4357
  80  725.7116
  81  641.8167
  82  517.3658
  83  702.5475
  84  614.4859
  85  621.9534
  86  799.9849
  87  758.3751
  88  690.308
  89  703.6766
  90  715.5532
  91  709.7234
  92  676.8762
  93  685.1423
  94  662.7389
  95  731.7809
  96  677.6313
  97  761.8326
  98  660.7303
  99  581.6328
 100  556.8255
 101  652.3193
 102  603.9897
 103  527.9019
 104  744.1521
 105  606.316
 106  611.2828
 107  665.1822
 108  725.3694
 109  767.0657
 110  660.9008
 111  649.7274
 112  621.8806
 113  700.0779
 114  716.1004
 115  563.9194
 116  560.2748
 117  562.2466
 118  654.6511
 119  644.1725
 120  580.6176
 121  507.0612
 122  561.1711
 123  676.7131
 124  656.7151
 125  646.6854
 126  685.5434
 127  764.4536
 128  639.6804
 129  563.7634
 130  593.4587
 131  618.7105
 132  529.2037
 133  660.5839
 134  769.7356
 135  603.7916
 136  490.0199
 137  611.6537
 138  579.375
 139  507.3289
 140  491.7602
 141  610.529
 142  804.2476
 143  755.8107
 144  664.1242
 145  644.7327
 146  562.9971
 147  475.9542
 148  569.1342
 149  692.0232
 150  768.1331
 151  596.2615
 152  568.0457
 153  708.2613
 154  669.841
 155  645.5423
 156  563.4967
 157  618.9214
 158  621.2321
 159  588.3298
 160  716.5806
 161  616.9913
 162  511.0806
 163  593.6566
 164  597.929
 165  530.8729
 166  594.435
 167  553.5188
 168  527.0746
 169  719.0112
 170  632.1016
 171  685.3522
 172  630.5076
 173  504.7937
 174  539.483
 175  554.5441
 176  622.7919
 177  689.1625
 178  629.916
 179  668.3835
 180  618.8873
 181  501.973
 182  531.3134
 183  597.1046
 184  559.498
 185  536.298
 186  510.616
 187  600.9404
 188  519.9787
 189  486.1335
 190  649.6213
 191  605.9544
 192  573.4135
 193  664.6301
 194  662.1489
 195  642.6736
 196  636.0134
 197  536.1733
 198  646.0915
 199  718.0711
 200  786.918
 201  760.9874
 202  604.9611
 203  547.1223
 204  638.255
 205  720.7109
 206  770.5708
 207  600.9356
 208  510.4503
 209  623.4237
 210  657.6983
 211  633.1406
 212  677.9003
 213  682.1442
 214  572.6878
 215  582.1702
 216  560.4018
 217  588.6414
 218  565.3204
 219  568.9402
 220  581.8574
 221  638.452
 222  645.9736
 223  509.4505
 224  650.8586
 225  679.5895
 226  678.8123
 227  604.6547
 228  500.8405
 229  371.2669
 230  398.3796
 231  518.4505
 232  649.9646
 233  653.3825
 234  583.6102
 235  483.9624
 236  510.0916
 237  562.2076
 238  569.2027
 239  494.1252
 240  582.8728
 241  476.5621
 242  654.2603
 243  624.4594
 244  604.7365
 245  472.1209
 246  387.3687
 247  429.2228
 248  569.8026
 249  573.691
 250  598.1017
 251  624.9096
 252  473.9906
 253  498.8508
 254  522.8205
 255  601.5691
 256  453.9714
 257  505.1608
 258  558.2126
 259  644.7546
 260  569.5938
 261  638.166
 262  610.2616
 263  446.1011
 264  451.8454
 265  581.4562
 266  519.2462
 267  450.9993
 268  546.2802
 269  642.892
 270  572.4177
 271  559.9871
 272  616.8234
 273  582.1179
 274  475.8947
 275  503.6371
 276  549.6626
 277  493.8943
 278  590.995
 279  691.3057
 280  618.2726
 281  706.9246
 282  632.9495
 283  582.6599
 284  606.2103
 285  508.6578
 286  448.2947
 287  488.9941
 288  722.8833
 289  604.4434
 290  473.6629
 291  504.467
 292  540.5868
 293  562.1144
 294  531.0648
 295  452.806
 296  487.5829
 297  561.1481
 298  642.2831
 299  612.4967
 300  634.267
 301  747.1361
 302  679.4056
 303  604.1777
 304  540.9154
 305  578.6816
 306  617.5968
 307  707.285
 308  646.6138
 309  580.7169
 310  657.5153
 311  655.1284
 312  616.662
 313  642.0477
 314  606.6108
 315  682.6584
 316  705.8714
 317  750.8629
 318  752.0773
 319  701.4781
 320  509.7678
 321  582.5851
 322  722.3726
 323  620.134
 324  611.7233
 325  732.2028
 326  773.9393
 327  590.2366
 328  524.8091
 329  558.5369
 330  608.9274
 331  624.8063
 332  690.7103
 333  651.2547
 334  713.7251
 335  717.1582
 336  632.0078
 337  623.5357
 338  590.1068
 339  642.7986
 340  716.2214
 341  806.7621
 342  906.2525
 343  762.145
 344  783.4629
 345  781.0605
 346  760.5471
 347  700.8897
 348  658.828
 349  739.817
 350  770.4385
 351  685.3547
 352  700.0518
 353  711.9293
 354  772.7546
 355  826.8409
 356  810.7576
 357  723.608
 358  624.3112
 359  720.0349
 360  717.3477
 361  742.4427
 362  748.1704
 363  565.3663
 364  470.9709
 365  641.1505
 366  617.1989
 367  559.0045
 368  533.549
 369  560.2869
 370  594.5516
 371  665.0255
 372  711.6586
 373  658.2703
 374  795.0309
 375  896.1589
 376  774.6766
 377  750.7034
 378  721.8674
 379  641.1954
 380  610.7379
 381  740.7711
 382  787.8804
 383  862.7742
 384  811.5178
 385  756.4157
 386  673.9393
 387  605.6655
 388  671.81
 389  608.6851
 390  664.8076
 391  704.8021
 392  685.4934
 393  672.7507
 394  620.6933
 395  602.9502
 396  599.7535
 397  624.7557
 398  731.3616
 399  689.2849
 400  672.6569
 401  675.9506
 402  695.636
 403  618.7965
 404  531.978
 405  507.0244
 406  668.9018
 407  630.6342
 408  667.3869
 409  652.5073
 410  691.082
 411  724.4651
 412  670.129
 413  762.6608
 414  703.2379
 415  617.9012
 416  623.9315
 417  607.8981
 418  636.373
 419  698.7748
 420  756.7853
 421  658.595
 422  545.1304
 423  755.3019
 424  752.3389
 425  725.4011
 426  723.2119
 427  768.2885
 428  752.4203
 429  718.8603
 430  580.7357
 431  515.8151
 432  596.9709
 433  693.6562
 434  662.2552
 435  608.535
 436  683.0941
 437  615.1519
 438  598.08
 439  677.1321
 440  679.4863
 441  677.2439
 442  631.8206
 443  537.653
 444  596.9067
 445  654.77
 446  614.4458
 447  559.8156
 448  655.2403
 449  715.4332
 450  703.5577
 451  688.2159
 452  800.4853
 453  672.8351
 454  669.0369
 455  729.8123
 456  717.9112
 457  815.8825
 458  750.397
 459  743.296
 460  643.8452
 461  660.6389
 462  670.8572
 463  680.6711
 464  634.2957
 465  733.5067
 466  780.6119
 467  848.0272
 468  806.7445
 469  713.9
 470  686.5963
 471  621.7415
 472  694.6185
 473  826.2059
 474  727.5699
 475  688.243
 476  754.278
 477  834.6733
 478  767.4756
 479  714.1148
 480  756.0753
 481  747.1305
 482  797.0889
 483  691.4722
 484  642.8795
 485  611.0933
 486  700.7459
 487  718.8803
 488  804.6035
 489  834.6392
 490  820.621
 491  837.5148
 492  836.4925
 493  768.3215
 494  721.6786
 495  753.3021
 496  715.4092
 497  845.4661
 498  950.6377
 499  848.6467
 500  720.2445
 501  793.78
 502  918.8357
 503  891.0175
 504  825.0824
 505  738.2424
 506  875.3629
 507  877.8486
 508  949.1337
 509  1161.424
 510  1238.866
 511  1352.743
