# Input file       =  1178614237.09254_cleaned.dat
# Candidate        =  PSR_0332+5434
# Telescope        =  AR
# Epoch_topo       =  57885.368704774766
# Epoch_bary       =  N/A
# T_sample         =  0.002
# Data Folded      =  7340032
# Data Avg         =  0.0960596910257923
# Data StdDev      =  2.80544318829003 
# Profile Bins     =  512
# Profile Avg      =  1376.82354364833 
# Profile StdDev   =  335.904231316481 
# Reduced chi-sqr  =  1.026
# Prob(Noise)      <  0.334   (~0.4 sigma)
# P_topo (ms)      =  714.535810894628  +/- 0.00043
# P'_topo (s/s)    =  -0                +/- 2.27e-10
# P''_topo (s/s^2) =  0                 +/- 1e-13
# P_bary (ms)      =  N/A
# P'_bary (s/s)    =  N/A
# P''_bary (s/s^2) =  N/A
# P_orb (s)        =  N/A
# asin(i)/c (s)    =  N/A
# eccentricity     =  N/A
# w (rad)          =  N/A
# T_peri           =  N/A
######################################################
   0  836.8201
   1  1051.199
   2  1308.953
   3  1290.491
   4  1440.772
   5  1550.847
   6  1429.82
   7  1365.71
   8  1150.516
   9  1256.654
  10  1440.557
  11  1430.409
  12  1372.322
  13  1056.81
  14  1096.038
  15  949.0507
  16  1266.474
  17  1194.471
  18  1145.853
  19  1368.706
  20  1181.896
  21  1235.232
  22  1513.586
  23  1314.477
  24  1239.244
  25  1236.33
  26  1363.726
  27  1055.259
  28  1307.464
  29  1457.684
  30  1265.299
  31  1420.495
  32  1196.35
  33  1227.46
  34  1266.429
  35  1304.006
  36  1481.872
  37  1271.353
  38  1205.803
  39  1561.413
  40  1674.638
  41  1474.361
  42  1372.861
  43  1311.259
  44  1373.846
  45  1418.274
  46  1639.514
  47  1663.594
  48  1360.527
  49  1639.558
  50  1524.694
  51  1571.386
  52  1778.137
  53  1579.937
  54  1509.066
  55  1305.597
  56  1106.863
  57  1137.291
  58  1354.43
  59  1562.892
  60  1585.927
  61  1696.846
  62  1350.701
  63  1169.668
  64  1483.915
  65  1515.302
  66  1459.997
  67  1202.152
  68  1182.102
  69  1345.968
  70  1187.538
  71  1068.537
  72  1174.875
  73  1346.384
  74  1323.514
  75  1296.557
  76  1235.968
  77  1027.034
  78  1585.972
  79  1456.035
  80  1483.005
  81  1339.242
  82  1445.726
  83  1594.82
  84  1448.401
  85  1531.165
  86  1625.37
  87  1356.708
  88  1603.428
  89  1456.153
  90  1125.897
  91  1257.474
  92  1487.638
  93  1532.721
  94  1298.634
  95  1274.762
  96  1722.826
  97  1910.075
  98  1856.829
  99  1459.791
 100  1258.775
 101  1550.662
 102  1731.43
 103  1581.476
 104  1469.972
 105  1693.753
 106  1692.796
 107  1375.217
 108  1618.907
 109  1782.797
 110  1644.574
 111  1307.916
 112  1236.007
 113  1295.123
 114  1323.739
 115  1458.939
 116  1241.61
 117  1464.38
 118  1396.944
 119  1057.285
 120  1273.541
 121  1642.714
 122  1526.357
 123  1324.099
 124  1262.197
 125  1236.855
 126  1132.368
 127  1366.105
 128  1251.738
 129  1157.909
 130  1099.877
 131  1002.124
 132  1005.399
 133  1275.155
 134  827.2379
 135  829.3483
 136  1024.098
 137  1025.057
 138  1127.554
 139  1071.249
 140  1212.859
 141  1299.045
 142  1422.627
 143  1266.585
 144  992.7387
 145  1435.876
 146  1256.565
 147  1116.749
 148  1213.488
 149  1230.002
 150  1124.52
 151  1030.331
 152  1026.522
 153  910.0954
 154  798.8916
 155  1130.157
 156  1174.506
 157  984.7725
 158  1059.442
 159  941.4645
 160  911.2146
 161  1262.519
 162  1263.445
 163  1403.816
 164  1046.524
 165  898.5975
 166  928.9656
 167  1234.549
 168  1462.355
 169  1541.973
 170  1177.613
 171  895.8474
 172  1095.024
 173  1434.286
 174  1513.906
 175  1464.472
 176  1513.46
 177  1367.413
 178  1309.14
 179  1406.628
 180  1258.88
 181  1399.536
 182  1567.931
 183  1622.638
 184  1564.853
 185  1421.142
 186  960.9225
 187  934.4413
 188  1419.065
 189  1450.991
 190  1514.592
 191  1536.52
 192  1313.912
 193  880.0049
 194  1052.694
 195  1217.818
 196  1178.213
 197  1129.512
 198  1367.634
 199  1126.726
 200  974.2391
 201  1290.106
 202  1480.88
 203  1143.062
 204  1256.446
 205  1617.511
 206  1407.295
 207  1268.144
 208  1338.811
 209  1453.297
 210  1456.067
 211  1404.63
 212  1245.875
 213  1361.389
 214  1412.063
 215  1388.828
 216  1484.326
 217  1530.659
 218  1542.238
 219  1511.854
 220  1476.108
 221  1812.37
 222  1527.363
 223  1352.458
 224  1305.01
 225  1406.383
 226  1501.472
 227  1309.156
 228  1191.779
 229  1328.901
 230  1358.425
 231  1137.369
 232  1278.474
 233  1547.085
 234  1438.759
 235  1006.514
 236  990.8474
 237  1522.046
 238  1378.39
 239  1506.06
 240  1364.794
 241  1395.644
 242  1301.288
 243  1228.527
 244  1081.399
 245  1197.906
 246  1538.212
 247  1634.826
 248  1328.121
 249  1418.258
 250  1397.541
 251  1232.914
 252  1488.365
 253  1591.68
 254  1574.59
 255  1445.972
 256  1654.778
 257  1779.782
 258  1596.004
 259  1360.98
 260  1553.828
 261  1574.649
 262  1319.943
 263  1376.547
 264  1785.558
 265  1847.214
 266  1723.543
 267  1563.455
 268  1575.297
 269  1241.284
 270  1379.029
 271  1635.93
 272  1568.877
 273  1352.801
 274  1249.711
 275  1626.972
 276  1794.736
 277  1533.42
 278  1484.009
 279  1381.404
 280  1597.686
 281  1343.783
 282  1624.444
 283  1923.257
 284  2024.539
 285  1908.94
 286  1778.074
 287  1419.073
 288  1510.652
 289  1392.231
 290  1326.689
 291  1282.325
 292  1360.894
 293  1430.418
 294  1488.826
 295  1624.815
 296  1347.04
 297  1534.421
 298  1430.407
 299  1622.909
 300  1705.49
 301  1371.833
 302  1226.356
 303  1262.346
 304  1301.402
 305  1462.19
 306  1432.909
 307  1331.276
 308  1450.223
 309  1258.855
 310  1640.867
 311  1678.862
 312  1777.084
 313  1732.28
 314  1564.972
 315  1536.333
 316  1299.033
 317  1066.468
 318  1261.826
 319  1232.578
 320  1651.814
 321  1649.573
 322  1786.76
 323  1911.955
 324  1587.674
 325  1771.37
 326  2032.66
 327  2282.982
 328  2627.022
 329  2644.111
 330  2753.595
 331  2572.29
 332  2017.759
 333  1711.339
 334  1507.809
 335  1429.074
 336  1542.167
 337  1454.486
 338  1408.448
 339  1305.868
 340  1418.267
 341  1383.314
 342  1582.024
 343  1666.294
 344  1721.889
 345  1110.778
 346  1260.461
 347  1356.061
 348  1390.084
 349  1357.06
 350  1348.476
 351  1217.885
 352  1279.911
 353  1326.799
 354  1431.945
 355  1431.916
 356  1422.247
 357  1388.116
 358  1504.434
 359  1571.044
 360  1121.055
 361  1121.812
 362  1162.391
 363  1134.252
 364  915.3347
 365  1210.259
 366  1267.915
 367  1432.091
 368  1326.532
 369  1449.042
 370  1522.296
 371  1221.14
 372  1552.453
 373  1853.022
 374  1641.892
 375  1552.145
 376  1720.461
 377  1592.688
 378  1620.859
 379  1800.975
 380  1687.869
 381  1535.104
 382  1573.972
 383  1334.299
 384  1170.836
 385  1448.099
 386  1314.714
 387  1044.854
 388  892.9452
 389  1190.411
 390  1574.306
 391  2001.276
 392  1668.231
 393  1272.494
 394  1259.46
 395  1153.326
 396  1040.486
 397  1327.505
 398  1239.6
 399  1168.002
 400  1290.494
 401  1213.62
 402  937.0359
 403  926.9034
 404  1340.456
 405  1260.724
 406  1169.024
 407  1124.666
 408  987.6919
 409  1485.706
 410  1215.88
 411  1288.916
 412  1428.596
 413  1402.212
 414  1458.142
 415  1620.574
 416  1269.996
 417  1123.126
 418  1482.804
 419  1394.145
 420  1299.986
 421  1220.04
 422  1527.708
 423  1423.642
 424  1377.108
 425  1462.25
 426  1468.848
 427  1214.852
 428  1041.829
 429  1173.658
 430  1372.047
 431  1246.661
 432  1335.57
 433  1657.824
 434  1374.482
 435  1579.035
 436  1650.078
 437  1364.643
 438  1407.382
 439  1506.54
 440  1629.822
 441  1500.078
 442  1382.827
 443  1105.415
 444  1153.853
 445  1426.193
 446  1318.325
 447  1241.714
 448  1283.989
 449  1193.343
 450  1160.65
 451  1291.857
 452  1141.726
 453  1233.395
 454  1022.177
 455  891.4113
 456  1137.159
 457  886.8824
 458  1111.955
 459  1273.113
 460  1461.747
 461  1572.743
 462  1311.241
 463  1400.493
 464  1313.219
 465  1398.312
 466  1484.452
 467  1322.034
 468  1287.226
 469  1345.11
 470  1452.077
 471  1321.893
 472  1204.652
 473  1348.832
 474  1473.525
 475  1246.629
 476  1341.833
 477  1579.658
 478  1358.286
 479  1182.986
 480  1398.386
 481  1049.146
 482  1323.002
 483  1295.154
 484  1356.859
 485  1513.961
 486  1523.897
 487  1159.112
 488  1484.4
 489  1433.47
 490  1249.808
 491  1305.119
 492  1377.429
 493  1325.007
 494  1468.794
 495  1695.058
 496  1396.5
 497  1209.963
 498  1348.011
 499  1377.518
 500  1240.607
 501  1397.24
 502  1389.426
 503  1054.621
 504  1074.846
 505  1122.365
 506  1281.938
 507  1397.473
 508  1082.756
 509  1163.488
 510  1367.92
 511  1238.881
