# Input file       =  1178614237.09254_cleaned.dat
# Candidate        =  PSR_0332+5434
# Telescope        =  AR
# Epoch_topo       =  57885.368704774766
# Epoch_bary       =  N/A
# T_sample         =  0.002
# Data Folded      =  7340032
# Data Avg         =  0.0960596910257923
# Data StdDev      =  2.80544318829003 
# Profile Bins     =  1024
# Profile Avg      =  688.411771824164 
# Profile StdDev   =  237.520159793138 
# Reduced chi-sqr  =  0.942
# Prob(Noise)      <  0.907   (~0.0 sigma)
# P_topo (ms)      =  714.535810894628  +/- 0.000261
# P'_topo (s/s)    =  -0                +/- 1.38e-10
# P''_topo (s/s^2) =  0                 +/- 6.09e-14
# P_bary (ms)      =  N/A
# P'_bary (s/s)    =  N/A
# P''_bary (s/s^2) =  N/A
# P_orb (s)        =  N/A
# asin(i)/c (s)    =  N/A
# eccentricity     =  N/A
# w (rad)          =  N/A
# T_peri           =  N/A
######################################################
   0  607.5196
   1  708.2886
   2  695.7414
   3  670.775
   4  637.9013
   5  674.4984
   6  735.7054
   7  746.5345
   8  730.7853
   9  670.5075
  10  653.1836
  11  658.4742
  12  626.4722
  13  660.4593
  14  695.7376
  15  764.1402
  16  680.0191
  17  664.2687
  18  653.3794
  19  617.5752
  20  574.2748
  21  639.2713
  22  733.3431
  23  748.8964
  24  710.8894
  25  633.3911
  26  613.6437
  27  645.5461
  28  710.0056
  29  804.46
  30  766.4552
  31  736.2878
  32  604.0997
  33  557.403
  34  637.716
  35  698.8021
  36  693.1966
  37  518.2824
  38  528.8492
  39  667.1543
  40  669.3898
  41  675.1854
  42  620.3994
  43  657.48
  44  715.0057
  45  732.8862
  46  786.8209
  47  801.049
  48  691.1497
  49  593.4951
  50  566.3257
  51  739.6766
  52  768.4976
  53  740.9247
  54  673.1451
  55  643.0898
  56  604.6115
  57  637.1085
  58  673.3823
  59  719.0502
  60  651.3262
  61  654.6168
  62  681.017
  63  717.5612
  64  766.6678
  65  854.0962
  66  842.5791
  67  716.7495
  68  655.0154
  69  591.0875
  70  619.9778
  71  666.6605
  72  687.4899
  73  701.6263
  74  666.0568
  75  631.6311
  76  613.8179
  77  686.5536
  78  721.7919
  79  741.2034
  80  624.5297
  81  534.2341
  82  509.6414
  83  524.9983
  84  568.9348
  85  550.3029
  86  572.4421
  87  626.1787
  88  656.718
  89  724.728
  90  666.1408
  91  583.8798
  92  491.0588
  93  540.6622
  94  644.6144
  95  650.6783
  96  716.761
  97  645.2141
  98  568.3328
  99  417.16
 100  407.8476
 101  499.7895
 102  582.538
 103  673.7049
 104  636.4436
 105  624.4406
 106  665.9462
 107  730.3865
 108  731.5417
 109  823.7646
 110  707.8156
 111  739.7247
 112  694.6805
 113  730.8479
 114  614.0792
 115  566.172
 116  589.2888
 117  611.438
 118  663.0977
 119  691.2302
 120  749.6476
 121  719.4211
 122  709.95
 123  705.3109
 124  651.7991
 125  548.4216
 126  493.7494
 127  541.8632
 128  558.6546
 129  483.349
 130  459.1934
 131  592.8104
 132  699.5518
 133  640.6435
 134  528.7155
 135  523.3236
 136  652.2638
 137  712.5865
 138  644.1069
 139  608.2831
 140  563.9893
 141  571.0964
 142  687.8423
 143  745.8998
 144  765.3973
 145  679.7054
 146  620.131
 147  636.4955
 148  605.3739
 149  622.1967
 150  619.9625
 151  694.8785
 152  661.3666
 153  539.6795
 154  501.8039
 155  584.2776
 156  765.3184
 157  778.8777
 158  646.1476
 159  606.8531
 160  674.1811
 161  769.0275
 162  642.9869
 163  600.1625
 164  598.2983
 165  596.9926
 166  633.3472
 167  606.9484
 168  654.3412
 169  621.1971
 170  695.8242
 171  752.9808
 172  725.5433
 173  640.2142
 174  611.7158
 175  602.4115
 176  619.1061
 177  772.9589
 178  812.7448
 179  857.4045
 180  812.1981
 181  778.5094
 182  674.5139
 183  673.0989
 184  705.3708
 185  675.7912
 186  631.2242
 187  664.3237
 188  721.5057
 189  688.2122
 190  733.3218
 191  771.5043
 192  895.0739
 193  874.1022
 194  748.8782
 195  645.6886
 196  726.4804
 197  792.8329
 198  845.5886
 199  780.3788
 200  739.1282
 201  757.423
 202  842.9604
 203  932.9047
 204  822.7986
 205  798.6506
 206  784.4905
 207  808.1116
 208  686.123
 209  637.4924
 210  662.9356
 211  576.8522
 212  512.3665
 213  506.3834
 214  654.892
 215  665.2802
 216  699.2554
 217  774.48
 218  792.9435
 219  791.6794
 220  811.0079
 221  851.2459
 222  825.7501
 223  688.0894
 224  634.9583
 225  544.3834
 226  638.2884
 227  707.7411
 228  790.6808
 229  758.7021
 230  752.2957
 231  730.9274
 232  727.134
 233  620.7129
 234  564.3482
 235  584.4463
 236  614.6854
 237  706.6873
 238  632.4326
 239  649.2129
 240  516.1351
 241  539.6422
 242  537.6769
 243  597.3027
 244  581.774
 245  675.9301
 246  686.6118
 247  708.1705
 248  604.8231
 249  652.5931
 250  640.8531
 251  638.3753
 252  577.9293
 253  474.0731
 254  582.5558
 255  751.7686
 256  859.478
 257  739.1265
 258  691.8781
 259  733.5568
 260  752.4886
 261  678.7863
 262  654.1491
 263  674.5952
 264  794.0931
 265  794.7855
 266  792.0596
 267  712.5734
 268  737.3588
 269  728.8203
 270  810.1896
 271  841.5861
 272  772.2669
 273  712.1797
 274  638.1846
 275  786.9717
 276  829.0436
 277  749.6992
 278  686.0249
 279  577.6649
 280  533.6006
 281  576.7761
 282  706.8318
 283  746.6453
 284  747.165
 285  758.638
 286  762.5317
 287  675.8694
 288  603.9203
 289  585.9109
 290  719.5782
 291  844.8154
 292  898.2707
 293  954.1367
 294  961.7632
 295  989.1019
 296  849.3582
 297  771.2872
 298  654.2239
 299  599.1025
 300  679.0378
 301  719.1668
 302  854.7957
 303  845.7408
 304  884.3607
 305  809.6233
 306  749.5815
 307  729.2255
 308  754.4603
 309  826.3199
 310  880.8683
 311  884.9562
 312  787.5458
 313  691.3673
 314  676.1502
 315  781.7297
 316  851.9707
 317  851.6686
 318  946.0588
 319  842.0214
 320  775.1069
 321  658.9716
 322  635.5148
 323  617.0267
 324  622.0026
 325  657.8551
 326  632.4502
 327  638.0044
 328  699.4785
 329  748.589
 330  691.5031
 331  637.28
 332  610.519
 333  724.2811
 334  767.2599
 335  725.9339
 336  627.5941
 337  547.5517
 338  503.3412
 339  589.7938
 340  734.9373
 341  826.9745
 342  817.6025
 343  760.1799
 344  759.0075
 345  704.8436
 346  587.5759
 347  613.5237
 348  661.9702
 349  658.6531
 350  555.2941
 351  545.2316
 352  611.5705
 353  682.5879
 354  675.1254
 355  636.9469
 356  613.5409
 357  580.5663
 358  565.8474
 359  531.795
 360  578.9667
 361  513.1526
 362  469.226
 363  446.2837
 364  586.3453
 365  674.3646
 366  578.0706
 367  470.0591
 368  336.8042
 369  395.6211
 370  451.4789
 371  532.1904
 372  481.2854
 373  501.9662
 374  540.4566
 375  603.6
 376  527.079
 377  539.7792
 378  540.1083
 379  602.4363
 380  615.6736
 381  655.3999
 382  655.6108
 383  733.9291
 384  684.5974
 385  688.9812
 386  547.9255
 387  460.2896
 388  553.5899
 389  691.2099
 390  761.6676
 391  642.2663
 392  584.9127
 393  524.9495
 394  594.3771
 395  568.3878
 396  650.5065
 397  611.2265
 398  614.6707
 399  553.3397
 400  570.7151
 401  533.1008
 402  474.1169
 403  491.6069
 404  560.8003
 405  486.3621
 406  391.8282
 407  380.6201
 408  433.5356
 409  563.4712
 410  585.021
 411  641.6039
 412  515.5757
 413  522.6765
 414  459.0135
 415  529.5988
 416  535.8712
 417  485.1845
 418  438.4581
 419  410.4307
 420  525.4069
 421  605.8841
 422  671.9207
 423  625.2571
 424  636.4183
 425  736.6412
 426  665.8823
 427  552.0422
 428  467.0169
 429  459.3021
 430  430.3184
 431  434.8809
 432  510.5637
 433  607.6359
 434  648.0956
 435  695.3701
 436  789.6094
 437  799.7778
 438  724.8414
 439  612.8582
 440  529.9474
 441  451.6493
 442  447.1684
 443  513.5338
 444  602.1429
 445  721.0552
 446  736.3539
 447  779.314
 448  718.7762
 449  737.5999
 450  736.1379
 451  757.7277
 452  756.4861
 453  699.7073
 454  667.4774
 455  639.3994
 456  664.7889
 457  670.2736
 458  727.0304
 459  631.6768
 460  623.9689
 461  642.0323
 462  782.4059
 463  798.512
 464  765.1055
 465  799.4828
 466  830.9472
 467  789.9645
 468  761.5183
 469  717.5082
 470  684.2518
 471  528.7764
 472  401.1433
 473  406.8298
 474  559.334
 475  687.5944
 476  747.5462
 477  714.5203
 478  736.3568
 479  747.5513
 480  776.5691
 481  777.9073
 482  751.4434
 483  700.1546
 484  585.5752
 485  426.8748
 486  446.0577
 487  487.8894
 488  577.3232
 489  583.9641
 490  642.8044
 491  612.063
 492  555.0795
 493  529.9615
 494  618.1028
 495  677.7944
 496  685.1116
 497  586.1749
 498  524.1621
 499  485.2572
 500  485.3706
 501  601.8389
 502  727.2482
 503  807.2636
 504  642.6146
 505  595.1694
 506  549.094
 507  622.8152
 508  649.6987
 509  816.674
 510  826.3212
 511  768.5047
 512  604.0206
 513  636.9378
 514  640.0837
 515  658.5108
 516  679.0897
 517  703.1622
 518  764.9044
 519  699.6507
 520  750.81
 521  694.419
 522  698.1396
 523  610.3916
 524  633.9551
 525  658.3679
 526  714.8802
 527  709.5455
 528  696.1538
 529  679.8172
 530  713.1298
 531  752.2378
 532  746.1854
 533  790.6672
 534  727.2072
 535  787.6089
 536  758.2666
 537  786.1526
 538  719.1395
 539  715.3483
 540  778.5176
 541  896.1218
 542  926.3456
 543  803.0972
 544  689.5916
 545  653.7137
 546  709.7036
 547  648.6255
 548  642.3585
 549  689.0567
 550  733.7053
 551  767.0456
 552  728.8686
 553  690.035
 554  600.006
 555  569.7346
 556  641.3365
 557  670.2485
 558  650.7119
 559  704.7693
 560  656.618
 561  615.6022
 562  507.9308
 563  606.7535
 564  700.9257
 565  783.6355
 566  767.9405
 567  765.6462
 568  653.5967
 569  553.798
 570  419.3242
 571  434.3613
 572  590.0439
 573  744.6057
 574  795.089
 575  701.8094
 576  669.4674
 577  760.1127
 578  746.7619
 579  690.7158
 580  663.3528
 581  693.7146
 582  709.5031
 583  663.0125
 584  617.3427
 585  608.0684
 586  622.7598
 587  552.0299
 588  523.6255
 589  558.8983
 590  663.0347
 591  735.7513
 592  822.1578
 593  831.405
 594  788.5897
 595  658.8171
 596  661.2596
 597  692.8704
 598  732.7835
 599  709.1457
 600  676.3156
 601  613.5392
 602  614.7549
 603  725.8966
 604  779.282
 605  787.1446
 606  810.0146
 607  805.9852
 608  751.8362
 609  696.7156
 610  767.0265
 611  833.1463
 612  829.5448
 613  910.2403
 614  873.0024
 615  856.8019
 616  709.3429
 617  675.7138
 618  693.8441
 619  757.0035
 620  806.2453
 621  796.1378
 622  768.8809
 623  670.1908
 624  633.9155
 625  656.2055
 626  749.4987
 627  866.5961
 628  940.624
 629  925.6204
 630  911.1518
 631  878.7874
 632  832.4438
 633  797.5627
 634  760.6284
 635  811.6514
 636  757.4114
 637  652.2789
 638  568.1323
 639  669.0629
 640  734.7677
 641  826.495
 642  815.0174
 643  766.9111
 644  792.0411
 645  692.0348
 646  646.0193
 647  602.0911
 648  663.1737
 649  763.1906
 650  897.3239
 651  928.3875
 652  838.4442
 653  756.3307
 654  778.1546
 655  783.7833
 656  684.0858
 657  640.4579
 658  759.1823
 659  814.2492
 660  767.7706
 661  634.1662
 662  719.8881
 663  781.7508
 664  863.014
 665  919.7678
 666  1018.855
 667  1038.846
 668  978.4258
 669  979.3511
 670  922.7777
 671  961.8012
 672  798.8279
 673  741.9445
 674  662.2455
 675  753.6143
 676  769.5826
 677  731.3806
 678  644.9303
 679  680.9003
 680  652.3084
 681  653.0558
 682  629.9542
 683  676.5983
 684  681.7701
 685  719.0864
 686  711.5098
 687  732.5121
 688  766.4763
 689  823.114
 690  803.5243
 691  666.3317
 692  670.9281
 693  728.8495
 694  821.9256
 695  718.3846
 696  701.149
 697  789.5472
 698  846.3429
 699  856.7085
 700  832.3301
 701  713.694
 702  643.7424
 703  596.1104
 704  630.9349
 705  608.7347
 706  664.957
 707  678.8469
 708  615.6613
 709  707.5295
 710  779.1287
 711  782.3438
 712  617.3651
 713  623.7054
 714  729.0945
 715  757.4104
 716  678.6061
 717  603.3059
 718  661.8466
 719  805.1058
 720  856.9282
 721  865.7842
 722  818.3451
 723  902.2034
 724  880.4894
 725  890.3251
 726  832.2239
 727  776.511
 728  779.4307
 729  769.5014
 730  751.8181
 731  673.9429
 732  598.1522
 733  527.325
 734  550.9971
 735  619.0009
 736  650.8215
 737  572.6213
 738  676.0828
 739  796.926
 740  867.2366
 741  821.1455
 742  832.6235
 743  891.2131
 744  903.9932
 745  945.5927
 746  960.6207
 747  787.263
 748  788.257
 749  813.668
 750  984.1703
 751  989.1551
 752  1058.505
 753  1087.53
 754  1219.868
 755  1284.765
 756  1353.51
 757  1334.068
 758  1320.732
 759  1375.184
 760  1378.483
 761  1306.256
 762  1234.464
 763  1059.561
 764  913.9726
 765  848.5295
 766  857.0342
 767  764.4608
 768  727.981
 769  702.9194
 770  719.1431
 771  780.8193
 772  778.0521
 773  774.9506
 774  668.6359
 775  716.2037
 776  685.6887
 777  657.0043
 778  648.2895
 779  706.8292
 780  716.7693
 781  686.8415
 782  699.1882
 783  771.0192
 784  824.9962
 785  830.7966
 786  836.9073
 787  906.4387
 788  798.8015
 789  584.6412
 790  507.9236
 791  585.0375
 792  689.5317
 793  696.5051
 794  657.057
 795  742.7609
 796  646.8895
 797  714.6167
 798  641.6818
 799  678.3301
 800  664.8654
 801  622.8237
 802  591.4926
 803  612.3137
 804  681.2479
 805  663.1932
 806  658.9961
 807  723.5513
 808  727.6905
 809  743.7097
 810  676.2323
 811  702.676
 812  723.7667
 813  695.6481
 814  691.5311
 815  729.0009
 816  786.8881
 817  814.1971
 818  737.9509
 819  603.3265
 820  489.234
 821  554.261
 822  577.4382
 823  571.8201
 824  599.2804
 825  581.0182
 826  534.7532
 827  419.8919
 828  502.7061
 829  576.0161
 830  643.7123
 831  633.1107
 832  645.7516
 833  710.1078
 834  728.146
 835  672.3222
 836  641.9294
 837  672.0068
 838  793.9944
 839  767.254
 840  737.1213
 841  598.764
 842  620.1068
 843  729.624
 844  861.5838
 845  944.2771
 846  903.8066
 847  859.8422
 848  763.3624
 849  747.1882
 850  820.3436
 851  877.5754
 852  841.0195
 853  809.0316
 854  778.6335
 855  787.3302
 856  847.7197
 857  879.1746
 858  927.4006
 859  832.6385
 860  844.6865
 861  750.3616
 862  775.5042
 863  779.1702
 864  789.1124
 865  718.433
 866  587.3047
 867  559.1144
 868  626.4753
 869  728.9332
 870  720.3725
 871  678.8375
 872  622.8385
 873  553.8559
 874  478.2043
 875  433.0733
 876  467.5185
 877  553.3671
 878  659.55
 879  732.8785
 880  875.8359
 881  1011.369
 882  991.6129
 883  884.7195
 884  749.9072
 885  663.8111
 886  593.292
 887  579.7776
 888  697.8581
 889  597.9664
 890  523.4504
 891  490.0016
 892  565.7288
 893  668.0262
 894  664.0668
 895  652.9685
 896  572.315
 897  580.0638
 898  603.8432
 899  657.1602
 900  635.4841
 901  621.3723
 902  575.6918
 903  492.472
 904  432.8366
 905  447.1841
 906  492.89
 907  681.8502
 908  681.7379
 909  682.1747
 910  550.9799
 911  577.9257
 912  604.6665
 913  621.4801
 914  469.4474
 915  458.2584
 916  572.9716
 917  740.5836
 918  744.9084
 919  615.6476
 920  585.1093
 921  613.4691
 922  692.4561
 923  703.9573
 924  723.7993
 925  691.2755
 926  714.1807
 927  715.3839
 928  752.6026
 929  798.4131
 930  825.3788
 931  673.5256
 932  551.2109
 933  535.5107
 934  615.9906
 935  743.1895
 936  755.9943
 937  722.7249
 938  655.321
 939  659.5053
 940  627.5005
 941  610.3021
 942  625.0592
 943  776.1739
 944  759.7025
 945  737.2807
 946  672.3284
 947  688.257
 948  693.7523
 949  706.4506
 950  762.9512
 951  741.639
 952  719.2919
 953  606.0067
 954  589.0129
 955  513.0253
 956  526.1475
 957  567.5019
 958  616.0189
 959  683.5969
 960  703.5064
 961  656.7742
 962  569.1953
 963  620.2308
 964  747.5016
 965  865.7026
 966  778.8979
 967  722.4944
 968  641.248
 969  772.3098
 970  835.9274
 971  891.0914
 972  739.1581
 973  705.445
 974  650.3317
 975  682.5073
 976  731.7711
 977  724.0167
 978  794.1503
 979  807.2623
 980  819.2876
 981  753.3958
 982  745.4296
 983  719.3655
 984  648.1137
 985  575.4502
 986  515.4744
 987  524.4465
 988  647.6182
 989  719.1229
 990  707.2755
 991  658.9724
 992  651.7169
 993  605.2493
 994  634.4675
 995  667.3621
 996  616.7644
 997  608.1912
 998  586.7841
 999  569.9393
1000  590.7243
1001  633.2587
1002  662.1185
1003  586.8408
1004  550.9025
1005  596.1422
1006  640.4445
1007  542.3997
1008  441.1234
1009  402.2449
1010  519.3521
1011  576.1185
1012  550.3571
1013  439.5878
1014  450.9652
1015  507.0058
1016  631.8766
1017  619.8578
1018  655.1032
1019  699.6636
1020  774.6373
1021  819.5498
1022  737.3254
1023  699.0234
