# Input file       =  1178599101.100686_cleaned.dat
# Candidate        =  PSR_0332+5434
# Telescope        =  AR
# Epoch_topo       =  57885.193519683868
# Epoch_bary       =  N/A
# T_sample         =  0.002
# Data Folded      =  7405568
# Data Avg         =  0.147867975170328
# Data StdDev      =  4.10902127431716 
# Profile Bins     =  1024
# Profile Avg      =  1069.29400304027 
# Profile StdDev   =  349.435962348961 
# Reduced chi-sqr  =  1.555
# Prob(Noise)      <  1.76e-27   (~10.8 sigma)
# P_topo (ms)      =  714.535955030199  +/- 2.73e-05
# P'_topo (s/s)    =  -0                +/- 1.43e-11
# P''_topo (s/s^2) =  0                 +/- 6.25e-15
# P_bary (ms)      =  N/A
# P'_bary (s/s)    =  N/A
# P''_bary (s/s^2) =  N/A
# P_orb (s)        =  N/A
# asin(i)/c (s)    =  N/A
# eccentricity     =  N/A
# w (rad)          =  N/A
# T_peri           =  N/A
######################################################
   0  829.1086
   1  733.3779
   2  685.5166
   3  657.1989
   4  612.8853
   5  800.1245
   6  904.0131
   7  993.342
   8  820.8392
   9  839.9841
  10  813.8538
  11  960.6386
  12  1119.273
  13  1178.993
  14  1282.222
  15  1235.302
  16  1193.454
  17  1055.952
  18  937.556
  19  844.0552
  20  740.5715
  21  582.2575
  22  516.6259
  23  484.636
  24  650.1086
  25  692.8599
  26  757.319
  27  855.5051
  28  811.655
  29  831.1986
  30  831.3543
  31  922.1238
  32  1056.572
  33  856.2841
  34  731.3937
  35  495.9388
  36  389.0259
  37  509.1284
  38  656.9312
  39  765.0115
  40  714.7469
  41  836.2748
  42  1046.968
  43  1117.695
  44  1246.475
  45  1354.546
  46  1358.862
  47  1005.537
  48  834.059
  49  906.7823
  50  965.2456
  51  781.0835
  52  750.527
  53  701.4741
  54  719.6279
  55  581.313
  56  560.814
  57  614.9489
  58  531.027
  59  739.9254
  60  848.2725
  61  974.0953
  62  930.9748
  63  993.9451
  64  965.254
  65  850.8824
  66  771.6786
  67  699.1552
  68  512.0173
  69  509.4977
  70  479.4396
  71  459.4181
  72  344.5321
  73  511.8888
  74  808.9375
  75  927.5353
  76  986.6591
  77  1165.208
  78  1244.795
  79  1224.495
  80  1099.71
  81  1190.687
  82  1175.924
  83  1095.258
  84  1028.584
  85  827.695
  86  531.8788
  87  312.2934
  88  409.1833
  89  523.9946
  90  470.6261
  91  440.7904
  92  604.6635
  93  539.8417
  94  531.7444
  95  561.7555
  96  864.9527
  97  898.1986
  98  843.9457
  99  862.9642
 100  881.2047
 101  808.5242
 102  705.9072
 103  722.5099
 104  619.9113
 105  528.6497
 106  573.7426
 107  693.8068
 108  727.6261
 109  909.4729
 110  1013.827
 111  1152.176
 112  1074.807
 113  1143.236
 114  1165.898
 115  1134.349
 116  1218.306
 117  1183.993
 118  1061.74
 119  887.5163
 120  820.8915
 121  965.2808
 122  827.6422
 123  981.5307
 124  1063.457
 125  1096.642
 126  907.1492
 127  835.7589
 128  1001.125
 129  1080.958
 130  1162.627
 131  1259.627
 132  1263.444
 133  1199.376
 134  1055.078
 135  971.6521
 136  939.7683
 137  903.2194
 138  1088.184
 139  1137.168
 140  1014.638
 141  1003.059
 142  1114.763
 143  1215.31
 144  1158.966
 145  1244.099
 146  1418.939
 147  1290.929
 148  1167.96
 149  1116.805
 150  1123.129
 151  1032.898
 152  876.2749
 153  956.799
 154  938.4771
 155  905.5744
 156  784.3903
 157  822.5261
 158  793.186
 159  803.0798
 160  920.1313
 161  1094.273
 162  966.9329
 163  956.0383
 164  1001.293
 165  1084.975
 166  846.1019
 167  770.769
 168  726.0655
 169  614.856
 170  597.8313
 171  655.7075
 172  734.5704
 173  815.5016
 174  928.5699
 175  1214.951
 176  1169.063
 177  1169.077
 178  1226.954
 179  1354.103
 180  1257.365
 181  1202.58
 182  1198.192
 183  1137.717
 184  863.6511
 185  867.0785
 186  913.2905
 187  930.667
 188  854.6444
 189  748.6615
 190  812.3929
 191  783.8925
 192  851.4712
 193  1019.104
 194  1080.786
 195  1228.061
 196  1205.125
 197  1093.433
 198  810.1418
 199  632.3745
 200  706.0739
 201  678.8015
 202  667.7026
 203  636.2143
 204  682.2484
 205  768.883
 206  854.4308
 207  1059.084
 208  1155.206
 209  1197.648
 210  1311.604
 211  1374.617
 212  1402.819
 213  1328.499
 214  1300.227
 215  1243.812
 216  1091.472
 217  994.5781
 218  936.8464
 219  986.3229
 220  984.306
 221  947.7477
 222  968.8104
 223  905.6882
 224  879.6129
 225  1055.163
 226  1123.914
 227  1104.894
 228  990.9083
 229  1008.912
 230  1000.528
 231  946.398
 232  962.1027
 233  1010.662
 234  957.4565
 235  1118.574
 236  1165.311
 237  1263.488
 238  1030.301
 239  995.7498
 240  1150.731
 241  1166.988
 242  1151.27
 243  1209.655
 244  1470.242
 245  1475.008
 246  1461.513
 247  1559.999
 248  1519.042
 249  1436.425
 250  1358.459
 251  1341.456
 252  1185.066
 253  821.2906
 254  732.2218
 255  744.1317
 256  739.5928
 257  838.1182
 258  1011.741
 259  1226.406
 260  1157.539
 261  1182.137
 262  1286.224
 263  1181.834
 264  1150.852
 265  1154.871
 266  1074.443
 267  935.1021
 268  755.5878
 269  745.7002
 270  624.898
 271  759.9177
 272  965.7239
 273  1101.192
 274  1017.721
 275  1158.883
 276  1303.308
 277  1340.897
 278  1290.886
 279  1382.218
 280  1388.864
 281  1114.901
 282  1134.5
 283  1086.662
 284  1055.108
 285  820.7063
 286  909.421
 287  1018.653
 288  829.191
 289  822.6195
 290  889.9708
 291  981.8392
 292  948.9814
 293  1074.82
 294  1252.232
 295  1114.59
 296  1033.34
 297  1229.006
 298  1363.147
 299  1204.439
 300  1093.81
 301  1074.731
 302  1096.162
 303  947.4689
 304  1035.997
 305  979.1427
 306  1040.718
 307  1113.93
 308  1236.882
 309  1278.98
 310  1166.066
 311  1239.965
 312  1362.968
 313  1343.841
 314  1382.706
 315  1339.035
 316  1367.59
 317  1172.822
 318  997.1165
 319  1014.392
 320  954.4703
 321  954.6547
 322  1000.869
 323  1135.715
 324  1110.105
 325  846.1693
 326  981.1746
 327  1070.674
 328  1110.706
 329  1048.064
 330  1053.688
 331  1018.098
 332  874.1974
 333  884.5085
 334  1008.309
 335  930.393
 336  912.7761
 337  998.9322
 338  1150.976
 339  1252.682
 340  1290.819
 341  1461.453
 342  1478.312
 343  1531.174
 344  1482.76
 345  1447.142
 346  1306.17
 347  1176.254
 348  1051.342
 349  970.5628
 350  877.7938
 351  942.77
 352  981.2691
 353  1038.036
 354  993.0623
 355  1097.826
 356  1061.688
 357  1030.421
 358  1030.404
 359  1172.789
 360  1176.952
 361  1216.47
 362  1100.446
 363  1204.597
 364  992.1275
 365  1003.538
 366  1018.711
 367  847.2641
 368  849.737
 369  905.0785
 370  1115.839
 371  1113.285
 372  1131.397
 373  1287.498
 374  1393.21
 375  1492.332
 376  1563.655
 377  1703.581
 378  1712.54
 379  1563.712
 380  1437.988
 381  1394.78
 382  1278.39
 383  1241.898
 384  1225.732
 385  1165.547
 386  1004.419
 387  784.9464
 388  842.3004
 389  820.7346
 390  948.1331
 391  1092.313
 392  1230.362
 393  1325.307
 394  1223.451
 395  1391.5
 396  1398.218
 397  1262.531
 398  1199.826
 399  1118.108
 400  981.7349
 401  878.4793
 402  859.2091
 403  970.2145
 404  1010.533
 405  1219.428
 406  1340.051
 407  1350.353
 408  1390.673
 409  1371.858
 410  1477.817
 411  1354.573
 412  1247.097
 413  1224.802
 414  1145.335
 415  975.4002
 416  886.9506
 417  967.2495
 418  960.5274
 419  737.5305
 420  851.2573
 421  976.5766
 422  917.6737
 423  901.6172
 424  867.9343
 425  1017.016
 426  965.7371
 427  1136.885
 428  1249.586
 429  996.0316
 430  972.1174
 431  923.6876
 432  914.7433
 433  740.1602
 434  685.8555
 435  828.2062
 436  661.2466
 437  600.8627
 438  790.9589
 439  990.5412
 440  1124.478
 441  1204.532
 442  1429.092
 443  1470.623
 444  1368.708
 445  1426.417
 446  1420.962
 447  1340.518
 448  1151.287
 449  1103.441
 450  1154.019
 451  955.5802
 452  798.7944
 453  747.4161
 454  700.4597
 455  752.5538
 456  767.2224
 457  930.9711
 458  919.4562
 459  1145.862
 460  1329.279
 461  1133.995
 462  954.3557
 463  947.8281
 464  1059.753
 465  886.6081
 466  712.5646
 467  706.5762
 468  562.421
 469  552.6013
 470  698.2415
 471  821.1902
 472  987.6451
 473  1117.288
 474  1302.653
 475  1269.68
 476  1174.92
 477  1189.33
 478  1285.858
 479  1175.617
 480  1142.068
 481  1047.653
 482  1183.611
 483  1044.591
 484  1009.85
 485  939.8696
 486  965.2255
 487  1086.03
 488  1105.337
 489  1101.045
 490  1001.689
 491  977.8165
 492  1081.333
 493  1127.006
 494  1092.335
 495  1041.551
 496  1194.69
 497  1129.875
 498  1087.573
 499  1090.015
 500  1133.85
 501  940.4044
 502  925.4987
 503  871.835
 504  962.6973
 505  1075.525
 506  1197.806
 507  1307.218
 508  1163.992
 509  1310.347
 510  1294.743
 511  1305.642
 512  1204.414
 513  1046.032
 514  1052.383
 515  968.5186
 516  977.1505
 517  898.2551
 518  924.9531
 519  927.9852
 520  953.7876
 521  972.6221
 522  899.0912
 523  826.5521
 524  988.3985
 525  1103.895
 526  1055.442
 527  925.137
 528  900.4802
 529  940.478
 530  864.4993
 531  856.6924
 532  1029.195
 533  1029.906
 534  981.9506
 535  873.3391
 536  949.2318
 537  1088.257
 538  1158.791
 539  1233.709
 540  1045.341
 541  1096.235
 542  1165.565
 543  1275.318
 544  1241.73
 545  1102.586
 546  1194.012
 547  1185.896
 548  1110.375
 549  1025.305
 550  1002.364
 551  951.7003
 552  767.4529
 553  812.8815
 554  889.9956
 555  791.9903
 556  862.4382
 557  1006.313
 558  1253.379
 559  1246.073
 560  1088.604
 561  1139.458
 562  1096.585
 563  1043.524
 564  963.4641
 565  898.9505
 566  983.3283
 567  950.5268
 568  1029.159
 569  1072.501
 570  891.3823
 571  1014.287
 572  1103.283
 573  1336.465
 574  1437.342
 575  1523.651
 576  1537.316
 577  1320.636
 578  1203.082
 579  1137.766
 580  1022.717
 581  949.0597
 582  834.504
 583  853.3914
 584  712.1017
 585  578.4018
 586  613.7719
 587  533.515
 588  541.863
 589  669.5154
 590  872.9232
 591  1021.123
 592  998.8207
 593  1195.437
 594  1260.037
 595  1107.92
 596  1028.033
 597  981.2369
 598  900.0277
 599  745.3234
 600  736.5575
 601  834.2051
 602  802.6719
 603  794.9669
 604  828.6016
 605  964.0178
 606  1095.579
 607  1253.934
 608  1482.528
 609  1424.663
 610  1308.448
 611  1410.095
 612  1429.845
 613  1322.561
 614  1039.412
 615  1038.37
 616  1004.407
 617  760.8676
 618  804.9744
 619  812.4705
 620  905.8476
 621  1028.603
 622  1287.729
 623  1393.508
 624  1203.403
 625  1292.599
 626  1424.536
 627  1507.834
 628  1351.302
 629  1353
 630  1178.595
 631  1114.701
 632  1057.292
 633  1185.823
 634  1157.703
 635  1167.873
 636  1266.854
 637  1290.377
 638  1309.248
 639  1432.083
 640  1726.587
 641  1760.688
 642  1716.413
 643  1648.416
 644  1621.278
 645  1455.125
 646  1385.268
 647  1204.056
 648  1345.343
 649  1144.545
 650  1231.303
 651  1225.69
 652  1195.351
 653  1153.127
 654  1048.935
 655  1316.465
 656  1260.006
 657  1373.204
 658  1377.083
 659  1304.094
 660  1283.382
 661  1252.644
 662  1252.252
 663  1122.618
 664  1155.335
 665  1341.896
 666  1378.107
 667  1226.45
 668  1148.113
 669  1226.357
 670  1297.808
 671  1342.668
 672  1609.974
 673  1638.56
 674  1615.346
 675  1695.069
 676  1868.669
 677  1801.255
 678  1479.732
 679  1304.759
 680  1217.676
 681  1082.948
 682  975.666
 683  1041.005
 684  1126.411
 685  1088.179
 686  984.4289
 687  1120.312
 688  1136.813
 689  1152.612
 690  1181.066
 691  1209.354
 692  1231.662
 693  1122.996
 694  1171.286
 695  1175.632
 696  1037.011
 697  955.3632
 698  1026.617
 699  1114.098
 700  1300.877
 701  1362.812
 702  1475.849
 703  1402.052
 704  1420.836
 705  1512.63
 706  1512.736
 707  1528.874
 708  1473.123
 709  1382.048
 710  1273.117
 711  1194.809
 712  1309.428
 713  1240.168
 714  1194.977
 715  1200.507
 716  1265.154
 717  1246.721
 718  1094.035
 719  1187.436
 720  1313.246
 721  1242.306
 722  1206.381
 723  1203.155
 724  1272.959
 725  1135.48
 726  1111.254
 727  1100.709
 728  1033.55
 729  962.1505
 730  870.6314
 731  821.3993
 732  768.2917
 733  834.0103
 734  937.4894
 735  982.7779
 736  1009.999
 737  1324.614
 738  1509.713
 739  1594.513
 740  1468.556
 741  1601.912
 742  1612.266
 743  1405.092
 744  1438.146
 745  1429.75
 746  1288.956
 747  1105.292
 748  995.6107
 749  1064.358
 750  956.7927
 751  1016.482
 752  1281.789
 753  1359.903
 754  1352.921
 755  1430.621
 756  1600.139
 757  1759.474
 758  1670.701
 759  1927.157
 760  1877.337
 761  1758.957
 762  1483.839
 763  1259.503
 764  1227.015
 765  1046.77
 766  985.2322
 767  950.5881
 768  927.9207
 769  1060.802
 770  1142.406
 771  1223.537
 772  1328.328
 773  1411.673
 774  1612.482
 775  1362.862
 776  1095.124
 777  1003.697
 778  1001.093
 779  1031.692
 780  921.5358
 781  1049.224
 782  1044.432
 783  1012.878
 784  1033.337
 785  1076.012
 786  1011.96
 787  890.2403
 788  985.2474
 789  1175.207
 790  1213.896
 791  1291.148
 792  1256.34
 793  1186.625
 794  1139.83
 795  1124.134
 796  1126.975
 797  993.5188
 798  841.4879
 799  851.7035
 800  827.21
 801  965.6589
 802  1123.949
 803  1178.859
 804  1274.502
 805  1351.489
 806  1582.479
 807  1565.318
 808  1436.442
 809  1343.229
 810  1262.186
 811  1161.176
 812  976.7599
 813  1012.929
 814  999.1265
 815  898.3912
 816  941.9361
 817  1084.631
 818  1040.292
 819  967.8752
 820  990.7445
 821  1171.818
 822  1125.337
 823  1095.665
 824  1188.933
 825  1127.113
 826  961.6636
 827  854.183
 828  989.436
 829  993.1413
 830  978.4515
 831  1167.786
 832  1315.277
 833  1342.987
 834  1267.322
 835  1332.614
 836  1191.541
 837  1137.984
 838  1263.732
 839  1407.739
 840  1257.219
 841  1099.074
 842  1073.269
 843  1092.879
 844  948.4119
 845  1018.623
 846  1019.405
 847  963.2452
 848  906.3895
 849  992.3834
 850  1003.531
 851  861.8104
 852  765.9407
 853  1060.2
 854  1054.556
 855  1123.864
 856  1133.26
 857  1189.32
 858  1167.32
 859  1032.422
 860  1104.035
 861  989.9886
 862  916.724
 863  1098.518
 864  1181.599
 865  1120.172
 866  972.7766
 867  1112.064
 868  1320.271
 869  1299.302
 870  1373.925
 871  1518.779
 872  1629.637
 873  1545.306
 874  1470.728
 875  1509.66
 876  1294.42
 877  1102.989
 878  986.8969
 879  981.0383
 880  864.8098
 881  830.8138
 882  927.3652
 883  932.4889
 884  784.2624
 885  835.4554
 886  931.0757
 887  1047.367
 888  1146.443
 889  1157.076
 890  1130.174
 891  971.6895
 892  1034.175
 893  1049.759
 894  899.6282
 895  808.0108
 896  771.541
 897  849.8159
 898  842.8029
 899  852.3964
 900  1060.25
 901  1061.326
 902  1255.018
 903  1418.283
 904  1504.97
 905  1495.848
 906  1260.936
 907  1316.43
 908  1159.452
 909  1134.339
 910  1026.397
 911  969.2726
 912  865.3389
 913  882.0394
 914  856.3311
 915  929.01
 916  728.8474
 917  862.6805
 918  1055.804
 919  1174.141
 920  1166.845
 921  1184.116
 922  1309.838
 923  1135.568
 924  914.3403
 925  950.3536
 926  930.923
 927  755.433
 928  652.1409
 929  696.9266
 930  788.5818
 931  781.8387
 932  961.2875
 933  1044.754
 934  1128.733
 935  1278.9
 936  1370.283
 937  1413.389
 938  1326.781
 939  1333.946
 940  1387.206
 941  1285.724
 942  1263.229
 943  1102.287
 944  984.53
 945  807.3156
 946  759.6287
 947  862.1834
 948  849.3394
 949  865.7922
 950  959.6871
 951  964.0152
 952  1066.507
 953  1066.521
 954  1162.582
 955  1184.881
 956  1201.444
 957  1322.285
 958  1311.643
 959  1170.845
 960  1070.979
 961  944.8132
 962  947.2434
 963  810.6813
 964  855.4637
 965  845.4948
 966  683.1827
 967  719.7988
 968  875.4095
 969  1200.798
 970  1237.443
 971  1293.041
 972  1353.586
 973  1264.764
 974  1211.507
 975  1178.273
 976  1179.342
 977  1059.829
 978  827.9288
 979  931.3511
 980  967.2725
 981  994.0963
 982  1010.587
 983  1097.549
 984  1086.889
 985  1023.216
 986  1140.662
 987  1201.47
 988  1104.471
 989  1143.931
 990  1079.603
 991  986.9381
 992  923.9394
 993  973.5348
 994  1028.358
 995  941.1094
 996  982.8636
 997  1079.36
 998  967.4586
 999  1031.625
1000  1106.862
1001  1341.802
1002  1361.453
1003  1294.558
1004  1202.23
1005  1231.081
1006  1171.092
1007  1186.912
1008  1135.627
1009  1126.121
1010  1051.701
1011  1081.838
1012  1001.431
1013  832.1489
1014  847.5605
1015  946.684
1016  1020.3
1017  921.4084
1018  948.0499
1019  1033.663
1020  1037.774
1021  1070.016
1022  1033.058
1023  960.4353
