# Input file       =  1178872053.113042_cleaned.dat
# Candidate        =  PSR_0332+5434
# Telescope        =  AR
# Epoch_topo       =  57888.352686493541
# Epoch_bary       =  N/A
# T_sample         =  0.002
# Data Folded      =  7340032
# Data Avg         =  0.0536726598210017
# Data StdDev      =  2.30762017894956 
# Profile Bins     =  512
# Profile Avg      =  769.456554564823 
# Profile StdDev   =  276.298370829927 
# Reduced chi-sqr  =  1.588
# Prob(Noise)      <  4.85e-16   (~8.0 sigma)
# P_topo (ms)      =  714.532932365267  +/- 0.000198
# P'_topo (s/s)    =  -0                +/- 1.05e-10
# P''_topo (s/s^2) =  0                 +/- 4.62e-14
# P_bary (ms)      =  N/A
# P'_bary (s/s)    =  N/A
# P''_bary (s/s^2) =  N/A
# P_orb (s)        =  N/A
# asin(i)/c (s)    =  N/A
# eccentricity     =  N/A
# w (rad)          =  N/A
# T_peri           =  N/A
######################################################
   0  645.4377
   1  498.9035
   2  744.4909
   3  738.0923
   4  771.5462
   5  468.9241
   6  613.8274
   7  930.5161
   8  986.2316
   9  755.4778
  10  531.0394
  11  694.7217
  12  626.6379
  13  708.9164
  14  798.6586
  15  731.5107
  16  553.8313
  17  475.3686
  18  506.996
  19  305.2394
  20  213.0953
  21  676.06
  22  655.7409
  23  608.1427
  24  712.2528
  25  854.1551
  26  682.8482
  27  617.1786
  28  575.4892
  29  790.3522
  30  654.986
  31  675.3086
  32  637.7476
  33  640.537
  34  756.5977
  35  531.4366
  36  403.0083
  37  507.0079
  38  341.6455
  39  325.0241
  40  595.5814
  41  428.5154
  42  574.9536
  43  682.4246
  44  717.9343
  45  786.5019
  46  554.8184
  47  753.9888
  48  866.8303
  49  897.5612
  50  804.4976
  51  303.1997
  52  147.2931
  53  457.4183
  54  476.7797
  55  602.9019
  56  527.5187
  57  288.0193
  58  409.5385
  59  534.7689
  60  518.7468
  61  671.4085
  62  568.6169
  63  446.5385
  64  600.6591
  65  622.6078
  66  405.8971
  67  419.5586
  68  563.8522
  69  905.7467
  70  818.6505
  71  608.8411
  72  710.1506
  73  652.1355
  74  658.397
  75  623.2004
  76  818.2272
  77  807.3665
  78  703.0805
  79  855.5531
  80  1030.565
  81  873.7581
  82  727.3135
  83  805.2256
  84  867.3954
  85  806.4734
  86  778.0337
  87  755.4726
  88  909.7396
  89  586.147
  90  504.3946
  91  654.6874
  92  736.2283
  93  682.7276
  94  672.4354
  95  845.3963
  96  676.5864
  97  781.5966
  98  1124.05
  99  1029.266
 100  808.483
 101  663.1453
 102  683.4445
 103  995.1857
 104  984.8314
 105  783.3505
 106  683.8882
 107  818.5064
 108  891.1606
 109  712.1201
 110  409.2964
 111  365.2052
 112  396.6978
 113  476.6916
 114  812.7908
 115  823.9163
 116  940.7987
 117  485.1946
 118  395.6245
 119  665.8292
 120  708.9222
 121  1033.826
 122  956.4946
 123  929.9503
 124  612.8654
 125  530.887
 126  351.6699
 127  614.441
 128  843.8191
 129  813.5353
 130  653.5774
 131  823.8232
 132  913.9506
 133  705.7892
 134  753.7897
 135  625.3937
 136  602.0863
 137  664.0616
 138  797.244
 139  759.5976
 140  631.7775
 141  148.5895
 142  560.4233
 143  795.8762
 144  766.6674
 145  696.9691
 146  568.9266
 147  589.3502
 148  940.1108
 149  854.7666
 150  740.3129
 151  738.1484
 152  574.7912
 153  699.1997
 154  713.7571
 155  689.6089
 156  705.3024
 157  678.1773
 158  774.975
 159  582.7188
 160  525.8185
 161  613.5964
 162  839.115
 163  836.2087
 164  691.4781
 165  582.2541
 166  462.069
 167  409.2178
 168  285.0256
 169  343.56
 170  386.877
 171  796.2781
 172  759.6868
 173  416.1398
 174  499.8266
 175  356.5282
 176  217.8809
 177  294.6988
 178  685.7693
 179  676.9604
 180  513.8503
 181  556.2667
 182  702.8868
 183  614.6403
 184  680.5319
 185  538.9741
 186  520.2664
 187  352.207
 188  449.3827
 189  452.1536
 190  716.38
 191  857.7232
 192  467.2333
 193  593.2986
 194  842.7352
 195  459.3436
 196  780.5862
 197  617.6884
 198  427.9909
 199  482.9684
 200  605.0012
 201  769.7482
 202  708.9744
 203  718.1525
 204  457.6453
 205  540.3511
 206  404.3282
 207  345.0436
 208  307.716
 209  799.3567
 210  880.1583
 211  644.0721
 212  789.5059
 213  875.8601
 214  805.1976
 215  740.4169
 216  736.7457
 217  850.2715
 218  908.7493
 219  809.1383
 220  1116.663
 221  972.638
 222  502.2458
 223  451.3197
 224  579.0222
 225  794.0823
 226  569.8594
 227  655.9996
 228  904.821
 229  620.8794
 230  810.9089
 231  818.3223
 232  688.9146
 233  561.1479
 234  766.0544
 235  694.124
 236  892.363
 237  964.0159
 238  831.9059
 239  783.0614
 240  643.0648
 241  875.6091
 242  1064.632
 243  1179.502
 244  942.3483
 245  737.197
 246  679.8126
 247  718.3382
 248  912.2358
 249  989.9025
 250  675.4421
 251  791.5198
 252  909.7657
 253  777.9257
 254  697.5682
 255  959.548
 256  749.3691
 257  636.1903
 258  726.4506
 259  920.8388
 260  1034.472
 261  725.5131
 262  482.0945
 263  620.3486
 264  905.8743
 265  763.1193
 266  525.3837
 267  778.5097
 268  818.3917
 269  1039.808
 270  1343.553
 271  1201.389
 272  1077.738
 273  1336.582
 274  1075.182
 275  1109.042
 276  880.621
 277  956.4699
 278  864.6193
 279  1062.729
 280  746.1653
 281  639.1708
 282  691.7437
 283  1097.24
 284  1081.256
 285  1088.203
 286  963.765
 287  877.2158
 288  932.4039
 289  717.272
 290  785.0869
 291  851.6611
 292  745.9692
 293  867.7037
 294  1131.164
 295  1002.939
 296  809.5935
 297  790.0446
 298  874.0709
 299  831.8005
 300  702.9954
 301  726.4719
 302  1075.093
 303  805.9725
 304  985.1306
 305  798.4661
 306  799.692
 307  510.425
 308  533.3875
 309  811.5443
 310  675.7238
 311  714.9193
 312  958.735
 313  696.1128
 314  709.9918
 315  893.2266
 316  924.2647
 317  916.139
 318  945.9388
 319  1056.798
 320  922.2751
 321  1020.82
 322  1149.084
 323  1076.199
 324  1213.491
 325  1151.749
 326  1201.876
 327  1747.992
 328  2082.368
 329  2230.33
 330  2278.464
 331  2207.923
 332  1805.037
 333  1194.366
 334  1034.905
 335  1175.31
 336  1055.934
 337  749.2715
 338  826.4122
 339  1085.05
 340  1188.76
 341  1138.88
 342  831.1404
 343  875.1079
 344  1086.354
 345  1062.91
 346  954.7813
 347  643.5446
 348  920.9967
 349  898.8083
 350  747.5343
 351  847.0999
 352  723.7052
 353  781.5837
 354  882.3085
 355  983.564
 356  988.6422
 357  1157.15
 358  954.5137
 359  904.7661
 360  572.7091
 361  397.5734
 362  668.6008
 363  801.5426
 364  996.3992
 365  790.2965
 366  888.0723
 367  1066.214
 368  1006.637
 369  842.1729
 370  892.943
 371  616.5545
 372  575.4476
 373  723.8602
 374  632.4278
 375  668.6829
 376  490.4923
 377  604.3312
 378  749.025
 379  999.3479
 380  909.5727
 381  677.2963
 382  942.2458
 383  811.2481
 384  663.0556
 385  554.3885
 386  570.8514
 387  581.7628
 388  563.3739
 389  637.6991
 390  573.7361
 391  846.9223
 392  958.0982
 393  986.731
 394  1041.938
 395  1054.718
 396  1132.723
 397  1074.724
 398  785.3969
 399  952.6649
 400  1215.064
 401  844.5814
 402  529.4386
 403  348.9394
 404  535.1063
 405  838.3613
 406  949.4128
 407  829.9847
 408  752.6651
 409  707.3819
 410  738.5481
 411  834.675
 412  796.9542
 413  1039.494
 414  952.964
 415  1046.79
 416  1358.009
 417  1106.912
 418  882.9069
 419  997.2706
 420  781.5637
 421  674.7304
 422  908.2221
 423  1371.338
 424  1285.389
 425  914.0312
 426  810.2229
 427  698.2498
 428  819.8245
 429  930.775
 430  699.8013
 431  579.0255
 432  877.3618
 433  890.7211
 434  979.8232
 435  606.5941
 436  731.2612
 437  663.4387
 438  686.4398
 439  807.7948
 440  762.5249
 441  825.7047
 442  851.7654
 443  719.2679
 444  777.7995
 445  552.8861
 446  734.9472
 447  933.9153
 448  905.7589
 449  912.153
 450  605.9438
 451  659.8034
 452  900.9717
 453  731.1486
 454  650.9439
 455  652.0966
 456  635.1387
 457  902.3116
 458  1103.414
 459  736.252
 460  943.1414
 461  888.7401
 462  744.1816
 463  836.4826
 464  916.1342
 465  788.7831
 466  849.608
 467  646.1277
 468  801.889
 469  1047.551
 470  962.4344
 471  764.8179
 472  732.5447
 473  711.7048
 474  679.9177
 475  622.771
 476  915.333
 477  1002.903
 478  503.4067
 479  575.7906
 480  1060.865
 481  1078.664
 482  1327.134
 483  1153.839
 484  728.6406
 485  798.9906
 486  651.2261
 487  754.1259
 488  667.4539
 489  386.7374
 490  342.1354
 491  594.1176
 492  556.2158
 493  573.6274
 494  340.8813
 495  790.8882
 496  696.9041
 497  569.0269
 498  748.8271
 499  955.6812
 500  981.3284
 501  936.8583
 502  795.3691
 503  857.8558
 504  1045.302
 505  750.6879
 506  821.5173
 507  673.5308
 508  711.7587
 509  519.9096
 510  641.431
 511  795.4979
