# Input file       =  1178785873.103783_cleaned.dat
# Candidate        =  PSR_0332+5434
# Telescope        =  AR
# Epoch_topo       =  57887.355232682676
# Epoch_bary       =  N/A
# T_sample         =  0.002
# Data Folded      =  7340032
# Data Avg         =  0.0875739535185858
# Data StdDev      =  2.72293613058353 
# Profile Bins     =  512
# Profile Avg      =  1255.72619512473 
# Profile StdDev   =  326.025410774769 
# Reduced chi-sqr  =  1.096
# Prob(Noise)      <  0.0652   (~1.5 sigma)
# P_topo (ms)      =  714.53389433915   +/- 0.000247
# P'_topo (s/s)    =  -0                +/- 1.3e-10
# P''_topo (s/s^2) =  0                 +/- 5.74e-14
# P_bary (ms)      =  N/A
# P'_bary (s/s)    =  N/A
# P''_bary (s/s^2) =  N/A
# P_orb (s)        =  N/A
# asin(i)/c (s)    =  N/A
# eccentricity     =  N/A
# w (rad)          =  N/A
# T_peri           =  N/A
######################################################
   0  1027.402
   1  943.4934
   2  912.8782
   3  897.644
   4  1026.868
   5  1061.712
   6  1129.206
   7  772.0115
   8  813.7983
   9  1131.353
  10  1249.604
  11  888.574
  12  993.7629
  13  1237.337
  14  1403.994
  15  1537.908
  16  1181.38
  17  1005.043
  18  976.0466
  19  1161.651
  20  1096.276
  21  1248.634
  22  1240.108
  23  1292.322
  24  1578.182
  25  1522.396
  26  1709.691
  27  1272.095
  28  1243.112
  29  1500.448
  30  1307.313
  31  1422.519
  32  1472.573
  33  1453.33
  34  1198.688
  35  1256.466
  36  1091.896
  37  1173.661
  38  1299.869
  39  1347.41
  40  1233.858
  41  1168.907
  42  1216.32
  43  1081.933
  44  1076.593
  45  1012.477
  46  1248.125
  47  1210.94
  48  991.0648
  49  980.9934
  50  672.0895
  51  709.4897
  52  991.5718
  53  1225.044
  54  1135.964
  55  1057.989
  56  1317.057
  57  849.7314
  58  949.7017
  59  827.5812
  60  985.6163
  61  1144.239
  62  1242.908
  63  1272.656
  64  1199.327
  65  1325.085
  66  892.9089
  67  884.7969
  68  1150.983
  69  1134.893
  70  975.8629
  71  1046.846
  72  1423.798
  73  1347.405
  74  1241.875
  75  1212.962
  76  1338.338
  77  1431.844
  78  1467.371
  79  1427.052
  80  1405.013
  81  1560.379
  82  1432.397
  83  1222.5
  84  1255.922
  85  1019.911
  86  1155.999
  87  1067.976
  88  1162.711
  89  1484.574
  90  1078.976
  91  1001.068
  92  983.0539
  93  1127.251
  94  1265.434
  95  1223.038
  96  1457.559
  97  1525.329
  98  1241.494
  99  779.7437
 100  865.2267
 101  1411.164
 102  1404.902
 103  1328.801
 104  1018.461
 105  1132.609
 106  1265.66
 107  1006.16
 108  1158.382
 109  1366.202
 110  1387.79
 111  1170.731
 112  1118.309
 113  1262.868
 114  1097.563
 115  1375.546
 116  1512.728
 117  1266.415
 118  1303.371
 119  1338.521
 120  1162.303
 121  1120.983
 122  1440.822
 123  1613.397
 124  1530.017
 125  1188.799
 126  1202.036
 127  1257.581
 128  1504.986
 129  1739.154
 130  1792.066
 131  1197.156
 132  1074.267
 133  1218.407
 134  1330.91
 135  1229.558
 136  1174.682
 137  1383.001
 138  1483.157
 139  1104.238
 140  1169.584
 141  1460.41
 142  1238.46
 143  980.4262
 144  1324.285
 145  1430.659
 146  1131.394
 147  560.4619
 148  901.5214
 149  1198.473
 150  1219.511
 151  1155.393
 152  936.8625
 153  1019.344
 154  1125.667
 155  1489.418
 156  1307.934
 157  1256.182
 158  1063.471
 159  1355.265
 160  1402.665
 161  1167.815
 162  1082.751
 163  1241.755
 164  1155.047
 165  1015.366
 166  1005.771
 167  972.2028
 168  984.2936
 169  599.1564
 170  749.5295
 171  1018.174
 172  792.1105
 173  803.3835
 174  969.9965
 175  727.1233
 176  765.9415
 177  1146.187
 178  1132.997
 179  1197.192
 180  953.1346
 181  979.9301
 182  1218.872
 183  1145.756
 184  1268.316
 185  1289.124
 186  1140.519
 187  954.0698
 188  956.0595
 189  1057.422
 190  1230.528
 191  1211.783
 192  1538.571
 193  1582.515
 194  1519.613
 195  1700.987
 196  1592.302
 197  1445.179
 198  1304.593
 199  1030.105
 200  966.9661
 201  996.7683
 202  1129.905
 203  1144.501
 204  1003.263
 205  1186.505
 206  1349.868
 207  1425.481
 208  1143.757
 209  1183.252
 210  1287.396
 211  1488.742
 212  1364.381
 213  1370.367
 214  1114.055
 215  1161.864
 216  1415.162
 217  1508.922
 218  1398.125
 219  1372.125
 220  1245.716
 221  1317.178
 222  1404.704
 223  1453.021
 224  1187.337
 225  1334.405
 226  1419.583
 227  1427.182
 228  1537.626
 229  1453.575
 230  1395.956
 231  1240.922
 232  1330.412
 233  1203.183
 234  1130.75
 235  1132.729
 236  1237.959
 237  1166.201
 238  1276.195
 239  1447.116
 240  1603.82
 241  1586.491
 242  1399.159
 243  1571.495
 244  1615.667
 245  1597.198
 246  1294.124
 247  1197.03
 248  1390.705
 249  1316.825
 250  1454.23
 251  1218.658
 252  1276.884
 253  1451.871
 254  1218.275
 255  1536.428
 256  1432.985
 257  1262.515
 258  1437.766
 259  1337.74
 260  1252.233
 261  1120.349
 262  1262.625
 263  1258.846
 264  1030.095
 265  1037.224
 266  1136.134
 267  1061.88
 268  1228.672
 269  1198.375
 270  1481.411
 271  1597.886
 272  1449.445
 273  1331.504
 274  1189.764
 275  1452.685
 276  1445.641
 277  1410.083
 278  1248.928
 279  1285.809
 280  1492.432
 281  1561.218
 282  1498.927
 283  1275.497
 284  1409.362
 285  1209.363
 286  1183.131
 287  1192.651
 288  1394.631
 289  1484.425
 290  1550.962
 291  1523.306
 292  1370.741
 293  1424.899
 294  1371.921
 295  1468.418
 296  1346.763
 297  1165.458
 298  971.8687
 299  964.8766
 300  1102.034
 301  977.7389
 302  876.9851
 303  1289
 304  1375.742
 305  1056.829
 306  1386.449
 307  1727.054
 308  1575.247
 309  1427.435
 310  1139.609
 311  1562.446
 312  1454.598
 313  1423.6
 314  1537.759
 315  1383.314
 316  1636.121
 317  1564.478
 318  1479.687
 319  1088.47
 320  1153.226
 321  1664.222
 322  1752.405
 323  1651.951
 324  1459.169
 325  1526.491
 326  1878.242
 327  2099.21
 328  2565.467
 329  3028.222
 330  2799.561
 331  2352.453
 332  1880.574
 333  1545.913
 334  1380.034
 335  1160.794
 336  1305.911
 337  1342.785
 338  1212.008
 339  1164.394
 340  1215.813
 341  1526.028
 342  1252.519
 343  1057.7
 344  1090.675
 345  1119.966
 346  1655.653
 347  1442.199
 348  1406.36
 349  1134.665
 350  1017.951
 351  826.0494
 352  815.8939
 353  936.3975
 354  946.2215
 355  964.8017
 356  1143.917
 357  1471.888
 358  1226.412
 359  729.0695
 360  1003.808
 361  991.7814
 362  1042.444
 363  960.6548
 364  1088.471
 365  1042.75
 366  982.3187
 367  1218.308
 368  993.5965
 369  981.0729
 370  945.4892
 371  1411.211
 372  1278.721
 373  1070.287
 374  1184.16
 375  1137.967
 376  877.5549
 377  1037.149
 378  1167.355
 379  1028.773
 380  1221.315
 381  1333.654
 382  1273.709
 383  1128.755
 384  1205.005
 385  1100.468
 386  1232.762
 387  1006.955
 388  980.4229
 389  1147.659
 390  1365.812
 391  1326.834
 392  1136.091
 393  1126.003
 394  1271.535
 395  1376.971
 396  1390.615
 397  1204.404
 398  948.3303
 399  1024.561
 400  1093.742
 401  1122.931
 402  1225.031
 403  1356.236
 404  1171.199
 405  1068.176
 406  1282.272
 407  1485.439
 408  1294.789
 409  902.7816
 410  1301.779
 411  1337.714
 412  1322.373
 413  1428.28
 414  1446.218
 415  1193.205
 416  1011.428
 417  1281.897
 418  1352.112
 419  1402.954
 420  1534.514
 421  1348.811
 422  1080.554
 423  1362.932
 424  1261.254
 425  1441.04
 426  1122.74
 427  1056.028
 428  1395.12
 429  1448.408
 430  1384.102
 431  1436.331
 432  1443.809
 433  1408.179
 434  1064.339
 435  1260.853
 436  1516.486
 437  1507.054
 438  1292.112
 439  1330.78
 440  1320.783
 441  1317.573
 442  1228.868
 443  1174.235
 444  1413.643
 445  1453.949
 446  1289.294
 447  1402.664
 448  1483.943
 449  1272.633
 450  1254.172
 451  1301.588
 452  1434.866
 453  1408.328
 454  1336.594
 455  1285.897
 456  1382.522
 457  1201.58
 458  1249.413
 459  1183.543
 460  979.533
 461  1287.355
 462  1518.625
 463  1399.251
 464  1490.262
 465  1528.345
 466  1411.01
 467  1284.313
 468  1273.768
 469  1470.249
 470  1250.489
 471  1037.884
 472  1059.403
 473  1134.326
 474  1096.246
 475  1211.397
 476  1129.556
 477  1212.042
 478  1525.171
 479  1367.529
 480  943.8461
 481  1159.725
 482  1331.002
 483  1191.255
 484  1232.33
 485  1674.426
 486  1504.953
 487  1549.174
 488  1354.222
 489  1225.565
 490  1215.072
 491  1146.155
 492  1346.985
 493  1279.246
 494  1042.638
 495  1292.707
 496  1488.698
 497  1152.667
 498  1269.875
 499  1451.037
 500  1123.763
 501  1196.583
 502  1090.655
 503  1040.189
 504  1103.227
 505  1102.887
 506  893.9489
 507  873.5226
 508  1320.98
 509  1280.103
 510  1229.181
 511  1333.672
