# Input file       =  1178685143.103464_cleaned.dat
# Candidate        =  PSR_0332+5434
# Telescope        =  AR
# Epoch_topo       =  57886.189376197501
# Epoch_bary       =  N/A
# T_sample         =  0.002
# Data Folded      =  7143424
# Data Avg         =  0.0413966271910631
# Data StdDev      =  1.00006771665742 
# Profile Bins     =  512
# Profile Avg      =  577.518018927639 
# Profile StdDev   =  118.126583077588 
# Reduced chi-sqr  =  1.182
# Prob(Noise)      <  0.00279   (~2.8 sigma)
# P_topo (ms)      =  714.535002851996  +/- 0.000111
# P'_topo (s/s)    =  -0                +/- 6.02e-11
# P''_topo (s/s^2) =  0                 +/- 2.73e-14
# P_bary (ms)      =  N/A
# P'_bary (s/s)    =  N/A
# P''_bary (s/s^2) =  N/A
# P_orb (s)        =  N/A
# asin(i)/c (s)    =  N/A
# eccentricity     =  N/A
# w (rad)          =  N/A
# T_peri           =  N/A
######################################################
   0  533.2232
   1  619.451
   2  557.2839
   3  526.1919
   4  560.8471
   5  604.3492
   6  557.0575
   7  613.5507
   8  610.7802
   9  489.6822
  10  525.2771
  11  591.3536
  12  651.4952
  13  544.6427
  14  578.5604
  15  563.0767
  16  536.6055
  17  594.7129
  18  684.6761
  19  602.845
  20  585.5032
  21  651.2061
  22  596.304
  23  551.5279
  24  639.1301
  25  665.4108
  26  612.5985
  27  534.9852
  28  575.3683
  29  533.1048
  30  502.4077
  31  511.6035
  32  578.3635
  33  485.463
  34  516.0693
  35  646.5734
  36  649.6346
  37  669.3579
  38  493.358
  39  588.2814
  40  785.6841
  41  876.9545
  42  1008.168
  43  1110.52
  44  1170.509
  45  1027.433
  46  901.1879
  47  582.5099
  48  485.6633
  49  572.0139
  50  520.1262
  51  608.7251
  52  590.6331
  53  570.2249
  54  596.7102
  55  509.0608
  56  549.6913
  57  528.521
  58  526.3751
  59  643.144
  60  644.575
  61  529.4029
  62  559.102
  63  517.7332
  64  561.9315
  65  564.1587
  66  530.533
  67  563.7053
  68  576.7526
  69  589.5517
  70  604.6096
  71  645.7978
  72  505.8244
  73  424.4717
  74  351.4669
  75  547.0339
  76  390.4007
  77  448.308
  78  446.8694
  79  433.288
  80  397.8542
  81  505.3024
  82  446.9019
  83  419.197
  84  512.8896
  85  568.1926
  86  685.3921
  87  697.8508
  88  662.2378
  89  575.2119
  90  500.4069
  91  539.3445
  92  474.2422
  93  550.8203
  94  562.3636
  95  478.7216
  96  433.9581
  97  340.0703
  98  322.7355
  99  499.1308
 100  538.2197
 101  533.0556
 102  475.379
 103  499.5156
 104  551.8065
 105  392.1716
 106  479.4745
 107  618.6771
 108  617.2011
 109  517.6661
 110  500.7967
 111  554.1506
 112  520.3871
 113  584.0236
 114  533.2963
 115  553.0966
 116  540.7926
 117  503.989
 118  488.6933
 119  546.1078
 120  608.9774
 121  412.0691
 122  422.2852
 123  556.2507
 124  557.5655
 125  457.0159
 126  531.5
 127  540.1525
 128  578.8055
 129  580.1302
 130  520.9207
 131  540.7672
 132  562.0616
 133  593.8879
 134  639.1282
 135  550.6638
 136  463.907
 137  548.0637
 138  483.1617
 139  568.7225
 140  579.996
 141  514.8866
 142  568.5901
 143  482.562
 144  545.6012
 145  526.781
 146  523.7079
 147  589.2382
 148  622.7265
 149  604.0937
 150  549.7145
 151  583.9896
 152  635.2025
 153  624.9805
 154  569.2225
 155  516.5393
 156  489.2531
 157  429.1267
 158  530.437
 159  565.4857
 160  579.5762
 161  473.3992
 162  517.4474
 163  521.1019
 164  559.6104
 165  489.5524
 166  550.1506
 167  481.6525
 168  510.2331
 169  667.4633
 170  695.9747
 171  543.4295
 172  416.6329
 173  397.9051
 174  606.7383
 175  614.8126
 176  590.4565
 177  584.0791
 178  503.8709
 179  482.0557
 180  472.5718
 181  547.8801
 182  516.554
 183  488.2794
 184  581.4355
 185  577.4605
 186  588.2013
 187  557.156
 188  623.7704
 189  584.6431
 190  609.5029
 191  618.8546
 192  603.0826
 193  491.5573
 194  514.5996
 195  554.0633
 196  647.1015
 197  663.7985
 198  644.4733
 199  565.7875
 200  619.1613
 201  749.3972
 202  897.9801
 203  763.9097
 204  637.3851
 205  556.0981
 206  462.337
 207  575.2149
 208  616.7944
 209  645.2729
 210  718.8179
 211  696.5289
 212  641.29
 213  557.0042
 214  441.5139
 215  467.9002
 216  456.6601
 217  454.2865
 218  630.3701
 219  669.3677
 220  538.6677
 221  467.6747
 222  375.2141
 223  342.5818
 224  470.0625
 225  548.3536
 226  557.251
 227  457.5692
 228  495.75
 229  456.0992
 230  538.9102
 231  442.5825
 232  402.2854
 233  567.0991
 234  589.145
 235  452.2045
 236  484.0985
 237  424.1969
 238  380.326
 239  440.1317
 240  460.7157
 241  421.7938
 242  551.3353
 243  722.8098
 244  585.8614
 245  533.642
 246  533.1781
 247  514.9909
 248  514.2521
 249  724.7516
 250  691.6312
 251  649.0876
 252  558.091
 253  598.6918
 254  529.7449
 255  535.0536
 256  534.4857
 257  565.588
 258  582.3791
 259  633.4691
 260  573.0099
 261  585.3583
 262  608.7051
 263  615.9714
 264  578.512
 265  457.8373
 266  574.0231
 267  543.8407
 268  724.3803
 269  662.5681
 270  623.2398
 271  573.8967
 272  541.8247
 273  640.2195
 274  576.4005
 275  562.3541
 276  703.6381
 277  653.1104
 278  578.5177
 279  522.1672
 280  491.6909
 281  633.0676
 282  766.4351
 283  674.7563
 284  640.9374
 285  617.3341
 286  599.6525
 287  597.6752
 288  550.089
 289  528.5916
 290  661.8094
 291  682.5551
 292  685.2681
 293  731.4
 294  602.3345
 295  660.9692
 296  704.791
 297  665.1087
 298  691.1955
 299  640.789
 300  663.8851
 301  615.5385
 302  685.2864
 303  601.2357
 304  647.1243
 305  601.3015
 306  705.3497
 307  641.7351
 308  566.5742
 309  581.9102
 310  470.5451
 311  469.9107
 312  565.194
 313  624.2346
 314  561.2693
 315  508.2929
 316  680.1722
 317  619.5291
 318  643.8243
 319  599.4009
 320  595.745
 321  564.7777
 322  530.7537
 323  515.8361
 324  573.7515
 325  665.9096
 326  679.6581
 327  667.7431
 328  558.1451
 329  549.0325
 330  551.3233
 331  478.36
 332  500.0779
 333  511.2032
 334  509.2697
 335  629.4307
 336  593.2516
 337  558.4778
 338  553.4183
 339  547.4614
 340  580.2468
 341  497.6597
 342  488.0239
 343  533.8186
 344  538.684
 345  438.6486
 346  530.1086
 347  462.7961
 348  563.0311
 349  638.1362
 350  541.8458
 351  642.6988
 352  649.45
 353  602.6516
 354  508.432
 355  468.5976
 356  421.3179
 357  367.0875
 358  504.6393
 359  604.5925
 360  615.5518
 361  494.9657
 362  563.459
 363  574.163
 364  574.5251
 365  512.5081
 366  545.1121
 367  629.7571
 368  540.6664
 369  555.5415
 370  578.7338
 371  527.3006
 372  546.3077
 373  508.1991
 374  536.562
 375  498.5161
 376  518.4009
 377  536.7296
 378  639.9632
 379  615.9395
 380  677.5496
 381  634.6718
 382  644.046
 383  636.5251
 384  640.0968
 385  658.9441
 386  544.9785
 387  565.0795
 388  598.2004
 389  617.2211
 390  585.7369
 391  627.0103
 392  714.7941
 393  665.7489
 394  578.2674
 395  525.5115
 396  570.7399
 397  646.7234
 398  650.2088
 399  585.3317
 400  621.0175
 401  591.9112
 402  573.4956
 403  615.9979
 404  522.6277
 405  550.814
 406  662.0373
 407  743.2556
 408  776.6794
 409  763.2225
 410  693.7535
 411  588.7513
 412  657.6502
 413  627.1717
 414  577.8561
 415  586.9064
 416  675.1981
 417  677.9136
 418  679.6141
 419  617.408
 420  579.8987
 421  654.0508
 422  670.8058
 423  578.9146
 424  607.533
 425  637.4495
 426  618.7123
 427  668.9976
 428  729.967
 429  742.7372
 430  701.8176
 431  714.4237
 432  708.2238
 433  671.3789
 434  628.3705
 435  552.2729
 436  543.6682
 437  537.117
 438  575.5008
 439  679.4059
 440  637.3442
 441  659.3228
 442  603.6135
 443  706.8026
 444  659.2139
 445  611.283
 446  578.5208
 447  522.264
 448  521.7344
 449  591.801
 450  738.1217
 451  584.1535
 452  513.9847
 453  460.9494
 454  583.8909
 455  584.4603
 456  538.679
 457  629.9484
 458  644.4051
 459  688.6617
 460  635.5762
 461  568.5361
 462  562.95
 463  563.1735
 464  698.5917
 465  691.3448
 466  704.5544
 467  566.8236
 468  444.9594
 469  447.7994
 470  532.491
 471  594.7131
 472  710.8983
 473  661.1492
 474  698.3362
 475  609.9815
 476  549.8684
 477  537.9174
 478  560.7131
 479  586.9836
 480  609.4233
 481  691.5682
 482  627.5341
 483  658.4947
 484  615.6194
 485  550.5157
 486  516.3864
 487  648.6645
 488  657.0348
 489  567.5565
 490  611.8239
 491  645.8063
 492  465.6327
 493  480.0935
 494  513.4196
 495  442.2321
 496  441.3358
 497  550.2347
 498  607.6356
 499  538.0877
 500  513.9406
 501  518.5029
 502  616.2477
 503  550.5911
 504  641.5464
 505  626.3448
 506  595.5727
 507  622.3834
 508  546.2457
 509  525.6863
 510  613.7506
 511  526.8085
