# Input file       =  1178512740.104834_cleaned.dat
# Candidate        =  PSR_0332+5434
# Telescope        =  AR
# Epoch_topo       =  57884.193971120767
# Epoch_bary       =  N/A
# T_sample         =  0.002
# Data Folded      =  7274496
# Data Avg         =  0.0461947685588847
# Data StdDev      =  1.00011794421713 
# Profile Bins     =  512
# Profile Avg      =  656.289227917988 
# Profile StdDev   =  119.21137404006  
# Reduced chi-sqr  =  0.818
# Prob(Noise)      <  0.999   (~0.0 sigma)
# P_topo (ms)      =  714.53691085844   +/- 0.00012
# P'_topo (s/s)    =  -0                +/- 6.4e-11
# P''_topo (s/s^2) =  0                 +/- 2.85e-14
# P_bary (ms)      =  N/A
# P'_bary (s/s)    =  N/A
# P''_bary (s/s^2) =  N/A
# P_orb (s)        =  N/A
# asin(i)/c (s)    =  N/A
# eccentricity     =  N/A
# w (rad)          =  N/A
# T_peri           =  N/A
######################################################
   0  615.8154
   1  584.9037
   2  558.1075
   3  612.2678
   4  704.8381
   5  612.0636
   6  576.1998
   7  622.7751
   8  592.8082
   9  602.4961
  10  630.2695
  11  695.5636
  12  716.2314
  13  738.304
  14  762.111
  15  660.5948
  16  693.3317
  17  562.3823
  18  546.8875
  19  562.7878
  20  645.8039
  21  679.7563
  22  661.0355
  23  663.9425
  24  574.714
  25  611.715
  26  664.3683
  27  775.6628
  28  759.3633
  29  797.4633
  30  749.6998
  31  696.3032
  32  657.8394
  33  682.7472
  34  665.5706
  35  657.6079
  36  728.491
  37  668.1213
  38  557.4877
  39  579.7778
  40  634.7886
  41  623.037
  42  665.2261
  43  703.8664
  44  732.1207
  45  758.2197
  46  660.6422
  47  698.4476
  48  654.1194
  49  661.6436
  50  645.3674
  51  807.3915
  52  683.6241
  53  688.0705
  54  640.1108
  55  687.4134
  56  666.6075
  57  669.0555
  58  737.1359
  59  667.3956
  60  647.3229
  61  568.6006
  62  538.5591
  63  665.9647
  64  624.3264
  65  554.0153
  66  495.6503
  67  571.9933
  68  571.9161
  69  587.5645
  70  527.1329
  71  544.947
  72  561.2928
  73  565.555
  74  563.1203
  75  497.0847
  76  622.4697
  77  754.6168
  78  698.0954
  79  683.7796
  80  617.2636
  81  522.8652
  82  518.8959
  83  612.5092
  84  628.2428
  85  641.3998
  86  693.9921
  87  652.9113
  88  532.3872
  89  570.8972
  90  644.7294
  91  582.2035
  92  593.096
  93  686.6483
  94  744.6855
  95  766.0046
  96  728.7133
  97  786.818
  98  824.3931
  99  757.5956
 100  713.4584
 101  596.067
 102  630.629
 103  710.0887
 104  738.7278
 105  705.0678
 106  689.2428
 107  610.3629
 108  615.4011
 109  638.5717
 110  726.4961
 111  754.7172
 112  727.1597
 113  699.3546
 114  704.0099
 115  622.7568
 116  651.0945
 117  611.09
 118  686.8322
 119  810.1511
 120  779.3956
 121  646.4855
 122  574.2979
 123  619.2963
 124  598.6558
 125  600.7203
 126  603.2339
 127  641.7779
 128  654.6246
 129  653.9481
 130  682.3754
 131  742.419
 132  722.8669
 133  657.0975
 134  639.839
 135  648.1434
 136  655.6395
 137  611.7269
 138  618.4048
 139  533.5308
 140  634.1796
 141  632.066
 142  700.9208
 143  720.5925
 144  717.051
 145  626.7999
 146  579.9088
 147  660.5676
 148  649.197
 149  622.5345
 150  624.2485
 151  613.2126
 152  628.7451
 153  702.9603
 154  685.5385
 155  720.3987
 156  615.9705
 157  623.5156
 158  612.4438
 159  669.2057
 160  739.3787
 161  728.3668
 162  723.4447
 163  740.683
 164  705.2891
 165  718.8864
 166  769.1526
 167  689.3383
 168  731.3659
 169  743.1193
 170  652.5505
 171  718.6289
 172  684.7844
 173  604.7424
 174  643.7607
 175  674.7913
 176  632.2007
 177  724.4455
 178  702.6541
 179  687.4612
 180  655.9191
 181  687.801
 182  752.0338
 183  640.9576
 184  616.771
 185  638.5966
 186  708.87
 187  835.3983
 188  884.5594
 189  802.3796
 190  637.7994
 191  600.5858
 192  700.8449
 193  751.6228
 194  822.8456
 195  828.9459
 196  671.1521
 197  547.0244
 198  720.9874
 199  679.5578
 200  638.4095
 201  679.4267
 202  741.007
 203  716.1561
 204  715.2476
 205  608.0579
 206  655.0803
 207  658.2523
 208  589.787
 209  668.2084
 210  687.092
 211  729.6558
 212  764.5154
 213  825.1952
 214  742.467
 215  607.8715
 216  557.309
 217  687.7604
 218  633.1747
 219  656.8521
 220  633.7523
 221  485.7538
 222  607.5074
 223  644.1345
 224  693.1236
 225  730.1379
 226  758.7982
 227  675.0595
 228  601.0239
 229  658.8428
 230  680.5312
 231  664.7266
 232  635.8452
 233  735.2201
 234  718.5137
 235  761.1752
 236  695.5686
 237  645.2983
 238  682.033
 239  636.6476
 240  709.9811
 241  778.325
 242  773.8307
 243  686.3594
 244  528.9764
 245  524.2025
 246  521.5541
 247  615.2006
 248  654.0208
 249  578.2614
 250  613.9054
 251  562.3656
 252  492.3528
 253  598.6344
 254  583.239
 255  640.437
 256  666.2684
 257  597.4681
 258  655.7324
 259  672.2028
 260  728.1694
 261  687.8425
 262  644.7021
 263  593.3162
 264  509.0887
 265  575.827
 266  584.028
 267  697.1934
 268  709.8741
 269  664.4058
 270  633.0277
 271  541.2562
 272  564.3683
 273  575.2964
 274  605.1027
 275  657.1176
 276  655.3293
 277  701.1373
 278  695.5591
 279  633.3702
 280  647.6647
 281  684.7145
 282  593.4864
 283  610.0712
 284  655.4067
 285  733.2971
 286  675.7669
 287  738.1939
 288  674.0362
 289  634.1805
 290  683.8882
 291  782.5544
 292  626.7297
 293  541.6271
 294  576.8696
 295  617.0561
 296  600.2559
 297  650.5094
 298  588.6569
 299  528.377
 300  551.165
 301  680.5968
 302  566.5048
 303  465.4601
 304  538.6553
 305  611.0709
 306  688.8793
 307  611.0956
 308  682.0632
 309  789.2728
 310  698.9256
 311  715.6832
 312  732.8654
 313  751.6297
 314  687.1307
 315  621.376
 316  695.3991
 317  733.5897
 318  679.8134
 319  708.0753
 320  685.6717
 321  641.2113
 322  618.6265
 323  753.1101
 324  705.7526
 325  643.9934
 326  587.6429
 327  647.2704
 328  803.5792
 329  846.7292
 330  879.4149
 331  887.056
 332  877.5248
 333  797.945
 334  706.4818
 335  615.4842
 336  583.2518
 337  548.2616
 338  441.1797
 339  455.1009
 340  477.9397
 341  586.1765
 342  651.2989
 343  726.6832
 344  717.2814
 345  610.9613
 346  566.0317
 347  545.8903
 348  573.4156
 349  632.3447
 350  630.2242
 351  598.7305
 352  616.4727
 353  571.0093
 354  560.5368
 355  613.207
 356  649.897
 357  701.9446
 358  655.0857
 359  674.5114
 360  667.9537
 361  628.0121
 362  621.1611
 363  589.4076
 364  545.8378
 365  508.3685
 366  606.2289
 367  641.672
 368  603.4468
 369  526.1483
 370  561.7117
 371  545.666
 372  419.021
 373  517.2532
 374  624.9779
 375  640.8109
 376  743.3564
 377  714.705
 378  536.9272
 379  550.4599
 380  525.7375
 381  613.4859
 382  636.2921
 383  705.3184
 384  656.5624
 385  590.0491
 386  540.3248
 387  569.3391
 388  540.0172
 389  611.6846
 390  611.3074
 391  661.785
 392  698.3331
 393  706.3108
 394  626.0333
 395  678.6074
 396  660.3016
 397  603.872
 398  563.4268
 399  618.3044
 400  600.5475
 401  517.7074
 402  467.8958
 403  547.8308
 404  606.4238
 405  548.6756
 406  753.7698
 407  653.2159
 408  590.4673
 409  683.9462
 410  681.8536
 411  719.9548
 412  698.8649
 413  625.861
 414  590.3439
 415  584.5741
 416  545.5283
 417  612.2891
 418  708.3067
 419  666.2726
 420  597.4052
 421  649.6431
 422  611.1086
 423  589.0726
 424  670.2112
 425  572.4383
 426  653.5018
 427  707.9267
 428  601.5997
 429  525.7625
 430  528.9545
 431  607.4009
 432  674.2335
 433  590.1851
 434  662.1676
 435  611.0071
 436  592.5529
 437  545.1108
 438  524.6623
 439  576.8184
 440  596.5516
 441  718.5404
 442  722.5667
 443  703.5494
 444  564.2847
 445  538.2949
 446  665.4269
 447  676.4066
 448  714.9927
 449  664.4564
 450  742.6198
 451  735.8218
 452  627.7613
 453  657.6528
 454  635.4353
 455  677.9772
 456  672.2559
 457  705.4393
 458  664.663
 459  745.778
 460  772.2655
 461  718.0867
 462  778.1099
 463  668.4889
 464  612.9536
 465  665.3362
 466  651.968
 467  686.5909
 468  757.5529
 469  764.8204
 470  808.6712
 471  810.9034
 472  757.4308
 473  829.5888
 474  895.2275
 475  848.6671
 476  843.6246
 477  723.5766
 478  746.4938
 479  753.4974
 480  737.5547
 481  664.8774
 482  611.7496
 483  795.8417
 484  798.7391
 485  774.2643
 486  729.5145
 487  630.7842
 488  604.1317
 489  744.52
 490  751.7115
 491  737.0258
 492  684.4128
 493  611.2968
 494  641.3074
 495  629.3661
 496  677.8462
 497  642.9142
 498  530.6021
 499  680.2685
 500  826.5742
 501  787.5105
 502  715.9049
 503  669.651
 504  597.6899
 505  606.3322
 506  720.0642
 507  742.1295
 508  656.5908
 509  713.6021
 510  734.1382
 511  660.1919
