# Input file       =  1178454286.107926_cleaned.dat
# Candidate        =  PSR_0332+5434
# Telescope        =  AR
# Epoch_topo       =  57883.517420230623
# Epoch_bary       =  N/A
# T_sample         =  0.002
# Data Folded      =  7340032
# Data Avg         =  0.0467481859398374
# Data StdDev      =  3.36227607062781 
# Profile Bins     =  512
# Profile Avg      =  670.257221291799 
# Profile StdDev   =  402.57552307321  
# Reduced chi-sqr  =  1.179
# Prob(Noise)      <  0.00325   (~2.7 sigma)
# P_topo (ms)      =  714.537850399642  +/- 0.000347
# P'_topo (s/s)    =  -0                +/- 1.83e-10
# P''_topo (s/s^2) =  0                 +/- 8.09e-14
# P_bary (ms)      =  N/A
# P'_bary (s/s)    =  N/A
# P''_bary (s/s^2) =  N/A
# P_orb (s)        =  N/A
# asin(i)/c (s)    =  N/A
# eccentricity     =  N/A
# w (rad)          =  N/A
# T_peri           =  N/A
######################################################
   0  760.2283
   1  706.1185
   2  826.5478
   3  783.96
   4  866.291
   5  915.6401
   6  913.3102
   7  737.076
   8  1145.834
   9  1234.485
  10  1036.944
  11  668.7596
  12  718.4021
  13  1103.517
  14  1046.449
  15  897.6102
  16  882.8193
  17  1164.248
  18  457.3069
  19  866.3254
  20  988.05
  21  597.0047
  22  752.0689
  23  668.478
  24  866.274
  25  645.4454
  26  555.9067
  27  449.831
  28  381.5079
  29  707.3547
  30  911.5532
  31  794.1812
  32  1143.255
  33  793.7441
  34  996.3226
  35  1402.554
  36  1101.559
  37  821.651
  38  1366.238
  39  1182.064
  40  769.0146
  41  954.5387
  42  908.9805
  43  613.4119
  44  532.619
  45  409.9221
  46  510.9469
  47  820.5377
  48  836.4733
  49  813.5051
  50  1086.06
  51  992.0923
  52  1007.274
  53  1151.133
  54  854.5383
  55  876.7716
  56  737.3986
  57  992.7514
  58  864.3273
  59  813.1777
  60  684.9887
  61  615.7393
  62  827.5085
  63  803.9246
  64  532.3831
  65  451.8211
  66  926.3341
  67  1145.176
  68  917.8371
  69  986.8138
  70  642.3433
  71  646.8276
  72  528.0172
  73  1214.867
  74  1150.189
  75  930.7816
  76  1080.775
  77  1061.84
  78  1292.008
  79  1120.754
  80  1177.479
  81  1049.117
  82  391.757
  83  656.6448
  84  852.4323
  85  565.4598
  86  399.9365
  87  190.1136
  88  462.195
  89  633.1998
  90  867.0448
  91  878.1121
  92  735.8843
  93  645.7501
  94  580.2203
  95  728.6877
  96  781.07
  97  253.3357
  98  283.671
  99  683.9055
 100  890.3441
 101  801.0332
 102  285.9118
 103  368.743
 104  248.5177
 105  528.8212
 106  503.7798
 107  605.547
 108  670.8708
 109  821.7221
 110  178.1167
 111  284.4553
 112  499.722
 113  715.9405
 114  788.6652
 115  809.4564
 116  766.9614
 117  780.2832
 118  862.6495
 119  886.1089
 120  1229.275
 121  706.524
 122  937.3243
 123  999.9135
 124  741.0404
 125  570.1561
 126  485.8304
 127  850.3248
 128  848.8293
 129  837.3056
 130  1174.564
 131  1050.792
 132  993.138
 133  794.7185
 134  1103.782
 135  1353.532
 136  674.3342
 137  786.9216
 138  1048.097
 139  1138.54
 140  696.599
 141  644.8478
 142  469.6645
 143  309.1512
 144  461.5804
 145  611.9605
 146  630.4784
 147  179.8154
 148  598.355
 149  715.8732
 150  282.676
 151  423.9041
 152  398.5187
 153  538.7306
 154  116.4145
 155  441.9809
 156  365.3362
 157  446.8708
 158  241.0724
 159  177.1145
 160  481.8018
 161  730.2439
 162  975.9084
 163  894.9559
 164  692.3204
 165  956.7356
 166  769.8114
 167  420.428
 168  628.5527
 169  508.4103
 170  303.468
 171  758.147
 172  680.3286
 173  527.7385
 174  437.0252
 175  503.4547
 176  669.4718
 177  734.7194
 178  594.3508
 179  380.1999
 180  558.0916
 181  584.9703
 182  458.3399
 183  223.187
 184  156.6904
 185  337.9194
 186  336.1551
 187  654.9576
 188  848.4019
 189  859.9161
 190  467.4857
 191  726.1263
 192  712.957
 193  871.595
 194  719.3992
 195  460.1178
 196  502.8324
 197  679.0288
 198  858.9421
 199  933.1796
 200  1127.831
 201  845.3505
 202  581.6151
 203  540.9777
 204  372.7189
 205  268.5741
 206  492.3931
 207  519.129
 208  512.8228
 209  580.9573
 210  494.4642
 211  332.4686
 212  472.5739
 213  699.7064
 214  384.8225
 215  659.3781
 216  837.9227
 217  487.9444
 218  474.8653
 219  275.4164
 220  423.0439
 221  779.7943
 222  794.131
 223  826.7723
 224  506.6308
 225  605.9545
 226  334.1735
 227  581.8235
 228  937.5286
 229  725.403
 230  348.4702
 231  901.2042
 232  943.86
 233  654.6122
 234  619.7919
 235  721.1686
 236  634.0633
 237  262.5101
 238  251.4746
 239  380.4444
 240  542.8246
 241  269.5447
 242  381.9265
 243  430.9647
 244  85.12353
 245  -75.50681
 246  113.7564
 247  543.0518
 248  913.0958
 249  344.5865
 250  423.9049
 251  404.7553
 252  488.7006
 253  562.0291
 254  431.9783
 255  78.38651
 256  206.2574
 257  567.2835
 258  403.7552
 259  374.7191
 260  552.5396
 261  478.1316
 262  385.9109
 263  534.3252
 264  546.614
 265  399.5898
 266  356.1774
 267  356.3466
 268  366.0471
 269  469.8152
 270  474.7463
 271  206.6788
 272  323.3481
 273  225.7123
 274  290.4005
 275  569.0052
 276  548.2075
 277  351.6481
 278  131.1508
 279  463.4186
 280  464.9594
 281  470.3326
 282  364.6562
 283  272.637
 284  37.77468
 285  61.23691
 286  186.6015
 287  354.8233
 288  518.0651
 289  509.8153
 290  280.0901
 291  294.9221
 292  683.4467
 293  717.2237
 294  871.6715
 295  909.5231
 296  535.3945
 297  267.4998
 298  334.1028
 299  577.8713
 300  537.2001
 301  604.3588
 302  505.1122
 303  888.0735
 304  511.9866
 305  329.7449
 306  544.6708
 307  260.9713
 308  277.4082
 309  530.766
 310  918.5426
 311  646.5222
 312  532.6856
 313  837.1246
 314  542.6403
 315  842.0886
 316  467.7484
 317  304.2982
 318  764.2567
 319  1001.268
 320  954.9885
 321  524.2867
 322  711.3171
 323  1030.571
 324  1096.552
 325  1300.49
 326  1336.994
 327  1696.579
 328  2286.351
 329  2698.869
 330  2821.424
 331  2251.579
 332  1766.311
 333  1348.346
 334  803.0891
 335  505.476
 336  326.6714
 337  304.0341
 338  384.7129
 339  412.3474
 340  511.1967
 341  702.1619
 342  435.9379
 343  314.9595
 344  395.8533
 345  371.8512
 346  356.9277
 347  411.9677
 348  767.0139
 349  895.1331
 350  786.6203
 351  976.6888
 352  1013.19
 353  626.2245
 354  660.4932
 355  578.1693
 356  619.6544
 357  431.1489
 358  499.2263
 359  964.0981
 360  774.6054
 361  353.6714
 362  792.7996
 363  624.0655
 364  740.0123
 365  828.5334
 366  694.8793
 367  749.6796
 368  776.8031
 369  376.6218
 370  275.5353
 371  188.4213
 372  240.4155
 373  135.3167
 374  -38.60677
 375  152.6782
 376  737.5624
 377  1186.893
 378  820.1662
 379  596.5348
 380  713.42
 381  763.1152
 382  492.3525
 383  559.5182
 384  799.2128
 385  449.5326
 386  351.1798
 387  224.5523
 388  588.6339
 389  713.421
 390  633.8591
 391  509.5297
 392  870.6223
 393  689.5295
 394  450.5859
 395  509.7918
 396  362.8101
 397  490.3409
 398  343.2938
 399  580.3773
 400  402.7566
 401  456.7084
 402  399.0363
 403  779.7717
 404  864.1686
 405  550.9625
 406  523.9319
 407  644.2925
 408  759.7117
 409  578.6361
 410  620.0759
 411  528.8054
 412  639.289
 413  155.1861
 414  411.279
 415  744.6044
 416  828.221
 417  916.0721
 418  742.9395
 419  666.7977
 420  786.3967
 421  805.0575
 422  320.6163
 423  359.7481
 424  723.5248
 425  372.5898
 426  633.0267
 427  223.3983
 428  347.1353
 429  406.7281
 430  472.4834
 431  713.0214
 432  518.856
 433  462.5887
 434  691.8835
 435  706.7488
 436  1012.362
 437  702.0637
 438  618.5279
 439  522.4024
 440  671.404
 441  519.2142
 442  818.3288
 443  835.3757
 444  575.6951
 445  817.4997
 446  790.7672
 447  895.4564
 448  677.1111
 449  830.0108
 450  950.9718
 451  828.658
 452  570.5687
 453  711.0466
 454  511.355
 455  511.3329
 456  629.2881
 457  453.8197
 458  510.0859
 459  861.0309
 460  835.447
 461  485.3838
 462  786.0439
 463  797.4479
 464  799.3493
 465  737.7964
 466  625.6965
 467  925.7019
 468  819.5613
 469  754.2682
 470  678.712
 471  892.2469
 472  1024.279
 473  1040.383
 474  1075.233
 475  1080.634
 476  532.0219
 477  847.9976
 478  992.6763
 479  934.8804
 480  1068.679
 481  897.0177
 482  853.5972
 483  1035.633
 484  647.9629
 485  631.6898
 486  454.3619
 487  650.2227
 488  674.6838
 489  522.2739
 490  801.5424
 491  761.7104
 492  998.6053
 493  802.2546
 494  600.7189
 495  868.0587
 496  1065.704
 497  644.1807
 498  722.5575
 499  782.6561
 500  873.6337
 501  682.4504
 502  680.6223
 503  578.5995
 504  866.0723
 505  872.4631
 506  952.6972
 507  931.6193
 508  645.454
 509  710.8923
 510  571.7924
 511  1065.238
