# Input file       =  1178599101.100686_cleaned.dat
# Candidate        =  PSR_0332+5434
# Telescope        =  AR
# Epoch_topo       =  57885.193519683868
# Epoch_bary       =  N/A
# T_sample         =  0.002
# Data Folded      =  7405568
# Data Avg         =  0.038610803959677
# Data StdDev      =  1.00004337774696 
# Profile Bins     =  512
# Profile Avg      =  558.380341536568 
# Profile StdDev   =  120.271587911193 
# Reduced chi-sqr  =  1.489
# Prob(Noise)      <  4.04e-12   (~6.8 sigma)
# P_topo (ms)      =  714.535954955768  +/- 8.33e-05
# P'_topo (s/s)    =  -0                +/- 4.36e-11
# P''_topo (s/s^2) =  0                 +/- 1.91e-14
# P_bary (ms)      =  N/A
# P'_bary (s/s)    =  N/A
# P''_bary (s/s^2) =  N/A
# P_orb (s)        =  N/A
# asin(i)/c (s)    =  N/A
# eccentricity     =  N/A
# w (rad)          =  N/A
# T_peri           =  N/A
######################################################
   0  536.3529
   1  554.6859
   2  498.9144
   3  441.4834
   4  353.1624
   5  323.8604
   6  408.4699
   7  458.7023
   8  402.1643
   9  402.7961
  10  472.8532
  11  336.2993
  12  256.6871
  13  414.6577
  14  411.5146
  15  494.9735
  16  550.9882
  17  445.1564
  18  409.2032
  19  463.3645
  20  461.9478
  21  404.7836
  22  329.3267
  23  382.3024
  24  467.0434
  25  451.9908
  26  411.5293
  27  381.5364
  28  318.1332
  29  311.4669
  30  299.4015
  31  453.6489
  32  522.9066
  33  525.786
  34  460.3576
  35  484.3341
  36  445.9038
  37  258.705
  38  320.0679
  39  290.3388
  40  335.9732
  41  296.5773
  42  357.1058
  43  401.6019
  44  444.4207
  45  458.7846
  46  365.8698
  47  312.0594
  48  391.7952
  49  453.6037
  50  478.9078
  51  495.3941
  52  598.1773
  53  531.0784
  54  476.1142
  55  479.699
  56  601.1645
  57  490.9759
  58  506.1267
  59  600.2001
  60  696.3104
  61  608.8278
  62  543.9084
  63  584.3109
  64  480.3255
  65  550.9303
  66  590.2786
  67  606.3336
  68  500.226
  69  553.9592
  70  496.8552
  71  512.5862
  72  463.4712
  73  449.2555
  74  512.7992
  75  472.2256
  76  553.7828
  77  452.8208
  78  361.6728
  79  347.4438
  80  406.1821
  81  546.4589
  82  533.2292
  83  570.2845
  84  581.3938
  85  592.9135
  86  446.523
  87  551.9123
  88  514.9908
  89  437.4243
  90  464.8059
  91  569.6715
  92  591.6578
  93  383.0466
  94  406.1296
  95  392.1254
  96  434.8574
  97  499.5701
  98  505.6698
  99  543.8243
 100  603.4033
 101  597.296
 102  522.9584
 103  549.7109
 104  567.7272
 105  535.516
 106  481.4232
 107  482.3407
 108  459.4502
 109  493.0662
 110  514.8745
 111  558.209
 112  661.0494
 113  591.5433
 114  601.7518
 115  559.307
 116  676.9078
 117  708.0138
 118  680.4398
 119  651.5347
 120  539.4905
 121  459.3828
 122  502.3263
 123  619.1935
 124  708.9581
 125  644.733
 126  562.0074
 127  505.6976
 128  431.2546
 129  434.1193
 130  547.4554
 131  534.7618
 132  616.3171
 133  605.2336
 134  555.4405
 135  538.9251
 136  484.4531
 137  523.5743
 138  503.6518
 139  514.9208
 140  527.5371
 141  586.4739
 142  621.9995
 143  715.0571
 144  604.0303
 145  568.7944
 146  524.1047
 147  581.1183
 148  596.0526
 149  526.8212
 150  598.59
 151  668.9835
 152  637.9656
 153  544.7757
 154  511.4671
 155  608.7213
 156  514.0298
 157  488.6825
 158  540.3052
 159  531.8359
 160  509.9414
 161  537.0479
 162  525.8839
 163  601.6289
 164  663.2767
 165  678.2939
 166  624.2418
 167  556.3303
 168  502.3552
 169  520.035
 170  561.3041
 171  593.9609
 172  546.5524
 173  513.0113
 174  571.7573
 175  593.7707
 176  563.9878
 177  484.769
 178  494.1287
 179  620.105
 180  580.7672
 181  648.1713
 182  721.8933
 183  773.3281
 184  723.2487
 185  702.074
 186  714.9487
 187  563.9904
 188  485.2825
 189  548.7265
 190  659.1352
 191  684.1522
 192  681.285
 193  671.1593
 194  624.2435
 195  552.8763
 196  629.0217
 197  676.3057
 198  605.089
 199  581.9751
 200  543.501
 201  506.4077
 202  525.9683
 203  515.756
 204  521.4539
 205  506.7592
 206  463.6139
 207  501.1299
 208  533.0228
 209  423.7214
 210  443.1312
 211  462.2642
 212  421.4204
 213  491.0001
 214  583.4457
 215  661.5474
 216  633.0072
 217  662.0686
 218  622.1856
 219  624.7506
 220  490.7544
 221  465.6869
 222  521.0283
 223  609.1881
 224  604.0169
 225  484.1465
 226  552.1042
 227  466.4758
 228  325.6158
 229  387.8959
 230  550.7351
 231  604.3803
 232  583.598
 233  607.8812
 234  622.2673
 235  597.8937
 236  516.7044
 237  613.5317
 238  669.1332
 239  568.7082
 240  562.0963
 241  530.6615
 242  644.722
 243  651.707
 244  640.0307
 245  537.713
 246  558.2515
 247  633.5513
 248  545.516
 249  586.0515
 250  588.9603
 251  568.5519
 252  566.5229
 253  562.3531
 254  604.6088
 255  451.9648
 256  492.6612
 257  498.6542
 258  517.826
 259  515.0527
 260  601.2408
 261  550.2551
 262  519.2766
 263  575.9329
 264  505.3918
 265  569.8466
 266  527.0875
 267  626.3817
 268  620.2457
 269  580.5852
 270  462.8424
 271  473.4966
 272  490.9131
 273  590.6235
 274  567.1529
 275  609.2404
 276  562.2368
 277  608.9186
 278  647.8516
 279  508.6456
 280  561.3632
 281  679.1827
 282  678.3255
 283  557.0467
 284  530.704
 285  492.6911
 286  401.8886
 287  313.5584
 288  341.4863
 289  510.1318
 290  559.154
 291  586.6857
 292  510.5434
 293  478.1228
 294  413.9769
 295  433.2706
 296  428.1636
 297  540.9344
 298  660.334
 299  649.3547
 300  661.2421
 301  584.3137
 302  522.3832
 303  495.3749
 304  590.7635
 305  743.7397
 306  647.6848
 307  713.9905
 308  737.637
 309  665.7759
 310  650.7283
 311  674.8282
 312  654.1569
 313  641.6368
 314  793.7231
 315  811.1427
 316  819.7579
 317  736.7159
 318  757.707
 319  739.309
 320  721.6524
 321  731.5289
 322  776.306
 323  765.4869
 324  723.0197
 325  676.2483
 326  710.783
 327  713.793
 328  622.4086
 329  658.2404
 330  841.0594
 331  832.4692
 332  897.9805
 333  684.5444
 334  565.2439
 335  567.5785
 336  607.6542
 337  592.383
 338  639.2682
 339  566.7376
 340  582.6575
 341  636.107
 342  571.4754
 343  587.98
 344  735.6414
 345  771.3876
 346  685.3994
 347  676.6036
 348  636.4861
 349  625.517
 350  686.2039
 351  680.4751
 352  714.9863
 353  660.616
 354  673.0106
 355  579.647
 356  580.2004
 357  579.2651
 358  554.0349
 359  489.8458
 360  503.2778
 361  514.191
 362  523.0623
 363  671.7988
 364  692.7571
 365  754.5135
 366  731.9511
 367  688.9148
 368  640.3611
 369  623.81
 370  793.9445
 371  809.9938
 372  927.1812
 373  1039.282
 374  1050.803
 375  853.6443
 376  695.957
 377  526.7245
 378  550.6229
 379  601.2569
 380  622.5412
 381  677.0006
 382  518.6553
 383  542.7355
 384  553.9979
 385  603.4248
 386  581.6174
 387  508.748
 388  535.6898
 389  654.9785
 390  618.8166
 391  631.0552
 392  611.5913
 393  449.2172
 394  532.8322
 395  592.6079
 396  559.9775
 397  701.5405
 398  636.9917
 399  603.9162
 400  588.9158
 401  543.7413
 402  547.8188
 403  546.8995
 404  575.5416
 405  579.7863
 406  571.9844
 407  485.0835
 408  566.537
 409  645.0908
 410  701.3361
 411  662.3518
 412  554.58
 413  618.8098
 414  546.3615
 415  489.7545
 416  520.0746
 417  543.6462
 418  560.7864
 419  540.8539
 420  476.0723
 421  531.0111
 422  602.6282
 423  606.8978
 424  588.1033
 425  587.3759
 426  653.9435
 427  563.7089
 428  670.5963
 429  714.626
 430  761.9111
 431  708.5042
 432  627.1489
 433  518.0582
 434  477.6073
 435  531.6531
 436  456.9756
 437  462.7965
 438  548.5292
 439  534.515
 440  566.0645
 441  537.5445
 442  497.2863
 443  530.4886
 444  553.8356
 445  591.8146
 446  670.2556
 447  610.6169
 448  562.0272
 449  500.7594
 450  472.7649
 451  522.9721
 452  484.6834
 453  636.104
 454  676.8757
 455  626.6652
 456  497.5602
 457  465.5802
 458  421.1385
 459  474.9456
 460  518.1797
 461  599.4501
 462  616.5544
 463  570.1186
 464  589.5215
 465  540.0507
 466  450.6237
 467  443.9339
 468  529.7822
 469  515.2711
 470  607.5035
 471  613.6776
 472  645.5418
 473  645.4009
 474  506.7593
 475  497.9225
 476  442.9173
 477  325.4424
 478  504.3964
 479  587.866
 480  587.4521
 481  569.2239
 482  526.1108
 483  447.1335
 484  510.9452
 485  595.1286
 486  613.1423
 487  599.2194
 488  586.9952
 489  545.0097
 490  515.8885
 491  497.2599
 492  506.5583
 493  487.3501
 494  533.15
 495  565.5963
 496  519.6686
 497  563.7448
 498  593.3278
 499  632.3731
 500  544.8677
 501  517.305
 502  580.7869
 503  506.5412
 504  484.774
 505  453.8895
 506  433.5624
 507  446.035
 508  469.8745
 509  565.409
 510  437.9496
 511  423.7416
