# Input file       =  1178785873.103783_cleaned.dat
# Candidate        =  PSR_0332+5434
# Telescope        =  AR
# Epoch_topo       =  57887.355232682676
# Epoch_bary       =  N/A
# T_sample         =  0.002
# Data Folded      =  7340032
# Data Avg         =  0.0875739535185858
# Data StdDev      =  2.72293613058353 
# Profile Bins     =  1024
# Profile Avg      =  627.863097562367 
# Profile StdDev   =  230.534778797969 
# Reduced chi-sqr  =  1.007
# Prob(Noise)      <  0.43   (~0.2 sigma)
# P_topo (ms)      =  714.53389433915   +/- 0.000245
# P'_topo (s/s)    =  -0                +/- 1.3e-10
# P''_topo (s/s^2) =  0                 +/- 5.72e-14
# P_bary (ms)      =  N/A
# P'_bary (s/s)    =  N/A
# P''_bary (s/s^2) =  N/A
# P_orb (s)        =  N/A
# asin(i)/c (s)    =  N/A
# eccentricity     =  N/A
# w (rad)          =  N/A
# T_peri           =  N/A
######################################################
   0  781.3891
   1  700.825
   2  691.1714
   3  721.8002
   4  779.9704
   5  745.7897
   6  778.4022
   7  695.2389
   8  714.6723
   9  627.8914
  10  633.7814
  11  600.2778
  12  686.382
  13  751.0903
  14  716.3156
  15  625.4136
  16  624.0231
  17  505.9482
  18  513.5085
  19  458.6411
  20  608.8911
  21  559.772
  22  561.6978
  23  549.5515
  24  551.7309
  25  604.7573
  26  622.4272
  27  583.2544
  28  543.6298
  29  543.3242
  30  694.667
  31  715.4294
  32  818.5568
  33  729.5144
  34  592.2025
  35  440.9318
  36  510.1844
  37  580.9335
  38  581.512
  39  644.8954
  40  703.5302
  41  651.8094
  42  514.0627
  43  544.8687
  44  732.7087
  45  857.7239
  46  808.7135
  47  749.5442
  48  752.814
  49  776.0267
  50  760.074
  51  710.2695
  52  635.4745
  53  611.5166
  54  617.4958
  55  608.303
  56  593.3226
  57  539.9777
  58  621.5009
  59  653.291
  60  696.2933
  61  668.736
  62  600.4725
  63  549.6382
  64  481.2726
  65  580.901
  66  739.4075
  67  743.0266
  68  737.0425
  69  566.9048
  70  572.7756
  71  581.1091
  72  713.2626
  73  742.7141
  74  694.3859
  75  572.3714
  76  544.6299
  77  601.4321
  78  594.7408
  79  571.0731
  80  502.4713
  81  522.0391
  82  530.2123
  83  563.5974
  84  545.6995
  85  523.7777
  86  571.6744
  87  472.8371
  88  391.1047
  89  389.2223
  90  520.7197
  91  663.5836
  92  668.5833
  93  659.8583
  94  606.2516
  95  622.3707
  96  616.4931
  97  680.0953
  98  650.3184
  99  557.364
 100  446.3955
 101  492.4791
 102  447.2305
 103  496.1405
 104  419.2275
 105  459.77
 106  440.2499
 107  482.6017
 108  547.0283
 109  526.0607
 110  550.2943
 111  566.9921
 112  544.2261
 113  416.769
 114  338.8113
 115  367.3342
 116  469.4423
 117  555.4496
 118  597.3182
 119  645.7488
 120  589.0016
 121  456.2841
 122  419.5996
 123  463.1067
 124  542.5178
 125  565.8882
 126  689.5202
 127  692.7999
 128  725.6237
 129  766.445
 130  758.1976
 131  647.2336
 132  504.9165
 133  514.2629
 134  492.3373
 135  474.364
 136  512.3854
 137  564.234
 138  602.5735
 139  546.5654
 140  547.8312
 141  632.1107
 142  620.3937
 143  666.9628
 144  558.9382
 145  596.2752
 146  734.4745
 147  749.3936
 148  828.2376
 149  687.6479
 150  846.3889
 151  834.7313
 152  867.0836
 153  664.711
 154  576.3277
 155  597.8761
 156  667.4189
 157  779.7547
 158  713.5435
 159  657.1988
 160  647.3032
 161  697.9178
 162  739.4669
 163  731.7416
 164  741.9094
 165  771.7387
 166  662.0222
 167  617.5203
 168  566.8732
 169  621.4294
 170  633.7267
 171  541.5963
 172  545.7178
 173  559.1147
 174  636.662
 175  642.3098
 176  651.3643
 177  661.9847
 178  699.0302
 179  626.7821
 180  583.8909
 181  538.0505
 182  652.661
 183  582.788
 184  623.2759
 185  520.1882
 186  551.9153
 187  539.4838
 188  537.7332
 189  479.0464
 190  541.071
 191  603.04
 192  645.5104
 193  622.2998
 194  565.8609
 195  523.05
 196  472.8253
 197  498.2238
 198  472.753
 199  355.1727
 200  295.9159
 201  322.2883
 202  411.5852
 203  498.5298
 204  514.8455
 205  599.7061
 206  629.7715
 207  582.9945
 208  531.2751
 209  481.574
 210  600.515
 211  693.7562
 212  598.7491
 213  446.7685
 214  393.5266
 215  463.1164
 216  490.4904
 217  407.9728
 218  417.8203
 219  467.3423
 220  536.7871
 221  554.2898
 222  601.0262
 223  601.3295
 224  640.1742
 225  643.2141
 226  629.7469
 227  586.0577
 228  620.0239
 229  673.8752
 230  638.1734
 231  470.1252
 232  402.2444
 233  419.2333
 234  472.6405
 235  546.0284
 236  621.3366
 237  582.0534
 238  545.9895
 239  495.3711
 240  473.6018
 241  503.9682
 242  558.668
 243  725.5306
 244  703.0399
 245  712.8576
 246  634.2099
 247  604.7328
 248  632.1354
 249  580.6384
 250  638.4501
 251  645.5905
 252  702.065
 253  713.3585
 254  716.8005
 255  729.1619
 256  749.369
 257  719.9442
 258  693.4044
 259  669.0211
 260  744.2527
 261  764.0203
 262  803.2521
 263  708.5515
 264  704.3327
 265  609.5259
 266  603.0266
 267  641.6571
 268  613.6107
 269  528.6536
 270  482.7298
 271  562.1635
 272  601.6772
 273  565.0266
 274  490.0026
 275  531.0887
 276  669.5357
 277  809.0997
 278  650.2035
 279  567.9272
 280  504.3933
 281  525.1698
 282  454.6822
 283  489.0363
 284  518.7921
 285  563.2393
 286  574.6804
 287  654.6138
 288  612.1881
 289  615.6827
 290  605.2911
 291  724.3573
 292  754.0941
 293  796.8177
 294  716.5437
 295  663.2176
 296  548.6211
 297  435.8625
 298  314.0812
 299  362.5516
 300  549.9169
 301  695.6241
 302  725.2969
 303  706.8792
 304  700.4623
 305  688.0344
 306  627.4659
 307  523.7766
 308  481.5708
 309  518.7446
 310  641.2968
 311  668.6808
 312  565.7018
 313  493.7052
 314  523.6351
 315  566.1713
 316  599.8527
 317  665.4459
 318  720.7685
 319  723.8156
 320  640.0707
 321  599.2079
 322  570.3667
 323  545.7791
 324  574.8347
 325  622.4536
 326  647.4963
 327  553.3887
 328  535.1459
 329  642.3929
 330  765.0374
 331  814.382
 332  676.9759
 333  678.6508
 334  576.9299
 335  630.9388
 336  688.1893
 337  673.7084
 338  652.61
 339  565.413
 340  588.3153
 341  553.5556
 342  580.537
 343  694.6357
 344  777.5461
 345  820.5165
 346  781.2665
 347  777.6885
 348  737.3699
 349  618.9286
 350  551.9304
 351  595.6832
 352  619.5715
 353  617.9976
 354  660.1934
 355  747.4943
 356  758.5621
 357  822.2011
 358  940.272
 359  958.5556
 360  799.1831
 361  632.7217
 362  541.6375
 363  538.9197
 364  541.2294
 365  575.0504
 366  660.9987
 367  690.3984
 368  634.6914
 369  623.1295
 370  599.1403
 371  597.2557
 372  579.6303
 373  662.7449
 374  737.0452
 375  769.5621
 376  691.8422
 377  563.612
 378  528.0365
 379  570.575
 380  622.0297
 381  731.8503
 382  738.467
 383  686.3853
 384  522.3281
 385  492.7519
 386  490.5341
 387  624.6266
 388  722.7767
 389  746.4963
 390  673.7071
 391  636.9329
 392  463.1792
 393  269.2331
 394  269.8455
 395  382.7512
 396  568.4292
 397  588.0718
 398  614.0939
 399  601.9211
 400  618.9155
 401  600.6774
 402  540.4585
 403  483.5338
 404  431.8078
 405  485.3798
 406  552.051
 407  547.9576
 408  600.9
 409  740.4861
 410  753.9295
 411  662.7503
 412  635.2496
 413  659.6453
 414  576.9649
 415  501.3809
 416  571.5533
 417  650.0462
 418  720.1191
 419  692.4996
 420  704.6021
 421  607.3376
 422  543.2723
 423  538.756
 424  556.8266
 425  642.4106
 426  599.6793
 427  615.9017
 428  523.6495
 429  517.568
 430  498.6688
 431  525.1143
 432  469.6317
 433  461.5765
 434  523.7705
 435  518.7435
 436  441.6768
 437  298.4203
 438  288.0438
 439  311.3094
 440  462.4991
 441  489.7788
 442  537.5829
 443  433.1449
 444  338.4023
 445  392.3454
 446  430.5855
 447  523.8519
 448  435.0357
 449  384.9772
 450  323.1703
 451  330.7272
 452  469.481
 453  573.1754
 454  572.865
 455  551.6902
 456  589.3585
 457  583.881
 458  603.9244
 459  489.8251
 460  449.7392
 461  469.7146
 462  525.3124
 463  619.7378
 464  610.2301
 465  594.4109
 466  545.9075
 467  620.8836
 468  658.9128
 469  655.4757
 470  621.1808
 471  604.6769
 472  528.3929
 473  471.1579
 474  475.1398
 475  456.5241
 476  502.7641
 477  504.2506
 478  564.7589
 479  588.787
 480  656.1973
 481  596.905
 482  613.1918
 483  685.8514
 484  884.4844
 485  784.9525
 486  776.7311
 487  705.5979
 488  832.9662
 489  837.5976
 490  858.7078
 491  797.6599
 492  778.5384
 493  728.2267
 494  712.4006
 495  691.8144
 496  596.4159
 497  540.2816
 498  476.5149
 499  489.5294
 500  477.2742
 501  471.8904
 502  532.1683
 503  542.3056
 504  602.5516
 505  601.0922
 506  523.6685
 507  474.6834
 508  537.6563
 509  600.347
 510  584.074
 511  612.6373
 512  779.569
 513  755.7128
 514  635.074
 515  549.3573
 516  593.1185
 517  589.2107
 518  589.634
 519  616.7744
 520  690.5159
 521  751.1039
 522  743.916
 523  687.766
 524  665.5728
 525  721.0648
 526  635.3125
 527  573.5974
 528  532.5087
 529  546.6823
 530  628.9159
 531  639.0242
 532  805.6572
 533  787.8799
 534  705.0395
 535  660.0809
 536  750.4029
 537  719.9078
 538  626.2299
 539  598.1068
 540  665.3801
 541  688.7575
 542  615.5161
 543  691.7343
 544  736.8132
 545  781.7388
 546  643.4937
 547  585.7253
 548  605.0822
 549  655.0123
 550  682.3966
 551  704.7761
 552  728.4418
 553  717.9637
 554  707.5647
 555  774.8949
 556  760.1096
 557  719.9867
 558  735.5943
 559  719.4756
 560  659.1478
 561  593.9164
 562  654.433
 563  682.603
 564  642.1329
 565  588.0283
 566  614.8908
 567  551.6184
 568  560.6688
 569  530.6617
 570  621.039
 571  605.0178
 572  628.989
 573  598.082
 574  559.5922
 575  611.0569
 576  695.1288
 577  753.5276
 578  686.7277
 579  780.0886
 580  852.8361
 581  850.9548
 582  702.6286
 583  650.5488
 584  759.3792
 585  787.5799
 586  785.0051
 587  783.0394
 588  848.367
 589  826.0317
 590  748.9532
 591  660.302
 592  605.7968
 593  584.0155
 594  629.0547
 595  698.879
 596  693.2044
 597  647.8777
 598  674.5006
 599  741.8167
 600  710.8333
 601  656.1187
 602  548.0682
 603  629.2137
 604  666.709
 605  749.5457
 606  692.6425
 607  597.9359
 608  624.0616
 609  742.5471
 610  822.4767
 611  786.8706
 612  608.4917
 613  617.669
 614  651.1541
 615  728.958
 616  714.3359
 617  668.1461
 618  656.1813
 619  621.3475
 620  626.9077
 621  566.1254
 622  553.8699
 623  570.4114
 624  707.8419
 625  655.6459
 626  575.3922
 627  513.692
 628  515.8278
 629  517.4703
 630  530.7299
 631  576.1125
 632  563.3985
 633  525.7107
 634  537.0444
 635  587.7896
 636  647.3186
 637  606.4584
 638  592.3306
 639  697.0051
 640  819.9937
 641  804.8126
 642  781.8816
 643  717.0552
 644  715.847
 645  691.7009
 646  626.7988
 647  598.2186
 648  599.6255
 649  686.2846
 650  787.751
 651  737.1669
 652  688.87
 653  689.6426
 654  720.8942
 655  695.3468
 656  539.717
 657  623.7231
 658  688.2001
 659  747.7546
 660  750.0328
 661  770.6
 662  798.2786
 663  761.377
 664  716.3032
 665  630.6561
 666  642.8826
 667  695.101
 668  714.4946
 669  606.665
 670  587.7259
 671  601.3345
 672  580.5497
 673  564.0181
 674  646.7963
 675  702.0065
 676  695.0614
 677  713.9807
 678  783.4315
 679  761.6396
 680  789.4257
 681  767.21
 682  745.0173
 683  681.4073
 684  684.2283
 685  714.3738
 686  718.7333
 687  676.1812
 688  695.7595
 689  705.0172
 690  760.6689
 691  641.1788
 692  690.1721
 693  591.7365
 694  558.024
 695  488.1999
 696  480.9807
 697  479.6115
 698  493.2908
 699  533.7045
 700  574.6019
 701  501.9091
 702  459.0552
 703  408.6627
 704  473.151
 705  613.6708
 706  710.0004
 707  727.143
 708  626.0388
 709  506.4559
 710  540.9084
 711  653.0008
 712  770.3555
 713  874.9332
 714  859.3892
 715  781.0307
 716  785.4146
 717  745.0383
 718  657.3118
 719  539.9655
 720  619.9338
 721  787.0192
 722  780.4794
 723  760.0015
 724  679.5056
 725  694.2325
 726  739.2825
 727  774.307
 728  759.2128
 729  678.0844
 730  712.4365
 731  819.6139
 732  827.5077
 733  801.8112
 734  761.2877
 735  766.0266
 736  695.0439
 737  558.8655
 738  507.4753
 739  495.684
 740  692.9057
 741  806.6793
 742  868.9772
 743  881.015
 744  874.7928
 745  862.4395
 746  766.9329
 747  733.8058
 748  724.2651
 749  765.666
 750  771.9639
 751  917.6591
 752  995.9808
 753  1037.235
 754  1077.914
 755  1173.827
 756  1439.885
 757  1509.125
 758  1513.578
 759  1426.835
 760  1350.36
 761  1221.079
 762  1094.968
 763  971.5226
 764  876.8414
 765  773.1843
 766  759.8149
 767  729.5971
 768  628.5535
 769  570.4085
 770  595.6152
 771  628.6902
 772  673.7389
 773  673.0818
 774  684.7482
 775  655.3228
 776  540.6182
 777  604.3201
 778  563.3313
 779  585.4927
 780  650.3959
 781  769.1473
 782  751.4978
 783  647.3124
 784  582.3637
 785  523.4977
 786  527.9872
 787  563.5905
 788  528.5556
 789  524.469
 790  628.0545
 791  810.6935
 792  857.4676
 793  723.1938
 794  705.0135
 795  695.87
 796  694.0811
 797  576.6302
 798  544.8479
 799  518.4504
 800  489.9507
 801  402.5694
 802  418.543
 803  366.0988
 804  454.5771
 805  455.4908
 806  488.9519
 807  473.5746
 808  471.1635
 809  478.8156
 810  493.3547
 811  547.3312
 812  616.8492
 813  754.9168
 814  716.4414
 815  675.9144
 816  514.1156
 817  360.1875
 818  353.9617
 819  430.9173
 820  607.6164
 821  515.4285
 822  462.981
 823  512.9414
 824  527.5407
 825  483.5846
 826  473.967
 827  517.8106
 828  592.3413
 829  542.4915
 830  477.7076
 831  447.8751
 832  565.4054
 833  651.7491
 834  545.5967
 835  486.7387
 836  502.8217
 837  510.4942
 838  469.0883
 839  442.1078
 840  526.0352
 841  663.4798
 842  769.9387
 843  687.9162
 844  552.7966
 845  515.4203
 846  562.5518
 847  589.3969
 848  596.8215
 849  601.9523
 850  517.7302
 851  460.9485
 852  415.8411
 853  498.292
 854  561.9965
 855  597.4214
 856  554.3279
 857  528.6696
 858  505.9325
 859  575.5673
 860  659.7194
 861  648.9255
 862  682.4935
 863  613.4683
 864  651.6407
 865  498.0252
 866  644.4835
 867  597.4
 868  595.0801
 869  517.1813
 870  589.6274
 871  637.0856
 872  588.9042
 873  515.2
 874  476.4012
 875  452.4271
 876  540.1368
 877  542.1564
 878  616.7925
 879  665.3804
 880  709.3817
 881  644.2184
 882  667.364
 883  562.9222
 884  561.1836
 885  523.6371
 886  623.3471
 887  621.3215
 888  655.511
 889  645.0173
 890  738.1871
 891  680.9495
 892  698.1591
 893  610.4551
 894  573.9346
 895  467.4025
 896  475.5912
 897  495.1201
 898  543.2213
 899  533.2939
 900  572.4105
 901  574.9602
 902  538.9836
 903  590.4949
 904  647.1654
 905  680.8101
 906  675.2548
 907  600.8817
 908  550.7394
 909  508.6215
 910  573.7397
 911  617.6108
 912  671.6641
 913  728.0106
 914  767.9579
 915  693.5388
 916  560.5389
 917  452.2841
 918  454.6841
 919  623.3659
 920  703.9451
 921  692.851
 922  625.1506
 923  640.8789
 924  697.5581
 925  702.5428
 926  736.3964
 927  696.2946
 928  744.4106
 929  626.1049
 930  540.2234
 931  467.9823
 932  553.4815
 933  634.287
 934  660.1113
 935  682.3681
 936  669.3286
 937  697.6472
 938  716.2454
 939  769.8594
 940  769.6078
 941  670.6049
 942  652.8453
 943  506.8494
 944  576.149
 945  633.9385
 946  744.1905
 947  644.5594
 948  610.6896
 949  690.689
 950  754.3778
 951  601.8885
 952  479.4532
 953  503.5429
 954  574.9736
 955  700.8156
 956  715.6691
 957  756.0241
 958  683.2858
 959  704.6904
 960  692.0609
 961  713.6414
 962  730.1847
 963  728.042
 964  708.5277
 965  736.5782
 966  650.1519
 967  571.3925
 968  478.7915
 969  601.0403
 970  686.137
 971  747.1147
 972  784.9539
 973  778.9789
 974  709.8296
 975  635.3496
 976  648.0234
 977  656.4018
 978  681.1402
 979  659.1708
 980  652.5793
 981  632.8667
 982  699.1027
 983  606.6987
 984  611.0452
 985  547.9956
 986  631.9113
 987  658.8267
 988  766.4908
 989  750.957
 990  689.9636
 991  638.5136
 992  652.639
 993  662.6324
 994  753.0413
 995  743.0367
 996  737.4783
 997  643.9297
 998  616.1093
 999  626.8844
1000  632.8569
1001  651.8027
1002  648.6818
1003  703.5703
1004  737.6983
1005  708.8157
1006  698.2235
1007  671.7889
1008  657.6305
1009  645.5665
1010  646.6958
1011  716.3674
1012  662.3506
1013  628.4769
1014  560.1052
1015  612.7652
1016  643.9933
1017  633.9965
1018  523.2891
1019  483.4061
1020  507.143
1021  624.658
1022  686.1893
1023  743.2956
