# Input file       =  1178785873.103783_cleaned.dat
# Candidate        =  PSR_0332+5434
# Telescope        =  AR
# Epoch_topo       =  57887.355232682676
# Epoch_bary       =  N/A
# T_sample         =  0.002
# Data Folded      =  7340032
# Data Avg         =  0.0875739535185858
# Data StdDev      =  2.72293613058353 
# Profile Bins     =  512
# Profile Avg      =  1255.72619512482 
# Profile StdDev   =  326.025410774769 
# Reduced chi-sqr  =  1.098
# Prob(Noise)      <  0.0611   (~1.5 sigma)
# P_topo (ms)      =  714.533894298019  +/- 0.000251
# P'_topo (s/s)    =  -0                +/- 1.33e-10
# P''_topo (s/s^2) =  0                 +/- 5.85e-14
# P_bary (ms)      =  N/A
# P'_bary (s/s)    =  N/A
# P''_bary (s/s^2) =  N/A
# P_orb (s)        =  N/A
# asin(i)/c (s)    =  N/A
# eccentricity     =  N/A
# w (rad)          =  N/A
# T_peri           =  N/A
######################################################
   0  1169.073
   1  1100.055
   2  1315.698
   3  1583.456
   4  1352.011
   5  1449.368
   6  1219.949
   7  1346.375
   8  1344.354
   9  1509.456
  10  1202.609
  11  1281.871
  12  1402.151
  13  1449.174
  14  1502.369
  15  1465.546
  16  1444.451
  17  1228.875
  18  1334.386
  19  1235.288
  20  1149.159
  21  1104.901
  22  1233.926
  23  1202.246
  24  1200.58
  25  1456.274
  26  1503.597
  27  1686.169
  28  1357.753
  29  1555.587
  30  1574.795
  31  1668.666
  32  1367.943
  33  1175.718
  34  1354.854
  35  1328.223
  36  1438.264
  37  1316.195
  38  1210.123
  39  1444.592
  40  1235.945
  41  1429.994
  42  1567.839
  43  1212.547
  44  1419.365
  45  1370.136
  46  1250.901
  47  1175.805
  48  1173.344
  49  1338.531
  50  1070.005
  51  1021.119
  52  1110.991
  53  1071.97
  54  1173.755
  55  1233.848
  56  1342.719
  57  1638.551
  58  1481.891
  59  1371.737
  60  1212.861
  61  1341.054
  62  1503.807
  63  1386.137
  64  1359.045
  65  1192.924
  66  1460.807
  67  1545.474
  68  1538.486
  69  1308.968
  70  1379.905
  71  1276.562
  72  1178.479
  73  1156.725
  74  1369.269
  75  1441.119
  76  1544.407
  77  1549.296
  78  1397.183
  79  1414.486
  80  1380.708
  81  1429.262
  82  1379.074
  83  1254.455
  84  1012.774
  85  952.3618
  86  1050.148
  87  1062.21
  88  857.2855
  89  1138.417
  90  1449.881
  91  1098.735
  92  1262.626
  93  1685.639
  94  1601.684
  95  1504.448
  96  1152.733
  97  1486.218
  98  1492.638
  99  1402.743
 100  1526.337
 101  1405.463
 102  1574.885
 103  1607.51
 104  1507.706
 105  1185.511
 106  1044.158
 107  1579.487
 108  1753.713
 109  1711.786
 110  1491.483
 111  1488.768
 112  1739.429
 113  2061.002
 114  2369.394
 115  2995.387
 116  2896.83
 117  2488.114
 118  2005.173
 119  1601.147
 120  1456.669
 121  1174.066
 122  1247.492
 123  1358.065
 124  1294.617
 125  1136.308
 126  1169.11
 127  1483.446
 128  1343.761
 129  1081.889
 130  1097.373
 131  1055.355
 132  1525.894
 133  1533.961
 134  1415.102
 135  1212.215
 136  1047.681
 137  860.8693
 138  797.5601
 139  924.2445
 140  941.6949
 141  958.6472
 142  1079.613
 143  1430.735
 144  1343.961
 145  790.7707
 146  874.612
 147  1080.48
 148  997.4576
 149  992.0433
 150  1020.342
 151  1102.818
 152  926.405
 153  1254.761
 154  994.5496
 155  1021.716
 156  886.215
 157  1290.248
 158  1401.31
 159  1062.127
 160  1163.384
 161  1188.245
 162  926.6768
 163  967.7317
 164  1162.042
 165  1060.55
 166  1132.383
 167  1315.553
 168  1290.172
 169  1113.411
 170  1261.564
 171  1090.153
 172  1240.613
 173  1060.339
 174  956.232
 175  1100.481
 176  1327.727
 177  1337.945
 178  1195.477
 179  1092.34
 180  1253.627
 181  1324.834
 182  1413.039
 183  1290.265
 184  988.1219
 185  982.2986
 186  1079.721
 187  1152.228
 188  1156.978
 189  1347.401
 190  1228.163
 191  1062.34
 192  1229.303
 193  1435.291
 194  1417.552
 195  947.7712
 196  1159.274
 197  1400.938
 198  1286.321
 199  1393.758
 200  1438.952
 201  1297.112
 202  1011.132
 203  1226.132
 204  1353.14
 205  1367.943
 206  1513.147
 207  1404.286
 208  1117.671
 209  1268.342
 210  1341.676
 211  1366.373
 212  1273.932
 213  1002.547
 214  1318.571
 215  1463.401
 216  1381.725
 217  1427.406
 218  1444.236
 219  1434.689
 220  1164.128
 221  1147.893
 222  1458.216
 223  1561.966
 224  1311.621
 225  1326.8
 226  1325.021
 227  1284.822
 228  1291.91
 229  1154.201
 230  1329.947
 231  1510.051
 232  1307.842
 233  1340.615
 234  1503.572
 235  1334.397
 236  1241.993
 237  1289.779
 238  1390.992
 239  1435.833
 240  1351.165
 241  1306.195
 242  1367.874
 243  1247.712
 244  1212.681
 245  1258.256
 246  981.0455
 247  1180.822
 248  1471.216
 249  1454.555
 250  1426.804
 251  1527.523
 252  1448.169
 253  1339.546
 254  1235.531
 255  1462.093
 256  1294.897
 257  1089.863
 258  1013.675
 259  1170.68
 260  1101.072
 261  1163.098
 262  1172.909
 263  1120.069
 264  1465.498
 265  1510.317
 266  971.1362
 267  1124.727
 268  1255.482
 269  1306.162
 270  1099.108
 271  1646.869
 272  1533.417
 273  1544.785
 274  1415.877
 275  1243.936
 276  1228.449
 277  1123.285
 278  1308.576
 279  1328.488
 280  1115.084
 281  1144.882
 282  1497.02
 283  1244.734
 284  1180.237
 285  1469.092
 286  1210.518
 287  1173.631
 288  1140.787
 289  1014.031
 290  1098.056
 291  1083.201
 292  993.0244
 293  797.846
 294  1266.939
 295  1298.719
 296  1219.65
 297  1327.854
 298  1131.207
 299  948.0182
 300  919.6098
 301  894.6107
 302  943.3671
 303  1072.512
 304  1136.689
 305  885.6636
 306  739.3716
 307  1072.52
 308  1256.28
 309  959.2394
 310  933.3755
 311  1147.134
 312  1402.207
 313  1517.257
 314  1334.53
 315  999.3087
 316  963.3965
 317  1104.93
 318  1125.624
 319  1233.57
 320  1262.756
 321  1180.125
 322  1535.051
 323  1498.646
 324  1709.562
 325  1435.417
 326  1184.868
 327  1487.035
 328  1334.552
 329  1373.86
 330  1467.23
 331  1506.783
 332  1257.579
 333  1205.396
 334  1152.085
 335  1117.068
 336  1287.154
 337  1331.692
 338  1298.475
 339  1117.706
 340  1238.776
 341  1118.257
 342  1071.765
 343  1019.855
 344  1197.496
 345  1261.122
 346  1042.608
 347  978.0663
 348  760.7557
 349  649.8701
 350  936.2379
 351  1163.972
 352  1185.476
 353  1014.581
 354  1331.324
 355  964.9862
 356  888.9853
 357  872.3174
 358  908.2398
 359  1114.168
 360  1212.02
 361  1283.252
 362  1208.132
 363  1318.134
 364  1023.556
 365  837.1621
 366  1073.891
 367  1176.412
 368  1023.585
 369  1008.627
 370  1324.557
 371  1394.803
 372  1234.739
 373  1204.603
 374  1312.108
 375  1421.49
 376  1449.218
 377  1462.497
 378  1368.302
 379  1532.261
 380  1486.695
 381  1278.887
 382  1251.103
 383  1100.575
 384  1078.741
 385  1148.364
 386  1045.826
 387  1502.255
 388  1168.072
 389  1020.659
 390  945.4503
 391  1087.366
 392  1252.449
 393  1224.476
 394  1374.076
 395  1557.035
 396  1341.491
 397  910.4498
 398  705.4688
 399  1326.771
 400  1423.922
 401  1365.605
 402  1093.345
 403  1048.687
 404  1309.073
 405  1029.341
 406  1112.441
 407  1306.319
 408  1432.892
 409  1203.913
 410  1107.546
 411  1227.263
 412  1168.854
 413  1234.305
 414  1581.195
 415  1316.202
 416  1234.231
 417  1373.923
 418  1191.642
 419  1117.576
 420  1331.158
 421  1620.4
 422  1554.306
 423  1284.722
 424  1167.041
 425  1232.212
 426  1456.086
 427  1632.373
 428  1889.063
 429  1315.639
 430  1081.48
 431  1149.588
 432  1341.332
 433  1251.122
 434  1192.542
 435  1294.794
 436  1513.099
 437  1180.808
 438  1119.182
 439  1406.649
 440  1353.736
 441  997.1482
 442  1198.037
 443  1461.538
 444  1255.65
 445  652.4374
 446  724.4054
 447  1188.844
 448  1208.273
 449  1204.123
 450  998.5365
 451  942.6516
 452  1103.202
 453  1425.373
 454  1355.32
 455  1289.922
 456  1054.5
 457  1280.082
 458  1411.953
 459  1263.442
 460  1069.498
 461  1223.491
 462  1207.227
 463  1027.103
 464  1008.873
 465  939.0519
 466  1035.004
 467  689.8333
 468  642.7241
 469  981.3522
 470  906.7774
 471  740
 472  969.3937
 473  791.0598
 474  678.6317
 475  1101.226
 476  1123.696
 477  1185.626
 478  1047.693
 479  926.8528
 480  1175.809
 481  1180.5
 482  1203.695
 483  1308.003
 484  1203.618
 485  982.027
 486  923.5179
 487  1030.082
 488  1184.71
 489  1225.68
 490  1400.273
 491  1643.68
 492  1482.219
 493  1687.463
 494  1632.082
 495  1489.562
 496  1369.906
 497  1100.815
 498  959.3391
 499  961.9089
 500  1095.411
 501  1197.579
 502  983.4848
 503  1168.14
 504  1238.572
 505  1514.969
 506  1156.143
 507  1178.929
 508  1230.55
 509  1464.941
 510  1412.579
 511  1388.895
