# Input file       =  1178512740.104834_cleaned.dat
# Candidate        =  PSR_0332+5434
# Telescope        =  AR
# Epoch_topo       =  57884.193971120767
# Epoch_bary       =  N/A
# T_sample         =  0.002
# Data Folded      =  7274496
# Data Avg         =  0.636014310015905
# Data StdDev      =  24.2168956254077 
# Profile Bins     =  512
# Profile Avg      =  9036.38963478814 
# Profile StdDev   =  2886.58894601616 
# Reduced chi-sqr  =  1.132
# Prob(Noise)      <  0.0207   (~2.0 sigma)
# P_topo (ms)      =  714.53691085844   +/- 0.000126
# P'_topo (s/s)    =  -0                +/- 6.7e-11
# P''_topo (s/s^2) =  0                 +/- 2.99e-14
# P_bary (ms)      =  N/A
# P'_bary (s/s)    =  N/A
# P''_bary (s/s^2) =  N/A
# P_orb (s)        =  N/A
# asin(i)/c (s)    =  N/A
# eccentricity     =  N/A
# w (rad)          =  N/A
# T_peri           =  N/A
######################################################
   0  10410.95
   1  8460.008
   2  9595.914
   3  11239.43
   4  12899.62
   5  13202.43
   6  11041.16
   7  9433.473
   8  8553.349
   9  9898.113
  10  12375.14
  11  9963.106
  12  8677.229
  13  9821.624
  14  11723.09
  15  10238.57
  16  12853.99
  17  9953.837
  18  8108.892
  19  8977.347
  20  11978.86
  21  13604.58
  22  12072.42
  23  11045.49
  24  8459.557
  25  7405.68
  26  7572.32
  27  11613.5
  28  12967.2
  29  12949.41
  30  11164.21
  31  9262.504
  32  10212.58
  33  10386.78
  34  8146.247
  35  8769.124
  36  11843.22
  37  11708.14
  38  11909.1
  39  9357.628
  40  8717.887
  41  8697.278
  42  9313.288
  43  10868.55
  44  10570.07
  45  13384.75
  46  13235.75
  47  11316.12
  48  11336.79
  49  11673.27
  50  11283.01
  51  10957.06
  52  12801.3
  53  13856.46
  54  11807.09
  55  11354.51
  56  9752.476
  57  8340.262
  58  11496.62
  59  11479.81
  60  9888.885
  61  10171
  62  6573.992
  63  7940.426
  64  9464.71
  65  9555.42
  66  6480.435
  67  7616.465
  68  5680.965
  69  6759.647
  70  9774.25
  71  11091.9
  72  11391.84
  73  8680.266
  74  6154.204
  75  3446.3
  76  7536.41
  77  10681.84
  78  13712.31
  79  13713.53
  80  9103.066
  81  6715.673
  82  5955.433
  83  9287.988
  84  12439.79
  85  14451.7
  86  10297.13
  87  8460.938
  88  7205.896
  89  8120.387
  90  11927.5
  91  12145.65
  92  10899.37
  93  10190.5
  94  11475.41
  95  8945.398
  96  9675.572
  97  11661.69
  98  12898.26
  99  12088.03
 100  10777.02
 101  8857.935
 102  8101.315
 103  9426.74
 104  11520.67
 105  10685
 106  10612.25
 107  8927.725
 108  7524.591
 109  8104.056
 110  9159.408
 111  10948.01
 112  11036.64
 113  10798.2
 114  10248.86
 115  7708.587
 116  6850.944
 117  6753.377
 118  8056.821
 119  10875.84
 120  11487.78
 121  8730.873
 122  8218.272
 123  9080.549
 124  5706.591
 125  4856.21
 126  7098.81
 127  9716.217
 128  9463.306
 129  6545.954
 130  7115.104
 131  8889.112
 132  8298.64
 133  9124.433
 134  6741.23
 135  8138.747
 136  8486.684
 137  10079.55
 138  10060.22
 139  7895.683
 140  7310.877
 141  8202.654
 142  11637.39
 143  12710.92
 144  11576
 145  6865.065
 146  5262.693
 147  5152.992
 148  7065.83
 149  8315.382
 150  8164.243
 151  5444
 152  4563.527
 153  4993.812
 154  7494.785
 155  8243.815
 156  7304.875
 157  4044.353
 158  3098.782
 159  6175.318
 160  6483.581
 161  7741.731
 162  8649.093
 163  9120.061
 164  8254.144
 165  6884.601
 166  4874.606
 167  4872.135
 168  6426.846
 169  6553.763
 170  8002.833
 171  8301.2
 172  7536.817
 173  9228.375
 174  6565.542
 175  6154.431
 176  6945.604
 177  9128.212
 178  5363.451
 179  7896.873
 180  7531.354
 181  9568.418
 182  11774.17
 183  8775.374
 184  6477.168
 185  8094.095
 186  9811.249
 187  10926.84
 188  14891.23
 189  15871.27
 190  9408.457
 191  6016.173
 192  5854.642
 193  8401.62
 194  10735.14
 195  9545.056
 196  6676.831
 197  6605.082
 198  8166.136
 199  9355.951
 200  7445.464
 201  6281.661
 202  5711.173
 203  7453.836
 204  9128.707
 205  9551.347
 206  7461.213
 207  7943.218
 208  7685.222
 209  7404.516
 210  8746.746
 211  9106.189
 212  10098.37
 213  10766.99
 214  7741.187
 215  7104.314
 216  5117.767
 217  7691.973
 218  9582.453
 219  10328.6
 220  9258.719
 221  2681.908
 222  2810.826
 223  6835.285
 224  9731.357
 225  10321.45
 226  10599.07
 227  7314.52
 228  7220.321
 229  7849.019
 230  8947.259
 231  8577.32
 232  8032.349
 233  7413.761
 234  9868.655
 235  13744.34
 236  11541.46
 237  9971.573
 238  6279.457
 239  4782.809
 240  9761.186
 241  13692.54
 242  12930.94
 243  9613.162
 244  6080.721
 245  6975.397
 246  6920.523
 247  10519.34
 248  11088.96
 249  8345.483
 250  6442.176
 251  6029.433
 252  8194.158
 253  9519.062
 254  10447.18
 255  9689.423
 256  7612.83
 257  7616.904
 258  9823.787
 259  10319.01
 260  10428.4
 261  10408.76
 262  8890.437
 263  6888.628
 264  7539.491
 265  9684.479
 266  10463.32
 267  10684
 268  11850.59
 269  9969.293
 270  9234.051
 271  6059.742
 272  9417.175
 273  11121.3
 274  11749.63
 275  10714.8
 276  10105.89
 277  9898.6
 278  11656.11
 279  10428.52
 280  10379.94
 281  8762.469
 282  7553.447
 283  9316.749
 284  10919.25
 285  12527.87
 286  11378.54
 287  13047.11
 288  11907.23
 289  10840.26
 290  9822.708
 291  10485.84
 292  7997.819
 293  8501.519
 294  8004.718
 295  7758.86
 296  6397.221
 297  7410.657
 298  7808.922
 299  7774.351
 300  9252.717
 301  9080.827
 302  7596.703
 303  6113.474
 304  6521.567
 305  7257.078
 306  8977.161
 307  9858.459
 308  11665.01
 309  13142.56
 310  11709.52
 311  11878.51
 312  8962.212
 313  10938.31
 314  8631.09
 315  9497.128
 316  9924.481
 317  11299.15
 318  11406
 319  10103.45
 320  9969.523
 321  7454.786
 322  7284.477
 323  8998.502
 324  10476.26
 325  10961.24
 326  9220.297
 327  8989.771
 328  9812.632
 329  9593.422
 330  8861.712
 331  10137.66
 332  10952.57
 333  10434.41
 334  8026.81
 335  6241.158
 336  5396.492
 337  6983.875
 338  5623.006
 339  7874.709
 340  8698.231
 341  10790.94
 342  7232.186
 343  8879.575
 344  8804.54
 345  3768.751
 346  2778.164
 347  6729.243
 348  7892.119
 349  9411.138
 350  6864.224
 351  5890.648
 352  4955.578
 353  5509.277
 354  7853.902
 355  9336.166
 356  8371.501
 357  6108.153
 358  5356.436
 359  5666.327
 360  6528.53
 361  5619.607
 362  6537.812
 363  6758.221
 364  5953.374
 365  6965.657
 366  9772.461
 367  7381.122
 368  8112.22
 369  5549.117
 370  4530.789
 371  9177.877
 372  8950.366
 373  8412.71
 374  8265.829
 375  6504.014
 376  6268.653
 377  7479.954
 378  6995.796
 379  6853.527
 380  7105.714
 381  7209.387
 382  6893.406
 383  8048.749
 384  8273.119
 385  8066.759
 386  8119.704
 387  9372.621
 388  8680.079
 389  9182.911
 390  10469.51
 391  10985.49
 392  9476.863
 393  8693.271
 394  7643.126
 395  9444.045
 396  9434.509
 397  5554.837
 398  5602.866
 399  6684.859
 400  8577.785
 401  6399.068
 402  3831.44
 403  3416.17
 404  3960.284
 405  4146.117
 406  6419.26
 407  7637.604
 408  6602.929
 409  6303.261
 410  7905.902
 411  6237.931
 412  8424.438
 413  10801.19
 414  8663.903
 415  9587.497
 416  7197.497
 417  8631.6
 418  11249.61
 419  10702.96
 420  11122.2
 421  10490.04
 422  10800.33
 423  10114.95
 424  8797.423
 425  8427.864
 426  10553.71
 427  10705.41
 428  7222.016
 429  6563.265
 430  6963.124
 431  7580.67
 432  7377.543
 433  7106.04
 434  8203.46
 435  7845.768
 436  10149.34
 437  11308.12
 438  8242.388
 439  10660.24
 440  11422.96
 441  10619.95
 442  10433.9
 443  11490.36
 444  11106.42
 445  9764.215
 446  8714.403
 447  8530.421
 448  9531.203
 449  11453.01
 450  10414.55
 451  7697.681
 452  8620.524
 453  9795.955
 454  9806.125
 455  11661.97
 456  10412.54
 457  10731.57
 458  10276.89
 459  10845.18
 460  11830.74
 461  12217.06
 462  13655.09
 463  11015.3
 464  10789.48
 465  11257.94
 466  11567.81
 467  11388.92
 468  10315.11
 469  10390.44
 470  11360.8
 471  10908.01
 472  10012.31
 473  11683.99
 474  11733.34
 475  10187.56
 476  8026.42
 477  7276.023
 478  9090.676
 479  10289.09
 480  11372.6
 481  9145.753
 482  8825.296
 483  7839.443
 484  6237.084
 485  6937.284
 486  9068.624
 487  8334.263
 488  10856.59
 489  10516.19
 490  11581.42
 491  9401.075
 492  7941.137
 493  9802.149
 494  12443.36
 495  13718.81
 496  12881.95
 497  9711.282
 498  8397.132
 499  9974.336
 500  12732.47
 501  14709.94
 502  9156.688
 503  9005.343
 504  6567.354
 505  7608.811
 506  10140.93
 507  11302.02
 508  11420.53
 509  13688.28
 510  12349.93
 511  10434.83
