# Input file       =  1178512740.104834_cleaned.dat
# Candidate        =  PSR_0332+5434
# Telescope        =  AR
# Epoch_topo       =  57884.193971120767
# Epoch_bary       =  N/A
# T_sample         =  0.002
# Data Folded      =  7274496
# Data Avg         =  0.0461947685588847
# Data StdDev      =  1.00011794421713 
# Profile Bins     =  512
# Profile Avg      =  656.289224558197 
# Profile StdDev   =  119.21137404006  
# Reduced chi-sqr  =  0.817
# Prob(Noise)      <  0.999   (~0.0 sigma)
# P_topo (ms)      =  714.536910317276  +/- 0.000122
# P'_topo (s/s)    =  -0                +/- 6.47e-11
# P''_topo (s/s^2) =  0                 +/- 2.88e-14
# P_bary (ms)      =  N/A
# P'_bary (s/s)    =  N/A
# P''_bary (s/s^2) =  N/A
# P_orb (s)        =  N/A
# asin(i)/c (s)    =  N/A
# eccentricity     =  N/A
# w (rad)          =  N/A
# T_peri           =  N/A
######################################################
   0  882.8716
   1  884.2328
   2  802.392
   3  723.1515
   4  618.0841
   5  583.1496
   6  557.6152
   7  444.6219
   8  453.601
   9  470.1197
  10  578.8078
  11  646.1041
  12  723.2739
  13  718.2368
  14  622.5588
  15  566.2067
  16  549.3607
  17  563.6259
  18  633.6471
  19  630.9924
  20  605.123
  21  612.519
  22  578.7527
  23  549.7291
  24  613.0231
  25  645.2906
  26  702.4307
  27  659.5691
  28  666.8312
  29  675.2499
  30  630.7562
  31  621.4654
  32  591.6991
  33  551.2391
  34  505.6891
  35  599.0374
  36  640.373
  37  613.783
  38  523.9125
  39  557.7981
  40  554.8527
  41  432.334
  42  492.403
  43  626.9897
  44  634.8821
  45  733.6846
  46  728.8657
  47  543.3404
  48  549.5541
  49  523.9598
  50  608.2878
  51  631.4539
  52  703.6709
  53  657.3928
  54  600.6954
  55  543.4358
  56  571.0449
  57  537.6183
  58  603.2027
  59  609.8018
  60  657.7452
  61  694.5013
  62  709.7919
  63  631.1614
  64  675.1001
  65  665.2242
  66  608.8249
  67  564.279
  68  609.1235
  69  615.3511
  70  519.3032
  71  468.2679
  72  537.8854
  73  610.8112
  74  543.5316
  75  738.067
  76  672.2551
  77  581.711
  78  675.8406
  79  689.369
  80  710.0385
  81  708.3744
  82  630.914
  83  590.8439
  84  589.6157
  85  545.118
  86  603.0442
  87  705.5896
  88  678.6075
  89  591.4375
  90  649.3171
  91  616.9642
  92  577.9642
  93  674.5097
  94  574.4365
  95  649.7677
  96  703.9797
  97  618.0952
  98  523.2349
  99  530.2015
 100  593.9277
 101  681.1218
 102  589.6476
 103  656.728
 104  620.4314
 105  591.3339
 106  551.0876
 107  520.808
 108  578.8373
 109  587.8553
 110  710.3822
 111  721.7961
 112  707.9905
 113  582.8537
 114  527.354
 115  658.1421
 116  674.0341
 117  715.9772
 118  662.9489
 119  739.0964
 120  741.764
 121  633.2622
 122  652.7452
 123  639.6061
 124  673.7479
 125  673.3254
 126  706.4161
 127  663.1216
 128  733.6024
 129  774.6299
 130  720.0779
 131  774.5036
 132  685.7571
 133  607.0623
 134  658.5759
 135  661.0838
 136  674.3494
 137  758.7462
 138  760.6252
 139  806.7431
 140  811.9861
 141  761.1511
 142  824.255
 143  888.6207
 144  854.5556
 145  842.876
 146  741.0527
 147  739.4673
 148  754.2297
 149  738.7896
 150  674.8233
 151  607.1068
 152  772.9208
 153  809.0249
 154  773.3444
 155  738.7341
 156  640.4546
 157  597.613
 158  735.2946
 159  749.5012
 160  743.9011
 161  686.5318
 162  619.0204
 163  640.5775
 164  623.6772
 165  675.9756
 166  651.666
 167  536.2401
 168  658.2896
 169  822.1507
 170  797.4454
 171  715.9307
 172  678.8018
 173  602.4888
 174  602.519
 175  704.2681
 176  746.433
 177  665.402
 178  707.6272
 179  735.8088
 180  662.8929
 181  616.9038
 182  589.689
 183  562.6117
 184  602.1055
 185  700.6555
 186  629.5347
 187  563.2167
 188  626.9463
 189  590.8129
 190  602.2787
 191  628.0676
 192  688.2566
 193  718.7093
 194  732.5295
 195  768.1935
 196  658.4073
 197  698.2549
 198  577.4107
 199  541.5787
 200  561.2267
 201  638.2077
 202  682.9061
 203  657.3762
 204  668.7431
 205  581.4938
 206  601.3216
 207  664.2477
 208  759.7247
 209  770.9857
 210  788.6841
 211  755.2302
 212  701.2494
 213  660.7018
 214  680.5779
 215  668.2053
 216  653.3876
 217  727.1553
 218  679.8347
 219  565.9023
 220  567.6069
 221  636.53
 222  618.5523
 223  664.6387
 224  699.2841
 225  726.4026
 226  764.0692
 227  662.0947
 228  700.2498
 229  656.4468
 230  665.0848
 231  632.0316
 232  807.1991
 233  692.8624
 234  683.2843
 235  648.5485
 236  677.1954
 237  675.3696
 238  656.9562
 239  743.2613
 240  671.624
 241  653.1528
 242  578.9441
 243  526.1768
 244  659.9055
 245  630.373
 246  566.056
 247  490.2506
 248  573.1223
 249  564.873
 250  594.4999
 251  530.063
 252  538.8951
 253  564.7996
 254  557.2214
 255  572.3332
 256  497.4592
 257  605.4545
 258  748.6268
 259  709.0741
 260  678.1447
 261  630.4571
 262  529.0491
 263  511.9503
 264  606.9334
 265  627.4647
 266  642.4633
 267  686.3631
 268  669.2596
 269  531.5466
 270  567.5499
 271  645.0005
 272  586.7935
 273  584.6912
 274  677.0629
 275  736.9401
 276  774.4198
 277  724.422
 278  777.2615
 279  825.4313
 280  764.5929
 281  727.2039
 282  601.6787
 283  619.7947
 284  705.7605
 285  738.6384
 286  710.1028
 287  693.1057
 288  614.23
 289  613.8217
 290  629.2432
 291  723.6566
 292  753.721
 293  731.8991
 294  697.7541
 295  705.9087
 296  628.1246
 297  651.3651
 298  613.369
 299  674.4096
 300  800.3302
 301  787.0334
 302  660.7105
 303  576.1572
 304  616.1537
 305  604.1268
 306  600.7814
 307  599.8908
 308  641.0547
 309  647.158
 310  659.9243
 311  674.3104
 312  740.6698
 313  727.5455
 314  658.3
 315  650.0017
 316  636.1967
 317  668.658
 318  597.668
 319  632.2361
 320  532.8642
 321  627.5245
 322  634.98
 323  692.0944
 324  721.6705
 325  716.4076
 326  640.5716
 327  573.8635
 328  655.6102
 329  654.8676
 330  619.5002
 331  626.7496
 332  615.944
 333  621.6204
 334  696.0771
 335  685.7614
 336  724.5912
 337  624.3217
 338  622.2407
 339  613.0424
 340  658.6324
 341  737.0183
 342  733.0056
 343  720.1683
 344  740.1819
 345  704.6661
 346  721.0063
 347  764.9955
 348  693.8881
 349  727.3943
 350  751.3046
 351  655.0573
 352  708.3737
 353  693.8159
 354  609.3741
 355  637.61
 356  678.2762
 357  629.9268
 358  719.5229
 359  702.6819
 360  691.8978
 361  657.3408
 362  680.8589
 363  753.1248
 364  652.2462
 365  612.9352
 366  637.729
 367  691.6244
 368  831.8961
 369  883.014
 370  818.1165
 371  645.0984
 372  602.2587
 373  685.0662
 374  748.3272
 375  817.8499
 376  833.0473
 377  696.6596
 378  541.1403
 379  713.1554
 380  684.2038
 381  639.9894
 382  671.3273
 383  739.7989
 384  716.0185
 385  722.0915
 386  613.2144
 387  652.2305
 388  657.0061
 389  597.4908
 390  658.6591
 391  688.0134
 392  722.2492
 393  755.6336
 394  827.9166
 395  752.4687
 396  628.1143
 397  542.8595
 398  686.8578
 399  632.6104
 400  654.4209
 401  645.9141
 402  486.7057
 403  595.906
 404  644.5272
 405  689.2259
 406  727.0137
 407  758.3885
 408  688.2698
 409  603.2888
 410  647.0755
 411  679.3726
 412  668.0601
 413  639.9692
 414  724.8777
 415  719.0309
 416  757.1938
 417  708.709
 418  637.6001
 419  688.8455
 420  633.2492
 421  704.4568
 422  772.1948
 423  776.8379
 424  699.3622
 425  540.13
 426  522.8697
 427  518.7087
 428  609.3961
 429  652.798
 430  586.1633
 431  604.8091
 432  574.0319
 433  493.6388
 434  587.1951
 435  591.645
 436  626.2717
 437  674.4034
 438  594.451
 439  650.6203
 440  669.3614
 441  726.5641
 442  696.0071
 443  642.509
 444  607.1984
 445  508.4692
 446  573.0162
 447  575.4845
 448  691.2234
 449  708.5773
 450  674.8361
 451  634.1954
 452  550.23
 453  557.0998
 454  582.8827
 455  594.1531
 456  654.9568
 457  655.3735
 458  693.6104
 459  702.896
 460  634.1428
 461  644.7921
 462  685.7823
 463  603.1502
 464  605.175
 465  646.9172
 466  734.2756
 467  674.2888
 468  732.8116
 469  688.2817
 470  632.3338
 471  675.05
 472  778.2249
 473  645.7524
 474  542.2749
 475  572.165
 476  619.4542
 477  594.7401
 478  651.8539
 479  593.1595
 480  533.9108
 481  540.5873
 482  675.1319
 483  586.6251
 484  461.598
 485  536.2191
 486  601.4464
 487  690.7097
 488  613.9731
 489  666.8049
 490  789.4327
 491  704.8174
 492  714.1843
 493  732.967
 494  748.7067
 495  699.1154
 496  615.7853
 497  689.9694
 498  735.0766
 499  683.1627
 500  705.1058
 501  688.5234
 502  647.1548
 503  615.2017
 504  742.0809
 505  716.4922
 506  651.8707
 507  588.6664
 508  628.4621
 509  795.8916
 510  844.2998
 511  881.3358
