# Input file       =  1178958166.128444_cleaned.dat
# Candidate        =  PSR_0332+5434
# Telescope        =  AR
# Epoch_topo       =  57889.349364912545
# Epoch_bary       =  N/A
# T_sample         =  0.002
# Data Folded      =  7340032
# Data Avg         =  0.108929441336451
# Data StdDev      =  2.87494677560609 
# Profile Bins     =  1024
# Profile Avg      =  780.806966306027 
# Profile StdDev   =  243.404614425623 
# Reduced chi-sqr  =  0.929
# Prob(Noise)      <  0.948   (~0.0 sigma)
# P_topo (ms)      =  714.531966659314  +/- 0.000317
# P'_topo (s/s)    =  -0                +/- 1.67e-10
# P''_topo (s/s^2) =  0                 +/- 7.39e-14
# P_bary (ms)      =  N/A
# P'_bary (s/s)    =  N/A
# P''_bary (s/s^2) =  N/A
# P_orb (s)        =  N/A
# asin(i)/c (s)    =  N/A
# eccentricity     =  N/A
# w (rad)          =  N/A
# T_peri           =  N/A
######################################################
   0  770.2122
   1  757.6661
   2  781.2485
   3  826.4249
   4  828.965
   5  764.4583
   6  777.8895
   7  713.0653
   8  731.5209
   9  706.3998
  10  879.5999
  11  913.1843
  12  989.7232
  13  915.3091
  14  865.8141
  15  812.146
  16  805.2913
  17  872.0692
  18  854.1618
  19  920.8486
  20  951.3452
  21  951.4006
  22  932.1065
  23  932.9701
  24  963.3059
  25  970.3388
  26  946.6547
  27  1002.224
  28  921.6707
  29  799.1052
  30  755.3309
  31  739.5922
  32  837.7245
  33  796.9995
  34  817.5013
  35  781.7823
  36  765.5509
  37  756.4061
  38  756.8972
  39  765.6778
  40  835.069
  41  934.0359
  42  913.1866
  43  788.6601
  44  712.2365
  45  678.1991
  46  745.6296
  47  743.455
  48  755.8551
  49  804.1606
  50  838.0956
  51  804.79
  52  663.8414
  53  673.2752
  54  786.0781
  55  938.6183
  56  936.416
  57  880.9232
  58  699.0718
  59  613.2462
  60  633.8053
  61  807.3127
  62  952.0308
  63  970.247
  64  850.764
  65  720.9012
  66  763.7881
  67  717.2498
  68  794.3278
  69  740.0366
  70  864.5659
  71  925.2941
  72  988.6382
  73  913.4773
  74  756.7797
  75  758.5938
  76  703.3686
  77  763.6415
  78  736.1136
  79  844.2587
  80  924.5902
  81  947.5793
  82  956.8838
  83  807.951
  84  615.9377
  85  405.6698
  86  445.9584
  87  580.4437
  88  630.1332
  89  615.1533
  90  667.689
  91  788.3693
  92  825.5265
  93  781.2086
  94  578.2349
  95  463.6766
  96  527.3676
  97  738.5982
  98  916.7623
  99  958.5313
 100  947.3397
 101  880.6151
 102  888.8241
 103  829.9077
 104  846.6339
 105  806.5151
 106  808.6479
 107  792.3686
 108  890.6645
 109  868.1367
 110  847.9312
 111  787.4764
 112  827.7542
 113  863.5269
 114  903.3687
 115  965.2966
 116  1016.252
 117  956.9902
 118  836.7026
 119  789.4585
 120  823.0082
 121  833.1407
 122  913.8274
 123  1037.379
 124  1019.674
 125  884.4001
 126  747.9553
 127  744.1545
 128  812.7956
 129  792.1586
 130  820.1833
 131  782.4775
 132  870.6064
 133  841.7656
 134  739.6269
 135  679.2038
 136  759.0385
 137  767.3744
 138  663.739
 139  532.6684
 140  617.2292
 141  712.519
 142  761.2921
 143  716.2717
 144  748.0396
 145  778.4374
 146  898.9476
 147  848.6324
 148  933.0811
 149  898.8712
 150  968.7982
 151  802.3978
 152  802.767
 153  698.3206
 154  785.1821
 155  856.7207
 156  868.5404
 157  940.7772
 158  827.3593
 159  860.8796
 160  772.1769
 161  787.0792
 162  816.4664
 163  918.5776
 164  981.423
 165  1024.482
 166  1059.4
 167  1063.784
 168  950.5095
 169  775.366
 170  780.4009
 171  799.1318
 172  929.8134
 173  984.1581
 174  963.4612
 175  905.1698
 176  856.6248
 177  871.7769
 178  814.5992
 179  876.1066
 180  879.2027
 181  835.1974
 182  674.1558
 183  755.5876
 184  925.7749
 185  1036.587
 186  1050.685
 187  1075.847
 188  1076.993
 189  985.0186
 190  986.8881
 191  958.1567
 192  928.9612
 193  841.2278
 194  720.8898
 195  686.8226
 196  770.9899
 197  887.6937
 198  939.3679
 199  991.6418
 200  990.2806
 201  845.1123
 202  767.1412
 203  763.7582
 204  889.0405
 205  915.2146
 206  979.002
 207  1028.015
 208  1048.082
 209  999.8598
 210  834.7913
 211  707.2911
 212  676.0887
 213  718.8739
 214  872.3904
 215  920.4233
 216  1004.357
 217  916.2261
 218  893.3449
 219  877.687
 220  927.7894
 221  951.2659
 222  799.1157
 223  740.2575
 224  783.3297
 225  825.3787
 226  856.4622
 227  865.5116
 228  870.3375
 229  860.4324
 230  870.3007
 231  863.4415
 232  734.6886
 233  743.0854
 234  715.4761
 235  739.693
 236  626.725
 237  617.7999
 238  649.4468
 239  680.8592
 240  757.0757
 241  847.1652
 242  856.6998
 243  769.2595
 244  639.8371
 245  634.4342
 246  582.0862
 247  657.1658
 248  659.5709
 249  736.7391
 250  715.1049
 251  740.6518
 252  716.9368
 253  777.3958
 254  854.5698
 255  896.2495
 256  799.2755
 257  745.6458
 258  652.7722
 259  694.6054
 260  709.6265
 261  720.4004
 262  654.5707
 263  696.5355
 264  586.6159
 265  526.8268
 266  500.5159
 267  581.8834
 268  668.8717
 269  784.791
 270  925.8331
 271  941.0107
 272  861.7408
 273  774.3929
 274  788.7908
 275  852.7233
 276  898.4137
 277  929.291
 278  993.0036
 279  1054.153
 280  1087.238
 281  991.3163
 282  934.6091
 283  911.8491
 284  944.7589
 285  886.7312
 286  832.784
 287  842.3444
 288  772.3203
 289  658.3417
 290  605.6056
 291  663.587
 292  734.0141
 293  673.5179
 294  673.7559
 295  740.4462
 296  847.7255
 297  876.5471
 298  975.5345
 299  1031.895
 300  998.6668
 301  804.2321
 302  754.9949
 303  788.0384
 304  907.0717
 305  935.0284
 306  942.8401
 307  855.7278
 308  827.0851
 309  778.6214
 310  806.3768
 311  847.4359
 312  883.7665
 313  898.6646
 314  779.314
 315  679.5104
 316  702.1048
 317  802.4763
 318  855.2648
 319  830.2387
 320  813.996
 321  872.0112
 322  896.5397
 323  922.9811
 324  931.8765
 325  931.8862
 326  867.8682
 327  821.2927
 328  753.5648
 329  745.3549
 330  720.197
 331  814.8434
 332  933.3758
 333  916.69
 334  787.5314
 335  723.8831
 336  704.3699
 337  679.3785
 338  643.6357
 339  782.0554
 340  911.2682
 341  989.3379
 342  931.2241
 343  842.0835
 344  732.3087
 345  666.0528
 346  649.9636
 347  797.2631
 348  833.2267
 349  901.1008
 350  735.2424
 351  695.647
 352  679.1221
 353  713.6159
 354  692.5992
 355  732.9111
 356  770.837
 357  819.6237
 358  687.2595
 359  587.5642
 360  443.4861
 361  517.7424
 362  530.0878
 363  694.5261
 364  716.2098
 365  738.196
 366  796.1619
 367  856.9492
 368  929.797
 369  877.9338
 370  920.6031
 371  911.3419
 372  871.2288
 373  843.7894
 374  808.2561
 375  805.7156
 376  712.8561
 377  782.4457
 378  792.523
 379  781.9539
 380  705.8916
 381  600.2177
 382  631.9171
 383  648.686
 384  703.7025
 385  699.0695
 386  804.8152
 387  812.5256
 388  823.1368
 389  748.5796
 390  797.9185
 391  798.9268
 392  780.4846
 393  740.6061
 394  792.0549
 395  820.4427
 396  1005.043
 397  921.3871
 398  857.3891
 399  750.95
 400  767.3137
 401  789.2029
 402  691.5963
 403  698.6191
 404  733.2442
 405  790.0467
 406  742.3063
 407  758.4534
 408  856.1931
 409  859.2963
 410  848.0609
 411  778.386
 412  777.6491
 413  827.6224
 414  889.6945
 415  853.1475
 416  840.6672
 417  711.0195
 418  675.4304
 419  733.066
 420  818.1856
 421  813.0818
 422  729.4605
 423  700.4501
 424  628.3174
 425  672.6241
 426  727.6789
 427  769.5486
 428  751.8812
 429  652.9832
 430  615.3003
 431  610.0422
 432  640.8945
 433  700.6969
 434  758.991
 435  809.0252
 436  815.7166
 437  798.8594
 438  820.1275
 439  856.4745
 440  770.4077
 441  818.4932
 442  815.3599
 443  834.2665
 444  696.0513
 445  673.2427
 446  652.0169
 447  709.9414
 448  832.6471
 449  890.5093
 450  773.347
 451  611.9635
 452  565.0297
 453  708.3202
 454  869.2337
 455  1000.258
 456  953.5129
 457  806.8179
 458  698.5761
 459  608.4901
 460  620.8019
 461  559.9167
 462  543.5908
 463  531.186
 464  612.3911
 465  677.1967
 466  830.2541
 467  766.8502
 468  716.6174
 469  631.8207
 470  652.8785
 471  723.5648
 472  761.0415
 473  724.592
 474  652.0593
 475  600.0862
 476  631.896
 477  744.467
 478  762.1968
 479  822.804
 480  917.3201
 481  937.6253
 482  787.7725
 483  727.6934
 484  652.9214
 485  706.7996
 486  728.5072
 487  736.3569
 488  742.0245
 489  619.7776
 490  641.2685
 491  574.6547
 492  670.06
 493  732.3534
 494  740.3014
 495  764.3309
 496  790.8669
 497  750.1072
 498  737.2473
 499  713.4134
 500  671.5082
 501  697.817
 502  712.3931
 503  814.7827
 504  765.5928
 505  792.1617
 506  798.2949
 507  778.7227
 508  760.4475
 509  665.4412
 510  614.7927
 511  484.3665
 512  483.4477
 513  520.0734
 514  629.7812
 515  691.4778
 516  750.3942
 517  703.4862
 518  724.5395
 519  736.6404
 520  661.1417
 521  675.7002
 522  709.8226
 523  724.676
 524  712.353
 525  672.6339
 526  638.6301
 527  665.8292
 528  806.4447
 529  903.2535
 530  798.8017
 531  692.1648
 532  788.6643
 533  861.7017
 534  857.7507
 535  826.38
 536  780.4235
 537  786.6979
 538  815.1819
 539  856.2797
 540  845.1158
 541  749.9431
 542  652.2664
 543  513.1645
 544  628.5627
 545  705.9615
 546  772.7043
 547  796.2307
 548  696.7298
 549  752.5477
 550  724.0186
 551  778.5319
 552  689.9301
 553  684.7652
 554  760.9174
 555  751.0952
 556  755.3002
 557  753.7959
 558  828.16
 559  882.7496
 560  867.1695
 561  868.0392
 562  803.3014
 563  760.9594
 564  836.4135
 565  908.2349
 566  990.5479
 567  946.6295
 568  795.2127
 569  744.48
 570  814.9527
 571  865.0801
 572  904.524
 573  730.0266
 574  745.8973
 575  793.8738
 576  826.4373
 577  700.925
 578  535.5868
 579  502.4234
 580  561.3577
 581  710.8827
 582  740.7162
 583  758.2328
 584  745.1818
 585  808.1141
 586  858.0919
 587  831.7742
 588  780.7086
 589  795.5139
 590  808.4549
 591  894.4403
 592  845.7213
 593  859.7429
 594  801.5151
 595  742.3885
 596  665.2753
 597  704.0975
 598  838.1912
 599  832.5455
 600  738.3403
 601  681.9337
 602  749.494
 603  724.6261
 604  649.0441
 605  587.9392
 606  698.7769
 607  747.9347
 608  739.5454
 609  597.6322
 610  480.8196
 611  515.7198
 612  618.1444
 613  781.199
 614  826.0979
 615  746.7415
 616  724.64
 617  757.1922
 618  785.8636
 619  724.1442
 620  748.3312
 621  757.2359
 622  762.4003
 623  703.1944
 624  664.2419
 625  796.4482
 626  836.8322
 627  831.3515
 628  778.8054
 629  670.4757
 630  590.6124
 631  554.5527
 632  688.1828
 633  831.5449
 634  819.8519
 635  795.7607
 636  762.5639
 637  777.6955
 638  726.1688
 639  666.2438
 640  738.1818
 641  846.0539
 642  865.8995
 643  719.6062
 644  661.2033
 645  554.7109
 646  547.177
 647  632.3116
 648  684.2873
 649  679.7874
 650  683.5509
 651  725.021
 652  801.6249
 653  845.205
 654  830.0631
 655  860.6677
 656  827.4021
 657  758.8311
 658  798.4556
 659  802.2201
 660  763.8904
 661  681.756
 662  759.0304
 663  823.5084
 664  782.1514
 665  638.4644
 666  658.0484
 667  714.3878
 668  825.4489
 669  850.9551
 670  919.0347
 671  944.0744
 672  965.6462
 673  880.4496
 674  843.9368
 675  733.4029
 676  619.4686
 677  654.1306
 678  630.5986
 679  650.678
 680  672.0605
 681  728.0374
 682  739.522
 683  654.0698
 684  598.4443
 685  641.1225
 686  817.7761
 687  765.6771
 688  604.0751
 689  465.211
 690  568.6164
 691  670.9805
 692  836.1522
 693  867.6827
 694  761.0814
 695  702.4797
 696  700.8182
 697  786.0428
 698  772.3312
 699  707.0292
 700  587.3816
 701  615.8318
 702  643.7186
 703  695.0765
 704  673.905
 705  741.7505
 706  799.3625
 707  808.2056
 708  777.098
 709  640.4423
 710  558.0808
 711  624.3746
 712  665.0911
 713  702.5728
 714  731.6272
 715  771.5088
 716  725.243
 717  698.9777
 718  666.3918
 719  746.515
 720  671.4932
 721  752.4416
 722  782.3671
 723  818.6008
 724  834.2026
 725  869.1189
 726  860.0764
 727  736.775
 728  712.4987
 729  785.9587
 730  873.8738
 731  827.3898
 732  761.1754
 733  660.2509
 734  668.001
 735  770.0306
 736  777.18
 737  728.7484
 738  745.4012
 739  935.5548
 740  1007.775
 741  996.7842
 742  854.6949
 743  868.2857
 744  865.5635
 745  971.2289
 746  978.4764
 747  1043.197
 748  1054.172
 749  1091.249
 750  1113.119
 751  1095.705
 752  1126.781
 753  1295.297
 754  1441.448
 755  1500.479
 756  1450.238
 757  1368.808
 758  1378.165
 759  1295.543
 760  1191.292
 761  1171.084
 762  1118.202
 763  1155.05
 764  1000.665
 765  1038.296
 766  979.7516
 767  989.9618
 768  871.5607
 769  815.7525
 770  751.2852
 771  708.2559
 772  664.9821
 773  748.7187
 774  797.0419
 775  739.9996
 776  668.6245
 777  731.5063
 778  788.69
 779  826.6755
 780  858.005
 781  951.3624
 782  891.037
 783  855.5159
 784  855.5536
 785  857.287
 786  758.1008
 787  709.5493
 788  723.2052
 789  839.8065
 790  786.8619
 791  797.6169
 792  771.5325
 793  790.418
 794  804.3708
 795  831.3513
 796  926.7565
 797  875.0172
 798  909.9183
 799  935.5743
 800  938.5887
 801  781.9553
 802  710.7437
 803  787.5358
 804  848.1546
 805  818.2703
 806  816.3277
 807  717.5522
 808  779.0732
 809  846.7296
 810  929.6956
 811  974.5945
 812  871.3842
 813  916.4962
 814  930.8765
 815  895.3951
 816  773.2871
 817  772.7171
 818  868.4854
 819  828.4358
 820  776.9846
 821  843.973
 822  872.9703
 823  901.1235
 824  890.6229
 825  850.5974
 826  779.6089
 827  683.5098
 828  726.8452
 829  695.9241
 830  719.7426
 831  750.1914
 832  823.8965
 833  851.9971
 834  760.2522
 835  800.2625
 836  698.7009
 837  826.8941
 838  883.1641
 839  1010.721
 840  850.7095
 841  628.1105
 842  542.4898
 843  599.6238
 844  630.5762
 845  679.9384
 846  679.2017
 847  774.451
 848  714.1663
 849  676.8328
 850  724.6952
 851  879.3144
 852  900.2119
 853  854.3132
 854  819.9352
 855  873.1843
 856  934.0742
 857  946.4136
 858  956.9596
 859  940.387
 860  836.2504
 861  787.6405
 862  606.7996
 863  557.0532
 864  539.3759
 865  557.0897
 866  635.2551
 867  721.2976
 868  828.8792
 869  870.6544
 870  909.6397
 871  848.9027
 872  790.865
 873  743.7451
 874  864.7704
 875  1001.556
 876  976.9539
 877  903.3992
 878  903.1761
 879  858.4139
 880  812.7343
 881  693.4202
 882  702.1501
 883  678.9691
 884  719.9537
 885  841.8915
 886  856.4559
 887  743.2079
 888  619.934
 889  658.6433
 890  806.8555
 891  811.8045
 892  828.4124
 893  671.4798
 894  528.3251
 895  448.729
 896  497.4812
 897  559.6541
 898  616.7053
 899  672.4288
 900  734.1838
 901  735.245
 902  684.7042
 903  672.9518
 904  641.5142
 905  617.6422
 906  629.2359
 907  638.4614
 908  630.4868
 909  612.9064
 910  733.4948
 911  797.4376
 912  794.775
 913  705.0696
 914  789.7323
 915  853.5277
 916  935.6914
 917  890.807
 918  877.4097
 919  843.6301
 920  796.6328
 921  743.4195
 922  730.8343
 923  711.9012
 924  697.6861
 925  683.019
 926  789.7819
 927  859.4729
 928  848.9522
 929  779.116
 930  714.3762
 931  736.5432
 932  617.7812
 933  605.329
 934  571.2532
 935  474.483
 936  494.0367
 937  442.375
 938  476.7817
 939  495.7518
 940  610.1413
 941  701.5192
 942  682.7789
 943  673.2621
 944  605.6368
 945  624.4904
 946  553.7886
 947  593.627
 948  562.3612
 949  625.8113
 950  738.7382
 951  753.8074
 952  723.0097
 953  662.4418
 954  658.2165
 955  595.1918
 956  634.895
 957  719.134
 958  816.3228
 959  807.2405
 960  724.6834
 961  680.7728
 962  647.5573
 963  768.009
 964  848.1127
 965  904.4601
 966  809.196
 967  727.5995
 968  680.46
 969  666.4452
 970  703.7107
 971  704.2073
 972  791.0789
 973  767.8134
 974  731.4469
 975  663.4255
 976  705.0654
 977  745.1555
 978  821.3541
 979  840.8607
 980  857.3047
 981  804.0457
 982  704.1222
 983  567.5457
 984  585.1809
 985  702.8008
 986  728.2819
 987  662.3265
 988  546.952
 989  692.1118
 990  665.7421
 991  747.204
 992  814.2615
 993  826.8599
 994  750.2052
 995  663.5219
 996  693.9575
 997  647.5052
 998  546.6758
 999  486.9863
1000  554.0922
1001  636.7912
1002  677.9616
1003  686.8373
1004  750.6198
1005  702.4684
1006  691.3833
1007  710.1868
1008  735.4695
1009  831.5527
1010  789.0375
1011  847.3344
1012  711.3403
1013  666.2444
1014  638.5453
1015  787.002
1016  757.6177
1017  736.3879
1018  714.4743
1019  855.2266
1020  894.8715
1021  863.2948
1022  847.9686
1023  831.4009
