# Input file       =  1178599101.100686_cleaned.dat
# Candidate        =  PSR_0332+5434
# Telescope        =  AR
# Epoch_topo       =  57885.193519683868
# Epoch_bary       =  N/A
# T_sample         =  0.002
# Data Folded      =  7405568
# Data Avg         =  0.038610803959677
# Data StdDev      =  1.00004337774696 
# Profile Bins     =  512
# Profile Avg      =  558.380339921259 
# Profile StdDev   =  120.271587911193 
# Reduced chi-sqr  =  1.492
# Prob(Noise)      <  3.25e-12   (~6.9 sigma)
# P_topo (ms)      =  714.53595427975   +/- 8.12e-05
# P'_topo (s/s)    =  -0                +/- 4.25e-11
# P''_topo (s/s^2) =  0                 +/- 1.86e-14
# P_bary (ms)      =  N/A
# P'_bary (s/s)    =  N/A
# P''_bary (s/s^2) =  N/A
# P_orb (s)        =  N/A
# asin(i)/c (s)    =  N/A
# eccentricity     =  N/A
# w (rad)          =  N/A
# T_peri           =  N/A
######################################################
   0  1068.093
   1  1004.833
   2  798.1185
   3  625.3167
   4  512.7665
   5  579.5919
   6  608.1906
   7  655.1403
   8  625.0349
   9  502.4801
  10  548.8489
  11  577.6927
  12  593.6385
  13  562.8477
  14  495.8158
  15  592.4464
  16  649.6815
  17  616.1226
  18  641.1785
  19  548.9662
  20  448.2993
  21  581.7624
  22  568.7883
  23  603.5758
  24  700.7374
  25  614.0639
  26  594.0496
  27  593.3398
  28  523.2904
  29  564.7292
  30  532.9309
  31  601.2103
  32  566.0159
  33  558.3029
  34  484.4677
  35  596.0317
  36  677.1364
  37  686.2238
  38  633.0505
  39  545.8599
  40  637.6898
  41  504.2937
  42  484.9341
  43  551.432
  44  531.4099
  45  580.2692
  46  484.6083
  47  504.2632
  48  553.0001
  49  628.0059
  50  598.6725
  51  556.9725
  52  635.4958
  53  608.746
  54  607.9362
  55  671.2189
  56  754.6348
  57  730.2243
  58  708.9286
  59  574.104
  60  501.334
  61  489.5439
  62  522.2995
  63  442.9175
  64  501.8167
  65  547.6445
  66  531.0947
  67  569.8867
  68  513.9669
  69  506.3976
  70  551.6024
  71  549.8578
  72  623.9663
  73  652.5153
  74  588.6124
  75  550.8093
  76  472.5073
  77  495.268
  78  508.653
  79  523.985
  80  675.4157
  81  669.5075
  82  570.2488
  83  500.9392
  84  431.2467
  85  447.4769
  86  477.109
  87  550.0147
  88  605.5496
  89  604.2273
  90  573.5615
  91  587.1839
  92  507.8196
  93  427.2087
  94  484.4749
  95  531.1615
  96  535.1566
  97  612.3792
  98  610.0903
  99  674.4904
 100  602.7025
 101  491.8505
 102  492.9687
 103  379.9788
 104  361.7601
 105  558.8458
 106  602.9332
 107  570.9304
 108  567.0049
 109  472.8667
 110  478.8469
 111  529.0503
 112  629.925
 113  594.465
 114  589.0173
 115  585.2227
 116  522.1002
 117  531.2772
 118  472.4791
 119  508.5791
 120  489.6718
 121  563.8782
 122  541.0909
 123  533.2988
 124  571.1552
 125  609.0893
 126  632.2261
 127  498.2352
 128  561.809
 129  550.646
 130  497.9089
 131  475.1234
 132  446.4736
 133  428.4281
 134  451.0555
 135  501.1407
 136  544.225
 137  406.2751
 138  468.1883
 139  557.2776
 140  539.959
 141  473.3534
 142  426.527
 143  322.9878
 144  353.2296
 145  421.3853
 146  456.9186
 147  384.2747
 148  443.1138
 149  449.5014
 150  265.8581
 151  312.0099
 152  419.4645
 153  435.1955
 154  517.1172
 155  553.2573
 156  383.0001
 157  455.9144
 158  449.0636
 159  465.9967
 160  352.941
 161  333.5977
 162  422.5299
 163  464.4555
 164  444.9279
 165  405.5477
 166  355.2839
 167  315.193
 168  295.9414
 169  346.6286
 170  480.4516
 171  548.9556
 172  491.817
 173  467.4265
 174  482.8133
 175  378.7764
 176  261.3629
 177  326.3828
 178  297.5329
 179  331.3698
 180  303.009
 181  381.3979
 182  423.5576
 183  437.149
 184  448.611
 185  317.3504
 186  335.9939
 187  419.1255
 188  467.0018
 189  484.446
 190  526.1711
 191  602.514
 192  484.9593
 193  470.0113
 194  525.4229
 195  586.8442
 196  472.6829
 197  532.3892
 198  642.2753
 199  685.429
 200  571.1033
 201  562.5813
 202  563.55
 203  479.3888
 204  572.4344
 205  612.0667
 206  560.2694
 207  511.4748
 208  536.223
 209  498.3581
 210  498.6054
 211  458.9682
 212  456.4116
 213  518.1659
 214  479.2307
 215  555.0105
 216  409.3099
 217  347.9736
 218  362.7673
 219  437.8935
 220  581.1005
 221  515.8848
 222  585.8207
 223  593.1922
 224  542.752
 225  469.2999
 226  565.8892
 227  473.6475
 228  426.5925
 229  491.8165
 230  608.7864
 231  532.4745
 232  362.4398
 233  418.35
 234  384.7519
 235  469.1131
 236  505.3626
 237  506.6973
 238  574.6825
 239  607.1462
 240  576.6915
 241  514.158
 242  566.927
 243  560.0323
 244  511.5509
 245  483.8057
 246  478.505
 247  461.1783
 248  497.2134
 249  519.1088
 250  602.1042
 251  653.6447
 252  586.1075
 253  587.5994
 254  599.9841
 255  685.3397
 256  708.3893
 257  658.1756
 258  642.1178
 259  488.9749
 260  469.4188
 261  519.9512
 262  664.501
 263  715.8324
 264  599.0924
 265  552.482
 266  477.8547
 267  413.6521
 268  471.2343
 269  545.8115
 270  564.1278
 271  623.7425
 272  612.015
 273  521.7098
 274  537.0594
 275  467.9895
 276  530.9044
 277  507.4842
 278  503.8469
 279  569.0499
 280  564.4422
 281  693.716
 282  671.0222
 283  606.3499
 284  541.3547
 285  535.004
 286  589.7342
 287  568.3373
 288  542.58
 289  627.2366
 290  676.5103
 291  594.4698
 292  536.4443
 293  525.248
 294  631.7885
 295  447.0148
 296  525.034
 297  532.2204
 298  528.6367
 299  521.2448
 300  527.1335
 301  547.4024
 302  626.4538
 303  675.7826
 304  662.3849
 305  600.6577
 306  527.1339
 307  508.9565
 308  537.106
 309  566.6904
 310  591.4209
 311  523.2628
 312  532.7215
 313  572.7761
 314  600.0655
 315  550.4297
 316  461.8283
 317  544.1394
 318  608.2849
 319  590.8576
 320  672.5281
 321  750.4752
 322  760.5441
 323  712.1182
 324  712.9662
 325  691.5278
 326  508.5691
 327  496.1928
 328  581.1924
 329  671.1321
 330  705.4545
 331  660.226
 332  667.9957
 333  590.4843
 334  560.1222
 335  674.5857
 336  656.0142
 337  587.7277
 338  567.8787
 339  539.6345
 340  492.3664
 341  546.4481
 342  492.0175
 343  528.3253
 344  487.4133
 345  466.5002
 346  556.6669
 347  470.0078
 348  433.0415
 349  427.4826
 350  475.2042
 351  416.9919
 352  536.1685
 353  607.7539
 354  656.8815
 355  633.9149
 356  661.7284
 357  623.5671
 358  588.6076
 359  456.5381
 360  483.2034
 361  542.1949
 362  654.2117
 363  537.8812
 364  510.9513
 365  525.8207
 366  421.0859
 367  324.9145
 368  437.5122
 369  590.0484
 370  593.5556
 371  600.0671
 372  610.7706
 373  625.7043
 374  559.9577
 375  522.0039
 376  665.2023
 377  633.6735
 378  559.4697
 379  545.8647
 380  561.8983
 381  660.0234
 382  653.2513
 383  610.0262
 384  524.9729
 385  587.6591
 386  607.2592
 387  550.5793
 388  605.6208
 389  576.3309
 390  569.2946
 391  557.2437
 392  582.8691
 393  574.2224
 394  425.8462
 395  520.6373
 396  482.8348
 397  529.6179
 398  533.7621
 399  603.8676
 400  514.0927
 401  554.8068
 402  546.6172
 403  528.9463
 404  560.9187
 405  539.5612
 406  641.0345
 407  622.3817
 408  521.4947
 409  480.5904
 410  457.8874
 411  529.895
 412  580.2122
 413  586.1105
 414  598.996
 415  574.3302
 416  624.9031
 417  598.389
 418  508.7378
 419  604.8741
 420  710.1043
 421  623.3022
 422  546.2015
 423  515.3598
 424  478.7941
 425  370.8849
 426  293.27
 427  400.2275
 428  528.3514
 429  595.2918
 430  545.0026
 431  513.5565
 432  442.1559
 433  423.7544
 434  424.1746
 435  454.4775
 436  597.3288
 437  645.3292
 438  671.1954
 439  625.8293
 440  587.5563
 441  490.5974
 442  514.0403
 443  653.1537
 444  723.3122
 445  656.4355
 446  720.1402
 447  728.5007
 448  649.9965
 449  667.6987
 450  674.1771
 451  623.8272
 452  700.0238
 453  806.1733
 454  827.4439
 455  798.3898
 456  738.6448
 457  740.0547
 458  731.2128
 459  704.9812
 460  760.0692
 461  782.4146
 462  756.5936
 463  702.219
 464  675.0531
 465  740.2425
 466  662.6282
 467  626.4895
 468  723.9159
 469  845.892
 470  859.7664
 471  844.5306
 472  628.1239
 473  544.4109
 474  598.4518
 475  589.0004
 476  612.2252
 477  626.4037
 478  555.1873
 479  608.7114
 480  629.8226
 481  555.1311
 482  635.3555
 483  762.2297
 484  736.9866
 485  679.4089
 486  676.5757
 487  619.1877
 488  655.5724
 489  670.792
 490  700.7268
 491  694.8596
 492  672.7612
 493  645.2404
 494  574.5673
 495  577.9572
 496  581.7635
 497  522.7338
 498  485.6062
 499  511.7543
 500  501.4152
 501  579.3352
 502  671.658
 503  738.3458
 504  734.2759
 505  733.0092
 506  655.308
 507  632.3015
 508  674.8317
 509  814.376
 510  820.8919
 511  974.3005
