# Input file       =  1178872053.113042_cleaned.dat
# Candidate        =  PSR_0332+5434
# Telescope        =  AR
# Epoch_topo       =  57888.352686493541
# Epoch_bary       =  N/A
# T_sample         =  0.002
# Data Folded      =  7340032
# Data Avg         =  0.0536726598210017
# Data StdDev      =  2.30762017894956 
# Profile Bins     =  512
# Profile Avg      =  769.456554552009 
# Profile StdDev   =  276.298370829927 
# Reduced chi-sqr  =  1.581
# Prob(Noise)      <  9.84e-16   (~7.9 sigma)
# P_topo (ms)      =  714.532932259719  +/- 0.000199
# P'_topo (s/s)    =  -0                +/- 1.05e-10
# P''_topo (s/s^2) =  0                 +/- 4.64e-14
# P_bary (ms)      =  N/A
# P'_bary (s/s)    =  N/A
# P''_bary (s/s^2) =  N/A
# P_orb (s)        =  N/A
# asin(i)/c (s)    =  N/A
# eccentricity     =  N/A
# w (rad)          =  N/A
# T_peri           =  N/A
######################################################
   0  1115.343
   1  1078.647
   2  1028.603
   3  891.1025
   4  893.1566
   5  864.639
   6  689.346
   7  881.4921
   8  773.508
   9  751.3663
  10  1056.501
  11  1108.856
  12  856.4824
  13  818.2487
  14  813.0117
  15  892.16
  16  745.383
  17  647.5164
  18  1003.855
  19  911.2517
  20  910.6428
  21  875.4391
  22  776.7878
  23  661.0168
  24  440.9469
  25  762.8342
  26  760.0308
  27  633.6045
  28  895.5306
  29  821.8852
  30  647.61
  31  830.7095
  32  958.076
  33  868.9941
  34  955.1453
  35  979.8901
  36  1031.47
  37  916.5924
  38  1152.299
  39  1058.449
  40  1179.439
  41  1189.647
  42  1140.714
  43  1481.526
  44  2048.477
  45  2129.234
  46  2313.006
  47  2225.613
  48  2043.451
  49  1372.646
  50  1078.043
  51  1100.284
  52  1192.728
  53  808.9626
  54  749.7928
  55  961.5459
  56  1224.686
  57  1168.101
  58  962.4285
  59  744.1662
  60  1058.11
  61  1079.245
  62  1051.262
  63  719.8033
  64  750.8318
  65  1024.954
  66  720.3937
  67  835.537
  68  757.1096
  69  753.0871
  70  846.0209
  71  984.3801
  72  953.6374
  73  1114.458
  74  1023.973
  75  955.3597
  76  736.0587
  77  406.412
  78  548.9599
  79  742.964
  80  934.7358
  81  891.3125
  82  793.0154
  83  1019.984
  84  1058.661
  85  901.6673
  86  862.3423
  87  785.4746
  88  494.47
  89  726.2154
  90  652.1472
  91  681.2222
  92  564.5529
  93  518.4706
  94  691.3997
  95  874.4726
  96  1017.466
  97  687.0811
  98  851.3896
  99  905.7499
 100  747.329
 101  586.6155
 102  550.6552
 103  552.2604
 104  554.2452
 105  609.3154
 106  623.8977
 107  726.7985
 108  924.6275
 109  968.0893
 110  1010.251
 111  1070.322
 112  1089.668
 113  1148.161
 114  876.7799
 115  825.5609
 116  1168.848
 117  1046.014
 118  596.9449
 119  401.0441
 120  409.6473
 121  732.3728
 122  981.8296
 123  853.105
 124  779.8147
 125  719.5278
 126  721.4931
 127  839.8521
 128  751.2288
 129  949.1218
 130  1004.255
 131  976.3095
 132  1295.332
 133  1255.799
 134  907.1134
 135  926.8981
 136  911.9583
 137  674.4412
 138  760.0446
 139  1227.486
 140  1384.548
 141  1073.2
 142  822.3328
 143  726.6519
 144  743.0989
 145  902.4231
 146  822.2673
 147  555.557
 148  764.9491
 149  942.3563
 150  949.6869
 151  752.061
 152  634.7027
 153  724.2014
 154  683.1407
 155  743.7479
 156  824.4868
 157  730.2149
 158  886.5671
 159  754.2385
 160  785.9756
 161  647.2392
 162  615.3826
 163  867.8862
 164  925.6526
 165  920.9272
 166  752.0197
 167  578.5955
 168  809.8572
 169  850.5113
 170  648.1953
 171  675.9516
 172  609.0112
 173  755.6359
 174  1095.287
 175  862.7213
 176  797.989
 177  1014.862
 178  748.3944
 179  811.866
 180  865.5447
 181  853.8831
 182  830.9584
 183  744.3243
 184  670.8667
 185  976.7074
 186  1021.966
 187  854.6389
 188  710.7644
 189  745.3762
 190  693.1335
 191  634.2795
 192  742.6668
 193  1081.157
 194  689.0424
 195  462.7473
 196  906.32
 197  1073.1
 198  1208.532
 199  1286.698
 200  868.116
 201  779.069
 202  712.4112
 203  684.5172
 204  729.2053
 205  518.2467
 206  286.8092
 207  514.0703
 208  559.0325
 209  599.3508
 210  408.2577
 211  595.2605
 212  802.3098
 213  584.3959
 214  665.1661
 215  876.6116
 216  972.5344
 217  956.3111
 218  864.2065
 219  791.7848
 220  1005.515
 221  900.633
 222  781.384
 223  714.2294
 224  699.971
 225  569.3101
 226  583.9835
 227  742.513
 228  763.6385
 229  481.5478
 230  680.907
 231  729.6793
 232  828.8167
 233  544.6906
 234  529.262
 235  788.4482
 236  1037.943
 237  854.2489
 238  574.4752
 239  613.0342
 240  675.4868
 241  634.7034
 242  787.3246
 243  802.7277
 244  635.1645
 245  475.5735
 246  486.9508
 247  419.7172
 248  164.5607
 249  512.0682
 250  736.4216
 251  556.1244
 252  676.9954
 253  813.2585
 254  788.6905
 255  610.0013
 256  595.345
 257  686.8151
 258  751.1863
 259  625.6122
 260  674.5287
 261  627.1524
 262  708.1945
 263  661.6697
 264  398.9336
 265  476.9341
 266  433.8604
 267  275.5849
 268  531.0068
 269  530.9562
 270  443.1135
 271  715.4588
 272  645.6447
 273  844.9888
 274  558.5847
 275  649.5499
 276  834.9709
 277  899.5505
 278  907.8017
 279  515.1629
 280  112.3634
 281  334.3254
 282  477.956
 283  563.0075
 284  592.8402
 285  371.821
 286  298.7782
 287  539.2381
 288  501.7474
 289  642.3971
 290  615.8677
 291  478.9308
 292  495.6726
 293  681.8771
 294  480.775
 295  392.0999
 296  488.5297
 297  751.0526
 298  963.7749
 299  607.3214
 300  712.0709
 301  629.2946
 302  683.4646
 303  591.5641
 304  765.329
 305  816.7274
 306  750.0752
 307  766.9011
 308  1012.297
 309  963.0601
 310  760.8688
 311  762.0914
 312  833.2021
 313  819.8717
 314  795.0258
 315  746.8414
 316  901.3164
 317  737.8191
 318  477.0009
 319  604.2814
 320  710.6469
 321  743.4498
 322  623.7227
 323  777.2767
 324  786.4173
 325  660.5466
 326  1048.823
 327  1087.428
 328  861.9505
 329  725.6829
 330  586.4911
 331  918.9958
 332  1025.101
 333  903.9527
 334  729.4023
 335  717.5803
 336  901.7843
 337  782.5784
 338  543.6373
 339  325.6237
 340  412.4621
 341  384.816
 342  734.1218
 343  778.7067
 344  947.0809
 345  671.6245
 346  352.6394
 347  582.7885
 348  682.0027
 349  921.21
 350  1003.64
 351  957.7335
 352  754.9649
 353  560.8116
 354  374.8275
 355  481.8689
 356  775.5066
 357  899.9642
 358  678.4987
 359  702.5104
 360  944.3256
 361  743.3413
 362  754.2827
 363  673.6976
 364  600.9329
 365  639.7188
 366  736.8943
 367  789.6007
 368  729.7747
 369  295.6918
 370  331.4054
 371  753.2208
 372  774.1296
 373  746.728
 374  620.3623
 375  522.6622
 376  809.6252
 377  936.1638
 378  772.0476
 379  756.498
 380  637.2856
 381  592.4803
 382  747.6183
 383  679.9109
 384  702.3925
 385  697.9318
 386  747.4188
 387  724.48
 388  469.3499
 389  609.2381
 390  684.1949
 391  935.1368
 392  723.5762
 393  636.2631
 394  481.8684
 395  412.7003
 396  325.576
 397  335.7806
 398  347.1963
 399  616.8206
 400  882.3445
 401  500.8011
 402  464.9108
 403  438.5023
 404  265.2965
 405  186.0183
 406  557.0098
 407  715.1378
 408  616.1804
 409  475.7656
 410  694.027
 411  604.5534
 412  657.9128
 413  637.6233
 414  496.1219
 415  459.0241
 416  369.3486
 417  432.8106
 418  599.5449
 419  831.6467
 420  676.1187
 421  429.3644
 422  857.874
 423  568.2885
 424  638.4457
 425  752.8403
 426  426.765
 427  467.1127
 428  543.8799
 429  731.5169
 430  748.2896
 431  713.242
 432  571.4796
 433  471.3287
 434  481.6331
 435  367.8421
 436  275.4544
 437  580.7974
 438  924.0137
 439  721.1907
 440  699.6699
 441  874.3843
 442  848.936
 443  741.4952
 444  781.4273
 445  720.0771
 446  963.9433
 447  770.2762
 448  1016.407
 449  1117.508
 450  653.6505
 451  419.8328
 452  513.2523
 453  734.1753
 454  693.5259
 455  519.8329
 456  906.8573
 457  703.192
 458  735.4807
 459  858.8533
 460  762.8583
 461  548.6928
 462  679.7944
 463  734.7748
 464  792.3088
 465  976.4509
 466  882.8423
 467  817.6755
 468  687.5936
 469  690.1772
 470  1044.129
 471  1134.88
 472  1099.77
 473  771.2173
 474  701.5354
 475  700.4709
 476  786.0128
 477  1021.295
 478  789.0459
 479  722.8689
 480  881.2582
 481  840.962
 482  683.6635
 483  860.593
 484  920.4584
 485  613.4738
 486  732.7575
 487  770.6663
 488  1054.558
 489  871.099
 490  558.1924
 491  507.2178
 492  802.0702
 493  889.8353
 494  563.5525
 495  683.4078
 496  837.8516
 497  893.4211
 498  1254.161
 499  1299.543
 500  1045.892
 501  1265.626
 502  1191.172
 503  1088.919
 504  976.4022
 505  922.3058
 506  872.6562
 507  1027.311
 508  910.9347
 509  654.3059
 510  633.3459
 511  918.5139
