# Input file       =  1178527507.106305_cleaned.dat
# Candidate        =  PSR_0332+5434
# Telescope        =  AR
# Epoch_topo       =  57884.364885489638
# Epoch_bary       =  N/A
# T_sample         =  0.002
# Data Folded      =  7340032
# Data Avg         =  0.12435493715228 
# Data StdDev      =  5.40689146470504 
# Profile Bins     =  1024
# Profile Avg      =  891.347843601083 
# Profile StdDev   =  457.769285808874 
# Reduced chi-sqr  =  1.171
# Prob(Noise)      <  0.000115   (~3.7 sigma)
# P_topo (ms)      =  714.536760771469  +/- 6.66e-05
# P'_topo (s/s)    =  -0                +/- 3.51e-11
# P''_topo (s/s^2) =  0                 +/- 1.55e-14
# P_bary (ms)      =  N/A
# P'_bary (s/s)    =  N/A
# P''_bary (s/s^2) =  N/A
# P_orb (s)        =  N/A
# asin(i)/c (s)    =  N/A
# eccentricity     =  N/A
# w (rad)          =  N/A
# T_peri           =  N/A
######################################################
   0  1254.93
   1  1055.81
   2  1001.093
   3  590.6113
   4  528.3328
   5  710.6503
   6  1165.178
   7  1382.832
   8  1276.14
   9  1091.674
  10  872.5482
  11  959.6784
  12  851.2986
  13  1003.196
  14  885.6871
  15  821.8874
  16  841.907
  17  812.7741
  18  836.2351
  19  613.4387
  20  511.4616
  21  573.5378
  22  682.8329
  23  959.2194
  24  937.3908
  25  1187.74
  26  1093.952
  27  1166.319
  28  1058.306
  29  1002.662
  30  1033.859
  31  923.2634
  32  1010.367
  33  1047.922
  34  1206.967
  35  940.9025
  36  688.8785
  37  410.9651
  38  786.3227
  39  804.008
  40  734.3419
  41  601.9991
  42  708.2156
  43  1129.848
  44  1229.682
  45  1305.452
  46  1005.203
  47  925.931
  48  926.436
  49  1137.828
  50  1310.691
  51  1264.089
  52  1219.541
  53  999.3229
  54  981.6517
  55  926.5935
  56  1057.643
  57  1101.038
  58  930.9464
  59  971.1498
  60  1083.463
  61  1202.822
  62  1257.478
  63  1293.176
  64  1606.227
  65  1485.761
  66  1265.146
  67  850.6991
  68  785.0747
  69  838.5278
  70  1090.957
  71  1078.547
  72  1234.583
  73  958.6498
  74  1039.504
  75  1059.447
  76  1116.089
  77  977.886
  78  757.7224
  79  870.5468
  80  914.7831
  81  840.2256
  82  855.1158
  83  999.4142
  84  1175.681
  85  1073.84
  86  1057.947
  87  1172.311
  88  1035.673
  89  701.7053
  90  564.9879
  91  795.6346
  92  944.7738
  93  868.154
  94  726.8017
  95  922.7654
  96  1062.552
  97  1100.028
  98  1042.683
  99  1024.293
 100  937.6519
 101  782.7983
 102  661.8388
 103  647.0058
 104  585.7052
 105  631.5918
 106  771.2059
 107  899.2473
 108  990.662
 109  1191.484
 110  1406.684
 111  1547.17
 112  1426.327
 113  1286.273
 114  1244.462
 115  1225.01
 116  1278.374
 117  1150.996
 118  1225.835
 119  1073.054
 120  1059.261
 121  1164.993
 122  1166.106
 123  1257.685
 124  1057.924
 125  1010.097
 126  888.6049
 127  855.3849
 128  887.2676
 129  962.176
 130  1176.255
 131  1216.048
 132  1070.166
 133  961.6482
 134  1178.062
 135  1294.549
 136  1079.395
 137  899.7603
 138  839.1813
 139  1005.362
 140  1085.214
 141  1120.895
 142  1206.16
 143  973.3874
 144  965.5724
 145  792.0031
 146  687.0357
 147  486.5132
 148  481.4212
 149  780.7059
 150  867.3618
 151  796.6994
 152  649.5419
 153  701.7968
 154  646.5772
 155  667.9964
 156  479.3481
 157  377.2104
 158  423.1926
 159  546.9033
 160  684.8862
 161  824.3401
 162  927.3109
 163  909.0724
 164  979.0338
 165  1024.562
 166  1056.389
 167  866.5844
 168  760.6259
 169  747.6318
 170  888.6318
 171  1126.663
 172  1086.917
 173  920.1794
 174  883.5625
 175  1044.442
 176  1213.802
 177  1024.497
 178  626.1685
 179  476.3791
 180  472.1667
 181  566.8536
 182  576.7093
 183  671.8675
 184  791.6942
 185  748.4369
 186  843.3754
 187  860.8723
 188  976.2446
 189  441.3355
 190  215.9416
 191  226.1918
 192  557.6695
 193  569.9583
 194  489.1447
 195  622.6528
 196  736.4968
 197  883.4427
 198  907.5941
 199  871.8707
 200  761.0662
 201  343.6013
 202  323.7439
 203  464.3808
 204  571.0821
 205  491.9714
 206  437.6302
 207  697.638
 208  575.1219
 209  728.0272
 210  940.7152
 211  1134.847
 212  952.7867
 213  776.4216
 214  851.1031
 215  748.4147
 216  693.4767
 217  603.8781
 218  838.3972
 219  712.0623
 220  647.0436
 221  669.1628
 222  1020.832
 223  1001.244
 224  883.4436
 225  1118.141
 226  1179.06
 227  1140.012
 228  1071.492
 229  1286.99
 230  1327.963
 231  1004.228
 232  866.1877
 233  766.4688
 234  875.0562
 235  788.4376
 236  908.5638
 237  918.6402
 238  858.1923
 239  912.1475
 240  819.7549
 241  673.0799
 242  598.7469
 243  630.5028
 244  825.2946
 245  766.1965
 246  683.2512
 247  641.9896
 248  841.9744
 249  911.184
 250  782.3052
 251  636.6949
 252  591.485
 253  391.0788
 254  241.8916
 255  309.6917
 256  439.9198
 257  427.6762
 258  495.873
 259  455.3037
 260  603.3826
 261  685.6232
 262  780.7158
 263  890.7101
 264  859.7117
 265  895.0022
 266  673.1016
 267  586.2896
 268  689.5336
 269  721.8263
 270  761.8703
 271  685.2514
 272  826.8259
 273  806.1866
 274  692.1439
 275  780.2572
 276  819.0569
 277  952.5074
 278  967.8029
 279  1059.854
 280  1165.656
 281  1036.038
 282  935.0576
 283  815.4333
 284  876.353
 285  646.6443
 286  633.6476
 287  734.1437
 288  769.5838
 289  694.799
 290  401.2825
 291  436.0961
 292  308.551
 293  425.7025
 294  362.6989
 295  474.8108
 296  378.9959
 297  491.5021
 298  677.6699
 299  908.814
 300  906.5438
 301  846.0284
 302  662.4434
 303  584.8087
 304  491.8334
 305  449.7678
 306  609.3735
 307  594.1627
 308  848.0239
 309  730.4959
 310  734.5781
 311  586.7725
 312  628.2464
 313  647.6635
 314  679.3177
 315  737.0972
 316  741.2277
 317  543.5513
 318  457.7174
 319  421.366
 320  611.6105
 321  768.8384
 322  817.9984
 323  776.5308
 324  627.8575
 325  478.6493
 326  332.55
 327  401.0033
 328  641.8995
 329  857.2585
 330  849.3662
 331  825.0906
 332  743.5139
 333  903.7808
 334  885.2339
 335  752.8381
 336  576.2661
 337  444.0944
 338  451.6897
 339  383.0166
 340  436.5575
 341  582.2224
 342  546.7303
 343  535.0491
 344  621.7322
 345  715.6544
 346  699.0649
 347  441.6189
 348  421.8922
 349  340.7546
 350  281.5215
 351  284.3781
 352  442.3642
 353  680.3991
 354  646.9259
 355  544.3625
 356  458.3875
 357  600.7554
 358  520.488
 359  374.5584
 360  484.1267
 361  460.577
 362  351.8698
 363  134.4769
 364  398.0023
 365  689.2144
 366  819.3381
 367  756.4175
 368  537.9394
 369  596.6078
 370  496.1656
 371  509.6512
 372  354.1371
 373  530.1308
 374  686.7475
 375  805.5525
 376  1033.478
 377  1017.521
 378  1043.294
 379  922.5023
 380  1068.36
 381  902.8759
 382  651.2233
 383  404.3547
 384  497.2108
 385  756.7171
 386  918.4494
 387  932.1619
 388  912.9564
 389  888.3503
 390  703.7283
 391  703.4427
 392  671.3986
 393  784.2947
 394  620.0374
 395  549.2171
 396  555.5975
 397  519.975
 398  669.0244
 399  851.8214
 400  966.9808
 401  923.7338
 402  930.1279
 403  885.1089
 404  849.8242
 405  560.137
 406  444.6559
 407  349.0793
 408  364.4691
 409  453.9948
 410  631.2697
 411  912.8881
 412  1159.755
 413  1173.258
 414  1040.212
 415  875.0718
 416  735.8551
 417  462.4203
 418  401.5138
 419  506.1661
 420  761.4585
 421  841.3754
 422  960.1708
 423  1099.009
 424  1139.314
 425  1225.449
 426  1108.901
 427  916.6743
 428  517.6348
 429  575.6625
 430  599.87
 431  673.2197
 432  750.5167
 433  908.2281
 434  1094.493
 435  1099.361
 436  1024.658
 437  1058.831
 438  797.5982
 439  811.4913
 440  506.9965
 441  639.2771
 442  750.0256
 443  910.0632
 444  921.5718
 445  947.7393
 446  999.5316
 447  953.4437
 448  1097.325
 449  1132.948
 450  988.6378
 451  505.065
 452  448.6512
 453  610.9715
 454  739.7747
 455  860.2572
 456  874.5577
 457  961.8061
 458  924.9541
 459  904.8679
 460  868.9603
 461  840.981
 462  830.0064
 463  841.0515
 464  861.9104
 465  923.1632
 466  858.0036
 467  734.052
 468  762.7239
 469  871.3287
 470  587.5256
 471  469.1491
 472  449.4583
 473  553.1029
 474  431.9211
 475  473.9603
 476  741.2523
 477  1017.116
 478  1100.007
 479  992.2063
 480  917.9781
 481  717.8583
 482  491.4151
 483  429.8372
 484  536.3936
 485  485.2918
 486  448.9707
 487  553.1642
 488  854.8979
 489  926.6199
 490  844.3577
 491  758.8849
 492  565.6338
 493  452.705
 494  342.9288
 495  486.9703
 496  507.2382
 497  631.0764
 498  876.2977
 499  966.4664
 500  919.2825
 501  785.1417
 502  886.8295
 503  814.9689
 504  770.9177
 505  700.7568
 506  650.706
 507  666.9706
 508  770.8566
 509  822.006
 510  897.7311
 511  950.7286
 512  939.2255
 513  959.9019
 514  765.2555
 515  710.4049
 516  756.1895
 517  713.8014
 518  816.643
 519  867.951
 520  1237.479
 521  1321.002
 522  1205.783
 523  977.6775
 524  939.424
 525  816.7514
 526  975.9883
 527  914.2799
 528  1065.279
 529  905.4751
 530  889.9061
 531  948.4089
 532  967.6024
 533  1002.72
 534  1027.457
 535  1201.948
 536  1268.96
 537  970.8558
 538  893.869
 539  812.5182
 540  995.165
 541  1143.544
 542  1257.334
 543  1453.458
 544  1421.174
 545  1335.922
 546  1380.305
 547  1586.38
 548  1608.454
 549  1193.491
 550  709.018
 551  643.2828
 552  723.2953
 553  926.0225
 554  989.6319
 555  983.3937
 556  906.8476
 557  973.3878
 558  1030.538
 559  1156.307
 560  940.4738
 561  947.7283
 562  996.9225
 563  1091.433
 564  944.4852
 565  682.4667
 566  834.2805
 567  961.28
 568  1199.767
 569  1335.13
 570  1379.468
 571  1150.327
 572  775.1591
 573  801.2368
 574  757.2521
 575  889.9146
 576  882.6002
 577  1176.398
 578  1211.528
 579  990.1409
 580  811.6418
 581  966.4753
 582  1165.872
 583  1119.247
 584  838.3135
 585  706.3752
 586  870.5565
 587  849.4062
 588  952.4778
 589  996.6987
 590  1076.729
 591  854.8775
 592  872.1341
 593  776.4448
 594  795.6398
 595  625.1086
 596  692.0417
 597  678.7246
 598  787.1292
 599  811.9174
 600  936.6736
 601  922.5672
 602  870.6312
 603  632.5002
 604  651.3144
 605  709.0419
 606  802.4804
 607  679.8193
 608  627.0212
 609  963.3089
 610  1132.966
 611  1311.532
 612  1264.272
 613  1095.965
 614  824.7888
 615  600.5435
 616  807.2809
 617  798.2037
 618  838.2793
 619  1018.221
 620  1116.242
 621  1015.31
 622  795.0566
 623  880.1562
 624  1117.219
 625  1161.062
 626  1005.798
 627  807.0603
 628  771.46
 629  713.8132
 630  820.5012
 631  852.0181
 632  918.2253
 633  865.7869
 634  1021.486
 635  988.433
 636  717.6423
 637  670.3749
 638  583.7618
 639  565.4382
 640  547.1602
 641  587.4045
 642  618.1996
 643  485.5369
 644  750.2049
 645  946.1034
 646  1028.925
 647  1003.403
 648  1168.961
 649  1008.056
 650  760.011
 651  504.1417
 652  690.9044
 653  681.0908
 654  762.7779
 655  759.968
 656  819.5528
 657  730.4135
 658  761.9175
 659  829.2096
 660  967.6247
 661  956.8124
 662  892.4551
 663  948.9976
 664  896.5478
 665  793.6757
 666  680.1547
 667  863.2213
 668  971.5323
 669  935.5947
 670  980.1123
 671  1016.665
 672  984.0733
 673  832.0153
 674  627.1305
 675  533.86
 676  445.9924
 677  814.8549
 678  947.1718
 679  787.4108
 680  704.7787
 681  766.4293
 682  896.5911
 683  632.4993
 684  526.0004
 685  647.2402
 686  820.0112
 687  810.7907
 688  630.4675
 689  756.1733
 690  751.4227
 691  841.0585
 692  593.4702
 693  539.746
 694  160.1803
 695  80.82253
 696  183.6466
 697  382.8964
 698  653.7359
 699  819.4673
 700  1294.434
 701  1179.8
 702  915.0151
 703  706.4683
 704  793.7914
 705  903.2509
 706  658.769
 707  610.2189
 708  762.5756
 709  1027.102
 710  1138.193
 711  1203.343
 712  1404.633
 713  1264.981
 714  1258.435
 715  1124.365
 716  1188.601
 717  847.1619
 718  662.9689
 719  589.2025
 720  519.3209
 721  754.1465
 722  937.7258
 723  1177.213
 724  1118.779
 725  972.0851
 726  811.3255
 727  676.281
 728  636.5167
 729  659.7513
 730  625.4759
 731  463.4872
 732  693.9008
 733  844.2673
 734  1163.232
 735  1218.175
 736  1227.365
 737  1088.939
 738  1108.869
 739  1209.378
 740  1028.157
 741  856.0397
 742  754.6788
 743  655.9991
 744  777.3163
 745  868.9457
 746  1005.615
 747  1003.393
 748  1095.246
 749  1099.7
 750  1118.267
 751  1089.44
 752  1443.573
 753  1542.728
 754  1537.802
 755  1498.983
 756  1548.712
 757  1818
 758  1881.685
 759  2076.55
 760  2073.134
 761  1907.314
 762  1788.424
 763  1541.666
 764  1383.536
 765  1157.549
 766  912.1552
 767  815.5851
 768  857.7965
 769  1127.515
 770  1082.603
 771  1086.027
 772  944.468
 773  942.9864
 774  785.0958
 775  916.3041
 776  912.9574
 777  935.4881
 778  771.2302
 779  730.5963
 780  836.0992
 781  969.414
 782  1046.641
 783  1123.383
 784  1133.545
 785  1134.075
 786  1086.559
 787  1096.431
 788  1122.076
 789  1040.949
 790  1015.857
 791  810.7481
 792  709.9491
 793  687.2272
 794  800.3641
 795  932.3464
 796  917.2435
 797  801.5471
 798  711.2896
 799  554.8241
 800  659.0709
 801  595.0787
 802  699.3013
 803  687.8106
 804  790.9058
 805  834.2332
 806  1007.605
 807  1290.209
 808  1313.089
 809  1338.058
 810  1250.048
 811  1217.671
 812  939.7427
 813  1004.911
 814  1116.211
 815  1076.52
 816  959.7486
 817  936.2352
 818  1205.674
 819  1330.727
 820  1449.882
 821  1527.666
 822  1379.63
 823  1042.303
 824  509.9189
 825  568.4251
 826  932.6425
 827  1061.26
 828  1129.466
 829  1135.122
 830  1442.978
 831  1112.822
 832  1053.661
 833  974.446
 834  1087.444
 835  704.1951
 836  523.526
 837  531.6863
 838  579.3094
 839  476.2264
 840  588.2402
 841  1149.663
 842  1363.479
 843  1016.994
 844  698.0805
 845  520.7156
 846  557.5532
 847  497.0353
 848  779.4987
 849  1037.638
 850  1171.833
 851  1043.676
 852  1061.016
 853  927.4006
 854  814.8585
 855  814.3029
 856  1060.873
 857  1113.502
 858  918.0106
 859  783.3625
 860  952.2032
 861  1175.229
 862  1106.746
 863  1052.425
 864  1000.9
 865  934.2127
 866  807.1271
 867  957.3468
 868  1208.056
 869  1144.313
 870  1095.595
 871  1127.974
 872  1476.046
 873  1654.022
 874  1677.474
 875  1452.839
 876  1219.683
 877  1177.656
 878  1229.499
 879  1278.195
 880  1192.342
 881  1025.498
 882  924.9904
 883  964.5739
 884  1114.651
 885  1103.466
 886  1195.768
 887  1297.421
 888  1236.326
 889  1149.631
 890  897.7291
 891  977.7895
 892  1040.975
 893  978.6214
 894  867.4005
 895  940.1846
 896  1153.263
 897  1014.568
 898  1003.015
 899  1042.845
 900  1166.331
 901  1003.503
 902  963.6792
 903  910.6044
 904  896.3258
 905  903.7634
 906  1138.029
 907  1225.417
 908  1181.982
 909  1019.388
 910  931.7957
 911  761.959
 912  643.6276
 913  757.5423
 914  1032.685
 915  1021.655
 916  1055.784
 917  949.2991
 918  1034.669
 919  905.6226
 920  985.8179
 921  1268.083
 922  1171.885
 923  1107.034
 924  880.6393
 925  1139.05
 926  1044.287
 927  833.8544
 928  884.944
 929  1082.316
 930  1117.742
 931  1036.063
 932  1056.642
 933  1246.348
 934  1106.925
 935  1002.599
 936  1063.306
 937  1234.601
 938  1259.373
 939  1175.568
 940  1272.897
 941  1281.377
 942  1174.527
 943  1123.448
 944  1021.632
 945  840.2504
 946  657.131
 947  614.6442
 948  1037.221
 949  1099.977
 950  1393.257
 951  1228.929
 952  1137.474
 953  1047.87
 954  985.1316
 955  1066.347
 956  781.6702
 957  724.83
 958  782.9665
 959  955.7157
 960  1108.744
 961  1154.124
 962  1124.569
 963  1227.55
 964  1191.035
 965  1205.228
 966  1266.829
 967  959.705
 968  844.3122
 969  813.5118
 970  1122.504
 971  1220.88
 972  1120.255
 973  1322.644
 974  1395.482
 975  1491.847
 976  1583.469
 977  1404.852
 978  1105.884
 979  683.4162
 980  846.5613
 981  1153.942
 982  1373.082
 983  1339.021
 984  1241.126
 985  1266.055
 986  1323.925
 987  1468.138
 988  1329.931
 989  1153.504
 990  594.6422
 991  497.1665
 992  881.9353
 993  1427.222
 994  1493.929
 995  1153.242
 996  873.6123
 997  789.4935
 998  944.7919
 999  986.8971
1000  905.4524
1001  844.8175
1002  850.9661
1003  1076.222
1004  1027.761
1005  1211.194
1006  1217.183
1007  1188.087
1008  1011.552
1009  834.7401
1010  796.1449
1011  889.2684
1012  917.1149
1013  994.9735
1014  1135.183
1015  994.412
1016  874.7009
1017  885.4313
1018  983.9454
1019  1073.931
1020  1016.841
1021  1169.96
1022  1317.55
1023  1266.534
