# Input file       =  1178699751.103657_cleaned.dat
# Candidate        =  PSR_0332+5434
# Telescope        =  AR
# Epoch_topo       =  57886.358450273809
# Epoch_bary       =  N/A
# T_sample         =  0.002
# Data Folded      =  7340032
# Data Avg         =  0.0536251112644096
# Data StdDev      =  2.29541211965309 
# Profile Bins     =  512
# Profile Avg      =  768.915256625031 
# Profile StdDev   =  274.836662822093 
# Reduced chi-sqr  =  1.436
# Prob(Noise)      <  3.18e-10   (~6.2 sigma)
# P_topo (ms)      =  714.534853220985  +/- 0.000226
# P'_topo (s/s)    =  -0                +/- 1.19e-10
# P''_topo (s/s^2) =  0                 +/- 5.27e-14
# P_bary (ms)      =  N/A
# P'_bary (s/s)    =  N/A
# P''_bary (s/s^2) =  N/A
# P_orb (s)        =  N/A
# asin(i)/c (s)    =  N/A
# eccentricity     =  N/A
# w (rad)          =  N/A
# T_peri           =  N/A
######################################################
   0  785.7964
   1  853.6824
   2  767.3683
   3  917.5449
   4  845.2896
   5  763.7069
   6  651.7226
   7  561.7244
   8  783.4893
   9  824.4664
  10  1031.582
  11  1243.261
  12  1060.786
  13  858.7406
  14  962.1702
  15  1160.244
  16  818.5011
  17  699.8056
  18  760.3964
  19  744.6398
  20  745.4428
  21  700.861
  22  751.5283
  23  1051.78
  24  1014.434
  25  830.2177
  26  591.0422
  27  421.3123
  28  881.4537
  29  1178.003
  30  1243.53
  31  869.6683
  32  846.3472
  33  948.2247
  34  646.4031
  35  722.3999
  36  836.8613
  37  651.6153
  38  554.9653
  39  697.3802
  40  659.1526
  41  626.9702
  42  648.1263
  43  621.3708
  44  529.498
  45  584.2774
  46  404.4619
  47  441.9553
  48  552.7002
  49  877.0165
  50  788.0525
  51  714.6935
  52  611.1167
  53  540.8157
  54  728.0028
  55  1018.812
  56  1008.465
  57  652.1588
  58  603.812
  59  454.6073
  60  633.9583
  61  630.7259
  62  771.0392
  63  913.8218
  64  966.418
  65  648.5831
  66  661.2995
  67  581.3764
  68  334.4975
  69  480.4478
  70  444.7678
  71  528.4485
  72  629.213
  73  598.3312
  74  539.4883
  75  627.4686
  76  717.1957
  77  1057.308
  78  1224.089
  79  990.0499
  80  825.8546
  81  615.4669
  82  765.8378
  83  906.8263
  84  938.6463
  85  1014.167
  86  810.9501
  87  720.8444
  88  697.3133
  89  1002.489
  90  848.9085
  91  620.1969
  92  907.8507
  93  1014.287
  94  962.4792
  95  700.9955
  96  712.4722
  97  700.1741
  98  744.5898
  99  499.9991
 100  504.2652
 101  561.6493
 102  439.7119
 103  563.69
 104  717.4261
 105  700.5883
 106  800.5688
 107  992.5121
 108  1108.753
 109  900.2041
 110  917.1688
 111  831.1167
 112  819.2874
 113  669.3346
 114  671.014
 115  797.7869
 116  1157.522
 117  796.9003
 118  704.5828
 119  762.355
 120  741.7044
 121  872.3566
 122  1062.342
 123  871.6135
 124  588.7028
 125  762.3632
 126  714.5826
 127  693.5826
 128  934.9104
 129  735.0786
 130  480.5987
 131  638.9695
 132  884.4858
 133  733.1951
 134  923.4346
 135  478.8235
 136  599.7306
 137  424.9592
 138  565.6102
 139  648.1299
 140  474.5423
 141  424.5975
 142  509.8759
 143  477.3596
 144  532.6627
 145  528.7134
 146  699.0226
 147  815.6053
 148  729.8856
 149  709.5001
 150  674.8986
 151  623.6745
 152  698.9733
 153  555.6548
 154  732.8439
 155  615.1044
 156  670.0663
 157  906.2526
 158  986.6133
 159  672.1658
 160  644.3804
 161  612.2042
 162  585.9974
 163  755.9235
 164  771.5385
 165  973.2098
 166  723.1923
 167  862.863
 168  782.8167
 169  708.0532
 170  815.7596
 171  604.2197
 172  643.6006
 173  698.6981
 174  597.5775
 175  695.8586
 176  494.5603
 177  624.4886
 178  781.9005
 179  665.2417
 180  323.9058
 181  216.5447
 182  509.6583
 183  608.1236
 184  416.6552
 185  434.6963
 186  555.3539
 187  566.2676
 188  625.3921
 189  770.5031
 190  965.3186
 191  917.8439
 192  985.9309
 193  887.1725
 194  891.9026
 195  1030.182
 196  651.5806
 197  685.9064
 198  688.8705
 199  635.7717
 200  882.1581
 201  882.651
 202  1089.442
 203  731.3684
 204  687.2267
 205  852.861
 206  766.8668
 207  693.0079
 208  735.6589
 209  887.8361
 210  725.5588
 211  884.642
 212  866.1512
 213  1016.315
 214  881.9807
 215  864.9294
 216  939.4584
 217  896.5414
 218  872.3693
 219  934.3302
 220  784.356
 221  892.9102
 222  779.7886
 223  1166.441
 224  1004.555
 225  927.7151
 226  740.5926
 227  459.7983
 228  434.4653
 229  853.9356
 230  852.6911
 231  687.5539
 232  896.1505
 233  600.1368
 234  406.5541
 235  388.7452
 236  817.0297
 237  966.861
 238  752.8411
 239  632.823
 240  611.5944
 241  684.8231
 242  654.62
 243  573.9258
 244  644.7646
 245  949.6005
 246  644.53
 247  504.9405
 248  963.4033
 249  930.1079
 250  694.3927
 251  625.2216
 252  810.0142
 253  594.7095
 254  723.8833
 255  638.0861
 256  772.8408
 257  723.6302
 258  482.1747
 259  526.7464
 260  628.3581
 261  858.424
 262  726.829
 263  741.5612
 264  516.1493
 265  476.0135
 266  809.8435
 267  1078.983
 268  997.0066
 269  780.4537
 270  899.1149
 271  808.0637
 272  754.2567
 273  709.62
 274  944.3455
 275  503.5016
 276  496.103
 277  447.4327
 278  801.4713
 279  727.9996
 280  872.5488
 281  839.377
 282  743.922
 283  627.3152
 284  798.2062
 285  786.8846
 286  1062.714
 287  1055.73
 288  1107.539
 289  772.6593
 290  689.4263
 291  753.7195
 292  601.0833
 293  792.4774
 294  940.3942
 295  899.6299
 296  786.8899
 297  998.3368
 298  791.5326
 299  521.4431
 300  773.5673
 301  1091.459
 302  905.9631
 303  839.053
 304  587.709
 305  639.5806
 306  663.1262
 307  669.3619
 308  611.0527
 309  736.7147
 310  744.7427
 311  789.4432
 312  544.4969
 313  486.4519
 314  708.5258
 315  839.0915
 316  1094.566
 317  701.5436
 318  798.3898
 319  964.3506
 320  982.954
 321  834.8762
 322  595.9131
 323  850.4385
 324  1038.742
 325  1104.289
 326  1356.39
 327  1779.475
 328  2201.15
 329  2434.354
 330  2452.682
 331  2275.335
 332  1732.957
 333  1011.604
 334  764.9335
 335  818.4188
 336  760.399
 337  670.2477
 338  847.1544
 339  1001.948
 340  1000.939
 341  821.561
 342  1063.5
 343  1331.203
 344  1218.348
 345  1291.074
 346  1054.526
 347  1111.893
 348  680.1511
 349  603.4419
 350  676.4769
 351  606.5579
 352  821.2029
 353  867.7594
 354  630.3153
 355  736.2056
 356  519.4785
 357  690.7924
 358  680.5073
 359  690.0052
 360  798.6065
 361  518.6631
 362  615.0625
 363  858.1197
 364  953.3552
 365  803.4468
 366  758.5869
 367  517.5253
 368  475.2046
 369  838.697
 370  639.6727
 371  851.8297
 372  892.4876
 373  901.0098
 374  691.3011
 375  461.109
 376  649.1874
 377  1065.978
 378  1005.584
 379  799.6476
 380  681.5021
 381  591.3083
 382  568.6845
 383  717.8625
 384  668.312
 385  785.3632
 386  856.9562
 387  764.6087
 388  519.3098
 389  235.9992
 390  545.2471
 391  828.8886
 392  797.9954
 393  579.4411
 394  536.5756
 395  609.6404
 396  944.6465
 397  959.8172
 398  767.8986
 399  763.0625
 400  892.9995
 401  817.9117
 402  595.3843
 403  852.8875
 404  612.9916
 405  284.116
 406  513.3615
 407  825.8948
 408  802.0538
 409  627.7919
 410  286.549
 411  491.4719
 412  652.2339
 413  454.7916
 414  682.1509
 415  764.1253
 416  899.9944
 417  1088.873
 418  990.3908
 419  699.6609
 420  570.2687
 421  867.7461
 422  837.7479
 423  541.4541
 424  693.5705
 425  716.8004
 426  756.3359
 427  890.7532
 428  724.5819
 429  724.2712
 430  764.1034
 431  765.5781
 432  796.1876
 433  785.0098
 434  796.4649
 435  882.0443
 436  994.5427
 437  850.6659
 438  666.6039
 439  843.9549
 440  1071.547
 441  563.8161
 442  811.3521
 443  933.3284
 444  661.9426
 445  805.8027
 446  823.5858
 447  734.053
 448  865.5751
 449  765.9824
 450  687.9285
 451  785.6593
 452  746.4383
 453  715.0897
 454  608.937
 455  623.9564
 456  597.0753
 457  489.8324
 458  693.0997
 459  699.5325
 460  763.6387
 461  846.1468
 462  771.5554
 463  753.8824
 464  800.0939
 465  553.7878
 466  441.5278
 467  696.2125
 468  944.7307
 469  1015.632
 470  590.6375
 471  660.6472
 472  888.9971
 473  959.3365
 474  702.8318
 475  513.9083
 476  918.0698
 477  731.6978
 478  621.0959
 479  794.2444
 480  705.9744
 481  302.5531
 482  541.6146
 483  732.8186
 484  782.4573
 485  817.6854
 486  759.3768
 487  494.1581
 488  345.8646
 489  789.3477
 490  1177.058
 491  1028.896
 492  609.5352
 493  402.636
 494  553.3605
 495  887.6379
 496  836.5954
 497  859.9092
 498  858.5297
 499  903.9449
 500  864.8738
 501  858.5808
 502  1089.537
 503  964.4243
 504  1062.865
 505  1108.508
 506  626.9528
 507  505.4518
 508  802.7743
 509  869.3508
 510  710.3772
 511  664.5672
