# Input file       =  1178958166.128444_cleaned.dat
# Candidate        =  PSR_0332+5434
# Telescope        =  AR
# Epoch_topo       =  57889.349364912545
# Epoch_bary       =  N/A
# T_sample         =  0.002
# Data Folded      =  7340032
# Data Avg         =  0.108929441336451
# Data StdDev      =  2.87494677560609 
# Profile Bins     =  512
# Profile Avg      =  1561.61393261205 
# Profile StdDev   =  344.22610686491  
# Reduced chi-sqr  =  1.004
# Prob(Noise)      <  0.469   (~0.1 sigma)
# P_topo (ms)      =  714.531966659314  +/- 0.00032
# P'_topo (s/s)    =  -0                +/- 1.69e-10
# P''_topo (s/s^2) =  0                 +/- 7.46e-14
# P_bary (ms)      =  N/A
# P'_bary (s/s)    =  N/A
# P''_bary (s/s^2) =  N/A
# P_orb (s)        =  N/A
# asin(i)/c (s)    =  N/A
# eccentricity     =  N/A
# w (rad)          =  N/A
# T_peri           =  N/A
######################################################
   0  1916.046
   1  1777.246
   2  1681.639
   3  1616.591
   4  1668.743
   5  1723.801
   6  1615.596
   7  1756.93
   8  1965.911
   9  1826.181
  10  1602.906
  11  1729.504
  12  2062.492
  13  1671.839
  14  1538.783
  15  1615.097
  16  1646.312
  17  1606.042
  18  1423.449
  19  1455.458
  20  1135.306
  21  1464.45
  22  1459.977
  23  1663.846
  24  1777.825
  25  1857.684
  26  1634.804
  27  1483.622
  28  1716.902
  29  1769.503
  30  1638.385
  31  1592.826
  32  1884.144
  33  2063.601
  34  2046.045
  35  1576.898
  36  1699.99
  37  1954.428
  38  1763.973
  39  1697.651
  40  1747.75
  41  1539.073
  42  1635.217
  43  2080.694
  44  2153.361
  45  1986.223
  46  1888.331
  47  1595.509
  48  1438.209
  49  1811.558
  50  1983.294
  51  1640.971
  52  1622.561
  53  1880.311
  54  2073.102
  55  1872.715
  56  1393.486
  57  1561.05
  58  1914.874
  59  1818.047
  60  1795.911
  61  1783.122
  62  1516.056
  63  1676.741
  64  1736.223
  65  1718.941
  66  1631.437
  67  1451.596
  68  1391.841
  69  1251.535
  70  1419.175
  71  1692.505
  72  1439.638
  73  1238.912
  74  1298.858
  75  1435.945
  76  1452.667
  77  1616.567
  78  1708.834
  79  1411.49
  80  1394.47
  81  1386.235
  82  1309.47
  83  1025.599
  84  1228.257
  85  1670.147
  86  1825.263
  87  1566.267
  88  1733.938
  89  1908.924
  90  2128.017
  91  1950.854
  92  1854.439
  93  1731.022
  94  1624.282
  95  1283.935
  96  1389.51
  97  1351.363
  98  1565.054
  99  1829.702
 100  2043.265
 101  1583.102
 102  1673.288
 103  1873.784
 104  1703.317
 105  1576.937
 106  1719.375
 107  1705.39
 108  1378.766
 109  1635.464
 110  1654.436
 111  1755.379
 112  1855.16
 113  1814.117
 114  1587.184
 115  1462.476
 116  1725.463
 117  1732.99
 118  1428.871
 119  1327.611
 120  1652.08
 121  1937.708
 122  1598.055
 123  1309.945
 124  1602.405
 125  1664.865
 126  1379.999
 127  1409.133
 128  1484.695
 129  1535.748
 130  1058.429
 131  1023.984
 132  1388.427
 133  1525.969
 134  1772.553
 135  1790.865
 136  1797.27
 137  1656.225
 138  1528.536
 139  1568.51
 140  1507.926
 141  1232.729
 142  1338.263
 143  1494.651
 144  1632.51
 145  1560.228
 146  1579.145
 147  1520.525
 148  1800.871
 149  1809.948
 150  1519.05
 151  1489.12
 152  1416.384
 153  1540.386
 154  1598.945
 155  1717.94
 156  1553.558
 157  1702.488
 158  1718.188
 159  1400.822
 160  1525.059
 161  1558.979
 162  1340.004
 163  1378.891
 164  1529.978
 165  1288.452
 166  1232.833
 167  1450.544
 168  1621.878
 169  1613.828
 170  1637.109
 171  1621.081
 172  1554.912
 173  1334.682
 174  1502.765
 175  1693.297
 176  1191.85
 177  1525.896
 178  1965.03
 179  1542.392
 180  1236.63
 181  1106.38
 182  1127.308
 183  1482.039
 184  1512.48
 185  1277.615
 186  1472.667
 187  1392.606
 188  1222.912
 189  1493.152
 190  1716.137
 191  1754.256
 192  1395.206
 193  1424.791
 194  1483.611
 195  1269.989
 196  1227.084
 197  1477.28
 198  1543.177
 199  1501.292
 200  1391.191
 201  1391.678
 202  1576.728
 203  1595.642
 204  1547.945
 205  1305.486
 206  981.7197
 207  1120.657
 208  1421.407
 209  1431.896
 210  1419.655
 211  1372.018
 212  1447.806
 213  1310.084
 214  1442.99
 215  1715.075
 216  1466.684
 217  1726.008
 218  1615.108
 219  1597.222
 220  1702.883
 221  1425.545
 222  1131.722
 223  1467.407
 224  1503.656
 225  1469.134
 226  1484.003
 227  1427.193
 228  1502.319
 229  1568.062
 230  1747.578
 231  1692.473
 232  1583.8
 233  1889.184
 234  1765.433
 235  1543.035
 236  1772.549
 237  1492.992
 238  1607.657
 239  1277.502
 240  1049.786
 241  1424.7
 242  1507.878
 243  1654.815
 244  1625.578
 245  1595.557
 246  1740.083
 247  1670.987
 248  1432.006
 249  1504.415
 250  1599.02
 251  1419.106
 252  1389.298
 253  1284.199
 254  1486.859
 255  1108.037
 256  1101.149
 257  1589.466
 258  1479.446
 259  1532.271
 260  1482.562
 261  1523.544
 262  1377.732
 263  1611.599
 264  1616.879
 265  1294.598
 266  1205.692
 267  1645.82
 268  1559.4
 269  1522.755
 270  1397.617
 271  1703.056
 272  1406.492
 273  1102.746
 274  1297.958
 275  1361.284
 276  1521.981
 277  1660.224
 278  1693.784
 279  1556.99
 280  1581.064
 281  1429.372
 282  1618.063
 283  1304.158
 284  1523.559
 285  1751.198
 286  1911.545
 287  1747.241
 288  1379.458
 289  1275.488
 290  1312.931
 291  1468.812
 292  1266.982
 293  1432.539
 294  1407.049
 295  1016.401
 296  1471.053
 297  1653.221
 298  1401.28
 299  1551.496
 300  1324.583
 301  1251.317
 302  1367.583
 303  1520.066
 304  1588.645
 305  1224.559
 306  1277.88
 307  1427.817
 308  1500.231
 309  1368.502
 310  1421.79
 311  1511.211
 312  1644.063
 313  1736.79
 314  1457.126
 315  1651.664
 316  1603.432
 317  1331.106
 318  1536.925
 319  1463.66
 320  1921.549
 321  1875.117
 322  1712.599
 323  1938.943
 324  2094.857
 325  2199.477
 326  2208.88
 327  2691.887
 328  2961.557
 329  2764.148
 330  2515.412
 331  2288.761
 332  2172.852
 333  2018.2
 334  1883.427
 335  1581.206
 336  1381.16
 337  1531.392
 338  1424.132
 339  1497.005
 340  1678.882
 341  1848.017
 342  1713.069
 343  1634.336
 344  1421.389
 345  1621.4
 346  1573.364
 347  1593.34
 348  1737.6
 349  1788.783
 350  1877.965
 351  1517.434
 352  1614.118
 353  1646.752
 354  1488.949
 355  1753.008
 356  1857.356
 357  1840.042
 358  1699.808
 359  1626.77
 360  1619.57
 361  1692.168
 362  1794.321
 363  1659.261
 364  1405.492
 365  1419.271
 366  1554.684
 367  1621.883
 368  1500.922
 369  1672.127
 370  1900.608
 371  1203.536
 372  1215.268
 373  1351.595
 374  1494.17
 375  1389.602
 376  1766.868
 377  1675.876
 378  1781.108
 379  1909.902
 380  1797.042
 381  1429.183
 382  1098.194
 383  1172.725
 384  1525.111
 385  1771.515
 386  1654.85
 387  1587.933
 388  1974.966
 389  1814.26
 390  1692.038
 391  1402.964
 392  1388.757
 393  1683.006
 394  1407.34
 395  1437.159
 396  1635.656
 397  1250.242
 398  947.3683
 399  1148.598
 400  1394.109
 401  1429.682
 402  1316.08
 403  1246.497
 404  1275.075
 405  1324.165
 406  1598.812
 407  1482.193
 408  1777.469
 409  1774.602
 410  1645.614
 411  1485.351
 412  1419.171
 413  1447.393
 414  1710.592
 415  1510.551
 416  1373.95
 417  1176.348
 418  988.5874
 419  921.679
 420  1075.786
 421  1381.205
 422  1284.586
 423  1189.685
 424  1148.151
 425  1342.368
 426  1486.825
 427  1325.77
 428  1224.711
 429  1507.574
 430  1559.679
 431  1326.142
 432  1593.922
 433  1728.277
 434  1421.86
 435  1368.972
 436  1480.364
 437  1513.752
 438  1360.149
 439  1550.918
 440  1694.013
 441  1534.267
 442  1159.032
 443  1422.802
 444  1220.467
 445  1342.458
 446  1539.143
 447  1596.21
 448  1365.487
 449  1223.195
 450  1026.655
 451  1303.295
 452  1427.76
 453  1394.475
 454  1433.195
 455  1625.77
 456  1568.003
 457  1307.227
 458  1540.073
 459  1448.109
 460  1734.874
 461  1724.538
 462  1601.908
 463  1533.874
 464  1657.049
 465  1561.3
 466  1442.874
 467  1547.814
 468  1896.882
 469  1801.177
 470  1622.774
 471  1712.882
 472  1864.174
 473  1885.059
 474  1897.969
 475  1912.12
 476  1942.355
 477  1564.825
 478  1573.186
 479  1611.207
 480  1552.34
 481  1516.662
 482  1585.2
 483  1845.263
 484  1524.539
 485  1414.253
 486  1495.484
 487  1637.538
 488  1496.983
 489  1426.079
 490  1875.415
 491  1610.002
 492  1239.995
 493  1717.402
 494  1856.404
 495  1487.188
 496  1504.073
 497  1584.37
 498  1914.033
 499  1697.789
 500  1471.344
 501  1494.344
 502  1743.153
 503  1905.771
 504  1470.276
 505  859.5646
 506  1193.408
 507  1268.473
 508  1602.603
 509  1396.15
 510  981.037
 511  1602.643
