# Input file       =  1178512740.104834_cleaned.dat
# Candidate        =  PSR_0332+5434
# Telescope        =  AR
# Epoch_topo       =  57884.193971120767
# Epoch_bary       =  N/A
# T_sample         =  0.002
# Data Folded      =  7274496
# Data Avg         =  0.636014310015905
# Data StdDev      =  24.2168956254077 
# Profile Bins     =  512
# Profile Avg      =  9036.38963476452 
# Profile StdDev   =  2886.58894601616 
# Reduced chi-sqr  =  1.132
# Prob(Noise)      <  0.0208   (~2.0 sigma)
# P_topo (ms)      =  714.536910786286  +/- 0.000127
# P'_topo (s/s)    =  -0                +/- 6.76e-11
# P''_topo (s/s^2) =  0                 +/- 3.01e-14
# P_bary (ms)      =  N/A
# P'_bary (s/s)    =  N/A
# P''_bary (s/s^2) =  N/A
# P_orb (s)        =  N/A
# asin(i)/c (s)    =  N/A
# eccentricity     =  N/A
# w (rad)          =  N/A
# T_peri           =  N/A
######################################################
   0  8436.491
   1  9604.866
   2  11101.37
   3  12891.01
   4  13296.04
   5  11095.14
   6  9410.444
   7  8595.276
   8  9688.687
   9  12423.16
  10  10169.93
  11  8763.615
  12  9607.224
  13  11797.35
  14  10045.21
  15  12874.8
  16  10175.49
  17  8286.865
  18  8646.319
  19  11948.78
  20  13463.58
  21  12217.57
  22  11168.07
  23  8601.303
  24  7490.762
  25  7441.967
  26  11287.25
  27  12955.01
  28  13017.89
  29  11297.77
  30  9379.206
  31  9995.171
  32  10675.62
  33  8121.575
  34  8630.496
  35  11638.29
  36  11827.25
  37  12028.38
  38  9468.417
  39  8742.216
  40  8576.732
  41  9254.866
  42  10755.01
  43  10687.62
  44  13099.42
  45  13414.99
  46  11337.12
  47  11381.72
  48  11611.11
  49  11283.87
  50  10971.27
  51  12694.79
  52  13844.17
  53  11984.39
  54  11280.62
  55  10027.83
  56  8126.463
  57  11405.5
  58  11560.42
  59  9985.125
  60  10278.93
  61  6575.218
  62  7894.558
  63  9354.172
  64  9816.158
  65  6400.064
  66  7708.427
  67  5665.836
  68  6592.912
  69  9614.071
  70  11119.96
  71  11446.48
  72  8773.027
  73  6469.662
  74  3423.421
  75  7260.301
  76  10418.81
  77  13616.65
  78  13808.37
  79  9455.05
  80  6725.145
  81  6070.814
  82  8847.829
  83  12263.46
  84  14539.61
  85  10475.69
  86  8680.811
  87  7101.611
  88  8167.792
  89  11567.4
  90  12371.57
  91  10867.05
  92  10188.75
  93  11469.51
  94  9036.866
  95  9556.359
  96  11518.25
  97  12904.65
  98  12128.47
  99  11004.62
 100  8931.593
 101  8077.773
 102  9247.623
 103  11497.19
 104  10707.76
 105  10712.79
 106  9004.976
 107  7575.916
 108  8016.492
 109  9064.002
 110  10896.25
 111  10999.64
 112  10922.49
 113  10296.84
 114  7817.907
 115  6903.697
 116  6627.178
 117  8075.017
 118  10552.48
 119  11711.93
 120  8779.889
 121  8231.948
 122  9113.556
 123  5995.344
 124  4732.302
 125  6926.289
 126  9640.339
 127  9559.561
 128  6734.625
 129  6910.117
 130  8895.354
 131  8217.577
 132  9184.34
 133  6867.98
 134  7954.771
 135  8513.44
 136  9919.262
 137  10224.39
 138  8077.087
 139  7271.485
 140  8107.201
 141  11346.04
 142  12773.37
 143  11674.5
 144  7251.567
 145  5122.548
 146  5281.007
 147  6852.331
 148  8307.119
 149  8223.349
 150  5620.125
 151  4676.246
 152  4721.23
 153  7425.044
 154  8125.319
 155  7620.413
 156  4095.937
 157  3206.237
 158  5802.898
 159  6625.5
 160  7477.521
 161  8797.274
 162  9092.764
 163  8227.64
 164  7092.487
 165  4902.58
 166  4795.939
 167  6413.247
 168  6572.855
 169  7914.072
 170  8178.814
 171  7647.645
 172  9119.543
 173  6835.572
 174  6125.022
 175  6782.507
 176  9166.955
 177  5462.469
 178  7716.163
 179  7575.015
 180  9402.346
 181  11752.33
 182  9064.308
 183  6510.839
 184  7906.868
 185  9658.536
 186  10794.43
 187  14652.32
 188  16049.41
 189  9963.978
 190  6086.892
 191  5697.14
 192  8166.665
 193  10655.58
 194  9765.518
 195  6813.395
 196  6567.798
 197  7997.672
 198  9410.04
 199  7558.927
 200  6336.908
 201  5727.793
 202  7330.977
 203  9037.188
 204  9618.018
 205  7575.793
 206  7742.45
 207  7858.787
 208  7256.724
 209  8805.142
 210  9072.445
 211  9913.823
 212  10904.53
 213  7778.749
 214  7287.097
 215  5116.821
 216  7549.098
 217  9455.714
 218  10291.67
 219  9568.735
 220  3052.76
 221  2525.08
 222  6645.899
 223  9448.768
 224  10423.84
 225  10612.82
 226  7550.924
 227  7077.5
 228  7875.815
 229  8856.928
 230  8592.263
 231  8218.428
 232  7283.134
 233  9671.799
 234  13538.98
 235  11800.51
 236  9994.139
 237  6719.819
 238  4574.458
 239  9419.152
 240  13528.97
 241  13042.15
 242  10005.95
 243  6089.016
 244  6933.448
 245  6822.939
 246  10339.1
 247  11301.85
 248  8406.622
 249  6555.971
 250  5980.413
 251  8067.567
 252  9362.327
 253  10513.49
 254  9712.629
 255  7746.289
 256  7524.628
 257  9633.354
 258  10410.09
 259  10375.73
 260  10447.01
 261  8992.104
 262  7049.526
 263  7393.466
 264  9589.775
 265  10464.64
 266  10557.05
 267  11900.71
 268  10062.78
 269  9423.715
 270  6085.917
 271  9208.583
 272  10959.96
 273  11856.48
 274  10647.19
 275  10285.69
 276  9805.163
 277  11661.78
 278  10378.2
 279  10441.98
 280  8889.037
 281  7601.732
 282  9138.113
 283  10788.7
 284  12506.63
 285  11327.12
 286  12988.72
 287  12106.15
 288  10911.48
 289  9880.898
 290  10464.69
 291  8040.598
 292  8498.09
 293  8019.451
 294  7909.771
 295  6340.512
 296  7381.944
 297  7803.969
 298  7755.157
 299  9115.831
 300  9084.098
 301  7803.967
 302  6085.402
 303  6620.082
 304  7049.019
 305  8999.311
 306  9739.146
 307  11575.68
 308  13019.87
 309  11758.99
 310  12018.91
 311  9001.867
 312  10998.76
 313  8687.802
 314  9446.707
 315  9859.461
 316  11215.33
 317  11415.9
 318  10139.69
 319  10033.04
 320  7718.962
 321  7219.543
 322  8792.226
 323  10391.66
 324  10921.41
 325  9422.02
 326  8870.231
 327  9877.684
 328  9608.578
 329  8981.302
 330  9903.753
 331  11001.93
 332  10437.18
 333  8351.63
 334  6326.063
 335  5254.276
 336  6997.839
 337  5531.359
 338  7856.658
 339  8514.604
 340  10919.65
 341  7378.599
 342  8700.665
 343  8941.479
 344  4157.751
 345  2531.953
 346  6608.334
 347  7743.833
 348  9481.283
 349  7022.367
 350  5865.825
 351  5071.478
 352  5318.749
 353  7652.735
 354  9324.942
 355  8619.873
 356  6250.09
 357  5297.644
 358  5549.604
 359  6536.919
 360  5687.85
 361  6471.711
 362  6749.794
 363  6087.889
 364  6637.84
 365  9840.666
 366  7428.314
 367  8203.121
 368  5760.987
 369  4395.286
 370  8839.153
 371  9067.105
 372  8367.951
 373  8361.213
 374  6614.849
 375  6221.01
 376  7493.428
 377  7013.277
 378  6819.635
 379  7112.946
 380  7232.828
 381  6855.308
 382  7921.572
 383  8321.143
 384  8153.066
 385  7944.194
 386  9426.18
 387  8738.69
 388  9125.656
 389  10303.36
 390  11069.74
 391  9518.462
 392  8777.79
 393  7572.601
 394  9368.41
 395  9550.205
 396  5790.932
 397  5543.628
 398  6586.069
 399  8486.564
 400  6684.131
 401  3909.652
 402  3393.261
 403  3966.119
 404  4068.78
 405  6274.785
 406  7618.166
 407  6719.884
 408  6128.107
 409  8031.273
 410  6239.672
 411  8149.677
 412  10772.13
 413  8770.122
 414  9555.512
 415  7370.856
 416  8392.08
 417  11220.22
 418  10764.87
 419  11144.64
 420  10413.21
 421  10820.88
 422  10184.61
 423  8866.526
 424  8384.908
 425  10447.11
 426  10839.99
 427  7409.55
 428  6541.664
 429  6873.547
 430  7567.283
 431  7445.973
 432  7017.912
 433  8285.467
 434  7718.803
 435  9983.757
 436  11401.96
 437  8332.301
 438  10437.69
 439  11491.59
 440  10664.38
 441  10397.4
 442  11411.05
 443  11189.59
 444  9825.886
 445  8787.688
 446  8534.869
 447  9381.729
 448  11417.81
 449  10580.91
 450  7788.564
 451  8437.055
 452  9819.601
 453  9778.84
 454  11654.68
 455  10454.94
 456  10674.04
 457  10308.66
 458  10755.43
 459  11750.73
 460  12195.2
 461  13613.62
 462  11324.62
 463  10625.55
 464  11263.95
 465  11552.25
 466  11383.84
 467  10465.31
 468  10353.91
 469  11301.99
 470  11001.22
 471  9952.282
 472  11651.29
 473  11673.06
 474  10513.97
 475  7963.508
 476  7339.77
 477  8868.408
 478  10261.03
 479  11350.38
 480  9320.328
 481  8789.93
 482  7931.366
 483  6311.023
 484  6753.275
 485  9123.11
 486  8254.415
 487  10773.52
 488  10528.86
 489  11459.74
 490  9663.585
 491  7930.973
 492  9596.697
 493  12420.84
 494  13499.67
 495  13289.73
 496  9656.878
 497  8542.949
 498  9707.755
 499  12545.86
 500  15018.66
 501  9293.829
 502  9055.128
 503  6645.834
 504  7523.603
 505  9767.684
 506  11389.89
 507  11319.15
 508  13664.51
 509  12549.74
 510  10360.87
 511  10538.48
