# Input file       =  1178943567.104165_cleaned.dat
# Candidate        =  PSR_0332+5434
# Telescope        =  AR
# Epoch_topo       =  57889.180394724135
# Epoch_bary       =  N/A
# T_sample         =  0.002
# Data Folded      =  7143424
# Data Avg         =  0.184992538201153
# Data StdDev      =  4.71695531267498 
# Profile Bins     =  1024
# Profile Avg      =  1290.5146535323  
# Profile StdDev   =  393.971674025286 
# Reduced chi-sqr  =  0.483
# Prob(Noise)      <  1   (~0.0 sigma)
# P_topo (ms)      =  714.5321200968    +/- 5.06e-05
# P'_topo (s/s)    =  -0                +/- 2.74e-11
# P''_topo (s/s^2) =  0                 +/- 1.25e-14
# P_bary (ms)      =  N/A
# P'_bary (s/s)    =  N/A
# P''_bary (s/s^2) =  N/A
# P_orb (s)        =  N/A
# asin(i)/c (s)    =  N/A
# eccentricity     =  N/A
# w (rad)          =  N/A
# T_peri           =  N/A
######################################################
   0  1262.264
   1  1182.491
   2  1168.064
   3  1241.612
   4  1270.442
   5  1186.593
   6  974.1848
   7  1008.703
   8  1149.895
   9  1213.511
  10  1269.091
  11  1249.522
  12  1375.845
  13  1449.748
  14  1515.35
  15  1312.3
  16  1188.356
  17  1208.362
  18  1452.158
  19  1435.088
  20  1337.873
  21  1158.731
  22  1222.216
  23  1253.087
  24  1371.775
  25  1418.506
  26  1393.44
  27  1470.79
  28  1436.17
  29  1349.236
  30  1211.807
  31  1193.458
  32  1278.354
  33  1160.659
  34  1209.318
  35  1362.78
  36  1346.191
  37  1118.062
  38  912.6693
  39  976.3789
  40  1326.097
  41  1359.249
  42  1319.832
  43  1210.917
  44  1250.864
  45  1280.372
  46  1165.825
  47  1041.981
  48  1003.515
  49  1100.425
  50  1206.322
  51  1196.125
  52  1126.975
  53  1183.625
  54  1220.914
  55  1250.951
  56  1347.281
  57  1435.978
  58  1505.624
  59  1389.077
  60  1314.054
  61  1318.285
  62  1390.013
  63  1473.428
  64  1335.432
  65  1335.539
  66  1140.583
  67  1163.133
  68  1120.755
  69  975.6177
  70  896.6292
  71  815.6578
  72  1056.295
  73  1104.208
  74  1103.011
  75  1104.764
  76  1195.094
  77  1328.046
  78  1437.273
  79  1308.982
  80  1209.194
  81  1064.74
  82  1171.987
  83  1158.016
  84  1133.161
  85  1128.928
  86  1125.599
  87  1079.384
  88  1045.358
  89  1104.834
  90  1237.971
  91  1288.452
  92  1433.316
  93  1465.15
  94  1435.765
  95  1326.036
  96  1266.275
  97  1314.909
  98  1267.247
  99  1257.623
 100  1298.027
 101  1192.89
 102  1135.831
 103  978.5672
 104  1009.676
 105  1265.811
 106  1307.279
 107  1290.67
 108  1139.538
 109  1324.549
 110  1496.396
 111  1485.441
 112  1374.161
 113  1311.564
 114  1334.987
 115  1443.694
 116  1298.591
 117  1153.693
 118  1174.604
 119  1261.268
 120  1163.115
 121  1046.988
 122  1031.01
 123  1009.978
 124  1103.508
 125  1222.409
 126  1393.302
 127  1424.757
 128  1503.346
 129  1448.577
 130  1341.304
 131  1168.758
 132  1117.557
 133  1351.535
 134  1387.147
 135  1254.622
 136  1106.262
 137  1313.942
 138  1388.684
 139  1349.507
 140  1326.428
 141  1303.765
 142  1349.455
 143  1389.008
 144  1396.105
 145  1320.754
 146  1241.267
 147  1319.767
 148  1413.395
 149  1343.432
 150  1378.858
 151  1414.092
 152  1349.364
 153  1186.071
 154  1237.252
 155  1348.084
 156  1335.446
 157  1234.85
 158  1274.245
 159  1360.317
 160  1420.075
 161  1534.037
 162  1601.615
 163  1493.73
 164  1375.193
 165  1282.215
 166  1282.955
 167  1172.739
 168  1113.113
 169  1177.272
 170  1373.808
 171  1416.313
 172  1356.198
 173  1208.097
 174  1217.302
 175  1223.32
 176  1139.407
 177  1114.567
 178  1071.859
 179  1185.546
 180  1161.055
 181  1216.337
 182  1202.055
 183  1388.827
 184  1344.763
 185  1229.166
 186  997.9879
 187  1094.671
 188  1321.024
 189  1514.428
 190  1564.93
 191  1576.113
 192  1594.07
 193  1656.966
 194  1557.819
 195  1337.122
 196  1241.606
 197  1262.217
 198  1361.426
 199  1301.611
 200  1134.463
 201  1129.103
 202  1200.531
 203  1398.662
 204  1497.076
 205  1635.686
 206  1689.353
 207  1642.121
 208  1479.61
 209  1449.587
 210  1438.265
 211  1411.432
 212  1434.215
 213  1443.711
 214  1314.373
 215  1187.196
 216  1239.11
 217  1259.552
 218  1341.56
 219  1401.135
 220  1581.247
 221  1589.009
 222  1606.155
 223  1588.501
 224  1512.095
 225  1452.149
 226  1394.121
 227  1393.188
 228  1351.734
 229  1514.385
 230  1393.523
 231  1262.792
 232  1093.085
 233  1051.695
 234  1076.991
 235  1117.089
 236  1238.9
 237  1212.484
 238  1356.992
 239  1384.672
 240  1465.925
 241  1525.119
 242  1540.24
 243  1404.346
 244  1469.837
 245  1571.543
 246  1609.293
 247  1521.041
 248  1530.5
 249  1362.033
 250  1098.932
 251  1099.045
 252  1256.952
 253  1397.108
 254  1274.314
 255  1297.285
 256  1275.515
 257  1279.854
 258  1234.413
 259  1305.355
 260  1271.443
 261  1318.681
 262  1336.756
 263  1343.616
 264  1162.401
 265  1069.414
 266  1255.143
 267  1329.84
 268  1229.836
 269  1110.91
 270  1170.476
 271  1322.328
 272  1316.2
 273  1321.585
 274  1332.355
 275  1414.376
 276  1508.992
 277  1607.977
 278  1543.953
 279  1407.651
 280  1256.789
 281  1318.927
 282  1396.477
 283  1330.831
 284  1233.109
 285  1195.12
 286  1161.306
 287  1193.287
 288  1293.579
 289  1345.286
 290  1456.87
 291  1509.676
 292  1652.904
 293  1589.671
 294  1587.557
 295  1544.824
 296  1509.207
 297  1336.015
 298  1297.463
 299  1316.043
 300  1383.572
 301  1321.963
 302  1290.52
 303  1273.043
 304  1261.72
 305  1282.039
 306  1443.229
 307  1516.207
 308  1538.439
 309  1472.041
 310  1361.762
 311  1297.677
 312  1293.828
 313  1438.468
 314  1374.789
 315  1353.998
 316  1374.052
 317  1329.028
 318  1223.828
 319  1210.02
 320  1380.69
 321  1491.506
 322  1501.253
 323  1576.693
 324  1529.15
 325  1547.191
 326  1580.464
 327  1700.138
 328  1617.759
 329  1462.682
 330  1506.421
 331  1531.945
 332  1452.022
 333  1277.575
 334  1242.334
 335  1426.641
 336  1555.186
 337  1477.921
 338  1277.412
 339  1191.743
 340  1275.285
 341  1391.939
 342  1358.895
 343  1351.422
 344  1286.207
 345  1304.086
 346  1218.865
 347  1208.343
 348  1216.121
 349  1345.076
 350  1259.494
 351  1185.333
 352  1239.218
 353  1456.743
 354  1465.359
 355  1431.381
 356  1413.481
 357  1483.294
 358  1507.285
 359  1464.364
 360  1386.562
 361  1162.798
 362  1155.603
 363  1188.134
 364  1283.021
 365  1238.703
 366  1237.001
 367  1233.13
 368  1264.61
 369  1174.306
 370  1137.713
 371  1290.303
 372  1320.524
 373  1382.041
 374  1379.707
 375  1359.16
 376  1279.139
 377  1210.221
 378  1355.239
 379  1355.179
 380  1253.893
 381  1149.812
 382  1030.204
 383  930.2147
 384  936.4635
 385  1155.372
 386  1267.393
 387  1276.822
 388  1337.739
 389  1547.489
 390  1472.052
 391  1277.607
 392  1186.336
 393  1281.214
 394  1270.013
 395  1365.056
 396  1332.049
 397  1169.002
 398  1084.709
 399  1188.792
 400  1400.833
 401  1377.947
 402  1298.598
 403  1364.709
 404  1452.12
 405  1537.886
 406  1533.912
 407  1472.634
 408  1356.917
 409  1312.578
 410  1381.307
 411  1450.662
 412  1376.711
 413  1364.573
 414  1512.296
 415  1380.829
 416  1277.805
 417  1267.697
 418  1306.227
 419  1278.737
 420  1192.34
 421  1257.614
 422  1267.92
 423  1229.665
 424  1223.514
 425  1320.861
 426  1228.925
 427  1179.929
 428  1217.6
 429  1282.345
 430  1231.836
 431  1071.799
 432  1114.662
 433  1162.745
 434  1116.758
 435  1088.649
 436  1069.045
 437  1083.838
 438  1172.977
 439  1288.678
 440  1460.626
 441  1470.042
 442  1385.252
 443  1371.672
 444  1361.538
 445  1328.667
 446  1344.26
 447  1363.094
 448  1271.203
 449  1241.583
 450  1142.733
 451  1134.41
 452  1102.424
 453  1317.953
 454  1570.203
 455  1561.402
 456  1482.972
 457  1430.979
 458  1400.344
 459  1393.4
 460  1342.974
 461  1328.415
 462  1325.438
 463  1278.023
 464  1284.833
 465  1301.002
 466  1245.062
 467  1194.934
 468  1114.688
 469  1201.55
 470  1214.757
 471  1230.026
 472  1116.937
 473  1117.159
 474  1083.732
 475  1234.399
 476  1349.106
 477  1357.113
 478  1436.695
 479  1495.412
 480  1493.811
 481  1536.342
 482  1489.514
 483  1418.33
 484  1215.6
 485  1242.245
 486  1441.941
 487  1477.176
 488  1467.405
 489  1532.078
 490  1523.411
 491  1287.962
 492  1143.901
 493  1156.257
 494  1236.868
 495  1080.348
 496  1092.256
 497  1271.582
 498  1495.583
 499  1435.322
 500  1379.859
 501  1383.668
 502  1389.164
 503  1392.642
 504  1317.795
 505  1325.322
 506  1291.046
 507  1221.313
 508  1200.054
 509  1213.756
 510  1236.493
 511  1312.584
 512  1262.826
 513  1313.547
 514  1247.729
 515  1318.763
 516  1362.39
 517  1195.737
 518  1165.974
 519  1342.019
 520  1446.459
 521  1373.41
 522  1273.83
 523  1274.854
 524  1245.833
 525  1057.573
 526  905.2489
 527  942.0433
 528  1172.253
 529  1408.132
 530  1390.512
 531  1109.252
 532  1008.599
 533  1093.216
 534  1270.603
 535  1335.017
 536  1324.342
 537  1412.944
 538  1401.58
 539  1189.154
 540  1200.405
 541  1204.779
 542  1236.732
 543  1229.951
 544  1197.715
 545  1245.744
 546  1096.81
 547  1161.567
 548  1298.039
 549  1244.06
 550  1225.207
 551  1278.731
 552  1299.841
 553  1322.831
 554  1352.637
 555  1409.459
 556  1335.529
 557  1277.015
 558  1285.318
 559  1361.125
 560  1213.083
 561  1128.266
 562  1073.539
 563  1156.938
 564  1158.976
 565  1132.368
 566  1148.877
 567  1206.134
 568  1171.621
 569  1296.481
 570  1351.294
 571  1471.249
 572  1401.971
 573  1396.086
 574  1304.802
 575  1293.279
 576  1431.096
 577  1437.244
 578  1322.205
 579  1160.498
 580  1256.127
 581  1272.7
 582  1270.575
 583  1294.168
 584  1322.586
 585  1402.34
 586  1342.728
 587  1255.156
 588  1163.714
 589  1234.889
 590  1232.139
 591  1194.322
 592  1083.506
 593  1191.797
 594  1230.634
 595  1219.919
 596  1119.474
 597  1150.615
 598  1282.426
 599  1331.267
 600  1232.751
 601  1067.476
 602  1050.731
 603  1119.725
 604  1265.703
 605  1292.023
 606  1271.796
 607  1306.108
 608  1246.483
 609  1246.368
 610  1094.099
 611  1144.189
 612  1315.36
 613  1404.171
 614  1149.794
 615  1174.562
 616  1244.18
 617  1335.615
 618  1403.214
 619  1473.686
 620  1526.9
 621  1441.941
 622  1417.483
 623  1368.088
 624  1230.307
 625  1155.864
 626  1253.173
 627  1413.392
 628  1424.97
 629  1410.586
 630  1471.279
 631  1419.773
 632  1307.162
 633  1244.69
 634  1372.309
 635  1381.199
 636  1247.686
 637  1188.198
 638  1225.593
 639  1309.663
 640  1346.438
 641  1311.332
 642  1343.065
 643  1217.934
 644  1207.481
 645  1200.502
 646  1222.73
 647  1172.841
 648  1262.876
 649  1501.002
 650  1500.62
 651  1384.783
 652  1328.383
 653  1397.403
 654  1498.925
 655  1443.55
 656  1271.896
 657  1083.275
 658  1155.559
 659  1270.688
 660  1252.2
 661  1165.352
 662  1234.806
 663  1324.347
 664  1357.686
 665  1147.253
 666  1148.255
 667  1189.24
 668  1243.507
 669  1168.468
 670  1211.072
 671  1267.64
 672  1127.269
 673  1064.531
 674  928.4104
 675  959.7146
 676  1010.856
 677  1246.591
 678  1230.218
 679  1105.089
 680  1111.431
 681  1097.682
 682  1096.101
 683  1174.477
 684  1253.966
 685  1359.613
 686  1385.727
 687  1351.245
 688  1276.083
 689  1172.156
 690  1260.95
 691  1283.263
 692  1227.962
 693  1099.897
 694  973.145
 695  1123.881
 696  1187.997
 697  1118.389
 698  903.1851
 699  1094.121
 700  1247.193
 701  1374.795
 702  1200.193
 703  1239.693
 704  1224.98
 705  1215.438
 706  1070.423
 707  1036.641
 708  1029.349
 709  1166.413
 710  1238.394
 711  1266.992
 712  1235.592
 713  1267.704
 714  1146.062
 715  1073.091
 716  1128.58
 717  1305.077
 718  1410.768
 719  1445.867
 720  1466.886
 721  1329.891
 722  1198.727
 723  1217.404
 724  1281.73
 725  1222.047
 726  1153.589
 727  1137.636
 728  1117.58
 729  1097.033
 730  918.1829
 731  970.9831
 732  1055.121
 733  1204.459
 734  1218.475
 735  1262.748
 736  1369.962
 737  1335.198
 738  1142.48
 739  1117.931
 740  927.3441
 741  1037.816
 742  1122.148
 743  1203.499
 744  996.6738
 745  1023.642
 746  1192.59
 747  1232.269
 748  1239.855
 749  1412.292
 750  1655.324
 751  1609.641
 752  1616.57
 753  1607.06
 754  1674.182
 755  1746.292
 756  1767.241
 757  1687.994
 758  1535.745
 759  1634.129
 760  1911.181
 761  1937.232
 762  1625.406
 763  1402.485
 764  1488.38
 765  1450.775
 766  1341.023
 767  1174.213
 768  1279.205
 769  1350.299
 770  1359.463
 771  1366.966
 772  1252.992
 773  1188.61
 774  1191.935
 775  1263.471
 776  1217.26
 777  1174.713
 778  1284.944
 779  1327.751
 780  1363.937
 781  1321.076
 782  1456.887
 783  1442.481
 784  1450.271
 785  1458.614
 786  1429.736
 787  1305.657
 788  1247.582
 789  1126.277
 790  1060.913
 791  1002.031
 792  1025.383
 793  1106.635
 794  1061.649
 795  1027.328
 796  1167.751
 797  1351.733
 798  1439.415
 799  1286.94
 800  1248.656
 801  1432.508
 802  1492.577
 803  1545.754
 804  1401.873
 805  1296.886
 806  1281.875
 807  1213.51
 808  1117.115
 809  1149.935
 810  1336.355
 811  1398.108
 812  1307.563
 813  1198.882
 814  1277.079
 815  1423.205
 816  1425.443
 817  1383.078
 818  1323.168
 819  1317.919
 820  1364.421
 821  1420.797
 822  1399.213
 823  1281.543
 824  1170.054
 825  1318.056
 826  1315.727
 827  1203.04
 828  1189.659
 829  1256.49
 830  1399.001
 831  1316.04
 832  1289.119
 833  1254.446
 834  1210.078
 835  1344.386
 836  1351.13
 837  1387.739
 838  1308.593
 839  1401.946
 840  1349.328
 841  1265.225
 842  1236.063
 843  1481.593
 844  1516.196
 845  1334.491
 846  1116.071
 847  1112.438
 848  1222.648
 849  1304.356
 850  1302.041
 851  1188.433
 852  1176.274
 853  1233.569
 854  1244.815
 855  1018.092
 856  981.8478
 857  1142.526
 858  1176.416
 859  1108.835
 860  1059.7
 861  1174.118
 862  1194.649
 863  1199.992
 864  1200.222
 865  1234.316
 866  1302.48
 867  1260.305
 868  1266.525
 869  1127.903
 870  1167.194
 871  1236.66
 872  1171.296
 873  1171.071
 874  1265.801
 875  1397.757
 876  1480.567
 877  1313.73
 878  1257.448
 879  1222.579
 880  1293.349
 881  1326.343
 882  1422.638
 883  1555.259
 884  1591.771
 885  1582.251
 886  1365.676
 887  1236.425
 888  1122.724
 889  1320.092
 890  1267.736
 891  1090.74
 892  1040.785
 893  1112.091
 894  1243.1
 895  1094.28
 896  991.7843
 897  950.1211
 898  1176.925
 899  1313.231
 900  1429.076
 901  1437.529
 902  1570.159
 903  1599.708
 904  1454.428
 905  1177.173
 906  964.3645
 907  912.4435
 908  1150.085
 909  1163.879
 910  1005.659
 911  1043.142
 912  1239.905
 913  1352.659
 914  1304.653
 915  1375.1
 916  1566.104
 917  1655.047
 918  1679.471
 919  1607.089
 920  1393.842
 921  1196.535
 922  1088.073
 923  964.1702
 924  973.2841
 925  926.8964
 926  1152.817
 927  1146.181
 928  1113.514
 929  1044.52
 930  1179.017
 931  1260.428
 932  1141.864
 933  1104.749
 934  1087.32
 935  1204.16
 936  1321.659
 937  1318.261
 938  1343.252
 939  1242.893
 940  1336.762
 941  1367.867
 942  1224.96
 943  1262.813
 944  1306.378
 945  1416.876
 946  1335.875
 947  1284.273
 948  1441.595
 949  1458.45
 950  1414.87
 951  1288.284
 952  1270.297
 953  1365.289
 954  1532.521
 955  1480.775
 956  1403.111
 957  1376.235
 958  1444.545
 959  1443.996
 960  1257.469
 961  1247.383
 962  1319.536
 963  1429.566
 964  1362.04
 965  1243.943
 966  1214.301
 967  1141.54
 968  1261.451
 969  1294.481
 970  1424.868
 971  1373.799
 972  1427.369
 973  1487.075
 974  1407.519
 975  1304.385
 976  1320.393
 977  1296.768
 978  1264.695
 979  1123.733
 980  1029.995
 981  1240.132
 982  1355.361
 983  1562.721
 984  1598.062
 985  1621.22
 986  1655.952
 987  1517.747
 988  1322.965
 989  1015.221
 990  1095.555
 991  1349.033
 992  1394.448
 993  1127.926
 994  1102.541
 995  1197.146
 996  1273.574
 997  1185.287
 998  1172.806
 999  1296.149
1000  1428.269
1001  1427.477
1002  1276.642
1003  1220.24
1004  1223.091
1005  1348.757
1006  1382.704
1007  1364.996
1008  1407.671
1009  1425.53
1010  1392.769
1011  1300.023
1012  1277.088
1013  1329.551
1014  1205.072
1015  1194.067
1016  1275.723
1017  1361.19
1018  1330.899
1019  1398.801
1020  1470.554
1021  1367.765
1022  1204.879
1023  1140.683
