# Input file       =  1178800781.100998_cleaned.dat
# Candidate        =  PSR_0332+5434
# Telescope        =  AR
# Epoch_topo       =  57887.527778946736
# Epoch_bary       =  N/A
# T_sample         =  0.002
# Data Folded      =  7340032
# Data Avg         =  0.0460374094878458
# Data StdDev      =  2.66647975293953 
# Profile Bins     =  512
# Profile Avg      =  660.10522208536  
# Profile StdDev   =  319.265717256619 
# Reduced chi-sqr  =  1.095
# Prob(Noise)      <  0.0686   (~1.5 sigma)
# P_topo (ms)      =  714.534061783901  +/- 0.000362
# P'_topo (s/s)    =  -0                +/- 1.91e-10
# P''_topo (s/s^2) =  0                 +/- 8.43e-14
# P_bary (ms)      =  N/A
# P'_bary (s/s)    =  N/A
# P''_bary (s/s^2) =  N/A
# P_orb (s)        =  N/A
# asin(i)/c (s)    =  N/A
# eccentricity     =  N/A
# w (rad)          =  N/A
# T_peri           =  N/A
######################################################
   0  665.8481
   1  689.4594
   2  600.2286
   3  705.2547
   4  1204.642
   5  953.7115
   6  412.7434
   7  138.3634
   8  414.9355
   9  615.3572
  10  458.7371
  11  474.0781
  12  554.8175
  13  85.68289
  14  374.9591
  15  497.797
  16  552.3392
  17  606.5066
  18  347.9009
  19  608.6243
  20  673.0639
  21  459.257
  22  698.2165
  23  470.0119
  24  212.0533
  25  207.4357
  26  485.8242
  27  359.1851
  28  353.9998
  29  318.5036
  30  434.3755
  31  354.1588
  32  420.2223
  33  406.7075
  34  283.5858
  35  557.5224
  36  536.182
  37  298.1704
  38  436.7572
  39  652.6577
  40  800.3865
  41  848.985
  42  688.3153
  43  439.4925
  44  300.4837
  45  574.3214
  46  530.0564
  47  629.6445
  48  978.0322
  49  651.9357
  50  673.517
  51  864.9954
  52  804.9753
  53  674.0539
  54  695.132
  55  943.5616
  56  947.6105
  57  824.1054
  58  946.124
  59  608.8343
  60  809.1268
  61  1064.736
  62  932.5223
  63  1027.35
  64  592.9593
  65  497.7715
  66  588.9016
  67  361.3601
  68  552.4454
  69  590.5974
  70  743.2845
  71  951.8671
  72  767.0777
  73  725.9127
  74  756.9747
  75  940.3085
  76  1275.703
  77  1028.872
  78  890.6201
  79  1151.723
  80  1086.79
  81  766.7182
  82  630.8812
  83  998.3154
  84  1082.601
  85  821.8542
  86  665.7177
  87  800.4398
  88  939.8865
  89  865.37
  90  541.9451
  91  468.7901
  92  712.1807
  93  910.4207
  94  793.4156
  95  769.67
  96  727.8671
  97  837.8431
  98  445.5198
  99  639.2892
 100  890.7911
 101  782.0286
 102  836.8328
 103  697.2033
 104  716.8232
 105  615.726
 106  721.6575
 107  674.3305
 108  694.0711
 109  826.7215
 110  817.7851
 111  638.2155
 112  753.3451
 113  571.5518
 114  443.9825
 115  881.3472
 116  904.7868
 117  706.0964
 118  650.5676
 119  584.0264
 120  708.498
 121  744.8362
 122  774.2185
 123  312.9004
 124  653.7173
 125  702.751
 126  624.382
 127  482.0228
 128  598.0246
 129  635.3834
 130  687.473
 131  871.449
 132  921.5911
 133  1079.011
 134  795.2353
 135  350.0822
 136  538.5955
 137  884.1558
 138  545.0259
 139  521.2538
 140  566.9437
 141  310.2272
 142  590.8438
 143  844.6482
 144  861.4001
 145  846.4985
 146  822.9
 147  596.2151
 148  619.2836
 149  616.2584
 150  828.3232
 151  880.9154
 152  735.4121
 153  873.936
 154  765.0117
 155  839.6662
 156  885.2145
 157  911.88
 158  946.9172
 159  862.0913
 160  939.5108
 161  947.2026
 162  662.9663
 163  497.3626
 164  591.0859
 165  1182.956
 166  868.6416
 167  947.9343
 168  891.761
 169  821.0822
 170  829.6653
 171  708.1912
 172  626.9589
 173  802.3036
 174  628.5041
 175  515.691
 176  756.8204
 177  614.6341
 178  290.7744
 179  347.847
 180  591.9026
 181  601.3969
 182  394.4353
 183  471.4496
 184  457.787
 185  431.697
 186  675.0234
 187  662.3881
 188  570.3506
 189  708.7198
 190  325.1525
 191  520.8802
 192  913.8708
 193  928.3664
 194  1049.923
 195  815.5214
 196  379.6065
 197  311.8551
 198  493.0764
 199  467.6285
 200  748.483
 201  632.6349
 202  385.9961
 203  135.9333
 204  664.1511
 205  760.3723
 206  550.894
 207  520.5645
 208  780.7044
 209  659.3749
 210  492.8181
 211  532.3451
 212  458.8174
 213  675.5239
 214  769.8684
 215  761.6445
 216  874.0798
 217  729.9686
 218  1066.266
 219  524.9167
 220  460.9079
 221  702.1732
 222  867.0558
 223  889.946
 224  736.1138
 225  735.3227
 226  758.3409
 227  631.1099
 228  909.4954
 229  579.7203
 230  559.5276
 231  433.6524
 232  484.4922
 233  326.609
 234  563.7416
 235  675.0095
 236  657.5861
 237  730.1003
 238  768.3077
 239  524.9688
 240  379.1277
 241  532.0895
 242  437.4489
 243  216.5274
 244  125.4987
 245  156.2222
 246  419.4235
 247  319.1409
 248  856.2654
 249  1104.568
 250  812.5549
 251  752.9515
 252  659.9349
 253  749.6157
 254  605.2519
 255  460.5572
 256  738.1595
 257  515.0927
 258  613.9047
 259  883.1605
 260  708.8294
 261  797.519
 262  645.1284
 263  647.0911
 264  517.5463
 265  488.3192
 266  633.2881
 267  748.1633
 268  771.2871
 269  871.3044
 270  553.8053
 271  389.6978
 272  341.1199
 273  292.4631
 274  370.1742
 275  264.5162
 276  405.6797
 277  262.7542
 278  171.8588
 279  354.0558
 280  613.9974
 281  622.6537
 282  429.9828
 283  -1.309335
 284  331.6599
 285  246.6284
 286  484.4065
 287  578.3717
 288  528.8416
 289  690.9023
 290  669.417
 291  454.0108
 292  335.5171
 293  505.4921
 294  194.4055
 295  479.7946
 296  251.9833
 297  193.1823
 298  747.8367
 299  779.9921
 300  606.5705
 301  459.5157
 302  463.1518
 303  663.5108
 304  620.0317
 305  744.3127
 306  725.7774
 307  702.7551
 308  510.7894
 309  562.4453
 310  456.5924
 311  588.1855
 312  753.2305
 313  875.9056
 314  864.1363
 315  692.6193
 316  520.2208
 317  718.2645
 318  568.0925
 319  664.4861
 320  965.5338
 321  483.7201
 322  532.9484
 323  728.9655
 324  961.138
 325  904.003
 326  865.1731
 327  995.2421
 328  1246.238
 329  1694.715
 330  2144.046
 331  2060.149
 332  1582.693
 333  898.9977
 334  468.166
 335  823.5538
 336  725.4257
 337  336.3093
 338  349.8591
 339  562.8024
 340  592.779
 341  947.0684
 342  632.7851
 343  679.3558
 344  635.1878
 345  853.3107
 346  931.5374
 347  492.3358
 348  390.4749
 349  512.2363
 350  444.6705
 351  910.6855
 352  843.9899
 353  792.764
 354  718.4641
 355  733.0481
 356  731.2333
 357  744.8236
 358  673.0129
 359  426.7266
 360  856.1146
 361  1012.83
 362  639.7282
 363  376.5215
 364  528.4564
 365  617.3098
 366  783.8531
 367  838.5715
 368  653.0699
 369  640.6041
 370  664.0062
 371  633.4139
 372  413.1917
 373  346.0174
 374  418.6055
 375  661.9853
 376  734.8365
 377  349.2138
 378  192.7863
 379  550.5779
 380  742.3581
 381  619.1828
 382  946.4437
 383  567.6838
 384  589.8998
 385  639.5833
 386  213.6425
 387  734.7346
 388  645.3872
 389  620.0633
 390  816.2555
 391  596.3314
 392  855.5355
 393  339.3854
 394  321.8794
 395  620.3118
 396  762.5179
 397  534.9797
 398  643.7726
 399  913.745
 400  554.5013
 401  612.805
 402  957.1127
 403  1075.486
 404  954.9746
 405  933.5298
 406  1106.968
 407  1150.351
 408  819.7207
 409  903.4932
 410  786.5439
 411  760.3395
 412  687.4963
 413  642.3651
 414  651.7023
 415  648.0071
 416  730.1537
 417  636.5932
 418  581.023
 419  888.397
 420  564.8139
 421  715.9666
 422  686.8156
 423  590.9595
 424  376.8271
 425  416.0843
 426  265.7264
 427  283.2515
 428  796.0533
 429  638.1971
 430  513.8802
 431  571.0671
 432  724.876
 433  851.0744
 434  1042.432
 435  876.5494
 436  731.2864
 437  571.4493
 438  661.5528
 439  293.6706
 440  365.1421
 441  669.3478
 442  694.3422
 443  1157.474
 444  1163.034
 445  815.5725
 446  552.072
 447  675.7893
 448  735.0986
 449  772.876
 450  633.0983
 451  785.9892
 452  1040.123
 453  964.8986
 454  397.7309
 455  676.6232
 456  878.0729
 457  640.3967
 458  251.1281
 459  204.8461
 460  534.5647
 461  357.6051
 462  504.3539
 463  739.577
 464  541.3849
 465  320.2041
 466  266.3238
 467  637.3398
 468  840.8002
 469  1052.504
 470  845.7061
 471  702.0012
 472  941.2767
 473  1037.258
 474  1024.38
 475  1042.06
 476  697.8585
 477  689.4784
 478  658.3449
 479  613.2529
 480  804.7889
 481  873.6023
 482  594.7452
 483  570.4655
 484  568.4786
 485  386.7877
 486  466.1544
 487  793.8436
 488  906.9255
 489  906.6096
 490  451.8504
 491  639.5047
 492  524.9532
 493  627.551
 494  732.9858
 495  595.9177
 496  593.0447
 497  529.9286
 498  604.7141
 499  458.5047
 500  325.4702
 501  386.0652
 502  328.9614
 503  613.0405
 504  404.6734
 505  584.6575
 506  695.1133
 507  905.7564
 508  558.1959
 509  730.3506
 510  844.4909
 511  704.0848
