# Input file       =  1178886977.099836_cleaned.dat
# Candidate        =  PSR_0332+5434
# Telescope        =  AR
# Epoch_topo       =  57888.525417822180
# Epoch_bary       =  N/A
# T_sample         =  0.002
# Data Folded      =  7340032
# Data Avg         =  0.0480220950308388
# Data StdDev      =  2.80197136175232 
# Profile Bins     =  512
# Profile Avg      =  688.303293340486 
# Profile StdDev   =  335.488538983348 
# Reduced chi-sqr  =  1.284
# Prob(Noise)      <  1.38e-05   (~4.2 sigma)
# P_topo (ms)      =  714.533099381926  +/- 0.000256
# P'_topo (s/s)    =  -0                +/- 1.35e-10
# P''_topo (s/s^2) =  0                 +/- 5.97e-14
# P_bary (ms)      =  N/A
# P'_bary (s/s)    =  N/A
# P''_bary (s/s^2) =  N/A
# P_orb (s)        =  N/A
# asin(i)/c (s)    =  N/A
# eccentricity     =  N/A
# w (rad)          =  N/A
# T_peri           =  N/A
######################################################
   0  687.4365
   1  481.4598
   2  411.6657
   3  467.147
   4  972.5053
   5  1008.083
   6  751.5349
   7  681.3068
   8  754.9893
   9  430.223
  10  597.3762
  11  721.1746
  12  1025.87
  13  1160.506
  14  1135.379
  15  1009.83
  16  767.7009
  17  809.8619
  18  955.5153
  19  853.13
  20  719.0686
  21  809.292
  22  921.8614
  23  993.0653
  24  776.1247
  25  359.555
  26  780.4899
  27  911.6307
  28  556.5693
  29  906.6859
  30  1015.207
  31  832.081
  32  928.1696
  33  643.8923
  34  934.0098
  35  689.3784
  36  801.0905
  37  550.3332
  38  690.5525
  39  890.7438
  40  997.2565
  41  961.7742
  42  1076.007
  43  962.0232
  44  1052.571
  45  804.7363
  46  978.6633
  47  929.2914
  48  775.1386
  49  826.4362
  50  615.3792
  51  437.292
  52  641.1735
  53  798.2537
  54  714.4352
  55  435.4861
  56  429.6548
  57  383.5262
  58  487.646
  59  726.7912
  60  991.8444
  61  1039.17
  62  505.5781
  63  481.9931
  64  607.5095
  65  443.9114
  66  785.1951
  67  931.8302
  68  935.9738
  69  779.3817
  70  666.78
  71  544.2632
  72  473.5135
  73  359.8321
  74  747.752
  75  896.9393
  76  568.0734
  77  692.7111
  78  829.2035
  79  758.5927
  80  585.618
  81  896.6386
  82  785.7104
  83  688.629
  84  982.5297
  85  711.5312
  86  654.3116
  87  823.9676
  88  621.4451
  89  424.259
  90  174.983
  91  598.2493
  92  735.252
  93  587.3922
  94  693.6957
  95  661.6437
  96  890.193
  97  745.4111
  98  247.1209
  99  563.5676
 100  759.4443
 101  918.0483
 102  892.8196
 103  609.5351
 104  593.2905
 105  361.2256
 106  399.8856
 107  734.9955
 108  1027.345
 109  872.8925
 110  797.034
 111  897.175
 112  907.882
 113  875.4
 114  677.7153
 115  693.3605
 116  393.9672
 117  563.8842
 118  893.7271
 119  823.7007
 120  717.1336
 121  601.7901
 122  563.7178
 123  785.5401
 124  789.0391
 125  614.7654
 126  828.4454
 127  657.5244
 128  625.866
 129  725.1551
 130  1108.668
 131  1006.807
 132  844.2169
 133  1177.698
 134  877.1007
 135  634.7231
 136  676.4482
 137  748.1243
 138  613.7134
 139  850.5291
 140  917.8456
 141  868.1934
 142  576.7343
 143  427.3766
 144  91.61657
 145  344.4227
 146  636.329
 147  713.16
 148  807.3526
 149  400.2661
 150  294.2867
 151  616.9696
 152  719.6135
 153  912.0512
 154  930.7792
 155  746.9727
 156  528.1914
 157  339.3215
 158  547.1616
 159  697.261
 160  841.4497
 161  782.2924
 162  920.5676
 163  653.5984
 164  528.2658
 165  1010.807
 166  491.0726
 167  306.3228
 168  439.0499
 169  482.3983
 170  642.0938
 171  567.6155
 172  357.1445
 173  335.044
 174  5.796334
 175  186.3142
 176  430.3292
 177  290.3027
 178  579.1377
 179  509.1951
 180  589.6452
 181  631.7656
 182  369.4089
 183  734.8535
 184  800.7459
 185  371.7214
 186  287.1904
 187  430.5601
 188  450.3498
 189  704.5983
 190  866.97
 191  433.2531
 192  310.8405
 193  516.2176
 194  1009.822
 195  1061.468
 196  931.9327
 197  920.947
 198  1115.534
 199  1007.099
 200  813.9955
 201  732.673
 202  767.8721
 203  648.8401
 204  640.2635
 205  734.3901
 206  1121.475
 207  900.6511
 208  811.756
 209  844.6724
 210  635.4072
 211  634.4505
 212  532.2824
 213  682.1602
 214  808.5718
 215  787.2183
 216  525.9142
 217  509.3658
 218  506.1074
 219  743.3495
 220  670.6205
 221  686.9836
 222  675.7812
 223  672.4952
 224  376.9749
 225  390.3573
 226  386.5175
 227  383.2063
 228  319.723
 229  266.0985
 230  526.6904
 231  301.792
 232  355.14
 233  541.8839
 234  576.4337
 235  719.0755
 236  659.2649
 237  803.4922
 238  612.8671
 239  304.3328
 240  452.5964
 241  777.6347
 242  662.2411
 243  489.6238
 244  620.0876
 245  934.2654
 246  632.4936
 247  483.5394
 248  775.9015
 249  824.1722
 250  711.8226
 251  768.2393
 252  854.9238
 253  826.017
 254  507.7745
 255  723.6021
 256  771.009
 257  616.4812
 258  602.2448
 259  863.0319
 260  656.9502
 261  608.0549
 262  776.7015
 263  800.1757
 264  712.803
 265  1037.12
 266  1119.733
 267  1268.094
 268  813.5472
 269  663.9656
 270  629.5346
 271  592.4517
 272  678.5968
 273  644.2767
 274  753.697
 275  608.9849
 276  522.8947
 277  566.1551
 278  752.6241
 279  606.8129
 280  361.5257
 281  443.4336
 282  758.798
 283  790.7152
 284  441.2125
 285  165.6666
 286  260.3684
 287  348.4054
 288  488.6537
 289  413.6194
 290  586.4427
 291  492.3398
 292  431.1312
 293  668.891
 294  721.9692
 295  784.7713
 296  701.7135
 297  544.409
 298  292.8949
 299  727.5104
 300  957.4379
 301  649.243
 302  582.2765
 303  733.8146
 304  686.5909
 305  632.5911
 306  843.5527
 307  694.2723
 308  494.5095
 309  883.2988
 310  855.9997
 311  764.0447
 312  814.0912
 313  489.0386
 314  427.7873
 315  465.8506
 316  730.5104
 317  565.3699
 318  355.4879
 319  386.7907
 320  434.288
 321  361.8412
 322  425.1445
 323  662.785
 324  746.0527
 325  611.4502
 326  587.0078
 327  822.2023
 328  795.0442
 329  954.9274
 330  612.303
 331  655.7529
 332  666.3118
 333  430.8115
 334  560.507
 335  604.674
 336  540.4543
 337  186.4516
 338  399.6178
 339  466.6063
 340  557.6455
 341  767.5721
 342  337.4457
 343  681.0719
 344  710.2284
 345  553.2619
 346  674.2266
 347  988.5387
 348  593.4202
 349  408.4344
 350  121.9218
 351  183.8666
 352  529.3168
 353  443.5056
 354  713.6049
 355  535.8217
 356  346.4146
 357  566.3604
 358  583.2432
 359  554.2795
 360  301.5468
 361  660.0946
 362  829.2679
 363  737.3363
 364  1000.726
 365  622.2288
 366  1044.575
 367  806.3989
 368  668.0385
 369  1041.5
 370  1247.535
 371  1013.843
 372  983.3551
 373  1179.07
 374  1063.622
 375  1267.998
 376  1658.241
 377  2123.044
 378  2597.705
 379  2628.843
 380  2206.566
 381  1294.775
 382  923.2438
 383  879.397
 384  709.0978
 385  691.3568
 386  753.1458
 387  696.4721
 388  585.2958
 389  543.9855
 390  1056.483
 391  1128.428
 392  1053.218
 393  990.4421
 394  476.1566
 395  393.788
 396  928.9066
 397  760.8237
 398  260.657
 399  487.013
 400  558.6435
 401  289.734
 402  411.7476
 403  708.7576
 404  297.1526
 405  233.3001
 406  882.7302
 407  786.6928
 408  698.6788
 409  758.7817
 410  642.2308
 411  476.6919
 412  599.4717
 413  592.1312
 414  487.564
 415  495.6232
 416  746.2072
 417  562.5662
 418  366.296
 419  322.5523
 420  495.2316
 421  379.5934
 422  388.5946
 423  418.3745
 424  103.1507
 425  149.7348
 426  332.1279
 427  366.7424
 428  663.6312
 429  742.499
 430  466.3866
 431  363.7444
 432  381.0417
 433  479.1041
 434  325.7498
 435  289.9055
 436  277.6838
 437  407.794
 438  541.5879
 439  313.4318
 440  685.4561
 441  714.524
 442  726.3989
 443  760.4613
 444  909.1986
 445  735.1783
 446  512.0947
 447  696.5143
 448  567.1217
 449  418.5775
 450  394.0276
 451  748.6899
 452  734.6389
 453  807.65
 454  828.0464
 455  590.5103
 456  526.8067
 457  620.4406
 458  832.202
 459  771.6215
 460  615.1569
 461  1041.904
 462  968.1812
 463  902.2529
 464  788.9248
 465  749.6893
 466  909.1147
 467  1020.978
 468  1195.474
 469  1234.967
 470  1244.602
 471  952.0439
 472  867.5376
 473  746.2005
 474  792.8917
 475  581.1127
 476  835.2448
 477  1035.779
 478  746.1398
 479  523.9198
 480  424.6789
 481  669.7891
 482  606.4554
 483  866.0889
 484  721.6929
 485  557.9897
 486  499.4312
 487  542.8994
 488  775.3639
 489  616.5849
 490  584.2658
 491  870.0109
 492  471.903
 493  513.3212
 494  593.1089
 495  663.4758
 496  778.6689
 497  906.0859
 498  674.3297
 499  507.8524
 500  633.1782
 501  927.0235
 502  864.4
 503  756.2578
 504  952.4354
 505  916.6509
 506  1199.962
 507  929.4584
 508  613.9174
 509  988.4167
 510  889.2689
 511  634.5096
