# Input file       =  1179561381.09626_cleaned.dat
# Candidate        =  PSR_0332+5434
# Telescope        =  AR
# Epoch_topo       =  57896.331019632642
# Epoch_bary       =  N/A
# T_sample         =  0.002
# Data Folded      =  7340032
# Data Avg         =  0.0874081511065015
# Data StdDev      =  2.88240572165109 
# Profile Bins     =  512
# Profile Avg      =  1253.00691057451 
# Profile StdDev   =  345.119189123048 
# Reduced chi-sqr  =  0.848
# Prob(Noise)      <  0.994   (~0.0 sigma)
# P_topo (ms)      =  714.525130465639  +/- 0.00044
# P'_topo (s/s)    =  -0                +/- 2.32e-10
# P''_topo (s/s^2) =  0                 +/- 1.03e-13
# P_bary (ms)      =  N/A
# P'_bary (s/s)    =  N/A
# P''_bary (s/s^2) =  N/A
# P_orb (s)        =  N/A
# asin(i)/c (s)    =  N/A
# eccentricity     =  N/A
# w (rad)          =  N/A
# T_peri           =  N/A
######################################################
   0  1404.258
   1  1392.068
   2  1317.867
   3  1261.069
   4  1254.097
   5  1061.863
   6  1164.295
   7  1352.319
   8  1257.772
   9  1124.328
  10  1627.93
  11  1641.718
  12  1339.224
  13  1246.473
  14  1301.999
  15  1070.369
  16  1043.359
  17  1122.726
  18  730.9409
  19  918.2949
  20  1523.907
  21  1173.669
  22  829.4206
  23  806.7536
  24  1188.278
  25  1118.666
  26  1304.313
  27  1147.857
  28  1176.838
  29  1223.904
  30  1153.079
  31  1241.92
  32  1165.816
  33  951.4379
  34  1160.892
  35  840.8224
  36  692.8127
  37  964.3436
  38  1273.771
  39  1401.022
  40  1156.54
  41  1216.134
  42  1403.904
  43  1382.601
  44  1799.93
  45  1622.135
  46  1216.445
  47  1271.711
  48  1205.044
  49  1074.853
  50  1124.092
  51  1189.665
  52  1188.582
  53  1524.054
  54  1378.047
  55  1432.986
  56  1284.839
  57  1262.028
  58  1192.345
  59  873.9379
  60  1231.696
  61  1454.224
  62  1331.217
  63  1289.87
  64  1230.436
  65  1324.232
  66  1402.752
  67  1399.859
  68  1226.487
  69  1262.792
  70  1235.979
  71  1403.227
  72  1623.533
  73  1516.318
  74  1401.536
  75  1435.607
  76  1410.809
  77  1271.505
  78  1298.432
  79  1748.931
  80  1283.781
  81  958.0919
  82  1424.824
  83  1448.918
  84  1394.776
  85  1132.79
  86  1036.66
  87  1291.178
  88  1260.57
  89  1267.862
  90  1443.549
  91  1493.083
  92  1189.951
  93  1319.486
  94  1381.761
  95  1390.033
  96  1470.247
  97  1201.174
  98  1011.299
  99  980.9603
 100  1105.136
 101  1036.277
 102  1046.612
 103  1076.953
 104  1417.827
 105  1429.021
 106  1434.694
 107  1506.398
 108  1311.968
 109  1069.753
 110  1170.376
 111  1621.964
 112  1414.583
 113  1630.754
 114  1303.897
 115  1375.384
 116  1262.749
 117  1402.396
 118  1354.75
 119  1256.72
 120  1108.833
 121  1308.595
 122  1422.715
 123  1402.126
 124  1269.635
 125  1200.645
 126  1124.27
 127  1197.996
 128  1435.068
 129  1431.388
 130  1185.24
 131  1134.975
 132  1506.579
 133  1428.972
 134  1241.986
 135  1427.835
 136  1517.255
 137  1715.802
 138  1208.316
 139  907.04
 140  1084.287
 141  1120.724
 142  1111.315
 143  1164.388
 144  1101.057
 145  1161.988
 146  1018.396
 147  1166.228
 148  1416.971
 149  1002.066
 150  1115.776
 151  1324.567
 152  1233.849
 153  1368.755
 154  1342.345
 155  1058.563
 156  1239.836
 157  1225.525
 158  970.4803
 159  1267.498
 160  1432.999
 161  1308.861
 162  1537.47
 163  1614.814
 164  1547.562
 165  962.0389
 166  957.4053
 167  1254.699
 168  1386.644
 169  1301.212
 170  1056.464
 171  827.1248
 172  704.2488
 173  1160.263
 174  1079.474
 175  1020.689
 176  1140.671
 177  1140.245
 178  849.4132
 179  664.272
 180  559.5722
 181  936.7221
 182  1058.935
 183  955.2704
 184  1064.056
 185  992.8051
 186  1254.506
 187  1176.569
 188  1050.454
 189  1136.788
 190  1121.952
 191  1273.964
 192  1493.403
 193  1186.263
 194  902.2853
 195  928.8981
 196  1028.328
 197  1221.425
 198  1160.65
 199  1081.243
 200  1024.917
 201  1116.934
 202  1516.933
 203  1580.169
 204  1400.179
 205  1502.771
 206  1419.696
 207  1637.096
 208  1803.883
 209  1619.886
 210  1591.45
 211  1468.365
 212  1352.9
 213  1220.943
 214  1400.443
 215  1371.551
 216  1256.637
 217  1151.796
 218  1067.519
 219  1019.782
 220  1091.639
 221  1158.136
 222  922.7418
 223  816.8074
 224  1221.264
 225  1241.978
 226  1281.248
 227  1220.327
 228  933.3088
 229  1048.75
 230  1272.611
 231  1146.25
 232  1203.312
 233  1045.637
 234  920.1558
 235  939.6707
 236  1294.982
 237  1467.365
 238  1069.842
 239  925.5514
 240  1135.112
 241  1245.772
 242  1126.448
 243  1069.667
 244  863.0322
 245  1034.354
 246  1340.974
 247  1183.178
 248  1148.493
 249  1284.833
 250  1174.262
 251  1126.362
 252  1138.049
 253  1335.382
 254  1276.537
 255  1081.468
 256  1234.15
 257  1398.123
 258  1173.407
 259  1161.078
 260  1293.85
 261  1172.166
 262  1161.887
 263  1178.997
 264  1118.824
 265  1052.176
 266  1359.083
 267  1235.738
 268  1279.399
 269  1158.084
 270  1195.221
 271  1057.292
 272  1142.458
 273  1493.863
 274  1458.525
 275  1338.112
 276  1392.051
 277  1397.597
 278  1374.162
 279  1469.656
 280  1192.588
 281  958.5742
 282  1182.384
 283  1192.937
 284  1152.597
 285  1305.905
 286  1177.413
 287  1301.221
 288  1018.243
 289  975.9464
 290  931.8373
 291  1156.629
 292  1049.303
 293  921.8105
 294  1158.8
 295  1281.169
 296  934.1234
 297  614.7584
 298  808.5092
 299  972.5129
 300  1083.848
 301  945.2
 302  994.9524
 303  985.817
 304  1307.673
 305  1356.006
 306  1370.78
 307  1376.693
 308  1057.327
 309  917.2961
 310  1315.127
 311  1166.79
 312  892.5832
 313  1062.752
 314  1282.637
 315  1373.015
 316  907.3802
 317  966.6056
 318  1246.769
 319  1381.431
 320  1305.298
 321  1504.099
 322  1422.183
 323  1346.206
 324  1373.252
 325  1664.705
 326  2163.449
 327  2151.266
 328  2388.305
 329  2610.114
 330  2521.122
 331  2067.863
 332  1909.574
 333  1364.981
 334  1304.51
 335  1516.497
 336  1387.665
 337  1005.317
 338  1324.991
 339  1254.025
 340  1352.209
 341  1217.917
 342  1290.799
 343  1153.431
 344  1285.521
 345  1516.692
 346  1391.846
 347  1477.886
 348  1584.072
 349  1490.664
 350  1235.122
 351  1381.426
 352  1310.371
 353  1240.252
 354  1215.844
 355  1103.089
 356  1219.86
 357  1217.03
 358  910.0846
 359  912.8002
 360  1052.702
 361  1331.907
 362  1270.424
 363  1487.009
 364  1164.645
 365  1171.06
 366  1184.47
 367  1048.833
 368  1219.131
 369  1364.613
 370  1502.862
 371  1532.217
 372  1043.034
 373  1166.022
 374  1455.686
 375  1366.988
 376  1592.893
 377  1397.982
 378  1392.385
 379  1295.043
 380  1211.585
 381  1433.135
 382  1541.668
 383  1245.93
 384  1214.297
 385  1116.509
 386  1120.211
 387  1193.925
 388  1249.273
 389  1209.891
 390  1172.525
 391  1079.662
 392  950.6075
 393  887.5193
 394  1200.173
 395  1283.782
 396  1496.306
 397  1387.425
 398  1319.238
 399  1306.567
 400  1243.165
 401  1285.586
 402  996.4903
 403  1374.611
 404  1409.823
 405  1272.922
 406  1465.691
 407  1297.381
 408  1554.547
 409  1358.887
 410  1149.068
 411  1224.619
 412  1505.583
 413  1430.557
 414  1369.03
 415  1723.312
 416  1428.711
 417  1268.601
 418  1166.564
 419  1261.97
 420  1292.927
 421  1190.526
 422  1155.169
 423  1289.469
 424  1397.418
 425  1262.155
 426  1614.813
 427  1680.463
 428  1485.437
 429  1231.917
 430  1297.563
 431  1355.874
 432  1179.5
 433  1113.97
 434  1285.148
 435  1078.578
 436  1286.089
 437  1532.11
 438  1592.646
 439  1441.818
 440  1417.378
 441  1355.898
 442  1273.023
 443  1096.598
 444  1238.816
 445  1132.821
 446  1082.475
 447  860.0671
 448  920.9103
 449  943.8262
 450  1036.411
 451  1085.856
 452  1225.46
 453  1500.838
 454  1014.704
 455  1080.748
 456  989.2382
 457  1220.483
 458  1325.265
 459  1433.952
 460  1773.954
 461  1537.529
 462  1311.787
 463  1283.996
 464  1451.323
 465  1100.894
 466  858.8435
 467  1060.09
 468  1483.01
 469  1241.546
 470  1080.067
 471  1275.381
 472  1330.839
 473  1111.51
 474  1049.663
 475  1089.733
 476  1194.214
 477  1264.134
 478  1335.78
 479  1214.964
 480  1019.698
 481  931.9177
 482  1292.472
 483  1509.818
 484  1372.186
 485  1218.334
 486  1129.467
 487  1412.674
 488  1075.654
 489  1398.17
 490  1287.97
 491  1293.309
 492  1181.949
 493  1369.196
 494  1243.567
 495  1082.672
 496  1205.195
 497  1212.917
 498  1235.568
 499  1541.928
 500  1366.324
 501  1136.73
 502  1277.288
 503  1466.801
 504  1606.315
 505  1457.204
 506  1316.794
 507  1087.529
 508  1132.086
 509  1367.074
 510  1356.651
 511  1402.119
