# Input file       =  1179733660.1152_cleaned.dat
# Candidate        =  PSR_0332+5434
# Telescope        =  AR
# Epoch_topo       =  57898.324989759261
# Epoch_bary       =  N/A
# T_sample         =  0.002
# Data Folded      =  7340032
# Data Avg         =  0.082480678836873
# Data StdDev      =  2.91718607517017 
# Profile Bins     =  512
# Profile Avg      =  1182.44551098843 
# Profile StdDev   =  349.283546456146 
# Reduced chi-sqr  =  1.100
# Prob(Noise)      <  0.0585   (~1.6 sigma)
# P_topo (ms)      =  714.523158693033  +/- 0.000257
# P'_topo (s/s)    =  -0                +/- 1.36e-10
# P''_topo (s/s^2) =  0                 +/- 6e-14
# P_bary (ms)      =  N/A
# P'_bary (s/s)    =  N/A
# P''_bary (s/s^2) =  N/A
# P_orb (s)        =  N/A
# asin(i)/c (s)    =  N/A
# eccentricity     =  N/A
# w (rad)          =  N/A
# T_peri           =  N/A
######################################################
   0  1393.935
   1  1044.735
   2  1070.659
   3  993.2097
   4  1277.01
   5  1006.439
   6  1175.226
   7  1528.271
   8  1387.028
   9  1145.396
  10  1028.432
  11  1210.919
  12  1433.457
  13  1419.566
  14  1239.253
  15  1134.58
  16  1516.989
  17  1465.234
  18  974.9821
  19  831.42
  20  1619.456
  21  1616.862
  22  1237.236
  23  997.0294
  24  1270.182
  25  1253.578
  26  1065.11
  27  1149.783
  28  1438.841
  29  1681.138
  30  1514.236
  31  1344.86
  32  1163.267
  33  1169.548
  34  1267.061
  35  1367.008
  36  917.0769
  37  711.9152
  38  946.3202
  39  1028.781
  40  1390.036
  41  1516.531
  42  1418.286
  43  1063.881
  44  1058.294
  45  933.4736
  46  1221.203
  47  1406.621
  48  1295.055
  49  1315.464
  50  1638.583
  51  1256.905
  52  1313.926
  53  1334.366
  54  1343.437
  55  1181.754
  56  942.3524
  57  1091
  58  1145.519
  59  1246.567
  60  1566.273
  61  1415.969
  62  1546.018
  63  1460.631
  64  1305.387
  65  1449.357
  66  1319.955
  67  1195.737
  68  1129.127
  69  1378.248
  70  1335.911
  71  1196.495
  72  1229.246
  73  1230.928
  74  1365.825
  75  1020.092
  76  1133.92
  77  968.0459
  78  961.2164
  79  1081.578
  80  1372.915
  81  1277.873
  82  1068.012
  83  1017.321
  84  1406.848
  85  1334.542
  86  995.4801
  87  937.4938
  88  1166.596
  89  802.4535
  90  558.4433
  91  993.7973
  92  1088.641
  93  899.0247
  94  900.6276
  95  626.9759
  96  946.8818
  97  1059.785
  98  790.0432
  99  990.7254
 100  1146.208
 101  798.4861
 102  671.3105
 103  905.9335
 104  895.2574
 105  830.613
 106  677.2946
 107  722.3494
 108  526.4765
 109  786.7976
 110  1185.583
 111  1185.979
 112  920.8985
 113  1071.477
 114  991.819
 115  975.721
 116  981.2066
 117  1284.481
 118  1287.853
 119  1254.899
 120  1213.829
 121  736.5188
 122  906.1907
 123  969.2836
 124  1203.887
 125  1458.944
 126  1152.194
 127  890.3211
 128  1276.258
 129  1462.865
 130  1314.913
 131  1479.304
 132  1362.738
 133  1443.572
 134  1255.377
 135  1451
 136  1178.054
 137  1290.898
 138  981.6533
 139  1145.056
 140  1246.368
 141  1200.146
 142  1020.693
 143  1140.39
 144  1228.725
 145  1174.17
 146  1366.245
 147  1268.306
 148  1365.407
 149  1157.435
 150  1589.286
 151  1665.041
 152  1682.446
 153  1460.051
 154  1499.11
 155  1459.271
 156  1609.243
 157  1489.478
 158  1570.291
 159  1991.372
 160  1861.459
 161  1753.049
 162  1457.357
 163  1419.737
 164  1453.798
 165  1417.233
 166  1553.085
 167  1572.621
 168  1933.453
 169  1646.963
 170  1743.943
 171  1653.481
 172  1530.982
 173  1555.487
 174  1474.775
 175  1160.86
 176  1067.088
 177  935.1996
 178  1223.13
 179  1333.02
 180  1281.039
 181  1159.66
 182  1124.254
 183  1102.206
 184  1018.511
 185  1274.021
 186  1451.24
 187  1459.912
 188  978.6917
 189  809.7681
 190  1028.67
 191  1205.789
 192  1163.806
 193  1276.788
 194  1188.758
 195  813.5036
 196  1232.321
 197  1112.423
 198  1264.7
 199  974.4434
 200  1146.234
 201  1405.762
 202  917.5556
 203  1283.592
 204  1040.96
 205  1224.298
 206  1060.471
 207  914.0219
 208  996.5792
 209  1281.48
 210  1040.884
 211  857.8094
 212  988.962
 213  1551.232
 214  1105.292
 215  1157.88
 216  901.8626
 217  1093.048
 218  1144.434
 219  1061.072
 220  962.5758
 221  1176.132
 222  1204.562
 223  1256.584
 224  1266.838
 225  1547.27
 226  1487.424
 227  1419.296
 228  1149.413
 229  1293.208
 230  1545.528
 231  1504.272
 232  1317.173
 233  1093.836
 234  882.2033
 235  1266.021
 236  1608.784
 237  1445.973
 238  988.9973
 239  685.4003
 240  1281.624
 241  1402.642
 242  1253.796
 243  1202.515
 244  1299.076
 245  1156.04
 246  1289.474
 247  1122.202
 248  1392.076
 249  1274.308
 250  1385.28
 251  1536.966
 252  1221.048
 253  1100.743
 254  1061.141
 255  897.6968
 256  1026.748
 257  921.8481
 258  1007.757
 259  1473.696
 260  1303.026
 261  1075.218
 262  1023.89
 263  903.8104
 264  877.8296
 265  884.473
 266  708.0295
 267  750.786
 268  597.866
 269  633.534
 270  686.3956
 271  897.5854
 272  629.1458
 273  564.6209
 274  742.2921
 275  623.417
 276  651.7913
 277  1122.267
 278  951.895
 279  872.4082
 280  1021.104
 281  981.2962
 282  976.9249
 283  891.3317
 284  1005.354
 285  908.3987
 286  521.4376
 287  842.5198
 288  1275.844
 289  944.5278
 290  1075.135
 291  1047.11
 292  1204.487
 293  1297.02
 294  1179.137
 295  1352.856
 296  1105.614
 297  1286.788
 298  1435.691
 299  1279.471
 300  831.042
 301  1080.274
 302  1194.104
 303  1105.106
 304  1074.454
 305  1390.758
 306  1417.931
 307  1231.309
 308  1069.625
 309  978.286
 310  901.4948
 311  1455.683
 312  1376.957
 313  894.0977
 314  1226.921
 315  1447.646
 316  1264.175
 317  1103.784
 318  1397.113
 319  1319.23
 320  1235.766
 321  1196.452
 322  1331.675
 323  1269.095
 324  1231.987
 325  1521.687
 326  1533.257
 327  1136.928
 328  1273.85
 329  1312.161
 330  1575.71
 331  1529.954
 332  1106.006
 333  788.4645
 334  916.8112
 335  904.5639
 336  938.4943
 337  997.2357
 338  1120.645
 339  1190.468
 340  981.374
 341  947.3824
 342  859.6558
 343  736.091
 344  514.7239
 345  790.2749
 346  1075.998
 347  1031.667
 348  643.6749
 349  722.8829
 350  907.9581
 351  825.8506
 352  957.9116
 353  829.5147
 354  595.2728
 355  697.6732
 356  1070.543
 357  933.3553
 358  498.7274
 359  678.0427
 360  568.7875
 361  711.1084
 362  891.3975
 363  953.7977
 364  1002.446
 365  973.4139
 366  1078.613
 367  1454.404
 368  1274.756
 369  1030.634
 370  1101.71
 371  1052.514
 372  1152.98
 373  1091.291
 374  1249.788
 375  1301.333
 376  1565.137
 377  1048.308
 378  903.6614
 379  1101.979
 380  961.535
 381  1176.506
 382  1196.491
 383  1326.163
 384  1215.401
 385  923.8137
 386  1102.032
 387  1098.144
 388  1102.269
 389  1185.24
 390  1072.095
 391  689.727
 392  922.8904
 393  1080.645
 394  1095.241
 395  1172.324
 396  1582.256
 397  1548.013
 398  890.3968
 399  883.3715
 400  1197.745
 401  1064.798
 402  1224.022
 403  1193.321
 404  1172.833
 405  1576.574
 406  1667.354
 407  1464.598
 408  1351.242
 409  1278.21
 410  1241.146
 411  1128.686
 412  1429.292
 413  1384.209
 414  1113.142
 415  1492.672
 416  1518.104
 417  789.3767
 418  869.1277
 419  757.0965
 420  1194.217
 421  1003.322
 422  1267.682
 423  1212.449
 424  1108.638
 425  1104.198
 426  1139.432
 427  958.5169
 428  1044.2
 429  1476.845
 430  1176.085
 431  1056.713
 432  1245.153
 433  1085.392
 434  983.8889
 435  1027.001
 436  1053.756
 437  859.4658
 438  924.9974
 439  1034.017
 440  1008.419
 441  957.9498
 442  1321.57
 443  1343.853
 444  1538.981
 445  1287.931
 446  1039.367
 447  1280.876
 448  1347.682
 449  1222.073
 450  1121.342
 451  1081.084
 452  1491.361
 453  1416.192
 454  1384.173
 455  1321.536
 456  1175.828
 457  1289.332
 458  1256.374
 459  1400.026
 460  1662.778
 461  1299.331
 462  1315.368
 463  1330.244
 464  1222.399
 465  1289.573
 466  1253.422
 467  918.1002
 468  1035.134
 469  1242.057
 470  1131.193
 471  1567.975
 472  1429.912
 473  1533.964
 474  1676.464
 475  1883.885
 476  2003.152
 477  2167.028
 478  2169.542
 479  1721.968
 480  1430.707
 481  1433.37
 482  1520.353
 483  1397.835
 484  1283.824
 485  1427.413
 486  1246.615
 487  1141.032
 488  1365.022
 489  1405.823
 490  1341.306
 491  1374.725
 492  1500.987
 493  1382.945
 494  1335.79
 495  1512.035
 496  1201.091
 497  1543.509
 498  1679.648
 499  1238.915
 500  1080.182
 501  1456.493
 502  1084.519
 503  902.3001
 504  1287.112
 505  1483.465
 506  1220.751
 507  836.5453
 508  1106.7
 509  1212.867
 510  1246.084
 511  1308.941
