# Input file       =  1179115899.100237_cleaned.dat
# Candidate        =  PSR_0332+5434
# Telescope        =  AR
# Epoch_topo       =  57891.174978012001
# Epoch_bary       =  N/A
# T_sample         =  0.002
# Data Folded      =  7208960
# Data Avg         =  0.0403065524261753
# Data StdDev      =  1.00003524269306 
# Profile Bins     =  512
# Profile Avg      =  567.506147976586 
# Profile StdDev   =  118.663357662442 
# Reduced chi-sqr  =  1.657
# Prob(Noise)      <  5.19e-19   (~8.8 sigma)
# P_topo (ms)      =  714.53018109575   +/- 4.1e-05
# P'_topo (s/s)    =  -0                +/- 2.2e-11
# P''_topo (s/s^2) =  0                 +/- 9.9e-15
# P_bary (ms)      =  N/A
# P'_bary (s/s)    =  N/A
# P''_bary (s/s^2) =  N/A
# P_orb (s)        =  N/A
# asin(i)/c (s)    =  N/A
# eccentricity     =  N/A
# w (rad)          =  N/A
# T_peri           =  N/A
######################################################
   0  572.5405
   1  671.3645
   2  551.6989
   3  419.6558
   4  374.0449
   5  449.6022
   6  488.9637
   7  440.2229
   8  513.9175
   9  457.9542
  10  516.3252
  11  494.412
  12  511.9653
  13  496.3264
  14  580.5312
  15  571.3759
  16  585.2651
  17  697.8011
  18  582.0441
  19  524.5332
  20  438.5885
  21  416.2216
  22  389.845
  23  456.0159
  24  646.599
  25  592.0269
  26  604.1493
  27  513.6022
  28  521.7562
  29  533.782
  30  535.1814
  31  585.2668
  32  533.7285
  33  628.739
  34  615.5967
  35  477.1583
  36  447.4428
  37  414.4922
  38  457.6066
  39  559.5422
  40  569.7856
  41  563.6423
  42  552.2288
  43  646.0002
  44  526.9495
  45  588.3833
  46  581.019
  47  591.1577
  48  551.7249
  49  539.5422
  50  566.1407
  51  533.0562
  52  521.562
  53  576.0484
  54  570.0621
  55  635.8079
  56  576.6463
  57  581.6265
  58  596.9805
  59  601.964
  60  590.7649
  61  623.1666
  62  606.7431
  63  646.3455
  64  681.4759
  65  645.6808
  66  733.3262
  67  731.6489
  68  680.77
  69  602.5027
  70  684.1897
  71  699.9919
  72  695.9337
  73  732.2469
  74  680.3564
  75  657.6935
  76  689.2384
  77  700.232
  78  721.4773
  79  656.7047
  80  647.5129
  81  617.4965
  82  719.79
  83  680.863
  84  664.1076
  85  628.4561
  86  642.7086
  87  592.4597
  88  526.2625
  89  538.0289
  90  503.7276
  91  609.2903
  92  764.0986
  93  575.1545
  94  534.9728
  95  568.7201
  96  448.3725
  97  437.5095
  98  538.314
  99  632.8964
 100  651.5341
 101  631.2774
 102  611.613
 103  547.946
 104  505.7571
 105  570.0598
 106  559.4734
 107  724.6127
 108  757.9996
 109  779.9772
 110  723.1198
 111  596.3625
 112  560.7741
 113  428.2589
 114  491.7808
 115  650.8683
 116  678.2921
 117  733.087
 118  550.6432
 119  382.9498
 120  358.8731
 121  369.1068
 122  537.462
 123  527.4991
 124  607.5165
 125  632.2837
 126  559.7673
 127  585.6902
 128  565.5748
 129  447.9669
 130  519.7939
 131  650.5442
 132  610.527
 133  561.3846
 134  528.5775
 135  524.9793
 136  472.8094
 137  469.9008
 138  491.2245
 139  641.3532
 140  706.6049
 141  779.5236
 142  644.8773
 143  632.9875
 144  646.5167
 145  564.0946
 146  597.5965
 147  599.7531
 148  638.0933
 149  619.0167
 150  678.1696
 151  723.9857
 152  459.1837
 153  430.6345
 154  550.0792
 155  671.2922
 156  725.3934
 157  708.5822
 158  759.2901
 159  746.0691
 160  574.1345
 161  695.4242
 162  704.1943
 163  839.7053
 164  953.0757
 165  1122.557
 166  1220.217
 167  1022.675
 168  870.2507
 169  729.2636
 170  590.0338
 171  635.7995
 172  536.2666
 173  642.8655
 174  618.9755
 175  642.2513
 176  602.3265
 177  623.1311
 178  568.9393
 179  487.0157
 180  509.4055
 181  683.8464
 182  693.8278
 183  687.3969
 184  657.4956
 185  592.6522
 186  539.3683
 187  576.2826
 188  567.7397
 189  688.2913
 190  609.4242
 191  572.3802
 192  656.0959
 193  680.5536
 194  676.3132
 195  591.7546
 196  558.207
 197  637.1433
 198  610.8409
 199  689.6766
 200  586.5573
 201  474.3976
 202  504.8937
 203  564.9501
 204  641.7936
 205  667.4009
 206  572.8137
 207  663.1349
 208  622.9477
 209  558.0779
 210  511.8629
 211  560.6551
 212  628.9805
 213  737.4789
 214  686.8016
 215  676.323
 216  652.4714
 217  471.1355
 218  427.933
 219  511.5394
 220  554.2292
 221  568.3972
 222  612.4899
 223  559.8486
 224  633.8187
 225  553.8736
 226  603.4283
 227  509.0753
 228  559.4472
 229  519.9996
 230  478.6678
 231  618.2252
 232  507.2655
 233  432.0063
 234  351.2573
 235  483.3855
 236  329.6732
 237  236.5251
 238  266.7417
 239  400.8423
 240  476.42
 241  555.8134
 242  544.5077
 243  444.0728
 244  447.1478
 245  451.7821
 246  514.1872
 247  673.0666
 248  573.009
 249  554.7841
 250  489.7368
 251  466.0873
 252  368.0742
 253  417.4517
 254  541.1769
 255  594.1743
 256  598.5336
 257  535.6572
 258  380.7146
 259  429.6676
 260  459.9734
 261  427.3755
 262  377.4378
 263  572.2424
 264  741.5975
 265  648.8193
 266  652.313
 267  596.5963
 268  565.9045
 269  515.5343
 270  558.298
 271  641.3972
 272  673.9721
 273  779.1151
 274  813.8798
 275  651.9193
 276  614.2139
 277  540.3947
 278  556.4352
 279  512.4417
 280  605.9214
 281  736.1481
 282  672.1507
 283  486.5684
 284  521.2947
 285  647.7028
 286  565.9194
 287  550.5927
 288  714.6743
 289  714.6605
 290  667.244
 291  716.2278
 292  587.0598
 293  451.1687
 294  595.4552
 295  618.3491
 296  511.0217
 297  604.6719
 298  728.7518
 299  739.9699
 300  645.28
 301  631.0967
 302  482.0059
 303  459.0178
 304  603.0536
 305  662.2528
 306  646.2432
 307  572.1486
 308  590.9095
 309  578.1218
 310  527.0175
 311  578.9333
 312  511.9955
 313  621.4995
 314  627.5283
 315  516.9202
 316  443.6639
 317  506.9765
 318  472.0764
 319  401.9939
 320  478.3686
 321  580.4388
 322  712.2341
 323  669.6202
 324  532.3646
 325  561.6595
 326  614.816
 327  606.2664
 328  680.1459
 329  789.1141
 330  708.0783
 331  583.2278
 332  568.4415
 333  473.0455
 334  489.1802
 335  515.0156
 336  496.3396
 337  485.3419
 338  676.2725
 339  752.9437
 340  629.842
 341  507.8602
 342  556.5366
 343  588.0054
 344  504.3228
 345  557.6732
 346  656.0187
 347  664.7589
 348  703.538
 349  662.2336
 350  601.8405
 351  576.6799
 352  705.8005
 353  609.3162
 354  647.8489
 355  590.8142
 356  694.2493
 357  746.2476
 358  615.9661
 359  555.0259
 360  526.0187
 361  554.8813
 362  568.0646
 363  638.5355
 364  636.0754
 365  585.2894
 366  555.9216
 367  509.4759
 368  495.5956
 369  518.7176
 370  539.6848
 371  609.3629
 372  737.9003
 373  709.2051
 374  656.8522
 375  659.9684
 376  609.7339
 377  661.0012
 378  706.6265
 379  680.074
 380  670.8359
 381  689.4975
 382  764.5157
 383  617.1937
 384  548.3491
 385  503.8121
 386  439.9037
 387  556.6062
 388  641.2365
 389  518.5171
 390  595.4095
 391  606.5173
 392  519.703
 393  386.6558
 394  392.5938
 395  490.5215
 396  594.5186
 397  514.073
 398  453.9678
 399  502.7138
 400  505.5262
 401  563.7225
 402  516.4925
 403  524.9635
 404  627.2667
 405  598.2869
 406  538.2608
 407  475.3996
 408  492.7397
 409  580.7357
 410  579.4099
 411  516.1891
 412  521.4255
 413  638.216
 414  701.6603
 415  580.7774
 416  470.6099
 417  449.603
 418  520.7731
 419  551.3091
 420  541.2078
 421  550.6367
 422  581.331
 423  655.1901
 424  591.8212
 425  576.993
 426  553.2794
 427  523.5798
 428  582.4653
 429  629.7384
 430  635.097
 431  507.7273
 432  453.468
 433  467.7925
 434  461.6645
 435  427.2555
 436  426.5429
 437  660.1453
 438  682.8718
 439  484.6184
 440  434.8557
 441  479.8929
 442  482.255
 443  461.9341
 444  452.6937
 445  497.7541
 446  540.5966
 447  596.8919
 448  463.7998
 449  327.6073
 450  266.3371
 451  249.6831
 452  271.899
 453  344.5346
 454  454.119
 455  601.6449
 456  543.892
 457  482.2434
 458  444.7108
 459  324.8941
 460  324.5742
 461  545.8038
 462  553.2029
 463  470.7752
 464  543.9093
 465  405.906
 466  368.5211
 467  373.9951
 468  480.1074
 469  428.804
 470  524.048
 471  631.2371
 472  606.6743
 473  515.3561
 474  492.3171
 475  449.5846
 476  397.2956
 477  471.8884
 478  508.5682
 479  570.0656
 480  631.1254
 481  441.0636
 482  428.3611
 483  489.1322
 484  542.6816
 485  417.0898
 486  423.2657
 487  454.8767
 488  471.6795
 489  481.7795
 490  528.1907
 491  546.361
 492  605.8726
 493  520.1833
 494  403.3163
 495  426.9479
 496  470.0002
 497  566.1221
 498  491.1083
 499  421.5202
 500  324.5974
 501  362.1381
 502  427.799
 503  473.5734
 504  457.1685
 505  527.5034
 506  540.4191
 507  552.2811
 508  444.5052
 509  406.7159
 510  424.6634
 511  536.0511
