# Input file       =  1179748560.125391_cleaned.dat
# Candidate        =  PSR_0332+5434
# Telescope        =  AR
# Epoch_topo       =  57898.497443580913
# Epoch_bary       =  N/A
# T_sample         =  0.002
# Data Folded      =  7340032
# Data Avg         =  0.122959858500897
# Data StdDev      =  5.20021615708706 
# Profile Bins     =  1024
# Profile Avg      =  881.319216930089 
# Profile StdDev   =  440.271318893835 
# Reduced chi-sqr  =  0.858
# Prob(Noise)      <  1   (~0.0 sigma)
# P_topo (ms)      =  714.523321115617  +/- 0.000103
# P'_topo (s/s)    =  -0                +/- 5.43e-11
# P''_topo (s/s^2) =  0                 +/- 2.39e-14
# P_bary (ms)      =  N/A
# P'_bary (s/s)    =  N/A
# P''_bary (s/s^2) =  N/A
# P_orb (s)        =  N/A
# asin(i)/c (s)    =  N/A
# eccentricity     =  N/A
# w (rad)          =  N/A
# T_peri           =  N/A
######################################################
   0  1179.873
   1  660.7709
   2  424.9167
   3  421.8535
   4  856.6443
   5  1005.069
   6  787.1857
   7  805.2548
   8  802.6429
   9  1073.436
  10  1348.734
  11  1354.671
  12  1147.495
  13  972.4901
  14  1236.581
  15  1267.902
  16  995.8693
  17  733.1
  18  754.6329
  19  1021.394
  20  1010.66
  21  1175.905
  22  1070.952
  23  1057.864
  24  812.6645
  25  772.8177
  26  752.0274
  27  877.2788
  28  1137.798
  29  1246.38
  30  1032.468
  31  781.16
  32  776.1175
  33  901.7842
  34  986.4849
  35  969.5336
  36  966.6391
  37  925.2842
  38  759.7166
  39  594.9169
  40  547.0814
  41  695.6823
  42  889.5551
  43  976.6359
  44  956.3002
  45  743.9306
  46  724.8284
  47  671.954
  48  902.1313
  49  1069.191
  50  1148.213
  51  1051.76
  52  873.5536
  53  718.0821
  54  800.6711
  55  1054.661
  56  1304.634
  57  1351.037
  58  1121.375
  59  945.6638
  60  925.8096
  61  963.5525
  62  1033.594
  63  967.1672
  64  824.5578
  65  836.9025
  66  997.8206
  67  1249.536
  68  1352.759
  69  1279.209
  70  1222.599
  71  1030.555
  72  1008.503
  73  1079.33
  74  1202.211
  75  1283.935
  76  1248.404
  77  1035.05
  78  810.0474
  79  627.8183
  80  572.8071
  81  555.4716
  82  667.1458
  83  813.6882
  84  1231.692
  85  1320.612
  86  1245.584
  87  1146.235
  88  1008.064
  89  1107.108
  90  1078.404
  91  1170.869
  92  1258.246
  93  1083.776
  94  994.5681
  95  744.5474
  96  708.7594
  97  698.0154
  98  825.4651
  99  859.1886
 100  957.6573
 101  1017.56
 102  976.6904
 103  870.1549
 104  682.7206
 105  625.8057
 106  872.9361
 107  873.9457
 108  953.9286
 109  725.13
 110  821.3971
 111  922.3143
 112  950.8492
 113  832.7986
 114  645.4117
 115  568.8613
 116  733.6391
 117  906.2034
 118  1129.913
 119  962.1145
 120  949.81
 121  915.7097
 122  1114.776
 123  997.9302
 124  922.9882
 125  710.9051
 126  582.538
 127  324.4985
 128  439.8447
 129  607.8064
 130  688.4786
 131  681.4988
 132  686.8854
 133  858.0849
 134  953.7271
 135  1045.712
 136  1036.617
 137  917.4734
 138  923.3633
 139  902.0999
 140  954.2153
 141  749.2461
 142  516.2323
 143  466.4736
 144  424.2938
 145  745.7125
 146  910.1359
 147  1145.271
 148  1114.137
 149  1113.032
 150  1104.705
 151  987.9805
 152  1014.594
 153  938.5375
 154  1101.879
 155  959.7114
 156  844.7142
 157  658.3494
 158  427.7456
 159  418.1779
 160  637.7943
 161  865.5793
 162  726.7162
 163  721.8171
 164  863.9551
 165  945.1635
 166  702.2659
 167  525.2971
 168  567.8303
 169  646.7895
 170  665.376
 171  814.4771
 172  729.2468
 173  1103.185
 174  1174.128
 175  1291.92
 176  1000.341
 177  891.3401
 178  858.7031
 179  677.94
 180  718.5963
 181  704.0757
 182  839.4133
 183  710.5742
 184  723.7108
 185  756.3807
 186  666.5154
 187  650.9136
 188  622.7674
 189  712.4366
 190  788.6819
 191  886.3755
 192  1078.421
 193  991.2737
 194  1022.998
 195  980.7654
 196  989.6913
 197  891.1301
 198  703.2902
 199  676.7321
 200  734.9816
 201  770.0789
 202  885.8495
 203  860.4391
 204  954.7919
 205  1102.365
 206  1329.092
 207  1377.119
 208  1259.386
 209  1031.235
 210  860.011
 211  701.2441
 212  817.132
 213  854.7064
 214  913.436
 215  967.2078
 216  1162.4
 217  1105.87
 218  929.4235
 219  1036.962
 220  1175.343
 221  1181.423
 222  1170.078
 223  1261.015
 224  1298.277
 225  1245.333
 226  1311.274
 227  1456.058
 228  1286.42
 229  972.0164
 230  751.0295
 231  883.4995
 232  882.616
 233  875.5054
 234  554.4628
 235  595.6091
 236  636.4183
 237  847.6386
 238  992.0906
 239  1153.496
 240  1344.327
 241  1236.835
 242  1077.277
 243  856.5403
 244  632.156
 245  633.0736
 246  892.5486
 247  944.6295
 248  940.9119
 249  913.5074
 250  1050.56
 251  1047.799
 252  1008.037
 253  966.6232
 254  956.8189
 255  929.8021
 256  962.4758
 257  886.0589
 258  827.4238
 259  837.6754
 260  826.7963
 261  822.4752
 262  683.8974
 263  696.3245
 264  703.8878
 265  782.8373
 266  811.983
 267  729.4644
 268  729.3581
 269  771.6797
 270  949.0459
 271  1021.962
 272  904.8837
 273  771.7458
 274  671.1478
 275  597.3658
 276  540.5561
 277  537.573
 278  574.2971
 279  792.3879
 280  949.507
 281  1104.733
 282  1106.939
 283  1035.647
 284  925.1946
 285  674.3416
 286  615.8506
 287  607.0755
 288  769.4391
 289  756.8032
 290  620.9116
 291  845.2719
 292  955.9775
 293  1193.958
 294  1202.71
 295  1285.397
 296  1072.929
 297  820.4771
 298  793.4298
 299  714.2014
 300  392.5922
 301  357.4397
 302  399.4674
 303  642.4207
 304  637.973
 305  804.9969
 306  744.3812
 307  828.1972
 308  893.5629
 309  1097.117
 310  1172.297
 311  1066.358
 312  1073.376
 313  887.6993
 314  789.6846
 315  704.1188
 316  719.5082
 317  535.6492
 318  387.8459
 319  440.6239
 320  555.7645
 321  739.9341
 322  875.1971
 323  1069.4
 324  1084.963
 325  973.5443
 326  1011.282
 327  1009.211
 328  802.446
 329  554.7302
 330  325.9227
 331  403.7512
 332  533.0727
 333  642.8367
 334  802.0436
 335  731.2961
 336  659.3576
 337  764.4713
 338  872.1064
 339  883.9584
 340  836.7359
 341  680.066
 342  590.8735
 343  411.9225
 344  430.193
 345  720.0516
 346  952.4567
 347  1059.046
 348  859.7183
 349  832.7935
 350  666.6647
 351  716.2374
 352  853.4786
 353  804.1807
 354  878.7083
 355  790.9977
 356  871.7615
 357  791.9291
 358  862.361
 359  983.6452
 360  875.0329
 361  547.1624
 362  509.6019
 363  511.8651
 364  665.1125
 365  611.6169
 366  597.7364
 367  732.1857
 368  746.0836
 369  925.1021
 370  1020.309
 371  964.853
 372  759.8797
 373  600.3425
 374  621.5874
 375  783.4673
 376  931.8065
 377  1074.024
 378  761.0493
 379  714.5457
 380  508.0296
 381  924.5865
 382  913.706
 383  1093.195
 384  924.0623
 385  915.4695
 386  603.6699
 387  470.8859
 388  522.0513
 389  673.1949
 390  878.0574
 391  871.8431
 392  741.8693
 393  591.5444
 394  883.0792
 395  1343.111
 396  1388.007
 397  1236.041
 398  1159.848
 399  1303.465
 400  1317.046
 401  1028.44
 402  928.2685
 403  700.5741
 404  812.5727
 405  727.8106
 406  768.0162
 407  846.6221
 408  819.4213
 409  880.3177
 410  802.0457
 411  1035.521
 412  1166.547
 413  1281.672
 414  1278.664
 415  1252.212
 416  1223.352
 417  1009.665
 418  996.8876
 419  962.1966
 420  819.4797
 421  576.3134
 422  755.9055
 423  928.3929
 424  932.8845
 425  1014.761
 426  1332.962
 427  1240.302
 428  1065.206
 429  917.1573
 430  934.4159
 431  632.6197
 432  369.3537
 433  369.9645
 434  621.6063
 435  715.0565
 436  655.0129
 437  657.8796
 438  675.2938
 439  783.2153
 440  915.4784
 441  1173.937
 442  1208.446
 443  1075.144
 444  818.9479
 445  816.8239
 446  591.6381
 447  686.5275
 448  830.4516
 449  1166.329
 450  967.3221
 451  656.1768
 452  689.0751
 453  876.1827
 454  1053.753
 455  1003.918
 456  753.0905
 457  702.7071
 458  719.1813
 459  847.1346
 460  634.8497
 461  554.2573
 462  761.8753
 463  1044.009
 464  1119.684
 465  917.939
 466  923.181
 467  855.986
 468  890.4042
 469  701.159
 470  785.9759
 471  1104.514
 472  1201.827
 473  1232.522
 474  1089.907
 475  1014.363
 476  919.8776
 477  743.6689
 478  657.6224
 479  698.0245
 480  893.8848
 481  1031.326
 482  1028.039
 483  991.8455
 484  1142.332
 485  1285.819
 486  1131.864
 487  1065.804
 488  735.5495
 489  398.2527
 490  280.6714
 491  444.4187
 492  625.7778
 493  651.9459
 494  924.1436
 495  1155.215
 496  1108.855
 497  932.021
 498  974.7342
 499  1038.396
 500  931.1671
 501  939.0276
 502  902.8648
 503  943.7789
 504  780.4277
 505  603.0931
 506  503.8508
 507  834.6051
 508  1125.707
 509  1125.186
 510  778.2072
 511  811.917
 512  903.1302
 513  984.8315
 514  939.1954
 515  921.6414
 516  973.5518
 517  1084.798
 518  1151.929
 519  1106.578
 520  973.285
 521  867.2105
 522  763.4255
 523  818.6164
 524  845.4102
 525  835.3848
 526  809.7245
 527  808.4813
 528  931.5161
 529  818.3464
 530  824.4344
 531  725.6153
 532  924.3699
 533  970.3058
 534  1073.409
 535  807.7771
 536  857.0187
 537  808.8113
 538  755.3957
 539  549.1187
 540  501.4868
 541  585.409
 542  625.2487
 543  679.3887
 544  652.9986
 545  652.7454
 546  449.2315
 547  524.9828
 548  574.1873
 549  739.4154
 550  806.4139
 551  722.2488
 552  893.7868
 553  715.5219
 554  725.7856
 555  591.6331
 556  990.3679
 557  1152.062
 558  1160.62
 559  1042.642
 560  1102.15
 561  1075.533
 562  1194.352
 563  1177.971
 564  1166.642
 565  856.2611
 566  671.8427
 567  635.3859
 568  770.1904
 569  756.4648
 570  627.7823
 571  636.7094
 572  790.5413
 573  806.0018
 574  784.5237
 575  1008.576
 576  770.5966
 577  669.1634
 578  459.9092
 579  753.232
 580  947.2228
 581  994.5569
 582  1038.236
 583  940.9547
 584  1082.704
 585  966.5203
 586  865.1468
 587  549.5466
 588  477.8959
 589  413.9581
 590  544.2216
 591  715.3699
 592  888.6415
 593  841.6708
 594  782.7039
 595  728.8191
 596  916.1719
 597  910.562
 598  887.0544
 599  662.7692
 600  770.5402
 601  694.6681
 602  704.4405
 603  597.538
 604  685.9665
 605  675.7778
 606  613.3237
 607  748.4537
 608  898.888
 609  968.7112
 610  984.6638
 611  888.6288
 612  907.7885
 613  857.6188
 614  670.2962
 615  643.9977
 616  841.8525
 617  930.2053
 618  797.9624
 619  661.6539
 620  741.4418
 621  931.1133
 622  1043.662
 623  1023.729
 624  924.9994
 625  812.5988
 626  814.6538
 627  581.6684
 628  783.6042
 629  882.9786
 630  1051.001
 631  907.2581
 632  868.4041
 633  840.9489
 634  608.8185
 635  601.6314
 636  674.2161
 637  922.9346
 638  900.9908
 639  782.8942
 640  762.3484
 641  641.2338
 642  1003.266
 643  1130.864
 644  1294.722
 645  1159.394
 646  973.0933
 647  991.22
 648  812.5903
 649  661.0813
 650  684.207
 651  853.939
 652  1052.408
 653  1269.283
 654  1203.472
 655  1030.756
 656  895.8828
 657  952.3677
 658  953.6459
 659  807.0009
 660  739.1575
 661  871.9759
 662  892.3207
 663  858.6692
 664  723.5798
 665  726.407
 666  666.9296
 667  740.2028
 668  946.468
 669  1031.379
 670  956.096
 671  856.0955
 672  1141.615
 673  1244.037
 674  1226.544
 675  1187.058
 676  1166.273
 677  1016.827
 678  795.3688
 679  861.5852
 680  840.0219
 681  680.3792
 682  507.2801
 683  809.2487
 684  811.8798
 685  723.0704
 686  636.3911
 687  759.4048
 688  914.577
 689  1069.526
 690  1146.396
 691  926.2353
 692  611.4028
 693  438.5161
 694  303.3596
 695  339.0347
 696  354.1448
 697  433.3086
 698  542.6583
 699  726.1229
 700  1098.935
 701  1029.857
 702  736.1698
 703  411.3065
 704  541.749
 705  629.3885
 706  627.5005
 707  700.3012
 708  785.8394
 709  724.4269
 710  662.3124
 711  691.3641
 712  713.913
 713  683.3518
 714  872.457
 715  1022.642
 716  1101.143
 717  993.3594
 718  1103.094
 719  1064.885
 720  1051.923
 721  1241.296
 722  1174.868
 723  926.8052
 724  816.0867
 725  1043.39
 726  1129.486
 727  910.8898
 728  812.6794
 729  906.4776
 730  1055.848
 731  1155.444
 732  1301.229
 733  1376.816
 734  1208.937
 735  1149.627
 736  1202.181
 737  1283.363
 738  1255.561
 739  1356.82
 740  1291.154
 741  1009.856
 742  786.0996
 743  901.5387
 744  897.6782
 745  968.9827
 746  1100.024
 747  1182.988
 748  1068
 749  1031.262
 750  1042.216
 751  1218.311
 752  1333.875
 753  1527.942
 754  1425.046
 755  1284.811
 756  1273.576
 757  1418.594
 758  1484.277
 759  1353.648
 760  1218.825
 761  1078.52
 762  1265.903
 763  1231.821
 764  1298.594
 765  1137.054
 766  1008.74
 767  1091.919
 768  959.3872
 769  701.3776
 770  767.5266
 771  810.8392
 772  869.4941
 773  652.5618
 774  764.1835
 775  1014.118
 776  1030.122
 777  1088.779
 778  1059.776
 779  1073.206
 780  860.8255
 781  944.6248
 782  867.0156
 783  906.8309
 784  906.1271
 785  1076.005
 786  896.6734
 787  761.8991
 788  645.0865
 789  603.0244
 790  382.896
 791  443.1553
 792  486.368
 793  608.1619
 794  590.9344
 795  854.7565
 796  851.9992
 797  852.9545
 798  645.1063
 799  612.444
 800  605.5942
 801  667.6553
 802  850.0801
 803  792.5369
 804  727.1746
 805  581.9709
 806  669.6916
 807  644.7943
 808  893.3566
 809  969.4012
 810  967.3697
 811  735.3592
 812  583.6834
 813  493.1047
 814  264.5457
 815  191.5299
 816  378.4466
 817  631.4679
 818  743.2748
 819  673.4612
 820  772.627
 821  729.9167
 822  771.7313
 823  957.905
 824  872.7477
 825  529.9813
 826  153.3309
 827  166.0157
 828  268.4792
 829  371.5952
 830  585.7078
 831  870.113
 832  940.89
 833  971.939
 834  953.902
 835  1044.598
 836  899.243
 837  956.3613
 838  876.8301
 839  770.7802
 840  515.7863
 841  549.368
 842  734.968
 843  903.6655
 844  945.6345
 845  1049.121
 846  1117.149
 847  1095.401
 848  853.0422
 849  910.9656
 850  977.1355
 851  871.4093
 852  641.4814
 853  705.1596
 854  959.7158
 855  981.4666
 856  837.2629
 857  801.7241
 858  970.5129
 859  1009.741
 860  935.1565
 861  774.8965
 862  684.7625
 863  684.728
 864  802.2553
 865  910.8691
 866  978.9648
 867  981.0723
 868  1097.416
 869  1094.765
 870  919.1805
 871  717.7175
 872  612.6646
 873  696.8552
 874  519.9798
 875  574.5626
 876  744.4655
 877  885.0187
 878  958.102
 879  891.6154
 880  1018.73
 881  1015.639
 882  1011.55
 883  1063.792
 884  955.867
 885  903.9801
 886  899.2529
 887  988.7331
 888  1099.797
 889  844.274
 890  859.2418
 891  628.7683
 892  664.3786
 893  636.4569
 894  882.7324
 895  931.4324
 896  895.7173
 897  913.5496
 898  913.931
 899  794.8356
 900  622.4937
 901  740.2365
 902  699.6257
 903  750.2608
 904  862.9409
 905  1002.5
 906  1045.755
 907  771.2684
 908  640.7917
 909  593.8278
 910  822.2981
 911  833.4503
 912  865.7773
 913  909.1519
 914  898.9535
 915  949.3635
 916  646.2148
 917  557.4446
 918  493.8655
 919  678.6073
 920  757.1756
 921  522.2704
 922  579.3845
 923  708.4605
 924  766.2796
 925  857.8553
 926  951.5531
 927  1142.596
 928  1143.305
 929  1098.174
 930  1107.578
 931  958.9109
 932  898.8163
 933  846.8393
 934  787.7291
 935  630.2094
 936  752.3601
 937  858.751
 938  866.8365
 939  940.9412
 940  981.7553
 941  1152.615
 942  1213.215
 943  1071.08
 944  1010.867
 945  924.4764
 946  1103.761
 947  1340.122
 948  1339.08
 949  1273.808
 950  1117.916
 951  1148.434
 952  1241.503
 953  993.3898
 954  955.7985
 955  1019.692
 956  1113.582
 957  1087.596
 958  861.9167
 959  1092.976
 960  1086.712
 961  1206.652
 962  1127.984
 963  1217.581
 964  1041.432
 965  991.5468
 966  879.4317
 967  909.1119
 968  1001.596
 969  1134.734
 970  1135.488
 971  1222.726
 972  1130.412
 973  1246.365
 974  970.505
 975  868.2852
 976  942.1166
 977  1253.562
 978  1336.186
 979  1326.426
 980  1222.283
 981  1208.392
 982  1179.193
 983  1208.409
 984  1177.445
 985  946.0037
 986  804.2384
 987  814.2063
 988  977.5972
 989  964.9025
 990  1088.493
 991  1122.016
 992  1103.079
 993  987.0598
 994  961.5111
 995  1146.117
 996  1146.034
 997  1080.953
 998  1050.222
 999  974.3242
1000  954.0071
1001  933.0401
1002  868.5973
1003  757.3369
1004  664.9537
1005  708.8686
1006  797.4514
1007  974.0865
1008  1247.666
1009  1240.182
1010  1166.3
1011  796.9518
1012  717.3126
1013  740.3232
1014  921.7313
1015  1030.837
1016  924.7309
1017  1080.542
1018  1102.507
1019  1237.53
1020  1340.418
1021  1307.997
1022  1248.306
1023  1098.995
