# Input file       =  1179130528.109754_cleaned.dat
# Candidate        =  PSR_0332+5434
# Telescope        =  AR
# Epoch_topo       =  57891.344295251780
# Epoch_bary       =  N/A
# T_sample         =  0.002
# Data Folded      =  7340032
# Data Avg         =  0.0760112545082977
# Data StdDev      =  2.81200249183169 
# Profile Bins     =  512
# Profile Avg      =  1089.72699616519 
# Profile StdDev   =  336.689596646041 
# Reduced chi-sqr  =  1.020
# Prob(Noise)      <  0.365   (~0.3 sigma)
# P_topo (ms)      =  714.53002712325   +/- 0.00052
# P'_topo (s/s)    =  -0                +/- 2.74e-10
# P''_topo (s/s^2) =  0                 +/- 1.21e-13
# P_bary (ms)      =  N/A
# P'_bary (s/s)    =  N/A
# P''_bary (s/s^2) =  N/A
# P_orb (s)        =  N/A
# asin(i)/c (s)    =  N/A
# eccentricity     =  N/A
# w (rad)          =  N/A
# T_peri           =  N/A
######################################################
   0  888.6042
   1  842.1153
   2  814.0356
   3  1059.126
   4  1213.823
   5  1241.841
   6  929.3012
   7  1074.539
   8  956.3217
   9  982.8867
  10  900.8671
  11  768.9024
  12  832.6382
  13  1081.755
  14  1183.507
  15  1172.983
  16  849.6498
  17  805.3806
  18  1143.651
  19  1306.148
  20  1184.534
  21  847.785
  22  1200.014
  23  1307.519
  24  1151.73
  25  1385.995
  26  1101.224
  27  1084.375
  28  1157.426
  29  1312.679
  30  1280.146
  31  1035.743
  32  1338.396
  33  1310.579
  34  1162.9
  35  617.3685
  36  745.7281
  37  1059.666
  38  1013.831
  39  1149.714
  40  1074.121
  41  1132.239
  42  1221.03
  43  1167.009
  44  1154.701
  45  1283.534
  46  1179.345
  47  921.9862
  48  702.7551
  49  1046.395
  50  955.7175
  51  768.7175
  52  886.6173
  53  932.8909
  54  646.3843
  55  537.3028
  56  839.3889
  57  1200.145
  58  560.46
  59  385.4923
  60  907.6632
  61  1237.323
  62  936.9458
  63  1059.757
  64  998.075
  65  958.6268
  66  972.9724
  67  918.5507
  68  807.0204
  69  972.4031
  70  1137.173
  71  966.1251
  72  784.976
  73  899.9431
  74  1042.659
  75  866.6782
  76  726.0925
  77  958.4156
  78  974.2701
  79  1005.098
  80  975.3941
  81  885.6872
  82  610.4016
  83  931.9769
  84  1116.253
  85  1022.543
  86  934.6631
  87  1060.296
  88  962.8046
  89  956.153
  90  866.5034
  91  986.738
  92  1069.034
  93  1048.541
  94  894.0086
  95  1120.838
  96  1387.614
  97  1197.824
  98  1374.92
  99  1296.346
 100  992.3033
 101  1253.018
 102  1331.986
 103  1162.875
 104  1000.049
 105  1114.227
 106  899.6857
 107  816.1141
 108  879.0822
 109  819.8714
 110  866.9292
 111  721.4371
 112  918.0629
 113  749.632
 114  583.3142
 115  508.6469
 116  981.5908
 117  997.7771
 118  787.6169
 119  1145.936
 120  946.292
 121  813.7946
 122  1110.634
 123  963.9135
 124  848.5391
 125  944.7252
 126  1119.384
 127  1061.979
 128  914.2495
 129  903.1039
 130  950.1832
 131  891.0119
 132  657.5746
 133  725.4818
 134  962.4882
 135  776.0351
 136  882.1418
 137  1075.983
 138  1136.497
 139  1282.796
 140  901.4931
 141  1000.66
 142  770.9969
 143  896.1917
 144  1012.332
 145  659.9802
 146  724.0478
 147  619.1254
 148  779.9291
 149  974.4062
 150  1129.049
 151  1159.107
 152  1158.436
 153  1102.371
 154  905.5727
 155  932.0338
 156  1108.597
 157  1194.147
 158  1169.885
 159  1138.164
 160  1064.681
 161  1300.875
 162  1483.347
 163  1167.585
 164  1188.195
 165  1078.033
 166  960.2713
 167  1104.39
 168  1081.232
 169  1086.067
 170  1126.681
 171  1032.062
 172  1175.229
 173  998.8321
 174  1146.096
 175  1554.918
 176  1493.689
 177  1237.663
 178  1250.265
 179  1175.994
 180  1397.198
 181  1588.854
 182  1271.626
 183  1277.118
 184  1234.328
 185  1299.876
 186  1270.259
 187  1084.282
 188  1193.205
 189  988.3187
 190  1418.956
 191  1323.98
 192  1215.756
 193  1165.885
 194  1219.072
 195  912.0615
 196  999.567
 197  1002.838
 198  918.3411
 199  884.2487
 200  789.4366
 201  505.897
 202  874.709
 203  1006.062
 204  842.7073
 205  986.0986
 206  1452.383
 207  1333.331
 208  1368.239
 209  1082.601
 210  960.9694
 211  1097.727
 212  1186.28
 213  1104.058
 214  1304.186
 215  1440.742
 216  1204.965
 217  949.4771
 218  886.803
 219  1149.307
 220  1203.521
 221  977.0482
 222  863.615
 223  1004.306
 224  1244.936
 225  1181.786
 226  1118.579
 227  1211.888
 228  1086.019
 229  1177.696
 230  1193.223
 231  1158.853
 232  1178.316
 233  1259.026
 234  1366.865
 235  1160.328
 236  978.499
 237  1062.377
 238  1299.702
 239  1146.942
 240  596.4331
 241  1017.792
 242  994.3748
 243  1313.39
 244  1258.914
 245  852.5286
 246  1158.208
 247  1140.677
 248  1003.007
 249  959.0661
 250  1096.932
 251  1452.909
 252  1004.026
 253  1173.203
 254  1103.532
 255  1078.412
 256  1198.575
 257  1376.793
 258  1099.453
 259  1012.806
 260  1317.986
 261  1490.001
 262  1488.873
 263  1121.253
 264  808.2879
 265  955.0695
 266  1589.677
 267  1430.764
 268  865.1238
 269  739.824
 270  1260.574
 271  1361.357
 272  1235.608
 273  876.1514
 274  994.9417
 275  1232.841
 276  1101.237
 277  979.1263
 278  1018.842
 279  1084.248
 280  845.1001
 281  896.6078
 282  708.3529
 283  781.6062
 284  998.5914
 285  1194.834
 286  1071.285
 287  1009.692
 288  1050.814
 289  1290.294
 290  1050.49
 291  693.2288
 292  1022.832
 293  1087.781
 294  823.2302
 295  903.1286
 296  1148.108
 297  956.5859
 298  1086.231
 299  1250.323
 300  1256.445
 301  917.8331
 302  1058.268
 303  846.0931
 304  1139.024
 305  1129.789
 306  1212.92
 307  1201.116
 308  1045.855
 309  889.6198
 310  665.3735
 311  675.4131
 312  899.0966
 313  718.8512
 314  842.2048
 315  848.4636
 316  718.1608
 317  1268.85
 318  975.4078
 319  629.3451
 320  924.3465
 321  1100.57
 322  1045.248
 323  1056.959
 324  727.0234
 325  657.6501
 326  519.9153
 327  645.092
 328  869.6193
 329  1020.251
 330  911.7484
 331  1218.01
 332  817.7559
 333  844.9295
 334  991.0355
 335  1002.532
 336  876.7214
 337  811.7068
 338  958.5332
 339  955.4019
 340  1129.864
 341  990.7314
 342  1138.426
 343  1213.743
 344  915.2457
 345  1041.293
 346  1297.764
 347  1774.222
 348  1429.443
 349  1189.999
 350  827.2015
 351  1009.172
 352  821.829
 353  1155.485
 354  1171.497
 355  1330.675
 356  1090.884
 357  1075.685
 358  1327.297
 359  1007.03
 360  1068.208
 361  1479.458
 362  1596.997
 363  1746.77
 364  2217.249
 365  2489.051
 366  2372.048
 367  1985.728
 368  1598.495
 369  1401.206
 370  1366.349
 371  1068.41
 372  1068.694
 373  1149.223
 374  869.5499
 375  1273.815
 376  1363.98
 377  1174.127
 378  1188.652
 379  1183.056
 380  1230.512
 381  1489.121
 382  1222.169
 383  774.8583
 384  978.7053
 385  822.6257
 386  1019.684
 387  961.7049
 388  950.9312
 389  972.9827
 390  1003.272
 391  712.6866
 392  928.9169
 393  1073.92
 394  907.3332
 395  858.5851
 396  1418.959
 397  1380.803
 398  1190.725
 399  1294.861
 400  1444.693
 401  1486.75
 402  1573.201
 403  1256.453
 404  992.7988
 405  1105.295
 406  1267.187
 407  1376.422
 408  1138.853
 409  1288.847
 410  1536.382
 411  1159.503
 412  1349.437
 413  1470.439
 414  1399.34
 415  1265.887
 416  1054.685
 417  1400.606
 418  1281.411
 419  1337.595
 420  1268.116
 421  1070.364
 422  1223.255
 423  1345.052
 424  1292.196
 425  1439.544
 426  1184.789
 427  1029.98
 428  1018.196
 429  1280.101
 430  1298.011
 431  1314.18
 432  1237.763
 433  1311.58
 434  1140.864
 435  1019.751
 436  1700.267
 437  1732.486
 438  1562.636
 439  1298.402
 440  1171.225
 441  1492.35
 442  1153.546
 443  992.8506
 444  1149.32
 445  1361.158
 446  1305.793
 447  1111.725
 448  1249.602
 449  1373.932
 450  1649.803
 451  1415.174
 452  1258.231
 453  1443.255
 454  1386.818
 455  1384.826
 456  1373.705
 457  1368.408
 458  1185.742
 459  1377.867
 460  1475.687
 461  1331.755
 462  1276.026
 463  1352.701
 464  1065.872
 465  1058.696
 466  1308.138
 467  1302.432
 468  760.2636
 469  969.6351
 470  1099.831
 471  1152.551
 472  1190.079
 473  1195.685
 474  1139.303
 475  1115.065
 476  795.405
 477  822.7103
 478  886.6701
 479  637.6346
 480  954.2484
 481  1348.684
 482  1195.017
 483  941.0466
 484  1254.646
 485  1235.833
 486  1152.121
 487  1021.742
 488  1107.957
 489  888.8797
 490  687.3995
 491  1012.664
 492  906.6356
 493  676.3702
 494  956.3201
 495  1098.933
 496  1303.738
 497  1226.003
 498  1336.265
 499  1047.947
 500  786.8976
 501  799.8092
 502  882.8573
 503  862.4135
 504  845.4521
 505  1045.782
 506  1221.578
 507  1130.976
 508  1036.624
 509  931.7909
 510  966.5165
 511  1059.432
