# Input file       =  1179317779.097507_cleaned.dat
# Candidate        =  PSR_0332+5434
# Telescope        =  AR
# Epoch_topo       =  57893.511552054479
# Epoch_bary       =  N/A
# T_sample         =  0.002
# Data Folded      =  7340032
# Data Avg         =  0.0685056479705962
# Data StdDev      =  3.27367849082071 
# Profile Bins     =  512
# Profile Avg      =  982.070903102081 
# Profile StdDev   =  391.967465827273 
# Reduced chi-sqr  =  0.931
# Prob(Noise)      <  0.868   (~0.0 sigma)
# P_topo (ms)      =  714.52824014955   +/- 0.000571
# P'_topo (s/s)    =  -0                +/- 3.02e-10
# P''_topo (s/s^2) =  0                 +/- 1.33e-13
# P_bary (ms)      =  N/A
# P'_bary (s/s)    =  N/A
# P''_bary (s/s^2) =  N/A
# P_orb (s)        =  N/A
# asin(i)/c (s)    =  N/A
# eccentricity     =  N/A
# w (rad)          =  N/A
# T_peri           =  N/A
######################################################
   0  884.4662
   1  1091.357
   2  1393.141
   3  1173.921
   4  1055.615
   5  1183.332
   6  1109.297
   7  1250.07
   8  1117.956
   9  994.1326
  10  1235.1
  11  1024.869
  12  823.1641
  13  667.2957
  14  677.0858
  15  1132.806
  16  1078.697
  17  953.3009
  18  965.3936
  19  842.0928
  20  810.039
  21  937.1868
  22  1067.554
  23  1126.103
  24  710.2543
  25  1012.412
  26  763.2674
  27  782.4271
  28  478.634
  29  997.0079
  30  1146.421
  31  937.0138
  32  895.8338
  33  777.6312
  34  1094.883
  35  1427.011
  36  908.8853
  37  691.6606
  38  834.2393
  39  880.0997
  40  1032.55
  41  1038.691
  42  1024.399
  43  1004.84
  44  753.482
  45  944.5933
  46  558.7515
  47  455.1025
  48  488.0255
  49  928.3736
  50  796.752
  51  975.3612
  52  1142.438
  53  1235.21
  54  1097.553
  55  690.925
  56  862.2275
  57  968.1825
  58  1149.398
  59  1101.589
  60  1262.417
  61  1519.502
  62  1197.152
  63  1115.711
  64  1267.367
  65  1381.003
  66  802.0851
  67  804.798
  68  1127.936
  69  1041.15
  70  754.1641
  71  980.757
  72  852.874
  73  542.2872
  74  655.5991
  75  774.2381
  76  969.5901
  77  1202.535
  78  1076.43
  79  928.9924
  80  910.9482
  81  730.6124
  82  778.4859
  83  831.1584
  84  1042.163
  85  1102.128
  86  1189.867
  87  1047.939
  88  876.3419
  89  602.3891
  90  638.4924
  91  426.9623
  92  668.8812
  93  418.9982
  94  372.0579
  95  857.0329
  96  675.6829
  97  581.9332
  98  651.3619
  99  627.7863
 100  682.6202
 101  742.1942
 102  941.5397
 103  991.6507
 104  1085.441
 105  1037.3
 106  730.5616
 107  796.2101
 108  1052.437
 109  678.3378
 110  887.097
 111  455.743
 112  50.92126
 113  501.1979
 114  920.9792
 115  875.1182
 116  1004.56
 117  344.7805
 118  769.2278
 119  703.7359
 120  507.1461
 121  683.3087
 122  677.1444
 123  716.5515
 124  849.2564
 125  1051.52
 126  703.1595
 127  465.0783
 128  646.8862
 129  727.3602
 130  614.554
 131  833.6362
 132  920.2656
 133  797.62
 134  1091.307
 135  823.3264
 136  961.6989
 137  1211.833
 138  1456.313
 139  1366.289
 140  995.8635
 141  828.9575
 142  710.3793
 143  924.8543
 144  1084.646
 145  1221.258
 146  1083.283
 147  876.4329
 148  998.4284
 149  1074.47
 150  1433.696
 151  861.2028
 152  795.0928
 153  1020.63
 154  1119.829
 155  1122.499
 156  745.6049
 157  734.3513
 158  1127.033
 159  1081.771
 160  1047.396
 161  713.199
 162  702.7335
 163  899.7816
 164  928.5186
 165  1178.099
 166  1050.484
 167  896.4189
 168  927.2365
 169  764.7105
 170  913.303
 171  1165.97
 172  1044.018
 173  1315.359
 174  1569.997
 175  1412.865
 176  1037.18
 177  1141.441
 178  1529.901
 179  1487.502
 180  1208.876
 181  1349.956
 182  1173.741
 183  1068.448
 184  1153.381
 185  1122.839
 186  890.7188
 187  689.4321
 188  1020.598
 189  1636.066
 190  1293.536
 191  1177.141
 192  1598.986
 193  1343.611
 194  861.9601
 195  1161.699
 196  1276.013
 197  1136.107
 198  760.5495
 199  924.6517
 200  1164.573
 201  1014.521
 202  868.7668
 203  1188.775
 204  1278.161
 205  764.7388
 206  843.6482
 207  1104.753
 208  1509.517
 209  1142.701
 210  1031.204
 211  876.9156
 212  961.7797
 213  1252.672
 214  1281.137
 215  1027.557
 216  1561.372
 217  1571.272
 218  1040.909
 219  859.7849
 220  1102.096
 221  1384.048
 222  1405.165
 223  1319.379
 224  1490.361
 225  1294.283
 226  850.8558
 227  1240.18
 228  1089.32
 229  914.2321
 230  934.5938
 231  762.9634
 232  1008.843
 233  1477.394
 234  1374.699
 235  1251.552
 236  1343.197
 237  1127.24
 238  1149.074
 239  1170.581
 240  738.0453
 241  811.9268
 242  962.3531
 243  878.3086
 244  995.7701
 245  760.7116
 246  752.149
 247  1107.403
 248  992.3567
 249  928.3347
 250  1001.842
 251  833.0883
 252  798.7352
 253  1044.727
 254  1128.455
 255  1030.719
 256  714.9704
 257  993.0612
 258  1240.153
 259  1265.479
 260  1141.8
 261  819.5193
 262  922.5853
 263  1294.283
 264  1196.697
 265  1102.254
 266  1015.966
 267  1022.84
 268  1658.739
 269  1715.012
 270  1526.864
 271  1367.663
 272  1344.256
 273  1024.995
 274  1073.188
 275  1124.118
 276  973.3965
 277  952.0296
 278  670.4652
 279  897.6244
 280  1059.073
 281  985.0198
 282  949.7645
 283  739.1282
 284  879.8725
 285  1225.628
 286  1079.681
 287  949.5024
 288  1125.645
 289  1054.068
 290  921.5389
 291  965.4701
 292  743.6884
 293  681.0867
 294  740.7364
 295  793.3621
 296  894.5662
 297  1025.379
 298  909.2307
 299  783.9671
 300  861.3502
 301  773.0453
 302  645.1429
 303  1142.047
 304  1140.051
 305  1264.518
 306  895.5989
 307  856.7019
 308  861.7616
 309  1185.861
 310  1156.247
 311  1035.482
 312  1290.099
 313  782.2841
 314  873.0395
 315  1256.995
 316  909.2551
 317  1137.357
 318  1078.805
 319  1063.572
 320  898.9429
 321  1031.057
 322  1445.893
 323  876.595
 324  758.149
 325  1159.226
 326  1487.177
 327  1827.321
 328  2063.136
 329  2076.333
 330  2060.968
 331  2040.677
 332  1453.899
 333  1037.008
 334  827.8067
 335  991.7877
 336  594.0505
 337  1059.228
 338  1154.785
 339  910.0817
 340  1143.107
 341  1216.333
 342  1189.177
 343  1278.587
 344  1249.142
 345  1441.692
 346  1658.635
 347  1355.642
 348  1052.794
 349  907.6199
 350  1087.467
 351  1161.481
 352  1014.368
 353  1256.275
 354  1051.277
 355  835.7318
 356  903.2618
 357  1417.468
 358  1335.156
 359  853.387
 360  962.2986
 361  1070.901
 362  932.9358
 363  294.5261
 364  437.6397
 365  696.131
 366  576.6562
 367  317.0792
 368  548.6384
 369  926.3676
 370  837.6416
 371  501.9258
 372  645.3814
 373  1070.261
 374  682.9963
 375  525.9651
 376  671.5399
 377  585.6887
 378  905.0983
 379  1217.689
 380  829.5034
 381  976.2538
 382  1036.114
 383  619.9529
 384  334.3708
 385  575.4298
 386  586.9775
 387  782.8031
 388  788.7998
 389  608.6069
 390  575.4806
 391  784.4872
 392  726.4041
 393  772.6166
 394  799.4951
 395  726.5183
 396  848.0513
 397  1067.699
 398  1136.685
 399  702.3681
 400  833.0735
 401  945.2146
 402  770.1099
 403  903.8074
 404  938.4691
 405  682.4643
 406  1040.547
 407  1118.304
 408  805.5363
 409  1047.216
 410  885.9134
 411  891.2866
 412  1061.053
 413  1000.828
 414  764.0876
 415  745.2844
 416  1199.446
 417  1349.066
 418  1088.083
 419  1313.54
 420  1036.015
 421  700.3041
 422  831.0737
 423  917.9773
 424  829.2706
 425  941.3481
 426  1061.779
 427  943.8115
 428  825.6825
 429  770.1292
 430  823.1373
 431  542.2304
 432  698.2672
 433  1104.961
 434  991.1552
 435  758.9963
 436  1204.777
 437  1348.476
 438  1056.804
 439  1103.183
 440  1144.912
 441  1038.385
 442  857.5347
 443  1115.578
 444  1180.041
 445  1029.897
 446  1163.38
 447  1042.1
 448  900.4689
 449  1120.714
 450  1161.638
 451  976.8295
 452  785.7187
 453  1001.121
 454  1195.375
 455  1186.904
 456  1165.044
 457  1034.253
 458  830.5659
 459  1028.292
 460  936.1034
 461  523.0756
 462  410.4236
 463  626.4108
 464  744.9988
 465  628.4822
 466  616.5425
 467  811.8561
 468  1041.097
 469  1047.574
 470  1122.277
 471  1453.061
 472  1462.329
 473  1687.27
 474  1379.718
 475  756.6029
 476  858.2502
 477  985.717
 478  1393.403
 479  1563.925
 480  1055.49
 481  995.1393
 482  912.7435
 483  1007.761
 484  949.7595
 485  939.413
 486  949.0934
 487  633.928
 488  895.5956
 489  1026.359
 490  974.5163
 491  937.1797
 492  705.4004
 493  956.5617
 494  997.8162
 495  684.9037
 496  754.2753
 497  577.2462
 498  833.4576
 499  724.9311
 500  636.4459
 501  760.992
 502  580.7172
 503  597.0142
 504  1119.015
 505  1264.297
 506  1223.523
 507  897.9871
 508  1302.384
 509  1355.058
 510  912.7708
 511  1117.402
