# Input file       =  1179374391.100717_cleaned.dat
# Candidate        =  PSR_0332+5434
# Telescope        =  AR
# Epoch_topo       =  57894.166783573113
# Epoch_bary       =  N/A
# T_sample         =  0.002
# Data Folded      =  7208960
# Data Avg         =  0.131512214915446
# Data StdDev      =  4.25910389947861 
# Profile Bins     =  512
# Profile Avg      =  1851.69688743495 
# Profile StdDev   =  505.381758331144 
# Reduced chi-sqr  =  0.630
# Prob(Noise)      <  1   (~0.0 sigma)
# P_topo (ms)      =  714.527251601562  +/- 0.000155
# P'_topo (s/s)    =  -0                +/- 8.32e-11
# P''_topo (s/s^2) =  0                 +/- 3.74e-14
# P_bary (ms)      =  N/A
# P'_bary (s/s)    =  N/A
# P''_bary (s/s^2) =  N/A
# P_orb (s)        =  N/A
# asin(i)/c (s)    =  N/A
# eccentricity     =  N/A
# w (rad)          =  N/A
# T_peri           =  N/A
######################################################
   0  2254.431
   1  2863.679
   2  2331.871
   3  1953.615
   4  2094.594
   5  2051.018
   6  1815.872
   7  1923.271
   8  1923.995
   9  1681.956
  10  1995.965
  11  1967.72
  12  2167.035
  13  1896.844
  14  2180.324
  15  2020.834
  16  1812.428
  17  1602.199
  18  1905.56
  19  2125.373
  20  1958.977
  21  2036.171
  22  2216.157
  23  1417.957
  24  1296.252
  25  1673.334
  26  2091.817
  27  1895.412
  28  2189.735
  29  2395.176
  30  2386.598
  31  2248.979
  32  1849.999
  33  2174.676
  34  1996.638
  35  1800.948
  36  1971.288
  37  2281.156
  38  2256.417
  39  1885.583
  40  1835.34
  41  1689.136
  42  1740.34
  43  1979.122
  44  1976.927
  45  1891.137
  46  1728.733
  47  2102.712
  48  2223.77
  49  1988.798
  50  1717.697
  51  2200.683
  52  1890.642
  53  1324.164
  54  1668.697
  55  1861.248
  56  2018.986
  57  1807.842
  58  1702.867
  59  1739.522
  60  1694.351
  61  1990.729
  62  1866.547
  63  2302.604
  64  2078.059
  65  1881.517
  66  1725.709
  67  1987.335
  68  2047.793
  69  1889.871
  70  1975.27
  71  1843.166
  72  1716.912
  73  1464.931
  74  1819.217
  75  2009.127
  76  2012.088
  77  2417.479
  78  2133.376
  79  2205.531
  80  2267
  81  2268.467
  82  2238.915
  83  2020.407
  84  1985.37
  85  1979.078
  86  2373.232
  87  2374.187
  88  2271.333
  89  1916.792
  90  1611.135
  91  1752.391
  92  1970.249
  93  2358.074
  94  1526.911
  95  1440.9
  96  1885.034
  97  1434.028
  98  1380.457
  99  1778.372
 100  2208.437
 101  2466.376
 102  1886.834
 103  1698.791
 104  2127.492
 105  1926.486
 106  1381.817
 107  1629.946
 108  1740.497
 109  2239.603
 110  2171.873
 111  2020.337
 112  2264.49
 113  2056.889
 114  2293.449
 115  2229.642
 116  2131.421
 117  2070.473
 118  1955.944
 119  1947.604
 120  1851.446
 121  2004.891
 122  2032.072
 123  1755.881
 124  1215.152
 125  1462.297
 126  1806.384
 127  1744.777
 128  2282.777
 129  2475.358
 130  2116.254
 131  1687.045
 132  1806.946
 133  1730.857
 134  1745.435
 135  1870.956
 136  1825.468
 137  1734.692
 138  1715.797
 139  1681.91
 140  1516.158
 141  1873.479
 142  1989.541
 143  1890.86
 144  1759.064
 145  1953.523
 146  1789.49
 147  1909.524
 148  1675.64
 149  1568.662
 150  1726.9
 151  2104.144
 152  1938.768
 153  1897.53
 154  1926.299
 155  1644.627
 156  1405.816
 157  1444.255
 158  1856.856
 159  1726.94
 160  1828.19
 161  1921.422
 162  1898.91
 163  1964.5
 164  1216.153
 165  1782.816
 166  2155.604
 167  1854.233
 168  1504.519
 169  1434.452
 170  1715.215
 171  1587.16
 172  1519.203
 173  1578.074
 174  1689.358
 175  1579.75
 176  1766.736
 177  1792.129
 178  1698.751
 179  2003.248
 180  2102.178
 181  1712.396
 182  1770.247
 183  1913.916
 184  1982.326
 185  1794.252
 186  1669.336
 187  2158.941
 188  1733.868
 189  1355.631
 190  1426.248
 191  1371.437
 192  2106.813
 193  2067.377
 194  1842.957
 195  1696.26
 196  1748.754
 197  1811.917
 198  1656.05
 199  1775.386
 200  2227.683
 201  1671.916
 202  1435.541
 203  1593.026
 204  1706.692
 205  1571.813
 206  1919.495
 207  1797.658
 208  1556.387
 209  1877.534
 210  1812.566
 211  2036.577
 212  1752.83
 213  1945.443
 214  1723.156
 215  1696.115
 216  1756.657
 217  2013.561
 218  1877.652
 219  1765.45
 220  1724.024
 221  1723.669
 222  1858.475
 223  1574.667
 224  1655.537
 225  2398.409
 226  2013.07
 227  1818.397
 228  1707.566
 229  1897.591
 230  1875.545
 231  2152.818
 232  1907.339
 233  2057.778
 234  2148.283
 235  1970.137
 236  2469.187
 237  1936.937
 238  1488.277
 239  1490.411
 240  1389.724
 241  1758.361
 242  1661.518
 243  1767.629
 244  1739.622
 245  1719.135
 246  1280.581
 247  1265.997
 248  1476.791
 249  1293.43
 250  1699.306
 251  1509
 252  1437.576
 253  1758.151
 254  1855.004
 255  1785.389
 256  1501.217
 257  1988.754
 258  1802.913
 259  1783.906
 260  1638.178
 261  1851.934
 262  1946.07
 263  1829.599
 264  1653.375
 265  1587.239
 266  1629.518
 267  1310.028
 268  1465.847
 269  1929.229
 270  1874.007
 271  1658.112
 272  1576.88
 273  1795.245
 274  1218.225
 275  1521.531
 276  1498.14
 277  2065.665
 278  1994.589
 279  1389.332
 280  1340.265
 281  1595.381
 282  2045.475
 283  1951.679
 284  1710.651
 285  1506.329
 286  1594.466
 287  1955.849
 288  1749.12
 289  1644.214
 290  1636.621
 291  1723.254
 292  1810.097
 293  1505.554
 294  1893.601
 295  1873.295
 296  1769.373
 297  1772.522
 298  1956.127
 299  2031.504
 300  1820.003
 301  2245.459
 302  2251.368
 303  2201.846
 304  1681.613
 305  1824.508
 306  1793.45
 307  1577.242
 308  2069.273
 309  2145.609
 310  2238.282
 311  1851.42
 312  1907.683
 313  1565.549
 314  1339.194
 315  1851.823
 316  2220.686
 317  2267.696
 318  2036.719
 319  1938.318
 320  1708.056
 321  1581.086
 322  1476.735
 323  1427.534
 324  2039.856
 325  1421.715
 326  1746.871
 327  2138.624
 328  2228.166
 329  1899.249
 330  1704.863
 331  1737.953
 332  1781.952
 333  1755.073
 334  1707.885
 335  1564.602
 336  1690.005
 337  1567.051
 338  1487.12
 339  1646.381
 340  1609.072
 341  1333.868
 342  1885.348
 343  2128.213
 344  1836.722
 345  1833.691
 346  1827.786
 347  2006.555
 348  1783.598
 349  1895.969
 350  1964.637
 351  2229.083
 352  1948.072
 353  2147.188
 354  1938.236
 355  1598.703
 356  1837.014
 357  1893.996
 358  2051.09
 359  1523.515
 360  1411.987
 361  1729.051
 362  1662.396
 363  1654.76
 364  1545.852
 365  1907.833
 366  1532.149
 367  1569.011
 368  1894.141
 369  1724.408
 370  1329.42
 371  1118.65
 372  1343.675
 373  1338.116
 374  1465.855
 375  1493.277
 376  1296.667
 377  1674.206
 378  1726.801
 379  1820.406
 380  1597.179
 381  1968.333
 382  2134.307
 383  2058.065
 384  2144.546
 385  2640.59
 386  2914.719
 387  2584.317
 388  2881.799
 389  2875.331
 390  2596.228
 391  2516.218
 392  1819.128
 393  1909.086
 394  1810.566
 395  1853.877
 396  1597.088
 397  1875.006
 398  2417.804
 399  1926.762
 400  1564.03
 401  1709.211
 402  2030.061
 403  2014.29
 404  1668.926
 405  1610.443
 406  1806.966
 407  2007.692
 408  1788.653
 409  2486.048
 410  2101.222
 411  1575.861
 412  1738.583
 413  2129.397
 414  1973.754
 415  2158.939
 416  2589.095
 417  2375.43
 418  2208.917
 419  1954.143
 420  2090.094
 421  2310.414
 422  2129.419
 423  2255.207
 424  2120.412
 425  2360.365
 426  2262.685
 427  2407.81
 428  2468.224
 429  2155.038
 430  2283.868
 431  2135.219
 432  2139.579
 433  2170.521
 434  2067.224
 435  1869.469
 436  1764.399
 437  1972.804
 438  1734.715
 439  2456.027
 440  2119.666
 441  1968.613
 442  2032.824
 443  1615.202
 444  1765.418
 445  1440.73
 446  1675.294
 447  1605.018
 448  2018.573
 449  1926.761
 450  1825.848
 451  1831.513
 452  1547.459
 453  1417.684
 454  1494.254
 455  1823.23
 456  1459.174
 457  1589.61
 458  2034.378
 459  1988.686
 460  1742.469
 461  1261.696
 462  1549
 463  1460.746
 464  1672.756
 465  1751.487
 466  1695.517
 467  1700.508
 468  1379.066
 469  1289.87
 470  1282.724
 471  1727.291
 472  1825.602
 473  1419.603
 474  1682.426
 475  1692.853
 476  1796.01
 477  1980.853
 478  1883.65
 479  1673.651
 480  1695.03
 481  2039.791
 482  2015.578
 483  1984.357
 484  1738.137
 485  1297.025
 486  1097.1
 487  1252.397
 488  1751.195
 489  2229.155
 490  1895.077
 491  1542.856
 492  1872.363
 493  1761.222
 494  1603.435
 495  1940.796
 496  2115.055
 497  1963.447
 498  1782.547
 499  2153.2
 500  1766.802
 501  1884.352
 502  1892.244
 503  1919.43
 504  2023.048
 505  1820.003
 506  2092.686
 507  1671.942
 508  1903.311
 509  2103.849
 510  2104.507
 511  2161.769
