# Input file       =  1179389028.098606_cleaned.dat
# Candidate        =  PSR_0332+5434
# Telescope        =  AR
# Epoch_topo       =  57894.336193270901
# Epoch_bary       =  N/A
# T_sample         =  0.002
# Data Folded      =  7340032
# Data Avg         =  0.0720140818822463
# Data StdDev      =  2.74843059529699 
# Profile Bins     =  512
# Profile Avg      =  1032.42108549399 
# Profile StdDev   =  329.077940445712 
# Reduced chi-sqr  =  1.342
# Prob(Noise)      <  3.46e-07   (~5.0 sigma)
# P_topo (ms)      =  714.527096223414  +/- 0.000575
# P'_topo (s/s)    =  -0                +/- 3.04e-10
# P''_topo (s/s^2) =  0                 +/- 1.34e-13
# P_bary (ms)      =  N/A
# P'_bary (s/s)    =  N/A
# P''_bary (s/s^2) =  N/A
# P_orb (s)        =  N/A
# asin(i)/c (s)    =  N/A
# eccentricity     =  N/A
# w (rad)          =  N/A
# T_peri           =  N/A
######################################################
   0  1384.926
   1  1666.719
   2  1377.332
   3  817.5684
   4  765.1623
   5  862.0199
   6  1044.832
   7  1244.189
   8  1201.011
   9  1165.886
  10  1137.267
  11  854.6346
  12  1093.301
  13  1116.948
  14  775.3555
  15  668.9944
  16  987.44
  17  1223.083
  18  805.087
  19  752.0837
  20  567.2742
  21  676.7662
  22  1046.549
  23  1042.783
  24  936.0147
  25  915.9309
  26  1152.107
  27  1168.625
  28  925.4856
  29  917.43
  30  803.2576
  31  745.3323
  32  714.8989
  33  914.6675
  34  873.3684
  35  1029.356
  36  1228.299
  37  1319.207
  38  1154.139
  39  1000.2
  40  1434.983
  41  1167.144
  42  1014.63
  43  997.3903
  44  955.3637
  45  1060.055
  46  996.6453
  47  930.2753
  48  1008.212
  49  1019.353
  50  807.9493
  51  1009.087
  52  871.8967
  53  757.3495
  54  1122.276
  55  1103.46
  56  749.1024
  57  731.8993
  58  954.791
  59  759.0854
  60  830.9566
  61  667.5279
  62  702.4118
  63  740.306
  64  1159.763
  65  993.774
  66  671.8652
  67  578.2552
  68  720.8019
  69  865.9676
  70  1176.947
  71  1043.076
  72  1010.754
  73  1087.204
  74  709.7054
  75  961.2495
  76  920.0516
  77  1040.018
  78  1140.928
  79  1273.531
  80  1327.196
  81  942.2252
  82  935.6337
  83  1193.807
  84  1167.308
  85  1262.99
  86  1268.629
  87  1013.235
  88  1052.323
  89  690.4357
  90  532.0687
  91  652.6598
  92  1102.004
  93  1165.157
  94  1223.283
  95  1483.762
  96  1173.226
  97  1135.841
  98  769.0914
  99  800.5698
 100  855.0906
 101  1148.471
 102  751.4837
 103  654.9606
 104  694.4077
 105  635.6912
 106  998.9307
 107  1246.125
 108  1280.512
 109  1196.837
 110  1235.706
 111  1218.469
 112  1155.506
 113  1111.321
 114  1230.824
 115  1051.294
 116  728.6111
 117  759.4719
 118  926.2776
 119  1106.868
 120  1377.232
 121  1177.617
 122  1099.104
 123  1183.689
 124  1214.214
 125  1061.283
 126  1108.182
 127  1419.638
 128  1655.296
 129  911.8444
 130  822.5718
 131  1279.95
 132  1273.324
 133  1201.905
 134  1080.536
 135  1178.893
 136  1182.418
 137  1104.211
 138  1286.69
 139  1192.842
 140  1214.242
 141  1218.406
 142  1128.823
 143  1201.962
 144  1039.094
 145  990.1395
 146  1086.442
 147  1260.173
 148  936.2133
 149  986.7676
 150  1142.615
 151  761.5041
 152  950.544
 153  1152.571
 154  1387.425
 155  1051.988
 156  895.9893
 157  726.0126
 158  1227.254
 159  1070.595
 160  1098.261
 161  1155.683
 162  1250.347
 163  1125.181
 164  946.3776
 165  1062.285
 166  1188.935
 167  1018.294
 168  1101.623
 169  1099.469
 170  1175.697
 171  957.7051
 172  866.2488
 173  1202.165
 174  911.6243
 175  663.14
 176  995.2848
 177  1052.886
 178  721.045
 179  750.6078
 180  1130.589
 181  887.9933
 182  780.4742
 183  885.6489
 184  751.4824
 185  1079.557
 186  1107.644
 187  913.6409
 188  761.0118
 189  1088.707
 190  1178.047
 191  997.5042
 192  751.0555
 193  844.6877
 194  846.9064
 195  1028.715
 196  1036.177
 197  832.7135
 198  535.3445
 199  609.902
 200  741.8282
 201  622.4634
 202  499.6241
 203  392.6696
 204  712.898
 205  604.0523
 206  1251.748
 207  1148.504
 208  898.0441
 209  798.4797
 210  778.9667
 211  714.6743
 212  1226.912
 213  986.8192
 214  892.6927
 215  801.0077
 216  748.8511
 217  716.549
 218  791.9584
 219  879.7047
 220  671.1335
 221  715.1277
 222  964.1936
 223  935.2983
 224  929.1049
 225  671.9266
 226  598.4547
 227  741.16
 228  885.7009
 229  687.9872
 230  790.9323
 231  1034.595
 232  1134.068
 233  1065.6
 234  720.0789
 235  646.2564
 236  801.2742
 237  658.7053
 238  767.1371
 239  837.7363
 240  524.0233
 241  450.413
 242  685.8388
 243  734.9841
 244  961.1806
 245  733.0458
 246  735.8289
 247  740.6956
 248  655.3096
 249  771.2061
 250  599.8372
 251  843.8788
 252  628.6207
 253  781.5718
 254  871.4694
 255  843.9335
 256  759.3065
 257  783.7537
 258  851.8477
 259  773.8033
 260  608.1486
 261  769.9258
 262  810.5436
 263  817.4711
 264  617.1799
 265  700.655
 266  876.7879
 267  749.0875
 268  706.4317
 269  907.1339
 270  1105.866
 271  1080.502
 272  1119.899
 273  1120.555
 274  1076.301
 275  987.4798
 276  1044.379
 277  1266.095
 278  1290.692
 279  1088.226
 280  882.5346
 281  789.2215
 282  927.2014
 283  687.7579
 284  1015.246
 285  1271.515
 286  989.074
 287  1350.257
 288  1055.054
 289  880.1885
 290  807.6877
 291  969.7026
 292  847.6992
 293  866.0895
 294  1187.339
 295  1051.936
 296  852.0063
 297  764.16
 298  701.6747
 299  764.4102
 300  718.3908
 301  946.7205
 302  945.4736
 303  878.8532
 304  1035.958
 305  1093.363
 306  1120.676
 307  1131.469
 308  935.6531
 309  734.9653
 310  749.6831
 311  713.3074
 312  683.6376
 313  925.2753
 314  1178.553
 315  1205.402
 316  862.4969
 317  1040.057
 318  1076.619
 319  1326.575
 320  1013.484
 321  838.4384
 322  1026.308
 323  1442.005
 324  949.796
 325  858.7001
 326  1075.351
 327  1188.169
 328  1051.558
 329  917.1889
 330  804.9528
 331  955.6471
 332  1237.537
 333  1311.682
 334  1561.817
 335  1165.804
 336  1035.193
 337  1434.736
 338  1408.83
 339  1474.186
 340  1371.62
 341  1641.306
 342  1488.651
 343  1362.857
 344  1562.159
 345  1239.169
 346  1527.364
 347  1236.641
 348  1196.748
 349  1361.459
 350  1538.038
 351  1274.542
 352  1226.22
 353  1145.493
 354  1152.998
 355  1007.72
 356  1229.926
 357  1019.433
 358  1124.957
 359  1200.617
 360  1205.019
 361  1636.474
 362  1441.249
 363  966.762
 364  783.3353
 365  864.1703
 366  959.5164
 367  668.48
 368  764.9388
 369  664.5166
 370  797.5406
 371  697.1251
 372  1011.317
 373  1175.802
 374  1239.498
 375  1233.875
 376  1200.82
 377  1065.698
 378  1152.014
 379  1125.589
 380  1428.9
 381  1334.804
 382  1259.669
 383  1217.895
 384  1107.697
 385  1000.987
 386  1413.092
 387  1606.925
 388  1328.786
 389  1142.915
 390  844.8447
 391  999.012
 392  800.419
 393  1238.088
 394  1305.218
 395  1073.748
 396  1217.683
 397  1441.105
 398  1158.415
 399  991.4107
 400  942.547
 401  1024.903
 402  1174.979
 403  1158.875
 404  1055.224
 405  875.3188
 406  823.0138
 407  1303.208
 408  1273.956
 409  954.6171
 410  803.0034
 411  922.5308
 412  1169.29
 413  895.4597
 414  493.4856
 415  880.2797
 416  1117.937
 417  956.0682
 418  1210.34
 419  1269.457
 420  1098.456
 421  1374.753
 422  1400.793
 423  1533.43
 424  1403.861
 425  1409.158
 426  920.8084
 427  692.4448
 428  1129.189
 429  1677.537
 430  1312.697
 431  1242.987
 432  1286.198
 433  1185.178
 434  1232.555
 435  1022.668
 436  1098.784
 437  918.7941
 438  858.4069
 439  1013.459
 440  1161.107
 441  1060.091
 442  1301.952
 443  1373.54
 444  1040.056
 445  1014.016
 446  993.5763
 447  1574.969
 448  1833.437
 449  1637.739
 450  2081.596
 451  2378.947
 452  2439.462
 453  2241.062
 454  2379.991
 455  2213.516
 456  1620.408
 457  1013.998
 458  1208.894
 459  1191.225
 460  1119.562
 461  956.4129
 462  1279.612
 463  1510.617
 464  1336.579
 465  1215.455
 466  1071.498
 467  1343.387
 468  1164.344
 469  1263.578
 470  1266.256
 471  1096.517
 472  1404.794
 473  1466.602
 474  1275.2
 475  816.2484
 476  1039.051
 477  930.1929
 478  946.3489
 479  781.4004
 480  920.1685
 481  886.2863
 482  848.7253
 483  604.8409
 484  714.4914
 485  963.3695
 486  929.2831
 487  752.3058
 488  1135.08
 489  1161.029
 490  964.5393
 491  826.6988
 492  901.0512
 493  1012.192
 494  777.4547
 495  1114.257
 496  950.605
 497  909.9588
 498  659.4465
 499  550.556
 500  758.8503
 501  833.3869
 502  911.6548
 503  1235.374
 504  1063.562
 505  1058.486
 506  1282.211
 507  1234.002
 508  936.6205
 509  909.7817
 510  869.4868
 511  1305.851
