# Input file       =  1179059303.106471_cleaned.dat
# Candidate        =  PSR_0332+5434
# Telescope        =  AR
# Epoch_topo       =  57890.519931787858
# Epoch_bary       =  N/A
# T_sample         =  0.002
# Data Folded      =  7340032
# Data Avg         =  0.0894229514243698
# Data StdDev      =  3.1866749830877  
# Profile Bins     =  512
# Profile Avg      =  1281.97703118518 
# Profile StdDev   =  381.55027167097  
# Reduced chi-sqr  =  1.113
# Prob(Noise)      <  0.0391   (~1.8 sigma)
# P_topo (ms)      =  714.531164607857  +/- 0.000752
# P'_topo (s/s)    =  -0                +/- 3.97e-10
# P''_topo (s/s^2) =  0                 +/- 1.75e-13
# P_bary (ms)      =  N/A
# P'_bary (s/s)    =  N/A
# P''_bary (s/s^2) =  N/A
# P_orb (s)        =  N/A
# asin(i)/c (s)    =  N/A
# eccentricity     =  N/A
# w (rad)          =  N/A
# T_peri           =  N/A
######################################################
   0  1303.78
   1  1353.395
   2  1316.352
   3  1335.912
   4  1238.916
   5  1003.383
   6  1451.711
   7  1325.229
   8  1579.387
   9  1395.971
  10  1217.304
  11  1490.536
  12  1910.792
  13  1726.709
  14  1227.537
  15  1483.079
  16  1346.836
  17  1254.483
  18  1517.456
  19  1449.834
  20  1142.532
  21  1555.334
  22  1479.045
  23  1460.098
  24  1514.111
  25  1518.698
  26  1475.595
  27  1559.584
  28  1527.427
  29  1260.187
  30  1335.629
  31  1588.765
  32  1360.465
  33  1158.058
  34  1606.034
  35  1459.962
  36  1469.144
  37  1581.539
  38  1502.114
  39  1259.487
  40  1154.37
  41  1414.154
  42  1585.76
  43  1220.757
  44  1418.891
  45  1186.968
  46  962.7413
  47  1071.792
  48  1018.167
  49  906.9562
  50  1429.017
  51  1174.388
  52  992.8021
  53  705.0928
  54  1529.773
  55  1342.007
  56  1151.922
  57  1059.231
  58  908.3932
  59  927.9034
  60  1146.394
  61  1329.237
  62  941.9166
  63  626.781
  64  786.3065
  65  1027.269
  66  713.7686
  67  661.85
  68  1169.266
  69  1303.323
  70  1155.832
  71  967.4551
  72  1263.014
  73  1062.673
  74  1108.938
  75  1063.97
  76  1184.127
  77  902.0643
  78  897.4199
  79  937.9152
  80  1200.95
  81  1112.151
  82  1025.805
  83  1060.056
  84  870.569
  85  1012.923
  86  1431.987
  87  1351.658
  88  1181.864
  89  1103.375
  90  1058.133
  91  952.2506
  92  1418.795
  93  1442.344
  94  1369.912
  95  1328.185
  96  1342.268
  97  1517.918
  98  1417.339
  99  1329.254
 100  1000.691
 101  941.1627
 102  959.5733
 103  1009.49
 104  1008.634
 105  1073.255
 106  1103.325
 107  1224.708
 108  841.0136
 109  412.2514
 110  824.1578
 111  1240.497
 112  1009.296
 113  851.456
 114  860.921
 115  1077.506
 116  1043.009
 117  963.327
 118  1176.417
 119  1340.323
 120  1679.672
 121  1410.843
 122  1387.49
 123  1317.735
 124  1065.552
 125  848.1953
 126  763.4031
 127  1269.16
 128  1221.602
 129  1264.553
 130  1387.879
 131  1438.717
 132  964.114
 133  1167.146
 134  1391.854
 135  1528.769
 136  1216.425
 137  937.2095
 138  1031.866
 139  842.0189
 140  1159.248
 141  1106.488
 142  996.0349
 143  935.4698
 144  1129.719
 145  887.5308
 146  1050.516
 147  1211.728
 148  916.7377
 149  834.4995
 150  961.001
 151  884.2662
 152  1272.168
 153  1124.95
 154  950.1738
 155  901.7693
 156  1155.37
 157  1083.626
 158  742.57
 159  751.7692
 160  1347.064
 161  1206.732
 162  744.4059
 163  894.657
 164  1155.196
 165  1227.429
 166  1031.007
 167  1159.372
 168  1267.903
 169  1247.8
 170  1213.121
 171  1533.485
 172  1376.054
 173  1096.727
 174  940.4437
 175  1204.235
 176  1196.951
 177  1072.189
 178  1203.305
 179  1038.735
 180  923.5292
 181  1278.224
 182  1121.356
 183  1058.489
 184  1010.235
 185  1065.859
 186  889.6862
 187  992.8417
 188  961.803
 189  1386.557
 190  1274.691
 191  726.8788
 192  1228.693
 193  1789.473
 194  1544.619
 195  1193.234
 196  1376.081
 197  1445.503
 198  1245.492
 199  1223.485
 200  1458.482
 201  1632.389
 202  1544.085
 203  1221.287
 204  1043.205
 205  1592.49
 206  1193.339
 207  1032.562
 208  1107.447
 209  1566.96
 210  1499.041
 211  1675.487
 212  1700.461
 213  1590.707
 214  1380.914
 215  1240.847
 216  1207.227
 217  1443.213
 218  1204.435
 219  1519.291
 220  1208.437
 221  1275.013
 222  1330.085
 223  1433.3
 224  1192.951
 225  822.4652
 226  872.7843
 227  991.0425
 228  1333.393
 229  1601.827
 230  1370.22
 231  1198.922
 232  896.2493
 233  1063.08
 234  1416.049
 235  1627.134
 236  1287.812
 237  1568.249
 238  1481.887
 239  1473.57
 240  1479.779
 241  1640.165
 242  1438.143
 243  1393.906
 244  1579.856
 245  1790.267
 246  1324.938
 247  1568.554
 248  1771.831
 249  1722.784
 250  1481.951
 251  1375.258
 252  1712.965
 253  1556.574
 254  946.9401
 255  1066.314
 256  1461.122
 257  1578.661
 258  1676.929
 259  1565.575
 260  1778.764
 261  2388.927
 262  1921.29
 263  1812.576
 264  2195.178
 265  2332.302
 266  2426.377
 267  2636.181
 268  2408.624
 269  1944.529
 270  1613.341
 271  1097.615
 272  1455.851
 273  1169.062
 274  1577.571
 275  1685.977
 276  1314.919
 277  1451.245
 278  1431.866
 279  1586.715
 280  1782.285
 281  1518.961
 282  1476.077
 283  1295.851
 284  1161.37
 285  1448.12
 286  1744.072
 287  1417.24
 288  1079.242
 289  1520.229
 290  1545.544
 291  1562.947
 292  1658.085
 293  2019.929
 294  1578.96
 295  1355.216
 296  1642.522
 297  1480.852
 298  1097.743
 299  1147.738
 300  1335.829
 301  1331.082
 302  1158.865
 303  1225.348
 304  1174.618
 305  1706.729
 306  1416.324
 307  1516.911
 308  1589.066
 309  1535.309
 310  1288.3
 311  1553.159
 312  1515.246
 313  1156.197
 314  1079.122
 315  1412.965
 316  1792.765
 317  1658.956
 318  1336.309
 319  1375.018
 320  1466.962
 321  1212.306
 322  1002.001
 323  1433.163
 324  1817.014
 325  1711.146
 326  1431.883
 327  1012.699
 328  1190.459
 329  1623.934
 330  1633.689
 331  1518.36
 332  1488.202
 333  1607.409
 334  1734.193
 335  1291.688
 336  1357.972
 337  1616.508
 338  1712.837
 339  1666.682
 340  1488.648
 341  696.324
 342  1035.75
 343  1125.295
 344  1172.049
 345  1214.078
 346  1404.692
 347  1575.09
 348  1355.819
 349  1133.947
 350  1393.831
 351  1130.563
 352  1021.68
 353  1188.482
 354  1297.984
 355  1473.3
 356  1580.603
 357  1240.181
 358  1357.65
 359  1327.449
 360  1389.377
 361  1499.91
 362  1427.935
 363  1278.606
 364  1212.006
 365  1303.347
 366  1046.184
 367  1413.497
 368  1390.673
 369  1687.277
 370  1614.6
 371  1400.211
 372  1325.977
 373  1330.03
 374  1410.986
 375  1423.149
 376  1663.514
 377  1800.048
 378  1896.957
 379  1565.014
 380  1405.129
 381  1224.529
 382  1362.544
 383  1518.961
 384  1448.445
 385  1211.448
 386  1182.26
 387  1524.304
 388  1706.46
 389  1522.043
 390  1436.01
 391  1391.259
 392  1405.351
 393  1332.874
 394  1373.918
 395  1555.699
 396  1550.594
 397  1385.977
 398  1476.142
 399  1398.519
 400  1239.537
 401  1496.21
 402  1773.947
 403  1785.851
 404  1438.434
 405  1436.936
 406  1344.993
 407  1374.657
 408  1405.03
 409  1413.783
 410  1452.631
 411  1450.8
 412  1223.484
 413  1613.511
 414  1713.009
 415  1798.104
 416  1300.485
 417  869.7894
 418  1022.618
 419  926.7789
 420  993.1467
 421  928.3273
 422  870.309
 423  1034.283
 424  1193.605
 425  888.0602
 426  852.2169
 427  787.1768
 428  1150.129
 429  891.1336
 430  826.9097
 431  1156.845
 432  1075.099
 433  1122.724
 434  979.0421
 435  812.7819
 436  909.7055
 437  859.0181
 438  1135.39
 439  1576.009
 440  1385.37
 441  1237.364
 442  1180.09
 443  974.6688
 444  816.5314
 445  1114.901
 446  1180.256
 447  1106.762
 448  1043.284
 449  1225.221
 450  1122.395
 451  1397.837
 452  1403.402
 453  961.4509
 454  1287.105
 455  1176.165
 456  1284.037
 457  1150.83
 458  1246.212
 459  1125.13
 460  1211.074
 461  1202.491
 462  1308.252
 463  1713.858
 464  1559.272
 465  1072.834
 466  771.2845
 467  1140.075
 468  1116.947
 469  1262.672
 470  1436.129
 471  1029.884
 472  1249.475
 473  1818.484
 474  1493.139
 475  1219.724
 476  1256.098
 477  927.9067
 478  845.8951
 479  901.238
 480  1300.576
 481  1125.952
 482  1150.099
 483  1452.472
 484  1296.8
 485  1167.994
 486  1066.25
 487  1067.691
 488  939.9274
 489  1002.582
 490  1178.562
 491  1073.92
 492  872.0155
 493  523.5227
 494  726.4294
 495  819.2049
 496  936.6646
 497  922.169
 498  1056.151
 499  924.8438
 500  1040.536
 501  1171.937
 502  1276.143
 503  1320.788
 504  1372.328
 505  1458.458
 506  977.2233
 507  1153.577
 508  1074.184
 509  1227.944
 510  1104.9
 511  1201.866
