# Input file       =  1179992187.103937_cleaned.dat
# Candidate        =  PSR_0332+5434
# Telescope        =  AR
# Epoch_topo       =  57901.317200277044
# Epoch_bary       =  N/A
# T_sample         =  0.002
# Data Folded      =  7340032
# Data Avg         =  0.0836971923667335
# Data StdDev      =  2.90811643265932 
# Profile Bins     =  512
# Profile Avg      =  1199.92283381008 
# Profile StdDev   =  348.19761061947  
# Reduced chi-sqr  =  1.041
# Prob(Noise)      <  0.252   (~0.7 sigma)
# P_topo (ms)      =  714.520201184605  +/- 0.0004
# P'_topo (s/s)    =  -0                +/- 2.11e-10
# P''_topo (s/s^2) =  0                 +/- 9.32e-14
# P_bary (ms)      =  N/A
# P'_bary (s/s)    =  N/A
# P''_bary (s/s^2) =  N/A
# P_orb (s)        =  N/A
# asin(i)/c (s)    =  N/A
# eccentricity     =  N/A
# w (rad)          =  N/A
# T_peri           =  N/A
######################################################
   0  910.3788
   1  833.3248
   2  1015.715
   3  805.4897
   4  848.189
   5  864.9352
   6  671.3274
   7  908.463
   8  1079.097
   9  836.4443
  10  1038.612
  11  1057.694
  12  1047.678
  13  1220.043
  14  1234.222
  15  1486.701
  16  1223.23
  17  1268.354
  18  1165.33
  19  1112.484
  20  731.7806
  21  948.9412
  22  1205.145
  23  1299.606
  24  1226.6
  25  1293.131
  26  973.6469
  27  901.9557
  28  925.1175
  29  930.2073
  30  1035.952
  31  788.3617
  32  604.0574
  33  730.0576
  34  729.3586
  35  1087.027
  36  855.6362
  37  859.5515
  38  834.7941
  39  704.648
  40  873.8755
  41  877.8054
  42  1338.71
  43  1135.03
  44  1057.626
  45  1013.767
  46  922.3046
  47  973.6678
  48  904.4923
  49  978.7846
  50  1053.718
  51  1133.515
  52  1201.167
  53  1084.764
  54  1117.207
  55  1101.92
  56  1151.699
  57  979.0857
  58  831.6244
  59  867.3906
  60  979.4865
  61  934.9622
  62  1202.661
  63  1350.077
  64  1122.559
  65  1202.355
  66  1049.124
  67  1177.663
  68  1176.12
  69  1553.363
  70  1400.727
  71  1478.852
  72  1241.581
  73  1095.651
  74  1246.51
  75  1173.368
  76  1258.955
  77  1149.909
  78  1008.854
  79  1177.889
  80  1169.08
  81  1277.566
  82  1193.614
  83  1319.807
  84  1141.73
  85  1069.102
  86  1204.145
  87  1262.724
  88  1578.775
  89  1477.045
  90  1451.345
  91  1657.726
  92  1277.136
  93  1053.623
  94  1297.457
  95  1409.417
  96  1592.397
  97  1799.788
  98  1658.208
  99  1444.283
 100  1392.3
 101  1386.234
 102  1093.464
 103  1291.024
 104  1481.253
 105  1096.057
 106  1305.518
 107  1500.614
 108  1524.22
 109  1236.677
 110  1116.673
 111  1502.525
 112  1368.254
 113  1564.361
 114  1459.659
 115  1424.216
 116  1450.531
 117  1094.304
 118  1270.047
 119  1549.634
 120  1499.77
 121  1511.44
 122  1150.41
 123  928.9344
 124  852.2471
 125  917.1756
 126  801.073
 127  1140.854
 128  1058.17
 129  975.8483
 130  1242.086
 131  945.7139
 132  1119.682
 133  1025.984
 134  1438.27
 135  1322.818
 136  999.184
 137  1016.975
 138  1207.547
 139  961.9614
 140  1134.27
 141  1431.254
 142  1219.68
 143  1058.928
 144  1178.205
 145  1218.616
 146  1161.451
 147  1086.289
 148  1259.284
 149  1252.538
 150  1486.641
 151  1400.156
 152  1044.572
 153  1260.116
 154  975.0768
 155  780.4948
 156  884.5153
 157  1006.429
 158  1012.1
 159  724.8382
 160  825.9964
 161  730.0302
 162  908.7258
 163  1154.181
 164  804.9206
 165  874.8018
 166  1019.405
 167  1056.327
 168  845.8309
 169  880.3259
 170  1119.868
 171  986.4975
 172  1200.649
 173  1290.469
 174  1153.435
 175  1022.315
 176  1122.829
 177  1127.411
 178  1133.386
 179  865.5554
 180  787.7083
 181  1268.197
 182  1313.353
 183  1113.849
 184  708.044
 185  1023.855
 186  1264.288
 187  1077.784
 188  1088.497
 189  1152.843
 190  1107.711
 191  1198.659
 192  1424.899
 193  673.886
 194  921.5538
 195  1016.544
 196  1014.007
 197  1032.016
 198  1084.48
 199  1365.085
 200  1200.484
 201  1233.514
 202  1433.255
 203  1138.777
 204  1321.478
 205  1542.519
 206  1225.611
 207  1397.154
 208  1253.387
 209  1353.932
 210  783.7975
 211  1219.313
 212  1344.136
 213  1248.49
 214  1245.776
 215  1227.97
 216  1171.144
 217  1176.568
 218  1395.776
 219  1351.943
 220  1175.785
 221  1204.026
 222  1253.241
 223  1230.994
 224  1326.405
 225  1269.751
 226  1249.56
 227  1409.032
 228  1230.347
 229  945.7971
 230  1116.09
 231  1371.973
 232  1339.105
 233  1255.644
 234  1189.113
 235  1307.38
 236  1295.726
 237  1352.19
 238  1376.985
 239  1379.721
 240  1428.6
 241  1374.212
 242  1289.978
 243  1188.611
 244  1181.846
 245  1207.205
 246  1251.68
 247  1297.194
 248  1027.296
 249  1054.46
 250  1021.586
 251  1136.726
 252  1238.96
 253  1255.431
 254  1148.848
 255  1023.9
 256  1501.446
 257  1340.302
 258  988.4378
 259  949.2843
 260  1072.838
 261  1210.815
 262  1268.071
 263  1312.431
 264  1630.437
 265  1369.29
 266  1134.737
 267  1194.109
 268  1107.129
 269  1188.561
 270  1291.431
 271  1401.333
 272  1328.436
 273  1257.513
 274  1387.579
 275  1391.692
 276  1168.893
 277  1228.043
 278  1236.304
 279  1110.822
 280  1139.012
 281  1051.331
 282  1159.008
 283  1445.961
 284  1369.752
 285  1457.224
 286  1193.116
 287  985.1559
 288  1518.891
 289  1488.354
 290  1465.909
 291  1569.928
 292  1278.855
 293  1215.708
 294  1080.833
 295  1660.791
 296  1619.845
 297  1447.813
 298  1479.033
 299  1532.468
 300  1425.328
 301  1578.197
 302  1516.188
 303  1550.559
 304  1366.229
 305  1293.283
 306  1386.087
 307  1258.125
 308  955.8255
 309  891.9516
 310  1110.21
 311  733.7499
 312  1128.208
 313  1253.841
 314  1072.452
 315  1548.506
 316  1257.451
 317  949.4695
 318  997.2887
 319  1428.149
 320  1372.328
 321  1319.752
 322  1510.422
 323  1597.49
 324  1086.644
 325  1111.855
 326  1274.057
 327  1342.627
 328  1038.436
 329  1142.627
 330  1337.574
 331  1571.296
 332  1127.511
 333  1212.547
 334  1587.737
 335  1301.69
 336  1172.686
 337  1183.919
 338  1157.475
 339  1138.039
 340  1359.831
 341  1103.125
 342  618.108
 343  851.5107
 344  754.6194
 345  601.0219
 346  904.2736
 347  1334.449
 348  1102.37
 349  904.9127
 350  1275.06
 351  1192.626
 352  1191.054
 353  975.6594
 354  1074.471
 355  1122.53
 356  1335.607
 357  1534.889
 358  1395.626
 359  926.4766
 360  1049.282
 361  1204.409
 362  953.6212
 363  1267.388
 364  1500.4
 365  1233.602
 366  1028.468
 367  1240.916
 368  1247.513
 369  1300.726
 370  1338.991
 371  1394.595
 372  1078.837
 373  1578.577
 374  1509.486
 375  1403.709
 376  1428.962
 377  1046.637
 378  1346.006
 379  1278.3
 380  1235.859
 381  1364.895
 382  1545.719
 383  1453.968
 384  1081.198
 385  1181.506
 386  1518.725
 387  1553.356
 388  1157.31
 389  975.4538
 390  1169.795
 391  1157.028
 392  1147.079
 393  1024.302
 394  1136.401
 395  1015.839
 396  1116.989
 397  981.0338
 398  1192.667
 399  1031.254
 400  1354.135
 401  1394.178
 402  1046.375
 403  959.7254
 404  1107.458
 405  1339.232
 406  1220.062
 407  1203.005
 408  1217.857
 409  1361.999
 410  1250.158
 411  973.8278
 412  1148.501
 413  1446.231
 414  1198.167
 415  1175.333
 416  1669.028
 417  1569.842
 418  1584.769
 419  1588.199
 420  1876.194
 421  1878.42
 422  2415.563
 423  2887.422
 424  2780.749
 425  2614.184
 426  2215.35
 427  1308.352
 428  1138.964
 429  1186.867
 430  967.1643
 431  899.1398
 432  1005.48
 433  1021.841
 434  961.34
 435  1111.758
 436  1095.709
 437  975.6475
 438  1118.27
 439  1162.823
 440  1478.546
 441  1312.99
 442  1250.405
 443  1149.46
 444  1116.385
 445  1001.24
 446  1223.817
 447  1196.76
 448  1186.259
 449  1199.813
 450  1089.707
 451  1229.223
 452  1298.184
 453  1238.639
 454  993.7356
 455  975.4518
 456  1240.647
 457  1201.92
 458  1191.793
 459  1416.689
 460  1362.517
 461  1324.915
 462  1437.806
 463  1530.556
 464  1155.97
 465  1182.992
 466  1491.213
 467  1589.004
 468  1366.381
 469  1403.318
 470  1383.497
 471  1724.917
 472  1639.8
 473  1330.369
 474  1181.124
 475  1381.594
 476  1237.25
 477  1230.259
 478  936.2372
 479  948.4221
 480  833.8972
 481  958.4629
 482  1142.242
 483  1052.86
 484  1017.276
 485  1217.374
 486  1087.667
 487  1216.246
 488  1226.644
 489  1072.53
 490  985.7674
 491  1256.06
 492  1320.668
 493  961.1676
 494  1088.403
 495  1135.562
 496  1390.247
 497  1178.138
 498  1114.147
 499  959.4725
 500  940.7599
 501  765.1584
 502  877.2534
 503  1157.666
 504  1021.496
 505  1286.276
 506  1244.642
 507  1107.555
 508  1036.873
 509  731.5638
 510  734.2726
 511  1000.383
