# Input file       =  1179044386.113434_cleaned.dat
# Candidate        =  PSR_0332+5434
# Telescope        =  AR
# Epoch_topo       =  57890.347281405484
# Epoch_bary       =  N/A
# T_sample         =  0.002
# Data Folded      =  7340032
# Data Avg         =  0.0908496632203295
# Data StdDev      =  2.85574439652562 
# Profile Bins     =  512
# Profile Avg      =  1302.41177111764 
# Profile StdDev   =  341.926947711948 
# Reduced chi-sqr  =  0.973
# Prob(Noise)      <  0.659   (~0.0 sigma)
# P_topo (ms)      =  714.530998467425  +/- 0.000525
# P'_topo (s/s)    =  -0                +/- 2.77e-10
# P''_topo (s/s^2) =  0                 +/- 1.22e-13
# P_bary (ms)      =  N/A
# P'_bary (s/s)    =  N/A
# P''_bary (s/s^2) =  N/A
# P_orb (s)        =  N/A
# asin(i)/c (s)    =  N/A
# eccentricity     =  N/A
# w (rad)          =  N/A
# T_peri           =  N/A
######################################################
   0  990.2576
   1  1225.49
   2  1536.064
   3  1656.041
   4  1622.037
   5  1603.318
   6  1568.324
   7  1399.3
   8  1335.676
   9  1533.576
  10  1749.62
  11  1397.608
  12  1510.801
  13  1691.821
  14  1693.5
  15  1571.574
  16  1516.962
  17  1568.544
  18  1467.182
  19  1390.062
  20  1632.622
  21  1667.639
  22  1580.123
  23  1305.837
  24  1370.981
  25  1283.754
  26  1173.962
  27  1145.896
  28  1176.873
  29  1495.33
  30  1267.975
  31  1386.932
  32  1096.844
  33  912.4054
  34  1182.24
  35  1145.823
  36  938.3378
  37  997.9869
  38  1055.797
  39  1076.019
  40  995.7067
  41  1357.278
  42  1570.421
  43  1336.242
  44  1324.711
  45  1326.131
  46  1286.368
  47  1383.235
  48  1387.686
  49  1150.073
  50  1077.317
  51  1099.979
  52  1289.643
  53  1606.838
  54  1938.763
  55  1528.042
  56  1216.62
  57  761.0209
  58  1033.653
  59  1188.78
  60  1427.632
  61  1654.741
  62  1452.96
  63  1341.723
  64  1542.516
  65  1249.645
  66  1303.973
  67  1273.134
  68  1433.95
  69  1869.498
  70  2231.648
  71  2364.242
  72  2552.946
  73  2322.701
  74  2243.625
  75  2220.254
  76  1837.968
  77  1424.979
  78  1261.181
  79  1259.513
  80  1525.216
  81  1378.237
  82  1283.05
  83  1390.359
  84  1613.654
  85  1621.259
  86  1493.333
  87  1410.365
  88  1891.291
  89  2011.028
  90  1453.37
  91  1353.592
  92  1174.737
  93  1440.27
  94  1300.94
  95  1439.915
  96  1779.655
  97  1418.479
  98  1238.395
  99  1053.751
 100  1083.495
 101  1441.584
 102  1158.84
 103  1199.052
 104  950.9529
 105  848.2098
 106  1221.755
 107  909.5148
 108  885.5181
 109  1212.578
 110  944.5779
 111  1052.042
 112  1228.864
 113  1167.467
 114  1174.237
 115  1245.861
 116  1439.943
 117  1404.009
 118  1127.818
 119  1454.982
 120  1280.438
 121  1173.847
 122  1332.528
 123  1540.357
 124  1692.733
 125  1402.064
 126  1117.056
 127  1300.979
 128  1300.596
 129  1313.076
 130  1353.86
 131  1387.493
 132  1466.322
 133  1189.661
 134  1210.088
 135  1461.917
 136  1323.105
 137  1153.376
 138  1326.297
 139  1411.449
 140  956.0728
 141  928.8441
 142  1060.422
 143  1067.053
 144  871.0601
 145  1242.784
 146  1180.404
 147  1263.545
 148  1391.293
 149  1190.767
 150  1170.792
 151  919.3583
 152  819.3406
 153  1160.776
 154  1216.299
 155  1100.287
 156  1233.438
 157  1130.454
 158  1358.663
 159  1346.95
 160  1128.041
 161  1176.83
 162  1260.992
 163  1477.471
 164  1444.989
 165  1302.617
 166  1253.981
 167  1176.425
 168  1260.709
 169  1216.697
 170  1022.142
 171  1119.721
 172  1334.196
 173  1211.455
 174  1139.22
 175  1546.918
 176  1638.755
 177  1077.704
 178  1241.946
 179  1436.441
 180  1292.673
 181  1461.284
 182  1271.883
 183  1192.914
 184  1011.695
 185  941.9521
 186  1011.413
 187  828.9902
 188  1109.639
 189  1369.531
 190  1306.665
 191  1344.43
 192  1385.556
 193  1126.905
 194  1221.987
 195  1212.794
 196  1426.664
 197  1125.474
 198  888.3832
 199  821.4613
 200  1284.884
 201  1391.242
 202  1347.158
 203  1399.848
 204  1441.752
 205  1120.763
 206  1118.812
 207  1485.253
 208  1403.647
 209  1458.57
 210  1234.938
 211  1307.423
 212  1518.645
 213  1308.144
 214  1095.237
 215  1027.425
 216  1276.931
 217  1399.932
 218  1113.442
 219  1101.629
 220  1298.395
 221  1290.276
 222  1360.187
 223  1331.865
 224  1218.979
 225  1193.377
 226  1341.996
 227  1085.79
 228  1092.161
 229  1418.725
 230  1658.331
 231  1220.096
 232  1027.874
 233  1112.24
 234  1128.971
 235  1253.499
 236  1048.049
 237  1179.759
 238  1282.496
 239  1366.496
 240  1198.644
 241  1126.764
 242  1006.445
 243  970.5502
 244  1074.303
 245  1282.373
 246  1356.507
 247  1029.767
 248  1118.494
 249  1300.422
 250  1377.787
 251  1179.252
 252  1231.146
 253  898.9398
 254  1094.628
 255  1080.096
 256  1156.565
 257  1478.362
 258  1415.606
 259  1299.924
 260  1075.337
 261  1082.458
 262  1274.19
 263  1542.342
 264  967.015
 265  1203.875
 266  1330.18
 267  1528.246
 268  1543.602
 269  1425.894
 270  1551.91
 271  1363.391
 272  1228.693
 273  1074.573
 274  963.6642
 275  1014.898
 276  1213.397
 277  1688.892
 278  1595.287
 279  1495.06
 280  1321.749
 281  1344.155
 282  1474.394
 283  1253.303
 284  1257.247
 285  1187.503
 286  1533.804
 287  1680.874
 288  1282.218
 289  1183.325
 290  1386.048
 291  1508.226
 292  1424.517
 293  1272.528
 294  1204.728
 295  1101.065
 296  1332.739
 297  1512.452
 298  1331.494
 299  1381.104
 300  1544.188
 301  1414.938
 302  1425.088
 303  1463.673
 304  1388.124
 305  1171.15
 306  1104.363
 307  1016.471
 308  1013.373
 309  1204.795
 310  1069.485
 311  1173.804
 312  1134.02
 313  752.9985
 314  983.9148
 315  994.9915
 316  1128.731
 317  978.8482
 318  792.7729
 319  828.1655
 320  1265.737
 321  1467.078
 322  1574.182
 323  1284.273
 324  1168.157
 325  1134.055
 326  1204.341
 327  1468.433
 328  1505.993
 329  1442.512
 330  1198.235
 331  1403.211
 332  1387.298
 333  1024.648
 334  1260.384
 335  1186.969
 336  1375.075
 337  1231.088
 338  1146.219
 339  908.2869
 340  1112.627
 341  1415.885
 342  1496.716
 343  1348.96
 344  1300.145
 345  1392.568
 346  1310.401
 347  1342.211
 348  1314.508
 349  1440.343
 350  1381.253
 351  1158.551
 352  1002.351
 353  1208.03
 354  1473.151
 355  1747.309
 356  1423.478
 357  1425.054
 358  1383.842
 359  1272.267
 360  994.3251
 361  909.6979
 362  932.2752
 363  1080.012
 364  1104.07
 365  1008.604
 366  1325.82
 367  1435.722
 368  1497.908
 369  1694.456
 370  1569.434
 371  1068.519
 372  1013.43
 373  1404.434
 374  1436.183
 375  1221.887
 376  1256.927
 377  1298.002
 378  1126.291
 379  1128.54
 380  858.3474
 381  1258.937
 382  1316.34
 383  962.7076
 384  1008.215
 385  1228.827
 386  964.5102
 387  917.054
 388  1062.429
 389  1233.958
 390  1217.179
 391  1104.406
 392  1055.306
 393  1356.502
 394  1246.696
 395  1299.28
 396  1450.806
 397  1340.103
 398  1698.789
 399  1108.271
 400  1168.164
 401  1394.262
 402  1438.484
 403  1512.9
 404  1602.183
 405  1323.988
 406  1008.591
 407  849.6431
 408  1299.352
 409  1409.474
 410  1385.189
 411  1105.558
 412  944.802
 413  1213.265
 414  1470.493
 415  1480.176
 416  1381.562
 417  1750.522
 418  1806.588
 419  1572.714
 420  1620.419
 421  1502.458
 422  1453.995
 423  1467.315
 424  1481.968
 425  1582.339
 426  1539.816
 427  1590.123
 428  1621.495
 429  1547.027
 430  1321.178
 431  1507.368
 432  1687.922
 433  2113.139
 434  1838.359
 435  1556.133
 436  1235.69
 437  1271.905
 438  1489.428
 439  1422.485
 440  1474.11
 441  1175.9
 442  1195.129
 443  1304.784
 444  1247.59
 445  1210.801
 446  1185.7
 447  1001.414
 448  1091.33
 449  1377.416
 450  1112.829
 451  1120.091
 452  1077.507
 453  1459.14
 454  1388.433
 455  1206.318
 456  1480.777
 457  1409.722
 458  1671.904
 459  1620.94
 460  1276.135
 461  1071.149
 462  1116.308
 463  1380.8
 464  1411.3
 465  1277.604
 466  1358.532
 467  1578.041
 468  1625.357
 469  1575.439
 470  1776.657
 471  1135.697
 472  1176.329
 473  1216.665
 474  1653.462
 475  1390.696
 476  1114.101
 477  1339.303
 478  1297.295
 479  993.4816
 480  1049.808
 481  1005.077
 482  896.5267
 483  1200.188
 484  1612.422
 485  1684.192
 486  1466.749
 487  1162.551
 488  1434.384
 489  1467.347
 490  1218.9
 491  1430.537
 492  1508.273
 493  1542.596
 494  1368.16
 495  1070.449
 496  687.9851
 497  886.7841
 498  1247.932
 499  1253.968
 500  1347.19
 501  1386.791
 502  1249.501
 503  1106.25
 504  1247.551
 505  1415.746
 506  1076.185
 507  1376.916
 508  1147.628
 509  972.5113
 510  1107.109
 511  1102.797
