# Input file       =  1179576297.103387_cleaned.dat
# Candidate        =  PSR_0332+5434
# Telescope        =  AR
# Epoch_topo       =  57896.503658604015
# Epoch_bary       =  N/A
# T_sample         =  0.002
# Data Folded      =  7340032
# Data Avg         =  0.0823459280696364
# Data StdDev      =  3.13322962437128 
# Profile Bins     =  512
# Profile Avg      =  1180.47032907475 
# Profile StdDev   =  375.151096591608 
# Reduced chi-sqr  =  0.959
# Prob(Noise)      <  0.74   (~0.0 sigma)
# P_topo (ms)      =  714.525294219884  +/- 0.000441
# P'_topo (s/s)    =  -0                +/- 2.33e-10
# P''_topo (s/s^2) =  0                 +/- 1.03e-13
# P_bary (ms)      =  N/A
# P'_bary (s/s)    =  N/A
# P''_bary (s/s^2) =  N/A
# P_orb (s)        =  N/A
# asin(i)/c (s)    =  N/A
# eccentricity     =  N/A
# w (rad)          =  N/A
# T_peri           =  N/A
######################################################
   0  1094.355
   1  1274.347
   2  1185.996
   3  959.2703
   4  1214.436
   5  1360.703
   6  1383.121
   7  1326.461
   8  1262.84
   9  1222.386
  10  1467.152
  11  1062.681
  12  1277.74
  13  1274.597
  14  1057.967
  15  990.0726
  16  1078.927
  17  1514.165
  18  1408.546
  19  1374.493
  20  1281.049
  21  1124.461
  22  1105.883
  23  1245.248
  24  970.5597
  25  1115.396
  26  1155.44
  27  1024.23
  28  1230.011
  29  1411.997
  30  1312.397
  31  1317.979
  32  1188.561
  33  1301.976
  34  1166.254
  35  779.4096
  36  673.3963
  37  1267.369
  38  1194.902
  39  990.4886
  40  1053.221
  41  1187.218
  42  868.4778
  43  773.2917
  44  1101.452
  45  885.4683
  46  1276.863
  47  1233.74
  48  1295.61
  49  956.0473
  50  1098.12
  51  974.5462
  52  1209.241
  53  968.3136
  54  1163.528
  55  1194.708
  56  1124.185
  57  1182.173
  58  1192.774
  59  1286.943
  60  1371.175
  61  1632.147
  62  1558.568
  63  1578.469
  64  2049.013
  65  1837.702
  66  1626.856
  67  1595.823
  68  1495.52
  69  1107.027
  70  1426.168
  71  1430.025
  72  1350.436
  73  1141.529
  74  1581.879
  75  967.7153
  76  767.8701
  77  1141.978
  78  1302.805
  79  995.0967
  80  993.8885
  81  903.5505
  82  1084.75
  83  1435.21
  84  1669.217
  85  1351.182
  86  1765.761
  87  1647.525
  88  1406.85
  89  1470.718
  90  1484.934
  91  1259.119
  92  1291.878
  93  1492.927
  94  1448.723
  95  1450.612
  96  1313.552
  97  1224.347
  98  1089.289
  99  1517.775
 100  1361.365
 101  1307.974
 102  1214.243
 103  1333.017
 104  1261.627
 105  1039.833
 106  1182.541
 107  1385.67
 108  1141.935
 109  1233.977
 110  1391.177
 111  1317.444
 112  1002.748
 113  1222.891
 114  935.4177
 115  1040.952
 116  1235.692
 117  1070.755
 118  1256.092
 119  1367.052
 120  1162.424
 121  973.5196
 122  1231.004
 123  1108.117
 124  832.0804
 125  934.1578
 126  1010.713
 127  970.8404
 128  1126.507
 129  1090.187
 130  1072.989
 131  1285.003
 132  1415.755
 133  1257.977
 134  1219.729
 135  1179.459
 136  1078.9
 137  1424.884
 138  1402.345
 139  1229.48
 140  1613.902
 141  1533.083
 142  1643.375
 143  1172.161
 144  1348.396
 145  1359.931
 146  1416.934
 147  1723.927
 148  1400.949
 149  1485.593
 150  984.9481
 151  1102.605
 152  1560.896
 153  1691.845
 154  1277.547
 155  1042.746
 156  1083.834
 157  1176.946
 158  1003.867
 159  759.392
 160  980.0684
 161  1076.27
 162  1033.036
 163  1242.032
 164  1256.162
 165  1328.393
 166  1461.043
 167  1176.926
 168  1157.287
 169  1280.641
 170  1228.319
 171  1108.174
 172  1077.139
 173  1032.597
 174  1234.211
 175  1410.618
 176  1249.344
 177  1041.656
 178  1121.417
 179  841.1894
 180  1005.07
 181  1133.984
 182  1304.684
 183  1200.111
 184  983.3469
 185  793.363
 186  1209.612
 187  1521.771
 188  1047.517
 189  1158.225
 190  990.873
 191  1004.202
 192  1120.092
 193  1544.227
 194  1412.145
 195  1017.163
 196  891.811
 197  1162.069
 198  812.4119
 199  900.9226
 200  1153.692
 201  1228.53
 202  1076.823
 203  756.6512
 204  1091.106
 205  1186.333
 206  787.2733
 207  973.9572
 208  925.4402
 209  1187.124
 210  1395.352
 211  943.3115
 212  940.3096
 213  1029.841
 214  1086.732
 215  1488.775
 216  1642.807
 217  1440.823
 218  1450.643
 219  1352.926
 220  1260.653
 221  1285.693
 222  1096.991
 223  1445.895
 224  1417.499
 225  1275.56
 226  1418.2
 227  1092.341
 228  1144.94
 229  1386.945
 230  1220.404
 231  1556.788
 232  1714.917
 233  1486.762
 234  1079.813
 235  890.1364
 236  1270.361
 237  1428.744
 238  1149.319
 239  1257.669
 240  1470.139
 241  1499.759
 242  1264.216
 243  1323.104
 244  1256.246
 245  1280.264
 246  1271.403
 247  1205.4
 248  1568.658
 249  1669.839
 250  1527.784
 251  1173.289
 252  1068.678
 253  1430.461
 254  1264.965
 255  961.2032
 256  1417.841
 257  1299.134
 258  1333.099
 259  1012.644
 260  1081.712
 261  1308.125
 262  1338.8
 263  1302.15
 264  1253.267
 265  1081.861
 266  1115.912
 267  1029.759
 268  933.0386
 269  1215.948
 270  1107.382
 271  885.0265
 272  1044.324
 273  1360.934
 274  1277.928
 275  1581.179
 276  1418.909
 277  1349.022
 278  1310.689
 279  1133.331
 280  1033.483
 281  1132.273
 282  1363.346
 283  1063.687
 284  553.0253
 285  810.188
 286  808.0145
 287  820.2502
 288  993.8979
 289  766.1173
 290  828.817
 291  711.6956
 292  993.8805
 293  917.3787
 294  528.6376
 295  931.3472
 296  1157.133
 297  961.6653
 298  1063.09
 299  1181.098
 300  1579.842
 301  1279.149
 302  1192.592
 303  839.2159
 304  875.9186
 305  880.1751
 306  984.9551
 307  951.4163
 308  1178.916
 309  1067.336
 310  802.406
 311  1001.984
 312  1430.416
 313  1258.339
 314  1262.156
 315  1346.315
 316  1336.486
 317  1332.488
 318  1196.075
 319  1557.716
 320  1392.844
 321  1379.062
 322  1163.3
 323  1361.593
 324  1529.745
 325  1569.023
 326  1859.436
 327  1937.537
 328  2310.624
 329  2434.455
 330  2549.04
 331  2123.548
 332  1692.355
 333  1197.5
 334  938.2945
 335  1086.164
 336  1370.378
 337  1289.743
 338  1465.778
 339  1063.078
 340  1159.2
 341  1248.571
 342  1304.377
 343  1214.243
 344  920.5217
 345  1014.357
 346  1043.156
 347  1321.017
 348  1222.198
 349  1029.25
 350  875.8506
 351  947.3535
 352  918.9833
 353  879.2382
 354  993.0325
 355  1071.638
 356  1199.071
 357  1157.5
 358  1200.411
 359  1048.357
 360  985.589
 361  760.6321
 362  700.1287
 363  834.5186
 364  659.7416
 365  690.3676
 366  944.9813
 367  658.046
 368  833.934
 369  1251.445
 370  1174.349
 371  596.6216
 372  447.251
 373  867.6272
 374  872.2828
 375  1037.393
 376  1350.253
 377  1275.292
 378  1178.178
 379  884.3944
 380  804.777
 381  857.1663
 382  706.2275
 383  611.3207
 384  974.0106
 385  910.7497
 386  736.2964
 387  972.7618
 388  1357.409
 389  1257.125
 390  1028.161
 391  977.2825
 392  938.8629
 393  1195.449
 394  1236.28
 395  1282.718
 396  1367.167
 397  1215.454
 398  1149.047
 399  1423.135
 400  1142.779
 401  1108.337
 402  932.0106
 403  1055.037
 404  984.8092
 405  1252.773
 406  1105.289
 407  1108.025
 408  1093.612
 409  1181.083
 410  1429.443
 411  1552.98
 412  1291.019
 413  1424.273
 414  1522.209
 415  1653.529
 416  1311.617
 417  1310.037
 418  1222.914
 419  657.5212
 420  892.4384
 421  1160.128
 422  943.7072
 423  763.3807
 424  1072.613
 425  1372.769
 426  1165.935
 427  1297.949
 428  1219.915
 429  1379.2
 430  1517.661
 431  1509.431
 432  1341.96
 433  1093.234
 434  1176.651
 435  895.9077
 436  956.6091
 437  1262.654
 438  1277.616
 439  1720.237
 440  1473.346
 441  1221.919
 442  1233.324
 443  1259.35
 444  1332.124
 445  1319.318
 446  1159.765
 447  1076.352
 448  1065.487
 449  1162.266
 450  1001.865
 451  1288.792
 452  1298.721
 453  1003.956
 454  802.2631
 455  751.759
 456  687.2744
 457  936.4255
 458  719.9324
 459  1011.823
 460  1278.444
 461  867.1635
 462  696.4763
 463  1090.189
 464  894.974
 465  622.044
 466  528.6425
 467  756.0637
 468  946.2847
 469  1067.452
 470  704.4376
 471  914.5921
 472  894.9615
 473  878.2734
 474  729.7475
 475  819.7961
 476  924.8736
 477  845.3054
 478  971.6594
 479  1207.868
 480  933.0428
 481  1019.084
 482  767.9263
 483  692.8286
 484  1081.344
 485  1257.347
 486  1249.989
 487  1107.784
 488  867.3114
 489  981.0619
 490  1125.718
 491  1086.995
 492  1196.428
 493  1144.835
 494  1383.97
 495  1397.219
 496  1064.068
 497  944.6085
 498  1191.261
 499  1375.22
 500  1705.518
 501  1426.143
 502  1302.673
 503  1348.849
 504  1280.133
 505  1217.914
 506  1449.074
 507  1455.472
 508  1507.099
 509  1288.585
 510  1276.311
 511  1391.45
