# Input file       =  1179891925.097309_cleaned.dat
# Candidate        =  PSR_0332+5434
# Telescope        =  AR
# Epoch_topo       =  57900.156760385522
# Epoch_bary       =  N/A
# T_sample         =  0.002
# Data Folded      =  7208960
# Data Avg         =  0.17302980770103 
# Data StdDev      =  6.10978983392513 
# Profile Bins     =  1024
# Profile Avg      =  1217.8370058859  
# Profile StdDev   =  512.640131062457 
# Reduced chi-sqr  =  0.450
# Prob(Noise)      <  1   (~0.0 sigma)
# P_topo (ms)      =  714.521329236796  +/- 7.91e-05
# P'_topo (s/s)    =  -0                +/- 4.25e-11
# P''_topo (s/s^2) =  0                 +/- 1.91e-14
# P_bary (ms)      =  N/A
# P'_bary (s/s)    =  N/A
# P''_bary (s/s^2) =  N/A
# P_orb (s)        =  N/A
# asin(i)/c (s)    =  N/A
# eccentricity     =  N/A
# w (rad)          =  N/A
# T_peri           =  N/A
######################################################
   0  1139.267
   1  1223.291
   2  1413.753
   3  1436.243
   4  1404.56
   5  1448.361
   6  1404.408
   7  1024.006
   8  1241.694
   9  1109.984
  10  956.5847
  11  898.7934
  12  889.9022
  13  967.8842
  14  856.9456
  15  765.715
  16  1015.355
  17  929.9234
  18  973.9039
  19  1292.991
  20  1250.948
  21  1268.694
  22  959.2325
  23  812.8843
  24  791.8597
  25  672.4313
  26  781.8243
  27  1055.571
  28  948.1397
  29  1014.3
  30  879.0938
  31  841.4623
  32  933.9677
  33  1150.611
  34  1452.484
  35  1558.63
  36  1327.656
  37  1462.198
  38  1389.628
  39  1321.31
  40  1249.819
  41  1291.72
  42  1327.605
  43  1231.475
  44  1054.81
  45  1308.785
  46  1214.419
  47  1243.429
  48  1264.215
  49  1221.839
  50  1143.247
  51  1166.854
  52  1347.29
  53  1577.095
  54  1428.133
  55  1532.859
  56  1599.521
  57  1493.511
  58  1274.525
  59  1158.551
  60  1168.023
  61  1263.074
  62  1266.34
  63  1372.791
  64  1345.249
  65  1264.087
  66  1340.36
  67  1192.534
  68  1287.426
  69  1426.645
  70  1611.4
  71  1404.758
  72  1333.49
  73  1263.807
  74  1248.848
  75  1018.99
  76  1164.553
  77  1253.25
  78  1250.136
  79  1139.667
  80  1114.484
  81  1332.466
  82  1137.838
  83  1085.373
  84  1131.547
  85  1349.463
  86  1503.641
  87  1501.151
  88  1437.788
  89  1415.912
  90  1242.212
  91  1253.53
  92  1404.198
  93  1349.155
  94  1482.524
  95  1329.967
  96  1224.452
  97  1213.844
  98  1028.527
  99  1092.224
 100  926.2996
 101  950.448
 102  1180.113
 103  1118.036
 104  1151.16
 105  1340.896
 106  1390.642
 107  1325.794
 108  1015.666
 109  916.041
 110  1093.473
 111  936.8412
 112  881.7784
 113  1041.871
 114  1033.641
 115  986.2888
 116  981.5114
 117  1161.964
 118  1273.033
 119  1001.411
 120  1028.657
 121  1180.787
 122  1122.51
 123  1178.32
 124  938.842
 125  932.9592
 126  1117.706
 127  1306.202
 128  1380.451
 129  1356.912
 130  1291.943
 131  1310.495
 132  1190.707
 133  1061.077
 134  1272.863
 135  1197.247
 136  1173.137
 137  1155.066
 138  1151.52
 139  1117.931
 140  844.4694
 141  993.4136
 142  1136.623
 143  1050.071
 144  1013.453
 145  916.4382
 146  815.9233
 147  660.9511
 148  810.9702
 149  1117.089
 150  1061.526
 151  1019.728
 152  888.7673
 153  929.3367
 154  977.0009
 155  992.0403
 156  1044.932
 157  966.9742
 158  1009.418
 159  1005.472
 160  894.4513
 161  760.9908
 162  839.5303
 163  936.4395
 164  1046.26
 165  946.7583
 166  946.3498
 167  1119.229
 168  1159.623
 169  1132.152
 170  1138.768
 171  940.8635
 172  970.1274
 173  801.7398
 174  902.0406
 175  1063.762
 176  1108.758
 177  1300.911
 178  1388.903
 179  1069.309
 180  934.171
 181  772.414
 182  1042.45
 183  1187.253
 184  1209.244
 185  1150.778
 186  1142.524
 187  1004.208
 188  967.1827
 189  736.1109
 190  786.3867
 191  1089.965
 192  1064.477
 193  1088.582
 194  925.735
 195  774.5884
 196  978.6645
 197  869.7427
 198  1030.89
 199  1226.903
 200  1280.532
 201  1322.418
 202  1136.126
 203  1053.325
 204  1076.933
 205  1220.499
 206  1323.042
 207  1342.277
 208  1024.794
 209  1063.146
 210  917.5051
 211  1039.992
 212  1159.124
 213  1121.936
 214  1024.804
 215  1123.384
 216  1205.232
 217  1307.26
 218  1226.518
 219  1408.139
 220  1517.719
 221  1295.904
 222  1017.989
 223  1008.845
 224  1146.93
 225  1075.35
 226  935.7824
 227  988.9461
 228  1083.566
 229  1170.944
 230  1212.614
 231  1219.337
 232  1184.385
 233  1378.076
 234  1489.678
 235  1470.111
 236  1287.581
 237  1144.928
 238  1057.938
 239  908.6925
 240  1031.968
 241  1021.12
 242  1153.361
 243  1228.837
 244  1280.43
 245  1246.781
 246  1065.702
 247  943.3302
 248  1181.513
 249  1219.487
 250  1252.256
 251  927.2831
 252  963.9749
 253  1027.432
 254  943.9683
 255  1054.945
 256  1220.112
 257  1258.986
 258  1317.695
 259  1157.362
 260  1009.843
 261  948.0911
 262  907.7598
 263  958.144
 264  1126.655
 265  1054.065
 266  1137.466
 267  974.8697
 268  1069.255
 269  1311.148
 270  1332.557
 271  1483.491
 272  1397.869
 273  1401.298
 274  1439.596
 275  1151.754
 276  1119.155
 277  1270.51
 278  1174.691
 279  1155.895
 280  1017.634
 281  1078.045
 282  1051.789
 283  921.55
 284  983.654
 285  1095.639
 286  973.6234
 287  901.7922
 288  977.6365
 289  1021.386
 290  1296.002
 291  1112.422
 292  1262.991
 293  1419.407
 294  1246.608
 295  1183.296
 296  853.5055
 297  921.7711
 298  1058.24
 299  1124.224
 300  1304.661
 301  1289.047
 302  1320.175
 303  1276.785
 304  1270.557
 305  1221.32
 306  1303.824
 307  1099.265
 308  1100.454
 309  1025.129
 310  991.6803
 311  1094.414
 312  1143.31
 313  1327.132
 314  1353.291
 315  1297.173
 316  1239.32
 317  1197.119
 318  1223.415
 319  1215.127
 320  1161.521
 321  1105.828
 322  1053.906
 323  1050.536
 324  1078.987
 325  965.1994
 326  1123.208
 327  1186.6
 328  1318.303
 329  1334.73
 330  1391.456
 331  1412.293
 332  1325.672
 333  1198.795
 334  1406.117
 335  1338.671
 336  1270.849
 337  1048.271
 338  1139.51
 339  1258.167
 340  1139.469
 341  1074.307
 342  1304.044
 343  1281.889
 344  1305.579
 345  1222.557
 346  1352.558
 347  1397.562
 348  1299.661
 349  1264.042
 350  1336.633
 351  1087.459
 352  1085.172
 353  1013.65
 354  1048.185
 355  1152.879
 356  1059.877
 357  1075.82
 358  927.2477
 359  806.0977
 360  952.4486
 361  747.3743
 362  721.5107
 363  876.8458
 364  1001.618
 365  1275.149
 366  1366.164
 367  1397.134
 368  1435.757
 369  1276.409
 370  1308.617
 371  1430.658
 372  1215.801
 373  1253.835
 374  1298.825
 375  1256.918
 376  1312.683
 377  1171.111
 378  1238.646
 379  1157.491
 380  939.8937
 381  1090.78
 382  1164.574
 383  1354.796
 384  1330.746
 385  1207.784
 386  1280.959
 387  1234.939
 388  1108.141
 389  1185.276
 390  1278.964
 391  1374.828
 392  1297.781
 393  1077.514
 394  980.358
 395  1045.999
 396  1120.898
 397  1237.161
 398  1288.209
 399  1581.064
 400  1651.309
 401  1562.876
 402  1359.077
 403  1317.232
 404  1318.573
 405  1270.798
 406  1277.139
 407  1304.781
 408  1332.393
 409  1360.937
 410  1326.367
 411  1144.692
 412  1090.52
 413  1155.818
 414  1278.788
 415  1278.171
 416  1197.313
 417  1296.63
 418  1365.362
 419  1340.707
 420  1353.524
 421  1348.206
 422  1397.995
 423  1246.641
 424  1177.984
 425  1268.243
 426  1226.992
 427  1243.927
 428  1317.093
 429  1285.932
 430  1312.448
 431  1148.341
 432  1139.764
 433  1283.726
 434  1230.393
 435  1251.481
 436  1287.28
 437  1154.166
 438  1265.471
 439  1091.184
 440  1080.818
 441  1197.446
 442  1207.401
 443  1386.936
 444  1203.284
 445  1141.777
 446  1283.658
 447  1312.87
 448  1382.442
 449  1438.626
 450  1324.074
 451  1315.33
 452  1158.86
 453  1073.324
 454  1254.386
 455  1176.146
 456  1251.066
 457  1418.28
 458  1408.928
 459  1453.667
 460  1268.531
 461  1138.688
 462  1359.347
 463  1412.216
 464  1567.966
 465  1510.761
 466  1274.783
 467  1332.369
 468  1375.51
 469  1467.302
 470  1515.463
 471  1240.727
 472  1216.615
 473  1057.775
 474  990.9457
 475  947.8947
 476  992.1281
 477  1097.988
 478  1269.109
 479  1228.743
 480  1090.186
 481  1161.277
 482  1148.833
 483  1378.978
 484  1423.709
 485  1569.26
 486  1554.826
 487  1397.839
 488  1183.602
 489  1122.492
 490  1158.685
 491  1229.334
 492  1228.177
 493  1225.86
 494  1218.344
 495  1190.037
 496  1300.232
 497  1400.617
 498  1581.268
 499  1603.112
 500  1449.674
 501  1197.314
 502  1090.687
 503  1242.807
 504  1191.961
 505  1168.858
 506  1208.682
 507  991.3903
 508  925.6954
 509  964.737
 510  1172.679
 511  1322.131
 512  1301.578
 513  1427.764
 514  1450.557
 515  1381.677
 516  1453.792
 517  1277.982
 518  1047.952
 519  972.5887
 520  935.1807
 521  1008.226
 522  1069.682
 523  1082.023
 524  1232.062
 525  973.1412
 526  915.7244
 527  1399.786
 528  1680.664
 529  1796.195
 530  1606.313
 531  1369.075
 532  1334.644
 533  1045.967
 534  1224.239
 535  1360.529
 536  1146.647
 537  956.2205
 538  916.4109
 539  1011.604
 540  1151.436
 541  1177.536
 542  1409.975
 543  1600.58
 544  1446.133
 545  1498.932
 546  1359.765
 547  1252.101
 548  1343.941
 549  1404.136
 550  1514.601
 551  1474.706
 552  1223.808
 553  1116.226
 554  1075.373
 555  1238.831
 556  1486.503
 557  1320.4
 558  1329.75
 559  1379.615
 560  1528.809
 561  1584.335
 562  1560.378
 563  1596.936
 564  1677.693
 565  1593.528
 566  1517.396
 567  1452.588
 568  1276.632
 569  1307.282
 570  1174.002
 571  1345.336
 572  1345.254
 573  1355.47
 574  1332.949
 575  1348.444
 576  1384.426
 577  1516.91
 578  1610.743
 579  1451.032
 580  1536.209
 581  1541.42
 582  1536.883
 583  1373.941
 584  1375.631
 585  1334.792
 586  1365.369
 587  1396.57
 588  1325.448
 589  1268.445
 590  1248.655
 591  1264.102
 592  1358.942
 593  1290.896
 594  1422.531
 595  1183.67
 596  1248.974
 597  1232.498
 598  1309.553
 599  1463.653
 600  1428.852
 601  1202.949
 602  1158.147
 603  1047.233
 604  1030.388
 605  1038.03
 606  1012.942
 607  1021.583
 608  1073.761
 609  1010.345
 610  1296.117
 611  1282.212
 612  1266.049
 613  1204.803
 614  1126.762
 615  1076.863
 616  1036.722
 617  965.4559
 618  1025.589
 619  751.4223
 620  713.6107
 621  978.5483
 622  922.5608
 623  931.6624
 624  973.3836
 625  1054.406
 626  1291.751
 627  1234.441
 628  1144.323
 629  1219.313
 630  1056.188
 631  1304.754
 632  1377.711
 633  1435.3
 634  1578.734
 635  1412.522
 636  1460.804
 637  1433.922
 638  1269.742
 639  1406.568
 640  1329.139
 641  1359.879
 642  1464.182
 643  1293.324
 644  1341.87
 645  1304.575
 646  1372.853
 647  1400.815
 648  1268.618
 649  1375.129
 650  1361.516
 651  1131.448
 652  1180.524
 653  1354.35
 654  1399.156
 655  1233.561
 656  1254.039
 657  1466.516
 658  1624.826
 659  1430.304
 660  1392.85
 661  1403.636
 662  1476.141
 663  1640.352
 664  1679.361
 665  1572.389
 666  1360.92
 667  1358.027
 668  1216.219
 669  1031.435
 670  1135.104
 671  1214.831
 672  1101.993
 673  880.538
 674  816.4882
 675  1108.964
 676  1134.359
 677  1264.775
 678  1504.23
 679  1479.408
 680  1502.904
 681  1316.459
 682  1197.319
 683  1178.274
 684  941.3939
 685  1075.205
 686  1060.895
 687  1002.624
 688  1104.345
 689  1100.977
 690  1092.064
 691  1138.303
 692  1188.821
 693  1389.226
 694  1571.476
 695  1476.61
 696  1570.104
 697  1329.348
 698  1212.182
 699  1319.254
 700  1275.804
 701  1419.046
 702  1080.894
 703  878.5338
 704  1084.631
 705  1161.976
 706  1362.743
 707  1426.341
 708  1502.17
 709  1452.648
 710  1412.844
 711  1253.117
 712  1415.775
 713  1319.934
 714  1440.968
 715  1346.081
 716  1079.837
 717  1108.188
 718  922.8427
 719  887.6264
 720  1088.752
 721  1254.813
 722  1284.21
 723  1205.386
 724  1094.227
 725  1299.28
 726  1209.754
 727  1327.523
 728  1485.098
 729  1259.143
 730  1065.792
 731  1155.969
 732  1325.184
 733  1390.019
 734  1199.657
 735  1375.178
 736  1485.509
 737  1329.499
 738  1235.917
 739  1291.796
 740  1289.369
 741  1255.933
 742  1259.758
 743  1457.52
 744  1475.929
 745  1359.519
 746  1392.464
 747  1409.537
 748  1411.6
 749  1515.247
 750  1587.739
 751  1669.241
 752  1640.438
 753  1761.253
 754  1692.625
 755  1473.101
 756  1561.509
 757  1692.748
 758  1787.684
 759  1715.405
 760  1694.215
 761  1785.698
 762  1738.989
 763  1745.579
 764  1694.629
 765  1560.835
 766  1491.649
 767  1336.994
 768  1209.447
 769  1278.642
 770  1275.013
 771  1403.156
 772  1339.053
 773  1041.295
 774  1096.128
 775  1048.705
 776  1141.67
 777  1072.504
 778  1116.435
 779  1215.371
 780  1175.726
 781  1041.958
 782  1229.013
 783  1056.343
 784  1019.265
 785  1232.633
 786  1290.477
 787  1427.613
 788  1108.339
 789  1071.423
 790  1314.345
 791  1236.486
 792  1285.716
 793  1286.678
 794  1261.998
 795  1340.729
 796  1420.695
 797  1386.535
 798  1390.749
 799  1212.675
 800  1314.14
 801  1302.95
 802  1126.665
 803  1308.821
 804  1261.33
 805  1232.799
 806  1397.495
 807  1548.69
 808  1697.028
 809  1672.42
 810  1466.934
 811  1430.047
 812  1134.629
 813  1057.597
 814  1138.696
 815  1114.373
 816  1155.363
 817  1121.041
 818  1148.754
 819  1276.764
 820  1119.932
 821  1272.352
 822  1278.88
 823  1349.586
 824  1218.48
 825  1180.877
 826  1254.446
 827  1467.268
 828  1520.726
 829  1519.307
 830  1533.135
 831  1476.703
 832  1377.576
 833  1304.719
 834  1201.092
 835  1113.189
 836  1172.188
 837  1164.846
 838  1062.79
 839  948.7068
 840  971.272
 841  924.3916
 842  1107.749
 843  1311.516
 844  1377.35
 845  1148.467
 846  1135.927
 847  1220.219
 848  1121.766
 849  897.1411
 850  1024.784
 851  1015.094
 852  1053.718
 853  861.6682
 854  990.2603
 855  1018.098
 856  961.9359
 857  937.2252
 858  1024.35
 859  956.8811
 860  1083.04
 861  1192.792
 862  1269.261
 863  1328.104
 864  1293.02
 865  1320.637
 866  1256.164
 867  1228.279
 868  1429.593
 869  1266.035
 870  961.8779
 871  905.2824
 872  1073.745
 873  1321.451
 874  1316.638
 875  1094.754
 876  1212.289
 877  956.9316
 878  940.8295
 879  1003.193
 880  1122.246
 881  1215.532
 882  1272.981
 883  1271.764
 884  1261.943
 885  1008.116
 886  1008.239
 887  1083.641
 888  1014.594
 889  992.9688
 890  925.7417
 891  1094.342
 892  1427.155
 893  1396.401
 894  1389.631
 895  1369.062
 896  1240.04
 897  1277.489
 898  1139.334
 899  1161.128
 900  1174.401
 901  1225.857
 902  1226.736
 903  1222.149
 904  1346.747
 905  1448.401
 906  1263.821
 907  1276.978
 908  1348.98
 909  1319.436
 910  1252.071
 911  1277.347
 912  1320.001
 913  1311.799
 914  1161.582
 915  1070.725
 916  1111.586
 917  1267.379
 918  1337.096
 919  1294.453
 920  1156.805
 921  1132.772
 922  1053.436
 923  1037.448
 924  1110.882
 925  1169.318
 926  1138.02
 927  1101.885
 928  1331.69
 929  1369.033
 930  1216.635
 931  988.9073
 932  1003.498
 933  1158.596
 934  1187.418
 935  1310.452
 936  1509.78
 937  1535.815
 938  1518.731
 939  1474.396
 940  1472.263
 941  1572.142
 942  1367.143
 943  1315.597
 944  1303.365
 945  1147.357
 946  1151.73
 947  1138.996
 948  1149.926
 949  1222.893
 950  1202.798
 951  1304.457
 952  1240.187
 953  1133.786
 954  1347.133
 955  1283.29
 956  1361.593
 957  1424.755
 958  1232.263
 959  1217.37
 960  1315.768
 961  1267.875
 962  1322.745
 963  1066.913
 964  1275.303
 965  1473.442
 966  1267.616
 967  1151.323
 968  1040.819
 969  1055.137
 970  1160.063
 971  1162.2
 972  1342.542
 973  1469.572
 974  1341.099
 975  1402.91
 976  1252.416
 977  1336.212
 978  1584.398
 979  1561.37
 980  1326.838
 981  1146.207
 982  989.3386
 983  954.6626
 984  940.6732
 985  1090.104
 986  1280.114
 987  1310.987
 988  1278.138
 989  1355.403
 990  1344.921
 991  1216.123
 992  1067.964
 993  1013.331
 994  1174.187
 995  1029.261
 996  1002.414
 997  1082.392
 998  1184.962
 999  1241.81
1000  1276.854
1001  1324.129
1002  1245.655
1003  1186.409
1004  1190.924
1005  991.7383
1006  917.9402
1007  885.2936
1008  1012.062
1009  1080.374
1010  1236.869
1011  1310.803
1012  1071
1013  914.399
1014  1167.479
1015  1171.895
1016  1257.732
1017  1229.464
1018  1161.378
1019  1049.939
1020  876.4483
1021  1079.739
1022  1249.679
1023  1101.217
