# Input file       =  1179820436.100343_cleaned.dat
# Candidate        =  PSR_0332+5434
# Telescope        =  AR
# Epoch_topo       =  57899.329341439152
# Epoch_bary       =  N/A
# T_sample         =  0.002
# Data Folded      =  7340032
# Data Avg         =  0.0866743985898213
# Data StdDev      =  2.70619467116101 
# Profile Bins     =  512
# Profile Avg      =  1242.59301754239 
# Profile StdDev   =  324.020905004732 
# Reduced chi-sqr  =  0.950
# Prob(Noise)      <  0.784   (~0.0 sigma)
# P_topo (ms)      =  714.522173890821  +/- 0.000756
# P'_topo (s/s)    =  -0                +/- 3.99e-10
# P''_topo (s/s^2) =  0                 +/- 1.76e-13
# P_bary (ms)      =  N/A
# P'_bary (s/s)    =  N/A
# P''_bary (s/s^2) =  N/A
# P_orb (s)        =  N/A
# asin(i)/c (s)    =  N/A
# eccentricity     =  N/A
# w (rad)          =  N/A
# T_peri           =  N/A
######################################################
   0  1295.768
   1  1736.263
   2  1593.137
   3  1416.619
   4  994.2489
   5  1153.131
   6  1303.481
   7  1227.635
   8  1292.594
   9  1328.206
  10  1396.7
  11  1197.585
  12  1143.659
  13  1079.527
  14  1113.25
  15  1097.925
  16  1367.413
  17  1421.102
  18  1151.617
  19  1283.731
  20  1299.911
  21  1399.706
  22  1477.812
  23  1300.399
  24  1348.951
  25  1459.071
  26  1110.958
  27  1016.125
  28  1190.288
  29  1327.015
  30  1092.194
  31  1189.923
  32  1381.807
  33  1257.259
  34  1353.765
  35  1158.156
  36  897.424
  37  924.3857
  38  1209.548
  39  1228.068
  40  1023.068
  41  686.5992
  42  988.2769
  43  1152.652
  44  873.5563
  45  821.2199
  46  1124.485
  47  1177.02
  48  1376.61
  49  1231.605
  50  1058.025
  51  1175.637
  52  875.0035
  53  972.7765
  54  1267.354
  55  1307.398
  56  1250.078
  57  1390.763
  58  1308.318
  59  1473.68
  60  991.5397
  61  1171.14
  62  889.158
  63  1017.698
  64  938.575
  65  961.0663
  66  1214.429
  67  1316.972
  68  1387.511
  69  1339.238
  70  1238.227
  71  1548.751
  72  1284.958
  73  1506.179
  74  1113.887
  75  1294.635
  76  1583.368
  77  1267.97
  78  1218.266
  79  1286.422
  80  1317.287
  81  1058.313
  82  1065.957
  83  1165.6
  84  1163.235
  85  973.5665
  86  992.8431
  87  1248.146
  88  1410.481
  89  1058.247
  90  1007.565
  91  1018.726
  92  1070.612
  93  749.2908
  94  833.403
  95  804.3284
  96  994.8622
  97  1317.068
  98  1403.126
  99  1330.199
 100  1413.656
 101  1189.703
 102  1021.987
 103  1190.122
 104  1203.008
 105  1058.574
 106  1190.035
 107  1246.678
 108  1183.085
 109  937.7745
 110  1077.394
 111  1357.554
 112  1309.96
 113  1108.363
 114  1414.733
 115  1500.979
 116  1485.598
 117  1580.075
 118  1411.973
 119  1042.996
 120  733.7443
 121  1037.592
 122  1199.232
 123  1335.915
 124  1138.172
 125  1247.088
 126  1271.097
 127  1385.448
 128  1028.718
 129  876.557
 130  1112.697
 131  1133.731
 132  850.0981
 133  986.5247
 134  1112.989
 135  833.8613
 136  732.0482
 137  1050.036
 138  780.5012
 139  853.4647
 140  884.2424
 141  1029.032
 142  1130.294
 143  1039.901
 144  1110.706
 145  1406.744
 146  982.5367
 147  881.2844
 148  818.418
 149  966.8856
 150  1270.777
 151  1374.792
 152  1231.969
 153  1237.627
 154  1245.039
 155  1132.997
 156  842.2714
 157  1241.006
 158  1548.807
 159  1609.32
 160  1117.812
 161  871.0023
 162  803.5748
 163  835.688
 164  977.0156
 165  963.6689
 166  1520.201
 167  1426.962
 168  1409.65
 169  1289.424
 170  1138.416
 171  1219.977
 172  1079.252
 173  1188.271
 174  1171.702
 175  1271.842
 176  1088.767
 177  782.4567
 178  1138.295
 179  1420.784
 180  1535.178
 181  1464.744
 182  1285.247
 183  1490.598
 184  1424.178
 185  1314.113
 186  1256.039
 187  1554.592
 188  1379.759
 189  1097.265
 190  1333.379
 191  1363.764
 192  1003.635
 193  1164.241
 194  1532.458
 195  1237.987
 196  1191.953
 197  1606.261
 198  1759.88
 199  1474.256
 200  1377.258
 201  1548.523
 202  1578.596
 203  1270.326
 204  1319.184
 205  1260.167
 206  1306.545
 207  1334.888
 208  1338.562
 209  1033.937
 210  920.7963
 211  996.2049
 212  954.5947
 213  1273.092
 214  1325.885
 215  925.8422
 216  1018.54
 217  934.8064
 218  1220.153
 219  1071.903
 220  1019.774
 221  1149.659
 222  1179.929
 223  1158.247
 224  1101.958
 225  1144.484
 226  985.365
 227  1131.459
 228  969.3104
 229  868.4732
 230  890.78
 231  762.5721
 232  893.827
 233  839.7897
 234  1074.692
 235  1472.271
 236  1198.911
 237  1052.11
 238  763.7457
 239  775.3029
 240  858.4309
 241  1064.231
 242  1034.606
 243  926.4399
 244  1069.871
 245  1055.062
 246  1187.183
 247  1309.393
 248  1362.181
 249  1207.839
 250  1177.163
 251  1429.942
 252  1549.739
 253  1431.949
 254  1214.34
 255  1254.368
 256  1245.866
 257  1373.981
 258  1229.62
 259  977.8006
 260  1099.505
 261  1013.799
 262  1290.575
 263  1072.747
 264  1216.091
 265  1375.658
 266  1106.097
 267  916.2433
 268  1111.853
 269  1053.977
 270  1389.688
 271  1207.943
 272  1117.285
 273  1196.331
 274  1315.165
 275  1451.02
 276  1089.094
 277  955.5766
 278  1262.071
 279  1283.903
 280  1255.981
 281  1004.076
 282  947.3671
 283  1121.622
 284  1268.882
 285  1090.629
 286  1057.817
 287  888.6831
 288  1012.35
 289  1207.583
 290  1375.197
 291  1229.445
 292  993.2406
 293  971.4858
 294  1095.417
 295  1127.779
 296  1351.778
 297  1315.276
 298  1439.828
 299  1337.75
 300  1363.42
 301  1310.173
 302  1306.146
 303  1315.704
 304  1032.598
 305  1103.875
 306  1283.619
 307  1399.557
 308  1729.714
 309  1496.808
 310  1573.058
 311  1472.829
 312  1326.572
 313  1241.95
 314  1300.239
 315  1330.748
 316  1214.585
 317  1171.055
 318  1074.974
 319  1086.851
 320  1173.652
 321  1389.002
 322  1506.132
 323  1415.271
 324  1274.295
 325  1463.755
 326  1523.874
 327  2015.75
 328  2171.674
 329  2057.672
 330  2131.583
 331  1956.467
 332  1456.896
 333  1269.099
 334  1476.902
 335  1266.846
 336  1471.565
 337  1352.497
 338  1395.976
 339  980.1611
 340  1052.614
 341  1111.291
 342  1377.862
 343  1668.935
 344  1498.77
 345  1652.551
 346  1878.87
 347  1505.185
 348  1373.568
 349  1461.827
 350  1502.323
 351  1365.443
 352  1264.268
 353  1572.652
 354  1634.389
 355  1735.172
 356  1525.326
 357  1325.563
 358  1442.658
 359  1627.581
 360  1439.623
 361  1495.358
 362  1527.185
 363  1477.465
 364  1603.129
 365  1607.084
 366  1446.548
 367  1208.496
 368  1503.763
 369  1854.617
 370  1742.49
 371  1552.256
 372  1565.769
 373  1675.699
 374  1421.213
 375  1423.664
 376  1542.709
 377  1689.828
 378  1574.245
 379  1630.007
 380  1385.399
 381  1270.493
 382  1109.485
 383  1032.75
 384  1404.088
 385  1527.656
 386  1213.58
 387  1053.671
 388  1276.067
 389  1337.386
 390  1537.625
 391  1416.031
 392  1649.694
 393  1627.61
 394  1385.151
 395  1438.056
 396  1633.573
 397  1480.755
 398  1446.851
 399  1349.346
 400  1315.508
 401  1218.935
 402  1431.075
 403  1416.002
 404  1478.88
 405  1459.071
 406  1094.913
 407  1205.392
 408  1359.143
 409  1292.871
 410  1259.895
 411  1307.262
 412  1164.555
 413  871.0023
 414  1133.119
 415  1116.689
 416  1283.656
 417  1451.461
 418  1333.295
 419  1052.64
 420  1078.155
 421  1103.893
 422  1298.392
 423  1149.003
 424  812.8215
 425  982.6244
 426  975.8328
 427  1116.562
 428  1112.333
 429  1485.02
 430  1239.635
 431  1071.495
 432  986.043
 433  1056.804
 434  1229.898
 435  1281.72
 436  1148.18
 437  1033.16
 438  1014.825
 439  811.9169
 440  880.4916
 441  1086.284
 442  1112.279
 443  1055.791
 444  987.2981
 445  1391.981
 446  1510.538
 447  1206.338
 448  1164.601
 449  1145.322
 450  1176.363
 451  1619.835
 452  1424.048
 453  1055.242
 454  1323.182
 455  1399.796
 456  1258.984
 457  1308.061
 458  1346.096
 459  1473.696
 460  1245.874
 461  1073.97
 462  1319.345
 463  1280.221
 464  1473.856
 465  1150.016
 466  1248.232
 467  1097.308
 468  1249.968
 469  1537.072
 470  1515.78
 471  1111.972
 472  1246.397
 473  1286.718
 474  1234.904
 475  1028.925
 476  1035.16
 477  987.2659
 478  1292.228
 479  1070.968
 480  1154.417
 481  1230.357
 482  1356.768
 483  1395.101
 484  1405.584
 485  1611.947
 486  1402.002
 487  1453.509
 488  1417.554
 489  1286.553
 490  1317.133
 491  1076.495
 492  1149.539
 493  1421.889
 494  1121.519
 495  1219.931
 496  1625.552
 497  1392.382
 498  1408.901
 499  1118.78
 500  1276.047
 501  1354.391
 502  1193.353
 503  948.6691
 504  1115.761
 505  1123.485
 506  1570.156
 507  1362.027
 508  1246.588
 509  1357.113
 510  1253.891
 511  1062.032
