# Input file       =  1179145456.098846_cleaned.dat
# Candidate        =  PSR_0332+5434
# Telescope        =  AR
# Epoch_topo       =  57891.517072903313
# Epoch_bary       =  N/A
# T_sample         =  0.002
# Data Folded      =  7340032
# Data Avg         =  0.0788188908887344
# Data StdDev      =  2.96304563623486 
# Profile Bins     =  512
# Profile Avg      =  1129.9975833834  
# Profile StdDev   =  354.774450949327 
# Reduced chi-sqr  =  1.156
# Prob(Noise)      <  0.0084   (~2.4 sigma)
# P_topo (ms)      =  714.530192660753  +/- 0.000142
# P'_topo (s/s)    =  -0                +/- 7.5e-11
# P''_topo (s/s^2) =  0                 +/- 3.31e-14
# P_bary (ms)      =  N/A
# P'_bary (s/s)    =  N/A
# P''_bary (s/s^2) =  N/A
# P_orb (s)        =  N/A
# asin(i)/c (s)    =  N/A
# eccentricity     =  N/A
# w (rad)          =  N/A
# T_peri           =  N/A
######################################################
   0  1085.365
   1  1184.636
   2  1351.208
   3  998.0057
   4  577.1479
   5  426.414
   6  848.144
   7  1067.277
   8  501.441
   9  743.0923
  10  776.6278
  11  869.1334
  12  968.0839
  13  781.9325
  14  698.68
  15  449.01
  16  422.9048
  17  881.185
  18  968.4582
  19  994.5515
  20  782.3387
  21  748.0128
  22  1086.757
  23  1007.152
  24  882.1341
  25  743.9693
  26  653.5403
  27  831.6038
  28  806.1982
  29  556.6283
  30  718.9658
  31  740.1827
  32  685.6921
  33  956.2087
  34  816.5214
  35  780.203
  36  1008.226
  37  955.3481
  38  1022.848
  39  1123.424
  40  1119.23
  41  1229.98
  42  1213.877
  43  1157.036
  44  1024.033
  45  1393.966
  46  1380.846
  47  1027.6
  48  1262.871
  49  1165.934
  50  1036.766
  51  1296.911
  52  1228.353
  53  776.5114
  54  851.5934
  55  745.5002
  56  729.663
  57  768.5812
  58  685.0713
  59  931.7949
  60  1004.276
  61  894.6653
  62  748.2725
  63  557.3834
  64  987.3084
  65  744.4398
  66  1134.075
  67  1038.567
  68  1038.948
  69  1132.105
  70  1269.354
  71  958.6057
  72  1144.312
  73  1170.803
  74  725.5893
  75  779.8157
  76  1191.914
  77  1235.316
  78  793.0328
  79  918.6566
  80  1698.228
  81  1358.614
  82  1057.994
  83  1257.533
  84  781.3799
  85  777.4022
  86  759.9204
  87  887.4172
  88  1120.31
  89  888.4478
  90  908.2718
  91  1191.036
  92  1452.856
  93  1410.556
  94  1367.076
  95  1388.933
  96  1493.441
  97  1171.874
  98  1102.654
  99  785.1742
 100  985.4647
 101  1135.928
 102  974.1431
 103  1015.686
 104  1414.205
 105  1359.892
 106  1165.861
 107  857.6231
 108  1091.728
 109  1355.667
 110  1285.626
 111  984.2577
 112  1088.588
 113  1067.053
 114  1021.033
 115  1058.38
 116  1137.867
 117  1092.149
 118  939.118
 119  1112.738
 120  1138.017
 121  1016.302
 122  1419.328
 123  1346.815
 124  1116.309
 125  1008.779
 126  1203.852
 127  1337.572
 128  1216.115
 129  809.9336
 130  1157.593
 131  1307.231
 132  1054.45
 133  1236.29
 134  1251.595
 135  1342.778
 136  1377.884
 137  1389.78
 138  1145.114
 139  1137.694
 140  1111.739
 141  999.107
 142  1332.324
 143  1259.879
 144  1208.924
 145  704.9319
 146  793.231
 147  1311.034
 148  1055.569
 149  833.4143
 150  1251.113
 151  1186.195
 152  1022.743
 153  853.3215
 154  1058.788
 155  1026.501
 156  1227.048
 157  1248.836
 158  1227.135
 159  1336.129
 160  833.2433
 161  1001.608
 162  1345.446
 163  1164.172
 164  809.1752
 165  1015.079
 166  1296.93
 167  1270.711
 168  1363.889
 169  1190.1
 170  1147.779
 171  1400.363
 172  1449.532
 173  1331.992
 174  1324.216
 175  1400.163
 176  1057.906
 177  849.8117
 178  935.6693
 179  766.326
 180  725.6717
 181  820.5914
 182  1018.214
 183  1139.964
 184  1302.017
 185  1277.649
 186  1453.707
 187  1095.681
 188  674.1512
 189  965.849
 190  1065.103
 191  1108.4
 192  1202.362
 193  1476.976
 194  1330.284
 195  1014.639
 196  1204.404
 197  1378.166
 198  902.6964
 199  1091.242
 200  1493.277
 201  1178.314
 202  891.3291
 203  987.4639
 204  882.5674
 205  797.5038
 206  822.9845
 207  1168.638
 208  1261.87
 209  1475.583
 210  1278.852
 211  1230.008
 212  1006.283
 213  975.4545
 214  1223.739
 215  1165.226
 216  1356.682
 217  1448.774
 218  1074.468
 219  1040.665
 220  1493.131
 221  1485.549
 222  1298.564
 223  956.1486
 224  1295.317
 225  1138.291
 226  950.9953
 227  978.8818
 228  1236.135
 229  1138.913
 230  1223.92
 231  1256.817
 232  1431.082
 233  1623.463
 234  1619.86
 235  1251.358
 236  1045.636
 237  995.2142
 238  1442.448
 239  1681.839
 240  1634.522
 241  1439.238
 242  1146.351
 243  1197.737
 244  1137.276
 245  1165.433
 246  1622.787
 247  1490.114
 248  1057.067
 249  1141.017
 250  1246.165
 251  1093.812
 252  908.1247
 253  882.9204
 254  913.5287
 255  567.5516
 256  540.6093
 257  906.7509
 258  694.166
 259  1216.652
 260  1327.634
 261  1926.566
 262  1981.45
 263  1673.984
 264  1393.302
 265  1763.738
 266  1695.405
 267  1728.521
 268  1550.026
 269  1589.964
 270  1313.965
 271  1272.99
 272  1512.91
 273  1413.958
 274  1067.939
 275  1266.592
 276  1289.318
 277  1036.399
 278  1378.553
 279  1314.862
 280  1236.256
 281  1409.029
 282  1687.486
 283  1477.365
 284  1247.322
 285  923.0351
 286  939.4889
 287  963.0319
 288  1113.816
 289  1201.11
 290  1360.273
 291  1557.462
 292  1351.197
 293  1185.62
 294  1205.938
 295  1143.995
 296  1107.668
 297  1406.045
 298  1622.317
 299  1368.128
 300  1461.096
 301  1288.691
 302  1523.988
 303  1348.825
 304  1609.938
 305  1426.979
 306  1068.635
 307  1104.546
 308  973.0303
 309  958.5271
 310  1297.2
 311  1386.762
 312  1394.036
 313  892.7204
 314  841.6555
 315  1333.5
 316  1102.544
 317  994.6524
 318  1051.191
 319  1087.349
 320  1077.698
 321  1344.561
 322  1249.877
 323  1379.354
 324  1743.113
 325  1708.649
 326  1718.544
 327  2079.063
 328  2326.538
 329  2343.904
 330  2350.948
 331  2049.461
 332  1713.006
 333  1263.396
 334  780.6066
 335  1260.643
 336  1322.213
 337  1265.121
 338  1196.229
 339  1167.617
 340  1078.085
 341  963.7404
 342  1052.224
 343  1213.297
 344  1207.136
 345  1240.474
 346  1167.457
 347  1438.929
 348  1629.361
 349  1672.266
 350  1326.976
 351  851.5776
 352  951.2482
 353  1254.043
 354  1302.785
 355  1271.847
 356  1128.259
 357  1074.837
 358  1487.311
 359  1241.506
 360  943.5512
 361  1029.58
 362  1010.824
 363  995.0292
 364  828.996
 365  960.3838
 366  1144.646
 367  1367.999
 368  1134.516
 369  1057.101
 370  990.232
 371  1129.287
 372  1112.561
 373  1348.861
 374  1151.252
 375  1179.092
 376  1060.297
 377  1279.735
 378  1338.567
 379  1229.891
 380  1236.33
 381  1064.473
 382  1425.326
 383  1528.72
 384  1030.832
 385  732.7993
 386  730.573
 387  957.2664
 388  1078.904
 389  1051.032
 390  1162.929
 391  1109.383
 392  1236.057
 393  1373.008
 394  1277.748
 395  985.2827
 396  824.702
 397  752.705
 398  1115.67
 399  1210.751
 400  904.327
 401  994.9
 402  1010.759
 403  1070.235
 404  1307.164
 405  1295.524
 406  1041.201
 407  1292.726
 408  960.4827
 409  1084.534
 410  1255.68
 411  1683.34
 412  1166.082
 413  602.9241
 414  960.7478
 415  1513.897
 416  1248.323
 417  1391.226
 418  1184.909
 419  1233.637
 420  1247.817
 421  684.2651
 422  997.8728
 423  1034.879
 424  938.8984
 425  1214.32
 426  944.0082
 427  1097.284
 428  1265.968
 429  1027.32
 430  846.4697
 431  1129.77
 432  1469.936
 433  1251.702
 434  1190.754
 435  1172.936
 436  896.1509
 437  1009.613
 438  1074.591
 439  1121.922
 440  1067.809
 441  863.4209
 442  848.4858
 443  879.6658
 444  1100.938
 445  1190.943
 446  1051.713
 447  1246.746
 448  1250.86
 449  1373.741
 450  1001.122
 451  1066.476
 452  865.2321
 453  631.4255
 454  540.7857
 455  373.3608
 456  993.3837
 457  1124.698
 458  1163.367
 459  1121.711
 460  817.8162
 461  823.9776
 462  923.0299
 463  845.3112
 464  935.4283
 465  773.9655
 466  965.0199
 467  1145.892
 468  1436.628
 469  1575.436
 470  1300.884
 471  1171.893
 472  1117.797
 473  1316.684
 474  1332.188
 475  1015.078
 476  1247.657
 477  1313.283
 478  1437.569
 479  1490.586
 480  1119.91
 481  726.152
 482  767.8265
 483  1002.257
 484  1110.819
 485  1162.332
 486  1063.505
 487  806.4127
 488  950.3267
 489  829.8942
 490  657.4524
 491  793.2164
 492  948.65
 493  1082.545
 494  964.5026
 495  1010.623
 496  816.4872
 497  899.9669
 498  1277.227
 499  1184.766
 500  1307.514
 501  1290.082
 502  951.9655
 503  784.3508
 504  646.3368
 505  1126.368
 506  1055.711
 507  834.5569
 508  1052.451
 509  840.9156
 510  974.9272
 511  1173.002
