# Input file       =  1179490092.10149_cleaned.dat
# Candidate        =  PSR_0332+5434
# Telescope        =  AR
# Epoch_topo       =  57895.505915526504
# Epoch_bary       =  N/A
# T_sample         =  0.002
# Data Folded      =  7340032
# Data Avg         =  0.0838600870650096
# Data StdDev      =  3.19079913130689 
# Profile Bins     =  512
# Profile Avg      =  1202.21019391259 
# Profile StdDev   =  382.044068459721 
# Reduced chi-sqr  =  1.227
# Prob(Noise)      <  0.000331   (~3.4 sigma)
# P_topo (ms)      =  714.526277917308  +/- 0.00018
# P'_topo (s/s)    =  -0                +/- 9.52e-11
# P''_topo (s/s^2) =  0                 +/- 4.2e-14
# P_bary (ms)      =  N/A
# P'_bary (s/s)    =  N/A
# P''_bary (s/s^2) =  N/A
# P_orb (s)        =  N/A
# asin(i)/c (s)    =  N/A
# eccentricity     =  N/A
# w (rad)          =  N/A
# T_peri           =  N/A
######################################################
   0  1429.201
   1  1548.44
   2  1646.95
   3  1934.876
   4  1810.532
   5  1855.006
   6  1789.235
   7  1744.8
   8  2265.949
   9  2664.38
  10  3155.082
  11  3008.39
  12  2433.94
  13  1862.004
  14  1467.314
  15  1419.846
  16  1189.801
  17  1181.127
  18  1132.361
  19  1180.214
  20  1222.896
  21  1526.34
  22  1599.172
  23  1459.283
  24  1291.157
  25  1416.401
  26  1379.276
  27  1503.119
  28  1353.178
  29  1345.94
  30  1447.491
  31  1018.859
  32  1067.848
  33  1139.202
  34  1031.836
  35  1215.568
  36  1226.131
  37  1506.323
  38  1685.761
  39  1567.885
  40  1462.144
  41  1454.183
  42  1334.045
  43  1503.176
  44  1288.363
  45  1127.373
  46  1533.832
  47  1602.594
  48  1279.511
  49  1238.952
  50  1342.305
  51  1340.845
  52  1272.009
  53  1296.526
  54  1329.508
  55  1154.562
  56  1362.352
  57  1142.403
  58  1066.691
  59  1270.854
  60  1428.514
  61  1217.88
  62  1271.293
  63  1237.749
  64  1418.908
  65  1420.909
  66  968.7205
  67  999.7917
  68  1331.139
  69  1246.477
  70  1037.664
  71  1184.201
  72  1217.83
  73  1079.308
  74  952.7975
  75  1283.43
  76  1377.887
  77  989.8903
  78  660.6246
  79  747.7234
  80  981.9965
  81  1354.871
  82  1056.134
  83  1085.12
  84  1187.338
  85  1517.613
  86  1153.245
  87  840.6467
  88  823.662
  89  1100.304
  90  1194.673
  91  1307.589
  92  1050.306
  93  973.4658
  94  1006.023
  95  692.6994
  96  909.1238
  97  1023.505
  98  1140.952
  99  856.7097
 100  503.5618
 101  792.1773
 102  1257.555
 103  1347.63
 104  1115.121
 105  1225.774
 106  991.1395
 107  812.5968
 108  1034.371
 109  979.1786
 110  1337.954
 111  1052.478
 112  1050.861
 113  1159.966
 114  852.607
 115  890.967
 116  971.6581
 117  1073.382
 118  1069.896
 119  845.605
 120  1011.058
 121  1240.688
 122  1336.961
 123  966.684
 124  379.4078
 125  747.2252
 126  714.446
 127  634.1057
 128  1007.69
 129  1240.743
 130  1172.77
 131  1016.541
 132  1109.55
 133  746.0591
 134  719.2322
 135  804.0004
 136  988.4252
 137  1212.712
 138  1298.784
 139  1400.949
 140  1148.48
 141  613.4744
 142  1069.851
 143  1372.518
 144  1181.677
 145  1302.164
 146  1264.277
 147  1479.934
 148  1267.25
 149  1023.186
 150  771.1348
 151  679.5414
 152  996.7206
 153  871.8556
 154  1327.679
 155  1141.341
 156  1078.413
 157  1023.061
 158  938.4924
 159  537.8445
 160  671.7654
 161  1093.732
 162  1459.909
 163  1452.579
 164  1446.206
 165  1477.54
 166  1325.467
 167  1009.048
 168  1040.294
 169  1030.06
 170  1290.499
 171  1636.513
 172  1688.858
 173  1277.374
 174  1333.193
 175  1113.163
 176  1404.216
 177  1344.36
 178  1581.409
 179  1140.421
 180  1160.459
 181  1104.724
 182  848.5294
 183  766.8434
 184  1202.316
 185  1304.52
 186  1222.487
 187  1172.421
 188  1195.252
 189  1028.753
 190  667.076
 191  834.1289
 192  689.8509
 193  702.6432
 194  1267.335
 195  1491.044
 196  1000.784
 197  938.6449
 198  962.1526
 199  833.8964
 200  883.3389
 201  1009.985
 202  1126.559
 203  1050.706
 204  1220.258
 205  1091.589
 206  921.8894
 207  372.5656
 208  882.5193
 209  919.4114
 210  941.2061
 211  1071.064
 212  858.2606
 213  925.3636
 214  904.9864
 215  625.6132
 216  677.0461
 217  1082.179
 218  1427.469
 219  1048.924
 220  1090.806
 221  986.0126
 222  1171.284
 223  1059.087
 224  949.4316
 225  1340.456
 226  1370.964
 227  1394.149
 228  1004.826
 229  1202.779
 230  1467.728
 231  1280.869
 232  1201.229
 233  1398.154
 234  1260.579
 235  1122.67
 236  1053.468
 237  1200.321
 238  1567.434
 239  1210.874
 240  1018.297
 241  1095.322
 242  1116.631
 243  866.3226
 244  819.5208
 245  689.499
 246  988.7274
 247  1202.206
 248  1166.464
 249  733.9415
 250  884.542
 251  932.7673
 252  1096.814
 253  1248.909
 254  1437.757
 255  1546.324
 256  1264.043
 257  1457.02
 258  1444.983
 259  1166.224
 260  816.1398
 261  640.6379
 262  1359.856
 263  1609.845
 264  1324.632
 265  1236.18
 266  1351.329
 267  1758.084
 268  1358.62
 269  1119.821
 270  1091.177
 271  955.0249
 272  1039.008
 273  1066.092
 274  838.4261
 275  709.9111
 276  535.7215
 277  1057.67
 278  909.3766
 279  730.6597
 280  781.3432
 281  835.3291
 282  782.6351
 283  583.4267
 284  1041.617
 285  1107.379
 286  943.1356
 287  944.408
 288  776.4398
 289  859.8082
 290  847.7719
 291  780.5273
 292  1083.31
 293  1427.086
 294  1422.481
 295  1135.158
 296  1253.666
 297  1809.417
 298  1406.406
 299  1541.714
 300  1421.274
 301  1635.954
 302  1537.893
 303  969.5524
 304  1360.782
 305  1762.118
 306  1752.599
 307  1502.801
 308  1398.036
 309  1132.072
 310  1193.832
 311  1118.295
 312  1233.059
 313  1071.595
 314  985.9921
 315  1084.099
 316  1104.112
 317  1153.916
 318  866.0627
 319  1140.835
 320  1550.961
 321  1450.036
 322  1317.178
 323  1434.429
 324  990.5881
 325  880.2737
 326  750.1729
 327  949.5218
 328  1073.798
 329  861.3596
 330  1001.035
 331  1390.3
 332  1155.869
 333  1157.158
 334  824.2878
 335  1192.978
 336  1464.422
 337  1433.063
 338  1498.125
 339  1190.099
 340  1427.964
 341  1470.299
 342  1427.521
 343  988.0453
 344  1126.327
 345  1428.615
 346  1293.608
 347  1516.701
 348  1510.655
 349  1262.323
 350  1318.223
 351  1365.054
 352  1385.216
 353  1207.216
 354  841.8231
 355  1071.08
 356  1297.119
 357  1312.826
 358  1381.977
 359  853.1078
 360  1194.196
 361  1293.047
 362  551.0085
 363  631.0176
 364  977.2552
 365  1484.626
 366  1438.634
 367  1178.655
 368  1009.448
 369  1400.27
 370  1367.165
 371  1280.413
 372  1014.615
 373  1081.938
 374  1010.35
 375  1018.577
 376  1032.37
 377  930.5828
 378  1245.106
 379  1218.969
 380  1388.562
 381  1607.805
 382  1679.082
 383  1399.662
 384  961.6274
 385  1142.49
 386  1360.998
 387  1314.493
 388  1589.912
 389  974.7999
 390  1083.02
 391  1543.654
 392  1306.801
 393  1123.734
 394  1110.078
 395  1109.355
 396  1142.112
 397  1170.081
 398  1035.565
 399  1080.39
 400  891.6291
 401  1426.405
 402  1920.414
 403  1575.58
 404  1444.103
 405  1489.53
 406  1329.342
 407  1402.483
 408  1509.513
 409  1188.152
 410  1516.274
 411  1376.301
 412  1304.951
 413  1567.385
 414  1481.34
 415  1472.104
 416  1411.993
 417  1563.428
 418  1445.416
 419  1318.253
 420  1310.698
 421  1371.984
 422  831.7438
 423  1368.696
 424  1525.466
 425  1126.6
 426  1000.732
 427  1120.729
 428  1435.494
 429  1166.539
 430  1211.719
 431  1390.907
 432  1760.012
 433  1441.422
 434  972.3536
 435  830.4191
 436  1276.501
 437  1202.101
 438  1067.282
 439  1357.116
 440  1008.533
 441  1525.312
 442  1344.714
 443  1223.283
 444  1343.292
 445  1034.635
 446  926.9705
 447  809.7693
 448  949.5743
 449  1126.394
 450  1413.867
 451  1159.999
 452  1469.432
 453  1344.832
 454  1181.49
 455  1560.815
 456  1440.022
 457  853.7721
 458  927.9507
 459  681.8381
 460  1002.143
 461  1220.012
 462  1662.623
 463  1658.992
 464  1218.51
 465  1057.198
 466  1303.371
 467  1167.331
 468  1379.972
 469  1640.232
 470  1254.994
 471  1284.366
 472  1128.092
 473  1301.275
 474  1421.348
 475  1789.243
 476  1738.257
 477  1103.491
 478  1320.153
 479  1363.418
 480  1241.534
 481  1170.736
 482  1267.68
 483  1237.406
 484  1420.821
 485  1603.308
 486  1572.103
 487  1442.779
 488  1078.697
 489  937.4294
 490  1190.064
 491  1095.64
 492  991.6416
 493  1131.042
 494  1234.522
 495  1187.419
 496  1117.742
 497  1084.189
 498  1461.909
 499  1347.917
 500  1242.663
 501  971.6472
 502  1013.291
 503  804.438
 504  1157.596
 505  1278.782
 506  1024.346
 507  1203.989
 508  1620.545
 509  1583.202
 510  1348.039
 511  1477.603
