# Input file       =  1179977562.10106_cleaned.dat
# Candidate        =  PSR_0332+5434
# Telescope        =  AR
# Epoch_topo       =  57901.147929410414
# Epoch_bary       =  N/A
# T_sample         =  0.002
# Data Folded      =  7208960
# Data Avg         =  0.178607160168361
# Data StdDev      =  5.1003091560419  
# Profile Bins     =  1024
# Profile Avg      =  1257.34036454712 
# Profile StdDev   =  427.939949700798 
# Reduced chi-sqr  =  1.013
# Prob(Noise)      <  0.376   (~0.3 sigma)
# P_topo (ms)      =  714.520356716191  +/- 2.81e-05
# P'_topo (s/s)    =  -0                +/- 1.51e-11
# P''_topo (s/s^2) =  0                 +/- 6.78e-15
# P_bary (ms)      =  N/A
# P'_bary (s/s)    =  N/A
# P''_bary (s/s^2) =  N/A
# P_orb (s)        =  N/A
# asin(i)/c (s)    =  N/A
# eccentricity     =  N/A
# w (rad)          =  N/A
# T_peri           =  N/A
######################################################
   0  987.2942
   1  1081.616
   2  1040.881
   3  1128.514
   4  1254.13
   5  1317.308
   6  1282.615
   7  1167.947
   8  1210.834
   9  1277.005
  10  1289.553
  11  1145.327
  12  1154.775
  13  1112.797
  14  1099.274
  15  1095.635
  16  1056.976
  17  1083.238
  18  1068.846
  19  1273.672
  20  1374.251
  21  1409.679
  22  1439.202
  23  1384.832
  24  1358.626
  25  1466.59
  26  1669.952
  27  1622.735
  28  1590.313
  29  1277.185
  30  1098.509
  31  922.4498
  32  830.8572
  33  884.8622
  34  806.7917
  35  919.939
  36  1079.729
  37  1210.884
  38  1190.829
  39  1223.615
  40  1282.057
  41  1613.2
  42  1667.103
  43  1555.954
  44  1428.492
  45  1279.027
  46  1313.1
  47  1151.657
  48  1071.231
  49  1047.82
  50  985.6467
  51  946.4144
  52  1063.483
  53  1147.067
  54  1441.605
  55  1506.857
  56  1625.177
  57  1643.569
  58  1731.816
  59  1609.166
  60  1556.877
  61  1539.041
  62  1443.929
  63  1258.805
  64  995.7504
  65  952.5724
  66  923.4849
  67  944.5521
  68  948.0601
  69  1012.104
  70  1185.039
  71  1500.41
  72  1375.742
  73  1382.764
  74  1265.464
  75  1315.296
  76  1354.854
  77  1463.343
  78  1522.269
  79  1434.838
  80  1231.853
  81  1002.77
  82  973.3249
  83  986.8663
  84  1207.855
  85  1268.757
  86  1314.231
  87  1449.978
  88  1426.546
  89  1541.12
  90  1655.998
  91  1708.025
  92  1637.555
  93  1487.63
  94  1380.933
  95  1390.689
  96  1233.078
  97  1161.277
  98  1150.729
  99  1076.512
 100  1170.338
 101  1072.813
 102  995.7856
 103  909.8486
 104  845.8209
 105  991.7927
 106  1088.225
 107  1151.536
 108  1356.863
 109  1566.279
 110  1526.077
 111  1497.019
 112  1310.645
 113  1131.828
 114  1164.989
 115  1186.597
 116  1220.632
 117  1187.22
 118  1138.743
 119  1290.896
 120  1326.348
 121  1443.212
 122  1550.405
 123  1485.308
 124  1581.267
 125  1510.324
 126  1564
 127  1616.571
 128  1430.706
 129  1253.194
 130  1148.123
 131  1180.637
 132  1229.224
 133  1207.853
 134  1193.779
 135  1184.494
 136  1100.962
 137  1104.162
 138  1186.421
 139  1336.414
 140  1407.084
 141  1471.603
 142  1378.654
 143  1418.074
 144  1481.803
 145  1462.09
 146  1429.871
 147  1232.396
 148  1271.89
 149  1377.826
 150  1243.492
 151  1101.995
 152  1238.245
 153  1365.546
 154  1439.993
 155  1409.348
 156  1439.743
 157  1517.522
 158  1361.5
 159  1521.756
 160  1575.194
 161  1422.442
 162  1198.036
 163  1164.5
 164  1251.249
 165  1299.847
 166  1189.388
 167  1158.073
 168  1271.968
 169  1231.659
 170  1401.626
 171  1286.917
 172  1289.723
 173  1397.099
 174  1395.094
 175  1423.279
 176  1432.639
 177  1569.064
 178  1579.301
 179  1455.351
 180  1216.11
 181  1167.596
 182  1110.05
 183  1207.613
 184  1401.244
 185  1454.486
 186  1620.992
 187  1623.033
 188  1669.851
 189  1804.39
 190  1821.216
 191  1838.796
 192  1814.878
 193  1569.286
 194  1412.843
 195  1234.269
 196  1229.798
 197  1229.941
 198  1072.082
 199  1093.666
 200  1254.461
 201  1284.436
 202  1228.647
 203  1224.653
 204  1337.074
 205  1457.64
 206  1492.288
 207  1535.704
 208  1575.233
 209  1423.014
 210  1361.824
 211  1323.359
 212  1198.853
 213  1368.303
 214  1403.268
 215  1452.777
 216  1295.736
 217  1267.557
 218  1402.471
 219  1443.62
 220  1424.497
 221  1539.773
 222  1644.916
 223  1625.886
 224  1643.367
 225  1602.427
 226  1547.071
 227  1420.51
 228  1316.491
 229  1264.11
 230  1161.326
 231  892.7998
 232  1008.254
 233  983.9921
 234  1113.796
 235  1075.536
 236  978.8444
 237  1040.645
 238  1090.147
 239  1417.133
 240  1450.515
 241  1415.675
 242  1463.179
 243  1562.985
 244  1411.081
 245  1229.086
 246  1142.719
 247  1093.81
 248  1048.229
 249  1160.23
 250  1116.042
 251  1092.958
 252  927.6487
 253  1081.476
 254  1281.936
 255  1382.062
 256  1485.814
 257  1573.816
 258  1573.718
 259  1449.084
 260  1200.075
 261  1194.198
 262  1197.421
 263  1135.233
 264  1205.836
 265  1263.801
 266  1179.969
 267  1127.322
 268  884.031
 269  690.4333
 270  768.4966
 271  1045.78
 272  1588.387
 273  1661.964
 274  1596.134
 275  1532.654
 276  1412.188
 277  1316.016
 278  1342.369
 279  1143.012
 280  1062.104
 281  1093.848
 282  1262.697
 283  1341.68
 284  1212.902
 285  1330.204
 286  1475.021
 287  1521.528
 288  1682.786
 289  1768.803
 290  1652.3
 291  1672.283
 292  1654.228
 293  1685.443
 294  1549.516
 295  1285.584
 296  1128.807
 297  1019.603
 298  1067.051
 299  1222.704
 300  1244.603
 301  1195.309
 302  1157.559
 303  1132.654
 304  1277.668
 305  1482.037
 306  1471.942
 307  1588.772
 308  1559.273
 309  1437.154
 310  1320.252
 311  1225.086
 312  1385.292
 313  1272.217
 314  1114.232
 315  1145.675
 316  1144.801
 317  1260.88
 318  1284.813
 319  1339.267
 320  1461.62
 321  1643.561
 322  1627.349
 323  1468.949
 324  1267.658
 325  1274.452
 326  1278.758
 327  1318.096
 328  1235.572
 329  1184.658
 330  1008.888
 331  1024.528
 332  1161.977
 333  1144.498
 334  1140.945
 335  1057.64
 336  1189.118
 337  1394.08
 338  1438.745
 339  1333.439
 340  1331.803
 341  1220.904
 342  1324.263
 343  1128.221
 344  1128.599
 345  1083.835
 346  982.6061
 347  850.2225
 348  1017.558
 349  1144.916
 350  1383.822
 351  1436.698
 352  1414.626
 353  1494.365
 354  1337.145
 355  1393.621
 356  1407.132
 357  1449.453
 358  1414.309
 359  1230.094
 360  1094.354
 361  1049.815
 362  961.98
 363  1014.581
 364  1142.002
 365  1117.683
 366  1119.486
 367  1090.49
 368  1124.823
 369  1215.419
 370  1324.854
 371  1415.726
 372  1563.105
 373  1506.97
 374  1440.549
 375  1472.23
 376  1422.159
 377  1482.101
 378  1243.2
 379  1098.546
 380  1101.604
 381  1011.25
 382  1141.015
 383  1183.44
 384  1219.405
 385  1415.314
 386  1408.213
 387  1437.176
 388  1363.265
 389  1421.738
 390  1594.649
 391  1604.085
 392  1528.25
 393  1324.244
 394  1126.592
 395  1040.758
 396  1111.453
 397  1019.821
 398  944.0632
 399  765.6794
 400  735.1837
 401  790.41
 402  881.0451
 403  944.8844
 404  1071.386
 405  1430.401
 406  1664.737
 407  1724.627
 408  1435.994
 409  1337.75
 410  1340.57
 411  1352.155
 412  1238.993
 413  1050.976
 414  1081.815
 415  1234.474
 416  1301.575
 417  1317.221
 418  1315.528
 419  1175.952
 420  1289.915
 421  1478.186
 422  1654.797
 423  1698.249
 424  1533.937
 425  1484.235
 426  1375.004
 427  1143.699
 428  1098.268
 429  1120.907
 430  1175.603
 431  1180.646
 432  1143.604
 433  1156.753
 434  1224.871
 435  1174.505
 436  1214.577
 437  1188.809
 438  1279.836
 439  1507.815
 440  1509.668
 441  1463.429
 442  1436.64
 443  1366.6
 444  1329.378
 445  1238.611
 446  1115.628
 447  1263.646
 448  1287.915
 449  1436.743
 450  1392.549
 451  1282.047
 452  1362.086
 453  1403.306
 454  1583.958
 455  1627.667
 456  1591.716
 457  1455.657
 458  1420.339
 459  1343.982
 460  1419.782
 461  1300.304
 462  1209.789
 463  1342.377
 464  1273.058
 465  1145.661
 466  1055.807
 467  968.8132
 468  1097.18
 469  1182.772
 470  1374.69
 471  1591.399
 472  1486.554
 473  1383.738
 474  1133.833
 475  1137.251
 476  1065.002
 477  1046.711
 478  1086.82
 479  1226.411
 480  1302.037
 481  1225.147
 482  1210.546
 483  1211.534
 484  1403.232
 485  1559.317
 486  1536.387
 487  1541.403
 488  1508.23
 489  1409.061
 490  1207.751
 491  1156.643
 492  1155.246
 493  1239.921
 494  986.0978
 495  883.1342
 496  816.7757
 497  870.9866
 498  830.0249
 499  974.12
 500  1005.509
 501  1276.719
 502  1234.513
 503  1362.99
 504  1259.932
 505  1254.705
 506  1365.607
 507  1312.448
 508  1168.585
 509  1060.451
 510  911.5117
 511  699.1697
 512  739.1107
 513  904.928
 514  1158.287
 515  1197.476
 516  1206.161
 517  1357.105
 518  1316.522
 519  1439.905
 520  1546.758
 521  1526.122
 522  1531.478
 523  1462.993
 524  1424.123
 525  1301.2
 526  1115.525
 527  985.9528
 528  1166.194
 529  1035.38
 530  1014.057
 531  863.4164
 532  788.0085
 533  979.7714
 534  1126.096
 535  1427.195
 536  1711.526
 537  1698.599
 538  1693.63
 539  1494.618
 540  1376.517
 541  1342.8
 542  1209.42
 543  1193.745
 544  1200.257
 545  1125.723
 546  1131.957
 547  938.5554
 548  930.5091
 549  1110.263
 550  1328.672
 551  1352.485
 552  1287.693
 553  1297.45
 554  1452.931
 555  1522.88
 556  1449.378
 557  1494.626
 558  1455.767
 559  1469.62
 560  1331.66
 561  1293.365
 562  1257.991
 563  1220.158
 564  966.9324
 565  935.1675
 566  917.7122
 567  1077.581
 568  1278.028
 569  1370.637
 570  1390.589
 571  1378.461
 572  1308.553
 573  1423.092
 574  1381.439
 575  1148.467
 576  969.4123
 577  928.4146
 578  1057.958
 579  1015.152
 580  954.9366
 581  1007.111
 582  1088.323
 583  1113.694
 584  1209.389
 585  1360.354
 586  1517.798
 587  1671.309
 588  1553.03
 589  1403.341
 590  1277.692
 591  1250.661
 592  1254.196
 593  1213.069
 594  1071.715
 595  996.5666
 596  815.7928
 597  939.1396
 598  1046.119
 599  1057.295
 600  1065.175
 601  1105.701
 602  1212.636
 603  1420.879
 604  1420.149
 605  1396.766
 606  1279.495
 607  1111.698
 608  1022.365
 609  951.0189
 610  938.6579
 611  953.8682
 612  881.0548
 613  864.8012
 614  1081.223
 615  1146.232
 616  1202.411
 617  1156.89
 618  1356.841
 619  1711.728
 620  1759.875
 621  1730.305
 622  1548.441
 623  1296.351
 624  1199.233
 625  1175.505
 626  1264.761
 627  1376.989
 628  1322.805
 629  1281.794
 630  1280.762
 631  1189.98
 632  1157.909
 633  965.7224
 634  989.2887
 635  1243.039
 636  1436.21
 637  1506.709
 638  1375.686
 639  1233.846
 640  1107.053
 641  1025.228
 642  909.2242
 643  1039.593
 644  1060.646
 645  1062.964
 646  1090.537
 647  1111.879
 648  1218.668
 649  1230.052
 650  1334.354
 651  1538.178
 652  1612.661
 653  1499.825
 654  1375.106
 655  1208.871
 656  1160.5
 657  1135.365
 658  908.9659
 659  785.7661
 660  711.9122
 661  874.7332
 662  1119.733
 663  1101.705
 664  1083.484
 665  1135.35
 666  1121.1
 667  1118.791
 668  1180.904
 669  1327.597
 670  1305.89
 671  1273.467
 672  1283.416
 673  1281.173
 674  1049.893
 675  1015.038
 676  1060.468
 677  973.1891
 678  1007.637
 679  1146.491
 680  1231.789
 681  1294.448
 682  1213.544
 683  1254.497
 684  1288.737
 685  1507.276
 686  1792.016
 687  1675.891
 688  1453.737
 689  1220.195
 690  1179.55
 691  947.5394
 692  871.3394
 693  800.5234
 694  883.6924
 695  858.3314
 696  829.5804
 697  1067.059
 698  1080.675
 699  1139.589
 700  1279.497
 701  1400.103
 702  1469.432
 703  1352.538
 704  1296.259
 705  1376.181
 706  1237.69
 707  1112.984
 708  1044.284
 709  1057.079
 710  1204.624
 711  1111.382
 712  981.826
 713  1057.101
 714  1119.789
 715  1262.833
 716  1331.268
 717  1318.513
 718  1402.184
 719  1481.27
 720  1499.963
 721  1494.61
 722  1416.899
 723  1348.125
 724  1185.034
 725  874.4196
 726  880.2398
 727  889.7819
 728  954.5903
 729  1089.284
 730  1138.449
 731  1173.814
 732  1025.978
 733  1078.308
 734  1264.305
 735  1271.995
 736  1297.628
 737  1303.568
 738  1381.213
 739  1216.795
 740  1118.897
 741  1046.48
 742  918.0528
 743  1015.103
 744  1015.398
 745  1132.272
 746  1104.013
 747  1154.681
 748  1187.905
 749  1490.448
 750  1760.28
 751  2093.334
 752  1945.412
 753  1988.217
 754  2021.571
 755  2129.129
 756  2096.869
 757  1979.663
 758  1984.097
 759  2028.235
 760  1755.578
 761  1558.45
 762  1420.761
 763  1282.688
 764  1145.947
 765  1284.05
 766  1353.317
 767  1530.732
 768  1421.777
 769  1501.573
 770  1483.424
 771  1446.431
 772  1539.428
 773  1316.777
 774  1153.259
 775  1039.88
 776  1102.044
 777  1155.149
 778  1338.281
 779  1432.609
 780  1541.274
 781  1259.995
 782  1144.254
 783  1264.711
 784  1584.281
 785  1771.311
 786  1902.813
 787  1759.564
 788  1684.875
 789  1442.819
 790  1263.985
 791  1185.071
 792  1118.063
 793  1133.416
 794  1227.45
 795  1088.372
 796  1067.614
 797  932.0759
 798  992.1008
 799  1144.406
 800  1344.843
 801  1464.474
 802  1586.888
 803  1502.808
 804  1531.97
 805  1388.687
 806  1299.926
 807  1228.115
 808  1210.975
 809  1187.502
 810  1050.476
 811  953.2498
 812  1156.484
 813  1237.975
 814  1235.838
 815  1401.832
 816  1541.408
 817  1578.416
 818  1491.478
 819  1526.4
 820  1462.01
 821  1453.801
 822  1317.963
 823  1270.927
 824  1171.756
 825  933.1202
 826  954.8434
 827  952.3964
 828  965.804
 829  890.5813
 830  829.0515
 831  963.6575
 832  983.2012
 833  946.0911
 834  1239.232
 835  1410.481
 836  1497.349
 837  1328.688
 838  1174.958
 839  989.6797
 840  808.4279
 841  707.5538
 842  780.163
 843  888.2951
 844  960.0028
 845  1213.072
 846  1213.633
 847  1199.67
 848  1221.123
 849  1285.743
 850  1352.426
 851  1282.211
 852  1348.953
 853  1423.594
 854  1180.154
 855  897.1735
 856  803.3729
 857  727.9982
 858  896.5571
 859  789.2502
 860  767.7485
 861  660.6661
 862  681.3843
 863  890.0637
 864  1107.892
 865  1188.545
 866  1383.398
 867  1408.194
 868  1327.994
 869  1276.196
 870  1207.92
 871  1199.854
 872  1063.749
 873  885.6594
 874  906.6905
 875  745.8752
 876  820.7213
 877  913.0696
 878  1150.624
 879  1248.201
 880  1469.825
 881  1517.947
 882  1529.18
 883  1411.943
 884  1368.33
 885  1460.452
 886  1370.309
 887  1360.423
 888  1265.71
 889  1169.502
 890  1004.023
 891  791.1392
 892  769.183
 893  877.7683
 894  986.8171
 895  1006.653
 896  994.418
 897  972.0996
 898  1076.009
 899  1256.991
 900  1386.354
 901  1434.278
 902  1383.111
 903  1347.953
 904  1275.124
 905  1187.617
 906  1167.536
 907  1164.763
 908  1048.368
 909  1105.687
 910  1089.049
 911  1013.144
 912  1019.297
 913  1234.07
 914  1454.299
 915  1422.88
 916  1334.872
 917  1393.158
 918  1470.447
 919  1371.623
 920  1342.212
 921  1293.259
 922  1240.307
 923  1065.772
 924  881.9118
 925  792.3892
 926  825.7044
 927  920.0112
 928  1097.065
 929  1196.5
 930  1292.102
 931  1577.673
 932  1711.888
 933  1822.613
 934  1736.241
 935  1697.478
 936  1607.155
 937  1359.424
 938  1202.506
 939  1089.679
 940  864.4229
 941  700.8526
 942  870.2615
 943  1038.25
 944  1342.538
 945  1476.846
 946  1569.963
 947  1665.286
 948  1676.943
 949  1731.316
 950  1741.083
 951  1626.177
 952  1589.426
 953  1333.805
 954  1094.185
 955  1075.439
 956  1150.128
 957  1212.883
 958  1265.32
 959  1102.562
 960  1233.48
 961  1160.369
 962  1121.508
 963  1162.433
 964  1288.427
 965  1454.12
 966  1660.534
 967  1678.104
 968  1636.951
 969  1377.049
 970  1181.361
 971  1116.451
 972  1056.827
 973  1009.063
 974  1002.455
 975  953.9673
 976  1181.651
 977  1285.66
 978  1327.656
 979  1459.37
 980  1377.739
 981  1317.365
 982  1393.209
 983  1417.864
 984  1478.001
 985  1473.586
 986  1518.859
 987  1522.662
 988  1311.764
 989  1129.549
 990  1093.919
 991  1051.116
 992  991.3397
 993  979.8516
 994  859.2306
 995  830.725
 996  666.3033
 997  834.4566
 998  1016.377
 999  1252.714
1000  1369.505
1001  1378.366
1002  1233.949
1003  1112.731
1004  975.2701
1005  850.64
1006  873.5447
1007  904.1022
1008  985.317
1009  1005.133
1010  940.8965
1011  1048.638
1012  1053.877
1013  1167.737
1014  1166.903
1015  1415.873
1016  1489.269
1017  1591.018
1018  1275.765
1019  1031.751
1020  919.8931
1021  877.3676
1022  972.7314
1023  958.5132
