# Input file       =  1179662434.104653_cleaned.dat
# Candidate        =  PSR_0332+5434
# Telescope        =  AR
# Epoch_topo       =  57897.500614637189
# Epoch_bary       =  N/A
# T_sample         =  0.002
# Data Folded      =  7340032
# Data Avg         =  0.11418685690504 
# Data StdDev      =  3.46922995803345 
# Profile Bins     =  1024
# Profile Avg      =  818.467577144712 
# Profile StdDev   =  293.71903071525  
# Reduced chi-sqr  =  1.005
# Prob(Noise)      <  0.453   (~0.1 sigma)
# P_topo (ms)      =  714.524308062966  +/- 0.000269
# P'_topo (s/s)    =  -0                +/- 1.42e-10
# P''_topo (s/s^2) =  0                 +/- 6.26e-14
# P_bary (ms)      =  N/A
# P'_bary (s/s)    =  N/A
# P''_bary (s/s^2) =  N/A
# P_orb (s)        =  N/A
# asin(i)/c (s)    =  N/A
# eccentricity     =  N/A
# w (rad)          =  N/A
# T_peri           =  N/A
######################################################
   0  785.5083
   1  847.7828
   2  974.0873
   3  858.6005
   4  645.6314
   5  709.5378
   6  914.5838
   7  1051.093
   8  1125.973
   9  1163.522
  10  1084.789
  11  970.3293
  12  842.6193
  13  812.0903
  14  759.0292
  15  801.6279
  16  881.3439
  17  869.6091
  18  776.1835
  19  666.7617
  20  745.5127
  21  873.0419
  22  1011.12
  23  999.9437
  24  1043.042
  25  989.2262
  26  815.8629
  27  750.4641
  28  866.3466
  29  987.7243
  30  924.6247
  31  839.2372
  32  794.444
  33  898.1931
  34  974.9431
  35  1056.193
  36  1039.093
  37  841.1478
  38  634.27
  39  629.519
  40  889.9944
  41  1109.271
  42  1201.103
  43  1074.41
  44  918.4589
  45  817.8788
  46  785.0633
  47  762.936
  48  929.8757
  49  1122.232
  50  1156.23
  51  1208.01
  52  1077.835
  53  1028.666
  54  957.3607
  55  987.6816
  56  877.6279
  57  779.1246
  58  653.8655
  59  696.4393
  60  691.5613
  61  838.1636
  62  875.0959
  63  887.1487
  64  719.9781
  65  722.5595
  66  834.5033
  67  871.3254
  68  745.4456
  69  753.0551
  70  882.7607
  71  938.7914
  72  846.4582
  73  771.2811
  74  832.0137
  75  811.6588
  76  838.0049
  77  848.0133
  78  850.7045
  79  798.2263
  80  759.7121
  81  876.7486
  82  859.3226
  83  754.9442
  84  679.5295
  85  734.7931
  86  788.6703
  87  815.2793
  88  867.4995
  89  926.8444
  90  858.4133
  91  929.1986
  92  1011.061
  93  1227.257
  94  1138.536
  95  1095.936
  96  949.9268
  97  886.0718
  98  868.9177
  99  937.6593
 100  957.8074
 101  855.3762
 102  773.428
 103  845.7145
 104  910.0967
 105  975.8965
 106  943.8076
 107  975.9274
 108  944.7199
 109  914.1464
 110  972.5247
 111  1041.855
 112  1179.918
 113  1102.896
 114  1161.747
 115  1067.378
 116  966.3668
 117  839.4393
 118  857.5747
 119  860.3008
 120  893.6572
 121  985.8768
 122  1128.256
 123  1135.462
 124  1010.074
 125  910.7025
 126  1006.948
 127  976.9972
 128  956.2073
 129  819.4565
 130  854.7926
 131  858.7921
 132  957.39
 133  1092.376
 134  1109.053
 135  1008.06
 136  843.5247
 137  821.9088
 138  890.726
 139  880.7239
 140  935.554
 141  964.1141
 142  1026.062
 143  882.8807
 144  739.6122
 145  768.6916
 146  912.0078
 147  848.8158
 148  837.8361
 149  837.3137
 150  856.6394
 151  808.9341
 152  902.1559
 153  1138.732
 154  1071.017
 155  991.0067
 156  882.7498
 157  875.6882
 158  759.7217
 159  824.4914
 160  923.1342
 161  836.8435
 162  652.5308
 163  666.55
 164  746.9175
 165  996.2393
 166  1041.031
 167  1019.663
 168  829.3555
 169  842.2727
 170  928.2781
 171  997.7146
 172  976.2349
 173  832.8087
 174  685.043
 175  716.626
 176  919.1405
 177  1016.399
 178  874.1205
 179  605.1779
 180  472.1539
 181  456.4988
 182  551.0815
 183  558.5445
 184  778.0199
 185  839.9864
 186  788.29
 187  699.7874
 188  661.8298
 189  620.536
 190  554.9575
 191  612.8238
 192  762.1825
 193  784.5568
 194  752.1795
 195  716.5563
 196  828.0822
 197  820.4032
 198  903.4462
 199  960.901
 200  909.6334
 201  836.063
 202  717.5434
 203  849.8546
 204  884.3633
 205  824.3025
 206  665.0103
 207  635.8535
 208  725.7065
 209  814.0375
 210  837.9745
 211  808.8787
 212  807.9565
 213  764.4257
 214  767.3475
 215  823.1006
 216  951.9525
 217  1035.17
 218  1147.938
 219  1227.478
 220  1184.761
 221  1033.273
 222  833.5352
 223  770.7991
 224  723.0023
 225  759.4219
 226  773.989
 227  888.2151
 228  899.5479
 229  920.0559
 230  786.2723
 231  844.0952
 232  985.4123
 233  958.4478
 234  983.8692
 235  915.2814
 236  930.451
 237  824.8829
 238  885.8104
 239  931.7772
 240  868.2443
 241  871.1285
 242  929.9088
 243  934.0072
 244  827.7534
 245  758.6991
 246  818.2083
 247  830.1353
 248  875.8406
 249  829.2981
 250  902.4877
 251  954.0944
 252  1049.561
 253  991.8477
 254  1002.539
 255  966.3023
 256  953.291
 257  989.7696
 258  952.9185
 259  989.0425
 260  992.2774
 261  912.6693
 262  833.567
 263  690.5549
 264  750.1453
 265  779.8373
 266  869.3553
 267  892.6797
 268  874.9574
 269  707.566
 270  620.642
 271  616.4417
 272  715.4626
 273  759.2993
 274  991.9079
 275  1082.941
 276  1002.716
 277  884.4882
 278  737.6547
 279  710.4718
 280  738.4183
 281  940.4957
 282  909.4369
 283  729.0216
 284  530.7144
 285  586.0303
 286  638.6755
 287  786.9946
 288  837.7369
 289  935.0379
 290  903.6667
 291  863.9731
 292  839.0301
 293  833.1872
 294  726.1831
 295  763.771
 296  842.2742
 297  957.6417
 298  895.9246
 299  903.8665
 300  871.8185
 301  918.9269
 302  1029.401
 303  975.2278
 304  868.9664
 305  734.6769
 306  619.3821
 307  633.8487
 308  636.9615
 309  767.6714
 310  779.0704
 311  871.127
 312  784.5482
 313  929.9153
 314  937.3607
 315  968.3813
 316  971.7343
 317  1059.083
 318  989.8925
 319  990.9727
 320  1023.931
 321  977.3831
 322  869.5847
 323  843.6556
 324  1036.574
 325  1123.983
 326  977.1132
 327  882.5634
 328  777.2811
 329  791.564
 330  637.4313
 331  583.2616
 332  536.0793
 333  635.7659
 334  792.7617
 335  915.1924
 336  938.7325
 337  802.4187
 338  835.2208
 339  666.3353
 340  691.977
 341  661.6696
 342  769.7161
 343  725.1727
 344  652.8708
 345  690.763
 346  794.9879
 347  701.7156
 348  602.2274
 349  507.6978
 350  694.2358
 351  743.6331
 352  952.3862
 353  986.8242
 354  918.2976
 355  700.0095
 356  622.7907
 357  615.3041
 358  582.7081
 359  539.009
 360  552.9955
 361  657.2428
 362  776.098
 363  906.4877
 364  903.7924
 365  860.0336
 366  723.9133
 367  658.2891
 368  617.0955
 369  610.1379
 370  785.0368
 371  725.2531
 372  827.4796
 373  687.6915
 374  825.6683
 375  814.3686
 376  868.2882
 377  862.8502
 378  831.23
 379  706.4737
 380  743.3363
 381  789.2523
 382  934.4403
 383  861.3577
 384  753.8916
 385  779.4326
 386  775.7037
 387  873.8967
 388  789.4094
 389  799.8026
 390  789.5577
 391  810.8053
 392  834.9337
 393  801.9512
 394  638.0291
 395  665.743
 396  725.6639
 397  793.8424
 398  736.6374
 399  677.4561
 400  774.863
 401  727.4325
 402  779.8981
 403  705.5292
 404  838.3738
 405  963.7062
 406  982.9903
 407  963.9738
 408  867.291
 409  873.5894
 410  729.3098
 411  653.7053
 412  801.9236
 413  915.3887
 414  882.3117
 415  723.6048
 416  632.9286
 417  667.4247
 418  598.6191
 419  654.3448
 420  594.2262
 421  635.4134
 422  666.1625
 423  567.7932
 424  564.3533
 425  580.2412
 426  716.3185
 427  722.9741
 428  801.365
 429  819.9726
 430  786.6757
 431  577.86
 432  535.4597
 433  711.605
 434  850.5839
 435  921.3563
 436  851.225
 437  890.5469
 438  896.9672
 439  845.9171
 440  887.8041
 441  838.4359
 442  928.0396
 443  988.5864
 444  906.1833
 445  714.136
 446  643.7389
 447  726.7523
 448  886.5853
 449  813.8802
 450  724.136
 451  584.7608
 452  694.7489
 453  795.2573
 454  784.42
 455  758.8398
 456  717.9937
 457  731.2427
 458  654.8207
 459  575.6042
 460  607.196
 461  774.6041
 462  896.4101
 463  947.5863
 464  897.1412
 465  916.2059
 466  913.8701
 467  750.9302
 468  672.7815
 469  586.632
 470  719.2563
 471  769.2676
 472  860.1861
 473  920.4135
 474  1017.625
 475  1131.288
 476  1098.336
 477  1007.099
 478  878.4044
 479  847.0566
 480  847.7491
 481  858.0244
 482  847.6097
 483  733.3665
 484  521.6168
 485  478.5389
 486  517.9119
 487  656.8736
 488  679.4193
 489  832.2966
 490  927.1755
 491  959.0816
 492  772.9653
 493  816.6718
 494  777.162
 495  675.9216
 496  551.9902
 497  524.0431
 498  434.1744
 499  337.8968
 500  581.1602
 501  878.7242
 502  983.4317
 503  871.5078
 504  673.2002
 505  567.7222
 506  628.8132
 507  714.2751
 508  845.7023
 509  761.1829
 510  831.4613
 511  775.4151
 512  752.8601
 513  649.9396
 514  596.7838
 515  551.1962
 516  534.1737
 517  379.1192
 518  431.4633
 519  570.6024
 520  669.1935
 521  809.8532
 522  861.0502
 523  1044.458
 524  928.3825
 525  827.9155
 526  820.48
 527  773.0443
 528  738.8331
 529  597.2427
 530  643.6426
 531  632.5872
 532  627.5692
 533  587.0938
 534  718.2534
 535  865.1413
 536  1008.924
 537  979.3412
 538  914.0049
 539  790.9105
 540  765.158
 541  667.8807
 542  610.9061
 543  561.3203
 544  680.2034
 545  720.2064
 546  709.9619
 547  688.3083
 548  727.2579
 549  874.287
 550  913.3392
 551  800.9512
 552  565.7421
 553  552.7686
 554  581.0917
 555  678.3853
 556  571.4794
 557  623.2838
 558  672.5065
 559  799.7051
 560  835.8324
 561  858.6816
 562  805.4024
 563  738.8741
 564  719.9957
 565  729.8244
 566  776.5636
 567  720.8041
 568  640.1542
 569  575.2579
 570  634.5647
 571  658.782
 572  705.9443
 573  803.3376
 574  995.9242
 575  1036.297
 576  961.4747
 577  792.576
 578  710.4862
 579  749.1297
 580  711.45
 581  782.3423
 582  768.8187
 583  779.5518
 584  783.2516
 585  934.9039
 586  1006.231
 587  992.9028
 588  1032.129
 589  992.9379
 590  936.1689
 591  799.0964
 592  692.135
 593  723.6842
 594  830.0422
 595  891.646
 596  862.0712
 597  793.3549
 598  840.5802
 599  912.3513
 600  838.2496
 601  841.0827
 602  804.7473
 603  985.1084
 604  1016.351
 605  966.1572
 606  813.3721
 607  804.6421
 608  795.2629
 609  775.835
 610  679.6718
 611  708.1476
 612  733.303
 613  718.9586
 614  705.7404
 615  822.0729
 616  918.1367
 617  964.3601
 618  850.1834
 619  878.1608
 620  927.822
 621  1024.323
 622  1018.5
 623  1052.597
 624  1122.982
 625  945.5618
 626  813.3043
 627  726.0916
 628  761.087
 629  815.0248
 630  906.2328
 631  884.4097
 632  755.6902
 633  757.5203
 634  699.4765
 635  666.1485
 636  563.9183
 637  612.3669
 638  780.5296
 639  743.7433
 640  729.6549
 641  667.1058
 642  716.1672
 643  724.8313
 644  718.6056
 645  712.8378
 646  767.4473
 647  796.1464
 648  838.5248
 649  735.5443
 650  755.4279
 651  727.6191
 652  593.3726
 653  503.4144
 654  587.5532
 655  705.4481
 656  683.2267
 657  658.2892
 658  655.4449
 659  721.9538
 660  685.3238
 661  691.7861
 662  648.3389
 663  712.2436
 664  691.621
 665  758.589
 666  731.2021
 667  831.1597
 668  892.4213
 669  794.145
 670  640.181
 671  638.729
 672  612.1229
 673  547.0312
 674  465.9782
 675  581.5778
 676  613.4145
 677  713.7019
 678  741.2821
 679  855.17
 680  773.4324
 681  776.7673
 682  779.5079
 683  713.7158
 684  639.8896
 685  414.2603
 686  260.7569
 687  223.0126
 688  335.0062
 689  553.0361
 690  619.4006
 691  619.3506
 692  537.3201
 693  683.7175
 694  669.2743
 695  688.3825
 696  675.9857
 697  744.9005
 698  700.5754
 699  565.5784
 700  542.684
 701  504.3003
 702  641.1951
 703  652.6531
 704  645.2552
 705  466.6477
 706  346.1228
 707  428.8129
 708  592.9108
 709  685.4371
 710  575.2689
 711  644.6505
 712  740.7488
 713  858.3372
 714  937.8799
 715  1094.496
 716  1175.825
 717  1118.274
 718  954.4872
 719  837.5786
 720  707.1383
 721  629.266
 722  574.0779
 723  626.4104
 724  690.5074
 725  796.1677
 726  784.9804
 727  896.2119
 728  851.5516
 729  1011.714
 730  1031.573
 731  1070.731
 732  954.9389
 733  872.9343
 734  784.1903
 735  819.0913
 736  844.0184
 737  925.3293
 738  815.022
 739  778.9722
 740  752.6462
 741  853.4806
 742  924.6448
 743  1123.38
 744  1127.175
 745  1035.157
 746  903.6699
 747  1027.323
 748  1072.212
 749  1000.485
 750  920.541
 751  1012.506
 752  1042.617
 753  1134.748
 754  1173.543
 755  1335.558
 756  1544.229
 757  1628.428
 758  1666.415
 759  1559.479
 760  1326.071
 761  1189.372
 762  1084.936
 763  1068.026
 764  992.3264
 765  939.0252
 766  849.4068
 767  948.7189
 768  1092.533
 769  1084.639
 770  936.5772
 771  988.3932
 772  949.3262
 773  811.2678
 774  726.6523
 775  897.4829
 776  960.1108
 777  913.6176
 778  869.9058
 779  1128.01
 780  1184.476
 781  1135.106
 782  993.8786
 783  989.1745
 784  1120.425
 785  1042.948
 786  981.0045
 787  899.7219
 788  881.4374
 789  863.5656
 790  864.5631
 791  846.8736
 792  906.6014
 793  935.7569
 794  1127.322
 795  1034.315
 796  886.8612
 797  778.5295
 798  885.4603
 799  941.7631
 800  903.3512
 801  950.2192
 802  959.6307
 803  886.1898
 804  714.7122
 805  627.273
 806  589.4768
 807  587.152
 808  639.5835
 809  779.0787
 810  946.6834
 811  1038.245
 812  1065.708
 813  1014.866
 814  834.0901
 815  855.2103
 816  870.9359
 817  906.4523
 818  801.1966
 819  703.8038
 820  629.8132
 821  550.8762
 822  556.7404
 823  453.3552
 824  446.9947
 825  513.9763
 826  777.8049
 827  818.1442
 828  864.0999
 829  805.5329
 830  775.0446
 831  748.1883
 832  898.7995
 833  930.4277
 834  951.0401
 835  971.2598
 836  985.8989
 837  934.4735
 838  702.6036
 839  677.637
 840  670.9951
 841  746.5385
 842  652.8561
 843  665.6961
 844  741.5891
 845  945.1224
 846  863.2009
 847  844.3138
 848  804.7806
 849  951.3297
 850  811.6423
 851  739.4429
 852  593.387
 853  666.4787
 854  755.3436
 855  878.1256
 856  821.8528
 857  665.886
 858  466.7082
 859  511.1523
 860  650.8627
 861  821.0896
 862  854.3632
 863  1014.392
 864  961.2183
 865  916.6437
 866  919.6701
 867  961.5125
 868  1000.506
 869  929.5972
 870  921.9537
 871  899.8195
 872  774.1597
 873  672.6926
 874  539.4307
 875  429.493
 876  491.6129
 877  655.1025
 878  820.7984
 879  768.0865
 880  702.1359
 881  640.3901
 882  671.2305
 883  708.3946
 884  723.9391
 885  758.5824
 886  786.9828
 887  867.6927
 888  835.7438
 889  702.5037
 890  597.6616
 891  606.5792
 892  752.6566
 893  730.7114
 894  730.8467
 895  628.5285
 896  560.1019
 897  504.2385
 898  655.5017
 899  768.2091
 900  825.7228
 901  793.7261
 902  856.8583
 903  894.7007
 904  875.3062
 905  939.0364
 906  1046.009
 907  1028.338
 908  890.0006
 909  754.1805
 910  808.3463
 911  702.3533
 912  736.8116
 913  768.5784
 914  844.5768
 915  858.2903
 916  875.0422
 917  886.973
 918  900.4944
 919  960.905
 920  1087.062
 921  1097.399
 922  1019.096
 923  939.9464
 924  913.4136
 925  954.7952
 926  904.0449
 927  931.6025
 928  938.1039
 929  903.0338
 930  875.5583
 931  769.2664
 932  697.9011
 933  637.0273
 934  669.6708
 935  633.7286
 936  516.0623
 937  538.9155
 938  617.734
 939  645.8903
 940  668.1748
 941  804.7496
 942  919.0518
 943  950.1473
 944  834.3541
 945  786.3665
 946  766.7389
 947  916.3419
 948  906.6337
 949  838.6846
 950  768.9636
 951  853.9802
 952  982.3959
 953  957.9202
 954  929.1637
 955  865.05
 956  913.412
 957  851.5739
 958  851.8562
 959  910.197
 960  905.8141
 961  897.8455
 962  915.9404
 963  847.5164
 964  822.0516
 965  620.7271
 966  708.733
 967  722.8998
 968  692.015
 969  695.6705
 970  708.821
 971  804.3895
 972  827.7584
 973  873.8239
 974  878.3981
 975  742.0076
 976  785.3337
 977  706.221
 978  699.288
 979  717.2621
 980  804.7313
 981  874.2411
 982  871.1149
 983  1076.053
 984  1078.24
 985  1111.086
 986  968.9996
 987  857.2742
 988  825.8436
 989  824.8544
 990  749.005
 991  768.7604
 992  741.3311
 993  929.1596
 994  906.6957
 995  898.6554
 996  799.8709
 997  896.1988
 998  955.392
 999  973.369
1000  837.9185
1001  680.2072
1002  617.2369
1003  597.9843
1004  746.9755
1005  757.1942
1006  736.8744
1007  837.376
1008  812.3447
1009  866.1846
1010  720.1058
1011  906.1558
1012  945.9887
1013  1075.931
1014  974.7336
1015  1013.182
1016  756.7681
1017  656.2642
1018  680.5492
1019  858.8141
1020  698.3491
1021  536.838
1022  600.0764
1023  736.0761
