# Input file       =  1179490092.10149_cleaned.dat
# Candidate        =  PSR_0332+5434
# Telescope        =  AR
# Epoch_topo       =  57895.505915526504
# Epoch_bary       =  N/A
# T_sample         =  0.002
# Data Folded      =  7340032
# Data Avg         =  0.0838600870650096
# Data StdDev      =  3.19079913130689 
# Profile Bins     =  512
# Profile Avg      =  1202.21019399741 
# Profile StdDev   =  382.044068459721 
# Reduced chi-sqr  =  1.228
# Prob(Noise)      <  0.00031   (~3.4 sigma)
# P_topo (ms)      =  714.526277855554  +/- 0.000181
# P'_topo (s/s)    =  -0                +/- 9.54e-11
# P''_topo (s/s^2) =  0                 +/- 4.21e-14
# P_bary (ms)      =  N/A
# P'_bary (s/s)    =  N/A
# P''_bary (s/s^2) =  N/A
# P_orb (s)        =  N/A
# asin(i)/c (s)    =  N/A
# eccentricity     =  N/A
# w (rad)          =  N/A
# T_peri           =  N/A
######################################################
   0  668.311
   1  1221.607
   2  1530.047
   3  1025.82
   4  928.219
   5  976
   6  828.0021
   7  879.7052
   8  990.5213
   9  1144.847
  10  1040.226
  11  1217.525
  12  1090.454
  13  956.7516
  14  382.3289
  15  850.6497
  16  940.8585
  17  916.4854
  18  1069.122
  19  863.955
  20  917.254
  21  918.6669
  22  645.7739
  23  662.7496
  24  1044.008
  25  1431.933
  26  1082.356
  27  1061.874
  28  1003.657
  29  1140.647
  30  1097.378
  31  931.6696
  32  1317.926
  33  1362.857
  34  1429.947
  35  1012.456
  36  1175.332
  37  1452.341
  38  1306.391
  39  1186.155
  40  1392.961
  41  1282.46
  42  1139.34
  43  1049.389
  44  1168.892
  45  1553.968
  46  1256.919
  47  1017.698
  48  1083.687
  49  1115.373
  50  894.73
  51  818.142
  52  699.5353
  53  945.1935
  54  1201.032
  55  1183.09
  56  761.0879
  57  859.417
  58  934.9671
  59  1083.64
  60  1234.207
  61  1418.64
  62  1560.972
  63  1274.091
  64  1437.668
  65  1468.085
  66  1171.134
  67  867.5627
  68  610.8942
  69  1305.919
  70  1622.743
  71  1327.933
  72  1235.906
  73  1320.996
  74  1767.105
  75  1395.38
  76  1119.434
  77  1107.385
  78  958.9543
  79  1013.779
  80  1093.391
  81  825.3243
  82  754.011
  83  512.4767
  84  1026.671
  85  944.286
  86  724.6736
  87  790.7202
  88  826.7172
  89  790.0422
  90  588.9531
  91  984.3338
  92  1143.12
  93  918.5786
  94  966.5606
  95  783.7123
  96  855.9249
  97  855.8799
  98  778.2764
  99  1040.004
 100  1427.905
 101  1425.751
 102  1166.884
 103  1195.639
 104  1812.638
 105  1422.236
 106  1533.426
 107  1426.718
 108  1610.898
 109  1589.626
 110  976.125
 111  1316.222
 112  1739.224
 113  1774.297
 114  1514.93
 115  1407.782
 116  1147.23
 117  1180.87
 118  1132.669
 119  1218.249
 120  1101.618
 121  986.8725
 122  1070.452
 123  1098.963
 124  1159.63
 125  895.9548
 126  1077.654
 127  1550.468
 128  1472.96
 129  1284.227
 130  1473.984
 131  997.2565
 132  903.645
 133  747.3827
 134  929.9876
 135  1075.657
 136  875.0037
 137  966.5795
 138  1376.068
 139  1172.911
 140  1164.242
 141  843.7856
 142  1143.543
 143  1471.335
 144  1431.305
 145  1499.317
 146  1212.844
 147  1391.211
 148  1485.354
 149  1440.684
 150  1020.797
 151  1085.437
 152  1431.507
 153  1288.796
 154  1503.728
 155  1523.59
 156  1285.274
 157  1297.402
 158  1370.835
 159  1378.614
 160  1243.663
 161  841.7798
 162  1044.834
 163  1297.212
 164  1296.305
 165  1406.826
 166  879.1993
 167  1145.067
 168  1334.586
 169  582.9465
 170  608.382
 171  939.9813
 172  1469.414
 173  1446.371
 174  1211.488
 175  984.4402
 176  1386.165
 177  1371.516
 178  1301.569
 179  1027.911
 180  1071.736
 181  1024.231
 182  992.1495
 183  1045.884
 184  934.6619
 185  1228.906
 186  1228.744
 187  1353.43
 188  1592.708
 189  1691.822
 190  1427.066
 191  971.0526
 192  1117.219
 193  1366.712
 194  1306.238
 195  1586.892
 196  1037.614
 197  1018.564
 198  1557.455
 199  1326.744
 200  1128.178
 201  1109.019
 202  1094.518
 203  1158.672
 204  1161.219
 205  1062.473
 206  1061.611
 207  895.972
 208  1366.729
 209  1900.877
 210  1634.299
 211  1417.692
 212  1503.917
 213  1335.912
 214  1385.55
 215  1533.526
 216  1179.333
 217  1509.741
 218  1383.511
 219  1282.131
 220  1574.014
 221  1481.878
 222  1479.54
 223  1407.078
 224  1566.16
 225  1452.899
 226  1345.325
 227  1267.46
 228  1417.84
 229  830.8913
 230  1322.846
 231  1542.628
 232  1171.911
 233  970.5533
 234  1113.118
 235  1412.991
 236  1187.236
 237  1208.602
 238  1377.88
 239  1744.278
 240  1476.681
 241  1011.492
 242  800.5946
 243  1258.362
 244  1232.733
 245  1034.37
 246  1373.805
 247  1012.154
 248  1487.711
 249  1387.577
 250  1211.478
 251  1340.519
 252  1056.886
 253  940.9786
 254  799.6778
 255  927.5872
 256  1103.634
 257  1428.473
 258  1168.737
 259  1428.651
 260  1388.381
 261  1173.023
 262  1537.329
 263  1474.618
 264  876.5225
 265  924.3167
 266  703.9628
 267  949.3036
 268  1205.719
 269  1638.451
 270  1667.501
 271  1273.791
 272  1024.018
 273  1305.309
 274  1194.703
 275  1332.191
 276  1649.177
 277  1272.367
 278  1284.08
 279  1141.267
 280  1273.928
 281  1415.659
 282  1753.022
 283  1782.647
 284  1135.613
 285  1280.673
 286  1380.237
 287  1253.459
 288  1165.014
 289  1266.078
 290  1225.744
 291  1398.233
 292  1612.672
 293  1568.612
 294  1468.075
 295  1099.754
 296  943.4392
 297  1177.81
 298  1100.656
 299  991.2347
 300  1106.275
 301  1251.791
 302  1191.389
 303  1114.065
 304  1065.234
 305  1445.46
 306  1371.764
 307  1270.834
 308  960.2061
 309  1018.581
 310  810.1106
 311  1123.586
 312  1292.545
 313  1038.177
 314  1173.607
 315  1591.207
 316  1607.668
 317  1368.854
 318  1443.918
 319  1443.071
 320  1536.289
 321  1629.431
 322  1931.142
 323  1818.448
 324  1847.595
 325  1790.199
 326  1723.936
 327  2233.658
 328  2631.325
 329  3135.111
 330  3039.473
 331  2482.193
 332  1901.831
 333  1490.208
 334  1404.363
 335  1228.263
 336  1168.035
 337  1142.455
 338  1166.743
 339  1206.718
 340  1527.109
 341  1583.404
 342  1493.543
 343  1273.809
 344  1431.788
 345  1355.051
 346  1511.833
 347  1362.96
 348  1337.494
 349  1471.257
 350  1035.077
 351  1050.647
 352  1146.303
 353  1032.383
 354  1197.751
 355  1222.769
 356  1477.233
 357  1682.957
 358  1590.499
 359  1463.763
 360  1455.683
 361  1337.095
 362  1490.028
 363  1320.465
 364  1122.378
 365  1485.922
 366  1625.411
 367  1312.059
 368  1219.51
 369  1344.698
 370  1344.623
 371  1284.279
 372  1268.502
 373  1345.017
 374  1146.316
 375  1353.826
 376  1182.812
 377  1049.208
 378  1258.194
 379  1436.046
 380  1216.447
 381  1287.157
 382  1231.416
 383  1392.71
 384  1438.247
 385  1008.885
 386  961.9116
 387  1326.805
 388  1244.202
 389  1062.886
 390  1161.959
 391  1236.853
 392  1088.057
 393  941.7231
 394  1266.339
 395  1391.12
 396  1020.333
 397  667.2049
 398  738.3988
 399  943.3204
 400  1369.288
 401  1043.217
 402  1103.614
 403  1154.501
 404  1520.24
 405  1189.155
 406  857.8762
 407  809.7807
 408  1083.93
 409  1181.219
 410  1304.156
 411  1088.349
 412  955.6729
 413  1019.783
 414  714.9125
 415  873.9711
 416  1034.13
 417  1124.729
 418  906.8136
 419  500.7576
 420  749.4368
 421  1225.176
 422  1357.497
 423  1137.084
 424  1218.502
 425  1032.701
 426  788.2787
 427  1034.025
 428  960.7069
 429  1315.919
 430  1098.098
 431  1019.841
 432  1174.055
 433  867.9504
 434  887.1467
 435  951.7557
 436  1095.221
 437  1064.211
 438  865.327
 439  977.8369
 440  1222.101
 441  1345.258
 442  1010.544
 443  395.7173
 444  718.2393
 445  751.1113
 446  604.939
 447  995.6313
 448  1208.524
 449  1210.831
 450  1002.966
 451  1116.994
 452  768.9627
 453  712.2318
 454  789.63
 455  977.5923
 456  1187.171
 457  1319.621
 458  1363.529
 459  1207.645
 460  630.0023
 461  1029.966
 462  1362.85
 463  1188.866
 464  1301.714
 465  1260.281
 466  1470.307
 467  1294.531
 468  1029.775
 469  798.8096
 470  666.2089
 471  977.1829
 472  879.1729
 473  1292.65
 474  1175.712
 475  1061.561
 476  1027.915
 477  958.311
 478  567.4922
 479  638.1937
 480  1068.925
 481  1444.281
 482  1455.069
 483  1431.342
 484  1486.345
 485  1352.644
 486  1010.799
 487  1042.823
 488  1028.851
 489  1248.789
 490  1627.15
 491  1706.104
 492  1302.11
 493  1331.994
 494  1117.057
 495  1388.101
 496  1341.327
 497  1578.195
 498  1183.651
 499  1137.324
 500  1126.533
 501  862.277
 502  740.9911
 503  1183.609
 504  1317.089
 505  1224.62
 506  1169.575
 507  1194.843
 508  1055.124
 509  679.2238
 510  808.381
 511  714.2737
