# Input file       =  1179906622.097327_cleaned.dat
# Candidate        =  PSR_0332+5434
# Telescope        =  AR
# Epoch_topo       =  57900.326864552393
# Epoch_bary       =  N/A
# T_sample         =  0.002
# Data Folded      =  7340032
# Data Avg         =  0.0849552640897206
# Data StdDev      =  2.79111187574633 
# Profile Bins     =  1024
# Profile Avg      =  608.986430886146 
# Profile StdDev   =  236.306812946682 
# Reduced chi-sqr  =  1.071
# Prob(Noise)      <  0.0559   (~1.6 sigma)
# P_topo (ms)      =  714.521187858482  +/- 0.000374
# P'_topo (s/s)    =  -0                +/- 1.97e-10
# P''_topo (s/s^2) =  0                 +/- 8.71e-14
# P_bary (ms)      =  N/A
# P'_bary (s/s)    =  N/A
# P''_bary (s/s^2) =  N/A
# P_orb (s)        =  N/A
# asin(i)/c (s)    =  N/A
# eccentricity     =  N/A
# w (rad)          =  N/A
# T_peri           =  N/A
######################################################
   0  464.1535
   1  509.1685
   2  520.2707
   3  547.1158
   4  443.1763
   5  434.7119
   6  510.3984
   7  692.0778
   8  711.3221
   9  680.833
  10  536.1008
  11  500.6907
  12  513.2154
  13  563.5986
  14  606.3276
  15  527.4816
  16  537.9627
  17  561.348
  18  589.2261
  19  659.1775
  20  600.8742
  21  572.1857
  22  399.459
  23  349.7426
  24  370.6142
  25  474.1246
  26  439.9136
  27  375.1404
  28  322.7344
  29  363.6
  30  422.3634
  31  460.769
  32  532.438
  33  540.304
  34  492.8187
  35  555.5492
  36  480.4628
  37  451.9484
  38  449.8534
  39  504.6471
  40  463.0463
  41  496.7631
  42  598.3863
  43  639.8048
  44  559.1652
  45  462.8673
  46  443.8987
  47  442.6069
  48  508.7852
  49  611.4841
  50  601.2368
  51  518.6121
  52  482.2404
  53  512.3656
  54  525.2609
  55  434.7589
  56  352.7182
  57  455.0897
  58  495.3042
  59  609.1391
  60  533.4696
  61  555.2803
  62  521.4891
  63  518.2064
  64  482.5628
  65  461.3416
  66  502.33
  67  528.4101
  68  483.1069
  69  500.694
  70  433.685
  71  513.7432
  72  517.0765
  73  530.2057
  74  429.1532
  75  400.6917
  76  410.8994
  77  409.7885
  78  398.2065
  79  323.4966
  80  341.7448
  81  353.0107
  82  465.7065
  83  507.4793
  84  467.7053
  85  439.3555
  86  447.4627
  87  473.8116
  88  484.2659
  89  447.1053
  90  543.5906
  91  601.7559
  92  654.552
  93  695.5376
  94  643.5888
  95  614.3423
  96  590.0201
  97  700.72
  98  768.4921
  99  734.6127
 100  659.0861
 101  592.3611
 102  595.897
 103  599.9449
 104  585.1182
 105  572.1751
 106  649.1932
 107  697.7022
 108  746.2119
 109  715.4101
 110  606.814
 111  535.7002
 112  448.8505
 113  465.6845
 114  467.1515
 115  558.3854
 116  627.2177
 117  669.3915
 118  679.9175
 119  585.4058
 120  615.1816
 121  588.3442
 122  656.9421
 123  547.2209
 124  503.1125
 125  403.3506
 126  466.6957
 127  567.151
 128  600.4116
 129  619.5658
 130  640.6868
 131  656.2839
 132  637.9524
 133  670.51
 134  703.3331
 135  658.5946
 136  614.3321
 137  562.9385
 138  514.7292
 139  551.6044
 140  555.3429
 141  709.0731
 142  735.1188
 143  654.6149
 144  524.8708
 145  475.2433
 146  535.1059
 147  662.8241
 148  735.1145
 149  695.5598
 150  595.9584
 151  583.381
 152  625.0176
 153  744.0211
 154  814.2553
 155  820.0012
 156  768.9664
 157  723.4041
 158  624.235
 159  543.2031
 160  612.331
 161  723.296
 162  671.6401
 163  604.764
 164  513.3896
 165  595.4143
 166  652.8491
 167  705.5472
 168  671.438
 169  576.1818
 170  528.4548
 171  420.6587
 172  368.6079
 173  318.9507
 174  402.6118
 175  424.8753
 176  428.8694
 177  374.6454
 178  435.6028
 179  474.7472
 180  519.2484
 181  609.7564
 182  584.8761
 183  602.5491
 184  543.8154
 185  580.7825
 186  565.9664
 187  558.8905
 188  577.692
 189  609.1545
 190  619.2635
 191  556.3979
 192  454.3015
 193  464.1154
 194  530.2567
 195  543.9302
 196  606.6697
 197  596.1865
 198  559.4689
 199  469.2411
 200  451.3809
 201  457.1668
 202  464.2562
 203  485.5588
 204  473.8927
 205  521.1358
 206  567.9955
 207  599.7695
 208  587.6175
 209  575.313
 210  542.0895
 211  591.8331
 212  623.0355
 213  586.1986
 214  518.9057
 215  533.9938
 216  558.0387
 217  561.7341
 218  618.7061
 219  679.1371
 220  662.3134
 221  640.0807
 222  629.2319
 223  680.7094
 224  712.9564
 225  680.5723
 226  568.2935
 227  561.6048
 228  565.1824
 229  596.7747
 230  595.957
 231  562.1353
 232  601.1661
 233  640.0714
 234  645.6872
 235  572.1979
 236  374.9969
 237  374.0345
 238  392.646
 239  503.6294
 240  468.1122
 241  570.3401
 242  553.0022
 243  634.6484
 244  656.4491
 245  721.5099
 246  615.2816
 247  469.2652
 248  403.6333
 249  514.8004
 250  588.9542
 251  496.027
 252  439.3224
 253  473.4962
 254  565.9384
 255  461.7404
 256  473.6622
 257  506.2822
 258  618.5024
 259  506.2921
 260  397.1317
 261  381.5892
 262  479.4029
 263  570.1343
 264  560.9143
 265  533.6469
 266  510.9704
 267  457.9941
 268  421.2594
 269  369.7712
 270  346.7856
 271  356.5024
 272  410.815
 273  510.0896
 274  565.8913
 275  532.1417
 276  422.4808
 277  476.1164
 278  535.073
 279  527.8167
 280  507.2542
 281  474.1035
 282  568.7684
 283  697.631
 284  730.6637
 285  631.2469
 286  497.2719
 287  429.1405
 288  407.1721
 289  567.1542
 290  774.3372
 291  822.7126
 292  795.1525
 293  728.3751
 294  761.7306
 295  740.6643
 296  804.7567
 297  831.7296
 298  828.5954
 299  838.1815
 300  731.8326
 301  662.0585
 302  715.4353
 303  765.2357
 304  813.7151
 305  827.226
 306  898.0162
 307  788.6857
 308  753.1457
 309  766.3575
 310  924.8607
 311  899.8815
 312  938.0991
 313  855.7857
 314  845.7319
 315  750.1066
 316  701.2739
 317  689.4432
 318  760.9335
 319  813.8677
 320  854.317
 321  844.5381
 322  834.0233
 323  752.504
 324  591.428
 325  540.785
 326  638.8115
 327  745.4704
 328  801.397
 329  722.2538
 330  623.4415
 331  612.6253
 332  727.9131
 333  789.8425
 334  719.7354
 335  720.6211
 336  741.8386
 337  737.244
 338  659.4614
 339  573.2676
 340  533.5485
 341  527.4507
 342  608.275
 343  724.0563
 344  694.0629
 345  587.7103
 346  551.4986
 347  536.0334
 348  599.2035
 349  562.8382
 350  556.789
 351  584.134
 352  639.6973
 353  708.1602
 354  549.5577
 355  391.4626
 356  420.482
 357  635.8805
 358  901.6069
 359  858.8381
 360  665.2758
 361  602.082
 362  591.0573
 363  586.1166
 364  531.9691
 365  593.1682
 366  581.4595
 367  576.72
 368  576.5658
 369  624.2916
 370  638.7911
 371  716.1482
 372  697.1241
 373  553.033
 374  480.5584
 375  527.3564
 376  671.6305
 377  658.8472
 378  613.3323
 379  593.2896
 380  668.239
 381  602.4533
 382  645.764
 383  745.5252
 384  785.3112
 385  803.3385
 386  823.1529
 387  879.8925
 388  775.4048
 389  681.3921
 390  664.3318
 391  591.3084
 392  605.3313
 393  618.005
 394  688.0271
 395  738.0161
 396  738.9631
 397  808.2587
 398  828.4783
 399  861.9004
 400  806.1152
 401  783.6475
 402  797.4453
 403  866.2604
 404  844.6324
 405  823.9218
 406  772.6757
 407  704.9586
 408  706.8107
 409  809.6964
 410  876.5275
 411  821.3417
 412  772.613
 413  760.4832
 414  743.8152
 415  685.4473
 416  703.752
 417  650.1101
 418  666.6526
 419  616.3896
 420  703.4557
 421  652.1449
 422  677.6205
 423  636.5456
 424  692.2279
 425  570.7565
 426  525.9827
 427  492.6037
 428  546.265
 429  527.9968
 430  484.5253
 431  394.0498
 432  352.0477
 433  387.2708
 434  421.4328
 435  520.2873
 436  567.0365
 437  589.7754
 438  561.7932
 439  576.5688
 440  576.218
 441  586.7938
 442  589.3611
 443  642.0213
 444  753.4263
 445  730.5582
 446  687.6476
 447  485.73
 448  492.001
 449  550.5204
 450  633.7897
 451  524.2219
 452  484.1712
 453  522.963
 454  637.6329
 455  710.4355
 456  725.9108
 457  752.9167
 458  790.1544
 459  811.449
 460  697.8365
 461  625.9582
 462  584.5609
 463  629.3982
 464  588.4266
 465  636.8393
 466  684.4149
 467  774.231
 468  785.9142
 469  716.7542
 470  701.7682
 471  682.3378
 472  815.2872
 473  843.3682
 474  851.5286
 475  782.8943
 476  790.0049
 477  671.5988
 478  679.03
 479  760.6872
 480  862.2546
 481  803.1142
 482  768.517
 483  712.6718
 484  661.4807
 485  673.748
 486  672.0743
 487  661.9927
 488  584.0567
 489  531.1642
 490  520.1146
 491  594.9254
 492  727.8364
 493  720.0535
 494  676.7164
 495  700.9214
 496  680.2762
 497  647.0023
 498  639.6116
 499  713.3078
 500  744.0631
 501  645.1183
 502  512.4674
 503  560.9536
 504  699.1799
 505  774.8539
 506  694.7617
 507  638.4218
 508  528.1908
 509  492.4298
 510  496.3527
 511  575.4533
 512  565.3953
 513  550.2558
 514  612.6499
 515  641.3052
 516  557.1977
 517  525.6229
 518  564.2033
 519  717.7388
 520  674.0865
 521  599.9598
 522  621.8896
 523  705.5229
 524  766.1918
 525  742.0323
 526  679.2382
 527  664.0206
 528  654.6245
 529  626.7134
 530  547.7145
 531  617.403
 532  629.7062
 533  692.1317
 534  715.9233
 535  848.5307
 536  753.235
 537  700.5963
 538  687.3703
 539  817.8511
 540  841.2717
 541  789.0525
 542  642.7459
 543  767.7557
 544  905.7225
 545  944.8976
 546  872.3098
 547  778.8957
 548  861.3345
 549  810.2388
 550  806.1935
 551  799.5558
 552  876.1057
 553  871.4708
 554  768.7335
 555  636.1868
 556  677.9214
 557  738.4744
 558  861.2502
 559  898.5667
 560  946.9063
 561  796.1248
 562  667.5032
 563  547.7015
 564  554.4797
 565  600.4962
 566  610.9513
 567  679.8228
 568  761.2195
 569  751.7746
 570  843.4982
 571  841.2289
 572  930.1229
 573  841.1525
 574  742.1208
 575  576.5073
 576  608.5694
 577  688.3617
 578  826.9155
 579  835.1559
 580  824.4277
 581  837.7436
 582  807.6241
 583  796.465
 584  705.1055
 585  804.685
 586  833.7203
 587  853.2352
 588  738.0268
 589  683.0124
 590  711.2458
 591  769.9236
 592  790.8787
 593  860.3875
 594  858.3108
 595  858.2158
 596  655.7597
 597  625.7347
 598  587.7278
 599  692.9894
 600  740.0383
 601  804.5818
 602  742.3915
 603  691.9241
 604  711.5551
 605  736.4749
 606  669.3016
 607  615.7549
 608  573.9053
 609  571.147
 610  532.2457
 611  515.0414
 612  481.7267
 613  462.2389
 614  442.5758
 615  532.909
 616  655.3592
 617  681.1514
 618  602.2863
 619  524.1985
 620  497.1045
 621  509.5696
 622  461.5515
 623  500.9145
 624  476.5952
 625  466.5168
 626  458.8533
 627  626.0296
 628  754.746
 629  744.4915
 630  622.0672
 631  560.1034
 632  600.7236
 633  578.9772
 634  608.5302
 635  651.3939
 636  730.6134
 637  743.3444
 638  692.8546
 639  583.8279
 640  566.1569
 641  549.6185
 642  621.2126
 643  550.2373
 644  553.9769
 645  511.6361
 646  484.8134
 647  514.1351
 648  541.7975
 649  625.2697
 650  606.2462
 651  571.6718
 652  638.8998
 653  619.1443
 654  564.7781
 655  486.9505
 656  479.9656
 657  554.1976
 658  652.7
 659  693.1913
 660  734.8943
 661  691.1969
 662  749.3384
 663  791.3901
 664  816.563
 665  885.9714
 666  801.5419
 667  752.5792
 668  655.3878
 669  646.3857
 670  631.6724
 671  523.0345
 672  434.157
 673  475.718
 674  548.5364
 675  632.8716
 676  614.5797
 677  639.9814
 678  643.9752
 679  589.2858
 680  518.6766
 681  444.7675
 682  479.3804
 683  662.7064
 684  688.7045
 685  709.1617
 686  568.6691
 687  539.1257
 688  507.5062
 689  464.4765
 690  487.6071
 691  442.4403
 692  452.5324
 693  519.1062
 694  616.9244
 695  669.6967
 696  565.6013
 697  396.9872
 698  315.9153
 699  340.6736
 700  458.2613
 701  549.3701
 702  635.8766
 703  733.9599
 704  699.1707
 705  577.0164
 706  377.6684
 707  374.004
 708  486.3333
 709  534.3846
 710  555.3157
 711  538.2197
 712  540.4159
 713  484.0219
 714  449.309
 715  454.3156
 716  436.038
 717  434.7572
 718  473.4051
 719  563.4172
 720  583.0632
 721  600.762
 722  538.3479
 723  524.7983
 724  572.8458
 725  618.03
 726  584.2108
 727  474.84
 728  402.3666
 729  360.0272
 730  462.7233
 731  657.8469
 732  797.4459
 733  717.6157
 734  658.6763
 735  642.2603
 736  721.9572
 737  725.0697
 738  650.8733
 739  498.9792
 740  636.8949
 741  825.0195
 742  925.0683
 743  680.601
 744  428.9989
 745  418.6386
 746  565.2241
 747  701.9337
 748  708.2776
 749  715.4829
 750  932.5421
 751  1001.126
 752  1067.465
 753  1034.18
 754  1228.904
 755  1311.316
 756  1331.457
 757  1235.436
 758  1137.106
 759  1043.421
 760  1021.158
 761  1054.486
 762  1072.872
 763  988.6866
 764  869.3643
 765  724.3948
 766  700.6926
 767  678.759
 768  582.1714
 769  500.3581
 770  448.5676
 771  509.9569
 772  528.197
 773  454.0071
 774  479.7881
 775  484.8953
 776  540.1122
 777  472.6597
 778  452.3907
 779  488.7924
 780  491.4926
 781  534.9556
 782  473.7906
 783  554.511
 784  602.4432
 785  632.8795
 786  644.1929
 787  657.7087
 788  650.7786
 789  663.0935
 790  695.6956
 791  584.9948
 792  424.6658
 793  351.8837
 794  483.0313
 795  505.3164
 796  455.5304
 797  484.7336
 798  648.4374
 799  730.0807
 800  639.7412
 801  521.4399
 802  481.1015
 803  458.602
 804  519.9965
 805  563.3613
 806  636.9623
 807  574.1813
 808  571.762
 809  521.3306
 810  528.6872
 811  558.9407
 812  532.9963
 813  576.5002
 814  606.1893
 815  612.3014
 816  630.9558
 817  596.7003
 818  565.6082
 819  537.626
 820  628.182
 821  665.044
 822  606.4696
 823  589.949
 824  559.6993
 825  613.5424
 826  595.0242
 827  797.7862
 828  835.9777
 829  844.6349
 830  702.0734
 831  564.2821
 832  501.1864
 833  570.5982
 834  701.0721
 835  688.8107
 836  652.5883
 837  655.8699
 838  717.7816
 839  776.9574
 840  733.2932
 841  643.2567
 842  614.8705
 843  607.0901
 844  603.0905
 845  469.614
 846  520.6716
 847  578.9032
 848  660.6948
 849  659.2915
 850  620.2525
 851  638.0184
 852  747.1881
 853  733.3693
 854  625.0016
 855  606.23
 856  606.949
 857  604.8776
 858  512.7636
 859  502.7486
 860  554.9573
 861  526.2374
 862  496.563
 863  530.3209
 864  552.3489
 865  519.2975
 866  492.2227
 867  482.8752
 868  463.9267
 869  370.9224
 870  304.3107
 871  344.3643
 872  364.365
 873  448.708
 874  478.4653
 875  549.9423
 876  581.1126
 877  573.5352
 878  600.33
 879  551.3852
 880  510.7585
 881  406.8899
 882  436.0583
 883  520.3707
 884  542.5885
 885  484.557
 886  405.0536
 887  389.0667
 888  418.3777
 889  561.1348
 890  629.6653
 891  617.376
 892  452.452
 893  428.0479
 894  474.6025
 895  518.9682
 896  491.3094
 897  490.1936
 898  521.4844
 899  519.4078
 900  479.3505
 901  483.4556
 902  453.5259
 903  483.8924
 904  542.3223
 905  591.731
 906  639.8889
 907  584.9495
 908  531.6878
 909  516.0126
 910  571.9298
 911  593.0861
 912  545.527
 913  516.811
 914  561.2278
 915  531.1952
 916  497.6224
 917  507.8529
 918  610.2139
 919  614.8566
 920  518.1025
 921  581.8784
 922  638.3384
 923  688.7705
 924  603.7186
 925  554.0378
 926  580.5794
 927  542.6086
 928  493.0718
 929  388.5555
 930  527.2399
 931  649.3895
 932  679.9793
 933  659.9055
 934  617.561
 935  597.8904
 936  629.8865
 937  681.0224
 938  744.1204
 939  664.5222
 940  613.2989
 941  461.4834
 942  451.1632
 943  469.3914
 944  542.0104
 945  595.3058
 946  614.1851
 947  655.5519
 948  683.5046
 949  665.5832
 950  654.3487
 951  610.0094
 952  638.3077
 953  694.993
 954  717.5721
 955  616.7536
 956  476.5356
 957  354.8247
 958  470.3108
 959  504.5834
 960  551.8266
 961  478.3226
 962  447.2982
 963  546.1246
 964  563.814
 965  646.1707
 966  587.5166
 967  635.0852
 968  609.8497
 969  594.3676
 970  499.1852
 971  550.6757
 972  589.9668
 973  565.2497
 974  526.2473
 975  494.9969
 976  562.5884
 977  528.1155
 978  584.6242
 979  558.239
 980  632.2549
 981  626.5137
 982  639.5562
 983  619.4052
 984  660.2086
 985  644.0228
 986  566.5735
 987  457.0929
 988  484.4991
 989  576.4189
 990  592.5991
 991  588.2628
 992  533.3894
 993  628.2264
 994  655.2196
 995  681.8336
 996  693.424
 997  639.9663
 998  621.9475
 999  562.0497
1000  571.2426
1001  534.9149
1002  555.9084
1003  679.5572
1004  730.006
1005  632.7723
1006  569.6714
1007  534.2983
1008  553.2394
1009  403.8857
1010  331.0797
1011  434.1764
1012  534.9574
1013  502.9979
1014  453.6411
1015  447.227
1016  543.5496
1017  542.237
1018  544.3345
1019  568.903
1020  492.1443
1021  577.92
1022  539.8673
1023  588.5835
