# Input file       =  1179576297.103387_cleaned.dat
# Candidate        =  PSR_0332+5434
# Telescope        =  AR
# Epoch_topo       =  57896.503658604015
# Epoch_bary       =  N/A
# T_sample         =  0.002
# Data Folded      =  7340032
# Data Avg         =  0.0823459280696364
# Data StdDev      =  3.13322962437128 
# Profile Bins     =  512
# Profile Avg      =  1180.47032901704 
# Profile StdDev   =  375.151096591608 
# Reduced chi-sqr  =  0.954
# Prob(Noise)      <  0.767   (~0.0 sigma)
# P_topo (ms)      =  714.525294238763  +/- 0.000444
# P'_topo (s/s)    =  -0                +/- 2.34e-10
# P''_topo (s/s^2) =  0                 +/- 1.03e-13
# P_bary (ms)      =  N/A
# P'_bary (s/s)    =  N/A
# P''_bary (s/s^2) =  N/A
# P_orb (s)        =  N/A
# asin(i)/c (s)    =  N/A
# eccentricity     =  N/A
# w (rad)          =  N/A
# T_peri           =  N/A
######################################################
   0  960.0738
   1  730.3864
   2  1056.999
   3  891.9763
   4  1197.791
   5  1224.158
   6  1360.579
   7  975.9869
   8  1099.062
   9  953.9985
  10  1203.21
  11  1042.173
  12  1046.37
  13  1213.731
  14  1129.605
  15  1164.93
  16  1212.4
  17  1254.871
  18  1315.962
  19  1578.999
  20  1588.784
  21  1546.512
  22  1913.979
  23  1988.636
  24  1636.119
  25  1596.714
  26  1572.762
  27  1141.127
  28  1342.991
  29  1464.441
  30  1428.087
  31  1070.787
  32  1523.352
  33  1179.936
  34  771.5352
  35  974.7353
  36  1346.457
  37  1083.894
  38  962.3708
  39  946.9564
  40  964.9083
  41  1317.059
  42  1682.342
  43  1420.79
  44  1625.78
  45  1801.573
  46  1382.306
  47  1491.748
  48  1418.52
  49  1413.828
  50  1165.197
  51  1508.017
  52  1411.713
  53  1490.928
  54  1343.314
  55  1273.479
  56  1088.079
  57  1425.763
  58  1417.578
  59  1313.113
  60  1234.047
  61  1271.156
  62  1352.15
  63  1068.186
  64  1096.822
  65  1374.592
  66  1252.274
  67  1148.865
  68  1347.225
  69  1374.976
  70  1078.217
  71  1148.191
  72  1063.284
  73  961.249
  74  1186.7
  75  1148.109
  76  1128.18
  77  1391.162
  78  1227.306
  79  995.1882
  80  1128.024
  81  1226.146
  82  867.1747
  83  872.3778
  84  1060.848
  85  915.9096
  86  1136.638
  87  1062.914
  88  1087.859
  89  1210.876
  90  1419.008
  91  1304.31
  92  1176.627
  93  1240.692
  94  1042.61
  95  1331.048
  96  1452.066
  97  1205.86
  98  1533.844
  99  1571.634
 100  1688.172
 101  1267.13
 102  1270.3
 103  1381.321
 104  1378.957
 105  1653.28
 106  1485.756
 107  1466.494
 108  1190.901
 109  944.8442
 110  1469.872
 111  1678.961
 112  1414.454
 113  1108.541
 114  1038.558
 115  1185.029
 116  1080.359
 117  787.694
 118  885.5809
 119  1055.155
 120  1048.638
 121  1120.826
 122  1332.152
 123  1256.945
 124  1492.937
 125  1249.642
 126  1158.781
 127  1202.593
 128  1294.628
 129  1092.102
 130  1109.067
 131  1045.403
 132  1156.957
 133  1388.017
 134  1300.612
 135  1098.992
 136  1105.137
 137  939.2371
 138  931.6697
 139  1085.818
 140  1228.814
 141  1268.504
 142  1057.256
 143  838.345
 144  1021.283
 145  1555.538
 146  1128.926
 147  1107.223
 148  1062.973
 149  977.3467
 150  1059.424
 151  1463.337
 152  1469.503
 153  1164.499
 154  798.9684
 155  1178.982
 156  889.0865
 157  821.824
 158  1136.557
 159  1189.477
 160  1157.001
 161  820.6789
 162  906.2406
 163  1303.449
 164  863.2277
 165  897.9971
 166  982.6625
 167  1054.222
 168  1388.464
 169  1111.043
 170  833.963
 171  1067.472
 172  1022.923
 173  1366.491
 174  1660.062
 175  1488.643
 176  1409.443
 177  1405.8
 178  1288.67
 179  1305.184
 180  1143.756
 181  1284.99
 182  1499.948
 183  1276.723
 184  1399.67
 185  1180.912
 186  1072.099
 187  1364.682
 188  1280.329
 189  1413.445
 190  1747.753
 191  1495.135
 192  1250.959
 193  860.5835
 194  1140.546
 195  1453.248
 196  1228.263
 197  1211.782
 198  1413.72
 199  1536.244
 200  1291.177
 201  1278.176
 202  1286.287
 203  1237.271
 204  1330.289
 205  1188.021
 206  1486.663
 207  1657.222
 208  1599.726
 209  1272.489
 210  1047.501
 211  1314.042
 212  1405.304
 213  963.8105
 214  1270.618
 215  1399.721
 216  1303.26
 217  1161.008
 218  975.8622
 219  1297.603
 220  1259.767
 221  1391.055
 222  1212.144
 223  1158.688
 224  1084.045
 225  1115.853
 226  885.9874
 227  1141.164
 228  1186.308
 229  935.5838
 230  920.8868
 231  1369.917
 232  1231.45
 233  1518.069
 234  1496.75
 235  1357.221
 236  1347.189
 237  1149.479
 238  1041.797
 239  1109.002
 240  1279.476
 241  1281.497
 242  587.2616
 243  753.494
 244  828.7646
 245  761.8361
 246  948.916
 247  880.9894
 248  791.7031
 249  744.4182
 250  835.2861
 251  1077.348
 252  561.7187
 253  761.8024
 254  1179.896
 255  1003.385
 256  1007.578
 257  1112.413
 258  1488.989
 259  1398.01
 260  1231.752
 261  927.771
 262  820.8506
 263  945.0579
 264  913.0176
 265  991.3625
 266  1065.94
 267  1155.894
 268  863.4277
 269  866.9783
 270  1371.185
 271  1294.071
 272  1279.328
 273  1346.117
 274  1306.553
 275  1364.52
 276  1161.439
 277  1489.901
 278  1462.21
 279  1376.971
 280  1231.36
 281  1243.236
 282  1558.796
 283  1449.389
 284  1882.028
 285  1825.891
 286  2265.229
 287  2365.629
 288  2564.095
 289  2284.137
 290  1780.975
 291  1350.236
 292  1001.629
 293  972.8361
 294  1327.367
 295  1285.568
 296  1464.982
 297  1179.161
 298  1107.71
 299  1232.156
 300  1286.952
 301  1289.83
 302  962.934
 303  1001.874
 304  990.1584
 305  1268.517
 306  1282.991
 307  1055.889
 308  947.7225
 309  869.7188
 310  973.1171
 311  851.8137
 312  1001.088
 313  995.306
 314  1217.943
 315  1116.297
 316  1211.389
 317  1104.543
 318  1014.883
 319  852.7621
 320  677.9426
 321  808.2489
 322  736.8422
 323  616.6481
 324  888.9007
 325  754.2479
 326  739.9135
 327  1133.027
 328  1305.591
 329  750.0077
 330  412.3202
 331  746.0383
 332  896.0477
 333  979.6225
 334  1258.675
 335  1309.105
 336  1176.479
 337  1055.214
 338  722.8314
 339  917.2226
 340  747.1813
 341  588.3073
 342  865.2722
 343  975.8932
 344  773.5151
 345  852.3094
 346  1253.461
 347  1373.844
 348  1040.269
 349  1028.315
 350  897.906
 351  1147.372
 352  1208.899
 353  1276.514
 354  1338.75
 355  1310.214
 356  1070.449
 357  1405.156
 358  1224.445
 359  1166.847
 360  917.431
 361  1074.117
 362  938.1315
 363  1215.156
 364  1150.941
 365  1094.066
 366  1105.903
 367  1119.231
 368  1334.478
 369  1581.335
 370  1332.235
 371  1382.684
 372  1452.686
 373  1684.519
 374  1419.644
 375  1303.628
 376  1269.14
 377  827.0162
 378  693.6064
 379  1198.764
 380  993.6133
 381  796.6434
 382  955.7725
 383  1319.679
 384  1261.859
 385  1185.055
 386  1323.637
 387  1208.021
 388  1586.671
 389  1461.412
 390  1467.133
 391  1101.804
 392  1161.693
 393  1046.786
 394  832.4525
 395  1243.563
 396  1186.526
 397  1672.849
 398  1509.865
 399  1316.826
 400  1207.3
 401  1264.087
 402  1298.716
 403  1316.083
 404  1227.688
 405  1076.446
 406  1046.624
 407  1165.812
 408  1021.211
 409  1226.955
 410  1326.956
 411  1102.299
 412  820.3713
 413  804.4349
 414  629.8264
 415  908.6815
 416  795.1043
 417  867.3503
 418  1249.984
 419  1050.454
 420  647.7042
 421  988.0342
 422  1017.203
 423  673.2117
 424  556.9032
 425  659.6274
 426  877.5546
 427  1073.673
 428  843.6039
 429  802.9734
 430  902.1275
 431  891.8347
 432  763.2686
 433  779.7721
 434  931.015
 435  850.7902
 436  901.7726
 437  1168.743
 438  1032.212
 439  962.4915
 440  912.5034
 441  596.7552
 442  1008.67
 443  1216.895
 444  1260.861
 445  1213.11
 446  885.8818
 447  940.5109
 448  1064.074
 449  1115.082
 450  1160.479
 451  1176.263
 452  1263.113
 453  1445.688
 454  1153.326
 455  931.8713
 456  1163.921
 457  1290.751
 458  1639.11
 459  1555.765
 460  1242.216
 461  1377.345
 462  1288.323
 463  1218.887
 464  1391.541
 465  1446.339
 466  1524.453
 467  1371.581
 468  1228.153
 469  1408.756
 470  1178.296
 471  1185.364
 472  1292.986
 473  935.7542
 474  1132.292
 475  1323.219
 476  1372.641
 477  1353.281
 478  1324.426
 479  1193.208
 480  1449.115
 481  1176.031
 482  1167.38
 483  1301.281
 484  1152.386
 485  975.8409
 486  997.4917
 487  1456.621
 488  1439.808
 489  1390.09
 490  1297.473
 491  1192.978
 492  1056.059
 493  1235.852
 494  1053.45
 495  1047.409
 496  1156.396
 497  1073.966
 498  1090.741
 499  1443.324
 500  1290.087
 501  1399.833
 502  1152.478
 503  1311.399
 504  1199.936
 505  935.7759
 506  612.8422
 507  1068.444
 508  1316.574
 509  995.8906
 510  1004.129
 511  1231.421
