# Input file       =  1179403935.110874_cleaned.dat
# Candidate        =  PSR_0332+5434
# Telescope        =  AR
# Epoch_topo       =  57894.508728135115
# Epoch_bary       =  N/A
# T_sample         =  0.002
# Data Folded      =  7340032
# Data Avg         =  0.0764458860545087
# Data StdDev      =  3.14484348316738 
# Profile Bins     =  512
# Profile Avg      =  1096.0013571241  
# Profile StdDev   =  376.541659169315 
# Reduced chi-sqr  =  1.269
# Prob(Noise)      <  3.29e-05   (~4.0 sigma)
# P_topo (ms)      =  714.527260046169  +/- 0.000307
# P'_topo (s/s)    =  -0                +/- 1.62e-10
# P''_topo (s/s^2) =  0                 +/- 7.15e-14
# P_bary (ms)      =  N/A
# P'_bary (s/s)    =  N/A
# P''_bary (s/s^2) =  N/A
# P_orb (s)        =  N/A
# asin(i)/c (s)    =  N/A
# eccentricity     =  N/A
# w (rad)          =  N/A
# T_peri           =  N/A
######################################################
   0  1032.996
   1  1108.501
   2  1330.537
   3  1296.776
   4  1380.12
   5  1432.483
   6  1682.711
   7  1546.381
   8  1355.812
   9  1515.838
  10  1213.164
  11  1083.823
  12  1057.366
  13  1042.951
  14  850.0989
  15  990.5391
  16  1159.921
  17  1230.59
  18  1022.569
  19  1282.027
  20  1428.484
  21  1123.943
  22  851.7824
  23  898.8128
  24  1429.157
  25  1214.116
  26  810.9448
  27  1036.436
  28  942.558
  29  1399.703
  30  1643.004
  31  1308.919
  32  1039.467
  33  1190.812
  34  1068.973
  35  778.2112
  36  685.6132
  37  757.8954
  38  950.5522
  39  1253.389
  40  1219.106
  41  1113.95
  42  1461.086
  43  1434.599
  44  1424.999
  45  1541.191
  46  1549.961
  47  1625.676
  48  1545.391
  49  1290.418
  50  1326.726
  51  1071.734
  52  1165.603
  53  1170.779
  54  1579.843
  55  1588.691
  56  1258.875
  57  1320.53
  58  2200.613
  59  2550.022
  60  2737.635
  61  2843.798
  62  2747.757
  63  1892.623
  64  1434.421
  65  1632.306
  66  1664.616
  67  1330.946
  68  1217.792
  69  1068.499
  70  1407.644
  71  1725.235
  72  1394.07
  73  1580.41
  74  1650.958
  75  1573.546
  76  1319.97
  77  1389.246
  78  1132.523
  79  1543.087
  80  1554.226
  81  1505.263
  82  1385.155
  83  1582.594
  84  1344.246
  85  1218.265
  86  1427.819
  87  1537.39
  88  1050.848
  89  933.7173
  90  961.3792
  91  912.3845
  92  1328.761
  93  1321.348
  94  1550.029
  95  1449.843
  96  1336.216
  97  1423.531
  98  1397.832
  99  1256.073
 100  1198.693
 101  1097.455
 102  882.6967
 103  1000.327
 104  757.6982
 105  833.0947
 106  1103.618
 107  1016.617
 108  856.4914
 109  910.3732
 110  967.6966
 111  1463.435
 112  1563.543
 113  1198.103
 114  1338.402
 115  1285.669
 116  1200.079
 117  1344.699
 118  1363.613
 119  1490.087
 120  1390.488
 121  1220.844
 122  938.2761
 123  1067.972
 124  1069.484
 125  1256.703
 126  990.5558
 127  806.6221
 128  994.6551
 129  1106.175
 130  1123.199
 131  844.0359
 132  1026.78
 133  1195.016
 134  1232.413
 135  1197.974
 136  1284.759
 137  1153.975
 138  1198.587
 139  1486.001
 140  1430.73
 141  1189.607
 142  777.6299
 143  1068.572
 144  1193.1
 145  1444.398
 146  1405.586
 147  1241.25
 148  964.6956
 149  1107.341
 150  1152.092
 151  923.1492
 152  1184.924
 153  914.5878
 154  950.1442
 155  821.3334
 156  971.7438
 157  1025.123
 158  1008.527
 159  1093.606
 160  1442.167
 161  1224.539
 162  995.1373
 163  975.0954
 164  993.042
 165  1126.573
 166  1235.343
 167  1000.796
 168  1098.862
 169  1007.398
 170  1115.591
 171  1137.927
 172  1214.158
 173  1356.718
 174  923.9188
 175  682.2361
 176  726.6506
 177  921.0057
 178  1032.334
 179  615.5212
 180  719.2911
 181  740.9182
 182  556.4079
 183  594.9187
 184  903.1342
 185  589.8336
 186  656.3939
 187  483.2939
 188  621.6768
 189  494.7628
 190  610.521
 191  441.6164
 192  869.1607
 193  702.8456
 194  257.6491
 195  279.3794
 196  338.5747
 197  935.0297
 198  1428.998
 199  839.5624
 200  547.9448
 201  526.9034
 202  1326.158
 203  979.1476
 204  725.311
 205  696.2358
 206  706.7325
 207  818.3391
 208  763.0334
 209  1073.893
 210  1208.998
 211  1065.106
 212  658.0583
 213  964.7454
 214  947.2025
 215  1035.306
 216  897.9915
 217  926.8381
 218  1197.117
 219  1160.528
 220  985.216
 221  1350.278
 222  904.2844
 223  1070.521
 224  833.5466
 225  980.3201
 226  882.3243
 227  1081.609
 228  1456.663
 229  1014.638
 230  870.1316
 231  946.4713
 232  988.7717
 233  1053.158
 234  1097.428
 235  1009.26
 236  717.787
 237  735.5873
 238  1103.766
 239  1214.478
 240  862.9966
 241  931.7827
 242  1450.724
 243  1348.656
 244  840.2424
 245  687.8228
 246  807.6617
 247  1058.195
 248  1102.517
 249  1137.067
 250  1053.184
 251  1196.169
 252  1625.03
 253  1384.754
 254  1293.977
 255  1341.4
 256  1081.986
 257  1163.208
 258  1281.85
 259  1019.751
 260  788.4081
 261  1142.392
 262  1080.206
 263  813.7331
 264  806.7906
 265  854.3768
 266  1170.205
 267  1215.322
 268  1090.394
 269  1105.354
 270  1230.058
 271  1385.572
 272  1194.674
 273  1118.43
 274  762.0057
 275  730.8784
 276  1147.012
 277  1123.161
 278  1031.633
 279  1085.996
 280  1029.736
 281  619.6962
 282  623.0587
 283  949.0552
 284  1163.073
 285  712.2631
 286  902.9784
 287  1386.622
 288  1465.08
 289  1155.447
 290  992.103
 291  1024.407
 292  831.6508
 293  676.4162
 294  1022.107
 295  1041.028
 296  911.0491
 297  1152.115
 298  955.8459
 299  1149.978
 300  1364.412
 301  1330.814
 302  1168.165
 303  1316.173
 304  1272.067
 305  975.9061
 306  1094.786
 307  1171.19
 308  1042.773
 309  1181.117
 310  1233.969
 311  972.0811
 312  724.9838
 313  837.9658
 314  1060.958
 315  1114.345
 316  1409.891
 317  865.3516
 318  1105.942
 319  1322.578
 320  1354.096
 321  1312.713
 322  1301.893
 323  1282.164
 324  1190.148
 325  1191.415
 326  1019.881
 327  1013.404
 328  1070.888
 329  901.0961
 330  828.9872
 331  996.7698
 332  1483.4
 333  1446.798
 334  1128.261
 335  1026.878
 336  1078.614
 337  1272.037
 338  1382.38
 339  1067.406
 340  1095.741
 341  1160.003
 342  1301.806
 343  1379.696
 344  1321.296
 345  1413.716
 346  1581.33
 347  1381.323
 348  1129.466
 349  1135.92
 350  564.629
 351  811.4789
 352  1108.91
 353  1300.458
 354  1151.767
 355  1235.97
 356  947.7651
 357  685.9102
 358  731.7855
 359  738.8085
 360  918.6539
 361  1090.314
 362  1106.705
 363  1174.439
 364  1370.861
 365  1008.811
 366  1015.75
 367  1170.059
 368  1128.224
 369  871.7657
 370  649.7961
 371  718.0946
 372  1043.004
 373  1407.902
 374  1437.021
 375  799.772
 376  642.8789
 377  1061.323
 378  1180.295
 379  1127.01
 380  1408.06
 381  1277.286
 382  1022.235
 383  1326.999
 384  881.178
 385  803.905
 386  785.8239
 387  844.8975
 388  957.0879
 389  1368.769
 390  1121.174
 391  915.1763
 392  1076.589
 393  988.6625
 394  760.6584
 395  930.1341
 396  982.5291
 397  784.6793
 398  983.4242
 399  998.6281
 400  912.9867
 401  947.4421
 402  916.0903
 403  822.8997
 404  828.4193
 405  1019.262
 406  1013.822
 407  1107.69
 408  976.0696
 409  601.4959
 410  521.8367
 411  626.2003
 412  862.5643
 413  796.2789
 414  927.9255
 415  1090.481
 416  683.1008
 417  925.0271
 418  1267.854
 419  1096.726
 420  1254.185
 421  1201.829
 422  1128.257
 423  1034.968
 424  956.0901
 425  624.0002
 426  701.9828
 427  854.4951
 428  547.2548
 429  437.0457
 430  569.0024
 431  707.508
 432  625.1698
 433  929.5983
 434  733.2401
 435  884.7997
 436  691.6711
 437  902.9138
 438  990.1143
 439  1147.711
 440  1380.016
 441  695.1891
 442  938.017
 443  1358.367
 444  1235.912
 445  1187.518
 446  1102.086
 447  1255.276
 448  1136.753
 449  412.956
 450  673.0309
 451  998.5585
 452  456.0054
 453  929.2394
 454  1059.03
 455  863.0903
 456  1093.811
 457  1013.476
 458  766.9836
 459  978.8518
 460  1250.234
 461  1343.283
 462  1132.014
 463  817.1965
 464  1206.047
 465  1280.952
 466  1224.243
 467  1043.703
 468  916.204
 469  1015.068
 470  1275.931
 471  1116.353
 472  1058.999
 473  1090.129
 474  1292.912
 475  1253.859
 476  1238.98
 477  1182.461
 478  1095.58
 479  1324.242
 480  1340.596
 481  1375.179
 482  1274.265
 483  816.1914
 484  908.566
 485  1373.982
 486  1056.657
 487  1002.359
 488  1288.932
 489  1763.629
 490  1406.741
 491  1374.249
 492  1580.554
 493  1272.283
 494  1254.599
 495  1207.59
 496  645.4312
 497  550.9619
 498  885.9015
 499  827.8439
 500  427.4629
 501  633.4783
 502  870.1556
 503  1221.906
 504  1199.564
 505  988.9744
 506  1236.998
 507  1028.666
 508  1132.78
 509  1373.672
 510  1085.259
 511  1278.741
