# Input file       =  1179231636.095346_cleaned.dat
# Candidate        =  PSR_0332+5434
# Telescope        =  AR
# Epoch_topo       =  57892.514526566505
# Epoch_bary       =  N/A
# T_sample         =  0.002
# Data Folded      =  7340032
# Data Avg         =  0.0748424697428293
# Data StdDev      =  3.31922949719389 
# Profile Bins     =  512
# Profile Avg      =  1072.95396964371 
# Profile StdDev   =  397.421426130351 
# Reduced chi-sqr  =  1.045
# Prob(Noise)      <  0.235   (~0.7 sigma)
# P_topo (ms)      =  714.529217879429  +/- 0.000381
# P'_topo (s/s)    =  -0                +/- 2.01e-10
# P''_topo (s/s^2) =  0                 +/- 8.87e-14
# P_bary (ms)      =  N/A
# P'_bary (s/s)    =  N/A
# P''_bary (s/s^2) =  N/A
# P_orb (s)        =  N/A
# asin(i)/c (s)    =  N/A
# eccentricity     =  N/A
# w (rad)          =  N/A
# T_peri           =  N/A
######################################################
   0  1132.947
   1  1255.214
   2  1379.218
   3  1264.306
   4  1068.424
   5  1152.174
   6  1578.471
   7  1929.824
   8  1513.543
   9  968.8948
  10  1174.355
  11  911.856
  12  950.7326
  13  990.2029
  14  1072.714
  15  885.3497
  16  1261.321
  17  844.4044
  18  831.7191
  19  926.9858
  20  1006.982
  21  1283.834
  22  798.0318
  23  1158.816
  24  911.3904
  25  901.1867
  26  955.5013
  27  1169.706
  28  954.9515
  29  878.6444
  30  1004.283
  31  924.6556
  32  1044.942
  33  865.9069
  34  806.4393
  35  881.215
  36  1006.888
  37  1035.661
  38  764.1335
  39  714.6543
  40  564.0208
  41  837.3946
  42  1022.21
  43  1131.692
  44  962.9946
  45  689.3379
  46  1022.243
  47  1030.944
  48  1343.16
  49  1424.287
  50  692.2422
  51  792.5016
  52  1005.381
  53  1199.815
  54  1145.839
  55  1231.21
  56  1397.237
  57  1367.644
  58  1319.279
  59  1242.239
  60  1474.172
  61  1409.116
  62  1205.769
  63  1172.207
  64  1338.895
  65  1244.332
  66  1542.539
  67  1391.65
  68  1149.26
  69  875.4615
  70  889.006
  71  1050.536
  72  959.7604
  73  993.5536
  74  862.7698
  75  1017.596
  76  923.2441
  77  1114.109
  78  1276.222
  79  1114.018
  80  1147.12
  81  1032.912
  82  1286.526
  83  1410.66
  84  1165.679
  85  1511.453
  86  1467.693
  87  1484.891
  88  1760.257
  89  1528.145
  90  1110.653
  91  751.5099
  92  976.6376
  93  1408.576
  94  963.7902
  95  1292.564
  96  1146.26
  97  1032.591
  98  1020.589
  99  938.9172
 100  1133.516
 101  806.7892
 102  912.8792
 103  694.7204
 104  731.5113
 105  1154.264
 106  998.8309
 107  1070.873
 108  748.3435
 109  926.668
 110  918.1534
 111  954.7086
 112  862.423
 113  977.1644
 114  1397.231
 115  1371.112
 116  1219.913
 117  1306.564
 118  731.8456
 119  602.4255
 120  1022.438
 121  1309.753
 122  1364.601
 123  1145.183
 124  1315.153
 125  1216.592
 126  792.9767
 127  906.4183
 128  955.9854
 129  888.6334
 130  1093.565
 131  1108.58
 132  1209.34
 133  1346.566
 134  1512.872
 135  1484.501
 136  1473.241
 137  1317.91
 138  1231.314
 139  1121.191
 140  971.9894
 141  906.6005
 142  1207.893
 143  1358.116
 144  935.9802
 145  1334.788
 146  1609.521
 147  1350.891
 148  1180.905
 149  1192.245
 150  1089.817
 151  1123.868
 152  924.615
 153  803.9015
 154  888.171
 155  950.2902
 156  762.509
 157  682.8267
 158  521.4168
 159  698.0144
 160  839.6147
 161  1062.392
 162  1178.834
 163  907.1118
 164  612.6307
 165  1147.748
 166  1595.83
 167  1306.729
 168  1319.98
 169  1299.426
 170  1061.5
 171  1256.089
 172  1245.864
 173  990.6082
 174  1040.105
 175  821.4793
 176  712.8034
 177  846.027
 178  818.9736
 179  1008.703
 180  783.4781
 181  1154.189
 182  903.5964
 183  993.6339
 184  1135.757
 185  1563.244
 186  2048.499
 187  1368.258
 188  913.7084
 189  844.2048
 190  1251.85
 191  1120.36
 192  931.4772
 193  940.1602
 194  622.8965
 195  559.3235
 196  633.155
 197  914.8291
 198  779.3265
 199  942.1816
 200  1149.686
 201  1112.438
 202  724.3138
 203  1046.325
 204  982.5107
 205  833.1134
 206  796.606
 207  1229.626
 208  785.5295
 209  518.057
 210  589.6838
 211  776.3714
 212  822.5645
 213  547.7658
 214  893.7513
 215  955.9351
 216  913.7505
 217  766.5157
 218  1102.637
 219  1115.69
 220  904.6533
 221  815.7074
 222  798.5042
 223  893.197
 224  661.7938
 225  874.0315
 226  862.06
 227  936.8315
 228  1314.913
 229  1470.462
 230  891.2356
 231  522.3929
 232  811.5195
 233  875.7784
 234  997.1824
 235  723.8986
 236  723.3756
 237  1031.899
 238  973.6758
 239  1055.477
 240  923.7091
 241  988.8114
 242  1204.229
 243  1137.664
 244  890.2267
 245  817.6715
 246  1273.967
 247  1563.249
 248  1021.436
 249  1115.761
 250  1075.085
 251  1060.142
 252  742.6902
 253  1019.048
 254  1345.913
 255  1391.87
 256  1316.727
 257  1088.074
 258  1035.855
 259  983.1705
 260  962.303
 261  1202.302
 262  1136.986
 263  1249.225
 264  1040.757
 265  707.3054
 266  985.6509
 267  665.9769
 268  1195.967
 269  1366.565
 270  1137.029
 271  1255.921
 272  1411.655
 273  1212.96
 274  1107.534
 275  1411.026
 276  1164.896
 277  930.1226
 278  926.1735
 279  1123.346
 280  1093.36
 281  1125.892
 282  1273.183
 283  1098.573
 284  923.4863
 285  783.2122
 286  1002.726
 287  793.1917
 288  564.7218
 289  399.9793
 290  437.7371
 291  747.2616
 292  627.6538
 293  430.2734
 294  509.9344
 295  563.5659
 296  1094.856
 297  1152.835
 298  1089.916
 299  1049.761
 300  953.6257
 301  896.8133
 302  935.549
 303  950.6833
 304  1088.59
 305  692.7653
 306  793.7313
 307  1048.636
 308  941.4172
 309  1233.522
 310  1270.373
 311  1255.665
 312  1250.006
 313  1044.756
 314  798.2353
 315  1340.312
 316  960.8818
 317  819.0219
 318  800.5665
 319  1183.071
 320  1106.332
 321  1204.163
 322  1552.386
 323  975.8488
 324  1280.85
 325  1627.793
 326  1965.483
 327  2364.101
 328  2768.639
 329  2915.168
 330  2592.246
 331  2312.652
 332  1714.567
 333  1140.828
 334  1248.565
 335  1271.104
 336  1182.315
 337  720.0936
 338  1160.493
 339  1077.533
 340  1061.531
 341  1263.687
 342  1374.689
 343  1030.575
 344  957.3032
 345  1065.989
 346  820.1519
 347  1079.114
 348  1081.637
 349  935.7537
 350  688.77
 351  992.4405
 352  1051.266
 353  938.1769
 354  1165.528
 355  1055.536
 356  950.0468
 357  929.1224
 358  572.8127
 359  846.0231
 360  955.7507
 361  706.1295
 362  1089.797
 363  1198.458
 364  1178.267
 365  963.6791
 366  856.1526
 367  937.0641
 368  1035.749
 369  1135.014
 370  1282.882
 371  959.5123
 372  1006.322
 373  631.8207
 374  915.4265
 375  1039.487
 376  1326.304
 377  1395.327
 378  1237.444
 379  1306.152
 380  964.7684
 381  1216.341
 382  1254.964
 383  1404.946
 384  852.5982
 385  968.9576
 386  1230.508
 387  1022.669
 388  670.0952
 389  952.551
 390  1010.889
 391  818.8074
 392  885.3984
 393  1183.15
 394  1143.397
 395  1098.388
 396  919.9331
 397  876.8177
 398  608.8682
 399  670.7632
 400  609.7417
 401  857.0579
 402  1040.665
 403  1392.264
 404  850.0656
 405  573.9024
 406  900.0222
 407  880.2015
 408  1069.745
 409  598.7545
 410  584.0729
 411  769.1885
 412  714.8099
 413  946.9353
 414  1048.996
 415  1337.374
 416  736.7632
 417  733.5974
 418  783.3502
 419  806.4515
 420  1017.778
 421  1071.635
 422  996.8172
 423  857.8001
 424  861.8
 425  1217.421
 426  1495.535
 427  1354.233
 428  1518.405
 429  1240.841
 430  774.7068
 431  698.8027
 432  1019.135
 433  1437.405
 434  1232.779
 435  1045.069
 436  620.3513
 437  839.9041
 438  1003.39
 439  1175.443
 440  948.0096
 441  1053.678
 442  1423.076
 443  1046.792
 444  663.1893
 445  970.7353
 446  961.8884
 447  1401.25
 448  1229.068
 449  788.8619
 450  914.9778
 451  964.869
 452  993.1406
 453  1066.146
 454  1129.048
 455  1203.902
 456  1252.442
 457  1209.628
 458  1313.981
 459  1053.245
 460  823.7796
 461  1340.098
 462  881.4796
 463  1046.339
 464  923.6412
 465  894.7233
 466  1288.844
 467  1409.548
 468  1017.986
 469  1435.746
 470  1238.392
 471  1016.796
 472  1092.936
 473  1428.335
 474  1332.406
 475  1147.708
 476  1089.527
 477  992.7288
 478  1309.055
 479  1334.624
 480  1382.717
 481  1339.573
 482  1263.537
 483  1033.441
 484  1404.63
 485  1491.69
 486  1450.623
 487  1344.224
 488  1197.447
 489  852.8294
 490  1195.648
 491  1515.644
 492  1454.427
 493  1521.807
 494  1606.969
 495  1230.713
 496  1122.951
 497  1178.014
 498  1239.561
 499  1583.481
 500  988.2156
 501  1080.073
 502  918.5086
 503  1023.187
 504  1142.943
 505  733.27
 506  1086.2
 507  1109.053
 508  1453.512
 509  1237.228
 510  1291.217
 511  1238.122
