# Input file       =  1179820436.100343_cleaned.dat
# Candidate        =  PSR_0332+5434
# Telescope        =  AR
# Epoch_topo       =  57899.329341439152
# Epoch_bary       =  N/A
# T_sample         =  0.002
# Data Folded      =  7340032
# Data Avg         =  0.0866743985898213
# Data StdDev      =  2.70619467116101 
# Profile Bins     =  1024
# Profile Avg      =  621.296508771194 
# Profile StdDev   =  229.117379175048 
# Reduced chi-sqr  =  0.886
# Prob(Noise)      <  0.996   (~0.0 sigma)
# P_topo (ms)      =  714.522173890821  +/- 0.000751
# P'_topo (s/s)    =  -0                +/- 3.96e-10
# P''_topo (s/s^2) =  0                 +/- 1.75e-13
# P_bary (ms)      =  N/A
# P'_bary (s/s)    =  N/A
# P''_bary (s/s^2) =  N/A
# P_orb (s)        =  N/A
# asin(i)/c (s)    =  N/A
# eccentricity     =  N/A
# w (rad)          =  N/A
# T_peri           =  N/A
######################################################
   0  640.3123
   1  620.3909
   2  686.4763
   3  799.8303
   4  650.5574
   5  577.85
   6  568.3375
   7  653.9473
   8  592.4776
   9  537.0973
  10  574.8529
  11  598.0104
  12  649.8546
  13  737.1079
  14  820.6296
  15  790.5403
  16  701.3569
  17  561.4098
  18  541.7112
  19  598.3845
  20  661.9025
  21  659.2982
  22  619.6545
  23  628.9236
  24  596.2034
  25  519.0515
  26  499.4855
  27  522.6317
  28  525.2693
  29  477.1374
  30  518.4214
  31  621.1533
  32  679.3522
  33  554.4979
  34  494.9489
  35  552.5002
  36  618.9548
  37  623.8653
  38  599.59
  39  645.4467
  40  730.9921
  41  714.6202
  42  667.1144
  43  668.6104
  44  753.7448
  45  825.0848
  46  786.3373
  47  729.9531
  48  662.3088
  49  697.5392
  50  770.675
  51  727.9245
  52  663.3046
  53  632.7892
  54  666.1089
  55  665.2205
  56  640.5023
  57  570.4777
  58  488.5258
  59  520.5311
  60  658.9734
  61  722.7007
  62  695.4523
  63  580.9861
  64  512.5035
  65  551.6653
  66  716.0067
  67  827.6741
  68  789.8137
  69  710.5589
  70  673.5024
  71  715.154
  72  692.8594
  73  586.5103
  74  506.1914
  75  602.7068
  76  704.6898
  77  714.9669
  78  626.9592
  79  617.6457
  80  565.3383
  81  479.2885
  82  462.7236
  83  555.9264
  84  565.386
  85  544.2048
  86  595.0544
  87  759.6085
  88  835.3528
  89  750.7618
  90  577.4833
  91  574.4813
  92  688.8445
  93  704.6666
  94  636.9941
  95  614.6604
  96  645.9601
  97  551.3735
  98  496.6147
  99  562.0449
 100  784.73
 101  881.4055
 102  836.8784
 103  762.9117
 104  840.1987
 105  758.7838
 106  604.7786
 107  461.5338
 108  550.5639
 109  576.4155
 110  580.6516
 111  644.9208
 112  662.2973
 113  611.2325
 114  620.2424
 115  659.7837
 116  620.8392
 117  623.4072
 118  726.2745
 119  732.0126
 120  641.8516
 121  578.2762
 122  622.551
 123  589.0032
 124  543.8256
 125  512.1941
 126  574.9484
 127  575.8294
 128  523.189
 129  533.859
 130  582.569
 131  676.1655
 132  703.679
 133  722.9443
 134  683.8551
 135  546.1872
 136  607.1603
 137  640.2612
 138  644.0768
 139  633.8101
 140  674.5488
 141  694.3394
 142  709.6409
 143  753.7642
 144  728.699
 145  662.5879
 146  621.8705
 147  637.3329
 148  727.4845
 149  745.1631
 150  697.7082
 151  585.9668
 152  502.2533
 153  518.3619
 154  511.3302
 155  563.7255
 156  644.567
 157  692.183
 158  621.4896
 159  544.2172
 160  534.6681
 161  567.2832
 162  639.3069
 163  688.4419
 164  694.6035
 165  647.9738
 166  606.4227
 167  664.3784
 168  694.7052
 169  618.1622
 170  513.2255
 171  432.4116
 172  458.9654
 173  445.8712
 174  488.6264
 175  592.5557
 176  641.4069
 177  651.1511
 178  562.0277
 179  548.6378
 180  458.6798
 181  360.3211
 182  307.9753
 183  422.4198
 184  602.1758
 185  614.5226
 186  525.7288
 187  464.1574
 188  388.5059
 189  411.5099
 190  443.7378
 191  584.1018
 192  539.0084
 193  581.4563
 194  611.5759
 195  697.7177
 196  681.5487
 197  656.6071
 198  547.5991
 199  494.3387
 200  582.5276
 201  595.5915
 202  563.5605
 203  429.6991
 204  426.5309
 205  435.9638
 206  544.6551
 207  596.8062
 208  709.2397
 209  676.7646
 210  613.465
 211  602.7081
 212  655.854
 213  699.6606
 214  686.8647
 215  595.4818
 216  722.3121
 217  711.2661
 218  759.3438
 219  489.3636
 220  485.9741
 221  589.3257
 222  577.2317
 223  473.1655
 224  395.9202
 225  472.3393
 226  564.6495
 227  479.0054
 228  450.0644
 229  441.3867
 230  543.7319
 231  580.236
 232  636.7946
 233  642.957
 234  674.1251
 235  646.4554
 236  754.527
 237  664.0718
 238  652.6588
 239  540.1754
 240  717.9083
 241  784.1956
 242  753.5341
 243  652.0607
 244  639.2865
 245  790.1049
 246  716.6282
 247  605.6938
 248  478.5831
 249  575.1049
 250  760.4963
 251  812.1027
 252  763.1937
 253  620.1123
 254  636.7038
 255  603.2647
 256  619.9608
 257  629.8929
 258  660.1003
 259  700.7135
 260  592.9722
 261  562.9492
 262  486.9513
 263  531.7492
 264  553.9246
 265  576.5549
 266  585.8705
 267  585.4811
 268  570.1691
 269  509.4732
 270  445.2994
 271  492.9293
 272  527.163
 273  608.3561
 274  654.612
 275  727.423
 276  666.9705
 277  571.0182
 278  475.1076
 279  539.8531
 280  463.0105
 281  522.6707
 282  508.07
 283  598.1578
 284  445.5562
 285  380.8617
 286  374.746
 287  428.0529
 288  402.2904
 289  374.6524
 290  439.6498
 291  468.948
 292  542.2828
 293  639.119
 294  698.5865
 295  737.5547
 296  661.9163
 297  678.2058
 298  657.0256
 299  704.4385
 300  708.5074
 301  619.8659
 302  532.6414
 303  473.6382
 304  571.3895
 305  589.4504
 306  605.0178
 307  607.399
 308  582.9011
 309  535.5761
 310  534.0519
 311  584.4402
 312  609.6473
 313  593.3608
 314  651.2109
 315  612.4964
 316  542.4022
 317  479.2309
 318  455.4228
 319  516.249
 320  590.1198
 321  713.9463
 322  651.9765
 323  689.4577
 324  613.3064
 325  564.1722
 326  535.7357
 327  674.8738
 328  766.6661
 329  786.168
 330  704.2289
 331  746.8002
 332  751.9099
 333  797.7007
 334  780.0948
 335  732.8395
 336  653.4454
 337  563.7961
 338  445.7757
 339  345.6371
 340  389.0552
 341  489.6268
 342  575.6785
 343  579.6622
 344  638.1244
 345  673.4164
 346  659.3093
 347  576.4491
 348  543.7529
 349  586.7297
 350  683.6708
 351  635.0066
 352  637.8549
 353  705.9803
 354  668.2326
 355  566.7437
 356  441.9001
 357  425.9323
 358  438.6113
 359  518.2447
 360  632.4753
 361  592.9399
 362  513.7729
 363  420.8564
 364  418.0359
 365  444.254
 366  565.6434
 367  593.2638
 368  505.4957
 369  432.8347
 370  384.3233
 371  346.4264
 372  400.8446
 373  538.7328
 374  517.1436
 375  415.1894
 376  347.9973
 377  409.3215
 378  458.9957
 379  406.231
 380  483.6791
 381  471.8638
 382  556.889
 383  516.6243
 384  623.3546
 385  536.7292
 386  480.9304
 387  499.1899
 388  641.8958
 389  741.2374
 390  653.4073
 391  497.5481
 392  468.1535
 393  438.5541
 394  440.0582
 395  392.0407
 396  442.4333
 397  463.5876
 398  512.9813
 399  633.0645
 400  657.1014
 401  713.1851
 402  646.5087
 403  637.1582
 404  590.8163
 405  612.5643
 406  616.3501
 407  588.6918
 408  671.639
 409  606.5115
 410  485.7497
 411  383.8527
 412  475.3335
 413  579.2086
 414  691.0723
 415  745.7032
 416  818.1237
 417  814.7896
 418  777.0833
 419  620.3655
 420  456.3543
 421  390.7991
 422  490.136
 423  426.7354
 424  357.2086
 425  383.8053
 426  478.5149
 427  540.0038
 428  416.7328
 429  445.0806
 430  552.0026
 431  728.0067
 432  816.7363
 433  734.3892
 434  683.2543
 435  708.4619
 436  703.6307
 437  683.9565
 438  589.1071
 439  566.8164
 440  563.9864
 441  607.2859
 442  617.5337
 443  550.71
 444  513.9523
 445  588.97
 446  618.1547
 447  606.7155
 448  552.5731
 449  629.4265
 450  657.157
 451  604.8929
 452  450.2033
 453  384.8134
 454  409.9146
 455  532.6169
 456  637.3839
 457  690.4081
 458  740.1412
 459  760.5342
 460  773.6343
 461  764.4754
 462  682.7606
 463  661.5637
 464  633.442
 465  744.8428
 466  751.9997
 467  755.0851
 468  653.2012
 469  641.4048
 470  678.8223
 471  603.0193
 472  645.5156
 473  728.2126
 474  849.3943
 475  747.8755
 476  595.6982
 477  534.8371
 478  566.0646
 479  653.1644
 480  692.0812
 481  722.9856
 482  628.2283
 483  529.7092
 484  462.9927
 485  559.4905
 486  641.406
 487  757.8046
 488  766.9964
 489  666.1459
 490  537.3073
 491  540.3297
 492  686.4829
 493  765.9527
 494  860.9576
 495  880.8568
 496  882.581
 497  779.8888
 498  669.1132
 499  663.7329
 500  721.7571
 501  772.0642
 502  783.5093
 503  827.5623
 504  729.292
 505  666.3088
 506  597.4239
 507  646.2485
 508  680.0648
 509  627.4697
 510  625.4194
 511  637.345
 512  686.4148
 513  689.0482
 514  635.8297
 515  671.8393
 516  659.318
 517  528.8989
 518  487.4767
 519  457.4698
 520  464.8148
 521  482.5748
 522  525.0772
 523  499.9311
 524  434.9666
 525  575.2323
 526  749.8312
 527  747.749
 528  536.3197
 529  454.421
 530  471.5392
 531  529.039
 532  481.6465
 533  452.4731
 534  504.1248
 535  600.2017
 536  623.6918
 537  537.955
 538  515.8997
 539  483.6382
 540  530.6466
 541  567.3223
 542  605.1044
 543  617.2575
 544  553.6965
 545  573.8432
 546  584.895
 547  561.0952
 548  536.5716
 549  559.5043
 550  590.1788
 551  480.9711
 552  492.7177
 553  552.7739
 554  585.9426
 555  528.3757
 556  413.5447
 557  422.1815
 558  460.3156
 559  443.856
 560  439.6013
 561  376.3721
 562  382.6789
 563  437.0657
 564  462.9696
 565  418.2248
 566  422.7032
 567  478.9999
 568  640.1298
 569  726.8643
 570  739.5675
 571  625.6564
 572  553.363
 573  557.1755
 574  472.6998
 575  387.2399
 576  371.1036
 577  387.6427
 578  381.1658
 579  383.1992
 580  507.2661
 581  534.303
 582  519.4563
 583  520.5842
 584  519.4554
 585  477.2104
 586  450.8145
 587  523.226
 588  551.4222
 589  529.8398
 590  529.9796
 591  581.6301
 592  615.1965
 593  637.4109
 594  677.9241
 595  697.4013
 596  648.5774
 597  621.5532
 598  585.97
 599  601.3143
 600  583.5404
 601  680.114
 602  777.7664
 603  781.2578
 604  758.6589
 605  725.1729
 606  689.0048
 607  608.2762
 608  604.133
 609  602.1125
 610  647.2581
 611  594.844
 612  667.6277
 613  692.3007
 614  682.9659
 615  663.7258
 616  540.7317
 617  481.1829
 618  500.055
 619  581.5155
 620  510.3078
 621  486.12
 622  544.7695
 623  662.5719
 624  627.85
 625  533.7753
 626  528.6482
 627  565.0588
 628  666.4302
 629  699.2887
 630  672.3281
 631  582.1017
 632  495.2848
 633  414.9204
 634  511.2503
 635  540.8714
 636  571.8018
 637  464.8416
 638  602.4548
 639  673.7767
 640  718.2346
 641  603.9714
 642  597.2952
 643  536.8477
 644  581.0457
 645  588.2337
 646  614.2944
 647  604.4294
 648  727.8896
 649  741.8665
 650  695.358
 651  591.9542
 652  472.0385
 653  432.4426
 654  539.4829
 655  612.8564
 656  655.5674
 657  613.7585
 658  671.6568
 659  651.2769
 660  594.0899
 661  532.3514
 662  449.8403
 663  471.5974
 664  489.4697
 665  562.7369
 666  585.9115
 667  649.8108
 668  607.2403
 669  574.873
 670  501.7034
 671  538.0406
 672  516.468
 673  460.6952
 674  418.3852
 675  467.9253
 676  562.8956
 677  569.2695
 678  657.9366
 679  691.7631
 680  688.6459
 681  640.9348
 682  561.7983
 683  541.8386
 684  442.5424
 685  485.3672
 686  498.8645
 687  534.3638
 688  553.8865
 689  541.7173
 690  603.2949
 691  676.8743
 692  682.7188
 693  662.2991
 694  649.9094
 695  680.0035
 696  774.4864
 697  656.6232
 698  673.593
 699  650.092
 700  721.08
 701  667.5309
 702  625.7748
 703  630.9193
 704  686.1168
 705  674.0571
 706  628.1826
 707  509.0822
 708  509.0785
 709  496.1006
 710  618.14
 711  631.1693
 712  666.32
 713  649.4334
 714  769.3807
 715  876.954
 716  856.0601
 717  764.0947
 718  725.7833
 719  802.4987
 720  771.5939
 721  754.1732
 722  707.0231
 723  672.6705
 724  637.8614
 725  618.1205
 726  616.9037
 727  631.9208
 728  690.8165
 729  684.7868
 730  634.1571
 731  573.9008
 732  645.9247
 733  628.7085
 734  517.7522
 735  508.9107
 736  576.4355
 737  564.28
 738  511.7126
 739  543.1642
 740  652.472
 741  702.5905
 742  697.7451
 743  759.1327
 744  752.5883
 745  710.4662
 746  684.7593
 747  596.7172
 748  689.0342
 749  702.0801
 750  763.5512
 751  746.784
 752  785.463
 753  945.4644
 754  1109.764
 755  1101.043
 756  1061.635
 757  1010.602
 758  1054.482
 759  1080.636
 760  1052.05
 761  1051.269
 762  872.5795
 763  759.0363
 764  670.257
 765  619.6559
 766  650.9836
 767  753.3013
 768  726.1289
 769  643.5017
 770  624.6784
 771  731.0952
 772  748.7243
 773  642.8058
 774  709.2189
 775  701.1073
 776  675.7365
 777  488.1461
 778  479.2522
 779  526.8754
 780  530.3419
 781  546.5764
 782  571.2081
 783  670.2463
 784  741.3392
 785  865.7399
 786  799.5974
 787  786.8984
 788  704.5789
 789  804.8699
 790  865.0602
 791  987.1241
 792  893.1954
 793  780.0533
 794  700.2707
 795  704.3794
 796  659.8447
 797  695.1789
 798  784.1949
 799  759.4175
 800  735.7737
 801  704.8188
 802  649.2934
 803  628.0384
 804  651.2061
 805  774.9141
 806  807.5428
 807  819.0058
 808  822.4388
 809  870.0745
 810  862.3356
 811  785.8505
 812  717.4214
 813  665.9005
 814  657.9351
 815  702.9845
 816  760.8012
 817  815.5001
 818  809.9743
 819  716.6503
 820  715.6011
 821  691.343
 822  813.8962
 823  754.1592
 824  768.0931
 825  709.3634
 826  773.0426
 827  785.8111
 828  814.4604
 829  811.0559
 830  798.2745
 831  754.9326
 832  664.3726
 833  605.4598
 834  600.9977
 835  705.2604
 836  843.0442
 837  969.0883
 838  884.3574
 839  900.1881
 840  829.5941
 841  814.101
 842  724.6118
 843  743.3884
 844  833.1428
 845  853.3749
 846  807.518
 847  745.6586
 848  669.0319
 849  710.6695
 850  732.2937
 851  756.2715
 852  785.8727
 853  843.96
 854  848.6611
 855  787.34
 856  776.7808
 857  820.1638
 858  807.9071
 859  717.1906
 860  651.5142
 861  644.9108
 862  618.4369
 863  583.3307
 864  513.6872
 865  503.3501
 866  545.5174
 867  682.7901
 868  747.3154
 869  764.8392
 870  754.0334
 871  644.8734
 872  546.6238
 873  489.4381
 874  571.0033
 875  632.9675
 876  650.253
 877  636.0488
 878  711.7634
 879  778.8779
 880  760.386
 881  714.3199
 882  691.8555
 883  811.8763
 884  866.8246
 885  835.3244
 886  777.9655
 887  706.6738
 888  665.0614
 889  714.3226
 890  733.1107
 891  835.9881
 892  805.7673
 893  751.4648
 894  712.0507
 895  679.5565
 896  777.6411
 897  657.7786
 898  685.1581
 899  645.4569
 900  659.0197
 901  609.8341
 902  609.4351
 903  683.3495
 904  759.0622
 905  710.165
 906  702.0644
 907  692.9008
 908  800.9936
 909  741.5799
 910  692.7211
 911  557.6535
 912  530.4601
 913  555.7746
 914  669.3964
 915  660.4035
 916  691.8387
 917  650.9182
 918  639.0019
 919  608.6989
 920  652.961
 921  659.1203
 922  641.9435
 923  606.5159
 924  537.4858
 925  436.9664
 926  434.3266
 927  536.0251
 928  617.7512
 929  562.2498
 930  551.7355
 931  593.9884
 932  710.8303
 933  725.3741
 934  720.0056
 935  680.7175
 936  642.8113
 937  522.5392
 938  511.2173
 939  518.2872
 940  562.6955
 941  549.1411
 942  564.8115
 943  649.094
 944  661.5498
 945  616.8139
 946  489.6182
 947  408.7137
 948  414.7876
 949  486.4145
 950  507.1238
 951  466.0615
 952  506.7743
 953  536.5085
 954  587.5072
 955  522.536
 956  599.7139
 957  734.1774
 958  771.7489
 959  666.8712
 960  538.6532
 961  544.5643
 962  527.3233
 963  499.2863
 964  471.6297
 965  534.1145
 966  545.8801
 967  630.1973
 968  604.8076
 969  666.1826
 970  617.4308
 971  629.6988
 972  497.1824
 973  494.9095
 974  551.9
 975  521.4344
 976  480.5567
 977  402.9848
 978  398.1245
 979  415.0979
 980  481.5053
 981  517.4557
 982  568.5753
 983  508.136
 984  614.7213
 985  561.2785
 986  469.6332
 987  470.4637
 988  544.8167
 989  703.6165
 990  707.942
 991  777.217
 992  727.7296
 993  617.8062
 994  566.2671
 995  580.1141
 996  585.1452
 997  565.5382
 998  581.259
 999  562.7811
1000  633.6488
1001  760.0986
1002  880.9147
1003  783.4498
1004  594.6346
1005  507.3321
1006  552.112
1007  650.8313
1008  687.6239
1009  718.0502
1010  680.826
1011  631.6559
1012  615.0104
1013  670.6983
1014  648.0263
1015  672.2291
1016  683.0131
1017  742.9079
1018  726.0634
1019  648.5096
1020  566.5026
1021  475.0456
1022  614.2122
1023  676.5922
