# Input file       =  1179216699.106159_cleaned.dat
# Candidate        =  PSR_0332+5434
# Telescope        =  AR
# Epoch_topo       =  57892.341644747212
# Epoch_bary       =  N/A
# T_sample         =  0.002
# Data Folded      =  7340032
# Data Avg         =  0.0821876156301839
# Data StdDev      =  2.85322081888357 
# Profile Bins     =  512
# Profile Avg      =  1178.36650809861 
# Profile StdDev   =  341.624792098333 
# Reduced chi-sqr  =  0.950
# Prob(Noise)      <  0.785   (~0.0 sigma)
# P_topo (ms)      =  714.529052728401  +/- 0.000182
# P'_topo (s/s)    =  -0                +/- 9.63e-11
# P''_topo (s/s^2) =  0                 +/- 4.25e-14
# P_bary (ms)      =  N/A
# P'_bary (s/s)    =  N/A
# P''_bary (s/s^2) =  N/A
# P_orb (s)        =  N/A
# asin(i)/c (s)    =  N/A
# eccentricity     =  N/A
# w (rad)          =  N/A
# T_peri           =  N/A
######################################################
   0  934.6835
   1  1106.969
   2  1481.195
   3  1054.201
   4  882.3961
   5  1086.437
   6  1546.163
   7  1436.704
   8  909.617
   9  1164.42
  10  1160.776
  11  1076.498
  12  962.9708
  13  896.3305
  14  1068.382
  15  1039.244
  16  937.3538
  17  1071.445
  18  1313.438
  19  1302.298
  20  1257.031
  21  1403.097
  22  1187.908
  23  1506.065
  24  1054.102
  25  961.2417
  26  1141.88
  27  922.358
  28  1087.451
  29  1017.986
  30  1654.965
  31  1697.945
  32  1514.844
  33  1358.542
  34  1281.939
  35  1235.897
  36  1176.26
  37  1157.688
  38  1142.899
  39  1247.483
  40  1344.969
  41  1123.349
  42  840.0381
  43  888.037
  44  1301.982
  45  1438.216
  46  1402.053
  47  1271.934
  48  987.261
  49  1084.427
  50  1165.053
  51  1232.296
  52  1460.045
  53  1336.391
  54  1188.64
  55  1013.348
  56  1343.349
  57  1009.719
  58  1138.871
  59  1226.813
  60  1141.551
  61  1246.471
  62  1286.924
  63  1117.062
  64  843.543
  65  1217.257
  66  1247.55
  67  1305.458
  68  1618.102
  69  1305.59
  70  842.8018
  71  1114.702
  72  1352.852
  73  1228.497
  74  1365.208
  75  1606.198
  76  1445.996
  77  1076.708
  78  1235.803
  79  1285.445
  80  928.0126
  81  982.7016
  82  1107.718
  83  1011.956
  84  953.8546
  85  1189.523
  86  1251.589
  87  1187.93
  88  873.4818
  89  735.7947
  90  1060.46
  91  908.9255
  92  885.8214
  93  926.0953
  94  1011.456
  95  1312.959
  96  1175.454
  97  1253.461
  98  824.3325
  99  585.1682
 100  951.2075
 101  888.8796
 102  907.2401
 103  906.1994
 104  1025.213
 105  1342.224
 106  1233.045
 107  967.9556
 108  1135.029
 109  1028.872
 110  1409.276
 111  1263.407
 112  1049.251
 113  1434.912
 114  1487.805
 115  1091.926
 116  1297.885
 117  1177.77
 118  1255.534
 119  1205.484
 120  1316.225
 121  1443.401
 122  1641.877
 123  1473.687
 124  1115.115
 125  722.831
 126  1208.248
 127  1017.65
 128  1035.651
 129  1183.049
 130  1083.267
 131  989.5497
 132  834.0396
 133  1180.849
 134  1036.294
 135  879.8271
 136  899.7548
 137  1176.02
 138  970.7376
 139  976.0088
 140  876.1778
 141  827.4835
 142  930.6506
 143  1278.737
 144  1076.776
 145  840.8281
 146  1028.536
 147  1215.127
 148  1346.772
 149  1382.632
 150  1452.836
 151  1275.967
 152  1264.953
 153  1144.461
 154  1121.353
 155  1302.467
 156  1432.252
 157  1488.392
 158  1223.672
 159  1081.431
 160  1234.419
 161  1254.098
 162  1362.226
 163  1368.967
 164  1363.217
 165  1095.929
 166  1283.894
 167  1189.81
 168  1157.284
 169  968.3387
 170  1116.814
 171  1037.648
 172  1001.51
 173  1156.715
 174  1302.109
 175  1175.407
 176  930.8962
 177  882.7314
 178  954.8498
 179  1167.129
 180  1238.474
 181  1105.049
 182  1267.197
 183  1192.644
 184  1015.832
 185  671.2414
 186  837.9904
 187  902.9607
 188  1141.675
 189  1171.663
 190  1103.673
 191  1068.948
 192  1013.089
 193  948.0668
 194  1101.807
 195  1303.392
 196  1329.083
 197  1370.751
 198  1348.529
 199  985.1584
 200  1324.469
 201  1454.836
 202  1189.619
 203  1048.169
 204  1038.263
 205  1025.783
 206  831.5696
 207  864.1287
 208  1078.299
 209  1143.354
 210  1238.934
 211  963.8972
 212  1067.01
 213  1312.232
 214  938.8888
 215  969.2713
 216  1301.505
 217  1320.942
 218  1270.766
 219  1196.086
 220  1042.047
 221  870.4264
 222  748.1929
 223  896.1959
 224  1204.334
 225  1051.235
 226  1076.901
 227  1001.365
 228  1127.29
 229  1442.737
 230  1752.602
 231  1678.941
 232  1353.645
 233  1267.72
 234  1253.653
 235  1423.112
 236  1291.954
 237  1294.63
 238  1172.749
 239  1227.677
 240  1251.507
 241  969.1182
 242  1136.57
 243  946.5876
 244  893.1413
 245  911.9063
 246  1102.075
 247  1275.789
 248  1184.533
 249  1159.335
 250  1256.492
 251  993.782
 252  1097.943
 253  1445.997
 254  1329.601
 255  1092.663
 256  1116.687
 257  1279.573
 258  1129.132
 259  1003.307
 260  909.2109
 261  1233.022
 262  1121.108
 263  973.1031
 264  1199.256
 265  976.5056
 266  913.3839
 267  727.7955
 268  862.2403
 269  1044.726
 270  1108.728
 271  1220.005
 272  1554.258
 273  1217.932
 274  996.1859
 275  933.077
 276  831.4614
 277  922.9061
 278  844.8023
 279  851.0169
 280  864.1852
 281  875.1791
 282  1379.984
 283  1352.201
 284  1414.745
 285  1283.201
 286  1248.667
 287  1348.283
 288  1487.219
 289  1325.665
 290  1128.557
 291  1298.757
 292  1434.691
 293  1234.685
 294  1450.292
 295  956.2325
 296  904.9915
 297  1472.801
 298  1315.592
 299  1174.104
 300  1130.901
 301  1026.934
 302  1012.202
 303  927.8174
 304  1198.235
 305  912.3317
 306  1264.189
 307  1249.243
 308  1037.457
 309  1333.596
 310  1110.99
 311  1117.457
 312  1353.866
 313  1198.139
 314  1310.846
 315  1249.089
 316  1315.541
 317  1090.422
 318  819.3944
 319  961.5069
 320  792.3602
 321  1350.523
 322  1553.355
 323  1452.955
 324  1119.759
 325  1383.566
 326  1767.722
 327  2095.739
 328  2020.931
 329  2277.984
 330  2742.298
 331  2451.515
 332  1627.009
 333  1145.611
 334  1252.014
 335  1582.49
 336  1422.616
 337  1638.116
 338  1438.874
 339  1474.698
 340  1229.183
 341  893.4524
 342  1079.711
 343  1372.189
 344  1597.338
 345  1325.549
 346  1294.112
 347  1153.992
 348  1200.731
 349  1081.582
 350  1211.727
 351  1092.413
 352  1098.792
 353  1172.976
 354  998.0975
 355  823.8245
 356  943.131
 357  957.5628
 358  964.1948
 359  1113.847
 360  739.5376
 361  879.7236
 362  891.4276
 363  570.2137
 364  879.4108
 365  1070.499
 366  1335.3
 367  1321.844
 368  1101.37
 369  1034.585
 370  1079.997
 371  1397.455
 372  1090.255
 373  1115.177
 374  1236.339
 375  1243.288
 376  1568.251
 377  1432.285
 378  1260.423
 379  1030.788
 380  1193.859
 381  1270.703
 382  1232.2
 383  1375.283
 384  1109.086
 385  1186.405
 386  1151.684
 387  1369.944
 388  1522.342
 389  1678.426
 390  1369.086
 391  1177.33
 392  1148.438
 393  1321.736
 394  1369.441
 395  1453.696
 396  1127.268
 397  1286.288
 398  1231.651
 399  1031.615
 400  1086.071
 401  730.9012
 402  887.1018
 403  1100.415
 404  1287.012
 405  1095.682
 406  1113.01
 407  1193.332
 408  1105.926
 409  969.1807
 410  1219.948
 411  1422.854
 412  1217.862
 413  1247.797
 414  1070.534
 415  1187.278
 416  1221.195
 417  1414.997
 418  1777.598
 419  1531.967
 420  1531.028
 421  1381.492
 422  1109.582
 423  1268.746
 424  1340.072
 425  1452.925
 426  1217.853
 427  1376.438
 428  1173.793
 429  1259.856
 430  1013.795
 431  1162.504
 432  1279.602
 433  1125.881
 434  1050.522
 435  1133.639
 436  1091.858
 437  898.7452
 438  781.029
 439  855.3035
 440  975.5851
 441  1152.924
 442  1041.561
 443  1086.189
 444  835.7008
 445  601.7851
 446  855.3762
 447  1053.841
 448  1273.224
 449  1012.04
 450  1084.726
 451  973.1191
 452  935.8652
 453  1165.147
 454  1222.545
 455  1191.257
 456  1293.748
 457  1146.667
 458  903.9393
 459  751.1107
 460  838.2191
 461  1247.252
 462  1284.777
 463  1370.119
 464  1236.14
 465  969.6537
 466  1044.144
 467  1534.322
 468  1256.624
 469  1047.979
 470  916.3619
 471  1034.858
 472  1114.761
 473  1055.314
 474  1000.652
 475  1256.166
 476  1229.809
 477  1213.897
 478  993.3138
 479  1145.827
 480  1407.115
 481  1278.299
 482  1251.103
 483  1196.553
 484  1464.881
 485  1739.587
 486  1529.15
 487  1425.744
 488  1562.824
 489  1753.693
 490  1599.786
 491  1523.663
 492  1633.451
 493  1494.031
 494  1267.248
 495  1411.939
 496  1269.204
 497  1528.994
 498  1523.721
 499  1332.644
 500  1014.289
 501  1061.547
 502  1238.074
 503  1229.997
 504  1460.653
 505  1037.136
 506  1087.419
 507  975.9786
 508  716.0395
 509  879.6071
 510  1107.796
 511  926.1233
