# Input file       =  1179561381.09626_cleaned.dat
# Candidate        =  PSR_0332+5434
# Telescope        =  AR
# Epoch_topo       =  57896.331019632642
# Epoch_bary       =  N/A
# T_sample         =  0.002
# Data Folded      =  7340032
# Data Avg         =  0.0874081511065015
# Data StdDev      =  2.88240572165109 
# Profile Bins     =  512
# Profile Avg      =  1253.00691055427 
# Profile StdDev   =  345.119189123048 
# Reduced chi-sqr  =  0.856
# Prob(Noise)      <  0.992   (~0.0 sigma)
# P_topo (ms)      =  714.525130416198  +/- 0.00044
# P'_topo (s/s)    =  -0                +/- 2.32e-10
# P''_topo (s/s^2) =  0                 +/- 1.03e-13
# P_bary (ms)      =  N/A
# P'_bary (s/s)    =  N/A
# P''_bary (s/s^2) =  N/A
# P_orb (s)        =  N/A
# asin(i)/c (s)    =  N/A
# eccentricity     =  N/A
# w (rad)          =  N/A
# T_peri           =  N/A
######################################################
   0  1129.094
   1  1391.263
   2  1483.289
   3  1396.729
   4  1515.958
   5  1585.139
   6  1361.649
   7  1298.972
   8  1400.416
   9  1286.11
  10  1219.968
  11  1207.431
  12  1092.519
  13  1260.832
  14  1117.436
  15  884.4758
  16  935.2645
  17  1168.689
  18  1293.288
  19  1323.729
  20  1443.592
  21  1097.494
  22  1273.76
  23  1059.493
  24  1111.52
  25  1262.578
  26  1386.549
  27  1547.837
  28  1399.012
  29  1005.362
  30  1317.738
  31  1406.772
  32  1418.478
  33  1576.168
  34  1371.661
  35  1391.556
  36  1226.184
  37  1276.714
  38  1490.927
  39  1480.027
  40  1217.399
  41  1212.202
  42  1072.911
  43  1138.582
  44  1178.197
  45  1314.699
  46  1142.875
  47  1237.659
  48  995.7892
  49  904.1425
  50  945.4615
  51  1235.731
  52  1367.792
  53  1490.884
  54  1339.053
  55  1342.537
  56  1257.146
  57  1289.48
  58  1181.848
  59  1060.926
  60  1489.062
  61  1308.833
  62  1358.8
  63  1390.229
  64  1350.361
  65  1535.422
  66  1277.945
  67  1129.475
  68  1302.893
  69  1534.367
  70  1392.114
  71  1487.689
  72  1688.217
  73  1320.662
  74  1253.61
  75  1201.385
  76  1318.089
  77  1214.042
  78  1201.18
  79  1131.716
  80  1372.131
  81  1355.304
  82  1317.938
  83  1686.925
  84  1620.103
  85  1406.36
  86  1229.204
  87  1300.971
  88  1368.663
  89  1058.709
  90  1283.012
  91  1156.688
  92  1119.926
  93  1344.334
  94  1596.24
  95  1551.415
  96  1440.634
  97  1379.926
  98  1396.322
  99  1155.115
 100  1173.696
 101  1183.151
 102  1126.048
 103  1029.45
 104  847.992
 105  940.3269
 106  933.0331
 107  1074.517
 108  1085.456
 109  1375.724
 110  1376.69
 111  951.8118
 112  1083.129
 113  1037.782
 114  1294.827
 115  1326.243
 116  1508.149
 117  1781.232
 118  1458.875
 119  1270.218
 120  1328.469
 121  1398.831
 122  987.8387
 123  864.9076
 124  1238.519
 125  1463.653
 126  1160.228
 127  1125.583
 128  1314.97
 129  1271.981
 130  1036.855
 131  1081.601
 132  1119.606
 133  1224.13
 134  1302.215
 135  1320.108
 136  1174.844
 137  952.298
 138  978.8067
 139  1414.732
 140  1454.706
 141  1378.42
 142  1132.761
 143  1239.541
 144  1310.376
 145  1109.256
 146  1441.051
 147  1265.845
 148  1269.827
 149  1250.131
 150  1338.584
 151  1172.191
 152  1065.156
 153  1267.497
 154  1185.361
 155  1341.777
 156  1510.947
 157  1321.516
 158  1123.86
 159  1329.75
 160  1526.909
 161  1573.021
 162  1453.52
 163  1272.119
 164  1008.863
 165  1241.695
 166  1339.723
 167  1383.316
 168  1395.224
 169  1378.958
 170  1402.198
 171  1306.412
 172  1240.795
 173  1201.613
 174  1058.32
 175  1218.983
 176  1409.282
 177  1147.619
 178  1247.73
 179  1696.92
 180  1564.957
 181  1297.918
 182  1256.144
 183  1255.182
 184  1025.344
 185  1102.366
 186  1035.888
 187  684.1807
 188  1130.88
 189  1514.821
 190  1050.816
 191  725.309
 192  945.7383
 193  1180.832
 194  1163.344
 195  1275.828
 196  1137.897
 197  1186.026
 198  1205.142
 199  1156.857
 200  1273.617
 201  1076.476
 202  1033.472
 203  1098.41
 204  753.4982
 205  725.0627
 206  1093.999
 207  1326.83
 208  1359.954
 209  1132.105
 210  1262.565
 211  1398.51
 212  1427.724
 213  1901.022
 214  1461.5
 215  1194.693
 216  1286.975
 217  1159.44
 218  1054.234
 219  1167.415
 220  1171.192
 221  1318.429
 222  1502.4
 223  1344.539
 224  1418.18
 225  1236.736
 226  1329.198
 227  1056.814
 228  925.4199
 229  1347.962
 230  1403.457
 231  1333.06
 232  1221.454
 233  1308.792
 234  1324.46
 235  1425.175
 236  1355.832
 237  1191.811
 238  1326.996
 239  1228.817
 240  1478.509
 241  1613.468
 242  1413.285
 243  1490.64
 244  1354.805
 245  1454.782
 246  1212.226
 247  1401.926
 248  1769.135
 249  1035.253
 250  1108.642
 251  1445.542
 252  1476.691
 253  1303.566
 254  1114.084
 255  1052.381
 256  1373.868
 257  1221.188
 258  1279.241
 259  1508.61
 260  1404.493
 261  1134.38
 262  1457.538
 263  1320.615
 264  1454.061
 265  1406.486
 266  1086.542
 267  1019.257
 268  979.1611
 269  1145.971
 270  1009.089
 271  1057.504
 272  1149.392
 273  1438.445
 274  1407.879
 275  1493.782
 276  1477.834
 277  1240.551
 278  1032.012
 279  1325.734
 280  1604.416
 281  1443.669
 282  1581.973
 283  1294.754
 284  1339.635
 285  1291.056
 286  1396.946
 287  1359.554
 288  1181.713
 289  1123.116
 290  1374.437
 291  1420.653
 292  1404.567
 293  1190.435
 294  1195.041
 295  1153.059
 296  1246.488
 297  1491.117
 298  1344.879
 299  1128.458
 300  1227.987
 301  1530.348
 302  1339.122
 303  1286.737
 304  1461.124
 305  1597.919
 306  1642.24
 307  1077.52
 308  903.1658
 309  1107.262
 310  1123.311
 311  1125.702
 312  1168.098
 313  1115.838
 314  1114.865
 315  1018.515
 316  1253.32
 317  1374.234
 318  933.6506
 319  1234.56
 320  1295.14
 321  1263.974
 322  1364.323
 323  1288.154
 324  1025.322
 325  1344.001
 326  1096.739
 327  1022.772
 328  1329.372
 329  1430.991
 330  1344.944
 331  1558.777
 332  1659.488
 333  1397.075
 334  862.7709
 335  1064.943
 336  1274.527
 337  1436.796
 338  1191.942
 339  1050.462
 340  702.1605
 341  836.9739
 342  1192.128
 343  1022.467
 344  1076.857
 345  1136.838
 346  1097.617
 347  758.1986
 348  612.4186
 349  579.9141
 350  1085.861
 351  965.6083
 352  1043.508
 353  1034.319
 354  1051.337
 355  1329.341
 356  1061.301
 357  1055.512
 358  1119.546
 359  1172.101
 360  1364.334
 361  1450.861
 362  1062.638
 363  890.4852
 364  950.0777
 365  1096.059
 366  1237.024
 367  1100.181
 368  1089.765
 369  987.9764
 370  1264.55
 371  1571.883
 372  1545.908
 373  1380.214
 374  1489.829
 375  1434.045
 376  1762.336
 377  1737.706
 378  1591.012
 379  1581.906
 380  1406.854
 381  1313.562
 382  1259.826
 383  1433.991
 384  1342.882
 385  1191.386
 386  1148.505
 387  1031.488
 388  1031.488
 389  1135.737
 390  1143.506
 391  776.9978
 392  927.3397
 393  1291.469
 394  1236.473
 395  1324.539
 396  1112.473
 397  916.1859
 398  1128.32
 399  1257.324
 400  1159.993
 401  1183.536
 402  978.21
 403  921.6578
 404  974.7766
 405  1449.891
 406  1381.808
 407  942.0471
 408  983.8708
 409  1193.755
 410  1230.5
 411  1099.927
 412  1022.983
 413  826.8558
 414  1192.18
 415  1307.353
 416  1171.066
 417  1153.085
 418  1304.924
 419  1156.105
 420  1124.709
 421  1161.147
 422  1355.692
 423  1189.921
 424  1115.752
 425  1298.253
 426  1354.331
 427  1119.163
 428  1216.13
 429  1307.603
 430  1088.306
 431  1216.969
 432  1164.382
 433  1063.596
 434  1141.464
 435  1349.757
 436  1239.314
 437  1277.08
 438  1154.655
 439  1176.41
 440  1017.169
 441  1254.781
 442  1530.267
 443  1422.512
 444  1347.746
 445  1393.286
 446  1374.652
 447  1402.655
 448  1434.833
 449  1077.751
 450  1012.297
 451  1215.391
 452  1145.494
 453  1235.448
 454  1234.953
 455  1248.766
 456  1197.22
 457  992.1443
 458  952.2656
 459  995.3524
 460  1172.067
 461  988.9952
 462  960.0916
 463  1250.528
 464  1210.357
 465  806.1533
 466  605.4937
 467  911.5042
 468  971.6183
 469  1108.935
 470  897.049
 471  1020.752
 472  1029.754
 473  1381.159
 474  1341.075
 475  1396.404
 476  1333.713
 477  949.7015
 478  997.8082
 479  1355.745
 480  1033.056
 481  925.5007
 482  1087.982
 483  1369.302
 484  1278.705
 485  832.9528
 486  1067.777
 487  1303.481
 488  1397.043
 489  1317.872
 490  1543.299
 491  1340.705
 492  1394.457
 493  1351.717
 494  1907.514
 495  2116.725
 496  2212.257
 497  2477.37
 498  2633.428
 499  2417.305
 500  1996.399
 501  1782.205
 502  1276.674
 503  1368.823
 504  1541.109
 505  1245.782
 506  1037.867
 507  1350.852
 508  1261.749
 509  1300.673
 510  1254.271
 511  1274.936
