# Input file       =  1179992187.103937_cleaned.dat
# Candidate        =  PSR_0332+5434
# Telescope        =  AR
# Epoch_topo       =  57901.317200277044
# Epoch_bary       =  N/A
# T_sample         =  0.002
# Data Folded      =  7340032
# Data Avg         =  0.0836971923667335
# Data StdDev      =  2.90811643265932 
# Profile Bins     =  512
# Profile Avg      =  1199.92283374013 
# Profile StdDev   =  348.19761061947  
# Reduced chi-sqr  =  1.038
# Prob(Noise)      <  0.27   (~0.6 sigma)
# P_topo (ms)      =  714.520201138321  +/- 0.000402
# P'_topo (s/s)    =  -0                +/- 2.12e-10
# P''_topo (s/s^2) =  0                 +/- 9.36e-14
# P_bary (ms)      =  N/A
# P'_bary (s/s)    =  N/A
# P''_bary (s/s^2) =  N/A
# P_orb (s)        =  N/A
# asin(i)/c (s)    =  N/A
# eccentricity     =  N/A
# w (rad)          =  N/A
# T_peri           =  N/A
######################################################
   0  1421.982
   1  1715.062
   2  1762.364
   3  1577.198
   4  1377.397
   5  1437.68
   6  1291.196
   7  1095.669
   8  1437.346
   9  1365.964
  10  1077.564
  11  1429.19
  12  1484.832
  13  1476.862
  14  1135.559
  15  1226.074
  16  1531.585
  17  1338.384
  18  1589.176
  19  1402.291
  20  1492.264
  21  1341.885
  22  1054.893
  23  1433.051
  24  1505.779
  25  1563.075
  26  1400.839
  27  1061.632
  28  889.4969
  29  845.2267
  30  910.981
  31  834.1851
  32  1236.952
  33  958.9279
  34  1098.282
  35  1157.587
  36  969.384
  37  1100.943
  38  1131.605
  39  1441.767
  40  1219.052
  41  974.9592
  42  1084.662
  43  1175.441
  44  916.8782
  45  1308.337
  46  1405.657
  47  1094.361
  48  1080.392
  49  1207.493
  50  1231.337
  51  1105.638
  52  1157.775
  53  1237.27
  54  1309.559
  55  1533.909
  56  1241.585
  57  1052.564
  58  1269.609
  59  852.7363
  60  818.9116
  61  939.0453
  62  1022.891
  63  898.1562
  64  748.1862
  65  838.8538
  66  699.8441
  67  1057.011
  68  1050.37
  69  768.313
  70  953.2189
  71  1080.947
  72  1000.969
  73  771.1819
  74  954.8571
  75  1115.463
  76  1025.744
  77  1278.572
  78  1245.06
  79  1094.747
  80  1044.633
  81  1145.568
  82  1107.703
  83  1120.564
  84  719.6168
  85  966.9395
  86  1287.577
  87  1313.213
  88  950.5243
  89  756.8988
  90  1154.244
  91  1229.819
  92  1051.003
  93  1087.414
  94  1158.807
  95  1051.709
  96  1376.918
  97  1232.624
  98  628.8138
  99  1022.883
 100  992.1596
 101  1035.065
 102  1010.043
 103  1183.36
 104  1351.287
 105  1138.677
 106  1330.694
 107  1342.372
 108  1134.98
 109  1466.478
 110  1466.789
 111  1233.234
 112  1405.273
 113  1263.211
 114  1205.842
 115  803.5148
 116  1339.535
 117  1310.727
 118  1209.153
 119  1295.081
 120  1204.873
 121  1161.338
 122  1232.721
 123  1420.726
 124  1293.135
 125  1156.781
 126  1257.747
 127  1208.496
 128  1262.145
 129  1343.033
 130  1253.381
 131  1240.184
 132  1442.915
 133  1054.05
 134  1003.61
 135  1193.591
 136  1425.087
 137  1309.972
 138  1204.138
 139  1246.772
 140  1277.541
 141  1333.314
 142  1350.401
 143  1366.884
 144  1409.222
 145  1345.06
 146  1455.201
 147  1194.892
 148  1238.852
 149  1141.62
 150  1237.355
 151  1261.709
 152  1263.834
 153  960.8836
 154  1093.776
 155  999.0457
 156  1237.456
 157  1182.889
 158  1292.375
 159  1044.681
 160  1159.7
 161  1544.516
 162  1180.697
 163  944.2606
 164  989.253
 165  1128.707
 166  1247.231
 167  1251.897
 168  1430.098
 169  1599.861
 170  1251.363
 171  1161.12
 172  1148.325
 173  1128.577
 174  1214.423
 175  1343.977
 176  1399.349
 177  1300.663
 178  1270.791
 179  1461.364
 180  1269.486
 181  1177.156
 182  1230.416
 183  1214.647
 184  1098.754
 185  1158.275
 186  1036.558
 187  1258.87
 188  1435.742
 189  1377.018
 190  1478.273
 191  1016.27
 192  1120.276
 193  1584.733
 194  1423.003
 195  1585.726
 196  1420.428
 197  1309.297
 198  1100.269
 199  1238.639
 200  1717.828
 201  1567.398
 202  1397.666
 203  1579.103
 204  1453.319
 205  1493.784
 206  1525.7
 207  1542.133
 208  1495.691
 209  1338.653
 210  1317.432
 211  1386.186
 212  1146.844
 213  905.2823
 214  970.1217
 215  997.7794
 216  778.7331
 217  1257.853
 218  1166.039
 219  1185.162
 220  1592.687
 221  1080.639
 222  942.3564
 223  1096.211
 224  1485.021
 225  1303.107
 226  1381.564
 227  1612.351
 228  1428.039
 229  1038.089
 230  1163.059
 231  1361.991
 232  1223.247
 233  1029.305
 234  1190.202
 235  1466.378
 236  1471.677
 237  1075.833
 238  1347.116
 239  1567.281
 240  1159.255
 241  1226.515
 242  1183.471
 243  1124.983
 244  1194.008
 245  1351.168
 246  905.4943
 247  641.5194
 248  893.1349
 249  663.7888
 250  663.8295
 251  1038.743
 252  1348.978
 253  933.1494
 254  1055.829
 255  1279.919
 256  1185.135
 257  1125.472
 258  997.754
 259  1107.223
 260  1165.492
 261  1422.882
 262  1526.991
 263  1244.586
 264  866.5135
 265  1176.219
 266  1100.743
 267  1022.36
 268  1408.975
 269  1430.281
 270  1127.605
 271  1040.81
 272  1295.174
 273  1247.748
 274  1324.794
 275  1363.25
 276  1271.208
 277  1175.638
 278  1713.811
 279  1382.805
 280  1483.513
 281  1269.5
 282  1087.94
 283  1393.516
 284  1205.41
 285  1274.448
 286  1413.824
 287  1571.948
 288  1362.031
 289  1035.836
 290  1326.93
 291  1539.968
 292  1471.403
 293  1016.011
 294  1077.974
 295  1156.33
 296  1134.916
 297  1153.411
 298  991.1625
 299  1160.486
 300  998.7336
 301  1122.983
 302  990.2286
 303  1211.942
 304  1024.488
 305  1513.964
 306  1228.405
 307  1007.101
 308  949.9498
 309  1185.787
 310  1342.081
 311  1188.5
 312  1255.176
 313  1222.604
 314  1381.811
 315  1099.949
 316  994.5441
 317  1263.351
 318  1432.189
 319  1115.32
 320  1337.434
 321  1725.182
 322  1547.315
 323  1562.886
 324  1692.44
 325  1871.135
 326  1997.491
 327  2603.557
 328  2912.672
 329  2690.307
 330  2560.953
 331  1925.116
 332  1128.001
 333  1215.862
 334  1108.448
 335  947.8035
 336  925.1937
 337  1008.625
 338  980.0684
 339  1007.655
 340  1141.347
 341  1035.411
 342  1011.354
 343  1148.191
 344  1254.751
 345  1484.293
 346  1231.426
 347  1288.235
 348  1108.19
 349  1110.859
 350  990.5387
 351  1256.628
 352  1183.066
 353  1220.786
 354  1146.844
 355  1097.984
 356  1266.489
 357  1275.784
 358  1186.468
 359  944.2997
 360  1047.763
 361  1256.123
 362  1203.211
 363  1248.769
 364  1464.81
 365  1267.843
 366  1388.453
 367  1503.553
 368  1464.464
 369  1054.668
 370  1299.014
 371  1533.863
 372  1562.925
 373  1342.797
 374  1399.974
 375  1454.056
 376  1774.866
 377  1521.374
 378  1262.618
 379  1230.256
 380  1346.93
 381  1250.606
 382  1131.406
 383  917.8811
 384  944.8658
 385  850.5894
 386  1018.213
 387  1175.389
 388  975.1808
 389  1097.774
 390  1174.726
 391  1091.742
 392  1255.279
 393  1171.246
 394  1074.776
 395  1000.844
 396  1382.041
 397  1168.39
 398  962.1417
 399  1113.157
 400  1203.856
 401  1362.395
 402  1156.478
 403  1004.67
 404  981.2374
 405  884.2187
 406  780.451
 407  1004.017
 408  1121.01
 409  1025.101
 410  1375.289
 411  1133.784
 412  1137.903
 413  925.0833
 414  685.0112
 415  813.2007
 416  1052.419
 417  833.2966
 418  903.05
 419  970.5655
 420  792.6414
 421  859.0464
 422  837.5522
 423  661.495
 424  1034.988
 425  990.834
 426  868.4327
 427  1084.653
 428  1024.609
 429  1090.434
 430  1253.771
 431  1336.704
 432  1401.099
 433  1223.079
 434  1221.022
 435  1205.182
 436  937.8362
 437  759.9866
 438  1010.642
 439  1303.433
 440  1269.797
 441  1272.547
 442  1187.067
 443  919.9953
 444  900.3707
 445  947.7985
 446  935.1544
 447  1029.859
 448  651.4631
 449  643.718
 450  737.1519
 451  829.3533
 452  1086.058
 453  778.7744
 454  898.5574
 455  780.2345
 456  766.5289
 457  873.6983
 458  991.636
 459  1355.619
 460  1035.191
 461  1099.867
 462  963.465
 463  932.4532
 464  975.3502
 465  892.9841
 466  1026.133
 467  1054.212
 468  1167.274
 469  1164.074
 470  1091.707
 471  1134.007
 472  1102.725
 473  1142.88
 474  850.5002
 475  862.0303
 476  927.2062
 477  974.4091
 478  953.1534
 479  1315.247
 480  1263.779
 481  1171.453
 482  1136.782
 483  1067.759
 484  1165.249
 485  1303.799
 486  1559.729
 487  1375.507
 488  1491.034
 489  1108.005
 490  1168.055
 491  1200.572
 492  1202.864
 493  1251.248
 494  1101.382
 495  1038.223
 496  1185.421
 497  1217.594
 498  1230.006
 499  1247.152
 500  1272.574
 501  1107.806
 502  1083.601
 503  1232.055
 504  1338.051
 505  1606.376
 506  1450.827
 507  1510.595
 508  1607.67
 509  1135.225
 510  1110.778
 511  1370.812
