# Input file       =  1179820436.100343_cleaned.dat
# Candidate        =  PSR_0332+5434
# Telescope        =  AR
# Epoch_topo       =  57899.329341439152
# Epoch_bary       =  N/A
# T_sample         =  0.002
# Data Folded      =  7340032
# Data Avg         =  0.0866743985898213
# Data StdDev      =  2.70619467116101 
# Profile Bins     =  512
# Profile Avg      =  1242.59301765887 
# Profile StdDev   =  324.020905004732 
# Reduced chi-sqr  =  0.950
# Prob(Noise)      <  0.786   (~0.0 sigma)
# P_topo (ms)      =  714.522173972429  +/- 0.000758
# P'_topo (s/s)    =  -0                +/- 4e-10
# P''_topo (s/s^2) =  0                 +/- 1.77e-13
# P_bary (ms)      =  N/A
# P'_bary (s/s)    =  N/A
# P''_bary (s/s^2) =  N/A
# P_orb (s)        =  N/A
# asin(i)/c (s)    =  N/A
# eccentricity     =  N/A
# w (rad)          =  N/A
# T_peri           =  N/A
######################################################
   0  1529.571
   1  1264.621
   2  1047.507
   3  1259.956
   4  1322.154
   5  1531.388
   6  1429.615
   7  1603.361
   8  1644.672
   9  1424.108
  10  1415.606
  11  1619.437
  12  1503.681
  13  1423.904
  14  1366.823
  15  1330.202
  16  1233.548
  17  1400.268
  18  1416.841
  19  1449.689
  20  1499.597
  21  1122.299
  22  1175.524
  23  1358.133
  24  1309.067
  25  1254.491
  26  1313.908
  27  1189.148
  28  893.3558
  29  1082.977
  30  1122.239
  31  1248.52
  32  1459.735
  33  1351.111
  34  1082.624
  35  1071.568
  36  1095.113
  37  1283.588
  38  1197.413
  39  820.2951
  40  967.3582
  41  957.149
  42  1105.739
  43  1109.653
  44  1444.631
  45  1299.187
  46  1063.59
  47  1009.758
  48  1031.739
  49  1218.405
  50  1285.642
  51  1176.51
  52  1012.737
  53  1034.693
  54  833.6625
  55  849.7546
  56  1084.662
  57  1094.518
  58  1091
  59  957.9718
  60  1354.11
  61  1507.481
  62  1256.471
  63  1145.278
  64  1150.069
  65  1153.778
  66  1568.519
  67  1502.277
  68  1061.742
  69  1282.261
  70  1413.198
  71  1274.237
  72  1297.967
  73  1344.35
  74  1455.98
  75  1286.416
  76  1062.073
  77  1324.618
  78  1252.289
  79  1496.86
  80  1161.359
  81  1235.216
  82  1102.06
  83  1238.798
  84  1498.873
  85  1543.872
  86  1141.838
  87  1231.745
  88  1290.198
  89  1247.393
  90  1044.832
  91  1029.859
  92  972.8022
  93  1265.92
  94  1108.299
  95  1129.248
  96  1233.672
  97  1334.926
  98  1413.071
  99  1370.175
 100  1610.667
 101  1438.203
 102  1413.03
 103  1452.869
 104  1279.763
 105  1327.949
 106  1115.126
 107  1097.776
 108  1417.326
 109  1171.628
 110  1158.274
 111  1619.089
 112  1409.528
 113  1424.92
 114  1155.584
 115  1217.859
 116  1380.221
 117  1214.344
 118  955.6527
 119  1110.353
 120  1100.257
 121  1514.747
 122  1433.195
 123  1212.376
 124  1378.118
 125  1242.241
 126  1101.036
 127  1214.011
 128  1747.885
 129  1579.196
 130  1497.592
 131  977.8843
 132  1150.344
 133  1282.179
 134  1247.499
 135  1301.995
 136  1272.261
 137  1441.972
 138  1196.837
 139  1162.576
 140  1068.782
 141  1121.976
 142  1082.793
 143  1342.781
 144  1430.536
 145  1163.869
 146  1280.693
 147  1282.84
 148  1388.236
 149  1480.712
 150  1329.056
 151  1314.866
 152  1486.681
 153  1153.914
 154  999.6793
 155  1161.45
 156  1339.95
 157  1110.809
 158  1154.268
 159  1386.344
 160  1264.254
 161  1341.876
 162  1203.835
 163  904.3477
 164  915.4501
 165  1164.966
 166  1265.86
 167  1040.926
 168  724.4669
 169  912.7721
 170  1188.625
 171  889.5233
 172  800.884
 173  1105.242
 174  1150.708
 175  1383.062
 176  1266.373
 177  1016.184
 178  1198.554
 179  917.8467
 180  936.3581
 181  1224.245
 182  1334.549
 183  1235.582
 184  1392.208
 185  1289.182
 186  1470.226
 187  1050.678
 188  1152.731
 189  942.1365
 190  976.2056
 191  961.9745
 192  919.4798
 193  1210.332
 194  1315.383
 195  1353.237
 196  1375.252
 197  1215.001
 198  1552.179
 199  1306.517
 200  1493.109
 201  1162.003
 202  1215.744
 203  1601.972
 204  1291.529
 205  1205.251
 206  1285.327
 207  1344.005
 208  1087.313
 209  1038.532
 210  1170.092
 211  1158.723
 212  1009.511
 213  958.8727
 214  1227.95
 215  1413.255
 216  1098.64
 217  1009.567
 218  1009.622
 219  1095.022
 220  758.1766
 221  823.9048
 222  790.5783
 223  972.3323
 224  1280.25
 225  1406.381
 226  1338.622
 227  1406.125
 228  1239.655
 229  983.3182
 230  1205.354
 231  1201.832
 232  1062.143
 233  1175.681
 234  1238.144
 235  1230.105
 236  947.4813
 237  1031.159
 238  1340.94
 239  1329.17
 240  1126.374
 241  1354.345
 242  1525.501
 243  1467.614
 244  1577.305
 245  1451.082
 246  1095.088
 247  739.4517
 248  981.8133
 249  1187.572
 250  1329.115
 251  1165.685
 252  1204.338
 253  1288.316
 254  1382.946
 255  1085.216
 256  874.4329
 257  1053.751
 258  1183.84
 259  858.7877
 260  955.7677
 261  1132.631
 262  865.0529
 263  709.776
 264  1037.76
 265  813.6278
 266  825.2954
 267  879.6782
 268  1016.859
 269  1111.252
 270  1086.791
 271  1058.375
 272  1416.912
 273  1020.606
 274  874.812
 275  817.5852
 276  945.2224
 277  1245.236
 278  1382.959
 279  1246.797
 280  1233.078
 281  1229.861
 282  1205.459
 283  821.5651
 284  1189.443
 285  1508.996
 286  1624.318
 287  1202.712
 288  863.8854
 289  830.3438
 290  802.7385
 291  1004.528
 292  911.1322
 293  1462.345
 294  1455.615
 295  1407.488
 296  1313.286
 297  1147.634
 298  1208.944
 299  1104.907
 300  1160.038
 301  1197.071
 302  1242.065
 303  1150.368
 304  766.2523
 305  1088.769
 306  1390.326
 307  1543.922
 308  1482.25
 309  1294.78
 310  1459.227
 311  1454.773
 312  1304.37
 313  1271.522
 314  1499.918
 315  1449.53
 316  1098.957
 317  1303.364
 318  1378.766
 319  1041.093
 320  1120.133
 321  1510.242
 322  1289.035
 323  1138.399
 324  1584.406
 325  1747.687
 326  1533.703
 327  1350.851
 328  1544.685
 329  1596.504
 330  1293.468
 331  1294.872
 332  1279.573
 333  1281.714
 334  1353.358
 335  1332.023
 336  1078.981
 337  920.1868
 338  980.7803
 339  979.5594
 340  1176.337
 341  1408.794
 342  921.8004
 343  1030.289
 344  916.3979
 345  1198.508
 346  1102.521
 347  1021.665
 348  1117.136
 349  1215.844
 350  1133.321
 351  1114.153
 352  1132.316
 353  1015.162
 354  1113.792
 355  1004.707
 356  858.7928
 357  894.028
 358  774.6852
 359  874.184
 360  845.9568
 361  1014.568
 362  1462.46
 363  1237.377
 364  1076.902
 365  803.1967
 366  757.1207
 367  821.6252
 368  1071.945
 369  1023.024
 370  945.9547
 371  1047.279
 372  1057.85
 373  1164.806
 374  1292.717
 375  1379.901
 376  1225.3
 377  1175.947
 378  1372.874
 379  1563.865
 380  1444.354
 381  1237.363
 382  1239.207
 383  1239.773
 384  1361.786
 385  1274.605
 386  985.4161
 387  1105.273
 388  980.3707
 389  1291.313
 390  1096.793
 391  1183.518
 392  1375.609
 393  1151.713
 394  913.7222
 395  1100.226
 396  1034.598
 397  1376.51
 398  1231.092
 399  1109.558
 400  1195.199
 401  1276.43
 402  1468.456
 403  1150.522
 404  927.7335
 405  1236.484
 406  1289.902
 407  1273.27
 408  1040.817
 409  931.1224
 410  1087.878
 411  1273.717
 412  1118.572
 413  1050.035
 414  918.144
 415  971.1069
 416  1167.219
 417  1379.99
 418  1259.706
 419  1026.505
 420  952.7086
 421  1092.886
 422  1101.148
 423  1343.279
 424  1323.394
 425  1403.972
 426  1357.558
 427  1350.116
 428  1347.226
 429  1280.569
 430  1333.485
 431  1068.233
 432  1061.591
 433  1280.243
 434  1364.795
 435  1720.537
 436  1525.226
 437  1567.936
 438  1482.646
 439  1350.145
 440  1254.851
 441  1273.105
 442  1345.292
 443  1206.214
 444  1209.53
 445  1061.537
 446  1102.136
 447  1134.952
 448  1380.325
 449  1482.986
 450  1436.523
 451  1269.879
 452  1456.672
 453  1520.423
 454  1930.136
 455  2188.919
 456  2057.261
 457  2129.554
 458  2007.873
 459  1508.22
 460  1268.034
 461  1460.905
 462  1280.118
 463  1443.218
 464  1357.832
 465  1417.286
 466  1018.571
 467  1046.232
 468  1093.462
 469  1331.13
 470  1669.48
 471  1523.497
 472  1605.912
 473  1877.85
 474  1549.916
 475  1387.195
 476  1431.92
 477  1510.547
 478  1379.832
 479  1260.24
 480  1540.789
 481  1627.591
 482  1735.759
 483  1561.983
 484  1342.192
 485  1407.003
 486  1615.14
 487  1454.048
 488  1476.14
 489  1543.664
 490  1472.499
 491  1591.791
 492  1612.301
 493  1491.151
 494  1218.706
 495  1436.871
 496  1851.668
 497  1758.053
 498  1568.001
 499  1550.246
 500  1699.262
 501  1435.481
 502  1399.935
 503  1531.31
 504  1688.76
 505  1583.794
 506  1627.078
 507  1426.289
 508  1277.226
 509  1131.978
 510  1016.699
 511  1353.527
