# Input file       =  1179748560.125391_cleaned.dat
# Candidate        =  PSR_0332+5434
# Telescope        =  AR
# Epoch_topo       =  57898.497443580913
# Epoch_bary       =  N/A
# T_sample         =  0.002
# Data Folded      =  7340032
# Data Avg         =  0.122959858500897
# Data StdDev      =  5.20021615708706 
# Profile Bins     =  512
# Profile Avg      =  1762.63843386018 
# Profile StdDev   =  622.637670303552 
# Reduced chi-sqr  =  0.907
# Prob(Noise)      <  0.935   (~0.0 sigma)
# P_topo (ms)      =  714.523321115617  +/- 0.000108
# P'_topo (s/s)    =  -0                +/- 5.72e-11
# P''_topo (s/s^2) =  0                 +/- 2.53e-14
# P_bary (ms)      =  N/A
# P'_bary (s/s)    =  N/A
# P''_bary (s/s^2) =  N/A
# P_orb (s)        =  N/A
# asin(i)/c (s)    =  N/A
# eccentricity     =  N/A
# w (rad)          =  N/A
# T_peri           =  N/A
######################################################
   0  1808.792
   1  2018.548
   2  1571.653
   3  1459.323
   4  1825.131
   5  1554.334
   6  1863.353
   7  1542.549
   8  1263.305
   9  1998.405
  10  1937.371
  11  2004.035
  12  1964.355
  13  1330.411
  14  760.5577
  15  1264.171
  16  1366.924
  17  1773.95
  18  2083.15
  19  1851.368
  20  1863.422
  21  1319.657
  22  888.9958
  23  1601.069
  24  2235.635
  25  2222.374
  26  2000.935
  27  2034.784
  28  1847.649
  29  1142.131
  30  1011.052
  31  1611.751
  32  1544.882
  33  1690.003
  34  1094.172
  35  1293.862
  36  1534.646
  37  2214.805
  38  2340.546
  39  1764.569
  40  1423.495
  41  1507.764
  42  1443.148
  43  1442.38
  44  1265.343
  45  1475.841
  46  1917.448
  47  2038.591
  48  1970.483
  49  1640.614
  50  1393.044
  51  1651.683
  52  1796.832
  53  2383.08
  54  2661.343
  55  1952.047
  56  1493.532
  57  1765.486
  58  2094.59
  59  2073.033
  60  2171.557
  61  2350.157
  62  2565.348
  63  2519.162
  64  2775.076
  65  1768.358
  66  1777.154
  67  1481.173
  68  1197.932
  69  1804.047
  70  2450.6
  71  2359.978
  72  1520.022
  73  1483.819
  74  1903.025
  75  1939.46
  76  2078.386
  77  1925.854
  78  1890.514
  79  1714.131
  80  1663.819
  81  1529.373
  82  1401.031
  83  1578.705
  84  1483.444
  85  1674.902
  86  1941.35
  87  1477.996
  88  1158.364
  89  1102.505
  90  1679.363
  91  2208.453
  92  1990.034
  93  1304.783
  94  1349.51
  95  1398.052
  96  1750.537
  97  2382.403
  98  2396.647
  99  1644.975
 100  1158.057
 101  711.6706
 102  1273.488
 103  1545.102
 104  1686.061
 105  2255.806
 106  2149.936
 107  1717.734
 108  1432.625
 109  977.7035
 110  954.2993
 111  1584.471
 112  2110.333
 113  2016.859
 114  1838.513
 115  935.116
 116  898.789
 117  1424.117
 118  1392.508
 119  1593.87
 120  1763.027
 121  1318.276
 122  829.7729
 123  1594.891
 124  1943.07
 125  1528.321
 126  1541.366
 127  1694.428
 128  1655.42
 129  1636.48
 130  1891.052
 131  1091.649
 132  1154.492
 133  1193.701
 134  1455.05
 135  1930.637
 136  1790.802
 137  1201.982
 138  1673.439
 139  1879.754
 140  1221.366
 141  1809.245
 142  2023.907
 143  1558.491
 144  993.1882
 145  1500.187
 146  1649.612
 147  1398.597
 148  2707.952
 149  2424.094
 150  2615.443
 151  2001.143
 152  1518.932
 153  1505.587
 154  1666.056
 155  1670.974
 156  2163.881
 157  2537.419
 158  2491.39
 159  2019.187
 160  1824.492
 161  1327.471
 162  1851.247
 163  2271.943
 164  2363.559
 165  1871.064
 166  1076.336
 167  946.2559
 168  1372.697
 169  1323.09
 170  1671.089
 171  2337.394
 172  1954.722
 173  1439.963
 174  1459.881
 175  2160.159
 176  1348.429
 177  1892.653
 178  1797.119
 179  1412.77
 180  1517.432
 181  1275.084
 182  2134.696
 183  1852.763
 184  1774.803
 185  1459.57
 186  2260.061
 187  2346.837
 188  1959.707
 189  1444.685
 190  1542.144
 191  2053.175
 192  2105.384
 193  2432.078
 194  1873.204
 195  723.2488
 196  1024.355
 197  1509.831
 198  2259.323
 199  1916.361
 200  1992.866
 201  1848.112
 202  1729.071
 203  1149.154
 204  1862.086
 205  1964.119
 206  1688.71
 207  1942.844
 208  1885.361
 209  2214.044
 210  2105.29
 211  1647.716
 212  1649.767
 213  1654.935
 214  1728.738
 215  1670.482
 216  1619.386
 217  2029.049
 218  1703.295
 219  1586.704
 220  1071.695
 221  1172.46
 222  1346.357
 223  1127.517
 224  1076.695
 225  1519.02
 226  1610.154
 227  1459.746
 228  1533.378
 229  2319.07
 230  2147.738
 231  2241.691
 232  2378.22
 233  1576.208
 234  1377.107
 235  1409.546
 236  1395.569
 237  1599.854
 238  1793.719
 239  1137.299
 240  1648.965
 241  2023.608
 242  2017.848
 243  1884.403
 244  1063.503
 245  943.4184
 246  1564.334
 247  1649.63
 248  1601.042
 249  1807.839
 250  1444.407
 251  1437.044
 252  1275.159
 253  1278.293
 254  1604.728
 255  1971.519
 256  1796.857
 257  1557.051
 258  1433.186
 259  1772.266
 260  1393.954
 261  1930.333
 262  1980.865
 263  1651.827
 264  1340.508
 265  1901.459
 266  1806.753
 267  1487.151
 268  1258.182
 269  1817.508
 270  1561.934
 271  1595.283
 272  2393.993
 273  2176.898
 274  1834.797
 275  1347.956
 276  1835.574
 277  2490.41
 278  1940.133
 279  1908.309
 280  1566.906
 281  1729.692
 282  1618.213
 283  1406.646
 284  1633.524
 285  2007.813
 286  1944.212
 287  2490.543
 288  2364.614
 289  1865.251
 290  1700.898
 291  1215.901
 292  1586.704
 293  1372.514
 294  1632.889
 295  2184.719
 296  1625.705
 297  780.4949
 298  683.0875
 299  945.231
 300  1747.232
 301  1860.919
 302  934.7319
 303  1251.117
 304  1458.077
 305  1413.472
 306  1406.828
 307  1510.068
 308  2105.418
 309  2074.446
 310  2124.67
 311  2426.276
 312  1784.311
 313  2147.804
 314  1754.252
 315  1926.137
 316  2405.142
 317  2623.745
 318  2322.85
 319  2538.175
 320  2666.193
 321  1866.22
 322  1789.817
 323  2008.461
 324  2270.535
 325  2071.273
 326  2506.811
 327  2958.752
 328  2565.768
 329  2889.799
 330  2589.191
 331  2335.958
 332  2543.381
 333  2173.522
 334  2067.655
 335  1490.464
 336  1702.234
 337  1385.531
 338  2010.115
 339  2135.398
 340  1967.499
 341  1813.662
 342  1797.4
 343  2010.563
 344  1432.405
 345  1023.526
 346  917.1539
 347  1174.391
 348  1668.102
 349  1531.25
 350  1217.481
 351  1490.182
 352  1550.75
 353  1246.629
 354  1495.513
 355  1941.633
 356  1357.324
 357  824.1187
 358  522.9413
 359  1344.446
 360  1427.377
 361  1513.014
 362  1829.397
 363  786.4518
 364  396.384
 365  892.0413
 366  1780.905
 367  1916.087
 368  1960.561
 369  1855.487
 370  1337.543
 371  1235.476
 372  1830.16
 373  2140.078
 374  1983.249
 375  1888.988
 376  1541.133
 377  1612.275
 378  1836.01
 379  1754.679
 380  1965.475
 381  1497.79
 382  1431.13
 383  1894.178
 384  2077.009
 385  2044.428
 386  1355.383
 387  1240.846
 388  1275.219
 389  1814.712
 390  1907.088
 391  2015.906
 392  2034.339
 393  1796.941
 394  2078.682
 395  1750.836
 396  1295.203
 397  1473.057
 398  1832.983
 399  1842.267
 400  1449.406
 401  1419.74
 402  1595.934
 403  2050.05
 404  1452.478
 405  1373.038
 406  1705.585
 407  1802.455
 408  1645.438
 409  1044.057
 410  1436.671
 411  1092.56
 412  1442.786
 413  1760.953
 414  2296.773
 415  2233.944
 416  1879.21
 417  1645.903
 418  1381.495
 419  1729.635
 420  1881.943
 421  2337.813
 422  2120.507
 423  1981.924
 424  2671.991
 425  2406.289
 426  2389.987
 427  1978.25
 428  2116.441
 429  1977.628
 430  2150.415
 431  2340.134
 432  2275.349
 433  1886.76
 434  1878.364
 435  2264.156
 436  2340.82
 437  2273.116
 438  1766.252
 439  2556.72
 440  2556.882
 441  2402.603
 442  2402.416
 443  1785.086
 444  1776.881
 445  2015.308
 446  2246.991
 447  1960.698
 448  2271.901
 449  2147.012
 450  1930.183
 451  1810.188
 452  1459.718
 453  1502.072
 454  2145.321
 455  2445.403
 456  1546.61
 457  1624.508
 458  1952.251
 459  2151.449
 460  2576.282
 461  2577.709
 462  2266.874
 463  1196.012
 464  1199.202
 465  1818.724
 466  1596.792
 467  2364.153
 468  2546.46
 469  2148.073
 470  2333.013
 471  1496.121
 472  2000.08
 473  2254.26
 474  1913.607
 475  1530.274
 476  1954.824
 477  2316.075
 478  1566.652
 479  1855.003
 480  1947.933
 481  1727.326
 482  1154.829
 483  1529.185
 484  1951.313
 485  1486.603
 486  1535.975
 487  2184.848
 488  1975.55
 489  1519.511
 490  2285.913
 491  2521.064
 492  1881.076
 493  1984.679
 494  1819.436
 495  1789.139
 496  2581.357
 497  2539.586
 498  2055.732
 499  2242.349
 500  2531.542
 501  1903.495
 502  1213.064
 503  1213.797
 504  1975.544
 505  2576.795
 506  2168.292
 507  2179.756
 508  2425.084
 509  2118.031
 510  1471.135
 511  1495.747
