# Input file       =  1179906622.097327_cleaned.dat
# Candidate        =  PSR_0332+5434
# Telescope        =  AR
# Epoch_topo       =  57900.326864552393
# Epoch_bary       =  N/A
# T_sample         =  0.002
# Data Folded      =  7340032
# Data Avg         =  0.0849552640897206
# Data StdDev      =  2.79111187574633 
# Profile Bins     =  512
# Profile Avg      =  1217.97286177229 
# Profile StdDev   =  334.188299750359 
# Reduced chi-sqr  =  1.171
# Prob(Noise)      <  0.00443   (~2.6 sigma)
# P_topo (ms)      =  714.521187858482  +/- 0.000374
# P'_topo (s/s)    =  -0                +/- 1.98e-10
# P''_topo (s/s^2) =  0                 +/- 8.72e-14
# P_bary (ms)      =  N/A
# P'_bary (s/s)    =  N/A
# P''_bary (s/s^2) =  N/A
# P_orb (s)        =  N/A
# asin(i)/c (s)    =  N/A
# eccentricity     =  N/A
# w (rad)          =  N/A
# T_peri           =  N/A
######################################################
   0  1412.993
   1  1191.462
   2  1186.183
   3  1209.127
   4  1439.361
   5  1345.731
   6  999.5512
   7  936.2737
   8  1159.042
   9  1343.344
  10  1208.355
  11  1243.308
  12  1068.464
  13  861.7058
  14  1151.515
  15  1253.689
  16  1297.647
  17  1365.226
  18  1294.988
  19  1088.637
  20  1085.246
  21  1437.833
  22  1214.526
  23  986.9359
  24  1382.622
  25  1312.171
  26  1187.145
  27  1536.015
  28  1608.464
  29  1371.906
  30  1137.507
  31  1410.213
  32  1131.256
  33  1232.929
  34  1380.487
  35  1120.663
  36  809.9548
  37  704.7045
  38  858.6094
  39  805.3293
  40  975.968
  41  1183.229
  42  1153.005
  43  1149.656
  44  1135.557
  45  1226.862
  46  1043.048
  47  977.4555
  48  1135.833
  49  1166.729
  50  934.2688
  51  920.6849
  52  949.1533
  53  1083.06
  54  1187.813
  55  1123.533
  56  1202.44
  57  1116.733
  58  1090.743
  59  1158.795
  60  1340.186
  61  1269.953
  62  1385.868
  63  1275.152
  64  1110.159
  65  1199.678
  66  1159.098
  67  1294.468
  68  984.6795
  69  748.1825
  70  967.4294
  71  1110.358
  72  1271.271
  73  1360.815
  74  887.279
  75  1085.854
  76  950.8768
  77  1024.8
  78  941.6776
  79  1112.677
  80  945.8718
  81  832.799
  82  1128.774
  83  1041.674
  84  901.5588
  85  718.8536
  86  753.5172
  87  1058.218
  88  976.8927
  89  992.2543
  90  1044.056
  91  1025.867
  92  1420.596
  93  1155.177
  94  838.3698
  95  1288.833
  96  1628.166
  97  1494.985
  98  1533.245
  99  1651.865
 100  1594.816
 101  1364.141
 102  1578.858
 103  1714.969
 104  1557.762
 105  1663.278
 106  1843.524
 107  1707.605
 108  1476.111
 109  1434.927
 110  1667.756
 111  1672.536
 112  1384.938
 113  1159.08
 114  1536.634
 115  1373.75
 116  1305.422
 117  1523.231
 118  1450.928
 119  1423.05
 120  1121.529
 121  1116.847
 122  1418.069
 123  1144.093
 124  1135.901
 125  1118.881
 126  1204.67
 127  1292.202
 128  819.4053
 129  1474.718
 130  1569.064
 131  1193.868
 132  1130.208
 133  1162.959
 134  1150.758
 135  1248.997
 136  1416.418
 137  1059.011
 138  1173.058
 139  1277.622
 140  1255.076
 141  1242.625
 142  1519.035
 143  1615.685
 144  1674.864
 145  1367.891
 146  1199.397
 147  1289.305
 148  1468.71
 149  1619.811
 150  1679.809
 151  1576.891
 152  1704.261
 153  1608.137
 154  1409.894
 155  1676.131
 156  1609.529
 157  1508.48
 158  1389.234
 159  1332.943
 160  1313.394
 161  1339.147
 162  1319.799
 163  1114.858
 164  1030.975
 165  1027.129
 166  762.23
 167  799.151
 168  1064.774
 169  1155.424
 170  1148.039
 171  1169.87
 172  1373.464
 173  1441.749
 174  998.4292
 175  1166.589
 176  1028.008
 177  1127.305
 178  1430.098
 179  1527.422
 180  1532.097
 181  1223.694
 182  1222.393
 183  1297.162
 184  1556.658
 185  1428.868
 186  1468.236
 187  1705.91
 188  1584.107
 189  1357.153
 190  1598.605
 191  1582.323
 192  1384.552
 193  1352.65
 194  1258.887
 195  1057.311
 196  1295.83
 197  1397.93
 198  1388.395
 199  1287.638
 200  1450.212
 201  1189.07
 202  1220.208
 203  1477.216
 204  1193.372
 205  986.2875
 206  1140.047
 207  1142.058
 208  1218.662
 209  1074.231
 210  1395.637
 211  1223.262
 212  1453.9
 213  1438.998
 214  1314.054
 215  1184.247
 216  1233.923
 217  1389.745
 218  1611.856
 219  1386.514
 220  1644.49
 221  1453.388
 222  1636
 223  1835.993
 224  1637.557
 225  1627.946
 226  1655.074
 227  1666.805
 228  1315.244
 229  1575.172
 230  1849.968
 231  1506.164
 232  1099.103
 233  1206.963
 234  1426.494
 235  1577.058
 236  1758.228
 237  1615.511
 238  1187.722
 239  1494.657
 240  1661.909
 241  1651.504
 242  1509.989
 243  1618.055
 244  1617.95
 245  1387.537
 246  1546.842
 247  1713.29
 248  1548.53
 249  1200.563
 250  1423.968
 251  1554.164
 252  1397.955
 253  1416.859
 254  1202.282
 255  1110.316
 256  1001.106
 257  909.0676
 258  1160.934
 259  1300.045
 260  1030.003
 261  975.896
 262  976.0932
 263  916.5659
 264  1349.817
 265  1389.048
 266  1157.805
 267  1184.891
 268  1363.695
 269  1447.946
 270  1168.441
 271  1168.524
 272  1117.356
 273  997.2442
 274  1044.055
 275  1222.351
 276  1199.767
 277  1206.292
 278  970.9014
 279  1182.915
 280  1417.755
 281  1440.888
 282  1594.019
 283  1694.732
 284  1431.984
 285  1288.895
 286  975.6069
 287  1004.36
 288  1234.994
 289  1283.313
 290  1130.381
 291  910.3966
 292  1338.57
 293  1304.439
 294  1049.709
 295  949.4704
 296  895.7798
 297  1108.579
 298  1260.002
 299  739.5901
 300  765.3915
 301  1164.102
 302  1436.54
 303  1000.816
 304  836.561
 305  1085.54
 306  1077.482
 307  949.442
 308  895.4161
 309  895.1911
 310  1125.418
 311  1155.078
 312  1085.569
 313  1210.486
 314  900.3027
 315  803.9871
 316  1411.188
 317  1404.885
 318  1350.379
 319  1394.015
 320  1114.603
 321  1735.109
 322  1181.029
 323  942.006
 324  1400.942
 325  1603.089
 326  2065.673
 327  2228.335
 328  2644.345
 329  2407.674
 330  2062.694
 331  2125.082
 332  1902.308
 333  1434.507
 334  1288.314
 335  958.1844
 336  1029.357
 337  933.5867
 338  1024.462
 339  936.8739
 340  970.1691
 341  1013.268
 342  1134.787
 343  1269.419
 344  1310.755
 345  1354.032
 346  1052.811
 347  819.2444
 348  969.9998
 349  1098.797
 350  1383.11
 351  1010.221
 352  973.3785
 353  1194.51
 354  1159.937
 355  1050.96
 356  1095.25
 357  1165.666
 358  1244.81
 359  1170.499
 360  1152.794
 361  1274.972
 362  1155.1
 363  1185.466
 364  1606.552
 365  1579.499
 366  1093.594
 367  1238.765
 368  1350.851
 369  1359.584
 370  1515.911
 371  1276.336
 372  1210.425
 373  990.3438
 374  1219.131
 375  1291.297
 376  1368.901
 377  1385.529
 378  1206.182
 379  1132.106
 380  1047.101
 381  1036.755
 382  1069.371
 383  1026.716
 384  952.2876
 385  692.1915
 386  694.6401
 387  915.5316
 388  1116.229
 389  1175.5
 390  1081.949
 391  843.788
 392  1052.367
 393  908.832
 394  801.2847
 395  1157.565
 396  1101.566
 397  893.4473
 398  1013.031
 399  1008.694
 400  1003.076
 401  936.3176
 402  1002.718
 403  1231.828
 404  1131.834
 405  1072.764
 406  1151.09
 407  1075.314
 408  1046.092
 409  1091.918
 410  1153.073
 411  1190.742
 412  1311.444
 413  1125.996
 414  1061.939
 415  887.343
 416  1324.373
 417  1282.887
 418  1225.055
 419  1413.458
 420  1311.83
 421  924.2537
 422  993.323
 423  1198.574
 424  1328.219
 425  1334.997
 426  1248.152
 427  1399.764
 428  1133.998
 429  803.5461
 430  1055.094
 431  930.0055
 432  1091.208
 433  1239.072
 434  1236.52
 435  1113.081
 436  1127.698
 437  1102.753
 438  1052.622
 439  1107.473
 440  1184.81
 441  1275.616
 442  1268.475
 443  1231.869
 444  943.6444
 445  1163.016
 446  1128.012
 447  1256.997
 448  1373.617
 449  1276.887
 450  1142.097
 451  1081.718
 452  1390.82
 453  1220.228
 454  1099.5
 455  758.8826
 456  946.0517
 457  965.7526
 458  976.4965
 459  1089.827
 460  1067.724
 461  1106.473
 462  1069.605
 463  1013.347
 464  1006.341
 465  919.978
 466  1394.401
 467  1245.972
 468  1000.214
 469  1157.724
 470  1082.729
 471  1140.426
 472  1262.96
 473  1002.406
 474  715.7921
 475  915.4688
 476  705.9069
 477  776.0403
 478  983.4656
 479  1029.542
 480  1039.42
 481  901.699
 482  972.2107
 483  1068.079
 484  1223.102
 485  918.6841
 486  927.7654
 487  1216.269
 488  1013.606
 489  1024.59
 490  807.8348
 491  930.5359
 492  1143.822
 493  1075.706
 494  1001.976
 495  956.6794
 496  1027.182
 497  933.6181
 498  1020.601
 499  976.0638
 500  817.3332
 501  813.6364
 502  672.3344
 503  794.8613
 504  983.4401
 505  874.315
 506  961.2277
 507  974.3133
 508  1247.707
 509  1344.805
 510  1201.389
 511  1451.002
