# Input file       =  1179805725.112519_cleaned.dat
# Candidate        =  PSR_0332+5434
# Telescope        =  AR
# Epoch_topo       =  57899.159075376381
# Epoch_bary       =  N/A
# T_sample         =  0.002
# Data Folded      =  7208960
# Data Avg         =  0.155323091183196
# Data StdDev      =  5.26769953769225 
# Profile Bins     =  1024
# Profile Avg      =  1093.66280785906 
# Profile StdDev   =  441.984790770676 
# Reduced chi-sqr  =  0.450
# Prob(Noise)      <  1   (~0.0 sigma)
# P_topo (ms)      =  714.522316441661  +/- 3.36e-05
# P'_topo (s/s)    =  -0                +/- 1.81e-11
# P''_topo (s/s^2) =  0                 +/- 8.12e-15
# P_bary (ms)      =  N/A
# P'_bary (s/s)    =  N/A
# P''_bary (s/s^2) =  N/A
# P_orb (s)        =  N/A
# asin(i)/c (s)    =  N/A
# eccentricity     =  N/A
# w (rad)          =  N/A
# T_peri           =  N/A
######################################################
   0  921.4241
   1  843.6259
   2  757.2673
   3  712.5435
   4  900.6545
   5  1000.93
   6  915.3304
   7  966.2158
   8  964.9935
   9  960.0519
  10  1178.868
  11  1182.616
  12  1178.41
  13  959.8388
  14  1012.994
  15  1048.456
  16  888.463
  17  855.2067
  18  971.9722
  19  1271.99
  20  1399.03
  21  1382.369
  22  1342.416
  23  1294.051
  24  1281.696
  25  1405.703
  26  1427.576
  27  1189.902
  28  1138.508
  29  1125.894
  30  1221.794
  31  1223.385
  32  1330.66
  33  1216.427
  34  1050.122
  35  1086.497
  36  1316.233
  37  1337.387
  38  1168.611
  39  1161.538
  40  1135.909
  41  1116.119
  42  840.493
  43  791.2181
  44  767.7498
  45  832.2542
  46  963.8049
  47  1039.083
  48  941.6511
  49  929.1094
  50  988.0305
  51  1098.246
  52  1003.75
  53  1010.128
  54  1129.52
  55  1277.609
  56  1156.737
  57  1187.935
  58  1011.896
  59  1036.434
  60  983.1995
  61  1042.144
  62  1105.301
  63  1023.932
  64  951.0449
  65  926.3584
  66  842.7607
  67  860.7603
  68  888.2592
  69  985.7085
  70  1082.555
  71  941.5176
  72  916.6239
  73  863.7435
  74  893.5955
  75  1060.151
  76  1034.612
  77  987.7319
  78  927.9117
  79  960.8374
  80  929.8002
  81  860.0594
  82  974.821
  83  1101.611
  84  1098.942
  85  1128.466
  86  1163.373
  87  1055.433
  88  1016.554
  89  1005.882
  90  1255.8
  91  1164.696
  92  1111.874
  93  998.4495
  94  956.5424
  95  780.4636
  96  718.6161
  97  786.8021
  98  788.9778
  99  786.8989
 100  1014.546
 101  1253.141
 102  1221.444
 103  1150.919
 104  1273.674
 105  1230.986
 106  1222.952
 107  1051.636
 108  1026.937
 109  797.1443
 110  772.835
 111  844.649
 112  760.534
 113  631.3558
 114  944.1044
 115  1274.448
 116  1286.072
 117  1218.249
 118  1199.938
 119  1418.446
 120  1282.693
 121  1195.963
 122  1176.595
 123  1030.222
 124  1003.017
 125  958.3203
 126  872.4969
 127  777.7728
 128  657.6651
 129  897.3266
 130  1129.648
 131  1179.629
 132  1157.742
 133  1145.506
 134  1090.422
 135  983.8008
 136  811.9455
 137  866.8551
 138  826.8251
 139  895.3427
 140  1007.737
 141  1040.06
 142  1046.261
 143  1101.715
 144  993.3722
 145  835.692
 146  901.7715
 147  1136.042
 148  1275.185
 149  1300.598
 150  1336.598
 151  1355.893
 152  1181.049
 153  1097.279
 154  1136.774
 155  1043.777
 156  1024.88
 157  1066.467
 158  1214.334
 159  1109.904
 160  1082.062
 161  1208.539
 162  1301.447
 163  1082.915
 164  1015.433
 165  985.4297
 166  1022.667
 167  1003.043
 168  1191.92
 169  1357.2
 170  1240.505
 171  1193.521
 172  1180.483
 173  1079.093
 174  1014.917
 175  993.2214
 176  1140.667
 177  969.0914
 178  880.1185
 179  989.9401
 180  943.2778
 181  815.405
 182  914.5144
 183  1005.095
 184  1130.564
 185  1123.35
 186  1261.849
 187  1271.425
 188  1158.686
 189  1141.586
 190  1215.311
 191  1179.469
 192  1296.702
 193  1219.713
 194  1127.835
 195  943.9365
 196  973.6999
 197  1118.87
 198  1280.323
 199  1248.105
 200  1363.921
 201  1285.945
 202  1246.154
 203  1413.278
 204  1494.441
 205  1530.75
 206  1358.874
 207  1261.174
 208  1406.346
 209  1234.185
 210  1072.977
 211  951.6641
 212  1034.709
 213  1054.642
 214  999.4729
 215  1233.482
 216  1404.34
 217  1396.154
 218  1411.476
 219  1425.693
 220  1297.491
 221  1176.969
 222  1016.427
 223  966.4532
 224  850.5281
 225  949.2233
 226  1138.21
 227  1073.029
 228  861.0889
 229  939.1595
 230  1044.941
 231  989.6208
 232  912.021
 233  1057.719
 234  1257.712
 235  1182.247
 236  1159.907
 237  932.4244
 238  734.4258
 239  782.2443
 240  921.8839
 241  890.91
 242  750.0225
 243  755.6523
 244  769.1711
 245  613.7143
 246  569.8666
 247  687.2584
 248  860.9055
 249  908.7206
 250  1062.688
 251  1172.793
 252  1235.655
 253  1207.281
 254  1317.107
 255  1362.594
 256  1289.025
 257  1203.709
 258  1174.082
 259  1084.64
 260  958.3898
 261  970.9695
 262  1059.62
 263  1085.397
 264  1052.384
 265  1161.137
 266  1250.146
 267  1379.759
 268  1354.682
 269  1240.415
 270  1049.983
 271  1036.684
 272  1004.707
 273  1154.958
 274  1045.129
 275  1188.795
 276  1188.286
 277  1098.629
 278  969.8537
 279  896.8071
 280  1014.036
 281  1173.669
 282  1280.775
 283  1548.845
 284  1528.305
 285  1477.981
 286  1425.064
 287  1346.526
 288  1168.159
 289  1200.201
 290  1290.201
 291  1366.509
 292  1082.256
 293  963.2193
 294  1084.337
 295  1104.35
 296  1043.756
 297  1220.444
 298  1247.48
 299  1224.543
 300  943.9447
 301  1040.061
 302  1088.151
 303  923.5438
 304  1010.602
 305  1243.478
 306  1197.598
 307  1275.972
 308  1139.559
 309  1282.653
 310  1049.176
 311  1080.381
 312  1180.873
 313  1124.919
 314  1105.804
 315  1219.124
 316  1255.84
 317  1121.444
 318  1050.639
 319  1193.07
 320  1279.955
 321  1156.023
 322  1017.318
 323  1107.305
 324  1098.354
 325  1169.843
 326  1047.783
 327  962.7798
 328  967.4135
 329  947.4052
 330  974.14
 331  777.0594
 332  726.5659
 333  848.8631
 334  954.6221
 335  1004.642
 336  963.1459
 337  937.9465
 338  903.5201
 339  914.6192
 340  1133.118
 341  1296.041
 342  1293.099
 343  1317.965
 344  1197.351
 345  1154.849
 346  969.6887
 347  938.8
 348  1011.12
 349  917.3587
 350  983.5296
 351  1133.64
 352  1201.828
 353  1092.23
 354  1155.294
 355  1251.906
 356  1193.056
 357  970.2638
 358  1021.883
 359  1117.167
 360  1104.812
 361  1030.825
 362  1065.111
 363  994.621
 364  975.6912
 365  1031.028
 366  1240.868
 367  1297.323
 368  1233.973
 369  1387.553
 370  1410.317
 371  1394.895
 372  1548.051
 373  1566.353
 374  1384.169
 375  1250.092
 376  1323.379
 377  1386.017
 378  1262.662
 379  1309.117
 380  1412.752
 381  1391.907
 382  1438.032
 383  1697.465
 384  1652.237
 385  1468.538
 386  1091.471
 387  1065.285
 388  1005.906
 389  1006.806
 390  1083.303
 391  1186.007
 392  1100.802
 393  1067.456
 394  1003.613
 395  1093.201
 396  1122.622
 397  1194.672
 398  1275.411
 399  1140.464
 400  1039.745
 401  1114.442
 402  1046.939
 403  1065.406
 404  1095.909
 405  1228.369
 406  1266.19
 407  1250.419
 408  1260.358
 409  1069.594
 410  851.1168
 411  820.2515
 412  997.8
 413  977.2545
 414  999.0505
 415  1036.747
 416  1122.367
 417  985.4928
 418  738.267
 419  904.5067
 420  956.4486
 421  1015.005
 422  949.9782
 423  878.9045
 424  867.6526
 425  785.4528
 426  977.9238
 427  1043.621
 428  976.1199
 429  1024.656
 430  1084.803
 431  1003.353
 432  781.2466
 433  791.6573
 434  956.9091
 435  896.7986
 436  813.6148
 437  908.851
 438  966.0167
 439  955.3226
 440  1025.54
 441  1147.051
 442  1032.441
 443  889.0768
 444  1011.607
 445  1113.607
 446  1103.534
 447  1166.253
 448  1142.146
 449  1136.624
 450  1087.784
 451  1029.394
 452  991.5182
 453  1000.826
 454  1063.603
 455  1248.292
 456  1159.106
 457  1107.463
 458  1260.135
 459  1123.918
 460  886.5469
 461  761.9949
 462  952.1921
 463  1146.762
 464  1023.09
 465  1104.264
 466  1108.1
 467  1029.878
 468  1139.273
 469  1339.119
 470  1257.823
 471  1163.705
 472  1090.466
 473  1188.118
 474  1063.654
 475  960.6312
 476  1007.069
 477  1102.406
 478  1055.467
 479  1252.732
 480  1320.774
 481  1263.513
 482  1147.535
 483  1181.472
 484  1406.029
 485  1398.346
 486  1487.486
 487  1588.874
 488  1522.208
 489  1372.881
 490  1133.956
 491  1081.83
 492  987.7933
 493  925.8705
 494  1077.487
 495  1044.713
 496  897.9145
 497  936.4648
 498  1227.131
 499  1249.57
 500  1066.884
 501  1121.645
 502  1319.925
 503  1347.147
 504  1243.319
 505  1189.95
 506  1019.538
 507  956.2966
 508  1025.212
 509  1022.625
 510  896.7958
 511  896.322
 512  1112.213
 513  1240.88
 514  1150.149
 515  1295.906
 516  1473.122
 517  1385.317
 518  1271.098
 519  1250.936
 520  1299.23
 521  1107.437
 522  1109.384
 523  1096.995
 524  1092.818
 525  1065.552
 526  1341.581
 527  1448.693
 528  1334.125
 529  1189.004
 530  1215.986
 531  1233.923
 532  1045.503
 533  1070.13
 534  1160.102
 535  1289.976
 536  1301.226
 537  1210.841
 538  1094.328
 539  1085.709
 540  1122.26
 541  1133.7
 542  1182.194
 543  1048.512
 544  1229.004
 545  1116.242
 546  1022.814
 547  931.2628
 548  1022.159
 549  1206.888
 550  1107.077
 551  1149.059
 552  1167.459
 553  997.5514
 554  1114.332
 555  1195.203
 556  1176.389
 557  1003.661
 558  845.6957
 559  943.6791
 560  968.2739
 561  928.2538
 562  1120.115
 563  1253.163
 564  1260.54
 565  1252.937
 566  1123.623
 567  1169.431
 568  952.8516
 569  954.9451
 570  982.1399
 571  1037.016
 572  1207.573
 573  1224.009
 574  1076.994
 575  983.6285
 576  983.9421
 577  1181.811
 578  1141.058
 579  1079.011
 580  1045.213
 581  1103.387
 582  1037.273
 583  1014.019
 584  1079.995
 585  1223.676
 586  1229.278
 587  1179.018
 588  1021.945
 589  901.0762
 590  926.0856
 591  1037.364
 592  1018.319
 593  959.8281
 594  1031.503
 595  1120.205
 596  1054.164
 597  1040.07
 598  1218.365
 599  1335.153
 600  1282.942
 601  1168.968
 602  1106.829
 603  997.9708
 604  1148.291
 605  1247.419
 606  1227.13
 607  951.3217
 608  889.191
 609  991.0579
 610  936.8527
 611  791.4207
 612  780.6506
 613  845.749
 614  1053.895
 615  1142.44
 616  1176.984
 617  1111.122
 618  997.3088
 619  1250.576
 620  1460.461
 621  1346.842
 622  1174.436
 623  995.6635
 624  944.5444
 625  909.989
 626  755.7763
 627  881.4103
 628  823.5728
 629  894.9125
 630  931.1085
 631  924.9362
 632  815.0099
 633  842.9792
 634  906.1181
 635  1051.812
 636  997.7607
 637  1301.767
 638  1237.617
 639  1127.302
 640  951.1108
 641  989.5717
 642  904.2695
 643  905.9797
 644  912.4681
 645  1057.171
 646  925.6692
 647  826.2089
 648  985.8537
 649  1167.098
 650  1118.918
 651  1184.877
 652  1196.359
 653  1020.522
 654  820.7265
 655  956.6287
 656  1083.929
 657  940.7726
 658  906.2988
 659  1095.417
 660  1114.123
 661  997.7164
 662  897.6332
 663  990.2167
 664  1055.224
 665  1036.172
 666  1084.813
 667  1087.166
 668  988.1311
 669  1074.337
 670  1103.116
 671  1016.143
 672  903.6971
 673  963.3322
 674  943.5207
 675  894.6236
 676  822.5966
 677  1002.504
 678  997.9324
 679  1098.437
 680  1185.611
 681  1252.084
 682  1149.543
 683  993.2655
 684  1138.495
 685  1254.41
 686  1232.134
 687  1206.581
 688  1068.338
 689  929.4265
 690  853.3047
 691  1004.614
 692  1043.234
 693  978.1906
 694  901.1306
 695  1079.987
 696  1061.28
 697  978.5643
 698  1038.67
 699  1119.779
 700  1071.459
 701  1037.88
 702  1118.255
 703  1167.539
 704  1058.241
 705  1202.759
 706  1321.096
 707  1245.859
 708  1241.927
 709  1195.443
 710  1170.863
 711  1112.41
 712  1064.025
 713  1244.963
 714  1197.38
 715  1274.095
 716  1282.778
 717  1271.506
 718  1126.855
 719  1028.489
 720  1120.239
 721  1179.629
 722  1005.893
 723  1196.724
 724  1265.161
 725  1129.324
 726  830.1585
 727  875.0569
 728  1001.902
 729  1077.865
 730  1067.277
 731  1140.395
 732  1054.943
 733  999.4974
 734  1094.109
 735  1095.841
 736  1021.398
 737  1101.409
 738  1136.471
 739  1036.787
 740  911.3494
 741  1040.82
 742  1351.322
 743  1340.106
 744  1319.807
 745  1417.422
 746  1328.92
 747  1196.55
 748  1239.707
 749  1308.164
 750  1310.819
 751  1103.619
 752  1237.076
 753  1279.288
 754  1226.715
 755  1283.701
 756  1508.108
 757  1638.43
 758  1528.085
 759  1304.956
 760  1321.33
 761  1239.798
 762  1238.99
 763  1188.775
 764  1064.595
 765  970.4373
 766  983.1292
 767  1099.422
 768  1122.103
 769  950.4366
 770  973.086
 771  986.1984
 772  1011.091
 773  1016.51
 774  1026.711
 775  1025.261
 776  1052.87
 777  1147.078
 778  1282.85
 779  1181.285
 780  1167.118
 781  1248.117
 782  1120.385
 783  1101.45
 784  1285.285
 785  1301.878
 786  1069.372
 787  846.1343
 788  810.2669
 789  843.7906
 790  961.4512
 791  1191.219
 792  1169.426
 793  928.7604
 794  1015.141
 795  1128.333
 796  1142.617
 797  1007.62
 798  1003.379
 799  939.3732
 800  900.6642
 801  984.9545
 802  1379.525
 803  1359.455
 804  991.3081
 805  897.8509
 806  999.6153
 807  1149.088
 808  952.7704
 809  924.6777
 810  1043.931
 811  1066.48
 812  1093.293
 813  1153.382
 814  1028.274
 815  1074.73
 816  1062.094
 817  1243.341
 818  1254.64
 819  1242.362
 820  1307.856
 821  1127.733
 822  938.9271
 823  902.1666
 824  922.0141
 825  1044.073
 826  1066.663
 827  1157.92
 828  1229.706
 829  1086.51
 830  1020.787
 831  1042.352
 832  1035.33
 833  1085.542
 834  960.0792
 835  1109.182
 836  1102.295
 837  989.1824
 838  889.8719
 839  881.5628
 840  817.35
 841  735.6884
 842  884.0618
 843  907.281
 844  929.9024
 845  827.2435
 846  891.4691
 847  863.0839
 848  984.6136
 849  1100.981
 850  1050.937
 851  1011.142
 852  1112.068
 853  941.2889
 854  843.1315
 855  788.7229
 856  984.0627
 857  966.3132
 858  928.6911
 859  927.8737
 860  999.3968
 861  949.2682
 862  1138.822
 863  1253.302
 864  1234.374
 865  1001.447
 866  1107.462
 867  1324.682
 868  1342.342
 869  1363.042
 870  1313.11
 871  1216.615
 872  1094.025
 873  988.8617
 874  1007.059
 875  915.9384
 876  947.1229
 877  1166.74
 878  1278.966
 879  1170.734
 880  1111.422
 881  1192.779
 882  1166.324
 883  1122.968
 884  1053.907
 885  1274.352
 886  1224.323
 887  1113.441
 888  1043.184
 889  935.3555
 890  1086.223
 891  1121.982
 892  1166.529
 893  1126.777
 894  1032.119
 895  1166.559
 896  1193.757
 897  1051.547
 898  1041.119
 899  1155.619
 900  1206.238
 901  1232.986
 902  1115.899
 903  1183.764
 904  1126.478
 905  1208.28
 906  1178.632
 907  1140.645
 908  966.4239
 909  1104.685
 910  1263.771
 911  1328.537
 912  1117.81
 913  1105.885
 914  1089.594
 915  1125.95
 916  1112.535
 917  1214.542
 918  1083.516
 919  876.8699
 920  969.4568
 921  1002.495
 922  1001.55
 923  830.1006
 924  979.9593
 925  1004.326
 926  961.8802
 927  1030.505
 928  1131.713
 929  1008.795
 930  885.4459
 931  962.7593
 932  1054.853
 933  994.3036
 934  1112.712
 935  1147.612
 936  1132.435
 937  1049.16
 938  1133.116
 939  1074.501
 940  983.5099
 941  960.1461
 942  1079.913
 943  1057.988
 944  970.9258
 945  1148.626
 946  1328.577
 947  1240.361
 948  1162.631
 949  1140.743
 950  1251.444
 951  1086.513
 952  1011.961
 953  1035.482
 954  965.584
 955  1073.893
 956  1103.577
 957  1018.767
 958  800.3318
 959  729.4266
 960  991.8927
 961  1045.622
 962  1026.195
 963  1097.916
 964  1199.09
 965  1146.937
 966  1201.946
 967  1173.048
 968  1125.282
 969  1045.127
 970  984.411
 971  981.3668
 972  903.2501
 973  1108.586
 974  1247.911
 975  1256.852
 976  1209.914
 977  1334.749
 978  1319.941
 979  1236.132
 980  1246.134
 981  1431.598
 982  1515.182
 983  1295.552
 984  1154.558
 985  1133.474
 986  849.785
 987  836.358
 988  817.6211
 989  1015.415
 990  1012.404
 991  1175.262
 992  1328.348
 993  1309.083
 994  1252.255
 995  1444.229
 996  1395.324
 997  1307.368
 998  1115.183
 999  1088.149
1000  1043.248
1001  956.8748
1002  1002.317
1003  1087.567
1004  1077.91
1005  1262.651
1006  1407.797
1007  1477.27
1008  1390.661
1009  1345.164
1010  1479.825
1011  1313.294
1012  1130.475
1013  1056.966
1014  1052.725
1015  1039.583
1016  1085.832
1017  1067.553
1018  1064.833
1019  959.9092
1020  1132.845
1021  1218.713
1022  1077.726
1023  871.9074
