# Input file       =  1179647529.112151_cleaned.dat
# Candidate        =  PSR_0332+5434
# Telescope        =  AR
# Epoch_topo       =  57897.328103149892
# Epoch_bary       =  N/A
# T_sample         =  0.002
# Data Folded      =  7340032
# Data Avg         =  0.0653244042550796
# Data StdDev      =  2.68492417385352 
# Profile Bins     =  512
# Profile Avg      =  936.493120454125 
# Profile StdDev   =  321.474123776863 
# Reduced chi-sqr  =  0.984
# Prob(Noise)      <  0.591   (~0.0 sigma)
# P_topo (ms)      =  714.52414504021   +/- 0.000231
# P'_topo (s/s)    =  -0                +/- 1.22e-10
# P''_topo (s/s^2) =  0                 +/- 5.39e-14
# P_bary (ms)      =  N/A
# P'_bary (s/s)    =  N/A
# P''_bary (s/s^2) =  N/A
# P_orb (s)        =  N/A
# asin(i)/c (s)    =  N/A
# eccentricity     =  N/A
# w (rad)          =  N/A
# T_peri           =  N/A
######################################################
   0  943.1798
   1  1006.294
   2  1072.402
   3  668.0562
   4  680.1569
   5  446.7412
   6  570.0464
   7  711.8491
   8  459.2083
   9  749.7203
  10  747.6077
  11  626.7873
  12  622.7296
  13  982.746
  14  1213.595
  15  1148.149
  16  795.9955
  17  338.2366
  18  833.2598
  19  1154.168
  20  953.9838
  21  658.8399
  22  849.9213
  23  1192.156
  24  1222.038
  25  830.0435
  26  883.2479
  27  843.5439
  28  845.989
  29  1018.745
  30  832.7086
  31  662.7819
  32  760.0085
  33  902.5344
  34  820.6938
  35  1078.422
  36  1066.752
  37  959.4462
  38  851.8386
  39  766.8467
  40  898.8203
  41  635.8787
  42  402.8343
  43  532.6682
  44  829.4348
  45  756.3702
  46  803.8092
  47  1038.338
  48  976.8585
  49  658.8506
  50  568.028
  51  665.9316
  52  998.2646
  53  1137.065
  54  861.8646
  55  841.1146
  56  778.7123
  57  843.6786
  58  881.8618
  59  868.8634
  60  957.8461
  61  1134.834
  62  1241.261
  63  1457.447
  64  1792.051
  65  1896.932
  66  1912.743
  67  1968.487
  68  1946.225
  69  1618.005
  70  1168.21
  71  1171.873
  72  1111.568
  73  1156.955
  74  822.5023
  75  1349.751
  76  1455.164
  77  1508.037
  78  1223.15
  79  1340.062
  80  1320.413
  81  865.9726
  82  984.6276
  83  908.0668
  84  977.8599
  85  1270.632
  86  1350.628
  87  1290.095
  88  1211.939
  89  812.4195
  90  761.9935
  91  1013.954
  92  1239.359
  93  1135.078
  94  1015.239
  95  946.234
  96  645.6666
  97  639.2331
  98  725.8397
  99  949.4113
 100  1181.001
 101  914.9636
 102  771.1635
 103  880.658
 104  988.1136
 105  1071.69
 106  874.493
 107  1015.545
 108  1238.517
 109  1410.779
 110  1011.712
 111  828.7053
 112  1139.335
 113  1157.95
 114  804.6073
 115  991.2067
 116  1305.371
 117  1085.745
 118  1105.148
 119  1110.66
 120  920.6008
 121  1079.279
 122  765.67
 123  867.1855
 124  1053.024
 125  837.3784
 126  440.2229
 127  843.768
 128  1191.439
 129  1049.277
 130  975.7006
 131  883.1244
 132  787.4164
 133  814.0267
 134  775.6061
 135  846.7736
 136  809.0922
 137  962.8981
 138  776.6113
 139  884.848
 140  1457.173
 141  1388.481
 142  1338.066
 143  1071.961
 144  972.9286
 145  956.2733
 146  1139.383
 147  1026.878
 148  966.2501
 149  900.301
 150  1005.124
 151  1275.502
 152  1166.587
 153  1271.425
 154  1220.541
 155  1040.964
 156  999.9872
 157  950.5741
 158  796.0178
 159  726.2094
 160  1086.775
 161  1244.163
 162  1086.931
 163  1139.181
 164  1030.03
 165  860.8748
 166  790.5616
 167  848.8729
 168  903.8109
 169  1124.104
 170  1162.487
 171  958.3279
 172  1070.662
 173  980.8227
 174  1056.218
 175  974.7379
 176  1177.978
 177  1145.623
 178  1139.784
 179  1241.267
 180  1128.644
 181  977.8879
 182  888.4741
 183  999.6906
 184  958.9728
 185  642.6869
 186  859.7044
 187  718.8318
 188  749.5489
 189  754.8286
 190  485.2735
 191  755.7025
 192  930.7416
 193  893.9677
 194  663.4455
 195  619.5782
 196  718.7631
 197  932.9095
 198  1082.958
 199  776.3979
 200  777.441
 201  847.3397
 202  1019.027
 203  1059.859
 204  973.0085
 205  1036.526
 206  1190.833
 207  1134.998
 208  962.5548
 209  822.0046
 210  998.4499
 211  1142.837
 212  1134.723
 213  1078.882
 214  1246.317
 215  1295.094
 216  868.6641
 217  916.9542
 218  1157.12
 219  1151.586
 220  723.6783
 221  968.3388
 222  1197.956
 223  892.0681
 224  919.8732
 225  1112.44
 226  755.0316
 227  424.5431
 228  532.8984
 229  947.6232
 230  1104.508
 231  650.7267
 232  448.8821
 233  571.9496
 234  653.6409
 235  941.4724
 236  997.7109
 237  985.1022
 238  1228.494
 239  1144.892
 240  725.8265
 241  660.1312
 242  1062.459
 243  1074.51
 244  533.2176
 245  606.7571
 246  710.217
 247  992.8961
 248  893.3856
 249  769.8783
 250  518.2631
 251  620.9582
 252  799.3456
 253  852.7092
 254  774.441
 255  1025.06
 256  771.6974
 257  629.8322
 258  954.6923
 259  967.9321
 260  875.3112
 261  923.3599
 262  997.1403
 263  746.7088
 264  944.804
 265  594.1779
 266  739.4888
 267  659.8809
 268  1173.865
 269  1324.684
 270  771.7021
 271  717.2089
 272  758.8023
 273  972.9976
 274  957.2995
 275  650.1876
 276  669.4915
 277  675.0128
 278  816.5373
 279  787.1642
 280  707.8653
 281  745.1179
 282  889.9304
 283  812.6821
 284  745.0017
 285  1034.479
 286  1114.094
 287  1080.53
 288  1327.858
 289  988.9857
 290  639.072
 291  741.5952
 292  700.0001
 293  927.0587
 294  986.4324
 295  1033.234
 296  712.1556
 297  606.0044
 298  880.7764
 299  780.9429
 300  717.3699
 301  1000.678
 302  833.9395
 303  857.8328
 304  803.235
 305  951.7792
 306  943.1014
 307  1011.042
 308  1355.01
 309  1062.267
 310  1194.195
 311  1299.346
 312  1114.728
 313  1062.435
 314  1018.528
 315  1524.044
 316  1295.948
 317  896.6996
 318  1080.744
 319  1152.656
 320  1241.134
 321  892.98
 322  702.7634
 323  876.9799
 324  943.5452
 325  967.0274
 326  1227.384
 327  1401.289
 328  1007.058
 329  838.5451
 330  828.5273
 331  664.1374
 332  931.5209
 333  1094.519
 334  1217.131
 335  1339.773
 336  1200.047
 337  830.7563
 338  764.2853
 339  651.6475
 340  830.1754
 341  906.9948
 342  946.0034
 343  630.1974
 344  708.7823
 345  1116.035
 346  766.6097
 347  557.0798
 348  755.2769
 349  914.3508
 350  894.0574
 351  892.2322
 352  1061.695
 353  1124.02
 354  1109.536
 355  822.8819
 356  902.3222
 357  959.9827
 358  982.899
 359  808.1404
 360  1048.368
 361  992.8933
 362  1009.928
 363  1031.567
 364  1121.303
 365  798.1633
 366  713.4775
 367  888.5731
 368  629.6398
 369  784.8354
 370  841.8336
 371  812.2072
 372  838.8078
 373  862.2454
 374  1039.334
 375  1184.324
 376  1137.723
 377  788.4896
 378  1078.856
 379  993.7438
 380  875.778
 381  605.8636
 382  970.0817
 383  1173.494
 384  931.1938
 385  923.2598
 386  959.5931
 387  670.0971
 388  679.7936
 389  1321.886
 390  1420.345
 391  1173.842
 392  913.2021
 393  680.9998
 394  650.2844
 395  392.5577
 396  831.8417
 397  1113.406
 398  842.6033
 399  1069.231
 400  1053.358
 401  1031.116
 402  879.3293
 403  857.0933
 404  853.7275
 405  830.0414
 406  861.2598
 407  1235.485
 408  820.3545
 409  879.594
 410  877.0859
 411  1058.715
 412  1105.841
 413  1182.838
 414  1276.639
 415  1081.758
 416  945.3796
 417  1068.567
 418  1094.49
 419  1012.785
 420  866.772
 421  1154.927
 422  1069.155
 423  1151.12
 424  935.0254
 425  831.6506
 426  1039.604
 427  1047.681
 428  1094.588
 429  1061.035
 430  990.389
 431  1022.049
 432  919.4754
 433  908.3657
 434  949.664
 435  1128.829
 436  1235.24
 437  966.2109
 438  863.9684
 439  1149.849
 440  998.0685
 441  1075.24
 442  861.3792
 443  852.8193
 444  1022.475
 445  868.5565
 446  867.8092
 447  873.4308
 448  887.4388
 449  513.4857
 450  479.7123
 451  448.8724
 452  527.1713
 453  705.7742
 454  971.2586
 455  797.0933
 456  967.7835
 457  1110.661
 458  991.0268
 459  815.3154
 460  649.536
 461  917.4939
 462  660.2111
 463  839.7532
 464  1075.365
 465  1372.95
 466  1048.697
 467  708.743
 468  606.4282
 469  755.8858
 470  1069.448
 471  870.515
 472  767.3808
 473  740.2225
 474  779.2209
 475  754.9638
 476  954.1286
 477  1049.815
 478  1163.298
 479  916.7231
 480  736.0634
 481  977.6249
 482  825.5852
 483  718.1913
 484  482.3915
 485  629.9666
 486  845.2972
 487  911.7518
 488  932.1113
 489  801.9553
 490  704.8345
 491  513.7159
 492  938.7904
 493  836.3644
 494  768.1047
 495  899.2097
 496  882.0505
 497  805.8061
 498  706.6027
 499  480.2578
 500  669.8478
 501  967.4783
 502  813.3514
 503  1018.546
 504  1266.063
 505  1024.811
 506  836.7687
 507  667.5709
 508  739.369
 509  741.9817
 510  666.5455
 511  764.1653
