# Input file       =  1179835321.101259_cleaned.dat
# Candidate        =  PSR_0332+5434
# Telescope        =  AR
# Epoch_topo       =  57899.501621542353
# Epoch_bary       =  N/A
# T_sample         =  0.002
# Data Folded      =  7340032
# Data Avg         =  0.0928464406720846
# Data StdDev      =  3.2381869433335  
# Profile Bins     =  512
# Profile Avg      =  1331.22866072276 
# Profile StdDev   =  387.717955080919 
# Reduced chi-sqr  =  1.034
# Prob(Noise)      <  0.289   (~0.6 sigma)
# P_topo (ms)      =  714.522343216623  +/- 0.000325
# P'_topo (s/s)    =  -0                +/- 1.71e-10
# P''_topo (s/s^2) =  0                 +/- 7.57e-14
# P_bary (ms)      =  N/A
# P'_bary (s/s)    =  N/A
# P''_bary (s/s^2) =  N/A
# P_orb (s)        =  N/A
# asin(i)/c (s)    =  N/A
# eccentricity     =  N/A
# w (rad)          =  N/A
# T_peri           =  N/A
######################################################
   0  1414.815
   1  1386.676
   2  1385.029
   3  1350.203
   4  1312.935
   5  1198.318
   6  1534.169
   7  1562.245
   8  1196.763
   9  1295.355
  10  1448.817
  11  1440.993
  12  1408.179
  13  1293.254
  14  944.73
  15  916.6992
  16  1160.093
  17  1109.561
  18  1432.188
  19  1074.879
  20  824.8735
  21  1041.115
  22  1333.999
  23  1349.107
  24  1075.354
  25  1540.712
  26  1670.487
  27  1412.935
  28  1378.542
  29  1730.819
  30  1348.478
  31  1230.397
  32  1259.754
  33  1349.01
  34  1167.575
  35  1204.586
  36  951.6714
  37  1311.71
  38  1288.598
  39  1172.052
  40  1015.586
  41  968.6376
  42  1371.614
  43  1159.449
  44  1624.025
  45  1491.551
  46  1271.568
  47  1300.169
  48  1319.197
  49  1303.503
  50  1511.702
  51  1816.143
  52  1538.887
  53  1422.932
  54  1242.01
  55  1099.584
  56  1384.949
  57  1353.886
  58  1387.923
  59  1238.353
  60  1287.376
  61  1332.608
  62  1485.341
  63  1506.087
  64  1158.28
  65  1269.74
  66  1698.55
  67  2115.744
  68  1753.885
  69  1403.468
  70  1716.2
  71  1811.812
  72  1571.731
  73  1525.221
  74  1593.896
  75  1573.146
  76  1771.744
  77  1882.255
  78  1628.167
  79  1747.173
  80  1434.54
  81  1807.279
  82  1783.85
  83  1419.397
  84  1672.14
  85  2021.232
  86  2080.815
  87  2154.038
  88  1840.784
  89  1454.828
  90  1332.453
  91  1664.92
  92  1509.816
  93  1559.552
  94  1671.679
  95  1895.83
  96  1589.027
  97  1660.311
  98  1641.789
  99  1497.55
 100  1435.489
 101  1288.108
 102  1596.533
 103  1659.27
 104  973.722
 105  817.9642
 106  1371.41
 107  1442.489
 108  1345.886
 109  1271.387
 110  1202.633
 111  1459.692
 112  1205.717
 113  1402.342
 114  1512.653
 115  1373.65
 116  1130.923
 117  1348.973
 118  1634.588
 119  1375.296
 120  1080.19
 121  1020.729
 122  1222.45
 123  1258.474
 124  1509.06
 125  1421.599
 126  1679.263
 127  1426.723
 128  1580.442
 129  1462.313
 130  1301.443
 131  1841.125
 132  2036.617
 133  1970.243
 134  2326.538
 135  1780.604
 136  1634.784
 137  1774.962
 138  1867.602
 139  1318.217
 140  1364.359
 141  1703.612
 142  1612.762
 143  1837.704
 144  1441.616
 145  1085.284
 146  981.0579
 147  870.5909
 148  1511.39
 149  1491.607
 150  1697.928
 151  1271.081
 152  904.6207
 153  1205.817
 154  1056.547
 155  1430.384
 156  1518.033
 157  1348.763
 158  1314.105
 159  1283.406
 160  1192.394
 161  1360.403
 162  1264.466
 163  1399.796
 164  1397.888
 165  1504.309
 166  1456.096
 167  1691.126
 168  1554.681
 169  1430.166
 170  1166.946
 171  1676.253
 172  1656.874
 173  1738.762
 174  1712.491
 175  1365.215
 176  1207.399
 177  1416.591
 178  1244.463
 179  1437.308
 180  1553.169
 181  1101.888
 182  914.7564
 183  1319.547
 184  1032.885
 185  1304.155
 186  1096.393
 187  1003.231
 188  798.3424
 189  802.635
 190  651.4366
 191  925.5474
 192  1085.338
 193  1091.835
 194  990.9334
 195  635.6019
 196  673.0317
 197  574.6984
 198  859.9719
 199  1251.44
 200  1271.676
 201  1141.011
 202  1259.285
 203  1243.193
 204  1212.958
 205  1223.736
 206  1075.634
 207  1032.592
 208  1103.626
 209  1267.816
 210  1590.067
 211  1443.869
 212  1609.016
 213  1558.33
 214  961.8506
 215  1259.016
 216  1360.346
 217  1292.223
 218  1272.389
 219  1470.872
 220  1323.67
 221  649.373
 222  937.0184
 223  1475.185
 224  1525.9
 225  1407.359
 226  1259.338
 227  1072.876
 228  924.5116
 229  1082.312
 230  1293.565
 231  1084.803
 232  1137.384
 233  1172.367
 234  1284.694
 235  1309.566
 236  1306.945
 237  1146.962
 238  854.1838
 239  975.9378
 240  1148.207
 241  866.7722
 242  1045.872
 243  1108.822
 244  1144.69
 245  1245.885
 246  1305.018
 247  1213.236
 248  1161.003
 249  1274.507
 250  1168.733
 251  1260.414
 252  1554.453
 253  866.828
 254  698.2238
 255  1112.591
 256  1160.195
 257  1304.149
 258  1420.711
 259  1454.56
 260  1517.447
 261  1503.995
 262  1416.932
 263  1398.086
 264  1096.107
 265  1185.344
 266  1274.271
 267  1480.073
 268  1489.066
 269  1138.712
 270  975.0413
 271  1191.382
 272  1303.132
 273  1551.217
 274  1188.983
 275  1371.407
 276  962.9058
 277  769.8554
 278  1308.735
 279  1329.181
 280  1124.49
 281  1523.787
 282  1124.901
 283  1245.259
 284  1483.907
 285  1273.484
 286  1610.357
 287  1728.299
 288  1744.658
 289  1418.618
 290  1368.856
 291  1315.092
 292  1231.361
 293  1200.326
 294  1074.754
 295  1581.891
 296  1801.333
 297  1609.774
 298  1336.184
 299  1219.539
 300  1334
 301  1434.01
 302  1491.427
 303  1567.106
 304  1265.941
 305  1314.777
 306  1630.442
 307  1299.456
 308  1576.631
 309  1576.905
 310  1659.844
 311  1374.598
 312  1190.482
 313  1186.202
 314  962.17
 315  899.6436
 316  990.2684
 317  1059.081
 318  1258.588
 319  1038.864
 320  1059.219
 321  1398.635
 322  1188.761
 323  1664.604
 324  1553.724
 325  1376.57
 326  1340.92
 327  1914.724
 328  2186.872
 329  2128.251
 330  2259.638
 331  2136.264
 332  1723.547
 333  1351.676
 334  1409.127
 335  1326.703
 336  1102.372
 337  1077.855
 338  984.9863
 339  983.3932
 340  1271.247
 341  1301.937
 342  1329.699
 343  1243.714
 344  1466.101
 345  1513.463
 346  1543.311
 347  1293.45
 348  1628.294
 349  1606.013
 350  1290.536
 351  1027.38
 352  904.1681
 353  788.5704
 354  1045.308
 355  1137.084
 356  685.2984
 357  737.4446
 358  1011.724
 359  1415.666
 360  1600.291
 361  1259.673
 362  912.4907
 363  1127.804
 364  1482.515
 365  1269.902
 366  775.3795
 367  756.1604
 368  866.6193
 369  1208.22
 370  1273.095
 371  972.4266
 372  906.2908
 373  1329.507
 374  1465.237
 375  1005.575
 376  1378.955
 377  1616.118
 378  1775.976
 379  1492.583
 380  1585.678
 381  1367.197
 382  1455.921
 383  1495.341
 384  1782.294
 385  1766.762
 386  1493.599
 387  1784.834
 388  1580.987
 389  1509.664
 390  1731.993
 391  1276.348
 392  1254.157
 393  1354.245
 394  996.6473
 395  1106.037
 396  1088.173
 397  886.0989
 398  763.1292
 399  923.0013
 400  1316.771
 401  862.6475
 402  770.8002
 403  1123.073
 404  1370.604
 405  1009.612
 406  887.0441
 407  866.9806
 408  864.0622
 409  710.9714
 410  705.5433
 411  869.7599
 412  1231.28
 413  941.6995
 414  1268.402
 415  1236.641
 416  1155.448
 417  1133.093
 418  1130.043
 419  1176.632
 420  1536.91
 421  1237.1
 422  1252.201
 423  1441.069
 424  1321.238
 425  1412.398
 426  1383.331
 427  1553.656
 428  1649.065
 429  1580.12
 430  1719.49
 431  1411.615
 432  1026.715
 433  1327.605
 434  1073.149
 435  1276.804
 436  1401.698
 437  1300.482
 438  1431.828
 439  1420.243
 440  1471.464
 441  1242.205
 442  1311.898
 443  1043.072
 444  1467.048
 445  1412.505
 446  1439.362
 447  1366.575
 448  977.2338
 449  849.5916
 450  1113.542
 451  1011.607
 452  921.3448
 453  1184.038
 454  1031.192
 455  1044.876
 456  1559.527
 457  1323.01
 458  1207.374
 459  1205.064
 460  1217.951
 461  1503.011
 462  1486.103
 463  1362.043
 464  1701.014
 465  1549.473
 466  1284.009
 467  1539.27
 468  1709.938
 469  1957.443
 470  1644.743
 471  1750.279
 472  1732.941
 473  1532.941
 474  1883.37
 475  1604.702
 476  1416.177
 477  1421.733
 478  1483.301
 479  1047.33
 480  1100.888
 481  1464.072
 482  1263.838
 483  1097.087
 484  903.3412
 485  925.5402
 486  1352.495
 487  1611.401
 488  1489.027
 489  1727.448
 490  1190.903
 491  1123.605
 492  1138.814
 493  1304.777
 494  1655.373
 495  1148.069
 496  1479.418
 497  1365.211
 498  1301.411
 499  1331.592
 500  1025.281
 501  1254.425
 502  1218.538
 503  1194.84
 504  1255.647
 505  1388.78
 506  1459.998
 507  1582.903
 508  1448.263
 509  1305.444
 510  1760.353
 511  1582.655
