# Input file       =  1179647529.112151_cleaned.dat
# Candidate        =  PSR_0332+5434
# Telescope        =  AR
# Epoch_topo       =  57897.328103149892
# Epoch_bary       =  N/A
# T_sample         =  0.002
# Data Folded      =  7340032
# Data Avg         =  0.0653244042550796
# Data StdDev      =  2.68492417385352 
# Profile Bins     =  512
# Profile Avg      =  936.493120584928 
# Profile StdDev   =  321.474123776863 
# Reduced chi-sqr  =  0.971
# Prob(Noise)      <  0.673   (~0.0 sigma)
# P_topo (ms)      =  714.52414505351   +/- 0.000232
# P'_topo (s/s)    =  -0                +/- 1.23e-10
# P''_topo (s/s^2) =  0                 +/- 5.41e-14
# P_bary (ms)      =  N/A
# P'_bary (s/s)    =  N/A
# P''_bary (s/s^2) =  N/A
# P_orb (s)        =  N/A
# asin(i)/c (s)    =  N/A
# eccentricity     =  N/A
# w (rad)          =  N/A
# T_peri           =  N/A
######################################################
   0  613.9821
   1  566.0825
   2  725.4162
   3  850.9061
   4  760.3815
   5  951.4375
   6  916.257
   7  636.7316
   8  807.7197
   9  1006.927
  10  872.6367
  11  887.2242
  12  1018.266
  13  832.3144
  14  859.5272
  15  735.5684
  16  684.4008
  17  673.6285
  18  917.5118
  19  1344.614
  20  1050.331
  21  621.7443
  22  813.1968
  23  833.5424
  24  1024.864
  25  724.0416
  26  646.791
  27  689.3777
  28  759.9564
  29  800.3447
  30  790.9241
  31  672.4958
  32  836.1049
  33  875.6894
  34  750.924
  35  900.7451
  36  1118.199
  37  1073.072
  38  1247.456
  39  1207.59
  40  693.9564
  41  703.3756
  42  704.4823
  43  848.2719
  44  912.4122
  45  1109.634
  46  812.1071
  47  637.9488
  48  755.7269
  49  867.8592
  50  682.4261
  51  896.5187
  52  917.3576
  53  818.4539
  54  816.9101
  55  887.3816
  56  990.2915
  57  948.807
  58  1236.06
  59  1231.095
  60  1039.083
  61  1334.49
  62  1139.915
  63  1115.392
  64  970.7404
  65  1322.292
  66  1476.729
  67  1015.089
  68  994.47
  69  1153.923
  70  1158.176
  71  1133.419
  72  644.2376
  73  886.1601
  74  883.3383
  75  967.0088
  76  1069.19
  77  1374.124
  78  1237.644
  79  822.8176
  80  915.3141
  81  666.8565
  82  785.7443
  83  1055.901
  84  1151.734
  85  1305.613
  86  1318.412
  87  967.1469
  88  789.6297
  89  668.4474
  90  745.8372
  91  893.8058
  92  941.3672
  93  767.7075
  94  594.2943
  95  979.4222
  96  1032.171
  97  522.0758
  98  699.1545
  99  860.7285
 100  933.4658
 101  830.7404
 102  1007.376
 103  1087.177
 104  1178.479
 105  958.0793
 106  790.9216
 107  991.1822
 108  958.5962
 109  844.7556
 110  963.3699
 111  990.3297
 112  1057.912
 113  965.8386
 114  1132.97
 115  913.569
 116  698.8027
 117  872.14
 118  737.4678
 119  744.0461
 120  789.7809
 121  850.4945
 122  785.4643
 123  875.6492
 124  920.23
 125  1150.106
 126  1199.892
 127  909.8692
 128  919.6089
 129  1071.209
 130  955.3209
 131  672.0643
 132  752.8216
 133  1168.276
 134  1076.924
 135  840.1462
 136  995.2725
 137  793.6206
 138  599.0657
 139  1065.928
 140  1453.399
 141  1301.663
 142  1013.91
 143  764.1116
 144  671.9374
 145  472.6558
 146  577.2562
 147  1070.069
 148  959.686
 149  922.5904
 150  1109.678
 151  1011.281
 152  981.6472
 153  824.4926
 154  881.7218
 155  852.5201
 156  797.2159
 157  1097.312
 158  1034.45
 159  760.2421
 160  955.9427
 161  925.7115
 162  1120.063
 163  1109.328
 164  1306.439
 165  1146.244
 166  1004.132
 167  984.5004
 168  1098.096
 169  1058.456
 170  854.5971
 171  1096.818
 172  1092.734
 173  1151.923
 174  1037.951
 175  791.7466
 176  967.4261
 177  1052.607
 178  1076.685
 179  1118.652
 180  987.5539
 181  1016.865
 182  983.3789
 183  889.8319
 184  973.4296
 185  987.6589
 186  1278.18
 187  1069.717
 188  833.1695
 189  1073.045
 190  1053.237
 191  1048.145
 192  982.4008
 193  765.4035
 194  1008.214
 195  904.7936
 196  902.0165
 197  826.5532
 198  973.9031
 199  654.9865
 200  471.4459
 201  465.8973
 202  476.4679
 203  580.0477
 204  917.4255
 205  870.0464
 206  849.447
 207  1089.057
 208  1071.634
 209  890.2881
 210  670.3701
 211  799.1793
 212  829.9377
 213  691.8951
 214  990.9205
 215  1252.917
 216  1253.69
 217  813.4493
 218  647.4736
 219  614.7509
 220  996.1981
 221  976.8063
 222  786.1754
 223  736.0529
 224  782.9097
 225  756.2878
 226  839.2319
 227  1038.755
 228  1105.865
 229  1110.261
 230  696.5312
 231  923.2659
 232  869.5023
 233  807.1547
 234  554.9401
 235  547.5536
 236  769.3256
 237  890.3147
 238  919.921
 239  860.7306
 240  765.0304
 241  551.5576
 242  779.3049
 243  923.6027
 244  765.5853
 245  824.2819
 246  934.3661
 247  824.5779
 248  759.2524
 249  537.1606
 250  528.3802
 251  896.6739
 252  898.7945
 253  867.4247
 254  1209.281
 255  1162.763
 256  895.7658
 257  752.4998
 258  672.961
 259  757.6219
 260  707.7625
 261  675.5883
 262  922.5741
 263  931.5838
 264  1136.232
 265  782.4366
 266  671.1738
 267  548.9284
 268  478.5452
 269  737.2408
 270  537.0161
 271  597.4331
 272  799.0274
 273  652.1813
 274  575.7308
 275  812.3028
 276  1148.429
 277  1239.728
 278  952.886
 279  489.7934
 280  526.8057
 281  1139.21
 282  1076.574
 283  713.6203
 284  736.1333
 285  1010.589
 286  1338.931
 287  936.1725
 288  858.381
 289  902.235
 290  792.8372
 291  959.3312
 292  918.8909
 293  745.5655
 294  661.8101
 295  925.6131
 296  770.9054
 297  998.3576
 298  1048.908
 299  1066.096
 300  847.224
 301  827.8917
 302  830.6758
 303  827.041
 304  442.511
 305  448.251
 306  739.7827
 307  799.9202
 308  717.9164
 309  945.962
 310  1067.793
 311  797.3835
 312  553.439
 313  632.4329
 314  821.2529
 315  1150.338
 316  958.6154
 317  809.0945
 318  860.1677
 319  784.2613
 320  916.4935
 321  812.3331
 322  939.3276
 323  1009.428
 324  1259.042
 325  1300.874
 326  1636.116
 327  1935.039
 328  1830.888
 329  2003.956
 330  1922.995
 331  1856.489
 332  1303.654
 333  1172.109
 334  1113.989
 335  1189.043
 336  903.3994
 337  1120.964
 338  1448.227
 339  1522.637
 340  1317.722
 341  1219.387
 342  1398.953
 343  1031.954
 344  873.7019
 345  1013.324
 346  881.9202
 347  1188.353
 348  1346.188
 349  1294.981
 350  1273.524
 351  980.6759
 352  741.8945
 353  932.882
 354  1124.165
 355  1270.757
 356  967.9309
 357  1050.414
 358  737.2589
 359  640.4012
 360  651.0187
 361  819.976
 362  1118.837
 363  1092.088
 364  798.681
 365  833.7202
 366  882.866
 367  1106.983
 368  934.5189
 369  969.3437
 370  1103.833
 371  1413.697
 372  1213.251
 373  816.8099
 374  946.9338
 375  1267.679
 376  925.3738
 377  854.7618
 378  1203.787
 379  1215.932
 380  1053.361
 381  1162.221
 382  967.2103
 383  1018.568
 384  923.7208
 385  732.9181
 386  1002.505
 387  1027.764
 388  509.0507
 389  596.3615
 390  1116.856
 391  1136.231
 392  1014.954
 393  937.9393
 394  793.6736
 395  828.3905
 396  825.6527
 397  786.5807
 398  839.7102
 399  841.3315
 400  919.1141
 401  703.6018
 402  1256.239
 403  1462.191
 404  1361.121
 405  1208.452
 406  1002.4
 407  958.9136
 408  1049.748
 409  1094.984
 410  984.0648
 411  912.5241
 412  947.7708
 413  1190.612
 414  1228.553
 415  1175.798
 416  1273.172
 417  1120.873
 418  1028.488
 419  961.9727
 420  882.5442
 421  674.5002
 422  948.7714
 423  1236.485
 424  1166.762
 425  1098.439
 426  1086.863
 427  954.1962
 428  803.3243
 429  794.0703
 430  898.316
 431  972.9548
 432  1254.81
 433  948.1562
 434  1049.233
 435  1002.485
 436  1057.3
 437  973.2083
 438  1084.691
 439  1203.502
 440  1126.892
 441  1192.494
 442  1217.572
 443  1033.565
 444  905.0206
 445  944.2762
 446  1016.541
 447  764.8165
 448  750.1473
 449  819.864
 450  659.4502
 451  846.6754
 452  521.0156
 453  644.1838
 454  874.5502
 455  927.611
 456  739.6284
 457  570.0292
 458  714.7836
 459  849.155
 460  1103.182
 461  871.1912
 462  741.4486
 463  796.6257
 464  949.7852
 465  1076.127
 466  1017.526
 467  980.4172
 468  1145.027
 469  1160.14
 470  1044.849
 471  836.5542
 472  932.5372
 473  1056.247
 474  1203.498
 475  1023.141
 476  1224.193
 477  1273.946
 478  1136.707
 479  782.2899
 480  1108.759
 481  1195.111
 482  913.9894
 483  759.5868
 484  1149.957
 485  1020.659
 486  829.0038
 487  1097.064
 488  946.5587
 489  493.4111
 490  489.1217
 491  719.9169
 492  1178.193
 493  833.5702
 494  522.3273
 495  496.822
 496  648.9164
 497  737.6708
 498  1041.243
 499  933.9181
 500  1136.754
 501  1278.383
 502  860.9763
 503  626.9033
 504  870.5321
 505  1184.33
 506  707.5582
 507  548.5911
 508  643.5619
 509  905.3028
 510  964.8933
 511  822.0419
