# Input file       =  1179374391.100717_cleaned.dat
# Candidate        =  PSR_0332+5434
# Telescope        =  AR
# Epoch_topo       =  57894.166783573113
# Epoch_bary       =  N/A
# T_sample         =  0.002
# Data Folded      =  7208960
# Data Avg         =  0.131512214915446
# Data StdDev      =  4.25910389947861 
# Profile Bins     =  1024
# Profile Avg      =  925.848443746277 
# Profile StdDev   =  357.358868403933 
# Reduced chi-sqr  =  0.587
# Prob(Noise)      <  1   (~0.0 sigma)
# P_topo (ms)      =  714.527251574983  +/- 9.88e-05
# P'_topo (s/s)    =  -0                +/- 5.31e-11
# P''_topo (s/s^2) =  0                 +/- 2.39e-14
# P_bary (ms)      =  N/A
# P'_bary (s/s)    =  N/A
# P''_bary (s/s^2) =  N/A
# P_orb (s)        =  N/A
# asin(i)/c (s)    =  N/A
# eccentricity     =  N/A
# w (rad)          =  N/A
# T_peri           =  N/A
######################################################
   0  875.6465
   1  805.4803
   2  933.1263
   3  1059.328
   4  955.3863
   5  1008.525
   6  1090.406
   7  1080.584
   8  958.8696
   9  939.8706
  10  1085.387
  11  1092.05
  12  1019.444
  13  1005.376
  14  976.5391
  15  842.8212
  16  809.3102
  17  787.58
  18  953.6393
  19  948.5035
  20  1035.852
  21  1086.706
  22  1017.04
  23  950.2189
  24  917.7288
  25  1107.194
  26  1167.756
  27  1059.031
  28  764.2031
  29  661.8912
  30  597.8217
  31  694.0914
  32  772.8874
  33  891.6329
  34  1052.774
  35  1039.544
  36  988.7124
  37  909.2143
  38  1018.642
  39  1159.628
  40  1202.484
  41  1194.563
  42  1155.596
  43  1228.854
  44  1177.165
  45  1079.919
  46  904.4626
  47  943.3694
  48  1068.86
  49  1105.83
  50  1038.361
  51  962.356
  52  909.2129
  53  896.632
  54  911.3226
  55  1048.192
  56  1165.327
  57  1117.816
  58  1164.82
  59  1093.274
  60  1025.108
  61  866.6989
  62  883.9409
  63  950.0657
  64  889.9379
  65  805.5291
  66  780.3091
  67  950.7137
  68  990.3004
  69  989.222
  70  913.6393
  71  1063.364
  72  981.0168
  73  915.515
  74  856.4841
  75  871.9661
  76  1000.567
  77  1091.736
  78  1096.937
  79  1124.507
  80  1045.269
  81  958.1628
  82  819.0029
  83  892.5802
  84  1068.182
  85  1126.496
  86  1086.187
  87  820.4529
  88  664.9869
  89  657.3829
  90  783.4384
  91  879.1744
  92  932.4285
  93  926.5763
  94  1034.141
  95  980.6033
  96  956.0399
  97  858.7606
  98  891.1655
  99  815.7112
 100  827.1927
 101  911.4519
 102  854.1672
 103  839.8409
 104  926.2115
 105  1056.31
 106  977.5897
 107  891.5996
 108  1099.896
 109  1191.607
 110  1140.968
 111  949.6641
 112  929.4069
 113  951.1839
 114  882.8038
 115  844.307
 116  952.0511
 117  1030.369
 118  1073.237
 119  981.275
 120  896.111
 121  990.7769
 122  985.0546
 123  989.7537
 124  906.1376
 125  938.4606
 126  934.743
 127  791.1624
 128  744.8184
 129  717.9995
 130  879.3143
 131  931.3539
 132  1029.384
 133  979.6556
 134  985.207
 135  1018.659
 136  1234.329
 137  1181.205
 138  1073.017
 139  1064.496
 140  1095.727
 141  1110.298
 142  1105.335
 143  1157.528
 144  1159.514
 145  1109.725
 146  1148.289
 147  1095.91
 148  1034.764
 149  990.5522
 150  955.6786
 151  1030.241
 152  945.4357
 153  1030.913
 154  1116.521
 155  1244.988
 156  1210.053
 157  1169.867
 158  1156.419
 159  1119.711
 160  1010.617
 161  915.2321
 162  813.9883
 163  795.4595
 164  857.163
 165  891.3958
 166  951.6887
 167  1008.621
 168  1169.995
 169  1193.884
 170  916.8887
 171  633.4948
 172  587.0168
 173  834.3137
 174  964.4226
 175  925.0985
 176  818.2418
 177  625.971
 178  627.8143
 179  744.9327
 180  866.7855
 181  904.1637
 182  1049.636
 183  1145.682
 184  1250.278
 185  1222.32
 186  1066.211
 187  834.512
 188  756.27
 189  934.0438
 190  1003.553
 191  1120.454
 192  1048.044
 193  891.2372
 194  692.7067
 195  686.9755
 196  799.8757
 197  832.2562
 198  827.5085
 199  902.2825
 200  1063.84
 201  1171.736
 202  1139.389
 203  1037.015
 204  1036.365
 205  982.9755
 206  1110.552
 207  1148.09
 208  1057.474
 209  1010.128
 210  1064.194
 211  1215.538
 212  1156.922
 213  1081.835
 214  1059.239
 215  1070.771
 216  1036.03
 217  1038.772
 218  964.5455
 219  989.0699
 220  963.8773
 221  985.2698
 222  941.6672
 223  913.4276
 224  973.4329
 225  1026.301
 226  1054.85
 227  981.9833
 228  924.8487
 229  837.0876
 230  654.5659
 231  566.6619
 232  646.1471
 233  804.2484
 234  886.6044
 235  921.5146
 236  858.3921
 237  882.2401
 238  1017.484
 239  1248.489
 240  1325.219
 241  1161.388
 242  1107.281
 243  1015.118
 244  906.4583
 245  786.0971
 246  889.3096
 247  915.9785
 248  890.0519
 249  839.4348
 250  836.3691
 251  906.0494
 252  910.6923
 253  965.2156
 254  932.413
 255  889.4902
 256  901.8793
 257  835.356
 258  850.498
 259  865.4647
 260  873.6288
 261  814.806
 262  752.2834
 263  758.6011
 264  917.2468
 265  949.5666
 266  968.6734
 267  1018.5
 268  964.0212
 269  936.6343
 270  822.0652
 271  930.702
 272  995.9448
 273  957.8907
 274  881.8769
 275  906.2834
 276  944.1497
 277  970.6537
 278  830.0952
 279  844.3878
 280  808.0872
 281  767.05
 282  826.4792
 283  885.105
 284  1086.019
 285  1023.943
 286  1011.978
 287  928.2673
 288  913.5876
 289  982.9308
 290  942.9417
 291  984.5546
 292  839.6707
 293  808.99
 294  739.6312
 295  669.9273
 296  670.8278
 297  768.7675
 298  901.8202
 299  952.5586
 300  859.2995
 301  870.4106
 302  892.1747
 303  932.4996
 304  952.5031
 305  966.9149
 306  939.0097
 307  957.0723
 308  1022.469
 309  949.3524
 310  654.6095
 311  569.5242
 312  750.3171
 313  1016.464
 314  1093.098
 315  1060.433
 316  958.118
 317  904.3448
 318  769.9961
 319  744.1735
 320  645.1023
 321  784.3516
 322  842.036
 323  869.1191
 324  880.3431
 325  713.2829
 326  764.0003
 327  755.3097
 328  766.1931
 329  811.2524
 330  824.9648
 331  864.5587
 332  752.7278
 333  820.994
 334  850.8757
 335  915.8826
 336  893.4157
 337  905.2493
 338  842.928
 339  850.9385
 340  916.8992
 341  1078.01
 342  1096.237
 343  1010.312
 344  880.6486
 345  836.762
 346  821.7094
 347  945.558
 348  905.3995
 349  1008.966
 350  935.3005
 351  1041.311
 352  947.2822
 353  856.7564
 354  750.0078
 355  910.9125
 356  1041.953
 357  1114.028
 358  929.8474
 359  817.8987
 360  676.5073
 361  677.656
 362  741.207
 363  684.4817
 364  662.8247
 365  707.2126
 366  979.9005
 367  1113.67
 368  1098.136
 369  979.3178
 370  966.6411
 371  875.5048
 372  847.5501
 373  852.8527
 374  870.4928
 375  881.3251
 376  833.7059
 377  972.919
 378  830.3851
 379  826.4888
 380  800.7358
 381  964.8683
 382  1084.582
 383  1144.984
 384  955.6585
 385  730.7783
 386  705.4966
 387  730.8983
 388  775.0691
 389  807.8468
 390  830.6197
 391  877.8323
 392  760.3044
 393  810.0818
 394  905.6407
 395  1007.557
 396  980.3997
 397  829.0211
 398  711.8173
 399  837.9777
 400  940.3389
 401  935.8231
 402  884.3953
 403  925.0573
 404  1082.333
 405  960.7394
 406  905.9276
 407  844.1938
 408  970.2323
 409  976.3467
 410  902.9818
 411  824.712
 412  789.5005
 413  904.6006
 414  853.4662
 415  899.9515
 416  965.1157
 417  1043.961
 418  967.8852
 419  917.7791
 420  867.4976
 421  894.6294
 422  910.4837
 423  819.4696
 424  851.5062
 425  866.6537
 426  973.9085
 427  889.259
 428  830.423
 429  747.918
 430  705.1585
 431  930.5334
 432  1201.738
 433  1200.549
 434  1027.829
 435  988.8252
 436  982.2753
 437  846.7623
 438  774.5888
 439  921.9553
 440  991.0257
 441  914.5142
 442  857.4109
 443  1009.872
 444  1080.222
 445  1075.337
 446  958.6758
 447  950.1202
 448  943.7857
 449  1104.048
 450  1103.292
 451  1056.493
 452  904.3901
 453  1055.806
 454  1247.304
 455  1221.883
 456  1075.456
 457  872.2839
 458  791.1804
 459  702.6586
 460  750.5286
 461  740.8166
 462  681.7402
 463  703.6541
 464  861.1433
 465  896.3148
 466  797.1885
 467  861.0071
 468  879.212
 469  889.39
 470  868.0007
 471  873.8329
 472  921.4931
 473  804.4586
 474  687.5839
 475  597.4613
 476  565.9922
 477  692.3249
 478  759.4364
 479  721.3526
 480  655.6273
 481  633.1081
 482  839.2708
 483  856.3395
 484  784.1058
 485  729.261
 486  680.864
 487  753.3763
 488  823.0408
 489  931.0936
 490  921.697
 491  930.7214
 492  945.5306
 493  849.1135
 494  721.1312
 495  776.7018
 496  959.024
 497  1024.399
 498  946.2016
 499  858.7933
 500  938.0584
 501  852.4698
 502  786.2464
 503  848.1363
 504  870.4342
 505  979.6584
 506  913.0306
 507  1028.585
 508  967.6598
 509  866.8434
 510  850.6955
 511  802.5458
 512  832.1488
 513  755.8954
 514  845.8752
 515  787.0778
 516  713.5966
 517  600.0107
 518  696.793
 519  762.5153
 520  934.0161
 521  991.502
 522  996.6694
 523  880.0122
 524  838.2238
 525  827.3176
 526  734.9363
 527  834.9372
 528  930.0261
 529  870.6768
 530  656.4214
 531  567.9102
 532  707.6279
 533  806.4924
 534  739.2379
 535  757.163
 536  916.2585
 537  1137.011
 538  1048.041
 539  957.7249
 540  744.2697
 541  653.2318
 542  616.0009
 543  715.7255
 544  773.4102
 545  818.5709
 546  957.6198
 547  1082.071
 548  1035.975
 549  924.5001
 550  870.2435
 551  839.5649
 552  812.2006
 553  702.8131
 554  730.6417
 555  853.5034
 556  1008.111
 557  949.047
 558  890.2136
 559  857.7614
 560  856.9509
 561  790.8242
 562  802.1567
 563  834.528
 564  836.4053
 565  884.3495
 566  915.1557
 567  895.8938
 568  751.6922
 569  757.5535
 570  905.0128
 571  983.4858
 572  952.6719
 573  918.2084
 574  914.6255
 575  860.928
 576  831.8152
 577  933.4667
 578  936.3743
 579  1018.415
 580  1022.899
 581  1011.736
 582  888.7401
 583  928.0922
 584  1111.346
 585  1126.053
 586  1162.743
 587  1092.846
 588  1169.937
 589  1039.84
 590  876.314
 591  811.2714
 592  891.3372
 593  927.5336
 594  940.9731
 595  857.6835
 596  740.0696
 597  831.5037
 598  979.3702
 599  1087.088
 600  1045.543
 601  1093.588
 602  1178.633
 603  1065.314
 604  931.4182
 605  926.0678
 606  947.9727
 607  963.0723
 608  789.1315
 609  780.9047
 610  654.7473
 611  681.2584
 612  806.4969
 613  1031.798
 614  1087.966
 615  1130.923
 616  1113.456
 617  1153.981
 618  1017.345
 619  1027.409
 620  986.5491
 621  955.9438
 622  867.8506
 623  839.682
 624  799.6839
 625  785.3001
 626  768.3232
 627  712.1147
 628  682.97
 629  738.7527
 630  1041.768
 631  995.3516
 632  775.5684
 633  650.8427
 634  812.3239
 635  923.0052
 636  1039.564
 637  1096.115
 638  1182.411
 639  1049.991
 640  983.6146
 641  919.8074
 642  869.1481
 643  837.9457
 644  855.3734
 645  880.5873
 646  923.4753
 647  862.7338
 648  893.0746
 649  858.8052
 650  844.7476
 651  863.6105
 652  826.4841
 653  744.8021
 654  779.0992
 655  903.0172
 656  839.9989
 657  737.4979
 658  680.0323
 659  801.8268
 660  842.346
 661  800.8855
 662  829.2319
 663  784.6224
 664  668.8655
 665  664.6096
 666  853.0648
 667  1021.146
 668  1063.698
 669  1062.557
 670  976.4142
 671  870.3901
 672  892.9548
 673  937.0081
 674  898.1414
 675  928.0115
 676  991.1076
 677  1015.64
 678  887.5432
 679  896.8608
 680  938.6869
 681  957.7197
 682  925.8896
 683  1034.39
 684  1093.507
 685  1135.713
 686  1007.547
 687  942.4647
 688  1052.846
 689  1090.444
 690  1056.011
 691  891.3479
 692  809.873
 693  789.4777
 694  859.8838
 695  966.0818
 696  967.5335
 697  933.4268
 698  1029.478
 699  1020.184
 700  877.3523
 701  658.4575
 702  642.6995
 703  764.6997
 704  821.2692
 705  903.5792
 706  819.6815
 707  842.4849
 708  854.4564
 709  806.7916
 710  732.9819
 711  806.9847
 712  938.5796
 713  966.3749
 714  808.7449
 715  731.8649
 716  734.4325
 717  824.7234
 718  940.7715
 719  956.3794
 720  914.2372
 721  818.9734
 722  709.2946
 723  622.9186
 724  592.2493
 725  527.2905
 726  637.4904
 727  700.2612
 728  714.6631
 729  626.5727
 730  659.2399
 731  798.2661
 732  773.7634
 733  725.4683
 734  623.1802
 735  672.1654
 736  787.4139
 737  879.6226
 738  875.0626
 739  852.1971
 740  937.4119
 741  884.5989
 742  789.4578
 743  806.3403
 744  944.0157
 745  1016.312
 746  1017.09
 747  1112.797
 748  1069.665
 749  995.7228
 750  1001.994
 751  1132.69
 752  1270.829
 753  1362.685
 754  1466.783
 755  1449.052
 756  1295.768
 757  1291.108
 758  1379.077
 759  1499.056
 760  1451.799
 761  1423.778
 762  1322.797
 763  1275.739
 764  1279.065
 765  1247.855
 766  995.5408
 767  833.5568
 768  928.1869
 769  977.2114
 770  946.3806
 771  868.5114
 772  933.8528
 773  918.3999
 774  839.5795
 775  764.0474
 776  847.3123
 777  1010.928
 778  1185.782
 779  1232.245
 780  1036.396
 781  902.524
 782  756.0508
 783  812.174
 784  773.7701
 785  925.4598
 786  988.8077
 787  1039.837
 788  1021.591
 789  997.0742
 790  917.0427
 791  759.5627
 792  815.2026
 793  794.4001
 794  871.5685
 795  925.1938
 796  1062.55
 797  951.4619
 798  842.1218
 799  937.7307
 800  1206.473
 801  1271.372
 802  1133.717
 803  982.9314
 804  809.1851
 805  772.5531
 806  773.6345
 807  954.4493
 808  1022.319
 809  1101.925
 810  1030.079
 811  949.4805
 812  1014.803
 813  1134.586
 814  1303.304
 815  1284.532
 816  1245.95
 817  1131.703
 818  1156.512
 819  1060.752
 820  996.7974
 821  956.2967
 822  1020.38
 823  1066.406
 824  1153.398
 825  1154.974
 826  1067.619
 827  1063.246
 828  1149.332
 829  1105.674
 830  1053.17
 831  1068.89
 832  1156.773
 833  1199.847
 834  1087.197
 835  1175.426
 836  1153.253
 837  1253.218
 838  1233.083
 839  1236.764
 840  1103.755
 841  1052.24
 842  1148.88
 843  1137.487
 844  1066.646
 845  1065.016
 846  1084.15
 847  1058.648
 848  1090.02
 849  1082.427
 850  1036.909
 851  1029.006
 852  973.7653
 853  905.3793
 854  826.0978
 855  931.9085
 856  1023.256
 857  952.5826
 858  829.1661
 859  903.5838
 860  1138.106
 861  1306.381
 862  1159.398
 863  973.0094
 864  929.3613
 865  1033.184
 866  1054.035
 867  986.8982
 868  812.1553
 869  804.445
 870  883.843
 871  883.4434
 872  755.4114
 873  687.7657
 874  810.7548
 875  860.1412
 876  793.2848
 877  807.3177
 878  989.6185
 879  1024.555
 880  1001.276
 881  932.0024
 882  914.1528
 883  910.3764
 884  891.6342
 885  939.7549
 886  826.9352
 887  732.0562
 888  699.0938
 889  714.8131
 890  736.6456
 891  752.6559
 892  893.033
 893  927.3505
 894  805.9269
 895  665.9673
 896  704.5554
 897  870.0941
 898  1007.682
 899  1029.118
 900  996.5959
 901  986.0067
 902  965.7339
 903  790.7126
 904  621.3683
 905  644.1404
 906  738.6367
 907  809.2291
 908  717.962
 909  739.3736
 910  801.7185
 911  864.8719
 912  860.6284
 913  889.9071
 914  851.7151
 915  849.2955
 916  868.4803
 917  834.2529
 918  735.54
 919  647.5384
 920  652.3452
 921  637.9061
 922  637.3688
 923  645.7025
 924  740.2142
 925  970.7374
 926  1007.922
 927  830.8009
 928  664.2929
 929  750.0015
 930  813.4912
 931  869.549
 932  825.109
 933  869.024
 934  895.7664
 935  896.0688
 936  969.459
 937  1003.376
 938  994.2203
 939  900.959
 940  868.3175
 941  809.0472
 942  836.571
 943  851.8831
 944  1017.606
 945  1016.583
 946  1010.988
 947  1004.794
 948  969.6939
 949  1015.379
 950  872.6231
 951  872.192
 952  699.3201
 953  609.4516
 954  577.1749
 955  519.4839
 956  624.3839
 957  620.0514
 958  794.9368
 959  943.1586
 960  1073.328
 961  1154.06
 962  1039.815
 963  868.2554
 964  752.3958
 965  790.1651
 966  905.838
 967  959.4758
 968  893.657
 969  872.4824
 970  794.2614
 971  812.5122
 972  889.2777
 973  1044.305
 974  1044.54
 975  1067.774
 976  1058.09
 977  913.4671
 978  865.1412
 979  907.7475
 980  1075.573
 981  1081.544
 982  874.1508
 983  896.7953
 984  906.8706
 985  973.0217
 986  900.9909
 987  987.4254
 988  955.7326
 989  965.7191
 990  1035.492
 991  990.9376
 992  915.0474
 993  903.1565
 994  1054.734
 995  1038.335
 996  878.764
 997  799.7259
 998  888.1541
 999  1004.461
1000  1087.592
1001  1018.625
1002  1064.704
1003  1039.388
1004  1102.11
1005  1055.535
1006  1085.971
1007  1162.526
1008  1386.847
1009  1470.473
1010  1316.686
1011  1031.925
1012  967.5627
1013  984.4916
1014  1038.609
1015  1054.453
1016  1049.538
1017  1005.61
1018  887.4039
1019  925.6771
1020  946.2198
1021  979.1464
1022  972.8777
1023  953.9681
