# Input file       =  1179317779.097507_cleaned.dat
# Candidate        =  PSR_0332+5434
# Telescope        =  AR
# Epoch_topo       =  57893.511552054479
# Epoch_bary       =  N/A
# T_sample         =  0.002
# Data Folded      =  7340032
# Data Avg         =  0.0685056479705962
# Data StdDev      =  3.27367849082071 
# Profile Bins     =  512
# Profile Avg      =  982.070902904214 
# Profile StdDev   =  391.967465827273 
# Reduced chi-sqr  =  0.937
# Prob(Noise)      <  0.844   (~0.0 sigma)
# P_topo (ms)      =  714.528240271466  +/- 0.000566
# P'_topo (s/s)    =  -0                +/- 2.98e-10
# P''_topo (s/s^2) =  0                 +/- 1.32e-13
# P_bary (ms)      =  N/A
# P'_bary (s/s)    =  N/A
# P''_bary (s/s^2) =  N/A
# P_orb (s)        =  N/A
# asin(i)/c (s)    =  N/A
# eccentricity     =  N/A
# w (rad)          =  N/A
# T_peri           =  N/A
######################################################
   0  998.6617
   1  729.8165
   2  838.8323
   3  1052.851
   4  761.4729
   5  748.3317
   6  598.4736
   7  757.7332
   8  795.4066
   9  651.9982
  10  726.926
  11  662.2338
  12  481.5887
  13  943.7017
  14  1240.61
  15  1314.251
  16  943.5002
  17  1113.272
  18  1453.391
  19  1013.043
  20  1018.269
  21  1051.564
  22  892.1909
  23  1381.643
  24  1215.576
  25  1102.947
  26  1134.201
  27  1160.241
  28  1192.475
  29  1190.301
  30  968.3943
  31  1155.234
  32  1168.509
  33  873.046
  34  741.5787
  35  608.4037
  36  975.6736
  37  1174.347
  38  957.041
  39  948.0571
  40  905.1815
  41  785.6361
  42  952.7278
  43  951.1948
  44  1269.045
  45  690.3984
  46  945.913
  47  838.5328
  48  864.5772
  49  507.1551
  50  726.1515
  51  1167.167
  52  1040.147
  53  929.7325
  54  804.6234
  55  863.2784
  56  1411.083
  57  1136.214
  58  683.8971
  59  780.3385
  60  870.5853
  61  950.7657
  62  1105.416
  63  966.6308
  64  1122.217
  65  771.1436
  66  934.9076
  67  700.4993
  68  451.8014
  69  411.5772
  70  792.2445
  71  869.0703
  72  889.0369
  73  1137.221
  74  1162.334
  75  1198.783
  76  830.7279
  77  731.7743
  78  999.5704
  79  1011.553
  80  1219.892
  81  1082.191
  82  1542.843
  83  1308.051
  84  1094.207
  85  1179.533
  86  1379.057
  87  1094.761
  88  629.0825
  89  1111.505
  90  1102.49
  91  832.9186
  92  866.9791
  93  943.4413
  94  634.3351
  95  597.1855
  96  769.7528
  97  845.8279
  98  1146.357
  99  1160.307
 100  969.316
 101  903.8715
 102  768.0103
 103  777.6992
 104  794.8671
 105  998.5583
 106  1018.336
 107  1232.752
 108  1105.695
 109  932.7433
 110  668.9149
 111  661.8445
 112  488.5251
 113  537.121
 114  588.3651
 115  279.2178
 116  718.3812
 117  819.1724
 118  471.8386
 119  732.6931
 120  573.0984
 121  718.0916
 122  695.3506
 123  883.7299
 124  969.1669
 125  1051.322
 126  1083.918
 127  828.6743
 128  705.2806
 129  1049.038
 130  797.0466
 131  826.9938
 132  682.5943
 133  104.204
 134  272.1493
 135  870.2026
 136  840.0381
 137  1023.298
 138  563.8507
 139  530.6072
 140  842.0124
 141  489.8105
 142  602.4203
 143  696.3967
 144  720.4695
 145  753.6293
 146  1053.197
 147  828.2679
 148  533.8169
 149  495.4224
 150  788.3145
 151  636.6609
 152  731.5494
 153  970.3913
 154  738.1274
 155  1071.438
 156  890.2585
 157  874.3026
 158  1138.769
 159  1343.198
 160  1518.796
 161  1056.582
 162  886.4968
 163  751.9088
 164  812.6859
 165  1081.326
 166  1124.616
 167  1215.47
 168  820.2606
 169  1039.101
 170  989.7649
 171  1391.543
 172  1105.951
 173  714.0473
 174  937.9882
 175  1073.716
 176  1170.768
 177  891.7488
 178  712.7978
 179  925.2013
 180  1184.296
 181  1043.81
 182  877.0939
 183  641.1254
 184  824.1951
 185  943.5364
 186  1043.227
 187  1156.432
 188  877.3542
 189  1003.727
 190  802.5704
 191  812.6409
 192  1097.682
 193  1082.56
 194  1185.38
 195  1521.094
 196  1528.834
 197  1123.442
 198  1055.251
 199  1393.036
 200  1613.15
 201  1240.97
 202  1304.338
 203  1279.322
 204  1068.051
 205  1175.857
 206  1093.297
 207  1042.938
 208  673.8345
 209  860.366
 210  1460.402
 211  1477.296
 212  1137.632
 213  1447.964
 214  1563.56
 215  950.4207
 216  1007.482
 217  1264.75
 218  1199.465
 219  900.3558
 220  816.0045
 221  1105.988
 222  1093.445
 223  837.5505
 224  1076.68
 225  1303.606
 226  982.2345
 227  720.8815
 228  1046.559
 229  1374.039
 230  1340.502
 231  989.2915
 232  969.1949
 233  853.424
 234  1198.201
 235  1302.14
 236  1050.183
 237  1382.828
 238  1653.394
 239  1273.074
 240  830.3436
 241  1013.573
 242  1255.951
 243  1440.812
 244  1287.405
 245  1484.427
 246  1440.499
 247  970.277
 248  1036.664
 249  1230.479
 250  914.5382
 251  962.7216
 252  789.8753
 253  847.7465
 254  1370.176
 255  1441.582
 256  1272.807
 257  1314.299
 258  1205.471
 259  1155.658
 260  1187.561
 261  892.7299
 262  686.0845
 263  998.3716
 264  888.3903
 265  960.03
 266  884.1704
 267  636.7285
 268  1059.273
 269  1022.789
 270  959.6085
 271  919.9226
 272  996.9615
 273  664.39
 274  1023.494
 275  1079.07
 276  1165.328
 277  769.1221
 278  861.5618
 279  1182.71
 280  1233.107
 281  1221.172
 282  902.0522
 283  852.3624
 284  1196.109
 285  1266.007
 286  1149.072
 287  1026.063
 288  961.3072
 289  1422.604
 290  1794.519
 291  1558.771
 292  1421.049
 293  1356.081
 294  1192.183
 295  948.7782
 296  1162
 297  1018.643
 298  1028.761
 299  755.2466
 300  741.2383
 301  1049.404
 302  1005.338
 303  989.2057
 304  787.9736
 305  720.6708
 306  1205.878
 307  1155.399
 308  998.135
 309  983.7986
 310  1142.68
 311  937.9834
 312  981.0612
 313  831.067
 314  720.8761
 315  650.1321
 316  803.2603
 317  787.6863
 318  1014.134
 319  1008.323
 320  782.0224
 321  836.829
 322  829.1193
 323  640.5452
 324  967.5372
 325  1167.082
 326  1223.44
 327  1084.777
 328  790.6197
 329  900.6608
 330  984.6268
 331  1269.763
 332  1014.337
 333  1243.449
 334  1036.273
 335  684.0842
 336  1268.339
 337  974.2445
 338  1047.713
 339  1094.666
 340  1045.755
 341  957.8936
 342  922.7081
 343  1384.848
 344  1125.493
 345  698.1336
 346  1002.459
 347  1383.558
 348  1686.646
 349  2022.516
 350  2129.961
 351  2014.753
 352  2109.896
 353  1659.58
 354  1202.135
 355  762.4175
 356  1033.779
 357  685.3063
 358  866.9344
 359  1210.648
 360  976.5397
 361  1011.374
 362  1260.452
 363  1201.719
 364  1194.183
 365  1313.764
 366  1279.505
 367  1714.109
 368  1419.156
 369  1174.408
 370  883.4438
 371  1048.17
 372  1134.684
 373  1087.631
 374  1099.971
 375  1262.369
 376  797.6091
 377  903.0511
 378  1169.1
 379  1480.198
 380  995.1144
 381  874.1965
 382  1092.434
 383  1021.792
 384  529.5842
 385  289.0035
 386  649.6061
 387  660.9153
 388  382.1717
 389  404.8938
 390  817.496
 391  955.5035
 392  616.7886
 393  483.4806
 394  968.9598
 395  876.7112
 396  478.4169
 397  662.5945
 398  615.2242
 399  705.8043
 400  1227
 401  948.1821
 402  854.6497
 403  1107.943
 404  778.4293
 405  384.1288
 406  465.9995
 407  625.1687
 408  686.638
 409  804.0273
 410  696.6499
 411  528.9265
 412  737.2429
 413  732.3099
 414  727.524
 415  849.5218
 416  707.9227
 417  873.2375
 418  856.3932
 419  1311.564
 420  734.6838
 421  773.7883
 422  932.9629
 423  835.1936
 424  845.1788
 425  929.9434
 426  771.146
 427  837.5117
 428  1230.155
 429  817.6845
 430  973.4373
 431  979.4731
 432  847.3732
 433  1009.087
 434  1053.939
 435  876.9573
 436  707.484
 437  974.4489
 438  1420.139
 439  1093.78
 440  1260.904
 441  1166.585
 442  762.4939
 443  775.7283
 444  921.3518
 445  859.1087
 446  841.4836
 447  1092.645
 448  1010.319
 449  870.3743
 450  739.0173
 451  792.5736
 452  708.6386
 453  532.5038
 454  1029.988
 455  1035.566
 456  807.8641
 457  1004.107
 458  1431.769
 459  1103.187
 460  1028.49
 461  1168.426
 462  1116.986
 463  909.785
 464  961.4552
 465  1198.665
 466  1127.117
 467  1041.852
 468  1191.684
 469  788.7582
 470  1105.503
 471  1141.245
 472  1121.856
 473  830.9762
 474  895.2838
 475  1154.609
 476  1180.435
 477  1173.514
 478  1132.793
 479  832.4374
 480  938.6581
 481  1025.521
 482  680.3132
 483  416.2132
 484  535.9576
 485  696.389
 486  719.9993
 487  592.9224
 488  725.5908
 489  948.0311
 490  1096.581
 491  1041.422
 492  1355.874
 493  1448.341
 494  1610.546
 495  1616.19
 496  909.2529
 497  740.1926
 498  924.454
 499  1227.938
 500  1609.954
 501  1225.772
 502  993.7201
 503  947.6902
 504  985.2994
 505  982.0362
 506  896.4886
 507  991.8615
 508  696.8095
 509  774.9136
 510  1058.777
 511  968.1563
