# Input file       =  1179921519.105297_cleaned.dat
# Candidate        =  PSR_0332+5434
# Telescope        =  AR
# Epoch_topo       =  57900.499283626123
# Epoch_bary       =  N/A
# T_sample         =  0.002
# Data Folded      =  7340032
# Data Avg         =  0.11997098228416 
# Data StdDev      =  3.45091600922329 
# Profile Bins     =  1024
# Profile Avg      =  860.049924390544 
# Profile StdDev   =  292.168497784842 
# Reduced chi-sqr  =  0.878
# Prob(Noise)      <  0.998   (~0.0 sigma)
# P_topo (ms)      =  714.521357884047  +/- 0.000212
# P'_topo (s/s)    =  -0                +/- 1.12e-10
# P''_topo (s/s^2) =  0                 +/- 4.95e-14
# P_bary (ms)      =  N/A
# P'_bary (s/s)    =  N/A
# P''_bary (s/s^2) =  N/A
# P_orb (s)        =  N/A
# asin(i)/c (s)    =  N/A
# eccentricity     =  N/A
# w (rad)          =  N/A
# T_peri           =  N/A
######################################################
   0  643.4719
   1  632.299
   2  628.5295
   3  706.6667
   4  870.4692
   5  898.917
   6  845.4599
   7  794.944
   8  704.0908
   9  641.485
  10  611.5483
  11  753.2068
  12  813.7281
  13  810.2919
  14  772.0178
  15  789.2038
  16  877.9847
  17  961.1622
  18  1045.12
  19  958.4639
  20  831.6133
  21  843.6151
  22  868.5012
  23  894.4733
  24  759.9034
  25  782.9517
  26  868.4892
  27  1058.563
  28  1069.057
  29  932.4623
  30  791.1356
  31  859.5828
  32  920.1398
  33  971.4833
  34  925.1765
  35  794.0583
  36  774.9391
  37  761.3392
  38  864.9061
  39  811.716
  40  858.8252
  41  857.3143
  42  832.7147
  43  928.8518
  44  1078.373
  45  1012.172
  46  960.8916
  47  1059.785
  48  1113.306
  49  1067.899
  50  877.1458
  51  878.5822
  52  785.0743
  53  754.0229
  54  657.4427
  55  709.5167
  56  726.2109
  57  890.7488
  58  1073.774
  59  1141.977
  60  974.6716
  61  805.3723
  62  785.5045
  63  846.184
  64  762.8443
  65  827.769
  66  850.8786
  67  872.968
  68  868.3011
  69  791.75
  70  836.6681
  71  842.5567
  72  821.7548
  73  752.7921
  74  672.9327
  75  668.2816
  76  693.872
  77  855.0872
  78  968.8898
  79  1019.615
  80  914.9931
  81  874.0099
  82  837.3532
  83  921.481
  84  863.5101
  85  865.649
  86  893.9756
  87  1033.604
  88  978.0816
  89  878.1006
  90  750.3654
  91  838.149
  92  966.8303
  93  1055.573
  94  1052.909
  95  936.8212
  96  858.9183
  97  798.1426
  98  908.5854
  99  935.6077
 100  921.9548
 101  814.1968
 102  822.4785
 103  819.2548
 104  867.3465
 105  816.9976
 106  833.6707
 107  899.2248
 108  988.6136
 109  1038.067
 110  1064.834
 111  1143.614
 112  1152.516
 113  1151.429
 114  1052.349
 115  1009.163
 116  1021.726
 117  962.8984
 118  930.4998
 119  890.9147
 120  1025.767
 121  1034.263
 122  1098.637
 123  1081.069
 124  1061.804
 125  1059.722
 126  1105.268
 127  1143.385
 128  1070.488
 129  1040.194
 130  1049.697
 131  1022.295
 132  955.968
 133  905.2446
 134  846.2538
 135  745.5659
 136  617.3664
 137  779.352
 138  856.6118
 139  924.7134
 140  778.0946
 141  785.5138
 142  789.8967
 143  802.78
 144  718.5008
 145  724.3356
 146  659.6606
 147  764.6133
 148  897.1029
 149  918.5745
 150  927.3351
 151  906.5691
 152  903.1027
 153  879.64
 154  942.8552
 155  938.7548
 156  833.2136
 157  673.9999
 158  659.5825
 159  611.329
 160  521.2427
 161  569.8475
 162  652.9744
 163  833.1752
 164  825.5651
 165  848.261
 166  730.2606
 167  666.5794
 168  637.9818
 169  745.9204
 170  719.2824
 171  733.7787
 172  646.1151
 173  734.6954
 174  714.9017
 175  749.8273
 176  705.2239
 177  731.2645
 178  795.493
 179  813.7948
 180  847.3429
 181  782.5734
 182  761.1048
 183  697.2416
 184  642.6536
 185  637.3256
 186  642.9204
 187  722.1541
 188  744.8395
 189  764.9689
 190  782.2892
 191  832.1099
 192  751.4903
 193  758.9763
 194  794.8444
 195  928.3895
 196  860.0235
 197  878.4058
 198  772.5241
 199  725.9692
 200  683.4773
 201  784.431
 202  867.1321
 203  917.8834
 204  971.4989
 205  945.6594
 206  927.552
 207  980.6415
 208  922.6255
 209  820.6458
 210  717.8401
 211  696.0358
 212  730.4498
 213  719.1054
 214  861.9271
 215  781.4415
 216  739.7187
 217  647.3339
 218  831.0316
 219  920.5451
 220  1008.413
 221  965.2101
 222  927.6836
 223  826.1166
 224  944.8943
 225  1058.055
 226  1095.87
 227  1049.802
 228  1126.889
 229  1115.68
 230  1017.734
 231  919.3635
 232  874.8662
 233  900.9396
 234  756.7766
 235  810.3051
 236  788.1195
 237  946.0427
 238  822.1839
 239  773.5056
 240  727.0621
 241  769.0416
 242  771.2316
 243  764.0135
 244  751.0823
 245  806.2332
 246  766.7722
 247  910.9619
 248  1010.628
 249  1092.155
 250  912.6906
 251  867.5255
 252  884.6262
 253  935.7475
 254  1074.833
 255  1009.458
 256  926.8389
 257  840.7495
 258  936.5822
 259  934.7382
 260  850.2468
 261  849.4949
 262  944.82
 263  1005.176
 264  951.8181
 265  881.8324
 266  789.9615
 267  738.9528
 268  791.3967
 269  788.7833
 270  673.7998
 271  614.7141
 272  731.1461
 273  823.5632
 274  734.5494
 275  755.1893
 276  832.27
 277  736.4879
 278  775.5982
 279  695.4915
 280  773.8966
 281  702.0488
 282  787.1318
 283  822.7023
 284  818.9778
 285  752.5128
 286  734.7526
 287  817.4374
 288  768.7294
 289  705.2719
 290  665.4811
 291  706.4453
 292  859.7205
 293  927.8123
 294  947.6
 295  983.1257
 296  1014.348
 297  1026.091
 298  992.8725
 299  937.5728
 300  806.6531
 301  816.3201
 302  926.1307
 303  975.3062
 304  853.4681
 305  711.4062
 306  617.7974
 307  678.3264
 308  733.2893
 309  804.2524
 310  836.207
 311  836.0609
 312  804.226
 313  667.6813
 314  593.6367
 315  547.2687
 316  626.6124
 317  652.7202
 318  610.9673
 319  672.8217
 320  671.412
 321  658.0859
 322  642.1927
 323  575.3626
 324  564.4689
 325  575.6817
 326  572.3964
 327  503.3741
 328  556.361
 329  576.7778
 330  585.9819
 331  517.0176
 332  563.9669
 333  627.9419
 334  716.5224
 335  798.5068
 336  686.3355
 337  622.438
 338  588.3292
 339  710.7146
 340  742.9989
 341  734.647
 342  755.3471
 343  871.8891
 344  925.5566
 345  877.7703
 346  834.6662
 347  841.259
 348  1012.317
 349  1031.937
 350  922.3375
 351  772.7276
 352  747.8918
 353  872.3362
 354  771.713
 355  834.7743
 356  909.0106
 357  1058.005
 358  1074.378
 359  986.3318
 360  883.3416
 361  833.9352
 362  945.168
 363  1043.726
 364  897.4531
 365  853.881
 366  937.8385
 367  1061.922
 368  962.563
 369  877.0212
 370  866.4117
 371  876.1085
 372  908.3411
 373  1011.515
 374  1142.359
 375  1013.076
 376  929.1302
 377  893.3325
 378  974.9716
 379  981.6117
 380  908.737
 381  909.1316
 382  822.8496
 383  880.7958
 384  879.0599
 385  937.4228
 386  841.2877
 387  797.979
 388  777.3284
 389  729.3783
 390  708.8815
 391  699.937
 392  879.686
 393  911.1315
 394  897.7088
 395  785.3792
 396  730.9893
 397  856.1608
 398  909.84
 399  1004.181
 400  837.9159
 401  783.6504
 402  745.679
 403  708.5418
 404  664.8313
 405  555.5312
 406  609.2902
 407  748.4693
 408  809.5007
 409  746.0312
 410  668.5611
 411  703.4799
 412  765.7714
 413  705.6512
 414  606.5495
 415  516.5292
 416  556.9506
 417  730.82
 418  796.3017
 419  866.136
 420  760.2897
 421  701.6996
 422  686.8708
 423  705.8353
 424  715.9401
 425  691.1794
 426  826.2101
 427  883.0248
 428  958.6273
 429  897.2808
 430  868.0424
 431  783.1776
 432  806.4692
 433  819.0191
 434  943.0434
 435  938.1172
 436  928.8108
 437  884.7849
 438  949.2939
 439  1003.81
 440  832.3051
 441  811.4936
 442  748.1604
 443  829.5912
 444  655.0262
 445  622.3315
 446  674.5331
 447  963.5246
 448  1024.29
 449  1121.483
 450  1098.59
 451  1070.8
 452  997.5693
 453  928.8531
 454  849.7271
 455  973.4637
 456  1104.389
 457  1105.761
 458  933.9705
 459  849.8842
 460  877.9886
 461  975.3182
 462  999.8084
 463  939.7659
 464  923.7217
 465  1000.343
 466  1096.377
 467  1153.54
 468  1111.035
 469  1070.838
 470  1012.11
 471  1030.052
 472  963.4474
 473  909.6645
 474  911.5974
 475  939.9097
 476  897.3871
 477  852.5625
 478  861.0225
 479  816.4853
 480  891.6664
 481  920.7585
 482  1040.594
 483  1039.536
 484  948.8831
 485  908.9003
 486  831.5719
 487  834.2639
 488  762.5678
 489  809.2766
 490  952.5629
 491  1032.874
 492  960.179
 493  861.3836
 494  915.23
 495  927.0286
 496  830.9772
 497  733.9389
 498  859.4625
 499  1007.232
 500  1021.55
 501  846.0552
 502  776.8208
 503  767.5328
 504  892.8153
 505  867.44
 506  897.6904
 507  815.3472
 508  770.8173
 509  672.0141
 510  612.3159
 511  693.4869
 512  681.0623
 513  687.1864
 514  820.6732
 515  969.2209
 516  1045.97
 517  952.6947
 518  884.267
 519  921.8878
 520  875.2718
 521  906.1369
 522  822.1934
 523  943.7618
 524  950.2636
 525  976.8931
 526  875.2032
 527  921.1426
 528  927.5782
 529  837.735
 530  773.2095
 531  760.8361
 532  842.608
 533  912.6982
 534  938.0241
 535  939.2172
 536  996.3214
 537  1062.892
 538  1158.097
 539  1156.09
 540  1166.058
 541  1104.657
 542  984.515
 543  831.3688
 544  745.082
 545  878.1309
 546  1006.614
 547  1009.03
 548  962.9678
 549  1013.963
 550  1127.488
 551  1105.41
 552  1108.792
 553  1143.044
 554  1111.678
 555  976.3417
 556  881.0041
 557  927.6295
 558  998.7796
 559  1032.61
 560  1102.554
 561  1040.743
 562  923.3986
 563  987.4963
 564  1049.202
 565  1019.966
 566  879.3414
 567  829.5893
 568  771.6379
 569  881.7662
 570  1042.735
 571  1134.332
 572  1020.82
 573  961.8796
 574  967.5458
 575  944.5316
 576  925.174
 577  1030.85
 578  1106.445
 579  1040.979
 580  916.9444
 581  852.4611
 582  975.5583
 583  948.9919
 584  932.3347
 585  836.4547
 586  932.163
 587  1050.502
 588  956.9732
 589  776.8815
 590  691.3825
 591  836.5172
 592  907.3767
 593  876.372
 594  764.7571
 595  857.0877
 596  835.4465
 597  846.8017
 598  840.2327
 599  843.5371
 600  937.8696
 601  914.2361
 602  847.9716
 603  732.1871
 604  663.1092
 605  609.6711
 606  740.8543
 607  820.385
 608  928.8126
 609  889.0773
 610  952.3891
 611  892.2565
 612  871.3268
 613  834.0837
 614  848.3168
 615  831.3358
 616  720.1579
 617  735.2469
 618  702.158
 619  692.9313
 620  673.4546
 621  782.6422
 622  958.6578
 623  1031.766
 624  1001.893
 625  1007.648
 626  989.4594
 627  1025.579
 628  983.6888
 629  975.4769
 630  807.1082
 631  891.4151
 632  936.8728
 633  1061.248
 634  1142.974
 635  1288.743
 636  1242.373
 637  1240.3
 638  1145.441
 639  1196.971
 640  1143.429
 641  1153.851
 642  1076.728
 643  954.3652
 644  979.8326
 645  970.9476
 646  1005.939
 647  1016.828
 648  1030.266
 649  1098.479
 650  1027.899
 651  1018.195
 652  996.1696
 653  1012.446
 654  930.6595
 655  915.0163
 656  969.0458
 657  989.4542
 658  1016.34
 659  1070.521
 660  1153.267
 661  1118.681
 662  1034.557
 663  977.2853
 664  1082.901
 665  1147.922
 666  1040.438
 667  977.7007
 668  954.7042
 669  1141.539
 670  1114.596
 671  1058.792
 672  962.6309
 673  888.0206
 674  885.5621
 675  964.1127
 676  1000.237
 677  1072.799
 678  1060.282
 679  1090.297
 680  1058.297
 681  938.7687
 682  818.2812
 683  696.9987
 684  743.6209
 685  601.9819
 686  660.8135
 687  576.2068
 688  708.8649
 689  703.3865
 690  805.7406
 691  834.959
 692  814.6312
 693  763.5698
 694  639.5944
 695  683.7114
 696  779.9058
 697  788.2097
 698  687.9141
 699  723.6525
 700  862.7166
 701  888.2684
 702  840.8159
 703  685.0097
 704  670.5752
 705  726.1039
 706  770.731
 707  697.1962
 708  665.4329
 709  712.8391
 710  855.4578
 711  852.1492
 712  878.0813
 713  802.5802
 714  770.1053
 715  832.7968
 716  928.4788
 717  922.8772
 718  824.154
 719  750.0223
 720  838.4921
 721  919.6481
 722  883.8459
 723  933.0417
 724  906.0417
 725  1025.047
 726  965.5901
 727  951.862
 728  858.1904
 729  879.1545
 730  901.4742
 731  947.6171
 732  920.7031
 733  812.5779
 734  668.2339
 735  590.2145
 736  653.9089
 737  678.427
 738  739.6158
 739  779.6827
 740  843.4203
 741  743.8195
 742  714.7368
 743  691.0311
 744  725.5504
 745  814.2709
 746  818.1155
 747  795.8823
 748  792.041
 749  838.0447
 750  974.9653
 751  1019.571
 752  1060.691
 753  1100.258
 754  1218.9
 755  1410.38
 756  1444.093
 757  1321.812
 758  1260.479
 759  1282.343
 760  1223.301
 761  1120.519
 762  1007.739
 763  1014.744
 764  1034.165
 765  969.2612
 766  855.0919
 767  800.6705
 768  832.1972
 769  843.2068
 770  854.1418
 771  794.2821
 772  752.5288
 773  680.2141
 774  651.0278
 775  658.2946
 776  821.1771
 777  898.0053
 778  988.8618
 779  912.379
 780  973.929
 781  924.5366
 782  930.9109
 783  963.477
 784  902.9335
 785  803.5195
 786  719.6605
 787  749.5833
 788  962.796
 789  1034.416
 790  1068.604
 791  982.059
 792  1030.12
 793  1087.004
 794  1096.525
 795  1125.671
 796  1049.188
 797  982.3728
 798  863.8013
 799  875.368
 800  945.165
 801  957.088
 802  964.3293
 803  871.5883
 804  845.1989
 805  948.9986
 806  940.5532
 807  985.224
 808  957.7723
 809  1020.64
 810  842.3711
 811  751.7877
 812  812.5275
 813  1059.539
 814  1254.734
 815  1175.293
 816  1073.041
 817  1064.68
 818  1116.684
 819  1137.266
 820  962.9627
 821  841.0498
 822  821.6607
 823  817.582
 824  756.8099
 825  685.1165
 826  833.1653
 827  1004.64
 828  1007.222
 829  982.5152
 830  1004.651
 831  1075.415
 832  1001.108
 833  834.4749
 834  702.0021
 835  761.1567
 836  938.3232
 837  1005.945
 838  1021.865
 839  914.5362
 840  912.6913
 841  826.7545
 842  800.9055
 843  851.2602
 844  770.7819
 845  813.2471
 846  785.3561
 847  869.5771
 848  967.2325
 849  977.9595
 850  953.7627
 851  969.6584
 852  1003.88
 853  1076.063
 854  1184.126
 855  1202.975
 856  1179.899
 857  1141.629
 858  1113.197
 859  993.8154
 860  899.2811
 861  964.2579
 862  1081.393
 863  1215.765
 864  1064.526
 865  931.696
 866  809.2515
 867  820.4109
 868  807.7839
 869  884.8317
 870  976.7225
 871  966.403
 872  919.1979
 873  892.7937
 874  992.8499
 875  957.1642
 876  958.7222
 877  915.3745
 878  879.202
 879  894.1199
 880  890.8376
 881  750.3839
 882  688.5444
 883  791.4374
 884  905.728
 885  843.3821
 886  787.2258
 887  910.6832
 888  907.2377
 889  883.0807
 890  791.6075
 891  921.2955
 892  905.2247
 893  881.955
 894  863.8066
 895  933.7467
 896  972.0006
 897  932.2037
 898  979.2275
 899  954.1226
 900  844.1792
 901  817.6822
 902  887.8406
 903  823.4924
 904  702.3785
 905  614.7587
 906  673.3267
 907  753.7311
 908  743.0666
 909  814.2291
 910  878.5804
 911  897.9061
 912  904.4715
 913  824.8856
 914  710.1791
 915  686.4152
 916  680.825
 917  696.2295
 918  570.9887
 919  582.3456
 920  608.2827
 921  642.7457
 922  698.1973
 923  615.9003
 924  592.0224
 925  625.6672
 926  654.5012
 927  696.9895
 928  636.4947
 929  754.9641
 930  689.4401
 931  560.1468
 932  446.462
 933  494.1136
 934  514.322
 935  608.1552
 936  665.268
 937  778.6393
 938  804.7978
 939  820.4647
 940  713.1086
 941  598.0385
 942  515.4376
 943  478.0719
 944  471.5853
 945  558.7786
 946  592.7058
 947  550.1062
 948  528.7683
 949  606.9585
 950  640.1264
 951  641.0351
 952  657.933
 953  626.3017
 954  565.9103
 955  560.9066
 956  613.8411
 957  653.0471
 958  739.2863
 959  720.7778
 960  662.6865
 961  558.9428
 962  635.9752
 963  738.3911
 964  741.311
 965  668.6252
 966  627.6927
 967  725.3963
 968  787.8042
 969  826.6039
 970  859.7434
 971  899.0125
 972  866.2908
 973  819.2851
 974  769.0648
 975  747.6968
 976  784.5015
 977  943.4498
 978  1024.912
 979  894.5643
 980  821.1975
 981  894.6212
 982  1120.363
 983  1125.134
 984  1022.477
 985  1020.74
 986  976.3269
 987  989.9705
 988  816.5075
 989  668.7877
 990  676.73
 991  789.9097
 992  832.8363
 993  686.6656
 994  714.4379
 995  804.7786
 996  896.653
 997  855.8575
 998  748.3849
 999  645.5563
1000  672.2842
1001  781.5847
1002  823.0583
1003  832.4724
1004  780.6781
1005  751.958
1006  737.3511
1007  690.5118
1008  829.0355
1009  825.8529
1010  747.1383
1011  624.0156
1012  669.238
1013  754.3454
1014  705.4388
1015  488.8019
1016  529.3444
1017  623.0005
1018  700.6217
1019  614.2609
1020  660.4767
1021  715.2032
1022  666.6639
1023  664.4515
