# Input file       =  1179145456.098846_cleaned.dat
# Candidate        =  PSR_0332+5434
# Telescope        =  AR
# Epoch_topo       =  57891.517072903313
# Epoch_bary       =  N/A
# T_sample         =  0.002
# Data Folded      =  7340032
# Data Avg         =  0.0788188908887344
# Data StdDev      =  2.96304563623486 
# Profile Bins     =  512
# Profile Avg      =  1129.99758382095 
# Profile StdDev   =  354.774450949327 
# Reduced chi-sqr  =  1.157
# Prob(Noise)      <  0.00801   (~2.4 sigma)
# P_topo (ms)      =  714.530192462141  +/- 0.000138
# P'_topo (s/s)    =  -0                +/- 7.26e-11
# P''_topo (s/s^2) =  0                 +/- 3.2e-14
# P_bary (ms)      =  N/A
# P'_bary (s/s)    =  N/A
# P''_bary (s/s^2) =  N/A
# P_orb (s)        =  N/A
# asin(i)/c (s)    =  N/A
# eccentricity     =  N/A
# w (rad)          =  N/A
# T_peri           =  N/A
######################################################
   0  962.5959
   1  900.8487
   2  819.3982
   3  1180.58
   4  1245.629
   5  1219.618
   6  1391.51
   7  1031.689
   8  847.8761
   9  629.7661
  10  955.7512
  11  1158.626
  12  868.0726
  13  935.7953
  14  993.3876
  15  801.6174
  16  1254.295
  17  1049.283
  18  1169.028
  19  1313.148
  20  1183.951
  21  618.6664
  22  463.1005
  23  609.8167
  24  1170.655
  25  633.8825
  26  639.5095
  27  757.1933
  28  840.6232
  29  932.9372
  30  892.9631
  31  714.4962
  32  538.7444
  33  343.7748
  34  741.7141
  35  980.9382
  36  1002.616
  37  855.7369
  38  703.4075
  39  988.6014
  40  1102.563
  41  891.7188
  42  819.3123
  43  626.2208
  44  800.6973
  45  874.3992
  46  598.5113
  47  638.072
  48  773.8231
  49  661.8246
  50  868.5007
  51  887.3121
  52  754.8571
  53  937.3556
  54  997.8102
  55  971.6026
  56  1142.729
  57  1076.437
  58  1220.59
  59  1203.736
  60  1205.91
  61  1025.56
  62  1234.479
  63  1501.235
  64  1053.19
  65  1200.243
  66  1216.568
  67  1048.278
  68  1210.505
  69  1331.647
  70  891.8397
  71  783.6525
  72  797.2831
  73  710.4138
  74  790.2275
  75  667.5107
  76  881.9282
  77  969.74
  78  962.9577
  79  829.3975
  80  555.9904
  81  901.1952
  82  750.0626
  83  1007.579
  84  1076.793
  85  1061.424
  86  1095.106
  87  1279.703
  88  1048.784
  89  1022.658
  90  1212.919
  91  877.978
  92  678.7548
  93  1075.637
  94  1285.114
  95  981.6116
  96  727.8829
  97  1516.939
  98  1563.408
  99  1017.481
 100  1273.295
 101  938.71
 102  744.8947
 103  767.1329
 104  763.8693
 105  1111.164
 106  974.1476
 107  873.5604
 108  1091.466
 109  1404.63
 110  1450.403
 111  1379.08
 112  1315.204
 113  1553.229
 114  1233.945
 115  1161.949
 116  852.9252
 117  891.6446
 118  1116.463
 119  1050.14
 120  907.154
 121  1327.491
 122  1376.162
 123  1308.704
 124  874.1005
 125  1029.861
 126  1265.882
 127  1392.046
 128  1007.502
 129  1075.956
 130  1074.147
 131  1032.314
 132  1071.235
 133  1070.052
 134  1139.21
 135  988.2617
 136  1006.939
 137  1213.657
 138  941.1808
 139  1345.978
 140  1392.593
 141  1211.125
 142  992.1869
 143  1124.979
 144  1339.391
 145  1252.744
 146  887.2769
 147  1028.055
 148  1321.837
 149  1175.065
 150  1084.634
 151  1320.635
 152  1242.716
 153  1419.625
 154  1397.429
 155  1243.459
 156  1092.357
 157  1178.139
 158  925.4985
 159  1266.132
 160  1300.789
 161  1254.723
 162  890.625
 163  630.6036
 164  1228.886
 165  1211.414
 166  764.7001
 167  1130.22
 168  1260.785
 169  1103.161
 170  839.8798
 171  1003.474
 172  1054.779
 173  1117.97
 174  1299.998
 175  1176.902
 176  1373.005
 177  1003.381
 178  845.8206
 179  1281.229
 180  1282.636
 181  884.0291
 182  898.2489
 183  1259.444
 184  1249.523
 185  1332.262
 186  1269.986
 187  1165.066
 188  1278.086
 189  1473.398
 190  1352.006
 191  1344.757
 192  1372.64
 193  1236.104
 194  837.3331
 195  967.2246
 196  779.6522
 197  749.902
 198  753.2803
 199  980.2852
 200  1071.483
 201  1261.92
 202  1287.211
 203  1457.744
 204  1229.096
 205  768.9081
 206  797.2668
 207  1126.173
 208  1058.993
 209  1168.401
 210  1370.656
 211  1447.052
 212  1045.642
 213  1097.101
 214  1404.323
 215  1076.172
 216  906.3135
 217  1422.966
 218  1361.925
 219  911.3019
 220  992.9416
 221  896.2251
 222  812.4429
 223  827.7081
 224  1028.159
 225  1249.313
 226  1406.143
 227  1375.124
 228  1246.612
 229  1099.843
 230  901.6085
 231  1181.753
 232  1152.467
 233  1317.747
 234  1436.859
 235  1243.223
 236  942.8472
 237  1363.94
 238  1500.885
 239  1401.44
 240  1020.487
 241  1187.947
 242  1225.823
 243  989.1714
 244  931.1953
 245  1199.271
 246  1144.414
 247  1195.385
 248  1272.813
 249  1360.364
 250  1564.484
 251  1694.514
 252  1350.009
 253  1125.754
 254  922.8534
 255  1280.326
 256  1649.192
 257  1666.89
 258  1527.762
 259  1225.421
 260  1193.818
 261  1163.358
 262  1076.245
 263  1486.438
 264  1630.787
 265  1162.817
 266  1048.541
 267  1271.094
 268  1133.43
 269  968.5928
 270  854.0333
 271  941.1127
 272  729.6261
 273  432.9098
 274  872.3515
 275  692.5988
 276  1065.267
 277  1251.826
 278  1751.49
 279  2016.866
 280  1838.152
 281  1364.455
 282  1683.814
 283  1717.292
 284  1712.135
 285  1608.396
 286  1590.741
 287  1429.32
 288  1237.15
 289  1422.582
 290  1489.548
 291  1178.121
 292  1160.773
 293  1396.253
 294  1041.674
 295  1237.443
 296  1363.078
 297  1267.825
 298  1302.545
 299  1625.646
 300  1568.164
 301  1330.158
 302  979.8409
 303  966.3763
 304  934.7126
 305  1047.499
 306  1196.764
 307  1266.997
 308  1549.564
 309  1409.967
 310  1224.848
 311  1186.693
 312  1215.488
 313  1062.924
 314  1324.961
 315  1582.587
 316  1451.039
 317  1427.101
 318  1329.911
 319  1434.25
 320  1422.387
 321  1494.456
 322  1611.483
 323  1093.659
 324  1096.815
 325  1039.83
 326  910.6876
 327  1194.323
 328  1361.777
 329  1449.697
 330  1067.448
 331  761.0916
 332  1198.051
 333  1228.203
 334  1022.138
 335  980.7514
 336  1149.173
 337  1013.582
 338  1289.423
 339  1307.922
 340  1264.849
 341  1659.726
 342  1758.705
 343  1674.824
 344  1932.346
 345  2296.174
 346  2342.197
 347  2339.148
 348  2180.7
 349  1794.948
 350  1465.947
 351  830.9532
 352  1101.768
 353  1349.066
 354  1284.237
 355  1223.234
 356  1148.428
 357  1135.448
 358  966.5547
 359  1034.154
 360  1133.03
 361  1254.242
 362  1192.534
 363  1202.456
 364  1331.963
 365  1598.5
 366  1699.388
 367  1465.267
 368  956.7635
 369  886.5928
 370  1167.966
 371  1290.762
 372  1257.269
 373  1239.04
 374  1013.823
 375  1394.004
 376  1367.902
 377  1005.191
 378  934.5728
 379  1078.037
 380  940.5729
 381  951.9381
 382  863.5264
 383  1104.734
 384  1300.331
 385  1240.637
 386  1050.784
 387  1004.716
 388  1082.921
 389  1096.597
 390  1292.809
 391  1242.038
 392  1127.377
 393  1148.477
 394  1138.599
 395  1403.631
 396  1223.564
 397  1269.833
 398  1110.408
 399  1250.151
 400  1595.76
 401  1202.478
 402  759.3004
 403  748.1852
 404  811.9158
 405  1117.014
 406  1018.684
 407  1151.978
 408  1114.462
 409  1197.635
 410  1323.203
 411  1338.641
 412  1078.836
 413  906.6167
 414  722.1358
 415  952.2693
 416  1266.709
 417  960.4796
 418  951.9942
 419  1032.035
 420  1060.734
 421  1236.294
 422  1346.425
 423  1073.301
 424  1187.658
 425  1120.277
 426  967.9139
 427  1193.6
 428  1602.62
 429  1407.901
 430  667.0627
 431  747.9151
 432  1443.313
 433  1358.841
 434  1318.043
 435  1317.187
 436  1137.208
 437  1359.319
 438  817.5419
 439  814.6452
 440  1104.415
 441  887.0511
 442  1161.303
 443  1054.894
 444  977.7057
 445  1258.742
 446  1140.84
 447  859.671
 448  1012.443
 449  1378.141
 450  1387.758
 451  1133.325
 452  1271.88
 453  936.6831
 454  973.6295
 455  1033.517
 456  1123.82
 457  1115.548
 458  897.8162
 459  874.4713
 460  842.3913
 461  1009.9
 462  1183.981
 463  1043.692
 464  1237.495
 465  1229.577
 466  1379.358
 467  1128.182
 468  1007.245
 469  1018.124
 470  618.21
 471  632.3442
 472  302.7262
 473  813.8994
 474  1129.991
 475  1152.409
 476  1186.124
 477  875.4998
 478  791.0829
 479  952.9324
 480  843.822
 481  931.2211
 482  791.8666
 483  880.0734
 484  1073.783
 485  1342.206
 486  1604.94
 487  1388.669
 488  1170.153
 489  1123.791
 490  1218.21
 491  1407.305
 492  1086.854
 493  1154.349
 494  1332.828
 495  1366.127
 496  1525.909
 497  1260.163
 498  807.1881
 499  692.434
 500  982.0402
 501  1042.025
 502  1161.192
 503  1149.501
 504  840.0301
 505  876.5421
 506  934.6854
 507  645.8093
 508  789.4304
 509  865.033
 510  1088.066
 511  995.0502
