# Input file       =  1179059303.106471_cleaned.dat
# Candidate        =  PSR_0332+5434
# Telescope        =  AR
# Epoch_topo       =  57890.519931787858
# Epoch_bary       =  N/A
# T_sample         =  0.002
# Data Folded      =  7340032
# Data Avg         =  0.0894229514243698
# Data StdDev      =  3.1866749830877  
# Profile Bins     =  512
# Profile Avg      =  1281.97703118785 
# Profile StdDev   =  381.55027167097  
# Reduced chi-sqr  =  1.104
# Prob(Noise)      <  0.0511   (~1.6 sigma)
# P_topo (ms)      =  714.531164647929  +/- 0.000746
# P'_topo (s/s)    =  -0                +/- 3.94e-10
# P''_topo (s/s^2) =  0                 +/- 1.74e-13
# P_bary (ms)      =  N/A
# P'_bary (s/s)    =  N/A
# P''_bary (s/s^2) =  N/A
# P_orb (s)        =  N/A
# asin(i)/c (s)    =  N/A
# eccentricity     =  N/A
# w (rad)          =  N/A
# T_peri           =  N/A
######################################################
   0  1256.867
   1  1135.964
   2  1514.93
   3  1217.499
   4  1079.371
   5  1286.681
   6  1189.089
   7  1221.101
   8  1172.256
   9  1219.13
  10  1156.24
  11  1231.091
  12  1206.998
  13  1396.963
  14  1752.531
  15  1381.555
  16  913.5955
  17  883.0229
  18  1173.783
  19  1122.734
  20  1373.99
  21  1392.561
  22  928.7416
  23  1518.891
  24  1783.379
  25  1380.433
  26  1198.675
  27  1199.272
  28  835.6315
  29  813.2686
  30  1061.346
  31  1251.707
  32  1094.641
  33  1281.492
  34  1451.105
  35  1235.959
  36  1146.494
  37  1058.591
  38  1016.548
  39  958.4588
  40  1032.135
  41  1220.523
  42  940.8093
  43  793.4839
  44  504.37
  45  824.9941
  46  856.9538
  47  967.7257
  48  940.4616
  49  1037.005
  50  919.8777
  51  1094.507
  52  1164.711
  53  1325.577
  54  1302.446
  55  1474.369
  56  1280.271
  57  987.9274
  58  1129.384
  59  1165.16
  60  1178.529
  61  1162.076
  62  1183.11
  63  1381.971
  64  1298.498
  65  1310.841
  66  1354.807
  67  1097.843
  68  1174.701
  69  1435.764
  70  1406.679
  71  1528.843
  72  1340.397
  73  1211.469
  74  1684.541
  75  1918.816
  76  1514.785
  77  1259.345
  78  1525.941
  79  1259.475
  80  1355.777
  81  1555.77
  82  1280.705
  83  1207.972
  84  1639.054
  85  1420.818
  86  1520.667
  87  1510.828
  88  1510.726
  89  1518.023
  90  1566.239
  91  1418.284
  92  1240.533
  93  1403.958
  94  1599.408
  95  1186.371
  96  1324.379
  97  1606.779
  98  1384.787
  99  1562.73
 100  1558.766
 101  1478.589
 102  1153.483
 103  1225.338
 104  1556.26
 105  1415.029
 106  1263.924
 107  1377.956
 108  1076.178
 109  970.5431
 110  1152.062
 111  881.9455
 112  1094.253
 113  1402.862
 114  1134.134
 115  830.7833
 116  935.8523
 117  1598.942
 118  1194.408
 119  1171.362
 120  983.0997
 121  899.7714
 122  964.7097
 123  1216.98
 124  1331.698
 125  720.4149
 126  656.1197
 127  882.0288
 128  969.6431
 129  620.7047
 130  814.9734
 131  1299.661
 132  1279.501
 133  1025.715
 134  1045.153
 135  1234.006
 136  1040.239
 137  1139.991
 138  1083.414
 139  1169.353
 140  808.6341
 141  951.1014
 142  968.1011
 143  1285.99
 144  971.2786
 145  1113.941
 146  950.5813
 147  911.3864
 148  1152.74
 149  1488.498
 150  1240.823
 151  1140.766
 152  1122.522
 153  977.3873
 154  1099.691
 155  1470.042
 156  1425.71
 157  1302.574
 158  1326.045
 159  1390.601
 160  1534.992
 161  1403.381
 162  1214.281
 163  975.7108
 164  924.5473
 165  973.873
 166  1012.723
 167  1008.718
 168  1117.32
 169  1127.345
 170  1194.121
 171  586.7511
 172  487.8422
 173  993.0657
 174  1232.708
 175  921.0597
 176  874.8344
 177  947.8018
 178  1041.742
 179  1021.751
 180  1000.054
 181  1265.618
 182  1476.883
 183  1636.916
 184  1333.006
 185  1407.291
 186  1249.595
 187  991.7455
 188  740.0737
 189  907.0787
 190  1343.389
 191  1207.415
 192  1275.552
 193  1461.666
 194  1260.943
 195  985.012
 196  1277.895
 197  1444.463
 198  1473.981
 199  1047.432
 200  999.8128
 201  926.1137
 202  926.6406
 203  1195.632
 204  1078.65
 205  964.3439
 206  1005.873
 207  1051.475
 208  894.0591
 209  1117.392
 210  1227.882
 211  754.008
 212  924.8942
 213  905.3988
 214  976.1042
 215  1345.102
 216  981.2651
 217  980.1973
 218  942.6975
 219  1223.559
 220  919.8364
 221  658.1555
 222  1001.589
 223  1385.512
 224  1034.85
 225  699.9478
 226  1023.682
 227  1190.432
 228  1152.289
 229  1064.895
 230  1197.541
 231  1299.073
 232  1201.843
 233  1318.307
 234  1557.364
 235  1258.689
 236  1006.589
 237  1014.457
 238  1244.196
 239  1127.687
 240  1112.443
 241  1205.863
 242  919.613
 243  1046.864
 244  1282.173
 245  1061.104
 246  1049.702
 247  1027.19
 248  1007.067
 249  928.9738
 250  955.1835
 251  1076.942
 252  1471.602
 253  1010.144
 254  786.1631
 255  1519.768
 256  1837.438
 257  1317.348
 258  1239.748
 259  1426.07
 260  1406.929
 261  1207.271
 262  1283.572
 263  1510.942
 264  1657.406
 265  1436.593
 266  1108.808
 267  1217.498
 268  1529.769
 269  1091.933
 270  988.192
 271  1288.687
 272  1530.474
 273  1571.103
 274  1694.795
 275  1687.603
 276  1545.597
 277  1286.858
 278  1226.393
 279  1291.233
 280  1405.254
 281  1264.454
 282  1501.386
 283  1136.452
 284  1367.654
 285  1319.028
 286  1424.646
 287  998.3624
 288  822.314
 289  912.3358
 290  1089.578
 291  1475.358
 292  1556.318
 293  1285.207
 294  1104.832
 295  867.9871
 296  1188.603
 297  1535.796
 298  1509.034
 299  1373.783
 300  1555.5
 301  1497.884
 302  1427.865
 303  1564.45
 304  1607.774
 305  1365.321
 306  1441.983
 307  1676.649
 308  1686.421
 309  1298.132
 310  1723.396
 311  1739.751
 312  1675.728
 313  1369.757
 314  1488.569
 315  1767.143
 316  1308.015
 317  931.4172
 318  1177.932
 319  1549.301
 320  1625.609
 321  1634.626
 322  1568.8
 323  2005.639
 324  2367.966
 325  1756.038
 326  1977.33
 327  2245.707
 328  2363.016
 329  2445.505
 330  2702.895
 331  2128.259
 332  1963.208
 333  1318.582
 334  1297.676
 335  1295.786
 336  1264.61
 337  1640.637
 338  1642.523
 339  1239.021
 340  1581.14
 341  1362.02
 342  1726.253
 343  1689.449
 344  1474.11
 345  1440.279
 346  1209.483
 347  1218.123
 348  1608.618
 349  1721.048
 350  1223.838
 351  1191.84
 352  1540.722
 353  1539.802
 354  1550.341
 355  1853.642
 356  1927.25
 357  1431.856
 358  1430.985
 359  1684.321
 360  1337.268
 361  1004.547
 362  1253.813
 363  1318.344
 364  1296.5
 365  1195.378
 366  1157.647
 367  1388.834
 368  1634.305
 369  1413.245
 370  1517.498
 371  1643.9
 372  1417.656
 373  1341.927
 374  1624.317
 375  1393
 376  1066.758
 377  1136.661
 378  1602.1
 379  1786.664
 380  1542.649
 381  1278.332
 382  1445.953
 383  1443.245
 384  1064.875
 385  1126.33
 386  1582.712
 387  1848.827
 388  1620.29
 389  1276.005
 390  997.3137
 391  1348.065
 392  1683.891
 393  1586.467
 394  1507.389
 395  1529.116
 396  1673.466
 397  1570.698
 398  1234.198
 399  1512.777
 400  1656.299
 401  1684.665
 402  1660.421
 403  1179.158
 404  733.3687
 405  1141.119
 406  1151.536
 407  1174.537
 408  1287.842
 409  1434.951
 410  1567.22
 411  1185.639
 412  1230.706
 413  1348.203
 414  1056.282
 415  1079.734
 416  1246.854
 417  1324.382
 418  1572.496
 419  1470.218
 420  1209.724
 421  1420.195
 422  1294.296
 423  1494.218
 424  1447.229
 425  1394.856
 426  1181.786
 427  1297.043
 428  1190.662
 429  1155.958
 430  1449.228
 431  1471.305
 432  1709.131
 433  1514.814
 434  1362.936
 435  1324.732
 436  1376.474
 437  1377.404
 438  1496.212
 439  1690.622
 440  1868.164
 441  1817.782
 442  1461.684
 443  1327.829
 444  1248.097
 445  1452.86
 446  1527.144
 447  1373.121
 448  1176.154
 449  1286.854
 450  1613.334
 451  1663.814
 452  1462.586
 453  1434.026
 454  1354.399
 455  1446.024
 456  1259.316
 457  1467.759
 458  1544.935
 459  1531.499
 460  1420.292
 461  1473.588
 462  1322.926
 463  1251.824
 464  1646.784
 465  1830.151
 466  1692.36
 467  1384.163
 468  1411.385
 469  1317.322
 470  1425.249
 471  1355.753
 472  1436.337
 473  1464.887
 474  1372.038
 475  1323.816
 476  1698.234
 477  1719.639
 478  1720.72
 479  1069.996
 480  924.9405
 481  973.1679
 482  931.5458
 483  1049.266
 484  872.944
 485  897.2931
 486  1118.34
 487  1097.01
 488  890.139
 489  780.9092
 490  941.2095
 491  1083.453
 492  809.7149
 493  910.1087
 494  1202.934
 495  1017.382
 496  1132.194
 497  897.7482
 498  831.1591
 499  937.8366
 500  864.7499
 501  1377.352
 502  1527.335
 503  1320.077
 504  1225.014
 505  1153.479
 506  884.1552
 507  836.8308
 508  1225.044
 509  1080.005
 510  1145.817
 511  1003.467
