# Input file       =  1179115899.100237_cleaned.dat
# Candidate        =  PSR_0332+5434
# Telescope        =  AR
# Epoch_topo       =  57891.174978012001
# Epoch_bary       =  N/A
# T_sample         =  0.002
# Data Folded      =  7208960
# Data Avg         =  0.303777320366565
# Data StdDev      =  5.72533771896139 
# Profile Bins     =  1024
# Profile Avg      =  2138.58103782502 
# Profile StdDev   =  480.382788672722 
# Reduced chi-sqr  =  2.496
# Prob(Noise)      <  8.17e-132   (~24.4 sigma)
# P_topo (ms)      =  714.530181263239  +/- 1.36e-05
# P'_topo (s/s)    =  -0                +/- 7.33e-12
# P''_topo (s/s^2) =  0                 +/- 3.29e-15
# P_bary (ms)      =  N/A
# P'_bary (s/s)    =  N/A
# P''_bary (s/s^2) =  N/A
# P_orb (s)        =  N/A
# asin(i)/c (s)    =  N/A
# eccentricity     =  N/A
# w (rad)          =  N/A
# T_peri           =  N/A
######################################################
   0  2767.418
   1  2476.551
   2  2224.434
   3  1943.054
   4  1852.926
   5  1752.111
   6  1625.497
   7  1561.021
   8  1461.099
   9  1500.094
  10  1676.973
  11  1911.411
  12  2329.955
  13  2570.301
  14  2861.086
  15  2824.733
  16  2884.221
  17  2619.362
  18  2451.167
  19  2244.216
  20  2251.732
  21  1988.756
  22  1940.879
  23  1911.161
  24  2110.697
  25  2009.308
  26  1906.867
  27  1952.672
  28  2204.681
  29  2463.645
  30  2636.895
  31  2663.717
  32  2666.568
  33  2268.407
  34  1983.968
  35  1824.623
  36  1793.727
  37  1731.524
  38  1578.76
  39  1647.554
  40  1635.241
  41  1588.229
  42  1575.34
  43  1794.803
  44  1881.162
  45  2206.496
  46  2514.04
  47  2872.506
  48  2747.461
  49  2745.12
  50  2637.315
  51  2374.352
  52  2066.086
  53  2109.476
  54  2154.756
  55  2148.296
  56  2027.828
  57  2039.495
  58  1834.147
  59  2011.779
  60  2313.367
  61  2628.066
  62  2666.946
  63  2648.291
  64  2709.257
  65  2603.883
  66  2406.199
  67  2254.227
  68  2036.66
  69  1761.223
  70  1646.021
  71  1557.808
  72  1745.115
  73  1612.796
  74  1717.116
  75  1607.099
  76  1687.871
  77  1815.632
  78  2248.37
  79  2649.598
  80  2894.056
  81  2949.488
  82  2955.056
  83  2769.768
  84  2424.871
  85  2137.15
  86  1915.164
  87  1911.855
  88  2093.368
  89  2001.164
  90  1786.223
  91  1696.353
  92  1928.185
  93  1906.247
  94  2070.587
  95  2487.966
  96  2781.033
  97  2846.502
  98  2733.811
  99  2762.832
 100  2501.57
 101  2251.596
 102  1989.746
 103  1839.705
 104  1615.437
 105  1618.108
 106  1758.947
 107  1864.305
 108  1786.473
 109  1787.23
 110  1993.971
 111  2227.15
 112  2477.974
 113  2565.514
 114  2714.011
 115  2827.241
 116  2787.118
 117  2641.955
 118  2292.18
 119  2129.809
 120  1982.9
 121  2013.756
 122  1889.003
 123  1848.339
 124  2033.031
 125  2040.889
 126  2079.131
 127  2201.022
 128  2485.995
 129  2645.991
 130  2764.553
 131  2759.447
 132  2582.706
 133  2301.637
 134  2095.136
 135  1918.554
 136  1613.692
 137  1593.217
 138  1513.34
 139  1558.892
 140  1409.055
 141  1469.103
 142  1625.068
 143  1855.716
 144  2178.724
 145  2486.854
 146  2789.665
 147  3018.831
 148  3011.404
 149  2834.249
 150  2504.105
 151  2327.949
 152  2174.294
 153  2013.552
 154  1955.312
 155  1902.808
 156  1928.77
 157  1972.143
 158  1895.112
 159  2028.689
 160  2163.478
 161  2359.388
 162  2610.544
 163  2675.351
 164  2733.15
 165  2611.657
 166  2573.997
 167  2404.311
 168  2206.879
 169  1942.895
 170  1821.596
 171  1702.274
 172  1611.5
 173  1500.664
 174  1390.597
 175  1449.272
 176  1613.221
 177  2041.375
 178  2456.935
 179  2671.833
 180  2690.402
 181  2415.432
 182  2393.563
 183  2345.923
 184  2380.861
 185  2241.819
 186  2130.869
 187  1963.62
 188  1759.115
 189  1669.349
 190  1745.234
 191  1693.499
 192  1695.593
 193  1869.844
 194  2165.478
 195  2477.218
 196  2461.455
 197  2355.223
 198  2243.798
 199  2066.472
 200  1960.496
 201  1761.132
 202  1668.684
 203  1655.316
 204  1599.73
 205  1781.252
 206  1680.336
 207  1691.449
 208  1614.771
 209  1855.891
 210  2180.057
 211  2427.786
 212  2606.527
 213  2766.155
 214  2731.451
 215  2577.267
 216  2331.151
 217  2124.432
 218  2059.95
 219  1875.117
 220  1996.326
 221  1948.921
 222  2142.978
 223  2002.022
 224  1828.341
 225  1962.909
 226  2018.905
 227  2282.216
 228  2432.1
 229  2718.14
 230  2779.552
 231  2606.509
 232  2352.728
 233  2057.43
 234  1787.65
 235  1610.031
 236  1589.387
 237  1639.742
 238  1701.481
 239  1644.302
 240  1689.128
 241  1680.974
 242  1823.169
 243  2090.808
 244  2267.954
 245  2513.291
 246  2508.315
 247  2678.675
 248  2605.762
 249  2586.406
 250  2448.862
 251  2244.431
 252  2070.234
 253  2066.39
 254  2115.416
 255  2093.985
 256  1858.584
 257  1828.063
 258  2054.981
 259  2126.038
 260  2259.702
 261  2485.554
 262  2723.115
 263  2678.259
 264  2477.118
 265  2369.916
 266  1969.07
 267  1767.027
 268  1592.655
 269  1605.995
 270  1613.554
 271  1494.1
 272  1563.153
 273  1547.973
 274  1604.71
 275  1779.983
 276  2215.633
 277  2542.307
 278  2695.241
 279  2882.632
 280  2842.231
 281  2391.421
 282  2084.693
 283  1950.521
 284  1829.348
 285  1757.404
 286  1746.55
 287  1851.452
 288  1775.094
 289  1843.192
 290  1963.507
 291  1952.538
 292  2040.949
 293  2299.674
 294  2719.707
 295  2740.762
 296  2710.745
 297  2708.993
 298  2464.216
 299  1974.589
 300  1611.903
 301  1525.872
 302  1385.36
 303  1323.879
 304  1201.29
 305  1272.6
 306  1191.585
 307  1399.821
 308  1647.83
 309  1936.229
 310  2128.439
 311  2448.787
 312  2629.034
 313  2739.544
 314  2565.542
 315  2369.773
 316  2027.757
 317  1858.782
 318  1780.421
 319  1803.743
 320  1644.975
 321  1561.421
 322  1463.277
 323  1634.106
 324  1870.855
 325  2061.543
 326  2310.43
 327  2509.007
 328  2589.811
 329  2538.709
 330  2477.115
 331  2320.696
 332  2070.798
 333  1793.665
 334  1491.603
 335  1501.084
 336  1468.324
 337  1501.448
 338  1553.204
 339  1493.087
 340  1378.33
 341  1444.695
 342  1722.562
 343  2141.734
 344  2476.252
 345  2709.028
 346  2698.853
 347  2512.08
 348  2440.64
 349  2245.562
 350  2023.279
 351  1938.318
 352  1859.099
 353  1785.518
 354  1631.108
 355  1670.63
 356  1788.229
 357  1747.052
 358  1872.725
 359  2193.051
 360  2454.761
 361  2655.259
 362  2649.289
 363  2695.104
 364  2306.464
 365  1966.581
 366  1732.214
 367  1638.573
 368  1671.039
 369  1708.378
 370  1735.207
 371  1708.042
 372  1539.203
 373  1453.322
 374  1541.775
 375  1775.166
 376  2073.475
 377  2399.824
 378  2709.458
 379  2711.785
 380  2561.048
 381  2462.402
 382  2163.115
 383  2039.535
 384  1986.445
 385  2030.403
 386  2006.435
 387  1960.577
 388  2010.381
 389  1802.48
 390  1689.279
 391  1885.985
 392  2100.137
 393  2393.726
 394  2255.935
 395  2425.201
 396  2426.879
 397  2261.687
 398  2012.559
 399  1846.143
 400  1712.323
 401  1510.553
 402  1351.185
 403  1458.387
 404  1433.327
 405  1574.056
 406  1600.833
 407  1772.173
 408  1923.838
 409  2103.126
 410  2343.33
 411  2390.215
 412  2389.863
 413  2520.144
 414  2451.1
 415  2258.88
 416  2095.452
 417  2038.114
 418  1972.763
 419  1917.067
 420  1925.539
 421  1861.798
 422  1679.732
 423  1733.303
 424  2003.272
 425  2241.69
 426  2366.4
 427  2465.431
 428  2761.084
 429  2666.657
 430  2425.671
 431  2164.522
 432  1952.51
 433  1712.677
 434  1517.262
 435  1506.641
 436  1526.669
 437  1439.865
 438  1561.857
 439  1565.187
 440  1671.476
 441  1898.27
 442  2291.221
 443  2610.398
 444  2526.967
 445  2482.649
 446  2497.403
 447  2296.312
 448  2138.086
 449  1953.37
 450  1956.893
 451  1870.222
 452  1921.161
 453  2017.593
 454  1914.411
 455  1909.418
 456  1943.332
 457  1990.027
 458  2150.669
 459  2469.914
 460  2809.963
 461  2875.634
 462  2688.577
 463  2456.167
 464  2202.974
 465  1964.51
 466  1827.349
 467  1668.517
 468  1543.954
 469  1453.886
 470  1492.793
 471  1388.764
 472  1322.203
 473  1662.559
 474  2129.869
 475  2532.917
 476  2644.209
 477  2631.291
 478  2713.832
 479  2631.684
 480  2473.857
 481  2190.136
 482  1996.107
 483  1870.179
 484  1828.456
 485  1980.15
 486  1948.115
 487  1947.884
 488  2000.637
 489  2172.72
 490  2187.432
 491  2176.702
 492  2303.955
 493  2636
 494  2678.607
 495  2613.909
 496  2295.505
 497  1872.528
 498  1665.359
 499  1620.381
 500  1517.252
 501  1396.396
 502  1419.944
 503  1556.701
 504  1643.309
 505  1671.901
 506  1811.588
 507  2024.995
 508  2314.894
 509  2545.696
 510  2618.912
 511  2791.599
 512  2698.052
 513  2670.963
 514  2287.85
 515  2036.79
 516  1820.209
 517  1854.853
 518  2000.504
 519  1925.693
 520  1824.944
 521  1809.759
 522  1868.53
 523  2004.61
 524  2138.788
 525  2346.201
 526  2555.037
 527  2652.517
 528  2425.133
 529  2311.078
 530  2065.533
 531  2024.455
 532  1927.443
 533  1777.697
 534  1654.473
 535  1607.075
 536  1694.351
 537  1762.075
 538  1689.699
 539  1760.139
 540  2015.964
 541  2347.31
 542  2478.441
 543  2628.865
 544  2807.862
 545  2771.031
 546  2549.492
 547  2338.411
 548  2284.663
 549  2199.853
 550  2182.091
 551  2187.328
 552  2009.943
 553  2013.826
 554  2117.419
 555  2147.993
 556  2056.693
 557  2292.089
 558  2674.169
 559  2987.908
 560  2763.702
 561  2641.358
 562  2444.197
 563  2370.546
 564  2231.162
 565  1976.88
 566  2029.948
 567  2010.539
 568  2037.349
 569  1948.922
 570  1869.517
 571  1948.166
 572  2106.49
 573  2360.606
 574  2522.01
 575  2600.799
 576  2870.188
 577  2895.725
 578  2819.617
 579  2766.359
 580  2496.189
 581  2387.895
 582  2256.824
 583  2336.321
 584  2258.469
 585  2149.649
 586  2246.892
 587  2091.018
 588  1989.63
 589  2092.841
 590  2487.188
 591  2861.247
 592  3023.956
 593  2986.966
 594  2793.792
 595  2576.339
 596  2363.312
 597  2176.977
 598  1927.088
 599  1859.513
 600  1838.405
 601  1797.717
 602  1634.71
 603  1608.432
 604  1713.105
 605  1855.57
 606  2090.564
 607  2315.942
 608  2453.459
 609  2775.971
 610  2984.912
 611  3041.824
 612  2676.838
 613  2360.902
 614  2139.321
 615  2134.332
 616  2006.115
 617  2034.914
 618  2013.086
 619  1954.346
 620  1696.701
 621  1728.085
 622  1931.944
 623  2199.306
 624  2477.184
 625  2671.725
 626  2827.944
 627  2745.66
 628  2644.729
 629  2419.919
 630  2004.267
 631  1870.25
 632  1807.002
 633  1871.115
 634  1751.943
 635  1594.806
 636  1719.162
 637  1752.894
 638  1875.172
 639  2046.375
 640  2376.168
 641  2817.506
 642  2963.417
 643  2970.754
 644  2895.056
 645  2724.658
 646  2661.939
 647  2437.759
 648  2219.518
 649  2005.334
 650  1973.765
 651  2144.402
 652  1946.305
 653  1820.617
 654  1837.807
 655  1974.272
 656  2300.741
 657  2604.079
 658  2825.44
 659  2691.701
 660  2617.404
 661  2651.148
 662  2356.949
 663  1960.632
 664  1702.654
 665  1607.888
 666  1601.384
 667  1480.045
 668  1507.816
 669  1395.389
 670  1655.223
 671  1879.467
 672  2107.176
 673  2132.968
 674  2451.503
 675  2788.133
 676  2910.862
 677  2721.573
 678  2528.874
 679  2401.946
 680  2214.395
 681  2067.056
 682  1938.245
 683  1904.585
 684  1898.392
 685  1711.061
 686  1691.763
 687  1793.801
 688  1978.413
 689  2320.59
 690  2397.969
 691  2513.062
 692  2513.17
 693  2517.047
 694  2339.328
 695  2112.986
 696  1950.678
 697  1816.325
 698  1701.601
 699  1628.922
 700  1640.754
 701  1619.858
 702  1645.946
 703  1556.494
 704  1755.134
 705  1973.178
 706  2328.468
 707  2570.392
 708  2711.75
 709  2872.113
 710  2843.243
 711  2586.678
 712  2281.409
 713  2115.941
 714  2147.968
 715  2115.251
 716  2168.883
 717  2134.611
 718  2007.583
 719  2012.061
 720  2072.171
 721  2076.132
 722  2306.632
 723  2492.191
 724  2733.551
 725  2650.269
 726  2517.931
 727  2323.975
 728  2333.194
 729  2163.912
 730  2006.13
 731  1649.661
 732  1562.432
 733  1415.693
 734  1566.195
 735  1689.29
 736  1710.957
 737  1890.123
 738  2137.125
 739  2475.245
 740  2699.915
 741  2891.692
 742  2964.622
 743  2804.377
 744  2799.359
 745  2688.216
 746  2389.616
 747  2034.06
 748  2100.13
 749  2235.432
 750  2189.333
 751  1901.605
 752  2212.969
 753  2301.248
 754  2588.346
 755  2821.362
 756  3079.433
 757  3381.134
 758  3477.201
 759  3632.534
 760  3277.433
 761  2782.706
 762  2531.013
 763  2356.272
 764  2218.681
 765  1957.752
 766  1831.432
 767  1819.718
 768  1682.981
 769  1786.001
 770  1881.782
 771  2006.181
 772  2360.197
 773  2624.904
 774  2799.937
 775  2630.976
 776  2650.175
 777  2720.618
 778  2530.221
 779  2267.305
 780  2096.543
 781  2132.482
 782  2077.134
 783  1981.01
 784  1960.678
 785  1906.197
 786  1841.698
 787  1975.885
 788  2377.279
 789  2622.927
 790  2738.541
 791  2840.771
 792  2813.62
 793  2615.381
 794  2342.765
 795  2231.751
 796  2041.062
 797  1835.016
 798  1663.466
 799  1647.645
 800  1663.461
 801  1575.563
 802  1581.927
 803  1692.413
 804  1986.588
 805  2435.943
 806  2538.201
 807  2632.026
 808  2499.237
 809  2719.261
 810  2545.903
 811  2479.25
 812  2239.911
 813  2180.771
 814  2113.089
 815  2088.744
 816  2054.85
 817  2012.631
 818  1932.695
 819  1986.643
 820  2119.437
 821  2244.722
 822  2432.621
 823  2581.697
 824  2795.638
 825  2622.232
 826  2366.763
 827  2200.53
 828  1944.901
 829  1739.207
 830  1661.123
 831  1661.947
 832  1684.016
 833  1543.648
 834  1554.37
 835  1578.311
 836  1762.619
 837  1989.617
 838  2263.753
 839  2503.146
 840  2749.291
 841  2828.734
 842  2797.067
 843  2567.989
 844  2398.886
 845  2245.443
 846  2016.029
 847  1906.755
 848  1900.538
 849  2000.624
 850  2024.318
 851  1988.137
 852  2102.508
 853  2152.17
 854  2358.541
 855  2552.637
 856  2695.039
 857  2769.781
 858  2623.335
 859  2569.885
 860  2278.949
 861  1913.266
 862  1621.845
 863  1563.181
 864  1556.297
 865  1652.198
 866  1612.716
 867  1567.157
 868  1654.236
 869  1823.663
 870  2071.615
 871  2251.82
 872  2448.305
 873  2577.315
 874  2744.449
 875  2744.482
 876  2485.719
 877  2234.899
 878  2177.316
 879  2052.992
 880  1802.763
 881  1689.174
 882  1728.967
 883  1908.662
 884  1819.936
 885  1826.419
 886  1898.747
 887  2189.806
 888  2420.588
 889  2579.573
 890  2579.05
 891  2318.525
 892  2205.471
 893  1973.619
 894  1727.822
 895  1452.183
 896  1490.984
 897  1565.844
 898  1615.578
 899  1449.939
 900  1433.747
 901  1339.934
 902  1311.689
 903  1409.295
 904  1804.357
 905  2155.677
 906  2312.601
 907  2531.041
 908  2628.832
 909  2477.095
 910  2284.321
 911  2260.172
 912  2068.408
 913  1911.489
 914  1792.168
 915  1908.305
 916  1712.33
 917  1707.806
 918  1824.035
 919  1966.926
 920  2183.511
 921  2603.285
 922  2896.831
 923  2696.338
 924  2435.071
 925  2438.82
 926  2297.725
 927  1839.029
 928  1587.971
 929  1541.536
 930  1567.068
 931  1350.536
 932  1343.906
 933  1505.241
 934  1629.115
 935  1851.087
 936  2131.226
 937  2388.957
 938  2551.498
 939  2680.264
 940  2879.131
 941  2592.148
 942  2360.984
 943  2104.208
 944  2074.923
 945  1818.062
 946  1743.645
 947  1732.484
 948  1791.632
 949  1623.545
 950  1539.17
 951  1538.255
 952  1742.567
 953  2163.726
 954  2620.369
 955  2783.636
 956  2680.668
 957  2716.2
 958  2612.08
 959  2429.445
 960  2106.029
 961  1995.159
 962  1781.046
 963  1715.837
 964  1651.735
 965  1659.999
 966  1532.535
 967  1673.784
 968  1791.909
 969  2028.965
 970  2254.19
 971  2592.728
 972  2921.699
 973  3061.142
 974  3084.619
 975  2906.092
 976  2556.563
 977  2293.965
 978  2131.667
 979  2057.69
 980  1924.735
 981  1951.382
 982  2104.379
 983  2122.195
 984  2003.632
 985  1999.522
 986  2134.089
 987  2487.027
 988  2743.559
 989  2938.248
 990  2921.691
 991  2650.861
 992  2319.709
 993  1918.789
 994  1770.275
 995  1792.526
 996  1904.523
 997  1898.737
 998  1820.13
 999  1637.167
1000  1542.77
1001  1651.048
1002  2056.226
1003  2355.739
1004  2634.745
1005  2834.594
1006  2877.672
1007  2923.528
1008  2733.671
1009  2655.985
1010  2309.285
1011  1998.999
1012  1745.73
1013  1779.631
1014  1814.496
1015  1896.684
1016  1970.989
1017  2039.305
1018  2043.141
1019  2064.816
1020  2401.021
1021  2603.039
1022  2751.047
1023  2797.695
