# Input file       =  1179719062.10811_cleaned.dat
# Candidate        =  PSR_0332+5434
# Telescope        =  AR
# Epoch_topo       =  57898.156031343868
# Epoch_bary       =  N/A
# T_sample         =  0.002
# Data Folded      =  7143424
# Data Avg         =  0.148577523068525
# Data StdDev      =  4.269381382366   
# Profile Bins     =  1024
# Profile Avg      =  1036.28003996851 
# Profile StdDev   =  356.589201882698 
# Reduced chi-sqr  =  0.682
# Prob(Noise)      <  1   (~0.0 sigma)
# P_topo (ms)      =  714.523314843785  +/- 0.000114
# P'_topo (s/s)    =  -0                +/- 6.21e-11
# P''_topo (s/s^2) =  0                 +/- 2.82e-14
# P_bary (ms)      =  N/A
# P'_bary (s/s)    =  N/A
# P''_bary (s/s^2) =  N/A
# P_orb (s)        =  N/A
# asin(i)/c (s)    =  N/A
# eccentricity     =  N/A
# w (rad)          =  N/A
# T_peri           =  N/A
######################################################
   0  1026.952
   1  1034.461
   2  1102.26
   3  1081.785
   4  970.3278
   5  1034.16
   6  1001.993
   7  980.2888
   8  908.1285
   9  948.8337
  10  1028.494
  11  1046.903
  12  1121.426
  13  1060.842
  14  898.6426
  15  834.1562
  16  933.0011
  17  976.722
  18  950.4051
  19  851.3913
  20  881.1362
  21  993.2783
  22  963.0473
  23  964.1431
  24  916.5363
  25  910.4368
  26  868.9978
  27  831.7922
  28  777.9
  29  683.4561
  30  638.8278
  31  693.353
  32  674.3699
  33  743.9749
  34  939.0271
  35  1097.03
  36  1108.255
  37  951.6614
  38  1060.146
  39  1145.186
  40  1098.657
  41  1037.532
  42  1079.82
  43  1114.904
  44  1175.587
  45  1187.236
  46  1075.633
  47  1076.931
  48  1055.535
  49  1218.554
  50  1112.021
  51  1131.074
  52  1155.93
  53  1099.597
  54  1071.004
  55  1189.288
  56  1324.008
  57  1326.456
  58  1140.896
  59  1053.326
  60  1054.053
  61  1022.712
  62  966.5233
  63  893.5139
  64  885.7477
  65  901.5837
  66  920.7769
  67  977.058
  68  977.5264
  69  1080.074
  70  1265.777
  71  1311.895
  72  1246.705
  73  1246.349
  74  1329.503
  75  1316.288
  76  1218.739
  77  1220.61
  78  1151.296
  79  1157.404
  80  1272.883
  81  1373.285
  82  1203.008
  83  961.9236
  84  928.3433
  85  982.2891
  86  1055.18
  87  1024.035
  88  1125.729
  89  1158.013
  90  1060.347
  91  929.8581
  92  894.1351
  93  1002.866
  94  1109.75
  95  1086.226
  96  971.6489
  97  782.2902
  98  740.8618
  99  879.3326
 100  855.978
 101  728.4491
 102  761.1708
 103  957.158
 104  1137.671
 105  1045.777
 106  1018.791
 107  1003.245
 108  1010.93
 109  1212.556
 110  1275.536
 111  1074.006
 112  917.0436
 113  854.0934
 114  959.4594
 115  872.9296
 116  784.08
 117  768.5211
 118  856.6943
 119  937.0376
 120  1033.156
 121  998.8036
 122  1019.152
 123  1074.98
 124  1037.051
 125  1063.571
 126  987.9061
 127  1023.085
 128  1078.68
 129  1030.536
 130  986.6614
 131  841.2883
 132  884.3905
 133  934.3066
 134  1024.115
 135  1040.752
 136  1051.763
 137  1097.097
 138  1120.415
 139  1062.667
 140  1190.762
 141  1334.39
 142  1422.06
 143  1330.333
 144  1305.478
 145  1338.776
 146  1524.016
 147  1391.14
 148  1248.658
 149  1131.189
 150  1172.36
 151  1224.641
 152  1158.724
 153  1175.039
 154  1102.091
 155  975.6
 156  982.6667
 157  1032.998
 158  1274.653
 159  1151.859
 160  1128.299
 161  953.8126
 162  912.7211
 163  914.4932
 164  1052.965
 165  1089.937
 166  1068.515
 167  1144.385
 168  1100.525
 169  905.2202
 170  729.8284
 171  956.7549
 172  1181.498
 173  1082.188
 174  1003.549
 175  956.8492
 176  990.3431
 177  913.9932
 178  982.2953
 179  1021.339
 180  934.0431
 181  890.9673
 182  941.6554
 183  926.6191
 184  887.745
 185  987.6533
 186  1081.059
 187  1012.29
 188  891.9666
 189  732.5535
 190  840.383
 191  986.3546
 192  974.5631
 193  876.6927
 194  731.5156
 195  808.8558
 196  762.0456
 197  819.3148
 198  953.9169
 199  1025.178
 200  1165.553
 201  1234.458
 202  1271.736
 203  1277.64
 204  1229.166
 205  1240.993
 206  1242.657
 207  1144.277
 208  1048.501
 209  1036.292
 210  1064.211
 211  1167.855
 212  1026.709
 213  1004.35
 214  959.9955
 215  1109.323
 216  1240.803
 217  1158.085
 218  1202.712
 219  1219.016
 220  1241.581
 221  1090.17
 222  1129.58
 223  1276.636
 224  1362.611
 225  1212.737
 226  1096.591
 227  960.1762
 228  878.0374
 229  904.6221
 230  912.9473
 231  941.4313
 232  1046.112
 233  1208.229
 234  1283.621
 235  1226.839
 236  1301.954
 237  1384.018
 238  1287.808
 239  1182.819
 240  1171.017
 241  1061.146
 242  1121.149
 243  1152.899
 244  1160.642
 245  1130.37
 246  1071.212
 247  1108.112
 248  1064.015
 249  937.6605
 250  896.7966
 251  863.6674
 252  933.4182
 253  977.7805
 254  856.9441
 255  960.6183
 256  902.4647
 257  962.9547
 258  924.6539
 259  939.8138
 260  1075.787
 261  1008.651
 262  889.3437
 263  781.6544
 264  720.622
 265  758.0599
 266  863.8095
 267  938.142
 268  962.4976
 269  921.7073
 270  964.7518
 271  1008.31
 272  1086.204
 273  1135.01
 274  1076.05
 275  1146.273
 276  1170.821
 277  1082.295
 278  1013.758
 279  1008.597
 280  955.3563
 281  980.1106
 282  1038.696
 283  1151.168
 284  1133.128
 285  1002.403
 286  818.6025
 287  732.6322
 288  853.6373
 289  1058.432
 290  1151.462
 291  1303.41
 292  1162.854
 293  1106.068
 294  881.1584
 295  747.5723
 296  622.278
 297  636.3433
 298  671.8091
 299  794.1923
 300  889.0702
 301  927.4771
 302  1034.945
 303  1073.008
 304  1031.692
 305  957.9839
 306  972.3107
 307  1063.319
 308  1152.995
 309  1072.692
 310  1000.609
 311  972.7036
 312  1061.277
 313  1099.618
 314  1001.572
 315  978.8809
 316  905.0867
 317  938.5301
 318  894.1863
 319  866.809
 320  883.6534
 321  904.2297
 322  836.5599
 323  848.0355
 324  990.7155
 325  1049.338
 326  958.0867
 327  844.098
 328  906.4665
 329  1018.614
 330  1088.897
 331  1182.779
 332  1134.277
 333  1100.517
 334  1071.364
 335  1180.523
 336  1227.577
 337  1153.301
 338  1121.125
 339  1075.846
 340  904.4938
 341  918.1655
 342  1009.55
 343  1196.047
 344  1297.402
 345  1185.289
 346  1106.303
 347  1017.079
 348  1127.63
 349  1062.105
 350  961.5608
 351  867.9464
 352  1005.116
 353  1009.008
 354  997.1716
 355  808.4739
 356  828.9058
 357  910.223
 358  912.9578
 359  881.5677
 360  760.9282
 361  856.4471
 362  953.3013
 363  1124.529
 364  1093.355
 365  1073.168
 366  977.7921
 367  1114.479
 368  1204.482
 369  1177.648
 370  1192.588
 371  1228.74
 372  1221.636
 373  1054.643
 374  930.929
 375  1050.085
 376  1058.21
 377  979.3751
 378  982.3939
 379  1048.653
 380  1098.671
 381  1053.345
 382  1213.377
 383  1304.91
 384  1205.767
 385  1167.683
 386  1199.692
 387  1232.533
 388  1128.351
 389  1018.983
 390  913.4897
 391  924.9783
 392  881.8022
 393  956.5665
 394  873.0373
 395  975.0528
 396  1116.619
 397  1209.043
 398  1124.12
 399  1071.549
 400  1110.013
 401  1129.179
 402  1143.368
 403  1284.356
 404  1430.589
 405  1497.724
 406  1300.316
 407  1200.179
 408  1145.499
 409  1167.843
 410  1121.305
 411  1007.403
 412  1078.392
 413  1030.6
 414  1142.235
 415  1157.536
 416  1268.057
 417  1156.886
 418  1088.19
 419  1020.909
 420  963.8295
 421  1083.813
 422  1228.317
 423  1195.884
 424  1046.697
 425  867.8179
 426  928.7949
 427  943.2716
 428  994.7584
 429  922.7504
 430  886.9759
 431  886.6019
 432  971.8159
 433  1142.828
 434  1141.186
 435  1163.039
 436  1079.703
 437  1143.163
 438  1187.807
 439  1200.452
 440  1219.657
 441  1166.446
 442  1191.769
 443  1161.421
 444  1055.357
 445  1014.183
 446  940.3047
 447  927.1808
 448  1001.211
 449  994.7273
 450  933.9932
 451  815.4453
 452  799.0341
 453  953.9396
 454  952.1824
 455  987.7933
 456  1060.088
 457  1135.353
 458  1101.476
 459  897.0151
 460  745.8636
 461  793.4172
 462  798.9478
 463  848.3921
 464  856.5075
 465  891.0645
 466  935.6268
 467  1046.533
 468  1085.911
 469  1132.119
 470  1152.205
 471  1241.896
 472  1156.441
 473  1033.859
 474  1044.781
 475  1034.928
 476  1133.486
 477  1126.182
 478  1183.34
 479  1159.467
 480  1155.658
 481  1113.019
 482  1165.191
 483  1130.812
 484  1063.212
 485  863.3822
 486  869.6033
 487  941.3864
 488  1004.261
 489  906.9927
 490  949.0665
 491  953.0564
 492  933.7462
 493  881.6387
 494  952.7546
 495  1013.529
 496  1025.15
 497  1026.484
 498  985.7064
 499  884.6348
 500  1031.614
 501  1106.843
 502  1250.155
 503  1156.972
 504  1211.461
 505  1229.483
 506  1268.862
 507  1338.735
 508  1322.635
 509  1335.86
 510  1182.312
 511  1173.86
 512  1001.06
 513  1041.509
 514  939.1068
 515  999.8745
 516  968.99
 517  899.0414
 518  933.151
 519  990.2958
 520  1105.7
 521  1219.563
 522  1188.892
 523  1041.869
 524  877.0297
 525  866.1718
 526  841.1179
 527  950.6988
 528  1091.562
 529  1264.953
 530  1110.587
 531  1023.333
 532  920.6507
 533  936.8955
 534  962.9698
 535  1159.714
 536  1205.48
 537  1119.267
 538  1083.314
 539  1188.022
 540  1070.729
 541  1061.029
 542  1137.43
 543  1201.509
 544  1030.836
 545  1073.069
 546  1098.068
 547  1174.295
 548  1011.963
 549  953.4623
 550  932.8207
 551  932.0247
 552  952.1785
 553  927.9144
 554  928.6405
 555  959.6386
 556  886.6602
 557  882.2385
 558  919.3738
 559  1028.701
 560  882.2956
 561  765.3911
 562  759.884
 563  1019.806
 564  1040.939
 565  1055.382
 566  1061.867
 567  1215.148
 568  1368.405
 569  1336.911
 570  1254.71
 571  1146.483
 572  1155.429
 573  1211.315
 574  1235.919
 575  1239.143
 576  1227.943
 577  1224.216
 578  1379.807
 579  1319.097
 580  1141.28
 581  1122.368
 582  1113.552
 583  1185.939
 584  1029.355
 585  1138.862
 586  1179.102
 587  1203.592
 588  1021.677
 589  967.0494
 590  1033.511
 591  955.1605
 592  946.8181
 593  904.4424
 594  971.8431
 595  954.0606
 596  1067.26
 597  1089.834
 598  1019.932
 599  1050.211
 600  1200.743
 601  1269.607
 602  1130.949
 603  1041.227
 604  1108.733
 605  1001.187
 606  940.2729
 607  919.2076
 608  1061.601
 609  1109.991
 610  1100.888
 611  989.1851
 612  844.502
 613  656.2785
 614  644.0814
 615  772.4933
 616  918.7257
 617  944.8189
 618  828.5488
 619  805.4094
 620  859.2101
 621  873.1012
 622  829.6096
 623  890.7776
 624  918.3514
 625  821.2858
 626  635.9113
 627  465.7519
 628  642.2504
 629  758.3474
 630  925.1224
 631  894.851
 632  940.4948
 633  978.9265
 634  1065.078
 635  1058.507
 636  1057.362
 637  1063.813
 638  1156.866
 639  1092.762
 640  1059.772
 641  942.6912
 642  852.484
 643  900.2244
 644  902.7803
 645  923.6318
 646  968.6527
 647  1035.719
 648  1010.122
 649  960.1406
 650  994.6835
 651  1058.695
 652  990.6526
 653  928.6885
 654  895.7089
 655  893.8759
 656  890.9146
 657  935.7898
 658  953.5209
 659  1021.46
 660  1015.856
 661  1014.864
 662  974.7068
 663  834.5532
 664  896.623
 665  844.7759
 666  864.6082
 667  861.1669
 668  1143.406
 669  1219.559
 670  1219.844
 671  1179.098
 672  1252.403
 673  1183.55
 674  1222.599
 675  1245.684
 676  1240.733
 677  1057.634
 678  941.2532
 679  988.1144
 680  1047.029
 681  1017.413
 682  976.5887
 683  967.8349
 684  1027.759
 685  1011.003
 686  1016.005
 687  1141.345
 688  1213.898
 689  1110.855
 690  917.7537
 691  817.1041
 692  887.9821
 693  961.6257
 694  1082.261
 695  1070.329
 696  1062.285
 697  982.8226
 698  1069.134
 699  1012.582
 700  912.9149
 701  913.9261
 702  942.5536
 703  1033.785
 704  1135.546
 705  1298.094
 706  1359.083
 707  1212.581
 708  1192.635
 709  1123.003
 710  978.3912
 711  992.7369
 712  1125.749
 713  1243.803
 714  1127.399
 715  1039.473
 716  993.8074
 717  988.0488
 718  933.2558
 719  881.7391
 720  842.4431
 721  857.8715
 722  907.6456
 723  844.399
 724  892.8493
 725  992.9487
 726  1233.253
 727  1210.295
 728  1114.398
 729  1137.318
 730  1298.74
 731  1307.368
 732  1263.869
 733  1242.72
 734  1216.87
 735  1160.85
 736  1169.761
 737  1201.819
 738  1184.487
 739  1177.259
 740  1278.979
 741  1376.355
 742  1351.904
 743  1299.772
 744  1384.07
 745  1549.38
 746  1566.17
 747  1528.629
 748  1478.513
 749  1450.793
 750  1268.653
 751  1137.857
 752  1197.421
 753  1217.815
 754  1399.49
 755  1357.936
 756  1565.752
 757  1586.13
 758  1585.324
 759  1477.954
 760  1443.33
 761  1474.788
 762  1321.944
 763  1423.919
 764  1448.536
 765  1466.949
 766  1374.703
 767  1289.262
 768  1376.407
 769  1417.314
 770  1368.365
 771  1178.165
 772  1021.16
 773  983.4977
 774  1014.368
 775  979.4195
 776  989.8332
 777  995.4926
 778  1100.508
 779  1140.197
 780  911.9173
 781  839.2446
 782  968.7767
 783  1206.852
 784  1237.982
 785  1119.579
 786  1044.102
 787  992.9108
 788  829.4752
 789  811.2104
 790  755.3914
 791  745.9274
 792  742.3115
 793  667.5599
 794  779.4075
 795  790.1801
 796  925.4858
 797  965.1156
 798  965.0108
 799  932.1321
 800  1056.23
 801  1121.324
 802  1157.227
 803  1136.711
 804  1274.193
 805  1371.628
 806  1189.575
 807  1033.877
 808  924.7571
 809  1019.311
 810  1051.396
 811  1047.995
 812  1119.68
 813  1234.366
 814  1267.393
 815  1125.955
 816  945.718
 817  860.983
 818  878.4014
 819  928.7919
 820  997.86
 821  1079.052
 822  1061.951
 823  958.138
 824  920.637
 825  950.3145
 826  1083.628
 827  1104.825
 828  1142.831
 829  1038.851
 830  933.9069
 831  868.2407
 832  989.6462
 833  1072.361
 834  1116.25
 835  1171.434
 836  1254.619
 837  1310.511
 838  1186.618
 839  1081.51
 840  929.1015
 841  1026.151
 842  1120.719
 843  964.1533
 844  831.6039
 845  681.2194
 846  737.4124
 847  778.9146
 848  761.7613
 849  794.5079
 850  845.1314
 851  1004.654
 852  933.7428
 853  753.6976
 854  706.3141
 855  819.3173
 856  914.6714
 857  912.7269
 858  820.3698
 859  984.8929
 860  1111.104
 861  1072.644
 862  938.3238
 863  842.4039
 864  964.3818
 865  1033.834
 866  1005.299
 867  986.696
 868  988.0646
 869  1046.31
 870  1079.201
 871  1101.666
 872  1157.766
 873  1139.27
 874  1174.271
 875  1233.066
 876  1190.452
 877  1171.499
 878  1074.258
 879  1113.734
 880  1057.232
 881  899.2876
 882  723.9045
 883  801.5024
 884  958.9237
 885  952.3937
 886  968.2268
 887  896.1481
 888  757.5858
 889  649.7722
 890  619.8037
 891  774.8884
 892  959.7133
 893  1095.971
 894  1109.02
 895  1094.686
 896  1145.683
 897  1100.298
 898  891.8211
 899  891.5362
 900  943.4169
 901  951.8591
 902  959.9103
 903  847.1566
 904  1026.921
 905  1063.35
 906  1106.33
 907  1001.192
 908  909.7723
 909  1033.354
 910  1066.976
 911  1101.445
 912  1143.372
 913  1075.148
 914  1072.682
 915  993.9985
 916  930.2661
 917  859.649
 918  774.4656
 919  841.6076
 920  894.8335
 921  762.0757
 922  675.0106
 923  698.6479
 924  930.1559
 925  1085.85
 926  1033.488
 927  1059.701
 928  1153.689
 929  1208.99
 930  1227.102
 931  1084.807
 932  1127.177
 933  1218.646
 934  1276.227
 935  1328.91
 936  1165.186
 937  1105.347
 938  998.0386
 939  992.485
 940  1009.881
 941  1009.356
 942  998.4472
 943  986.6156
 944  869.8705
 945  937.114
 946  944.3416
 947  988.1141
 948  1020.994
 949  1133.642
 950  1179.523
 951  1104.333
 952  1012.143
 953  915.883
 954  832.2104
 955  795.522
 956  897.0981
 957  865.0445
 958  719.511
 959  628.5856
 960  745.4183
 961  866.9324
 962  836.3997
 963  824.84
 964  927.338
 965  985.4348
 966  872.8499
 967  861.2409
 968  931.4411
 969  1110.121
 970  1097.57
 971  1136.868
 972  963.2131
 973  872.3983
 974  952.3649
 975  1124.345
 976  1099.572
 977  951.4324
 978  814.7229
 979  738.3094
 980  823.4269
 981  711.7556
 982  783.2584
 983  838.0582
 984  1061.438
 985  1075.13
 986  954.7202
 987  1016.316
 988  992.6233
 989  919.0681
 990  779.7839
 991  772.7408
 992  797.4125
 993  898.2898
 994  1052.463
 995  1090.857
 996  969.8549
 997  914.2804
 998  1116.434
 999  1275.128
1000  1348.703
1001  1302.158
1002  1256.59
1003  1252.139
1004  1243.704
1005  1267.149
1006  1222.984
1007  1178.925
1008  1141.138
1009  1113.148
1010  972.5779
1011  1020.59
1012  964.6113
1013  988.4478
1014  781.8549
1015  756.3003
1016  814.577
1017  1020.297
1018  1081.387
1019  1002.492
1020  923.9775
1021  922.1129
1022  980.7535
1023  994.1565
