# Input file       =  1179231636.095346_cleaned.dat
# Candidate        =  PSR_0332+5434
# Telescope        =  AR
# Epoch_topo       =  57892.514526566505
# Epoch_bary       =  N/A
# T_sample         =  0.002
# Data Folded      =  7340032
# Data Avg         =  0.0748424697428293
# Data StdDev      =  3.31922949719389 
# Profile Bins     =  512
# Profile Avg      =  1072.95396946492 
# Profile StdDev   =  397.421426130351 
# Reduced chi-sqr  =  1.043
# Prob(Noise)      <  0.245   (~0.7 sigma)
# P_topo (ms)      =  714.529217829996  +/- 0.000382
# P'_topo (s/s)    =  -0                +/- 2.02e-10
# P''_topo (s/s^2) =  0                 +/- 8.91e-14
# P_bary (ms)      =  N/A
# P'_bary (s/s)    =  N/A
# P''_bary (s/s^2) =  N/A
# P_orb (s)        =  N/A
# asin(i)/c (s)    =  N/A
# eccentricity     =  N/A
# w (rad)          =  N/A
# T_peri           =  N/A
######################################################
   0  1122.29
   1  1203.332
   2  1075.03
   3  1033.186
   4  819.1633
   5  721.8632
   6  620.3586
   7  630.9932
   8  818.7067
   9  923.0611
  10  1425.396
  11  945.6363
  12  633.8815
  13  785.361
  14  903.0107
  15  1023.523
  16  729.4294
  17  548.6863
  18  744.9418
  19  727.0451
  20  871.5462
  21  974.5652
  22  1354.114
  23  893.4113
  24  693.0549
  25  781.3561
  26  790.178
  27  967.561
  28  1080.385
  29  1018.957
  30  894.2467
  31  827.1358
  32  1137.299
  33  1433.56
  34  1411.735
  35  1434.654
  36  1368.461
  37  903.5054
  38  640.2948
  39  939.985
  40  1328.907
  41  1340.198
  42  1139.742
  43  654.5925
  44  795.3139
  45  932.2955
  46  1146.166
  47  1042.574
  48  963.0084
  49  1391.404
  50  1170.713
  51  679.5619
  52  870.7649
  53  984.8619
  54  1268.735
  55  1360.093
  56  864.0997
  57  844.364
  58  1021.197
  59  941.301
  60  1098.015
  61  1070.482
  62  1220.064
  63  1226.182
  64  1177.845
  65  1334.44
  66  1147.842
  67  803.7063
  68  1221.592
  69  1093.608
  70  888.1075
  71  1052.095
  72  767.3854
  73  1213.494
  74  1471.882
  75  1061.36
  76  1353.563
  77  1290.362
  78  1086.919
  79  986.1099
  80  1398.856
  81  1402.523
  82  1179.921
  83  1125.017
  84  942.0359
  85  1222.729
  86  1360.682
  87  1366.102
  88  1367.88
  89  1283.745
  90  1081.829
  91  1267.99
  92  1526.046
  93  1409.433
  94  1422.275
  95  1253.632
  96  911.2205
  97  1076.027
  98  1433.819
  99  1535.162
 100  1437.371
 101  1664.989
 102  1258.506
 103  1143.899
 104  1206.077
 105  1147.37
 106  1587.34
 107  1074.891
 108  1077.989
 109  972.4919
 110  991.937
 111  1157.997
 112  786.0338
 113  1001.032
 114  1070.15
 115  1386.476
 116  1323.96
 117  1270.684
 118  1263.719
 119  1168.833
 120  1168.417
 121  1412.707
 122  1263.643
 123  1124.823
 124  1073.178
 125  1458.918
 126  1916.362
 127  1670
 128  1047.685
 129  1123.251
 130  996.8317
 131  885.0958
 132  965.1458
 133  1117.92
 134  885.9782
 135  1211.653
 136  980.5933
 137  766.7779
 138  922.7241
 139  931.5817
 140  1290.196
 141  865.9645
 142  1090.773
 143  999.3147
 144  895.6816
 145  884.7626
 146  1186.223
 147  1011.306
 148  871.7626
 149  998.7436
 150  897.108
 151  1055.533
 152  877.5782
 153  868.9991
 154  773.2727
 155  1038.102
 156  1020.84
 157  831.2024
 158  749.5586
 159  555.7476
 160  796.2602
 161  968.9619
 162  1119.361
 163  1010.535
 164  727.579
 165  906.8102
 166  1061.921
 167  1193.477
 168  1553.617
 169  860.0118
 170  681.7131
 171  981.7685
 172  1139.346
 173  1213.15
 174  1102.049
 175  1440.982
 176  1325.985
 177  1415.275
 178  1198.43
 179  1410.961
 180  1488.139
 181  1206.898
 182  1180.221
 183  1301.146
 184  1232.651
 185  1477.484
 186  1454.995
 187  1206.225
 188  931.7686
 189  894.688
 190  1016.734
 191  1013.907
 192  966.2889
 193  894.9952
 194  971.8036
 195  913.3936
 196  1074.204
 197  1225.191
 198  1208.74
 199  1102.074
 200  1084.802
 201  1187.889
 202  1440.425
 203  1213.241
 204  1356.883
 205  1543.219
 206  1384.558
 207  1775.093
 208  1610.606
 209  1238.554
 210  808.6961
 211  832.1163
 212  1411.007
 213  979.2182
 214  1249.107
 215  1212.572
 216  1063.388
 217  1016.269
 218  946.9924
 219  1119.439
 220  875.3306
 221  882.4318
 222  747.7045
 223  646.8227
 224  1101.559
 225  1017.807
 226  1131.618
 227  764.567
 228  898.2817
 229  879.3117
 230  1011.561
 231  832.0507
 232  996.4855
 233  1230.989
 234  1491.996
 235  1166.491
 236  1306.023
 237  967.7839
 238  442.407
 239  1008.616
 240  1181.41
 241  1436.919
 242  1160.22
 243  1249.746
 244  1281.065
 245  912.0101
 246  806.9014
 247  1046.909
 248  833.1079
 249  1074.042
 250  1090.229
 251  1177.774
 252  1306.543
 253  1484.1
 254  1487.405
 255  1499.652
 256  1347.113
 257  1265.788
 258  1128.162
 259  1040.673
 260  900.0628
 261  1085.539
 262  1405.743
 263  1001.331
 264  1181.562
 265  1595.118
 266  1441.729
 267  1226.589
 268  1158.332
 269  1104.443
 270  1083.947
 271  1085.144
 272  744.8829
 273  925.2523
 274  861.165
 275  881.4269
 276  683.2603
 277  584.8822
 278  613.4047
 279  809.9097
 280  995.8229
 281  1130.719
 282  1075.262
 283  564.1941
 284  1019.712
 285  1522.159
 286  1421.701
 287  1255.305
 288  1321.229
 289  1143.542
 290  1132.826
 291  1348.23
 292  1039.022
 293  1019.999
 294  894.8307
 295  670.5051
 296  848.8578
 297  785.3421
 298  1033.619
 299  793.3724
 300  1067.098
 301  1031.086
 302  871.9825
 303  1171.077
 304  1296.438
 305  2087.472
 306  1543.912
 307  1038.739
 308  735.7392
 309  1220.951
 310  1155.398
 311  995.6924
 312  978.3067
 313  678.4602
 314  566.5362
 315  538.5414
 316  946.9064
 317  742.3287
 318  937.6922
 319  1048.092
 320  1227.655
 321  778.8478
 322  914.1749
 323  1051.369
 324  854.1168
 325  743.4998
 326  1125.929
 327  992.1961
 328  526.6721
 329  593.5841
 330  693.4843
 331  841.9725
 332  603.0878
 333  778.543
 334  1015.445
 335  862.7008
 336  830.8901
 337  970.324
 338  1182.018
 339  936.0178
 340  854.6006
 341  786.3481
 342  894.3373
 343  710.5805
 344  732.4706
 345  958.8678
 346  826.4521
 347  1249.435
 348  1490.936
 349  1078.105
 350  566.0054
 351  691.4684
 352  927.1065
 353  923.7831
 354  865.5024
 355  609.3463
 356  1002.706
 357  965.5361
 358  1063.698
 359  976.525
 360  892.4799
 361  1165.047
 362  1212.561
 363  988.5195
 364  788.8501
 365  1070.436
 366  1625.219
 367  1094.842
 368  1133.818
 369  1020.788
 370  1117.613
 371  824.1516
 372  879.3003
 373  1343.463
 374  1325.643
 375  1389.258
 376  1100.133
 377  1076.833
 378  984.7033
 379  967.5033
 380  1097.997
 381  1192.939
 382  1169.922
 383  1179.984
 384  742.043
 385  935.0945
 386  758.4833
 387  959.7458
 388  1459.673
 389  1131.085
 390  1187.508
 391  1447.668
 392  1267.444
 393  1108.377
 394  1319.688
 395  1279.606
 396  944.4515
 397  916.4641
 398  1066.051
 399  1126.879
 400  1086.612
 401  1275.385
 402  1147.977
 403  953.5034
 404  791.0379
 405  950.3483
 406  913.2643
 407  609.7729
 408  402.9564
 409  433.2155
 410  661.3873
 411  745.6691
 412  397.9226
 413  526.2168
 414  500.1378
 415  934.8096
 416  1219.052
 417  1061.939
 418  1105.865
 419  925.7047
 420  885.0214
 421  917.5801
 422  1004.933
 423  1065.956
 424  823.3075
 425  662.4556
 426  1059.89
 427  951.2852
 428  1091.82
 429  1338.976
 430  1212.79
 431  1313.224
 432  1122.449
 433  743.5823
 434  1279.972
 435  1058.245
 436  856.2931
 437  726.3389
 438  1131.439
 439  1174.247
 440  1092.701
 441  1559.112
 442  1086.173
 443  1155.228
 444  1528.515
 445  1876.426
 446  2268.178
 447  2642.064
 448  2997.83
 449  2596.561
 450  2491.521
 451  1821.184
 452  1298.213
 453  1150.925
 454  1315.56
 455  1225.726
 456  806.3644
 457  1012.871
 458  1138.45
 459  993.955
 460  1226.893
 461  1408.651
 462  1121.314
 463  946.7058
 464  1059.552
 465  824.8665
 466  1058.307
 467  1089.652
 468  1018.383
 469  665.3766
 470  911.1284
 471  1068.19
 472  966.599
 473  1075.313
 474  1141.37
 475  947.7932
 476  948.978
 477  686.5247
 478  672.5728
 479  1077.783
 480  657.3496
 481  1002.886
 482  1175.77
 483  1207.364
 484  1043.775
 485  826.1286
 486  924.3932
 487  982.0739
 488  1133.648
 489  1259.897
 490  1070.111
 491  975.7483
 492  748.1592
 493  765.7587
 494  1063.107
 495  1202.007
 496  1404.154
 497  1292.077
 498  1286.353
 499  1086.184
 500  1116.282
 501  1242.527
 502  1420.951
 503  964.9383
 504  909.0397
 505  1132.385
 506  1162.432
 507  643.3444
 508  916.8882
 509  1028.59
 510  907.6151
 511  779.4882
