# Input file       =  1179733660.1152_cleaned.dat
# Candidate        =  PSR_0332+5434
# Telescope        =  AR
# Epoch_topo       =  57898.324989759261
# Epoch_bary       =  N/A
# T_sample         =  0.002
# Data Folded      =  7340032
# Data Avg         =  0.082480678836873
# Data StdDev      =  2.91718607517017 
# Profile Bins     =  512
# Profile Avg      =  1182.44551088727 
# Profile StdDev   =  349.283546456146 
# Reduced chi-sqr  =  1.100
# Prob(Noise)      <  0.0583   (~1.6 sigma)
# P_topo (ms)      =  714.523158816918  +/- 0.000258
# P'_topo (s/s)    =  -0                +/- 1.36e-10
# P''_topo (s/s^2) =  0                 +/- 6e-14
# P_bary (ms)      =  N/A
# P'_bary (s/s)    =  N/A
# P''_bary (s/s^2) =  N/A
# P_orb (s)        =  N/A
# asin(i)/c (s)    =  N/A
# eccentricity     =  N/A
# w (rad)          =  N/A
# T_peri           =  N/A
######################################################
   0  1362.935
   1  1161.354
   2  1591.967
   3  1668.137
   4  1678.521
   5  1458.726
   6  1498.861
   7  1457.799
   8  1616.701
   9  1481.987
  10  1578.283
  11  1995.679
  12  1855.553
  13  1755.898
  14  1444.495
  15  1429.793
  16  1445.999
  17  1427.212
  18  1543.594
  19  1585.717
  20  1928.744
  21  1646.732
  22  1745.796
  23  1649.974
  24  1529.133
  25  1554.241
  26  1469.349
  27  1158.819
  28  1064.323
  29  936.3405
  30  1230.622
  31  1333.231
  32  1276.491
  33  1159.692
  34  1122.341
  35  1099.429
  36  1024.653
  37  1272.328
  38  1461.572
  39  1449.879
  40  971.8504
  41  809.7491
  42  1034.702
  43  1206.088
  44  1160.312
  45  1283.625
  46  1181.597
  47  816.0859
  48  1238.935
  49  1105.888
  50  1267.396
  51  965.1548
  52  1158.303
  53  1400.746
  54  918.6116
  55  1282.643
  56  1039.424
  57  1227.587
  58  1055.313
  59  913.246
  60  1002.506
  61  1278.111
  62  1039.376
  63  855.4138
  64  1001.854
  65  1549.685
  66  1099.703
  67  1154.361
  68  901.971
  69  1097.303
  70  1144.069
  71  1056.837
  72  964.8984
  73  1180.718
  74  1203.916
  75  1254.531
  76  1273.392
  77  1548.419
  78  1488.991
  79  1411.52
  80  1143.561
  81  1303.851
  82  1548.028
  83  1500.613
  84  1314.463
  85  1087.323
  86  881.6872
  87  1280.137
  88  1606.17
  89  1440.945
  90  977.4567
  91  692.3465
  92  1290.6
  93  1400.527
  94  1249.924
  95  1204.923
  96  1293.255
  97  1160.251
  98  1288.572
  99  1125.492
 100  1394.488
 101  1269.751
 102  1391.664
 103  1531.533
 104  1217.303
 105  1100.041
 106  1058.485
 107  894.3366
 108  1033.626
 109  913.4007
 110  1021.429
 111  1474.41
 112  1299.486
 113  1070.441
 114  1025.633
 115  897.2388
 116  882.704
 117  879.6884
 118  708.6456
 119  750.596
 120  593.9282
 121  634.3603
 122  689.4944
 123  902.3164
 124  618.9984
 125  569.7635
 126  739.4789
 127  620.8512
 128  662.0847
 129  1126.255
 130  942.858
 131  877.2488
 132  1022.766
 133  977.0173
 134  981.2759
 135  885.7975
 136  1014.102
 137  897.2968
 138  519.4083
 139  854.6237
 140  1273.647
 141  942.6725
 142  1078.939
 143  1042.493
 144  1211.848
 145  1295.352
 146  1185.382
 147  1348.31
 148  1105.084
 149  1289.334
 150  1439.223
 151  1265.3
 152  832.2859
 153  1085.826
 154  1193.667
 155  1106.142
 156  1071.56
 157  1398.865
 158  1414.062
 159  1227.755
 160  1070.065
 161  972.1548
 162  908.2526
 163  1462.707
 164  1364.677
 165  893.0831
 166  1239.812
 167  1444.109
 168  1261.017
 169  1103.964
 170  1402.275
 171  1314.516
 172  1235.513
 173  1197.172
 174  1333.005
 175  1268.657
 176  1232.776
 177  1526.978
 178  1527.935
 179  1135.6
 180  1276.927
 181  1313.479
 182  1577.303
 183  1526.101
 184  1094.699
 185  788.0034
 186  920.199
 187  903.2096
 188  941.171
 189  999.0599
 190  1122.787
 191  1187.292
 192  979.431
 193  945.5906
 194  858.4099
 195  732.4476
 196  512.1447
 197  799.9775
 198  1076.42
 199  1026.855
 200  640.8034
 201  728.9533
 202  908.8463
 203  822.1707
 204  963.6147
 205  820.2366
 206  594.9093
 207  701.4551
 208  1075.381
 209  922.0797
 210  499.3306
 211  681.0861
 212  569.7329
 213  714.6829
 214  895.0048
 215  952.6244
 216  999.5116
 217  977.2915
 218  1084.205
 219  1459.001
 220  1267.237
 221  1030.113
 222  1102.933
 223  1052.426
 224  1152.68
 225  1092.328
 226  1251.498
 227  1305.001
 228  1563.177
 229  1035.663
 230  911.4243
 231  1095.888
 232  966.8126
 233  1176.655
 234  1201.221
 235  1325.338
 236  1210.453
 237  921.5532
 238  1106.838
 239  1095.073
 240  1108.505
 241  1181.705
 242  1066.028
 243  685.0579
 244  930.2611
 245  1080.078
 246  1094.99
 247  1176.928
 248  1596.417
 249  1532.108
 250  885.7903
 251  883.0727
 252  1205.268
 253  1061.512
 254  1229.988
 255  1189.408
 256  1176.606
 257  1584.837
 258  1661.924
 259  1463.155
 260  1346.96
 261  1280.102
 262  1239.49
 263  1129.76
 264  1434.58
 265  1373.906
 266  1117.443
 267  1498.647
 268  1510.276
 269  777.9274
 270  872.9618
 271  758.0293
 272  1202.981
 273  998.6945
 274  1276.26
 275  1203.854
 276  1106.673
 277  1110.23
 278  1133.366
 279  961.6705
 280  1049.863
 281  1481.636
 282  1162.763
 283  1060.639
 284  1247.702
 285  1080.567
 286  986.3885
 287  1025.455
 288  1053.476
 289  855.2652
 290  928.4531
 291  1032.053
 292  1007.614
 293  963.7377
 294  1324.295
 295  1345.171
 296  1540.081
 297  1282.433
 298  1039.864
 299  1286.488
 300  1343.951
 301  1218.803
 302  1120.83
 303  1086.249
 304  1497.313
 305  1410.396
 306  1385.771
 307  1318.823
 308  1174.771
 309  1291.593
 310  1253.261
 311  1410.531
 312  1659.935
 313  1291.315
 314  1320.429
 315  1325.886
 316  1224.314
 317  1290.173
 318  1249.046
 319  912.9138
 320  1041.364
 321  1242.653
 322  1131.803
 323  1576.632
 324  1423.838
 325  1537.927
 326  1679.753
 327  1888.499
 328  2007.172
 329  2167.451
 330  2169.891
 331  1706.151
 332  1430.89
 333  1434.212
 334  1520.881
 335  1394.939
 336  1281.619
 337  1432.396
 338  1234.688
 339  1149.656
 340  1367.11
 341  1407.771
 342  1337.101
 343  1376.665
 344  1503.384
 345  1376.36
 346  1343.639
 347  1508.857
 348  1198.368
 349  1551.708
 350  1677.524
 351  1225.468
 352  1090.056
 353  1454.246
 354  1077.48
 355  903.2629
 356  1296.974
 357  1481.238
 358  1210.083
 359  838.7747
 360  1111.963
 361  1213.902
 362  1243.674
 363  1315.953
 364  1387.398
 365  1040.268
 366  1071.247
 367  994.458
 368  1281.052
 369  998.9181
 370  1187.817
 371  1527.034
 372  1384.725
 373  1140.441
 374  1029.219
 375  1217.095
 376  1433.783
 377  1416.621
 378  1238.24
 379  1134.135
 380  1526.903
 381  1456.403
 382  967.9794
 383  838.0442
 384  1632.624
 385  1608.543
 386  1228.532
 387  999.5123
 388  1274.619
 389  1247.376
 390  1063.982
 391  1155.53
 392  1445.804
 393  1680.322
 394  1511.776
 395  1340.016
 396  1162.422
 397  1168.91
 398  1271.048
 399  1362.463
 400  904.9734
 401  719.8059
 402  948.7111
 403  1031.018
 404  1396.408
 405  1516.277
 406  1414.125
 407  1058.642
 408  1055.279
 409  930.6564
 410  1236.207
 411  1406.232
 412  1291.571
 413  1320.537
 414  1639.665
 415  1249.816
 416  1315.522
 417  1335.914
 418  1340.13
 419  1178.134
 420  941.0442
 421  1093.108
 422  1145.295
 423  1254.187
 424  1563.462
 425  1416.982
 426  1546.509
 427  1455.648
 428  1312.303
 429  1444.379
 430  1320.555
 431  1190.657
 432  1131.521
 433  1384.385
 434  1331.528
 435  1194.985
 436  1229.018
 437  1232.06
 438  1362.536
 439  1021.061
 440  1132.794
 441  965.1801
 442  962.2515
 443  1084.739
 444  1379.287
 445  1272.894
 446  1064.525
 447  1020.939
 448  1410.04
 449  1333.791
 450  986.0938
 451  942.7288
 452  1167.428
 453  785.6549
 454  567.6957
 455  1001.995
 456  1084.412
 457  899.3613
 458  893.6993
 459  624.6913
 460  958.1736
 461  1055.478
 462  790.8841
 463  995.8761
 464  1144.818
 465  790.1876
 466  674.1063
 467  909.1005
 468  893.8736
 469  828.3395
 470  675.6234
 471  720.5333
 472  526.1119
 473  797.653
 474  1190.918
 475  1178.171
 476  923.299
 477  1071.308
 478  988.4162
 479  973.7775
 480  985.4063
 481  1292.999
 482  1280.646
 483  1260.177
 484  1202.677
 485  738.74
 486  905.6217
 487  975.2966
 488  1209.558
 489  1459.587
 490  1141.344
 491  891.2203
 492  1284.552
 493  1461.385
 494  1315.016
 495  1482.801
 496  1358.485
 497  1442.386
 498  1253.985
 499  1450.613
 500  1177.084
 501  1291.415
 502  975.9153
 503  1153.476
 504  1244.272
 505  1196.896
 506  1021.392
 507  1144.415
 508  1226.679
 509  1174.772
 510  1369.285
 511  1267.932
