# Input file       =  1179460511.106845_cleaned.dat
# Candidate        =  PSR_0332+5434
# Telescope        =  AR
# Epoch_topo       =  57895.163542903298
# Epoch_bary       =  N/A
# T_sample         =  0.002
# Data Folded      =  7208960
# Data Avg         =  0.136459023553074
# Data StdDev      =  4.17651657350645 
# Profile Bins     =  1024
# Profile Avg      =  960.672935520714 
# Profile StdDev   =  350.429402945828 
# Reduced chi-sqr  =  0.703
# Prob(Noise)      <  1   (~0.0 sigma)
# P_topo (ms)      =  714.526271245189  +/- 4.05e-05
# P'_topo (s/s)    =  -0                +/- 2.18e-11
# P''_topo (s/s^2) =  0                 +/- 9.79e-15
# P_bary (ms)      =  N/A
# P'_bary (s/s)    =  N/A
# P''_bary (s/s^2) =  N/A
# P_orb (s)        =  N/A
# asin(i)/c (s)    =  N/A
# eccentricity     =  N/A
# w (rad)          =  N/A
# T_peri           =  N/A
######################################################
   0  728.5419
   1  674.4879
   2  820.7575
   3  963.7941
   4  956.2655
   5  836.8635
   6  789.6172
   7  912.7861
   8  989.1995
   9  1013.878
  10  939.6288
  11  1023.527
  12  1088.327
  13  1155.359
  14  1074.546
  15  949.5829
  16  861.2245
  17  922.0034
  18  977.0609
  19  1051.492
  20  1043.434
  21  959.5323
  22  865.3677
  23  856.9448
  24  952.7064
  25  996.3362
  26  1072.175
  27  1126.541
  28  1254.074
  29  1250.905
  30  1140.541
  31  1083.806
  32  954.7831
  33  842.8897
  34  770.5324
  35  960.7037
  36  1081.832
  37  1108.802
  38  1087.302
  39  1064.585
  40  1020.199
  41  859.4835
  42  890.4863
  43  1017.255
  44  1138.416
  45  1067.864
  46  933.1995
  47  924.5899
  48  950.2195
  49  933.756
  50  936.6155
  51  847.1865
  52  751.9009
  53  906.5349
  54  1143.259
  55  1133.519
  56  935.6679
  57  847.8016
  58  935.1376
  59  1060.386
  60  1185.652
  61  1202.56
  62  1136.157
  63  1016.022
  64  917.2891
  65  756.6977
  66  622.3502
  67  657.2358
  68  807.2667
  69  945.5279
  70  946.0229
  71  829.4311
  72  844.481
  73  925.9733
  74  993.5323
  75  1130.401
  76  1156.614
  77  1229.662
  78  1274.689
  79  1325.162
  80  1193.83
  81  984.4824
  82  883.2185
  83  820.6606
  84  800.8008
  85  854.3371
  86  917.4342
  87  1060.3
  88  1122.517
  89  1114.537
  90  1062.042
  91  974.9789
  92  968.5929
  93  952.3237
  94  888.7482
  95  935.9393
  96  944.1002
  97  982.8713
  98  847.7327
  99  840.2144
 100  763.7357
 101  874.5817
 102  947.596
 103  1087.068
 104  1063.326
 105  1030.121
 106  1072.185
 107  1083.062
 108  1077.082
 109  1112.155
 110  1241.084
 111  1150.885
 112  1023.726
 113  844.1348
 114  856.0487
 115  810.3245
 116  779.9453
 117  864.3594
 118  793.8156
 119  787.5693
 120  700.6571
 121  785.1002
 122  866.9742
 123  915.42
 124  926.9138
 125  1024.576
 126  1178.062
 127  1329.614
 128  1288.705
 129  1101.802
 130  899.9089
 131  861.2576
 132  815.0234
 133  838.0059
 134  773.8272
 135  809.2114
 136  880.375
 137  945.6125
 138  947.9909
 139  934.4894
 140  1113.532
 141  1301.865
 142  1397.176
 143  1299.923
 144  1286.979
 145  1325.945
 146  1219.517
 147  967.8564
 148  791.1304
 149  901.7585
 150  969.7685
 151  943.5807
 152  849.7408
 153  836.2161
 154  841.7922
 155  918.0533
 156  958.5366
 157  970.7491
 158  914.9789
 159  1025.856
 160  1176.178
 161  1182.882
 162  1088.801
 163  955.4586
 164  983.7308
 165  991.8665
 166  1006.568
 167  982.178
 168  1039.624
 169  1038.654
 170  908.6697
 171  902.6506
 172  904.1077
 173  1092.642
 174  1076.838
 175  1236.811
 176  1230.178
 177  1241.83
 178  1073.641
 179  999.7295
 180  990.6574
 181  991.0508
 182  947.1521
 183  836.9578
 184  763.7403
 185  791.5587
 186  825.4063
 187  878.0241
 188  837.6878
 189  826.2637
 190  782.644
 191  915.8676
 192  1038.889
 193  1203.356
 194  1284.807
 195  1134.286
 196  972.7991
 197  815.1736
 198  801.7274
 199  743.9123
 200  826.7325
 201  961.3846
 202  1060.33
 203  964.745
 204  825.1332
 205  830.6299
 206  901.553
 207  880.4774
 208  1032.088
 209  1059.545
 210  1241.609
 211  1115.663
 212  1044.543
 213  895.3881
 214  743.0481
 215  739.7238
 216  714.89
 217  748.7658
 218  928.1893
 219  981.9902
 220  959.2217
 221  799.9617
 222  782.689
 223  745.6169
 224  814.292
 225  842.421
 226  940.5058
 227  934.1865
 228  895.6379
 229  849.1281
 230  879.1292
 231  805.5588
 232  701.7568
 233  720.6804
 234  850.7571
 235  890.8419
 236  955.3822
 237  952.7982
 238  976.9248
 239  977.1251
 240  936.5572
 241  977.0763
 242  937.4636
 243  1052.658
 244  993.7694
 245  969.0771
 246  805.4434
 247  795.5119
 248  857.9542
 249  847.1716
 250  838.1902
 251  802.0342
 252  761.5935
 253  783.955
 254  848.0671
 255  1016.131
 256  861.3435
 257  776.2693
 258  818.8859
 259  1068.367
 260  1127.248
 261  1143.379
 262  1002.633
 263  837.704
 264  566.2924
 265  476.4708
 266  615.225
 267  766.0121
 268  810.51
 269  816.0745
 270  914.544
 271  1053.421
 272  1126.93
 273  1110.088
 274  1089.724
 275  1115.363
 276  1221.021
 277  1253.587
 278  1158.013
 279  968.9519
 280  848.4289
 281  821.8972
 282  804.8281
 283  848.1731
 284  812.4907
 285  875.7311
 286  862.6867
 287  851.0473
 288  885.9739
 289  928.6968
 290  962.8415
 291  956.3452
 292  934.3894
 293  969.5663
 294  893.3759
 295  933.5583
 296  707.9468
 297  741.4906
 298  745.2437
 299  912.7669
 300  923.2919
 301  1043.222
 302  1056.379
 303  1006.67
 304  889.0444
 305  948.4763
 306  1001.682
 307  1058.111
 308  1098.899
 309  1191.286
 310  1266.204
 311  1206.33
 312  1200.632
 313  1146.596
 314  993.3269
 315  878.8917
 316  902.1555
 317  948.2025
 318  911.4785
 319  928.1414
 320  1013.646
 321  1091.945
 322  1071.373
 323  937.3212
 324  958.678
 325  957.1497
 326  983.3711
 327  1001.609
 328  917.6463
 329  667.8035
 330  599.2119
 331  645.7628
 332  728.209
 333  713.2614
 334  861.6386
 335  1074.396
 336  1046.823
 337  1025.587
 338  963.0347
 339  981.9976
 340  987.2855
 341  1009.906
 342  1195.59
 343  1100.636
 344  893.2325
 345  804.0172
 346  849.3284
 347  922.4672
 348  802.0934
 349  799.704
 350  715.4231
 351  649.0618
 352  638.7265
 353  650.1609
 354  628.6588
 355  759.9731
 356  1048.337
 357  1148.281
 358  1077.948
 359  1055.178
 360  1286.469
 361  1173.406
 362  935.5078
 363  750.3016
 364  713.7213
 365  737.4772
 366  675.2894
 367  746.3524
 368  759.0063
 369  761.7206
 370  750.111
 371  810.2399
 372  817.1141
 373  883.845
 374  1016.213
 375  1054.664
 376  1111.931
 377  996.7083
 378  936.9827
 379  718.8921
 380  713.3894
 381  712.6495
 382  740.2404
 383  687.7546
 384  817.3702
 385  950.1716
 386  904.2325
 387  716.6291
 388  639.3342
 389  798.6501
 390  934.89
 391  992.6266
 392  938.7801
 393  959.289
 394  938.8176
 395  953.2299
 396  853.1873
 397  594.9473
 398  525.1001
 399  729.1867
 400  1001.342
 401  1101.891
 402  1001.265
 403  964.2133
 404  804.745
 405  713.5164
 406  816.5007
 407  1004.925
 408  1164.447
 409  1050.482
 410  1064.682
 411  1016.035
 412  1033.589
 413  982.9561
 414  1044.975
 415  992.426
 416  1027.604
 417  1014.897
 418  1030.564
 419  936.9124
 420  1029.434
 421  1168.325
 422  1147.94
 423  1107.304
 424  1103.285
 425  1178.441
 426  1223.603
 427  1105.064
 428  991.127
 429  867.009
 430  834.2831
 431  861.5607
 432  993.8818
 433  1166.764
 434  1250.976
 435  1247.059
 436  1164.09
 437  962.4554
 438  883.9442
 439  1083.35
 440  1250.567
 441  1312.144
 442  1085.682
 443  1108.664
 444  1122.274
 445  1078.421
 446  1010.542
 447  825.7567
 448  795.7177
 449  864.6035
 450  1042.433
 451  1152.128
 452  1101.921
 453  1145.853
 454  1100.27
 455  1066.404
 456  992.4282
 457  1067.006
 458  1131.154
 459  1188.352
 460  1081.404
 461  1001.654
 462  819.1208
 463  782.9125
 464  895.4387
 465  973.7838
 466  961.7119
 467  912.1343
 468  1074.627
 469  1064.586
 470  947.8018
 471  938.092
 472  958.3229
 473  1113.786
 474  1030.603
 475  1058.094
 476  983.877
 477  844.3271
 478  842.4086
 479  816.7445
 480  890.1579
 481  682.4673
 482  741.9301
 483  808.8774
 484  988.0599
 485  926.4907
 486  1007.564
 487  930.2799
 488  1011.883
 489  956.0444
 490  1057.509
 491  1039.8
 492  1049.428
 493  975.2421
 494  943.506
 495  825.2832
 496  816.6247
 497  847.075
 498  1105.435
 499  1085.695
 500  1122.353
 501  1064.474
 502  1078.511
 503  969.7455
 504  1144.698
 505  1300.286
 506  1411.883
 507  1324.419
 508  1424.972
 509  1404.688
 510  1258.828
 511  1061.915
 512  1023.744
 513  1023.169
 514  1024.584
 515  1005.032
 516  979.4764
 517  905.3414
 518  992.7008
 519  1139.012
 520  1248.989
 521  1178.216
 522  1167.838
 523  1263.446
 524  1291.591
 525  1284.426
 526  1185.578
 527  1137.571
 528  992.2594
 529  1021.734
 530  929.1119
 531  932.1977
 532  1035.801
 533  1177.385
 534  1094.824
 535  983.8822
 536  1066.762
 537  1229.372
 538  1181.984
 539  1185.723
 540  1260.176
 541  1259.6
 542  1034.344
 543  895.3601
 544  854.2416
 545  752.4945
 546  734.1505
 547  811.1674
 548  952.7543
 549  995.2065
 550  1027.508
 551  1146.507
 552  1045.609
 553  917.432
 554  926.8538
 555  953.9402
 556  950.712
 557  822.555
 558  874.8934
 559  892.6453
 560  872.9747
 561  794.6596
 562  721.8887
 563  763.0404
 564  873.2128
 565  983.1478
 566  989.2426
 567  917.6809
 568  771.98
 569  839.8245
 570  728.1564
 571  657.5611
 572  758.3953
 573  963.7332
 574  1237.814
 575  1165.524
 576  1182.136
 577  1043.057
 578  1053.218
 579  1038.481
 580  1003.158
 581  966.3596
 582  912.7166
 583  967.2626
 584  912.2198
 585  740.2496
 586  574.7847
 587  556.4312
 588  667.0169
 589  810.1144
 590  860.0782
 591  899.6793
 592  848.6654
 593  782.7234
 594  828.7637
 595  781.7603
 596  732.1116
 597  816.4224
 598  954.1545
 599  1083.767
 600  831.2391
 601  780.158
 602  841.1248
 603  920.04
 604  878.2975
 605  798.9242
 606  871.0386
 607  1013.982
 608  1116.552
 609  1079.666
 610  1002.694
 611  1046.218
 612  1129.595
 613  1052.242
 614  927.2285
 615  843.5969
 616  845.1337
 617  895.5677
 618  802.2872
 619  829.4563
 620  819.0314
 621  1098.828
 622  1174.233
 623  1183.36
 624  1139.054
 625  1037.16
 626  866.068
 627  715.241
 628  571.804
 629  590.9199
 630  697.4313
 631  888.5258
 632  914.7827
 633  869.6389
 634  823.9177
 635  784.9941
 636  906.9189
 637  1131.577
 638  1295.019
 639  1224.285
 640  1033.11
 641  1050.258
 642  1112.97
 643  1080.687
 644  907.1582
 645  827.1691
 646  936.2983
 647  907.4054
 648  871.2982
 649  867.0328
 650  887.1229
 651  843.0493
 652  832.6036
 653  863.1911
 654  842.722
 655  711.9486
 656  797.3582
 657  996.341
 658  1015.934
 659  864.946
 660  718.689
 661  751.1014
 662  782.1945
 663  850.3652
 664  927.9578
 665  846.2878
 666  827.6628
 667  858.8068
 668  734.5827
 669  585.2016
 670  721.4217
 671  1014.598
 672  1105.541
 673  1063.676
 674  1106.267
 675  1063.302
 676  968.4088
 677  953.7967
 678  922.2401
 679  869.0802
 680  821.2875
 681  997.5292
 682  978.2523
 683  761.6973
 684  657.7328
 685  753.6332
 686  824.6819
 687  881.8655
 688  969.7457
 689  962.1147
 690  818.9246
 691  732.5175
 692  741.3936
 693  680.5852
 694  755.3384
 695  842.6082
 696  894.2805
 697  822.0845
 698  782.3666
 699  927.8142
 700  940.0038
 701  1038.393
 702  1132.324
 703  1227.371
 704  1105.34
 705  930.2007
 706  951.0561
 707  996.9824
 708  967.3629
 709  816.6844
 710  847.2707
 711  992.6739
 712  1054.137
 713  1087.285
 714  1014.802
 715  1037.87
 716  962.5416
 717  941.796
 718  764.1628
 719  700.9021
 720  817.9433
 721  1059.277
 722  1204.033
 723  1082.275
 724  941.8992
 725  779.6752
 726  651.9663
 727  686.5023
 728  800.9839
 729  873.8133
 730  866.3468
 731  974.8277
 732  975.9604
 733  798.0356
 734  668.6188
 735  769.2873
 736  822.6863
 737  861.5221
 738  942.9019
 739  1037.4
 740  996.0506
 741  940.2057
 742  1045.571
 743  950.9831
 744  921.6404
 745  1003.754
 746  1142.073
 747  1093.106
 748  1040.773
 749  1072.231
 750  1187.441
 751  1165.803
 752  1285.794
 753  1324.017
 754  1466.444
 755  1659.098
 756  1753.351
 757  1722.823
 758  1549.596
 759  1513.667
 760  1514.574
 761  1395.861
 762  1302.987
 763  1291.99
 764  1413.88
 765  1296.935
 766  1096.562
 767  850.6483
 768  827.1099
 769  935.8084
 770  1116.865
 771  1162.361
 772  1007.965
 773  908.3098
 774  827.2105
 775  944.7712
 776  1018.797
 777  1075.751
 778  923.311
 779  855.1727
 780  897.0341
 781  964.3558
 782  1016.992
 783  1020.089
 784  1001.644
 785  962.5284
 786  944.7177
 787  1043.11
 788  1128.724
 789  1115.996
 790  969.1098
 791  902.9882
 792  868.7418
 793  945.5347
 794  906.6478
 795  861.048
 796  894.2828
 797  940.6821
 798  1089.859
 799  1020.074
 800  1039.046
 801  929.0696
 802  925.2643
 803  1071.552
 804  1136.757
 805  1172.645
 806  1021.187
 807  952.5907
 808  848.7861
 809  864.1861
 810  945.6391
 811  976.0005
 812  951.0813
 813  921.9163
 814  918.8735
 815  872.6213
 816  722.2043
 817  625.6771
 818  767.3129
 819  1026.887
 820  1169.047
 821  1187.918
 822  1114.203
 823  850.895
 824  749.101
 825  751.2427
 826  858.5143
 827  941.0699
 828  1021.686
 829  1106.971
 830  1016.951
 831  977.0104
 832  1010.29
 833  1067.157
 834  1056.898
 835  1055.642
 836  1153.427
 837  1239.719
 838  1172.166
 839  1155.329
 840  1129.031
 841  1006.99
 842  915.8665
 843  922.2272
 844  893.175
 845  848.6172
 846  816.7552
 847  828.3981
 848  749.545
 849  756.5633
 850  881.8781
 851  969.3719
 852  962.1826
 853  889.4031
 854  999.413
 855  1056.432
 856  1035.054
 857  1000.573
 858  970.3524
 859  956.4763
 860  798.8926
 861  837.8369
 862  972.5555
 863  972.8242
 864  859.0167
 865  686.4235
 866  601.998
 867  570.7053
 868  829.7153
 869  960.4046
 870  1084.499
 871  988.6813
 872  1056.36
 873  1084.32
 874  1074.409
 875  1049.612
 876  1044.806
 877  973.299
 878  912.6773
 879  919.431
 880  754.6345
 881  737.6678
 882  672.1198
 883  830.3641
 884  848.4905
 885  920.1799
 886  1002.185
 887  1074.682
 888  1078.271
 889  1056.154
 890  948.6135
 891  855.671
 892  830.4048
 893  882.6475
 894  999.9807
 895  910.0418
 896  962.9624
 897  1014.611
 898  1031.146
 899  859.2313
 900  904.724
 901  952.4708
 902  1191.133
 903  1092.077
 904  1208.933
 905  1089.942
 906  1111.655
 907  1041.745
 908  1018.248
 909  944.8522
 910  905.7145
 911  1031.52
 912  1145.317
 913  1156.445
 914  1162.505
 915  1134.987
 916  1062.948
 917  1057.171
 918  1135.931
 919  1160.637
 920  1140.569
 921  1077.394
 922  1069.375
 923  940.5198
 924  945.6254
 925  894.2182
 926  955.1166
 927  817.5943
 928  752.3412
 929  970.696
 930  1083.063
 931  1056.458
 932  768.1003
 933  903.1639
 934  925.6116
 935  1064.608
 936  1021.603
 937  1045.087
 938  1084.996
 939  1046.744
 940  927.4988
 941  824.03
 942  893.4222
 943  1028.019
 944  1041.888
 945  1005.17
 946  997.3307
 947  992.1727
 948  1020.101
 949  964.0508
 950  823.8503
 951  834.17
 952  959.5309
 953  1157.914
 954  1135.054
 955  935.87
 956  788.9821
 957  775.1455
 958  948.7816
 959  846.0603
 960  822.2723
 961  836.0316
 962  990.3991
 963  1025.402
 964  917.7214
 965  885.2025
 966  994.4103
 967  1211.567
 968  1284.304
 969  1273.478
 970  1232.543
 971  1121.962
 972  1097.811
 973  997.9205
 974  905.3555
 975  889.3174
 976  852.5089
 977  868.0203
 978  862.508
 979  878.319
 980  982.2108
 981  940.8527
 982  909.584
 983  813.8272
 984  967.6727
 985  1164.056
 986  1209.539
 987  1123.815
 988  1090.991
 989  957.9073
 990  768.7389
 991  653.7679
 992  662.2339
 993  702.5485
 994  807.3949
 995  753.0754
 996  795.4001
 997  795.7891
 998  966.877
 999  991.2919
1000  974.6353
1001  1029.05
1002  1056.355
1003  1100.927
1004  1092.59
1005  971.3367
1006  882.6465
1007  721.5168
1008  802.1396
1009  817.7903
1010  830.0477
1011  825.403
1012  870.0469
1013  942.1675
1014  832.1543
1015  647.7098
1016  731.4539
1017  1052.223
1018  1237.735
1019  1180.677
1020  1009.03
1021  933.1569
1022  917.7675
1023  841.17
