# Input file       =  1179475185.131431_cleaned.dat
# Candidate        =  PSR_0332+5434
# Telescope        =  AR
# Epoch_topo       =  57895.333381150820
# Epoch_bary       =  N/A
# T_sample         =  0.002
# Data Folded      =  7340032
# Data Avg         =  0.0691128957977134
# Data StdDev      =  2.80145563677931 
# Profile Bins     =  512
# Profile Avg      =  990.862902723604 
# Profile StdDev   =  335.426789666393 
# Reduced chi-sqr  =  0.865
# Prob(Noise)      <  0.987   (~0.0 sigma)
# P_topo (ms)      =  714.52611442139   +/- 0.000255
# P'_topo (s/s)    =  -0                +/- 1.34e-10
# P''_topo (s/s^2) =  0                 +/- 5.93e-14
# P_bary (ms)      =  N/A
# P'_bary (s/s)    =  N/A
# P''_bary (s/s^2) =  N/A
# P_orb (s)        =  N/A
# asin(i)/c (s)    =  N/A
# eccentricity     =  N/A
# w (rad)          =  N/A
# T_peri           =  N/A
######################################################
   0  642.6733
   1  981.3765
   2  1079.548
   3  1048.069
   4  948.6775
   5  1247.544
   6  1259.973
   7  950.85
   8  1004.58
   9  991.3832
  10  986.6168
  11  1001.915
  12  1150.263
  13  1129.259
  14  1004.744
  15  1369.98
  16  1411.28
  17  902.5693
  18  965.7143
  19  878.9338
  20  873.4059
  21  940.3046
  22  1063.063
  23  1074.025
  24  1144.009
  25  873.8063
  26  889.563
  27  820.9992
  28  623.0156
  29  735.8891
  30  1073.811
  31  1330.401
  32  1133.102
  33  811.2194
  34  714.5569
  35  766.9395
  36  897.6175
  37  1096.636
  38  1269.607
  39  773.0575
  40  979.4883
  41  1103.439
  42  1143.78
  43  1057.642
  44  1176.785
  45  939.0293
  46  863.7426
  47  1262.304
  48  1092.581
  49  1080.184
  50  1064.187
  51  1135.142
  52  1308.139
  53  1262.98
  54  1303.122
  55  1108.307
  56  1177.432
  57  978.1174
  58  627.3959
  59  920.2
  60  1240.512
  61  1325.644
  62  1483.518
  63  1487.839
  64  1319.855
  65  1030.43
  66  953.3665
  67  959.8259
  68  778.905
  69  799.8283
  70  1079.694
  71  886.6284
  72  935.2191
  73  898.7679
  74  1140.047
  75  1121.007
  76  654.2567
  77  726.9932
  78  934.1556
  79  937.2911
  80  837.8394
  81  629.869
  82  810.3926
  83  705.9545
  84  462.5248
  85  554.3658
  86  485.9231
  87  670.152
  88  998.355
  89  779.5166
  90  728.1993
  91  836.3341
  92  1119.331
  93  898.5701
  94  791.5148
  95  998.9476
  96  1059.702
  97  853.9744
  98  702.527
  99  1111.551
 100  1183.459
 101  1056.613
 102  807.7842
 103  878.7267
 104  1158.036
 105  1266.734
 106  1106.656
 107  857.9645
 108  990.1572
 109  941.9342
 110  1195.912
 111  1116.839
 112  909.3843
 113  1043.584
 114  992.3007
 115  995.5228
 116  827.1517
 117  832.0829
 118  1121.118
 119  998.826
 120  867.4203
 121  1135.625
 122  894.6853
 123  883.4971
 124  1197.864
 125  1193.149
 126  820.082
 127  654.5072
 128  831.4514
 129  871.6587
 130  995.809
 131  602.5148
 132  616.0278
 133  842.5231
 134  1159.82
 135  940.2063
 136  798.7052
 137  1056.08
 138  920.8862
 139  903.5117
 140  1062.078
 141  761.554
 142  667.7078
 143  444.0799
 144  836.6521
 145  812.9186
 146  708.3333
 147  1276.262
 148  1323.569
 149  1164.811
 150  1087.582
 151  1139.824
 152  1172.465
 153  1195.421
 154  1142.988
 155  1164.11
 156  1047.535
 157  1013.053
 158  1048.923
 159  971.1397
 160  646.9908
 161  578.3747
 162  920.1135
 163  1064.677
 164  934.818
 165  635.4213
 166  603.3447
 167  570.395
 168  849.887
 169  905.1896
 170  1014.18
 171  1028.451
 172  1006.048
 173  889.751
 174  1071.877
 175  1164.639
 176  897.6901
 177  1000.419
 178  1075.304
 179  1092.716
 180  1301.318
 181  1305.156
 182  1014.894
 183  949.426
 184  1005.704
 185  1140.261
 186  1223.71
 187  891.4509
 188  674.1909
 189  629.5803
 190  818.7508
 191  1060.497
 192  895.702
 193  611.3599
 194  273.3354
 195  605.5835
 196  825.1412
 197  1053.464
 198  976.3313
 199  966.1349
 200  886.0448
 201  1037.244
 202  1226.44
 203  1091.02
 204  1140.076
 205  1003.178
 206  961.05
 207  851.4246
 208  857.9294
 209  900.1243
 210  626.9617
 211  624.5142
 212  888.5076
 213  802.9922
 214  888.1609
 215  1117.362
 216  910.186
 217  879.1918
 218  988.0588
 219  934.4074
 220  925.7445
 221  1028.701
 222  1044.016
 223  760.0996
 224  777.7951
 225  784.5217
 226  719.2802
 227  904.9779
 228  1173.822
 229  909.46
 230  947.2651
 231  1217.967
 232  1278.642
 233  1124.564
 234  1029.28
 235  994.2257
 236  1374.145
 237  1242.324
 238  882.5891
 239  794.7442
 240  696.1958
 241  821.2139
 242  970.1738
 243  829.594
 244  817.886
 245  755.083
 246  816.6565
 247  867.152
 248  1162.866
 249  1172.334
 250  940.9869
 251  992.0073
 252  1031.724
 253  577.8984
 254  578.6917
 255  457.1704
 256  601.024
 257  966.5574
 258  945.8817
 259  1075.12
 260  1197.209
 261  1108.277
 262  1014.828
 263  703.4655
 264  752.7077
 265  708.3874
 266  956.9337
 267  1152.403
 268  943.1921
 269  944.6934
 270  993.8677
 271  955.2693
 272  1004.547
 273  941.8837
 274  937.7052
 275  876.3655
 276  863.6874
 277  777.3521
 278  701.6858
 279  881.051
 280  1274.713
 281  1101.226
 282  800.9858
 283  545.4985
 284  964.6163
 285  1093.091
 286  1070.192
 287  764.9407
 288  706.5911
 289  1014.691
 290  1192.362
 291  884.772
 292  851.4424
 293  859.0918
 294  782.966
 295  783.7038
 296  852.4402
 297  805.2057
 298  1272.301
 299  1291.651
 300  1218.336
 301  983.8734
 302  1124.479
 303  1274.443
 304  1289.973
 305  1311.749
 306  1300.839
 307  1151.581
 308  1139.496
 309  1170.459
 310  909.4159
 311  896.3336
 312  855.2823
 313  1048.167
 314  1236.931
 315  1243.339
 316  1092.006
 317  1548.869
 318  1199.308
 319  922.3223
 320  1327.072
 321  1314.908
 322  1123.853
 323  778.7482
 324  772.1567
 325  1095.909
 326  1018.402
 327  1025.233
 328  1186.496
 329  1149.504
 330  1130.901
 331  1079.885
 332  1160.449
 333  862.7921
 334  779.0687
 335  1051.18
 336  1202.07
 337  796.6769
 338  1028.214
 339  891.845
 340  878.018
 341  761.4998
 342  975.2566
 343  1190.74
 344  1137.094
 345  925.3948
 346  784.4385
 347  966.4175
 348  931.4143
 349  983.0187
 350  916.5687
 351  1332.585
 352  1142.982
 353  757.6013
 354  624.7312
 355  804.2064
 356  1300.256
 357  1412.495
 358  1161.086
 359  838.1059
 360  760.0408
 361  915.8944
 362  1292.428
 363  1317.36
 364  866.1081
 365  596.3047
 366  738.0792
 367  909.5613
 368  725.237
 369  481.1014
 370  779.044
 371  1187.886
 372  1154.317
 373  965.87
 374  1055.228
 375  884.4523
 376  1047.812
 377  1007.045
 378  994.5544
 379  821.4998
 380  921.8062
 381  1034.372
 382  1323.625
 383  1787.26
 384  1786.427
 385  2031.732
 386  2140.291
 387  1965.004
 388  1599.772
 389  1104.888
 390  1189.477
 391  1101.03
 392  1172.049
 393  1140.547
 394  1176.754
 395  1027.059
 396  1270.461
 397  1205.157
 398  1255.27
 399  1294.043
 400  1320.329
 401  1212.031
 402  1080.766
 403  899.6696
 404  1043.04
 405  1098.548
 406  1338.378
 407  1424.858
 408  1170.026
 409  1155.581
 410  1147.828
 411  1025.762
 412  780.2649
 413  782.1437
 414  901.9275
 415  922.8892
 416  766.3501
 417  906.8512
 418  1018.415
 419  1297.064
 420  1224.429
 421  922.5817
 422  447.2975
 423  665.7979
 424  672.6782
 425  838.1445
 426  1167.665
 427  1044.521
 428  931.6713
 429  831.8436
 430  851.1161
 431  788.6417
 432  945.3947
 433  1173.801
 434  1213.063
 435  1006.353
 436  773.0783
 437  747.3777
 438  380.5139
 439  655.2103
 440  730.5832
 441  703.3109
 442  784.9485
 443  877.6902
 444  1068.351
 445  894.3778
 446  995.3154
 447  998.0032
 448  1001.764
 449  876.6971
 450  766.3314
 451  767.9534
 452  814.1979
 453  1121.933
 454  1197.793
 455  1173.342
 456  1001.783
 457  1023.884
 458  1009.122
 459  1143.743
 460  973.3378
 461  1071.481
 462  1134.513
 463  1422.685
 464  1263.05
 465  1263.082
 466  1232.902
 467  1077.737
 468  1002.719
 469  1088.436
 470  1136.172
 471  1176.979
 472  1366.062
 473  1370.138
 474  1180.538
 475  839.7667
 476  1100.923
 477  955.0309
 478  842.2295
 479  1132.418
 480  1194.276
 481  822.5046
 482  846.3683
 483  1055.999
 484  1320.696
 485  724.1926
 486  957.2513
 487  1166.854
 488  943.6794
 489  1067.104
 490  817.5812
 491  776.5666
 492  993.734
 493  1149.119
 494  1083.915
 495  837.487
 496  953.5153
 497  1016.763
 498  933.7031
 499  922.3934
 500  982.4434
 501  1138.288
 502  1242.781
 503  1265.989
 504  1144.838
 505  1395.739
 506  1132.197
 507  928.7679
 508  648.0908
 509  790.5883
 510  928.2936
 511  653.8992
