# Input file       =  1179202078.094115_cleaned.dat
# Candidate        =  PSR_0332+5434
# Telescope        =  AR
# Epoch_topo       =  57892.172420070776
# Epoch_bary       =  N/A
# T_sample         =  0.002
# Data Folded      =  7208960
# Data Avg         =  0.130256653165402
# Data StdDev      =  3.94050332634821 
# Profile Bins     =  1024
# Profile Avg      =  916.9415076193   
# Profile StdDev   =  330.626780393434 
# Reduced chi-sqr  =  1.254
# Prob(Noise)      <  4.99e-08   (~5.3 sigma)
# P_topo (ms)      =  714.529207000183  +/- 2.42e-05
# P'_topo (s/s)    =  -0                +/- 1.3e-11
# P''_topo (s/s^2) =  0                 +/- 5.84e-15
# P_bary (ms)      =  N/A
# P'_bary (s/s)    =  N/A
# P''_bary (s/s^2) =  N/A
# P_orb (s)        =  N/A
# asin(i)/c (s)    =  N/A
# eccentricity     =  N/A
# w (rad)          =  N/A
# T_peri           =  N/A
######################################################
   0  883.7096
   1  810.6702
   2  701.3824
   3  626.5607
   4  605.7591
   5  701.0086
   6  724.3304
   7  675.2695
   8  640.7178
   9  701.3856
  10  811.5457
  11  874.736
  12  1107.824
  13  1334.332
  14  1286.134
  15  1218.781
  16  1005.934
  17  1033.048
  18  941.8362
  19  894.2992
  20  752.373
  21  646.192
  22  724.6937
  23  759.4641
  24  824.2839
  25  860.6996
  26  899.2126
  27  831.9769
  28  840.8134
  29  923.5713
  30  1035.901
  31  933.1199
  32  831.5241
  33  848.1275
  34  974.176
  35  928.3383
  36  790.6525
  37  668.787
  38  747.3416
  39  655.1664
  40  638.2935
  41  538.3419
  42  718.0856
  43  855.8799
  44  926.4319
  45  954.9789
  46  1028.781
  47  1189.4
  48  1419.186
  49  1323.866
  50  1205.022
  51  944.9017
  52  944.7045
  53  976.8054
  54  932.1301
  55  944.921
  56  810.9745
  57  812.7719
  58  739.5535
  59  784.5638
  60  886.2978
  61  1017.897
  62  1094.185
  63  1086.98
  64  1021.653
  65  1023.718
  66  840.9599
  67  812.5077
  68  740.2017
  69  774.3615
  70  731.2489
  71  666.6856
  72  526.1643
  73  463.0475
  74  452.8807
  75  572.8115
  76  722.7183
  77  982.5164
  78  1159.056
  79  1198.033
  80  1284.272
  81  1328.818
  82  1348.58
  83  1255.891
  84  1146.115
  85  1034.011
  86  884.2754
  87  780.3809
  88  734.5167
  89  686.2729
  90  607.2883
  91  490.425
  92  614.4133
  93  765.6456
  94  929.3561
  95  1110.211
  96  1152.246
  97  1150.356
  98  969.1638
  99  904.9984
 100  797.0044
 101  779.9784
 102  817.1221
 103  843.337
 104  830.5242
 105  757.201
 106  691.929
 107  636.2744
 108  600.2983
 109  710.0444
 110  954.8537
 111  1141.501
 112  1138.286
 113  1169.652
 114  1153.975
 115  1094.897
 116  890.8032
 117  881.7946
 118  952.4332
 119  1000.687
 120  901.2019
 121  770.2328
 122  678.4071
 123  616.3034
 124  628.0214
 125  703.8593
 126  689.3947
 127  762.9138
 128  990.0222
 129  1075.676
 130  1053.35
 131  942.9586
 132  959.7784
 133  802.5277
 134  671.4281
 135  750.1084
 136  764.4263
 137  669.7016
 138  546.2932
 139  475.4358
 140  577.0368
 141  642.1115
 142  870.9797
 143  1022.006
 144  1108.892
 145  1155.462
 146  1275.462
 147  1315.71
 148  1323.685
 149  1092.312
 150  957.4427
 151  648.9651
 152  629.461
 153  596.8879
 154  663.2487
 155  610.5089
 156  703.7787
 157  762.5124
 158  665.5244
 159  522.8163
 160  636.7679
 161  890.0026
 162  1003.172
 163  1049.798
 164  971.8789
 165  946.8896
 166  866.496
 167  870.0304
 168  803.4191
 169  693.2283
 170  645.3705
 171  707.1
 172  628.8253
 173  619.282
 174  662.2967
 175  827.5765
 176  913.7028
 177  1051.429
 178  1075.928
 179  1091.414
 180  1024.072
 181  1097.95
 182  1058.433
 183  1063.492
 184  1035.131
 185  1044.149
 186  957.0643
 187  921.7423
 188  957.0743
 189  995.4679
 190  812.0476
 191  761.8951
 192  869.3416
 193  937.6311
 194  891.9871
 195  892.1015
 196  947.593
 197  924.3145
 198  982.1749
 199  1024.025
 200  1123.211
 201  934.0797
 202  749.7585
 203  706.7101
 204  776.2518
 205  776.4458
 206  677.0932
 207  701.9906
 208  845.2631
 209  1023.195
 210  1111.309
 211  1222.241
 212  1239.659
 213  1294.562
 214  1206.499
 215  1137.819
 216  1093.509
 217  1091.115
 218  1049.589
 219  942.1443
 220  976.9858
 221  1014.984
 222  1043.708
 223  967.0449
 224  898.0671
 225  945.2614
 226  989.7352
 227  1025.107
 228  911.8594
 229  869.5762
 230  902.3632
 231  955.2101
 232  934.4781
 233  831.3022
 234  777.0867
 235  705.0649
 236  646.9861
 237  533.1188
 238  537.4661
 239  583.7263
 240  682.9778
 241  855.6515
 242  943.4057
 243  1147.824
 244  1146.039
 245  1097.416
 246  935.349
 247  804.4633
 248  815.8994
 249  827.0911
 250  943.2641
 251  853.5207
 252  846.862
 253  814.3413
 254  739.3504
 255  659.8444
 256  717.7625
 257  725.569
 258  808.437
 259  844.9111
 260  1030.936
 261  1086.717
 262  1026.517
 263  937.5066
 264  788.1238
 265  758.5034
 266  655.6574
 267  537.2003
 268  597.842
 269  613.5763
 270  666.4646
 271  568.6119
 272  702.7947
 273  841.9075
 274  850.6317
 275  824.627
 276  864.7551
 277  1042.231
 278  1026.999
 279  1045.956
 280  1077.941
 281  1134.371
 282  1005.335
 283  779.3164
 284  652.7709
 285  550.458
 286  628.8322
 287  665.8033
 288  747.9189
 289  756.7182
 290  817.2914
 291  770.9968
 292  780.9899
 293  834.8791
 294  954.8168
 295  994.0034
 296  1011.424
 297  855.1503
 298  789.0482
 299  598.2614
 300  640.1197
 301  741.1295
 302  860.642
 303  783.1265
 304  745.7786
 305  802.7729
 306  904.1967
 307  831.3457
 308  960.6499
 309  1082.762
 310  1298.852
 311  1251.585
 312  1129.371
 313  1067.638
 314  1012.95
 315  996.6747
 316  938.7103
 317  816.0681
 318  854.9366
 319  782.7064
 320  765.1252
 321  641.8485
 322  500.1268
 323  421.4734
 324  527.3105
 325  655.6736
 326  738.4488
 327  820.1469
 328  943.5468
 329  999.2946
 330  1011.158
 331  1017.135
 332  1031.464
 333  992.5204
 334  919.2756
 335  830.5262
 336  759.9931
 337  735.1305
 338  655.342
 339  581.5358
 340  597.0929
 341  652.7738
 342  857.7577
 343  1031.625
 344  1142.367
 345  1076.136
 346  1084.473
 347  1059.538
 348  1031.371
 349  1030.866
 350  960.8331
 351  857.3572
 352  753.6788
 353  608.033
 354  588.3392
 355  709.8312
 356  787.8752
 357  804.929
 358  766.9283
 359  921.6982
 360  1034.161
 361  1106.424
 362  988.5935
 363  985.5831
 364  982.98
 365  972.0997
 366  849.4329
 367  692.7524
 368  611.7241
 369  654.8842
 370  820.6377
 371  915.7772
 372  798.9088
 373  750.9134
 374  925.55
 375  1066.378
 376  1211.756
 377  1204.102
 378  1210.043
 379  1175.654
 380  1116.556
 381  1057.117
 382  1123.103
 383  1185.819
 384  1138.089
 385  884.0349
 386  832.444
 387  860.4795
 388  946.2814
 389  939.0762
 390  832.8906
 391  885.2996
 392  928.3307
 393  1048.949
 394  1021.344
 395  987.5377
 396  1002.344
 397  987.6128
 398  926.8836
 399  881.5429
 400  774.5366
 401  773.8721
 402  669.8893
 403  683.4185
 404  699.654
 405  836.2257
 406  829.439
 407  1050.938
 408  1184.729
 409  1375.178
 410  1370.872
 411  1367.663
 412  1329.887
 413  1199.857
 414  1270.526
 415  1156.579
 416  1088.674
 417  987.2595
 418  907.1048
 419  897.7327
 420  774.7398
 421  834.8043
 422  764.6938
 423  851.3421
 424  959.4132
 425  1066.252
 426  1128.86
 427  1124.185
 428  1086.998
 429  1002.412
 430  873.4561
 431  896.5402
 432  853.5894
 433  835.0508
 434  811.4333
 435  748.1425
 436  710.8095
 437  804.176
 438  953.7774
 439  1056.031
 440  982.9739
 441  1136.306
 442  1352.998
 443  1508.953
 444  1452.958
 445  1322.713
 446  1152.408
 447  1074.835
 448  1026.048
 449  1033.869
 450  1033.531
 451  1011.46
 452  931.676
 453  809.0298
 454  791.0987
 455  915.1866
 456  1089.297
 457  1192.259
 458  1213.955
 459  1234.866
 460  1170.047
 461  1074.448
 462  1051.438
 463  1119.903
 464  1121.541
 465  942.3284
 466  824.3566
 467  851.7662
 468  992.9991
 469  1060.788
 470  1095.651
 471  988.2485
 472  1019.121
 473  914.7877
 474  1069.168
 475  1193.799
 476  1366.25
 477  1447.072
 478  1385.763
 479  1185.435
 480  1063.248
 481  1166.517
 482  1197.858
 483  1096.355
 484  1083.209
 485  995.8672
 486  833.2003
 487  642.4995
 488  686.3141
 489  847.8085
 490  982.4588
 491  1049.734
 492  1059.866
 493  1068.693
 494  1148.603
 495  1185.348
 496  1161.542
 497  1039.483
 498  945.0057
 499  891.791
 500  822.2523
 501  728.7925
 502  700.4848
 503  785.407
 504  786.6308
 505  662.7237
 506  808.0654
 507  986.9186
 508  1133.225
 509  1140.792
 510  1291.231
 511  1413.803
 512  1293.655
 513  1233.616
 514  1154.852
 515  1076.926
 516  908.6525
 517  821.7654
 518  678.0868
 519  634.2982
 520  715.6184
 521  828.0626
 522  764.2041
 523  769.7461
 524  960.0657
 525  1138.665
 526  1203.04
 527  1136.109
 528  1094.792
 529  1064.042
 530  959.3283
 531  902.3984
 532  790.342
 533  776.6378
 534  824.3467
 535  750.3063
 536  722.0785
 537  728.0649
 538  815.9003
 539  911.4304
 540  945.6875
 541  1066.641
 542  1174.622
 543  1246.528
 544  1283.887
 545  1288.869
 546  1142.829
 547  1052.483
 548  934.5079
 549  939.7413
 550  840.8319
 551  830.2067
 552  840.5752
 553  788.4976
 554  831.5593
 555  838.3152
 556  921.6407
 557  899.9222
 558  974.0651
 559  1065.99
 560  961.9589
 561  881.9166
 562  869.8506
 563  937.3866
 564  870.5316
 565  679.8997
 566  571.8056
 567  575.0129
 568  629.2657
 569  676.4447
 570  661.0922
 571  748.1302
 572  877.1492
 573  1087.144
 574  1090.112
 575  1179.076
 576  1161.43
 577  1145.954
 578  972.9512
 579  857.7189
 580  832.3127
 581  763.3979
 582  729.934
 583  617.231
 584  595.9314
 585  575.6555
 586  658.2252
 587  814.0923
 588  984.8512
 589  1084.066
 590  1149.058
 591  1149.074
 592  1042.732
 593  935.6024
 594  893.7665
 595  985.9842
 596  896.2878
 597  861.9236
 598  711.5493
 599  645.3101
 600  622.3735
 601  714.3956
 602  817.1561
 603  777.5471
 604  922.7614
 605  1082.335
 606  1204.521
 607  1241.043
 608  1284.711
 609  1415.457
 610  1336.186
 611  1295.863
 612  1195.646
 613  1122.427
 614  1022.905
 615  919.8607
 616  853.9222
 617  843.0347
 618  926.4336
 619  1013.652
 620  976.3929
 621  928.6804
 622  984.53
 623  987.8535
 624  994.501
 625  908.7155
 626  1000.415
 627  1058.037
 628  1017.041
 629  917.8464
 630  832.1066
 631  808.2883
 632  770.847
 633  758.9698
 634  714.5212
 635  749.996
 636  768.5898
 637  842.7988
 638  858.2729
 639  864.3634
 640  1072.414
 641  1218.499
 642  1278.294
 643  1219.59
 644  1211.455
 645  1117.456
 646  1031.668
 647  895.5014
 648  841.7639
 649  822.6146
 650  864.5422
 651  849.4861
 652  813.4241
 653  858.4245
 654  966.2612
 655  968.0798
 656  1047.904
 657  1039.922
 658  1116.672
 659  1004.981
 660  971.5861
 661  891.6856
 662  879.3163
 663  794.3286
 664  674.2531
 665  782.1257
 666  844.8696
 667  829.1069
 668  714.4135
 669  639.4023
 670  785.5991
 671  992.5468
 672  1252.95
 673  1287.01
 674  1310.469
 675  1350.781
 676  1369.271
 677  1274.196
 678  1273.79
 679  1254.902
 680  1159.106
 681  880.7769
 682  786.634
 683  748.4441
 684  781.4954
 685  845.1047
 686  859.6767
 687  899.097
 688  1066.845
 689  1124.365
 690  1164.646
 691  1136.417
 692  1196.044
 693  1174.224
 694  1004.345
 695  910.729
 696  903.3448
 697  816.8469
 698  718.6075
 699  641.209
 700  730.6211
 701  679.6085
 702  649.9507
 703  626.4692
 704  767.52
 705  899.8461
 706  978.1389
 707  1101.67
 708  1165.655
 709  1311.774
 710  1205.416
 711  1067.89
 712  948.7626
 713  1119.048
 714  1006.95
 715  909.8171
 716  695.3177
 717  671.5327
 718  702.2041
 719  660.101
 720  738.2638
 721  865.2517
 722  966.8575
 723  1009.933
 724  970.4593
 725  971.4804
 726  829.8043
 727  738.7972
 728  637.4454
 729  566.6627
 730  645.0108
 731  581.9368
 732  583.93
 733  565.0222
 734  730.4249
 735  881.7754
 736  939.2522
 737  977.1283
 738  1066.618
 739  1157.707
 740  1194.879
 741  1013.135
 742  1050.319
 743  1119.699
 744  1171.212
 745  1070.702
 746  1030.967
 747  1109.18
 748  1212.693
 749  1039.821
 750  919.938
 751  862.0691
 752  1130.903
 753  1302.261
 754  1471.956
 755  1614.393
 756  1742.851
 757  1711.869
 758  1632.891
 759  1542.537
 760  1575.726
 761  1369.982
 762  1251.21
 763  1146.213
 764  1045.479
 765  882.7258
 766  713.5112
 767  675.5295
 768  758.1797
 769  936.7422
 770  1022.978
 771  1011.247
 772  880.0601
 773  948.2095
 774  1067.621
 775  1246.189
 776  1109.949
 777  1015.823
 778  963.2978
 779  1113.872
 780  1002.85
 781  925.3649
 782  775.1048
 783  865.6968
 784  880.4589
 785  910.4664
 786  756.6557
 787  810.825
 788  910.5474
 789  994.8685
 790  867.9576
 791  777.277
 792  926.3831
 793  1001.344
 794  930.0327
 795  917.2991
 796  822.6788
 797  744.185
 798  681.6282
 799  692.7535
 800  752.0566
 801  695.5311
 802  854.6429
 803  909.114
 804  883.5133
 805  886.0297
 806  1013.118
 807  1010.391
 808  1013.315
 809  899.6277
 810  932.0131
 811  761.9136
 812  733.9521
 813  758.3566
 814  837.6175
 815  749.653
 816  590.1375
 817  470.1012
 818  623.4864
 819  866.0818
 820  1031.462
 821  1043.385
 822  1028.908
 823  955.8199
 824  887.0374
 825  800.6151
 826  671.534
 827  585.3505
 828  635.6378
 829  571.2115
 830  603.8239
 831  508.8262
 832  461.3417
 833  411.458
 834  460.8399
 835  553.969
 836  673.3233
 837  838.6603
 838  1100.511
 839  1152.942
 840  1169.346
 841  1005.56
 842  865.1345
 843  905.2469
 844  972.7448
 845  955.158
 846  737.7271
 847  602.1414
 848  546.3998
 849  452.5687
 850  443.4232
 851  501.4654
 852  612.835
 853  702.5119
 854  866.0888
 855  947.8021
 856  1004.908
 857  1034.286
 858  1074.602
 859  881.4427
 860  692.1364
 861  516.184
 862  481.2809
 863  500.1935
 864  553.5959
 865  638.9291
 866  644.4197
 867  694.6257
 868  712.3225
 869  757.4747
 870  780.0569
 871  1038.41
 872  1162.848
 873  1249.839
 874  1048.662
 875  970.6232
 876  1028.536
 877  1051.313
 878  984.9792
 879  888.0134
 880  989.6827
 881  936.6043
 882  817.2931
 883  816.4788
 884  748.4011
 885  845.1161
 886  926.0544
 887  1100.421
 888  1135
 889  1114.185
 890  1040.215
 891  968.2055
 892  879.956
 893  873.1971
 894  880.8898
 895  1014.442
 896  987.6462
 897  831.5652
 898  747.4602
 899  707.246
 900  805.1728
 901  822.3706
 902  929.9216
 903  1173.228
 904  1194.012
 905  1222.342
 906  1244.652
 907  1250.479
 908  1299.987
 909  1200.971
 910  1104.089
 911  920.1169
 912  848.4232
 913  861.3874
 914  896.6279
 915  873.0542
 916  903.632
 917  881.418
 918  748.4957
 919  730.7042
 920  803.358
 921  985.8113
 922  1079.337
 923  1062.418
 924  921.1688
 925  911.6301
 926  941.8179
 927  950.8941
 928  886.4843
 929  787.3214
 930  696.3593
 931  631.1577
 932  716.441
 933  870.0906
 934  801.3604
 935  814.5059
 936  900.8365
 937  1113.623
 938  1222.749
 939  1241.55
 940  1157.571
 941  1260.058
 942  1200.668
 943  1061.863
 944  934.662
 945  908.897
 946  980.6954
 947  927.178
 948  946.9177
 949  927.5261
 950  922.1811
 951  923.6418
 952  897.7066
 953  912.8979
 954  929.554
 955  997.1674
 956  1104.351
 957  1175.207
 958  1175.288
 959  1164.646
 960  1015.591
 961  948.3474
 962  815.7917
 963  828.3943
 964  887.5172
 965  884.7721
 966  962.8665
 967  828.2419
 968  895.1819
 969  933.0552
 970  1104.398
 971  1249.09
 972  1207.797
 973  1210.783
 974  1177.213
 975  1167.235
 976  1039.027
 977  998.183
 978  901.6987
 979  865.4103
 980  770.6903
 981  817.9124
 982  744.6337
 983  783.1029
 984  703.3862
 985  774.6636
 986  838.2244
 987  937.86
 988  1071.222
 989  1124.463
 990  1027.247
 991  893.9327
 992  900.4086
 993  925.3521
 994  791.8607
 995  664.7944
 996  634.421
 997  690.0567
 998  703.7106
 999  695.9055
1000  799.8134
1001  915.2437
1002  890.936
1003  917.2119
1004  1114.738
1005  1183.436
1006  1067.374
1007  987.2206
1008  928.1901
1009  894.1393
1010  796.4263
1011  617.9744
1012  519.1354
1013  493.4422
1014  702.6198
1015  763.8547
1016  781.011
1017  855.2862
1018  1009.416
1019  1001.342
1020  880.4294
1021  811.4812
1022  814.1039
1023  892.8556
