# Input file       =  1180595367.128308_cleaned.dat
# Candidate        =  PSR_0332+5434
# Telescope        =  AR
# Epoch_topo       =  57908.298450559123
# Epoch_bary       =  N/A
# T_sample         =  0.002
# Data Folded      =  7340032
# Data Avg         =  0.0989550501128961
# Data StdDev      =  3.12483669672369 
# Profile Bins     =  1024
# Profile Avg      =  708.748087442201 
# Profile StdDev   =  264.561305191022 
# Reduced chi-sqr  =  0.751
# Prob(Noise)      <  1   (~0.0 sigma)
# P_topo (ms)      =  714.513377127909  +/- 0.000432
# P'_topo (s/s)    =  -0                +/- 2.28e-10
# P''_topo (s/s^2) =  0                 +/- 1.01e-13
# P_bary (ms)      =  N/A
# P'_bary (s/s)    =  N/A
# P''_bary (s/s^2) =  N/A
# P_orb (s)        =  N/A
# asin(i)/c (s)    =  N/A
# eccentricity     =  N/A
# w (rad)          =  N/A
# T_peri           =  N/A
######################################################
   0  797.0227
   1  720.8755
   2  654.1894
   3  675.9391
   4  683.5306
   5  600.8012
   6  514.8865
   7  453.9585
   8  442.78
   9  569.5992
  10  674.906
  11  748.6159
  12  717.6816
  13  778.7226
  14  767.171
  15  664.7002
  16  594.8157
  17  726.1454
  18  744.3149
  19  781.9318
  20  527.852
  21  520.5057
  22  561.9058
  23  620.4464
  24  569.5205
  25  452.8016
  26  455.665
  27  514.0627
  28  596.2499
  29  599.9651
  30  650.2313
  31  698.3786
  32  783.2391
  33  803.73
  34  710.0208
  35  648.6805
  36  537.8599
  37  514.3571
  38  582.6014
  39  686.1373
  40  701.2846
  41  727.9241
  42  707.6111
  43  696.2087
  44  732.7451
  45  747.1138
  46  841.7868
  47  781.5012
  48  729.7744
  49  648.7375
  50  700.996
  51  801.2132
  52  862.5893
  53  788.3134
  54  733.8392
  55  714.7092
  56  776.9584
  57  878.6475
  58  918.7033
  59  794.7357
  60  676.8582
  61  636.2297
  62  736.4583
  63  697.9303
  64  652.823
  65  600.8529
  66  628.7036
  67  560.139
  68  609.1303
  69  578.006
  70  588.8331
  71  540.2291
  72  653.1794
  73  568.3953
  74  552.1721
  75  522.6458
  76  565.9898
  77  577.7122
  78  662.464
  79  861.8549
  80  936.7869
  81  926.0999
  82  862.377
  83  786.6816
  84  846.657
  85  715.8452
  86  697.4216
  87  647.6233
  88  661.8575
  89  693.9564
  90  612.1365
  91  664.8198
  92  662.1578
  93  744.693
  94  792.4208
  95  905.93
  96  844.952
  97  857.4779
  98  826.2931
  99  754.1785
 100  731.8182
 101  691.9354
 102  766.5377
 103  705.6381
 104  647.4155
 105  685.2953
 106  686.1393
 107  784.6871
 108  791.2877
 109  825.166
 110  866.1181
 111  835.1678
 112  684.0273
 113  606.6677
 114  630.2772
 115  714.5368
 116  685.8923
 117  589.6664
 118  656.6082
 119  658.3445
 120  664.2084
 121  676.832
 122  624.3875
 123  626.3799
 124  641.0582
 125  751.5604
 126  896.1751
 127  940.3088
 128  994.6933
 129  839.8405
 130  731.1865
 131  638.6534
 132  666.0883
 133  527.4804
 134  375.9408
 135  436.7571
 136  504.107
 137  609.0777
 138  611.6273
 139  699.3698
 140  800.9962
 141  791.5109
 142  804.9082
 143  772.2143
 144  656.0786
 145  616.6128
 146  553.5986
 147  534.5632
 148  564.0873
 149  672.0507
 150  869.3951
 151  869.6549
 152  810.6824
 153  704.349
 154  635.6718
 155  563.9648
 156  606.5415
 157  630.0668
 158  658.19
 159  653.3192
 160  684.9261
 161  657.6558
 162  658.8497
 163  645.9418
 164  709.2279
 165  619.5679
 166  566.5258
 167  615.6577
 168  694.4298
 169  646.7871
 170  644.0358
 171  558.2789
 172  583.5066
 173  465.5183
 174  490.0081
 175  532.1395
 176  564.6365
 177  574.9262
 178  583.3218
 179  556.3912
 180  597.482
 181  738.9023
 182  899.9927
 183  1040.543
 184  807.1922
 185  596.8572
 186  555.5027
 187  670.0704
 188  712.4603
 189  682.6268
 190  651.8065
 191  662.004
 192  640.1898
 193  695.1895
 194  641.8008
 195  669.6145
 196  797.2554
 197  821.9125
 198  774.2552
 199  749.9748
 200  693.9213
 201  683.5826
 202  548.4161
 203  535.936
 204  503.6923
 205  618.4368
 206  556.3861
 207  589.5779
 208  657.2728
 209  719.5891
 210  709.7831
 211  711.5385
 212  864.5458
 213  923.8401
 214  935.1071
 215  843.0611
 216  720.5077
 217  697.5505
 218  699.8313
 219  677.0197
 220  683.4069
 221  610.785
 222  593.4064
 223  649.6015
 224  703.3197
 225  700.7735
 226  770.4551
 227  880.3659
 228  892.2728
 229  886.8151
 230  797.9419
 231  708.5114
 232  652.2233
 233  677.033
 234  678.0942
 235  735.0891
 236  769.0033
 237  766.1879
 238  662.0936
 239  560.5266
 240  539.0941
 241  638.7634
 242  654.9802
 243  729.5853
 244  743.2071
 245  859.8233
 246  834.9906
 247  802.7751
 248  730.669
 249  617.1544
 250  652.1193
 251  623.4692
 252  633.1766
 253  760.1595
 254  821.5111
 255  738.9223
 256  638.7322
 257  687.9952
 258  736.7753
 259  677.0131
 260  693.9882
 261  701.6726
 262  697.6064
 263  619.7919
 264  615.7583
 265  601.8582
 266  654.8785
 267  672.525
 268  626.694
 269  623.7325
 270  617.1118
 271  661.0055
 272  723.3727
 273  712.4427
 274  792.5802
 275  793.6066
 276  811.8268
 277  756.0485
 278  633.3949
 279  613.6624
 280  737.5957
 281  842.2015
 282  856.5519
 283  765.7589
 284  662.0378
 285  662.6117
 286  733.312
 287  919.0685
 288  1002.427
 289  988.9285
 290  1058.169
 291  995.0444
 292  892.9711
 293  789.0812
 294  767.3116
 295  794.6976
 296  822.4216
 297  795.7815
 298  856.0784
 299  768.0363
 300  727.2966
 301  770.454
 302  742.2244
 303  762.3638
 304  700.0186
 305  792.9889
 306  862.7416
 307  944.5026
 308  875.8882
 309  753.0905
 310  719.5626
 311  843.1739
 312  982.4853
 313  988.4561
 314  791.0513
 315  727.5395
 316  750.0972
 317  883.3326
 318  870.1163
 319  912.7874
 320  885.986
 321  821.4073
 322  711.5319
 323  723.1335
 324  834.7929
 325  914.4465
 326  911.054
 327  833.7521
 328  754.0499
 329  784.961
 330  809.7286
 331  812.411
 332  675.5737
 333  590.7328
 334  715.7308
 335  767.5458
 336  718.6713
 337  512.6761
 338  503.0968
 339  579.5768
 340  564.8627
 341  547.4183
 342  525.1482
 343  533.9577
 344  550.33
 345  516.1642
 346  595.4156
 347  553.4
 348  465.9526
 349  414.6509
 350  416.4418
 351  476.1243
 352  507.067
 353  525.0317
 354  508.4731
 355  585.9443
 356  586.733
 357  636.4749
 358  582.0615
 359  598.045
 360  763.9246
 361  910.368
 362  887.9864
 363  850.7693
 364  749.9539
 365  816.5046
 366  803.0038
 367  685.9242
 368  517.8513
 369  483.4093
 370  556.2535
 371  622.1263
 372  700.8834
 373  766.7733
 374  801.8122
 375  771.1146
 376  815.5834
 377  734.4042
 378  641.316
 379  680.3357
 380  664.3945
 381  713.4595
 382  753.2999
 383  815.4716
 384  902.6294
 385  836.6321
 386  780.5781
 387  702.598
 388  669.4388
 389  699.1204
 390  796.9969
 391  815.327
 392  753.6163
 393  575.9437
 394  555.0562
 395  665.86
 396  763.1537
 397  745.0041
 398  828.4536
 399  823.9224
 400  863.5362
 401  788.1526
 402  764.0783
 403  778.4837
 404  646.2217
 405  586.4943
 406  596.0273
 407  573.9339
 408  570.5438
 409  565.0341
 410  582.9617
 411  528.782
 412  560.9821
 413  657.41
 414  748.9896
 415  743.6996
 416  757.8764
 417  790.8189
 418  739.4682
 419  613.2201
 420  516.5638
 421  498.354
 422  601.3031
 423  729.8066
 424  764.0202
 425  790.3474
 426  751.8453
 427  685.8241
 428  563.6412
 429  492.6889
 430  507.2646
 431  556.8213
 432  551.6681
 433  578.9708
 434  659.2324
 435  719.2815
 436  715.6394
 437  714.5609
 438  774.7672
 439  864.9556
 440  801.2416
 441  775.1332
 442  682.085
 443  688.7342
 444  744.34
 445  713.8185
 446  643.2135
 447  558.2831
 448  647.8527
 449  761.9878
 450  723.2395
 451  769.9614
 452  735.066
 453  774.9906
 454  844.257
 455  920.425
 456  845.1696
 457  765.2376
 458  588.9305
 459  642.0934
 460  686.8016
 461  716.1607
 462  780.3061
 463  714.8813
 464  748.5843
 465  703.344
 466  686.6238
 467  652.8665
 468  603.5865
 469  631.7577
 470  667.4302
 471  721.6355
 472  802.4357
 473  785.7661
 474  692.5164
 475  572.7423
 476  638.5857
 477  660.5446
 478  721.3129
 479  684.964
 480  716.1985
 481  707.9669
 482  678.084
 483  691.0248
 484  718.7372
 485  720.4826
 486  718.6707
 487  760.9327
 488  717.1695
 489  563.1148
 490  473.1416
 491  465.6995
 492  491.3823
 493  550.7933
 494  565.7449
 495  755.1216
 496  788.543
 497  822.0754
 498  672.0878
 499  542.4753
 500  547.8621
 501  665.7888
 502  745.6174
 503  778.8233
 504  715.887
 505  567.0544
 506  486.6384
 507  502.4104
 508  700.8631
 509  804.0173
 510  823.3538
 511  757.0325
 512  571.745
 513  524.2125
 514  617.1309
 515  635.7549
 516  564.6022
 517  489.7961
 518  595.5172
 519  664.9852
 520  653.142
 521  686.9772
 522  766.5258
 523  804.754
 524  746.9067
 525  649.2115
 526  622.2377
 527  688.005
 528  733.1825
 529  682.4788
 530  572.2833
 531  532.7341
 532  627.8405
 533  647.233
 534  619.5583
 535  636.4227
 536  676.2314
 537  688.8182
 538  694.1082
 539  708.3943
 540  717.959
 541  648.7719
 542  701.4063
 543  717.5535
 544  723.4468
 545  620.6609
 546  666.1168
 547  800.8396
 548  904.0038
 549  874.6804
 550  824.1233
 551  780.7114
 552  631.9089
 553  601.8242
 554  646.0447
 555  662.8754
 556  596.1651
 557  581.4208
 558  585.7208
 559  644.8701
 560  702.2379
 561  808.4918
 562  885.3898
 563  892.5113
 564  812.7968
 565  714.3247
 566  730.3121
 567  769.824
 568  802.7714
 569  768.3302
 570  817.3389
 571  811.6312
 572  821.6843
 573  817.1458
 574  769.4974
 575  812.6477
 576  752.3655
 577  707.7914
 578  655.5591
 579  638.6714
 580  703.6896
 581  680.3163
 582  696.6749
 583  665.2458
 584  747.5934
 585  690.6052
 586  632.2313
 587  676.429
 588  785.8289
 589  805.7001
 590  772.3553
 591  769.639
 592  844.8746
 593  854.9834
 594  772.3852
 595  729.3517
 596  662.5588
 597  708.2573
 598  698.7714
 599  675.4359
 600  680.6231
 601  703.8071
 602  718.3679
 603  587.9269
 604  553.9529
 605  678.6007
 606  759.3575
 607  683.619
 608  648.7325
 609  668.6534
 610  687.489
 611  574.5056
 612  487.6361
 613  506.7526
 614  506.261
 615  472.4397
 616  514.4177
 617  499.6293
 618  461.2004
 619  476.0302
 620  551.0591
 621  637.4561
 622  663.3841
 623  632.641
 624  638.419
 625  631.6134
 626  776.246
 627  774.2979
 628  782.6458
 629  740.3028
 630  762.4305
 631  776.4774
 632  809.1693
 633  822.8902
 634  808.9996
 635  757.5004
 636  751.2775
 637  848.11
 638  879.6404
 639  806.7318
 640  813.3533
 641  868.77
 642  849.0718
 643  744.1119
 644  794.491
 645  815.1274
 646  746.2939
 647  655.8087
 648  685.3356
 649  810.0331
 650  748.1773
 651  771.5451
 652  860.1816
 653  935.8512
 654  948.7681
 655  816.1688
 656  831.8151
 657  806.1325
 658  781.0535
 659  777.3283
 660  692.1531
 661  625.5653
 662  521.8699
 663  497.0821
 664  438.0009
 665  466.2957
 666  614.6277
 667  631.5839
 668  650.6863
 669  570.9177
 670  621.3156
 671  565.4128
 672  611.549
 673  632.2291
 674  659.8554
 675  562.8918
 676  459.459
 677  482.336
 678  566.8981
 679  609.3234
 680  589.9069
 681  577.3575
 682  558.2623
 683  626.0663
 684  617.5198
 685  586.4188
 686  390.8132
 687  367.3319
 688  495.6938
 689  657.2039
 690  632.4827
 691  616.9882
 692  552.984
 693  542.3732
 694  599.4285
 695  638.7112
 696  684.3423
 697  569.2432
 698  591.5405
 699  604.6233
 700  587.7857
 701  606.6485
 702  561.8098
 703  602.3582
 704  635.039
 705  710.6218
 706  715.1339
 707  712.9149
 708  693.6835
 709  734.085
 710  871.705
 711  805.4099
 712  766.2744
 713  661.4815
 714  714.5348
 715  667.8478
 716  721.7537
 717  746.3044
 718  858.2095
 719  820.5063
 720  766.8016
 721  854.048
 722  867.5684
 723  891.5269
 724  794.6634
 725  777.7787
 726  873.7964
 727  877.889
 728  909.4304
 729  742.0132
 730  671.0959
 731  769.1884
 732  855.9194
 733  766.9659
 734  698.8245
 735  713.7989
 736  716.8455
 737  685.7062
 738  657.2328
 739  767.4916
 740  830.3549
 741  859.2607
 742  930.4503
 743  917.7051
 744  999.4594
 745  989.3977
 746  972.0204
 747  963.9944
 748  926.5891
 749  924.4756
 750  919.0416
 751  1002.467
 752  1061.274
 753  1187.801
 754  1273.835
 755  1410.59
 756  1403.378
 757  1332.963
 758  1259.599
 759  1205.394
 760  1151.488
 761  1082.658
 762  1019.91
 763  921.0217
 764  872.3506
 765  727.666
 766  607.7755
 767  520.0499
 768  567.5585
 769  626.6857
 770  552.0285
 771  554.8856
 772  686.3298
 773  717.949
 774  775.1406
 775  669.8087
 776  756.893
 777  830.9917
 778  839.5874
 779  766.5061
 780  690.8163
 781  819.4725
 782  869.7904
 783  747.4609
 784  629.5318
 785  651.278
 786  732.1329
 787  821.3814
 788  879.1914
 789  984.0471
 790  927.5444
 791  758.7637
 792  665.5092
 793  657.9871
 794  690.5491
 795  680.2974
 796  728.9539
 797  860.8646
 798  866.7764
 799  802.9951
 800  738.7988
 801  694.7189
 802  713.5322
 803  688.0743
 804  739.4934
 805  669.6945
 806  705.6879
 807  757.4241
 808  844.2898
 809  855.9763
 810  733.0439
 811  704.2217
 812  755.8696
 813  866.248
 814  911.5728
 815  876.1277
 816  846.4401
 817  869.7262
 818  876.9169
 819  972.6667
 820  974.3381
 821  952.6154
 822  863.6111
 823  815.1423
 824  773.793
 825  678.2396
 826  668.9507
 827  663.0572
 828  772.605
 829  766.5955
 830  861.9135
 831  832.0579
 832  739.8392
 833  678.2289
 834  749.1695
 835  804.8949
 836  783.6704
 837  684.285
 838  681.3766
 839  696.5154
 840  602.0834
 841  547.2334
 842  478.3113
 843  628.8277
 844  677.9286
 845  779.6307
 846  723.7629
 847  740.546
 848  685.4989
 849  688.5688
 850  597.1734
 851  505.3748
 852  448.6538
 853  421.13
 854  412.795
 855  478.7743
 856  534.6933
 857  689.3364
 858  701.2895
 859  881.4545
 860  875.4794
 861  780.7559
 862  650.8179
 863  626.1415
 864  651.6059
 865  679.6748
 866  656.3555
 867  760.5093
 868  865.3494
 869  865.475
 870  820.3681
 871  728.1012
 872  683.3586
 873  579.72
 874  548.7562
 875  532.1371
 876  552.3961
 877  568.2579
 878  559.2101
 879  615.4795
 880  620.6514
 881  666.8674
 882  680.4645
 883  705.699
 884  743.3621
 885  796.7628
 886  696.0909
 887  628.4835
 888  543.1525
 889  575.3067
 890  552.8564
 891  607.5266
 892  716.7636
 893  785.7927
 894  745.738
 895  807.6656
 896  860.1142
 897  782.7993
 898  629.4331
 899  486.166
 900  605.6126
 901  647.2252
 902  749.5774
 903  745.1918
 904  812.8998
 905  803.5098
 906  847.9758
 907  831.8754
 908  842.2293
 909  775.4321
 910  707.3843
 911  737.1805
 912  699.402
 913  676.3361
 914  682.9142
 915  594.0251
 916  508.904
 917  490.49
 918  664.6738
 919  862.3646
 920  888.4172
 921  899.3538
 922  773.4888
 923  723.4084
 924  657.3635
 925  761.6674
 926  772.8927
 927  769.9086
 928  766.2222
 929  763.2173
 930  747.3219
 931  661.1995
 932  755.3533
 933  823.8735
 934  808.0387
 935  666.8914
 936  664.712
 937  690.3759
 938  732.1962
 939  695.4665
 940  723.3197
 941  705.7614
 942  675.1981
 943  573.8859
 944  531.3015
 945  614.0608
 946  701.4342
 947  733.1941
 948  656.086
 949  693.1974
 950  660.5983
 951  724.1096
 952  719.4355
 953  747.7861
 954  802.2691
 955  881.3121
 956  817.1781
 957  715.2418
 958  676.8086
 959  750.576
 960  780.8369
 961  757.5479
 962  815.9699
 963  819.0964
 964  766.8199
 965  639.2943
 966  623.6896
 967  683.8287
 968  667.8143
 969  618.9905
 970  665.6989
 971  761.5271
 972  796.7055
 973  780.5677
 974  768.2588
 975  838.0753
 976  833.4122
 977  842.4614
 978  838.7537
 979  852.741
 980  788.2686
 981  718.8751
 982  713.0029
 983  718.8659
 984  665.6702
 985  617.5369
 986  687.0511
 987  697.2683
 988  718.162
 989  701.231
 990  701.7847
 991  701.9452
 992  648.0566
 993  636.3161
 994  620.7487
 995  724.8586
 996  788.0883
 997  705.0561
 998  532.3925
 999  600.9747
1000  700.3052
1001  777.0339
1002  702.7742
1003  710.6534
1004  775.6492
1005  853.2828
1006  894.4086
1007  735.3036
1008  625.5135
1009  641.228
1010  733.7443
1011  676.909
1012  521.7112
1013  428.7523
1014  504.5346
1015  570.4648
1016  655.5731
1017  623.5414
1018  563.054
1019  591.9684
1020  686.8895
1021  733.0599
1022  763.1157
1023  762.7346
