# Input file       =  1180782598.102683_cleaned.dat
# Candidate        =  PSR_0332+5434
# Telescope        =  AR
# Epoch_topo       =  57910.465475725498
# Epoch_bary       =  N/A
# T_sample         =  0.002
# Data Folded      =  7340032
# Data Avg         =  0.144862703989409
# Data StdDev      =  3.59124243027114 
# Profile Bins     =  1024
# Profile Avg      =  1038.42930480106 
# Profile StdDev   =  304.049099783701 
# Reduced chi-sqr  =  0.955
# Prob(Noise)      <  0.844   (~0.0 sigma)
# P_topo (ms)      =  714.511624576883  +/- 0.000506
# P'_topo (s/s)    =  -0                +/- 2.67e-10
# P''_topo (s/s^2) =  0                 +/- 1.18e-13
# P_bary (ms)      =  N/A
# P'_bary (s/s)    =  N/A
# P''_bary (s/s^2) =  N/A
# P_orb (s)        =  N/A
# asin(i)/c (s)    =  N/A
# eccentricity     =  N/A
# w (rad)          =  N/A
# T_peri           =  N/A
######################################################
   0  926.1599
   1  1084.771
   2  1120.109
   3  1164.194
   4  1091.582
   5  1075.71
   6  1098.399
   7  1074.74
   8  966.7853
   9  1005.544
  10  980.6028
  11  1026.584
  12  955.7592
  13  987.782
  14  1047.125
  15  1081.557
  16  1168.359
  17  1197.339
  18  1306.402
  19  1364.808
  20  1331.113
  21  1308.619
  22  1283.261
  23  1331.945
  24  1447.392
  25  1554.252
  26  1540.231
  27  1397.629
  28  1307.065
  29  1290.785
  30  1219.729
  31  1249.292
  32  1253.238
  33  1265.658
  34  1248.964
  35  1328.622
  36  1311.023
  37  1401.159
  38  1320.269
  39  1396.026
  40  1329.96
  41  1334.745
  42  1180.761
  43  1155.52
  44  1086.454
  45  1028.245
  46  1083.937
  47  1167.651
  48  1245.268
  49  1155.6
  50  1108.421
  51  1132.227
  52  1228.257
  53  1193.091
  54  1126.272
  55  981.6694
  56  1004.51
  57  1117.299
  58  1192.807
  59  1165.773
  60  1081.974
  61  1152.485
  62  1112.108
  63  1106.295
  64  1157.431
  65  1191.108
  66  1098.68
  67  994.9759
  68  1075.991
  69  1218.009
  70  1144.532
  71  1123.252
  72  1045.463
  73  1113.166
  74  1175.762
  75  1098.275
  76  1138.038
  77  1078.422
  78  947.671
  79  933.0412
  80  1040.829
  81  1174.6
  82  1166.84
  83  1140.833
  84  1232.197
  85  1160.375
  86  1058.707
  87  982.4444
  88  878.8741
  89  932.9963
  90  991.9413
  91  1036.403
  92  951.7153
  93  964.912
  94  980.2101
  95  1058.328
  96  970.2787
  97  1029.024
  98  1072.707
  99  1201.755
 100  1229.718
 101  1133.838
 102  1048.863
 103  1022.214
 104  1158.638
 105  1261.608
 106  1214.11
 107  1131.997
 108  944.3412
 109  868.0051
 110  762.775
 111  735.2221
 112  836.0227
 113  967.9299
 114  1048.173
 115  1079.944
 116  1104.079
 117  1131.252
 118  1092.74
 119  1034.257
 120  1091.255
 121  1088.213
 122  1097.724
 123  1017.063
 124  1061.766
 125  1116.595
 126  1149.01
 127  1023.277
 128  917.7005
 129  982.3004
 130  1057.597
 131  999.8925
 132  879.1844
 133  856.7146
 134  1040.581
 135  1056.711
 136  1096.721
 137  1082.733
 138  1075.263
 139  1024.128
 140  963.041
 141  990.2911
 142  992.6159
 143  867.7585
 144  899.311
 145  931.7782
 146  943.319
 147  926.6449
 148  921.1504
 149  1090.983
 150  1129.531
 151  1163.754
 152  1241.273
 153  1182.222
 154  1153.998
 155  1007.989
 156  976.3063
 157  1025.419
 158  979.2872
 159  951.9543
 160  859.0596
 161  874.0863
 162  906.0656
 163  1048.88
 164  1060.217
 165  973.7626
 166  853.1075
 167  768.6512
 168  775.8564
 169  772.642
 170  883.3021
 171  949.6058
 172  912.9642
 173  885.316
 174  833.9768
 175  935.7468
 176  947.9778
 177  984.069
 178  986.2927
 179  1016.364
 180  905.475
 181  742.3239
 182  784.4538
 183  925.3514
 184  1037.364
 185  1048.151
 186  1040.158
 187  1074.034
 188  1044.944
 189  998.5715
 190  979.4736
 191  919.9487
 192  879.0133
 193  797.4311
 194  797.4993
 195  968.4088
 196  993.6889
 197  962.7785
 198  876.8738
 199  810.0444
 200  755.0985
 201  789.351
 202  1032.026
 203  1029.827
 204  911.41
 205  856.9402
 206  878.8431
 207  883.9407
 208  853.2811
 209  841.358
 210  918.4621
 211  932.6934
 212  1098.296
 213  1185.494
 214  1222.397
 215  1102.361
 216  928.6145
 217  939.8346
 218  926.8594
 219  961.3921
 220  953.217
 221  973.504
 222  970.9297
 223  963.1282
 224  914.2892
 225  874.6299
 226  830.2181
 227  923.6931
 228  982.6913
 229  988.2903
 230  938.0647
 231  881.3663
 232  879.5129
 233  838.445
 234  958.4281
 235  962.0834
 236  1020.18
 237  1003.502
 238  1068.691
 239  1016.383
 240  1005.625
 241  1037.873
 242  1117.113
 243  1043.397
 244  1066.355
 245  1091.045
 246  1160.552
 247  1179.098
 248  1197.381
 249  1256.109
 250  1369.26
 251  1415.448
 252  1291.786
 253  1151.757
 254  1026.21
 255  995.1752
 256  974.3662
 257  1067.703
 258  1084.033
 259  950.2439
 260  965.9865
 261  976.4182
 262  1022.659
 263  987.7333
 264  1089.655
 265  1079.151
 266  1080.335
 267  1023.936
 268  1068.55
 269  979.0356
 270  886.9799
 271  821.5088
 272  807.8961
 273  835.2088
 274  853.3734
 275  894.4474
 276  864.1313
 277  898.9231
 278  905.9337
 279  911.9368
 280  835.701
 281  931.2754
 282  889.2748
 283  1070.566
 284  1004.513
 285  1040.282
 286  866.9953
 287  810.9724
 288  780.0828
 289  838.1221
 290  809.0814
 291  817.6622
 292  884.082
 293  913.6761
 294  840.1166
 295  799.0325
 296  828.8828
 297  797.2
 298  771.598
 299  688.9523
 300  739.4273
 301  845.5902
 302  913.7988
 303  931.0497
 304  817.4955
 305  800.545
 306  824.8327
 307  923.1293
 308  937.9752
 309  914.0482
 310  942.6448
 311  949.8527
 312  891.6159
 313  766.5529
 314  856.7416
 315  931.4254
 316  974.4139
 317  888.5615
 318  1032.096
 319  1076.716
 320  1023.536
 321  854.0352
 322  779.566
 323  730.7759
 324  775.5078
 325  943.014
 326  959.3369
 327  969.5976
 328  899.0136
 329  959.7485
 330  985.3221
 331  1099.469
 332  1212.388
 333  1294.68
 334  1201.589
 335  1008.596
 336  931.9263
 337  828.8328
 338  953.4814
 339  985.7863
 340  1152.047
 341  1085.48
 342  1096.072
 343  1031.541
 344  1038.085
 345  1136.813
 346  1313.651
 347  1297.795
 348  1110.248
 349  970.6874
 350  1039.869
 351  1172.28
 352  1132.872
 353  999.6477
 354  979.0135
 355  1059.264
 356  1079.429
 357  929.753
 358  786.2693
 359  758.113
 360  845.8072
 361  1034.421
 362  1085.231
 363  1130.759
 364  1107.917
 365  1051.173
 366  893.3066
 367  877.1718
 368  824.0154
 369  845.6628
 370  875.4212
 371  883.4827
 372  889.6984
 373  864.8322
 374  886.9048
 375  959.8484
 376  1070.303
 377  1017.234
 378  965.8175
 379  907.0048
 380  956.9785
 381  949.4808
 382  962.3478
 383  924.3864
 384  922.4127
 385  1029.971
 386  1076.973
 387  959.707
 388  929.5471
 389  1028.822
 390  1144.831
 391  1033.193
 392  874.6946
 393  876.8413
 394  952.4012
 395  959.437
 396  918.8362
 397  898.6536
 398  838.7968
 399  805.1441
 400  821.3123
 401  956.6786
 402  979.9791
 403  1051.417
 404  973.4836
 405  954.5189
 406  961.6638
 407  972.178
 408  947.8082
 409  908.9996
 410  893.1716
 411  823.212
 412  805.8718
 413  803.3803
 414  920.7033
 415  995.3452
 416  1137.387
 417  1165.95
 418  1133.054
 419  1006.371
 420  993.7149
 421  1082.656
 422  1129.906
 423  1013.209
 424  917.4913
 425  865.2521
 426  935.165
 427  901.5834
 428  898.838
 429  974.9414
 430  1082.06
 431  1090.157
 432  1028.504
 433  953.0364
 434  882.3584
 435  853.2624
 436  846.1749
 437  911.7894
 438  929.6125
 439  928.3947
 440  889.162
 441  855.1031
 442  812.8422
 443  819.1446
 444  931.871
 445  1013.574
 446  1084.228
 447  1090.23
 448  1113.737
 449  996.3206
 450  1000.214
 451  905.4267
 452  956.4545
 453  960.9724
 454  1154.146
 455  1251.514
 456  1210.28
 457  984.1816
 458  979.9302
 459  1070.918
 460  1219.826
 461  1079.176
 462  972.3641
 463  866.3153
 464  853.0355
 465  863.9384
 466  932.5052
 467  895.694
 468  999.0165
 469  1031.574
 470  1028.146
 471  972.3315
 472  992.5273
 473  992.0453
 474  959.3799
 475  933.204
 476  958.3015
 477  1018.716
 478  1048.578
 479  1015.224
 480  1071.183
 481  1075.225
 482  1056.957
 483  970.5286
 484  1002.057
 485  950.511
 486  921.8442
 487  877.1693
 488  795.8663
 489  737.8499
 490  769.9934
 491  890.4443
 492  965.0295
 493  877.6443
 494  886.1868
 495  867.7128
 496  960.3235
 497  931.0255
 498  967.6451
 499  941.4892
 500  963.5905
 501  908.2941
 502  915.1984
 503  730.6782
 504  718.0212
 505  771.8906
 506  788.113
 507  791.4395
 508  827.8909
 509  863.2386
 510  853.0945
 511  793.534
 512  897.4705
 513  990.0437
 514  1139.479
 515  1154.901
 516  1110.484
 517  1125.488
 518  1115.57
 519  1188.44
 520  1186.086
 521  1150.509
 522  1145.35
 523  1082.452
 524  1066.306
 525  942.4117
 526  955.2295
 527  1019.86
 528  1030.368
 529  1019.841
 530  1029.833
 531  1032.405
 532  1105.653
 533  1183.306
 534  1304.916
 535  1319.294
 536  1302.753
 537  1182.981
 538  1090.761
 539  1064.96
 540  1006.024
 541  1068.742
 542  1049.505
 543  1058.916
 544  973.1995
 545  1062.923
 546  1061.879
 547  1035.025
 548  838.6276
 549  745.7808
 550  740.3687
 551  871.9612
 552  1001.362
 553  1123.017
 554  1153.214
 555  1151.794
 556  1091.198
 557  1041.271
 558  1059.734
 559  1036.158
 560  1090.796
 561  1001.211
 562  1026.097
 563  1020.674
 564  963.0161
 565  960.7404
 566  969.1547
 567  1029.054
 568  982.9791
 569  952.8029
 570  938.5931
 571  864.0539
 572  779.9855
 573  759.9586
 574  873.6171
 575  1034.585
 576  1081.075
 577  1064.01
 578  1036.16
 579  1043.461
 580  993.581
 581  1018.37
 582  1029.311
 583  1059.23
 584  1036.339
 585  1011.368
 586  965.3983
 587  869.0764
 588  885.4426
 589  780.8483
 590  658.0492
 591  694.3951
 592  843.4158
 593  1056.291
 594  1048.284
 595  1182.789
 596  1101.053
 597  1076.488
 598  915.85
 599  783.5876
 600  769.4791
 601  777.1839
 602  891.184
 603  835.9114
 604  872.3468
 605  851.0483
 606  974.6461
 607  967.9669
 608  941.0956
 609  875.4228
 610  937.3019
 611  924.5965
 612  833.2567
 613  744.0598
 614  616.628
 615  688.6006
 616  747.2618
 617  904.947
 618  816.2154
 619  736.8928
 620  744.4243
 621  813.1219
 622  838.6522
 623  839.1081
 624  891.2446
 625  1107.506
 626  1146.637
 627  1040.041
 628  813.519
 629  704.465
 630  702.0767
 631  829.24
 632  898.6409
 633  880.1364
 634  917.1135
 635  1026.501
 636  1044.727
 637  944.3069
 638  964.7077
 639  996.978
 640  1043.82
 641  1012.594
 642  984.6573
 643  1118.096
 644  1140.385
 645  1170.157
 646  1085.011
 647  1118.657
 648  1145.109
 649  1170.25
 650  1204.59
 651  1131.506
 652  1169.544
 653  1184.23
 654  1135.276
 655  934.2643
 656  963.5572
 657  1038.747
 658  1122.65
 659  1086.842
 660  1008.759
 661  962.2952
 662  946.5804
 663  1050.76
 664  1161.2
 665  1212.991
 666  1197.643
 667  1226.09
 668  1239.912
 669  1146.281
 670  1180.563
 671  1216.16
 672  1132.834
 673  1041.497
 674  1010.879
 675  1076.22
 676  1100.178
 677  1091.713
 678  1162.018
 679  1106.266
 680  1091.34
 681  1039.163
 682  1027.412
 683  1052.025
 684  1050.259
 685  1191.786
 686  1259.57
 687  1423.382
 688  1462.392
 689  1486.798
 690  1442.207
 691  1465.882
 692  1497.126
 693  1455.965
 694  1381.909
 695  1143.593
 696  1117.169
 697  1191.607
 698  1265.669
 699  1247.529
 700  1181.935
 701  1309.998
 702  1376.005
 703  1352.023
 704  1150.885
 705  1097.288
 706  1193.534
 707  1281.485
 708  1241.732
 709  1051.823
 710  1001.338
 711  1137.557
 712  1311.83
 713  1408.198
 714  1340.36
 715  1362.577
 716  1265.275
 717  1246.737
 718  1328.753
 719  1339.084
 720  1302.723
 721  1222.219
 722  1287.788
 723  1253.195
 724  1221.278
 725  1196.587
 726  1144.027
 727  1075.326
 728  1086.63
 729  1050.061
 730  1133.706
 731  1197.304
 732  1219.402
 733  1137.238
 734  1127.169
 735  1157.675
 736  1217.974
 737  1098.317
 738  1046.11
 739  1015.977
 740  1063.463
 741  1152.089
 742  1160.363
 743  1201.509
 744  1207.391
 745  1129.748
 746  1133.122
 747  1165.429
 748  1395.276
 749  1497.793
 750  1518.428
 751  1530.997
 752  1659.6
 753  1691.093
 754  1793.334
 755  1921.458
 756  2091.509
 757  1859.68
 758  1619.391
 759  1412.187
 760  1380.964
 761  1405.577
 762  1487.113
 763  1368.597
 764  1272.578
 765  1137.114
 766  1158.502
 767  972.5647
 768  960.7418
 769  1011.72
 770  1095.11
 771  1045.681
 772  1031.481
 773  1063.494
 774  1078.747
 775  1111.745
 776  1074.492
 777  1104.323
 778  1039.217
 779  1024.297
 780  921.1364
 781  855.8682
 782  786.3279
 783  834.4692
 784  874.9393
 785  898.6983
 786  1037.145
 787  1161.2
 788  1130.938
 789  1014.268
 790  1072.157
 791  1133.343
 792  1126.918
 793  1021.031
 794  915.7088
 795  794.2094
 796  784.0107
 797  865.0298
 798  970.5175
 799  1046.997
 800  1082.854
 801  1136.71
 802  1164.904
 803  1135.53
 804  1009.613
 805  938.4536
 806  1094.301
 807  1164.437
 808  1099.345
 809  977.6133
 810  1059.4
 811  1241.387
 812  1225.123
 813  1205.957
 814  1211.972
 815  1211.553
 816  1166.578
 817  1096.488
 818  964.993
 819  1076.887
 820  1121.76
 821  1157.577
 822  982.5446
 823  904.1753
 824  930.4335
 825  1062.318
 826  1129.064
 827  1148.431
 828  1137.83
 829  1205.156
 830  1033.358
 831  878.7297
 832  765.5645
 833  805.1765
 834  806.3422
 835  767.9557
 836  730.4326
 837  818.1239
 838  884.5856
 839  973.2889
 840  966.0272
 841  991.6371
 842  1036.127
 843  1139.09
 844  1234.287
 845  1362.2
 846  1253.36
 847  1120.232
 848  990.4131
 849  1095.117
 850  1103.211
 851  1117.703
 852  996.1954
 853  1024.595
 854  1068.624
 855  1034.643
 856  997.7734
 857  1004.707
 858  1177.283
 859  1179.424
 860  1268.154
 861  1236.95
 862  1265.375
 863  1190.186
 864  1258.373
 865  1197.794
 866  1314.208
 867  1241.365
 868  1268.984
 869  1184.451
 870  1208.238
 871  1082.687
 872  1004.144
 873  1052.763
 874  1120.007
 875  1136.352
 876  1099.495
 877  1001.987
 878  858.866
 879  782.9227
 880  823.4471
 881  886.2926
 882  1067.926
 883  1131.273
 884  1080.314
 885  950.9524
 886  953.6689
 887  1009.339
 888  1063.246
 889  1071.27
 890  1093.577
 891  1092.037
 892  1194.172
 893  1328.322
 894  1316.767
 895  1187.447
 896  949.6976
 897  1060.178
 898  1154.001
 899  1289.222
 900  1158.92
 901  993.9127
 902  1026.573
 903  1023.046
 904  1055.627
 905  984.8303
 906  1048.131
 907  1108.362
 908  1035.744
 909  1018.413
 910  1032.664
 911  1241.699
 912  1296.121
 913  1255.264
 914  1187.023
 915  1187.654
 916  1291.413
 917  1206.115
 918  1247.544
 919  1180.938
 920  1188.519
 921  1044.476
 922  1004.899
 923  932.3651
 924  1045.937
 925  1032.648
 926  1077.455
 927  1024.897
 928  1016.836
 929  981.8278
 930  1039.407
 931  1117.213
 932  1168.637
 933  1153.425
 934  1170.167
 935  1205.026
 936  1114.031
 937  1042.712
 938  992.7136
 939  1078.457
 940  1117.79
 941  1119.458
 942  1081.6
 943  1102.901
 944  1077.398
 945  1027.398
 946  957.0668
 947  934.1437
 948  998.1155
 949  1050.387
 950  1124.546
 951  1011.413
 952  891.3846
 953  831.5911
 954  874.0915
 955  981.541
 956  955.3618
 957  997.373
 958  933.4092
 959  930.8524
 960  860.368
 961  916.8549
 962  970.915
 963  1044.354
 964  1118.607
 965  1068.412
 966  1029.393
 967  1016.864
 968  1041.393
 969  1002.641
 970  948.3829
 971  975.0991
 972  951.1476
 973  992.2684
 974  831.8889
 975  756.9432
 976  734.7023
 977  841.2056
 978  840.6232
 979  863.1196
 980  943.5693
 981  1118.172
 982  1114.059
 983  1015.956
 984  1006.847
 985  1106.235
 986  1093.047
 987  961.8246
 988  1005.295
 989  1134.852
 990  1264.082
 991  1240.219
 992  1121.921
 993  1052.403
 994  1012.559
 995  1036.875
 996  1099.981
 997  1201.204
 998  1361.488
 999  1265.899
1000  1231.913
1001  1130.546
1002  1148.21
1003  1079.886
1004  967.5105
1005  941.2173
1006  960.9936
1007  1110.259
1008  1083.892
1009  1001.253
1010  943.0671
1011  836.1696
1012  931.8174
1013  862.642
1014  960.9093
1015  982.9116
1016  1054.385
1017  1069.507
1018  990.1327
1019  948.0639
1020  1004.724
1021  985.4994
1022  928.7773
1023  922.3193
