# Input file       =  1180767674.113528_cleaned.dat
# Candidate        =  PSR_0332+5434
# Telescope        =  AR
# Epoch_topo       =  57910.292744369537
# Epoch_bary       =  N/A
# T_sample         =  0.002
# Data Folded      =  7340032
# Data Avg         =  0.0643223572302046
# Data StdDev      =  2.24590866222246 
# Profile Bins     =  512
# Profile Avg      =  921.514586564073 
# Profile StdDev   =  268.909463552776 
# Reduced chi-sqr  =  1.688
# Prob(Noise)      <  1.92e-20   (~9.2 sigma)
# P_topo (ms)      =  714.511455934935  +/- 0.000278
# P'_topo (s/s)    =  -0                +/- 1.47e-10
# P''_topo (s/s^2) =  0                 +/- 6.47e-14
# P_bary (ms)      =  N/A
# P'_bary (s/s)    =  N/A
# P''_bary (s/s^2) =  N/A
# P_orb (s)        =  N/A
# asin(i)/c (s)    =  N/A
# eccentricity     =  N/A
# w (rad)          =  N/A
# T_peri           =  N/A
######################################################
   0  756.7769
   1  648.597
   2  760.7783
   3  1010.467
   4  978.4715
   5  852.7914
   6  800.9427
   7  752.8491
   8  738.1519
   9  1103.661
  10  1120.047
  11  795.6949
  12  873.9376
  13  1124.273
  14  1087.344
  15  1064.411
  16  996.6387
  17  1093.16
  18  1037.722
  19  779.6771
  20  845.5872
  21  1165.054
  22  954.1843
  23  1082.625
  24  1054.263
  25  940.2333
  26  852.2792
  27  1378.593
  28  1026.711
  29  879.6689
  30  1039.571
  31  1104.885
  32  1225.726
  33  1121.074
  34  1254.206
  35  1281.316
  36  1003.27
  37  1335.741
  38  1154.972
  39  1362.704
  40  1198.028
  41  1115.559
  42  1082.387
  43  1082
  44  1017.871
  45  1323.193
  46  1529.914
  47  2011.321
  48  2520.652
  49  2881.574
  50  2485.434
  51  1995.007
  52  1288.846
  53  926.5581
  54  957.0151
  55  755.883
  56  712.0027
  57  1064.757
  58  1102.537
  59  1095.863
  60  950.5267
  61  1168.724
  62  973.7153
  63  957.8936
  64  1068.837
  65  889.0204
  66  1176.106
  67  1026.925
  68  958.2615
  69  936.9533
  70  1106.236
  71  860.824
  72  643.851
  73  721.2481
  74  468.1443
  75  462.1248
  76  735.0966
  77  745.8869
  78  678.4562
  79  648.6326
  80  877.5311
  81  863.5204
  82  818.3412
  83  829.5908
  84  861.4218
  85  622.3759
  86  660.7453
  87  1030.473
  88  928.079
  89  728.7948
  90  577.9635
  91  702.7808
  92  952.4675
  93  783.6111
  94  831.0638
  95  666.2662
  96  337.3523
  97  541.4755
  98  878.1766
  99  939.8489
 100  939.7707
 101  669.2745
 102  625.2445
 103  459.4946
 104  564.8931
 105  780.6603
 106  779.1784
 107  726.2691
 108  591.1028
 109  582.2717
 110  623.6383
 111  856.9126
 112  1000.239
 113  965.2175
 114  830.5605
 115  760.3026
 116  871.5287
 117  989.6172
 118  766.0479
 119  833.5261
 120  755.9742
 121  812.6923
 122  719.5621
 123  729.454
 124  1095.934
 125  1020.355
 126  962.494
 127  784.4213
 128  900.06
 129  898.374
 130  994.3231
 131  1149.221
 132  1174.574
 133  1140.524
 134  1155.784
 135  1324.14
 136  961.0673
 137  1099.057
 138  1149.978
 139  1296.362
 140  1200.716
 141  1134.67
 142  1242.196
 143  867.3735
 144  924.4741
 145  1100.354
 146  1152.726
 147  1135.647
 148  913.4843
 149  852.4527
 150  1019.543
 151  1077.049
 152  867.1503
 153  679.2349
 154  475.4413
 155  884.2641
 156  1231.185
 157  945.9567
 158  904.6866
 159  1082.889
 160  1145.1
 161  1088.326
 162  940.6579
 163  885.1945
 164  1135.792
 165  1083.749
 166  862.4245
 167  664.2233
 168  787.494
 169  959.8569
 170  1061.985
 171  1057.697
 172  971.2805
 173  935.8396
 174  963.4559
 175  899.0346
 176  907.8401
 177  968.4565
 178  1022.441
 179  1087.288
 180  1021.468
 181  911.4805
 182  849.1243
 183  1034.763
 184  1329.208
 185  943.2028
 186  553.4625
 187  487.4551
 188  871.1414
 189  591.8703
 190  606.0312
 191  708.1483
 192  571.9608
 193  427.9269
 194  561.3953
 195  730.9595
 196  867.7811
 197  993.3238
 198  768.0462
 199  940.3462
 200  1246.663
 201  1110.928
 202  958.7133
 203  945.7814
 204  992.0299
 205  899.274
 206  968.5292
 207  1194.838
 208  1143.698
 209  1024.549
 210  889.2997
 211  964.3068
 212  1080.215
 213  1019.813
 214  1248.287
 215  1015.196
 216  984.3019
 217  1133.903
 218  834.1781
 219  846.0441
 220  1173.216
 221  1070.036
 222  882.6035
 223  1023.761
 224  984.218
 225  810.8849
 226  878.9513
 227  747.2
 228  637.624
 229  578.7538
 230  784.773
 231  1025.507
 232  1103.62
 233  999.6071
 234  655.6361
 235  436.6466
 236  270.5303
 237  459.6019
 238  800.1234
 239  912.7779
 240  757.345
 241  653.5209
 242  858.7775
 243  776.4468
 244  515.5969
 245  563.8254
 246  637.9672
 247  807.5242
 248  795.4874
 249  659.7312
 250  762.6558
 251  661.8132
 252  802.298
 253  1066.106
 254  640.9484
 255  578.7866
 256  666.0017
 257  654.0904
 258  954.6782
 259  1078.806
 260  964.205
 261  669.2411
 262  743.9188
 263  803.1669
 264  740.7255
 265  1004.518
 266  851.0744
 267  617.7435
 268  804.0211
 269  688.666
 270  902.5081
 271  1046.546
 272  801.0547
 273  765.9575
 274  732.7512
 275  861.3575
 276  790.3182
 277  599.3203
 278  694.1097
 279  613.3602
 280  654.6708
 281  562.7155
 282  683.7391
 283  1029.318
 284  843.0894
 285  690.8171
 286  588.7422
 287  688.8835
 288  947.2176
 289  795.9542
 290  884.2708
 291  1108.43
 292  1103.219
 293  1021.027
 294  813.2188
 295  879.462
 296  892.3622
 297  787.1649
 298  955.7078
 299  938.1335
 300  1013.32
 301  930.8422
 302  748.3521
 303  935.3434
 304  1012.241
 305  1105.175
 306  1052.614
 307  1184.532
 308  1310.084
 309  1058.554
 310  1143.816
 311  1035.879
 312  1084.807
 313  1269.788
 314  1454.515
 315  1098.623
 316  1012.956
 317  960.6431
 318  914.4879
 319  761.659
 320  854.3434
 321  1203.52
 322  1303.269
 323  1109.362
 324  980.9233
 325  1090.104
 326  996.6652
 327  742.7414
 328  806.5712
 329  970.5712
 330  708.6547
 331  765.0506
 332  771.5004
 333  732.7076
 334  880.4086
 335  781.8804
 336  523.0682
 337  924.8889
 338  960.9485
 339  456.8415
 340  676.2332
 341  1000.86
 342  1053.28
 343  1221.998
 344  1256.135
 345  1197.131
 346  1133.125
 347  1224.796
 348  1223.386
 349  1190.805
 350  1218.989
 351  1315.196
 352  1154.223
 353  1145.748
 354  729.5219
 355  909.6817
 356  1201.977
 357  953.6483
 358  739.9173
 359  715.2116
 360  735.8252
 361  884.0516
 362  762.3632
 363  635.8452
 364  658.0727
 365  794.8066
 366  1003.217
 367  870.8077
 368  991.4105
 369  912.6529
 370  976.3825
 371  959.2778
 372  1086.849
 373  1175.862
 374  987.334
 375  1136.825
 376  978.9545
 377  845.5604
 378  1105.356
 379  864.6667
 380  897.4433
 381  1116.686
 382  1327.457
 383  1429.81
 384  947.9003
 385  940.2744
 386  911.6017
 387  1125.096
 388  948.0405
 389  956.5375
 390  1039.419
 391  1031.77
 392  1041.154
 393  1105.584
 394  724.0126
 395  788.4803
 396  865.7321
 397  1048.664
 398  1101.97
 399  1103.292
 400  1096.888
 401  1307.75
 402  1387.376
 403  1270.62
 404  1292.196
 405  1381.383
 406  1274.368
 407  1245.224
 408  1172.34
 409  1222.842
 410  952.7386
 411  943.0237
 412  854.4162
 413  949.5537
 414  1047.694
 415  1089.719
 416  1203.614
 417  811.2161
 418  896.0123
 419  976.1927
 420  1007.019
 421  866.3953
 422  984.8812
 423  1012.784
 424  1099.55
 425  793.5393
 426  730.015
 427  860.9031
 428  1038.829
 429  1106.486
 430  1122.279
 431  868.8421
 432  928.7737
 433  874.467
 434  584.0078
 435  650.0831
 436  684.6451
 437  439.5912
 438  628.3081
 439  708.5323
 440  752.7442
 441  733.2101
 442  974.3328
 443  1262.342
 444  937.6817
 445  598.4675
 446  416.6043
 447  742.6733
 448  941.8336
 449  790.5175
 450  741.5441
 451  848.1907
 452  543.8813
 453  575.2449
 454  582.3416
 455  738.4767
 456  734.9901
 457  720.2667
 458  975.1615
 459  808.6877
 460  793.3973
 461  579.6848
 462  910.4868
 463  989.4147
 464  930.2455
 465  870.4277
 466  696.8042
 467  533.3897
 468  777.4946
 469  1067.74
 470  811.9559
 471  839.5316
 472  801.0803
 473  773.7421
 474  752.8458
 475  936.5886
 476  712.558
 477  839.5353
 478  827.2748
 479  742.2211
 480  621.8172
 481  659.8398
 482  927.8386
 483  823.9771
 484  876.1961
 485  905.3745
 486  889.2354
 487  800.3045
 488  859.4626
 489  857.4786
 490  1013.719
 491  942.9016
 492  790.9553
 493  1007.24
 494  1002.774
 495  942.5562
 496  1076.407
 497  728.9839
 498  834.9203
 499  1059.527
 500  883.5867
 501  681.4686
 502  844.0089
 503  880.5306
 504  837.4325
 505  539.2803
 506  617.1071
 507  636.9427
 508  743.2399
 509  826.1032
 510  774.2985
 511  612.7264
