# Input file       =  1180351768.120151_cleaned.dat
# Candidate        =  PSR_0332+5434
# Telescope        =  AR
# Epoch_topo       =  57905.479017594342
# Epoch_bary       =  N/A
# T_sample         =  0.002
# Data Folded      =  7340032
# Data Avg         =  0.9611511114885  
# Data StdDev      =  14.371521186071  
# Profile Bins     =  512
# Profile Avg      =  13779.1266146486 
# Profile StdDev   =  1720.7458689613  
# Reduced chi-sqr  =  0.856
# Prob(Noise)      <  0.992   (~0.0 sigma)
# P_topo (ms)      =  714.51644930252   +/- 0.000119
# P'_topo (s/s)    =  -0                +/- 6.26e-11
# P''_topo (s/s^2) =  0                 +/- 2.76e-14
# P_bary (ms)      =  N/A
# P'_bary (s/s)    =  N/A
# P''_bary (s/s^2) =  N/A
# P_orb (s)        =  N/A
# asin(i)/c (s)    =  N/A
# eccentricity     =  N/A
# w (rad)          =  N/A
# T_peri           =  N/A
######################################################
   0  13519.49
   1  13957.87
   2  16354.67
   3  16348.37
   4  17978.05
   5  16997.78
   6  17165.64
   7  15911.28
   8  14036.36
   9  13535.92
  10  13484.04
  11  14307.84
  12  15192.04
  13  15168.33
  14  15920.4
  15  14773.96
  16  14451.98
  17  13987.07
  18  14691.09
  19  15142.24
  20  14142.96
  21  14908.29
  22  15505.68
  23  14807.55
  24  15497.49
  25  14872.58
  26  14067.43
  27  14424.3
  28  14740.1
  29  14148.62
  30  13749.61
  31  14975.36
  32  14230.35
  33  14980.61
  34  16027.21
  35  16350.07
  36  14098.42
  37  13681.28
  38  13376.56
  39  14503.9
  40  13663.63
  41  14446.76
  42  14705.17
  43  14912.53
  44  14291.95
  45  13825.59
  46  14896.95
  47  13702.5
  48  14070.83
  49  12327.95
  50  13855.2
  51  14103.28
  52  14337.98
  53  15301.83
  54  15050.14
  55  15294.9
  56  15243.61
  57  14570.73
  58  15452.08
  59  15428.88
  60  14698.21
  61  15513.15
  62  15435.15
  63  13737.27
  64  12956.89
  65  12021.06
  66  12410.65
  67  13533.01
  68  14768.74
  69  14446.98
  70  14376.4
  71  14568.52
  72  13428.96
  73  13024.61
  74  13624.55
  75  13692.72
  76  12917.83
  77  11700.87
  78  12782.97
  79  13756.71
  80  12328.92
  81  12796.62
  82  12431.11
  83  12398.36
  84  13393.65
  85  15235.56
  86  14942.37
  87  13868.44
  88  13920.44
  89  14527.57
  90  12423.53
  91  13711.68
  92  15395.52
  93  14446.67
  94  13741.52
  95  11471.57
  96  12136.76
  97  12896.12
  98  13887.88
  99  13937.77
 100  13869.74
 101  15255.55
 102  15897.37
 103  14687.54
 104  12386.2
 105  12547.63
 106  13304.52
 107  13276.39
 108  15174.18
 109  15709.37
 110  15367.42
 111  15273.14
 112  13374.8
 113  13319.51
 114  13327.99
 115  12850.6
 116  14771.24
 117  13518.47
 118  13928.43
 119  15100.91
 120  13569.79
 121  14814.2
 122  16592.19
 123  14770.8
 124  14237.3
 125  13391.37
 126  13771.46
 127  11157.91
 128  12313.13
 129  13646.29
 130  14023.42
 131  14795.32
 132  12354
 133  13858.2
 134  14255.04
 135  13158.59
 136  11920.15
 137  11808.97
 138  13599.11
 139  12592.85
 140  12647.66
 141  14316.67
 142  14746.49
 143  14842.68
 144  12702.17
 145  12837.35
 146  12680.99
 147  10400.85
 148  11625.08
 149  13742.65
 150  13254.39
 151  13249.47
 152  13624.2
 153  12131.84
 154  11891.52
 155  13075.44
 156  12642.4
 157  10908.59
 158  12771.3
 159  13570.77
 160  13072.88
 161  13515.33
 162  13241.46
 163  12836.61
 164  12079.77
 165  12677.19
 166  13053.94
 167  12102.87
 168  13563.89
 169  12585.43
 170  13171.37
 171  12631.78
 172  13061.58
 173  13318.27
 174  13048.56
 175  12357.38
 176  13862.03
 177  14220.26
 178  14388.85
 179  13585.28
 180  14379.22
 181  13977.06
 182  13768.13
 183  14436.54
 184  14728.92
 185  13532.86
 186  13551.76
 187  14126.97
 188  13162.69
 189  13538.04
 190  12987.8
 191  13250.61
 192  15376.08
 193  16142.83
 194  14975.21
 195  14891.63
 196  13275.25
 197  11752.22
 198  11443.72
 199  12143.81
 200  12979.07
 201  13458.15
 202  13472.57
 203  14827.76
 204  13569.92
 205  13788.32
 206  14855.18
 207  13451.4
 208  11863.15
 209  12663.85
 210  13619.81
 211  13927.48
 212  12527.78
 213  14499
 214  13693.15
 215  13248.31
 216  14365.52
 217  12538.28
 218  10796.93
 219  14146.41
 220  15249.34
 221  13873.29
 222  13703.88
 223  13457.75
 224  13716.08
 225  12622.13
 226  13001.25
 227  14285.94
 228  13789.39
 229  14109.1
 230  15345.05
 231  14910.89
 232  13601.04
 233  13262.51
 234  13731.86
 235  12220.24
 236  13434.63
 237  13689.54
 238  13552
 239  15135.28
 240  15054.34
 241  14600.48
 242  13526.83
 243  13473.17
 244  12490.9
 245  11613.03
 246  13709.67
 247  12581.11
 248  11816.27
 249  10987.11
 250  13453.37
 251  14094.88
 252  14560.71
 253  15684.95
 254  14122.58
 255  13779.18
 256  13437.02
 257  14244.53
 258  15185.48
 259  14818.42
 260  14640.19
 261  14898.24
 262  14333.64
 263  13364.58
 264  11802.67
 265  12641.4
 266  13458.77
 267  11203.75
 268  12549.94
 269  13768.08
 270  14411.22
 271  14721.6
 272  15306.27
 273  14921.06
 274  14835.49
 275  14757.34
 276  13261.27
 277  11922.18
 278  11912.17
 279  13315.5
 280  13568.8
 281  14565.24
 282  15067.76
 283  13530.27
 284  11666.35
 285  11896.49
 286  12039.4
 287  12503.67
 288  15347.38
 289  16457.35
 290  15185.12
 291  13450.78
 292  13724.49
 293  13069.76
 294  13174.03
 295  13991.46
 296  14026.32
 297  15232.48
 298  14881.54
 299  13931.98
 300  12611.93
 301  11406.9
 302  11251.18
 303  12437.42
 304  14932.86
 305  14126.29
 306  13609.02
 307  14077.87
 308  13598.08
 309  12606.51
 310  13261.73
 311  13522.55
 312  14656.52
 313  17742.65
 314  17037.12
 315  15271.03
 316  13960.69
 317  13071.08
 318  13045.23
 319  12060.18
 320  12878.82
 321  14960.69
 322  15797.13
 323  15491.99
 324  14849.33
 325  13696.48
 326  14072.09
 327  14773.84
 328  14448.33
 329  16234.98
 330  15385.1
 331  14664.53
 332  13912.3
 333  12191.71
 334  10973.76
 335  12457.4
 336  12887.02
 337  14152.89
 338  14231.72
 339  15359.51
 340  14473.52
 341  11713.2
 342  11996.91
 343  12776.51
 344  13240.25
 345  12809.29
 346  14263.24
 347  14241.76
 348  14018
 349  12916.77
 350  13494.34
 351  11939.86
 352  11120.8
 353  13470.68
 354  12794.19
 355  12232.46
 356  10937.84
 357  11997.69
 358  14195.24
 359  13720.82
 360  14017.79
 361  13615.4
 362  14174.8
 363  15951.43
 364  15466.1
 365  15038.77
 366  13711.07
 367  13311.23
 368  14312.92
 369  14991.81
 370  14908.58
 371  15168.05
 372  13888.23
 373  13066.11
 374  13645.48
 375  11983.77
 376  13120.38
 377  13892.54
 378  12536.42
 379  13271.98
 380  15119.43
 381  16574.63
 382  14604.11
 383  12396.93
 384  12031.56
 385  12885.72
 386  12648.43
 387  12656.36
 388  12947.58
 389  12191.52
 390  12709.19
 391  11995.47
 392  13783.83
 393  14232.86
 394  15488.2
 395  15246.82
 396  14694.16
 397  15597.65
 398  13741.71
 399  13807.71
 400  13929.82
 401  11865.85
 402  13362.18
 403  14408.43
 404  13370.25
 405  13481.61
 406  12254.76
 407  13832.96
 408  11682.05
 409  12980.6
 410  14130.95
 411  13913.22
 412  14195.16
 413  14399.38
 414  14135.9
 415  13419.48
 416  14129.46
 417  14400.98
 418  13783.11
 419  13435.36
 420  14703.19
 421  15079.29
 422  11955.69
 423  12914.66
 424  13852.99
 425  13102.02
 426  13418.95
 427  13462.98
 428  14414.02
 429  13763.89
 430  14026.3
 431  13613.67
 432  13208.93
 433  13313.83
 434  12425.03
 435  13588.81
 436  13991.22
 437  12855.82
 438  12750.97
 439  13698.18
 440  14746.24
 441  14416.02
 442  12810.59
 443  12631.16
 444  13340.15
 445  13984.96
 446  14208.8
 447  14107.91
 448  14076.75
 449  14029.43
 450  13138.5
 451  12807.94
 452  13164.25
 453  13199.22
 454  13377.31
 455  14034.37
 456  13530.5
 457  12680.6
 458  13662.54
 459  13113
 460  14115.79
 461  14603.6
 462  13946.38
 463  13945.65
 464  14001.45
 465  13928.83
 466  12381.68
 467  11537.84
 468  12764.23
 469  15144.01
 470  16453.1
 471  14142.28
 472  13482.78
 473  13065.27
 474  12675.66
 475  13255.43
 476  14224.72
 477  14472.27
 478  13960.69
 479  12944.32
 480  13503.74
 481  14005.79
 482  13999.95
 483  14764.88
 484  14402.97
 485  15606.49
 486  13686.84
 487  13541
 488  13937.18
 489  13047.72
 490  12869.66
 491  12446.31
 492  13030.28
 493  13943.11
 494  13952.34
 495  13792.38
 496  14158.87
 497  14511.85
 498  14875.87
 499  14719.56
 500  13785.24
 501  14802.55
 502  14490.61
 503  13650.24
 504  13892.88
 505  15022.1
 506  14538.85
 507  14333.92
 508  13579.14
 509  14751.73
 510  14458.9
 511  14579.57
