# Input file       =  1180351768.120151_cleaned.dat
# Candidate        =  PSR_0332+5434
# Telescope        =  AR
# Epoch_topo       =  57905.479017594342
# Epoch_bary       =  N/A
# T_sample         =  0.002
# Data Folded      =  7340032
# Data Avg         =  0.0680138343440311
# Data StdDev      =  1.00035018684577 
# Profile Bins     =  512
# Profile Avg      =  975.077732344392 
# Profile StdDev   =  119.774965311109 
# Reduced chi-sqr  =  1.245
# Prob(Noise)      <  0.000131   (~3.6 sigma)
# P_topo (ms)      =  714.516449364882  +/- 0.000166
# P'_topo (s/s)    =  -0                +/- 8.74e-11
# P''_topo (s/s^2) =  0                 +/- 3.86e-14
# P_bary (ms)      =  N/A
# P'_bary (s/s)    =  N/A
# P''_bary (s/s^2) =  N/A
# P_orb (s)        =  N/A
# asin(i)/c (s)    =  N/A
# eccentricity     =  N/A
# w (rad)          =  N/A
# T_peri           =  N/A
######################################################
   0  1092.83
   1  1007.276
   2  1066.451
   3  1028.664
   4  1117.062
   5  950.3608
   6  952.8706
   7  1113.342
   8  1088.121
   9  1060.79
  10  1006.993
  11  977.1661
  12  1066.757
  13  1059.5
  14  1017.902
  15  1058.922
  16  1032.992
  17  1011.249
  18  904.1308
  19  921.2175
  20  893.8887
  21  906.7736
  22  956.7881
  23  840.341
  24  901.199
  25  957.3415
  26  1013.591
  27  1045.293
  28  962.573
  29  948.9159
  30  818.3223
  31  858.2034
  32  1019.462
  33  1040.343
  34  908.8937
  35  962.4702
  36  877.5449
  37  779.7132
  38  758.5929
  39  907.4873
  40  984.5179
  41  879.4393
  42  923.038
  43  988.7285
  44  969.6807
  45  1010.139
  46  937.2861
  47  1027.43
  48  1070.159
  49  1056.349
  50  1107.16
  51  1038.158
  52  1008.337
  53  1071.772
  54  995.0777
  55  996.2115
  56  914.3906
  57  1017.4
  58  1066.443
  59  1123.763
  60  1025.372
  61  852.3592
  62  869.4758
  63  823.9139
  64  880.8612
  65  814.8055
  66  929.7207
  67  967.7747
  68  1046.767
  69  989.9009
  70  1056.535
  71  1025.27
  72  963.5143
  73  945.066
  74  771.0809
  75  830.8148
  76  921.891
  77  943.2169
  78  976.828
  79  957.9622
  80  907.3583
  81  887.0924
  82  1007.307
  83  995.5837
  84  888.3636
  85  950.2195
  86  1012.782
  87  963.5315
  88  1128.971
  89  984.7474
  90  1050.371
  91  992.7337
  92  1029.824
  93  1128.935
  94  1087.17
  95  1140.618
  96  1158.859
  97  1191.078
  98  1024.895
  99  1061.767
 100  1101.379
 101  1091.122
 102  1049.634
 103  1007.365
 104  1004.294
 105  1132.878
 106  1095.86
 107  1058.397
 108  1048.055
 109  988.8704
 110  922.731
 111  979.9763
 112  1104.511
 113  1008.703
 114  1011.759
 115  954.7641
 116  907.6302
 117  974.5198
 118  998.1541
 119  1059.221
 120  1004.819
 121  936.0293
 122  909.3303
 123  921.345
 124  1051.556
 125  943.9264
 126  981.7586
 127  1114.246
 128  960.1369
 129  993.8018
 130  947.8424
 131  964.5336
 132  1023.708
 133  1013.958
 134  1103.419
 135  1087.174
 136  1052.993
 137  1043.109
 138  1182.579
 139  1190.543
 140  1162.262
 141  1103.422
 142  991.1757
 143  947.525
 144  909.7728
 145  962.8154
 146  935.1348
 147  946.4767
 148  998.7417
 149  957.6205
 150  823.5983
 151  821.6275
 152  836.869
 153  959.8618
 154  1005.176
 155  1018.471
 156  1006.657
 157  931.4691
 158  859.0963
 159  843.6846
 160  940.826
 161  821.859
 162  753.8004
 163  899.0704
 164  865.4375
 165  893.311
 166  908.386
 167  848.1145
 168  871.3345
 169  914.755
 170  986.8467
 171  1032.553
 172  1015.769
 173  1000.866
 174  984.9473
 175  920.7975
 176  966.7232
 177  884.0442
 178  994.0436
 179  1111.557
 180  1165.1
 181  1081.281
 182  1018.476
 183  889.5984
 184  895.1547
 185  885.8987
 186  949.9088
 187  1029.042
 188  1169.376
 189  973.6732
 190  984.2339
 191  924.9321
 192  1035.248
 193  1226.742
 194  1269.151
 195  1438.722
 196  1426.423
 197  1184.384
 198  1061.401
 199  989.0148
 200  732.9852
 201  833.3748
 202  841.1414
 203  859.7281
 204  1008.137
 205  1061.272
 206  1025.65
 207  963.5557
 208  867.1857
 209  974.8154
 210  1066.036
 211  943.5718
 212  1036.795
 213  1045.69
 214  922.7841
 215  924.8826
 216  1012.743
 217  986.4058
 218  906.6782
 219  970.6689
 220  1046.255
 221  949.2445
 222  991.847
 223  1014.061
 224  1026.908
 225  956.085
 226  959.044
 227  911.5825
 228  901.0304
 229  987.7326
 230  1044.848
 231  1001.539
 232  910.3806
 233  900.3551
 234  956.6674
 235  982.0128
 236  1005.058
 237  1073.188
 238  1008.752
 239  926.803
 240  927.6946
 241  783.5569
 242  864.9609
 243  976.1582
 244  933.0392
 245  831.7805
 246  885.43
 247  901.1265
 248  1014.423
 249  903.3394
 250  910.9749
 251  878.9308
 252  733.558
 253  877.3004
 254  936.9463
 255  867.0107
 256  986.7136
 257  1010.439
 258  950.9789
 259  1012.286
 260  1113.97
 261  1252.303
 262  1189.661
 263  1230.697
 264  1128.871
 265  1060.73
 266  1070.11
 267  1069.381
 268  1044.638
 269  934.0399
 270  939.8943
 271  934.168
 272  921.7162
 273  924.259
 274  1000.356
 275  915.8821
 276  921.5273
 277  961.7901
 278  921.7183
 279  1008.311
 280  965.6253
 281  947.8284
 282  1045.018
 283  969.3788
 284  890.9432
 285  795.2154
 286  886.7541
 287  990.8463
 288  995.6529
 289  921.3514
 290  955.8743
 291  902.0536
 292  1076.805
 293  980.899
 294  1008.873
 295  951.0953
 296  895.7669
 297  900.2526
 298  959.4836
 299  1034.935
 300  1085.283
 301  1022.556
 302  1105.901
 303  1112.2
 304  957.3257
 305  958.3094
 306  1071.239
 307  1147.005
 308  1048.936
 309  987.3149
 310  993.5557
 311  992.3019
 312  995.9116
 313  952.7286
 314  1097.409
 315  1078.19
 316  977.3553
 317  1047.286
 318  966.7142
 319  943.3535
 320  889.4233
 321  943.0767
 322  937.8785
 323  917.4935
 324  986.7203
 325  920.762
 326  1043.632
 327  1100.623
 328  1020.803
 329  965.9312
 330  967.6497
 331  893.6956
 332  808.5374
 333  879.4907
 334  850.3871
 335  863.7051
 336  839.782
 337  910.3032
 338  776.6563
 339  789.3826
 340  733.0677
 341  814.5262
 342  911.9475
 343  914.0433
 344  873.3201
 345  841.226
 346  871.7977
 347  886.9222
 348  1012.224
 349  1036.723
 350  993.3079
 351  893.0591
 352  914.5549
 353  903.2822
 354  873.3688
 355  861.0315
 356  849.9324
 357  876.6087
 358  889.7025
 359  929.201
 360  997.0247
 361  983.9314
 362  1035.673
 363  919.9937
 364  874.4503
 365  1025.923
 366  999.5521
 367  861.3675
 368  936.013
 369  908.5826
 370  849.8268
 371  840.6897
 372  869.0507
 373  980.4955
 374  990.317
 375  1036.487
 376  1026.059
 377  907.5801
 378  853.536
 379  793.217
 380  1008.485
 381  1029.746
 382  1116.331
 383  1039.168
 384  1056.491
 385  925.8154
 386  909.5836
 387  972.728
 388  959.2682
 389  1083.674
 390  1062.273
 391  1011.016
 392  1060.886
 393  1102.104
 394  1062.469
 395  998.3596
 396  1007.405
 397  922.1957
 398  975.5392
 399  1073.99
 400  1079.09
 401  977.4364
 402  948.9513
 403  906.5474
 404  962.6155
 405  1016.507
 406  940.2313
 407  908.8671
 408  921.8499
 409  1042.293
 410  1053.229
 411  1014.57
 412  980.6103
 413  984.1054
 414  839.1161
 415  793.5419
 416  870.6158
 417  1084.025
 418  987.1191
 419  897.4993
 420  875.9749
 421  922.3379
 422  947.4955
 423  1046.635
 424  1066.556
 425  955.8706
 426  1090.601
 427  935.0267
 428  845.3303
 429  960.9881
 430  1006.571
 431  1075.801
 432  1074.038
 433  1139.325
 434  1150.251
 435  953.0022
 436  1058.161
 437  1192.112
 438  1056.531
 439  1033.868
 440  1166.163
 441  1144.894
 442  972.2307
 443  893.2229
 444  997.2144
 445  1040.813
 446  1056.754
 447  1042.179
 448  979.1674
 449  898.34
 450  819.6727
 451  839.8715
 452  859.5912
 453  907.7888
 454  840.285
 455  676.6966
 456  593.4234
 457  772.4932
 458  950.9517
 459  1017.987
 460  921.1787
 461  855.5973
 462  826.7675
 463  855.3376
 464  1075.408
 465  991.613
 466  941.8018
 467  965.4461
 468  892.825
 469  895.4747
 470  895.0698
 471  952.6503
 472  948.304
 473  867.4821
 474  959.4895
 475  942.0374
 476  1027.491
 477  1049.363
 478  1025.513
 479  1041.576
 480  1026.467
 481  1128.964
 482  1179.613
 483  982.3151
 484  1083.561
 485  1029.16
 486  1047.588
 487  1000.643
 488  983.4966
 489  1003.9
 490  854.2426
 491  826.9579
 492  867.2106
 493  913.2294
 494  972.5531
 495  991.2939
 496  1010.38
 497  1066.666
 498  1076.537
 499  1019.515
 500  1096.937
 501  956.3046
 502  948.4782
 503  986.5538
 504  1010.704
 505  858.2766
 506  927.336
 507  937.6599
 508  868.361
 509  999.1649
 510  996.2864
 511  1033.167
