# Input file       =  1180666906.099774_cleaned.dat
# Candidate        =  PSR_0332+5434
# Telescope        =  AR
# Epoch_topo       =  57909.126447914052
# Epoch_bary       =  N/A
# T_sample         =  0.002
# Data Folded      =  7143424
# Data Avg         =  0.250995383775203
# Data StdDev      =  5.80895853522826 
# Profile Bins     =  1024
# Profile Avg      =  1750.92896150427 
# Profile StdDev   =  485.178460842681 
# Reduced chi-sqr  =  0.419
# Prob(Noise)      <  1   (~0.0 sigma)
# P_topo (ms)      =  714.512565708789  +/- 0.00013
# P'_topo (s/s)    =  -0                +/- 7.07e-11
# P''_topo (s/s^2) =  0                 +/- 3.21e-14
# P_bary (ms)      =  N/A
# P'_bary (s/s)    =  N/A
# P''_bary (s/s^2) =  N/A
# P_orb (s)        =  N/A
# asin(i)/c (s)    =  N/A
# eccentricity     =  N/A
# w (rad)          =  N/A
# T_peri           =  N/A
######################################################
   0  1936.14
   1  1833.358
   2  1783.096
   3  1680.724
   4  1679.977
   5  1671.049
   6  1628.611
   7  1795.225
   8  1689.936
   9  1688.588
  10  1595.592
  11  1672.395
  12  1580.028
  13  1658.292
  14  1665.354
  15  1878.11
  16  1845.583
  17  1582.691
  18  1383.184
  19  1323.064
  20  1377.721
  21  1420.546
  22  1687.482
  23  1868.976
  24  2080.205
  25  2025.522
  26  1918.789
  27  1852.447
  28  1951.484
  29  2012.458
  30  2011.889
  31  1935.355
  32  1774.46
  33  1713.465
  34  1790.209
  35  1824.678
  36  1704.471
  37  1648.598
  38  1618.592
  39  1556.374
  40  1660.133
  41  1670.76
  42  1818.263
  43  1949.346
  44  1955.698
  45  1798.37
  46  1586.701
  47  1440.267
  48  1549.077
  49  1714.974
  50  1744.28
  51  1677.077
  52  1433.623
  53  1315.568
  54  1323.676
  55  1374.028
  56  1623.012
  57  1738.062
  58  1937.187
  59  1879.069
  60  1780.844
  61  1759.992
  62  1847.292
  63  1908.004
  64  1973.878
  65  1937.142
  66  1981.064
  67  1903.908
  68  1959.728
  69  1835.406
  70  1755.79
  71  1600.362
  72  1755.464
  73  1850.807
  74  1889.945
  75  1772.135
  76  1701.781
  77  1648.979
  78  1788.417
  79  1830.792
  80  2003.969
  81  1961.946
  82  1946.103
  83  2030.861
  84  1705.498
  85  1603.219
  86  1583.969
  87  1770.324
  88  1762.148
  89  1755.18
  90  1693.718
  91  1625.84
  92  1642.415
  93  1776.897
  94  1934.684
  95  1902.399
  96  1909.344
  97  1872.75
  98  2007.48
  99  2010.471
 100  1949.438
 101  1928.433
 102  2042.516
 103  1954.689
 104  1988.161
 105  1740.151
 106  1752.983
 107  1736.044
 108  1962.521
 109  1902.844
 110  1872.123
 111  1673.936
 112  1684.127
 113  1783.14
 114  1703.292
 115  1599.259
 116  1634.633
 117  1787.539
 118  1960.401
 119  1857.091
 120  1821.082
 121  1912.545
 122  1935.979
 123  1941.19
 124  1891.579
 125  1981.234
 126  1924.178
 127  1910.046
 128  1911.752
 129  1862.426
 130  1747.786
 131  1881.257
 132  1830.25
 133  1730.227
 134  1670.076
 135  1763.635
 136  1845.074
 137  1798.525
 138  1727.58
 139  1719.689
 140  1728.235
 141  1687.84
 142  1849.978
 143  1898.228
 144  1774.871
 145  1600.296
 146  1957.945
 147  2031.788
 148  2079.678
 149  1894.354
 150  1838.229
 151  1696.932
 152  1576.251
 153  1781.245
 154  1786.599
 155  1782.921
 156  1776.658
 157  1813.859
 158  1850.616
 159  1796.636
 160  1872.62
 161  1933.165
 162  1912.305
 163  1878.809
 164  1959.524
 165  1911.476
 166  1806.101
 167  1895.766
 168  1918.786
 169  1856.613
 170  1732.551
 171  1751.988
 172  1803.59
 173  1655.333
 174  1616.182
 175  1557.987
 176  1471.275
 177  1402.409
 178  1480.208
 179  1556.801
 180  1653.749
 181  1584.659
 182  1555.756
 183  1476.08
 184  1454.542
 185  1589.952
 186  1638.433
 187  1511.642
 188  1363.429
 189  1464.619
 190  1515.32
 191  1736.916
 192  1800.212
 193  1792.379
 194  1664.478
 195  1711.627
 196  1761.023
 197  1677.416
 198  1625.441
 199  1773.838
 200  1756.044
 201  1692.428
 202  1619.568
 203  1496.604
 204  1565.819
 205  1521.589
 206  1670.775
 207  1931.365
 208  1970.099
 209  1912.85
 210  1825.764
 211  1748.186
 212  1839.468
 213  1834.874
 214  1915.391
 215  1745.905
 216  1631.342
 217  1368.606
 218  1382.11
 219  1433.953
 220  1582.073
 221  1587.74
 222  1701.302
 223  1785.891
 224  1691.468
 225  1700.416
 226  1719.088
 227  1780.236
 228  1768.401
 229  1703.19
 230  1727.767
 231  1758.074
 232  1866.854
 233  1842.76
 234  1768.241
 235  1725.391
 236  1771.13
 237  1825.025
 238  1736.14
 239  1728.034
 240  1772.116
 241  1861.206
 242  1790.442
 243  1549.095
 244  1382.085
 245  1511.831
 246  1677.56
 247  1686.805
 248  1687.232
 249  1635.111
 250  1689.913
 251  1719.849
 252  1701.029
 253  1627.85
 254  1690.384
 255  1898.163
 256  1893.14
 257  1785.941
 258  1724.837
 259  1725.195
 260  1663.98
 261  1681.853
 262  1766.154
 263  1920.007
 264  2024.977
 265  1936.719
 266  1909.079
 267  1719.46
 268  1672.857
 269  1584.59
 270  1583.705
 271  1550.64
 272  1626.179
 273  1675.972
 274  1700.617
 275  1759.009
 276  1709.217
 277  1677.952
 278  1576.806
 279  1808.1
 280  1970.722
 281  1947.316
 282  1827.231
 283  1693.101
 284  1616.565
 285  1540.995
 286  1650.478
 287  1735.584
 288  1720.553
 289  1567.131
 290  1652.602
 291  1777.355
 292  1734.303
 293  1666.482
 294  1754.605
 295  1863.133
 296  1892.194
 297  1751.885
 298  1971.761
 299  1844.351
 300  1786.749
 301  1667.995
 302  1710.076
 303  1666.407
 304  1639.602
 305  1651.62
 306  1699.59
 307  1613.893
 308  1513.292
 309  1551.413
 310  1563.569
 311  1536.911
 312  1539.473
 313  1745.187
 314  1824.286
 315  1910.885
 316  1942.83
 317  1805.639
 318  1508.923
 319  1386.951
 320  1493.526
 321  1319.287
 322  1288.718
 323  1309.804
 324  1516.233
 325  1538.274
 326  1391.126
 327  1434.133
 328  1669.191
 329  1921.754
 330  2184.334
 331  2257.049
 332  2145.788
 333  2050.653
 334  2188.441
 335  2074.867
 336  1900.01
 337  1814.129
 338  1908.508
 339  1910.533
 340  1677.503
 341  1545.221
 342  1459.011
 343  1469.412
 344  1448.078
 345  1665.616
 346  1660.977
 347  1601.354
 348  1481.537
 349  1537.529
 350  1497.613
 351  1529.162
 352  1654.173
 353  1581.363
 354  1539.266
 355  1612.57
 356  1712.958
 357  1800.016
 358  1931.928
 359  2105.808
 360  2040.526
 361  1921.013
 362  1885.713
 363  1876.167
 364  1812.197
 365  1678.156
 366  1690.009
 367  1607.152
 368  1597.775
 369  1626.274
 370  1593.126
 371  1463.39
 372  1460.646
 373  1612.934
 374  1864.402
 375  1748.434
 376  1771.643
 377  1578.416
 378  1651.427
 379  1703.584
 380  1872.596
 381  1910.193
 382  1816.942
 383  1671.347
 384  1635.716
 385  1693.646
 386  1686.501
 387  1711.557
 388  1806.008
 389  1828.722
 390  1798.963
 391  1707.757
 392  1946.134
 393  2034.637
 394  2022.308
 395  1932.83
 396  1940.056
 397  2014.847
 398  2022.886
 399  2016.766
 400  1939.911
 401  1774.808
 402  1618.789
 403  1585.057
 404  1744.072
 405  1737.663
 406  1765.563
 407  1841.806
 408  1735.443
 409  1502.357
 410  1462.721
 411  1559.673
 412  1738.75
 413  1775.351
 414  1787.947
 415  1709.055
 416  1624.086
 417  1601.23
 418  1632.236
 419  1565.452
 420  1455.648
 421  1506.972
 422  1766.431
 423  1739.296
 424  1808.551
 425  1763.695
 426  1778.161
 427  1903.621
 428  2027.434
 429  1910.398
 430  1767.982
 431  1833.612
 432  2047.679
 433  2021.642
 434  1877.939
 435  1735.806
 436  1766.478
 437  1875.371
 438  1989.039
 439  2103.298
 440  2082.578
 441  1846.242
 442  1781.702
 443  1749.951
 444  1655.468
 445  1668.853
 446  1976.868
 447  2008.104
 448  1838.242
 449  1665.162
 450  1758.168
 451  1836.342
 452  1944.715
 453  1932.341
 454  1890.181
 455  1653.982
 456  1470.502
 457  1606.053
 458  1592.274
 459  1559.479
 460  1527.978
 461  1860.735
 462  2082.29
 463  1971.544
 464  2026.519
 465  1934.611
 466  1847.818
 467  1610.506
 468  1450.891
 469  1515.844
 470  1574.631
 471  1640.741
 472  1668.77
 473  1674.868
 474  1718.331
 475  1615.111
 476  1673.515
 477  1677.941
 478  1623.582
 479  1537.895
 480  1463.255
 481  1432.92
 482  1402.931
 483  1495.248
 484  1548.473
 485  1691.603
 486  1808.472
 487  1752.473
 488  1753.428
 489  1795.894
 490  1921.832
 491  1779.204
 492  1834.675
 493  1796.79
 494  1787.244
 495  1719.973
 496  1605.192
 497  1646.715
 498  1683.993
 499  1842.753
 500  1739.082
 501  1697.145
 502  1796.976
 503  1837.833
 504  1775.751
 505  1744.578
 506  1655.625
 507  1798.575
 508  1770.63
 509  1818.807
 510  1771.711
 511  1701.203
 512  1666.2
 513  1610.041
 514  1423.154
 515  1384.255
 516  1431.951
 517  1498.611
 518  1681.179
 519  1724.748
 520  1756.176
 521  1808.412
 522  2088.926
 523  2133.112
 524  1973.52
 525  1909.896
 526  1866.905
 527  1869.882
 528  1942.692
 529  1964.409
 530  1945.301
 531  1770.968
 532  1707.507
 533  1641.942
 534  1671.074
 535  1673.473
 536  1736.758
 537  1799.595
 538  1613.873
 539  1673.867
 540  1791.224
 541  1856.544
 542  1696.3
 543  1719.253
 544  1829.737
 545  1881.921
 546  1822.457
 547  1738.082
 548  1728.211
 549  1730.625
 550  1742.763
 551  1717.559
 552  1735.907
 553  1740.51
 554  1848.132
 555  2037.258
 556  2019.422
 557  1844.47
 558  1774.515
 559  1948.198
 560  2185.673
 561  2176.355
 562  2058.397
 563  1939.98
 564  1999.352
 565  1927.237
 566  1825.475
 567  1759.823
 568  1717.342
 569  1800.211
 570  1934.912
 571  1833.635
 572  1776.253
 573  1726.937
 574  1647.167
 575  1664.806
 576  1584.715
 577  1664.439
 578  1530.901
 579  1588.931
 580  1693.756
 581  1694.11
 582  1546.856
 583  1526.49
 584  1567.451
 585  1636.991
 586  1873.507
 587  1943.435
 588  1976.041
 589  1794.691
 590  1666.524
 591  1751.883
 592  1794.829
 593  1757.484
 594  1806.766
 595  2018.307
 596  2042.042
 597  1945.443
 598  1924.423
 599  1994.236
 600  1925.339
 601  1842.036
 602  1889.16
 603  1747.892
 604  1736.141
 605  1715.985
 606  1700.471
 607  1578.004
 608  1384.925
 609  1606.264
 610  1743.794
 611  1568.277
 612  1345.168
 613  1465.433
 614  1473.733
 615  1663.189
 616  1639.878
 617  1691.647
 618  1593.902
 619  1590.886
 620  1743.089
 621  1598.689
 622  1598.562
 623  1601.715
 624  1812.368
 625  2015.762
 626  1879.232
 627  1765.166
 628  1722.38
 629  1829.157
 630  1836.028
 631  1640.655
 632  1460.27
 633  1515.192
 634  1699.548
 635  1784.636
 636  1830.549
 637  1846.299
 638  1792.844
 639  1691.432
 640  1796.265
 641  1576.649
 642  1617.682
 643  1683.573
 644  1696.275
 645  1678.435
 646  1368.349
 647  1382.99
 648  1212.534
 649  1367.148
 650  1543.144
 651  1811.856
 652  1887.841
 653  1867.859
 654  1987.41
 655  2065.584
 656  2024.536
 657  1971.528
 658  2085.774
 659  2072.926
 660  1935.78
 661  1923.972
 662  1833.686
 663  1801.81
 664  1692.14
 665  1623.931
 666  1601.351
 667  1577.976
 668  1781.806
 669  1875.409
 670  1796.611
 671  1597.917
 672  1583.651
 673  1743.475
 674  1851.1
 675  1742.199
 676  1679.233
 677  1626.398
 678  1769.093
 679  1829.247
 680  1881.651
 681  1603.133
 682  1477.794
 683  1646.907
 684  1793.171
 685  1833.406
 686  1696.034
 687  1723.453
 688  1825.157
 689  1835.074
 690  1887.691
 691  1832.888
 692  1869.187
 693  1975.488
 694  2059.394
 695  2074.45
 696  1995.639
 697  1918.122
 698  2019.619
 699  2038.013
 700  1885.191
 701  1793.444
 702  1592.995
 703  1707.22
 704  1656.706
 705  1611.095
 706  1494.811
 707  1472.612
 708  1518.594
 709  1518.864
 710  1710.349
 711  1639.807
 712  1656.736
 713  1452.972
 714  1401.973
 715  1525.344
 716  1718.888
 717  1775.126
 718  1794.587
 719  1816.882
 720  1880.501
 721  1863.507
 722  2023.113
 723  2016.368
 724  2002.47
 725  2013.083
 726  2022.532
 727  1892.776
 728  1746.291
 729  1796.796
 730  1868.412
 731  1847.416
 732  1707.341
 733  1806.73
 734  1991.965
 735  2104.415
 736  2178.7
 737  2116.33
 738  1775.316
 739  1731.882
 740  1810.139
 741  1845.993
 742  1749.817
 743  1750.731
 744  1749.801
 745  1690.725
 746  1634.247
 747  1682.795
 748  1853.711
 749  1998.644
 750  2077.233
 751  1904.163
 752  2189.984
 753  2278.046
 754  2469.731
 755  2382.062
 756  2200.917
 757  2138.966
 758  2307.889
 759  2361.271
 760  2154.117
 761  1961.387
 762  1941.523
 763  1908.726
 764  1686.183
 765  1336.751
 766  1338.969
 767  1504.047
 768  1660.695
 769  1637.671
 770  1571.794
 771  1656.986
 772  1610.571
 773  1630.802
 774  1611.545
 775  1656.929
 776  1643.183
 777  1545.156
 778  1475.501
 779  1446.832
 780  1758.37
 781  1871.244
 782  1960.043
 783  1797.778
 784  1756.236
 785  1784.997
 786  1883.116
 787  1990.429
 788  2008.99
 789  1989.872
 790  1914.494
 791  1901.198
 792  1929.538
 793  1859.497
 794  1763.18
 795  1807.054
 796  1845.637
 797  1940.162
 798  1868.74
 799  1859.13
 800  1756.695
 801  1911.735
 802  2080.676
 803  2012.315
 804  1809.088
 805  1682.015
 806  1666.154
 807  1753.029
 808  1510.816
 809  1598.436
 810  1671.259
 811  1821.704
 812  1707.681
 813  1696.466
 814  1622.279
 815  1537.75
 816  1577.085
 817  1664.398
 818  1850.675
 819  1791.9
 820  1730.327
 821  1681.84
 822  1690.708
 823  1747.68
 824  1698.178
 825  1797.016
 826  1825.369
 827  1926.167
 828  2015.824
 829  1879.907
 830  1761.402
 831  1680.949
 832  1693.372
 833  1666.51
 834  1734.912
 835  1892.247
 836  2016.38
 837  1800.922
 838  1729.318
 839  1775.438
 840  1838.339
 841  1695.159
 842  1651.005
 843  1698.899
 844  1570.977
 845  1452.283
 846  1685.031
 847  1805.873
 848  1771.49
 849  1627.825
 850  1522.994
 851  1527.211
 852  1552.366
 853  1557.363
 854  1605.899
 855  1580.032
 856  1543.825
 857  1508.248
 858  1570.711
 859  1587.712
 860  1712.185
 861  1763.164
 862  1688.693
 863  1545.339
 864  1570.913
 865  1614.064
 866  1596.25
 867  1664.915
 868  1841.626
 869  1834.843
 870  1816.511
 871  1668.02
 872  1708.768
 873  1660.553
 874  1779.026
 875  1833.139
 876  1827.682
 877  1525.323
 878  1336.356
 879  1327.157
 880  1430.872
 881  1564.63
 882  1812.043
 883  2048.416
 884  2113.181
 885  1980.851
 886  1818.618
 887  1899.506
 888  1884.944
 889  1991.988
 890  1828.002
 891  1712.485
 892  1546.172
 893  1630.594
 894  1670.012
 895  1715.549
 896  1851.538
 897  1913.875
 898  2038.598
 899  1904.037
 900  1957.833
 901  1920.159
 902  1865.601
 903  1689.195
 904  1723.545
 905  1793.033
 906  1688.373
 907  1483.033
 908  1377.635
 909  1601.194
 910  1651.4
 911  1770.626
 912  1787.288
 913  1742.933
 914  1628.386
 915  1718.416
 916  1907.249
 917  1802.802
 918  1711.227
 919  1673.563
 920  1669.105
 921  1584.858
 922  1738.58
 923  1868.344
 924  1931.122
 925  1854.959
 926  1928.723
 927  1960.05
 928  1992.466
 929  2030.591
 930  1964.481
 931  1920.326
 932  1635.154
 933  1728.42
 934  1862.135
 935  1904.08
 936  1836.809
 937  1721.959
 938  1664.275
 939  1525.456
 940  1757.935
 941  1720.092
 942  1797.326
 943  1656.357
 944  1692.52
 945  1620.78
 946  1598.186
 947  1667.82
 948  1654.25
 949  1577.175
 950  1397.297
 951  1521.027
 952  1691.96
 953  1597.034
 954  1562.589
 955  1753.627
 956  1847.075
 957  1944.992
 958  1916.402
 959  2030.523
 960  1917.28
 961  1889.669
 962  1837.873
 963  1868.915
 964  1774.979
 965  1849.307
 966  1906.705
 967  1787.77
 968  1599.869
 969  1542.597
 970  1809.35
 971  1775.239
 972  1719.512
 973  1683.503
 974  1618.345
 975  1473.387
 976  1469.763
 977  1467.004
 978  1592.289
 979  1726.538
 980  1824.033
 981  1736.346
 982  1622.557
 983  1723.263
 984  1916.978
 985  1846.576
 986  1613.909
 987  1550.484
 988  1715.563
 989  1941.946
 990  1871.24
 991  1934.525
 992  1864.296
 993  1793.264
 994  1746.244
 995  1779.375
 996  1804.72
 997  1701.027
 998  1677.081
 999  1829.757
1000  1845.555
1001  1897.567
1002  1731.547
1003  1684.084
1004  1498.11
1005  1586.895
1006  1645.655
1007  1665.799
1008  1656.038
1009  1564.139
1010  1631.231
1011  1466.53
1012  1447.158
1013  1509.903
1014  1544.043
1015  1671.463
1016  1730.363
1017  1819.676
1018  1806.524
1019  1855.684
1020  1713.62
1021  1783.014
1022  1830.343
1023  1910.21
