# Input file       =  1180666906.099774-PSRB0329-2ms-sampling-dd.dat
# Candidate        =  PSR_0332+5434
# Telescope        =  AR
# Epoch_topo       =  57909.126447914052
# Epoch_bary       =  N/A
# T_sample         =  0.002
# Data Folded      =  7208960
# Data Avg         =  -1.0284142128079e-09
# Data StdDev      =  16.068029798514  
# Profile Bins     =  512
# Profile Avg      =  0.510007869705275
# Profile StdDev   =  1906.61917251756 
# Reduced chi-sqr  =  0.944
# Prob(Noise)      <  0.815   (~0.0 sigma)
# P_topo (ms)      =  714.512565709049  +/- 0.000336
# P'_topo (s/s)    =  -0                +/- 1.8e-10
# P''_topo (s/s^2) =  0                 +/- 8.1e-14
# P_bary (ms)      =  N/A
# P'_bary (s/s)    =  N/A
# P''_bary (s/s^2) =  N/A
# P_orb (s)        =  N/A
# asin(i)/c (s)    =  N/A
# eccentricity     =  N/A
# w (rad)          =  N/A
# T_peri           =  N/A
######################################################
   0  1761.902
   1  1280.896
   2  656.1169
   3  208.1849
   4  -652.7387
   5  -1290.731
   6  -1519.542
   7  -1750.721
   8  -2086.553
   9  -2253.59
  10  -1921.846
  11  -1769.392
  12  -1954.002
  13  -1791.606
  14  -2197.487
  15  -2384.463
  16  -1621.34
  17  -1175.677
  18  -1073.631
  19  -937.7984
  20  -639.8911
  21  -838.4635
  22  -1122.899
  23  -1265.336
  24  -49.94591
  25  261.3474
  26  38.75291
  27  121.2417
  28  -252.1779
  29  -896.0991
  30  -1011.255
  31  -390.7907
  32  -526.3411
  33  -857.535
  34  -848.5837
  35  -979.4504
  36  -33.94146
  37  421.9164
  38  729.9896
  39  427.3419
  40  -355.1161
  41  -591.6409
  42  -1384.72
  43  -1154.039
  44  -1031.651
  45  -857.6373
  46  -806.8799
  47  -1054.6
  48  -900.6546
  49  -552.8734
  50  -305.0882
  51  -26.0423
  52  1477.445
  53  1786.346
  54  2242.909
  55  2411.549
  56  1878.341
  57  1028.97
  58  1594.484
  59  2818.992
  60  3291.41
  61  3655.684
  62  2145.433
  63  998.1774
  64  -621.9277
  65  -1080.835
  66  -790.3648
  67  -1086.61
  68  -957.5566
  69  -1200.64
  70  -839.6055
  71  -775.9664
  72  -1022.923
  73  -981.3514
  74  -955.0143
  75  -568.5546
  76  -364.5911
  77  384.3338
  78  1058.382
  79  591.1897
  80  -70.0366
  81  -830.3024
  82  637.3712
  83  1650.287
  84  1867.634
  85  3075.037
  86  2971.775
  87  967.7198
  88  157.2236
  89  203.7443
  90  1187.312
  91  991.0384
  92  985.1346
  93  996.7291
  94  -603.2922
  95  -662.935
  96  -923.2436
  97  -954.7681
  98  -849.9857
  99  3.501891
 100  909.7936
 101  402.0367
 102  -69.26421
 103  -572.0165
 104  -329.7161
 105  77.57024
 106  -47.2181
 107  -231.8584
 108  -476.0386
 109  -708.0323
 110  977.7255
 111  1807.586
 112  1726.761
 113  1380.311
 114  187.4642
 115  -102.3854
 116  -710.05
 117  141.9594
 118  -128.36
 119  514.8605
 120  635.2844
 121  -133.6862
 122  -580.7898
 123  -560.6356
 124  -633.6558
 125  -1642.647
 126  -1435.223
 127  -944.6618
 128  -911.3484
 129  -909.1838
 130  -989.2186
 131  -1114.378
 132  -868.7067
 133  -705.0739
 134  -424.9689
 135  -353.8291
 136  -276.715
 137  -157.5996
 138  -891.4482
 139  -641.5574
 140  75.73145
 141  -442.3262
 142  -725.1019
 143  -803.0686
 144  -307.4578
 145  -758.3848
 146  -720.1991
 147  -517.5345
 148  -1016.44
 149  -1363.231
 150  -1702.872
 151  -1115.899
 152  -595.3495
 153  -463.6592
 154  -849.7814
 155  -1268.563
 156  -784.8024
 157  -660.3408
 158  -970.6841
 159  -1037.819
 160  -1228.745
 161  -1437.949
 162  -1255.292
 163  -779.1513
 164  -552.0454
 165  -672.5895
 166  -744.7441
 167  -845.5228
 168  -911.2662
 169  -1093.455
 170  -916.0615
 171  -1106.584
 172  -711.5408
 173  -925.8953
 174  -623.4128
 175  -171.761
 176  -164.338
 177  -105.2703
 178  -151.2879
 179  402.9942
 180  900.9466
 181  1628.473
 182  2345.077
 183  1998.801
 184  1053.964
 185  1487.914
 186  1299.32
 187  688.8987
 188  776.0351
 189  441.0736
 190  -468.7684
 191  -741.4044
 192  -1282.322
 193  -1057.672
 194  -1458.486
 195  -1456.739
 196  -824.5701
 197  -767.4096
 198  -59.33015
 199  -568.8833
 200  -823.5367
 201  -842.6002
 202  -435.8006
 203  -262.2466
 204  -632.6136
 205  -390.2398
 206  -420.621
 207  -1178.517
 208  -1531.727
 209  -1054.087
 210  226.5444
 211  1410.903
 212  1779.719
 213  2216.068
 214  1745.969
 215  805.7473
 216  -222.0563
 217  1786.683
 218  2753.429
 219  2533.98
 220  1024.668
 221  976.0135
 222  678.6003
 223  150.7461
 224  -156.9492
 225  530.3628
 226  682.1653
 227  980.4684
 228  2150.515
 229  1030.893
 230  854.915
 231  1068.074
 232  4413.075
 233  5467.468
 234  5139.968
 235  4437.491
 236  1038.48
 237  49.37373
 238  476.51
 239  1281.422
 240  1315.748
 241  856.929
 242  1116.297
 243  160.4481
 244  -336.8348
 245  848.6291
 246  1770.551
 247  2810.755
 248  3084.6
 249  2303.835
 250  1995.053
 251  1128.803
 252  87.60535
 253  -979.7211
 254  -1292.549
 255  -826.7795
 256  -1462.26
 257  -984.8978
 258  -975.041
 259  -1295.022
 260  -1155.792
 261  -1892.522
 262  -1763.809
 263  -1082.113
 264  -1174.52
 265  86.19755
 266  583.2092
 267  2246.748
 268  2910.711
 269  2473.934
 270  1632.228
 271  -878.7417
 272  249.6415
 273  1922.134
 274  1845.186
 275  1583.255
 276  974.8108
 277  -933.9662
 278  -1312.357
 279  -1093.536
 280  -656.2865
 281  -374.7722
 282  -622.1074
 283  42.96123
 284  474.0983
 285  862.2498
 286  1744.874
 287  1457.551
 288  1393.781
 289  107.3086
 290  1900.949
 291  3861.646
 292  5516.003
 293  5238.395
 294  4326.135
 295  3213.18
 296  1136.088
 297  2194.476
 298  2791.968
 299  2838.776
 300  4176.348
 301  2847.131
 302  1652.289
 303  -626.4349
 304  998.3374
 305  2901.594
 306  3773.76
 307  3143.944
 308  2255.654
 309  -728.7526
 310  -1244.417
 311  -54.30151
 312  908.4713
 313  1233.696
 314  1975.832
 315  1340.968
 316  212.5586
 317  173.3006
 318  1792.912
 319  2296.954
 320  2873.456
 321  2106.436
 322  1038.892
 323  -619.3237
 324  1324.437
 325  2225.798
 326  3221.628
 327  2799.978
 328  929.4028
 329  -528.8508
 330  -557.223
 331  -461.8406
 332  -74.15314
 333  405.256
 334  359.6098
 335  -467.0008
 336  -1104.532
 337  -185.0121
 338  836.454
 339  965.4863
 340  652.2557
 341  48.28737
 342  -508.768
 343  -1503.604
 344  -989.1455
 345  -1493.342
 346  -1351.313
 347  -510.2815
 348  -509.9492
 349  -693.9769
 350  -490.5722
 351  -261.3876
 352  -857.3949
 353  -1030.729
 354  -341.2612
 355  341.053
 356  843.3938
 357  887.0633
 358  1234.239
 359  367.18
 360  -1324.167
 361  -733.5218
 362  397.6422
 363  954.2289
 364  559.8959
 365  418.4249
 366  -251.6137
 367  -1186.139
 368  -962.0351
 369  -683.1746
 370  -353.7798
 371  -144.2747
 372  -161.7123
 373  -245.0504
 374  -1238.247
 375  -1039.646
 376  -996.6723
 377  -1291.633
 378  -906.6055
 379  -740.5551
 380  -807.1406
 381  -923.3853
 382  -522.1711
 383  -619.0322
 384  -1038.276
 385  -1188.926
 386  -1175.646
 387  -1233.217
 388  -606.8082
 389  -807.2289
 390  -1459.943
 391  -1637.772
 392  -1655.671
 393  -1527.999
 394  -1642.381
 395  -1736.747
 396  -1645.534
 397  -1611.746
 398  -1323.878
 399  -1072.495
 400  -823.2167
 401  -1390.798
 402  -1446.195
 403  -1457.896
 404  -1401.27
 405  -1622.114
 406  -1591.247
 407  -1335.712
 408  -1481.005
 409  -1058.785
 410  -658.4383
 411  -345.504
 412  -397.5812
 413  226.0299
 414  17.05111
 415  465.5011
 416  238.8192
 417  -237.3341
 418  -170.8029
 419  -463.5295
 420  -358.9767
 421  -527.7852
 422  -1224.891
 423  -879.9467
 424  -568.1305
 425  -861.3111
 426  -1161.386
 427  -1738.906
 428  -1394.767
 429  -1164.959
 430  -180.0097
 431  -370.9956
 432  -564.1147
 433  -913.8047
 434  -1221.004
 435  -1390.516
 436  -1360.924
 437  -1607.056
 438  -1431.785
 439  -1328.954
 440  -668.3705
 441  -497.5565
 442  122.8234
 443  -7.20014
 444  618.8602
 445  494.6646
 446  -843.1657
 447  -407.4559
 448  -171.1308
 449  430.8037
 450  -59.89467
 451  -559.8501
 452  -610.4691
 453  461.7968
 454  837.9667
 455  730.0026
 456  776.2737
 457  384.5388
 458  942.4218
 459  1396.562
 460  733.0513
 461  407.9194
 462  1028.94
 463  762.264
 464  756.801
 465  494.7946
 466  -181.4555
 467  -536.0878
 468  -1491.507
 469  -1133.838
 470  -1105.915
 471  -1181.933
 472  -489.6021
 473  -362.4357
 474  -265.4347
 475  -991.7274
 476  -1217.726
 477  -564.1992
 478  -741.4271
 479  -772.5844
 480  -221.021
 481  -431.2175
 482  -376.0982
 483  -108.9853
 484  -453.9228
 485  -1148.142
 486  -1593.015
 487  -959.3692
 488  -1400.601
 489  -1279.315
 490  -1361.847
 491  -745.2133
 492  -730.3587
 493  -1274.213
 494  -1049.285
 495  -825.2176
 496  -699.2914
 497  -545.8738
 498  -676.2465
 499  -773.8331
 500  -728.9905
 501  -857.616
 502  -726.1895
 503  96.33813
 504  609.2412
 505  592.0363
 506  1610.8
 507  1994.367
 508  1468.009
 509  372.1769
 510  1343.023
 511  1451.619
