# Input file       =  1180939997.108558_cleaned.dat
# Candidate        =  PSR_0332+5434
# Telescope        =  AR
# Epoch_topo       =  57912.287223478677
# Epoch_bary       =  N/A
# T_sample         =  0.002
# Data Folded      =  7340032
# Data Avg         =  0.0664258102478925
# Data StdDev      =  2.33320314237049 
# Profile Bins     =  512
# Profile Avg      =  952.654768199939 
# Profile StdDev   =  279.361496719831 
# Reduced chi-sqr  =  1.535
# Prob(Noise)      <  7.3e-14   (~7.4 sigma)
# P_topo (ms)      =  714.509549137719  +/- 0.000341
# P'_topo (s/s)    =  -0                +/- 1.8e-10
# P''_topo (s/s^2) =  0                 +/- 7.95e-14
# P_bary (ms)      =  N/A
# P'_bary (s/s)    =  N/A
# P''_bary (s/s^2) =  N/A
# P_orb (s)        =  N/A
# asin(i)/c (s)    =  N/A
# eccentricity     =  N/A
# w (rad)          =  N/A
# T_peri           =  N/A
######################################################
   0  814.8021
   1  764.6135
   2  861.0693
   3  864.0964
   4  799.6425
   5  921.86
   6  881.684
   7  965.15
   8  698.8592
   9  603.2565
  10  772.9435
  11  799.9993
  12  807.5928
  13  578.2717
  14  431.5747
  15  499.5295
  16  567.7542
  17  630.7743
  18  767.0836
  19  519.6855
  20  621.77
  21  746.4194
  22  907.0949
  23  632.749
  24  577.9728
  25  951.9443
  26  811.069
  27  761.4116
  28  920.1791
  29  812.056
  30  682.5527
  31  426.0771
  32  762.8753
  33  724.3514
  34  724.4544
  35  363.2263
  36  255.2647
  37  536.2496
  38  576.1808
  39  472.3351
  40  660.7186
  41  669.266
  42  504.9159
  43  463.5521
  44  851.6441
  45  755.6197
  46  505.0022
  47  614.116
  48  856.7628
  49  795.3021
  50  847.5171
  51  373.5471
  52  665.9718
  53  907.1136
  54  668.7397
  55  814.0511
  56  1061.497
  57  1090.533
  58  824.1396
  59  720.426
  60  760.1426
  61  738.6396
  62  870.7084
  63  828.4393
  64  713.0823
  65  680.1873
  66  791.6192
  67  725.3286
  68  733.5512
  69  880.5031
  70  1247.23
  71  1281.601
  72  1037.741
  73  1062.849
  74  1339.345
  75  1254.978
  76  1258.568
  77  1427.843
  78  1162.096
  79  1175.115
  80  1036.782
  81  998.3077
  82  978.5184
  83  1191.86
  84  909.4719
  85  898.9674
  86  1242.264
  87  1176.535
  88  1068.328
  89  866.0556
  90  865.0273
  91  744.8829
  92  713.8501
  93  574.4323
  94  682.8563
  95  967.8737
  96  924.3738
  97  788.9954
  98  813.1574
  99  877.2895
 100  905.5684
 101  925.408
 102  1233.328
 103  1055.312
 104  883.8795
 105  914.2557
 106  853.9998
 107  848.8241
 108  776.7943
 109  725.1442
 110  887.8509
 111  976.1999
 112  1023.434
 113  975.1324
 114  923.3265
 115  903.3285
 116  703.5394
 117  931.0379
 118  966.6425
 119  837.3033
 120  986.1328
 121  957.0532
 122  764.4254
 123  669.2565
 124  662.3452
 125  952.7982
 126  1136.88
 127  827.4097
 128  833.8182
 129  887.5749
 130  689.2715
 131  687.1786
 132  762.4594
 133  989.1386
 134  784.4387
 135  806.5972
 136  1156.712
 137  1098.829
 138  1031.362
 139  1159.251
 140  1029.498
 141  908.4941
 142  1221.094
 143  1225.271
 144  1064.896
 145  793.8203
 146  1018.532
 147  1063.59
 148  913.4785
 149  1209.48
 150  1017.092
 151  1028.414
 152  940.3472
 153  999.7836
 154  991.9733
 155  901.9006
 156  1006.993
 157  885.0765
 158  950.8823
 159  858.0689
 160  948.8078
 161  942.2462
 162  889.7441
 163  902.2112
 164  953.9974
 165  756.9734
 166  742.0052
 167  784.6797
 168  603.7602
 169  667.5629
 170  707.6218
 171  752.2572
 172  1060.387
 173  950.1125
 174  893.3984
 175  712.1743
 176  699.9692
 177  598.8594
 178  637.4631
 179  840.8436
 180  1011.205
 181  783.9213
 182  784.7568
 183  1003.998
 184  1096.119
 185  875.4264
 186  499.0598
 187  711.7526
 188  1130.319
 189  986.447
 190  949.8686
 191  816.4471
 192  782.2378
 193  714.4798
 194  571.3619
 195  715.813
 196  951.2974
 197  969.5637
 198  987.7431
 199  810.0281
 200  782.0808
 201  722.5822
 202  954.7203
 203  749.6988
 204  841.9084
 205  748.7416
 206  1014.444
 207  694.6495
 208  534.3375
 209  959.8817
 210  1058.254
 211  1173.837
 212  1341.473
 213  1164.234
 214  940.0423
 215  1127.212
 216  1341.306
 217  1513.772
 218  1134.122
 219  797.7755
 220  976.2466
 221  1180.436
 222  1119.122
 223  911.9521
 224  962.0153
 225  1135.642
 226  1223.45
 227  1185.204
 228  1046.836
 229  1024.459
 230  1026.381
 231  898.1988
 232  838.8206
 233  916.1277
 234  1053.633
 235  1217.012
 236  1112.195
 237  1166.711
 238  1174.099
 239  1107.897
 240  845.2909
 241  880.9778
 242  938.0469
 243  1118.629
 244  988.0343
 245  1156.192
 246  1116.567
 247  831.5599
 248  960.3506
 249  1030.328
 250  1248.427
 251  1167.138
 252  1129.007
 253  1095.073
 254  1135.457
 255  923.4993
 256  768.872
 257  750.1742
 258  899.8055
 259  986.5786
 260  969.7991
 261  747.4645
 262  1014.161
 263  966.145
 264  1145.283
 265  1193.208
 266  1056.728
 267  1021.935
 268  916.2555
 269  1004.016
 270  1268.938
 271  869.3216
 272  877.2961
 273  1057.888
 274  989.447
 275  1058.882
 276  1141.212
 277  974.7144
 278  1060.23
 279  951.5627
 280  1123.825
 281  1334.54
 282  1209.801
 283  1317.021
 284  1035.399
 285  1214.625
 286  1338.15
 287  1381.406
 288  1343.596
 289  1221.589
 290  1121.152
 291  1119.888
 292  1133.073
 293  1159.786
 294  1240.948
 295  1160.717
 296  1178.571
 297  1038.057
 298  1029.683
 299  853.9363
 300  1006.082
 301  1042.245
 302  1202.957
 303  896.0496
 304  1037.442
 305  1174.333
 306  1059.137
 307  1291.569
 308  1327.177
 309  1275.634
 310  1332.35
 311  1221.124
 312  1141.28
 313  1196.416
 314  1190.894
 315  971.5538
 316  1210.242
 317  1116.401
 318  988.2433
 319  1335.209
 320  1192.884
 321  1138.965
 322  1083.292
 323  1127.006
 324  1421.011
 325  1784.833
 326  2262.124
 327  2391.531
 328  2197.833
 329  2453.175
 330  2208.462
 331  1724.975
 332  1435.197
 333  1547.92
 334  1093.71
 335  1037.55
 336  1310.535
 337  955.8598
 338  902.0008
 339  886.424
 340  1226.714
 341  1230.965
 342  1188.431
 343  986.1934
 344  947.3729
 345  1376.479
 346  1249.271
 347  783.5062
 348  821.7438
 349  1004.152
 350  1094.463
 351  924.1663
 352  1011.159
 353  937.8475
 354  1075.881
 355  1078.231
 356  1040.776
 357  1022.697
 358  1153.212
 359  1024.327
 360  747.8476
 361  815.8055
 362  1144.315
 363  1448.518
 364  1235.315
 365  1003.753
 366  1008.735
 367  1145.203
 368  968.9723
 369  905.2723
 370  1094.786
 371  1145.132
 372  1103.748
 373  969.5144
 374  1228.95
 375  1100.071
 376  1315.136
 377  1013.311
 378  950.186
 379  983.3519
 380  1017.979
 381  1005.143
 382  958.7918
 383  1008.134
 384  994.1846
 385  840.2197
 386  889.9922
 387  788.3225
 388  1115.5
 389  1283.874
 390  1044.057
 391  1094.728
 392  1175.968
 393  1108.272
 394  806.5446
 395  902.9651
 396  991.6883
 397  840.4918
 398  881.5369
 399  955.6885
 400  992.6812
 401  1210.459
 402  1216.511
 403  919.3469
 404  836.6778
 405  654.1686
 406  875.7435
 407  767.9986
 408  1033.001
 409  955.8023
 410  882.699
 411  1053.533
 412  1014.89
 413  944.1164
 414  932.8251
 415  1011.491
 416  1114.686
 417  1065.276
 418  998.0195
 419  1019.779
 420  839.8105
 421  912.1256
 422  1043.751
 423  1136.372
 424  1170.186
 425  913.1065
 426  845.551
 427  890.3449
 428  689.8417
 429  502.2197
 430  695.5107
 431  1065.131
 432  871.3679
 433  953.7833
 434  888.0065
 435  894.0538
 436  719.2996
 437  588.1509
 438  602.0632
 439  685.8737
 440  837.0683
 441  925.5837
 442  1056.604
 443  780.5574
 444  768.7889
 445  771.1845
 446  634.4097
 447  415.0737
 448  552.3069
 449  874.7498
 450  956.5623
 451  635.8975
 452  604.1936
 453  671.9088
 454  689.5798
 455  979.9165
 456  1098.342
 457  1180.479
 458  1235.687
 459  904.8837
 460  852.3687
 461  778.4185
 462  772.6741
 463  706.2148
 464  883.66
 465  881.8607
 466  694.8132
 467  725.366
 468  900.7273
 469  742.41
 470  960.5986
 471  866.56
 472  898.9225
 473  946.2516
 474  917.5656
 475  809.1119
 476  831.9312
 477  886.6389
 478  784.2068
 479  743.8591
 480  716.4554
 481  839.3946
 482  883.2568
 483  703.8234
 484  726.0259
 485  729.561
 486  648.1786
 487  512.9865
 488  723.49
 489  632.3322
 490  703.5064
 491  795.254
 492  791.794
 493  960.2417
 494  1115.911
 495  1146.581
 496  1161.034
 497  976.4184
 498  1118.033
 499  1160.353
 500  933.7147
 501  1316.109
 502  769.6609
 503  644.1375
 504  884.0044
 505  874.6595
 506  916.2448
 507  941.1081
 508  933.4701
 509  1200.22
 510  824.6197
 511  774.3309
