# Input file       =  1180494576.107471_cleaned.dat
# Candidate        =  PSR_0332+5434
# Telescope        =  AR
# Epoch_topo       =  57907.131887817952
# Epoch_bary       =  N/A
# T_sample         =  0.002
# Data Folded      =  7208960
# Data Avg         =  0.141518184288659
# Data StdDev      =  5.37919792454353 
# Profile Bins     =  1024
# Profile Avg      =  996.230800902452 
# Profile StdDev   =  451.340030345582 
# Reduced chi-sqr  =  0.475
# Prob(Noise)      <  1   (~0.0 sigma)
# P_topo (ms)      =  714.514494662315  +/- 0.000145
# P'_topo (s/s)    =  -0                +/- 7.8e-11
# P''_topo (s/s^2) =  0                 +/- 3.51e-14
# P_bary (ms)      =  N/A
# P'_bary (s/s)    =  N/A
# P''_bary (s/s^2) =  N/A
# P_orb (s)        =  N/A
# asin(i)/c (s)    =  N/A
# eccentricity     =  N/A
# w (rad)          =  N/A
# T_peri           =  N/A
######################################################
   0  1050.347
   1  742.952
   2  521.5027
   3  824.9488
   4  1074.001
   5  1137.515
   6  917.1245
   7  998.3583
   8  1214.797
   9  1051.538
  10  1051.908
  11  1132.697
  12  1050.075
  13  1092.811
  14  1020.885
  15  1017.91
  16  996.93
  17  879.6403
  18  1110.121
  19  1014.328
  20  843.6021
  21  904.0621
  22  957.7501
  23  957.7791
  24  1044.998
  25  1064.02
  26  1112.558
  27  922.4852
  28  894.1781
  29  1099.18
  30  973.1823
  31  1096.897
  32  1320.24
  33  1304.93
  34  1093.487
  35  922.2771
  36  1040.855
  37  1094.867
  38  746.1215
  39  710.4444
  40  777.5157
  41  911.6621
  42  914.7578
  43  941.7294
  44  953.4706
  45  1079.244
  46  1104.673
  47  1194.617
  48  974.327
  49  856.5919
  50  829.075
  51  919.5844
  52  1003.146
  53  1109.69
  54  1093.047
  55  1026.813
  56  951.2406
  57  971.2224
  58  963.7757
  59  909.754
  60  949.1158
  61  1047.947
  62  1124.195
  63  1121.339
  64  1113.768
  65  1135.429
  66  1020.249
  67  1061.282
  68  1048.201
  69  1186.545
  70  1173.072
  71  1111.203
  72  1184.189
  73  1447.693
  74  1481.215
  75  1529.329
  76  1407.299
  77  1324.716
  78  1401.746
  79  1248.942
  80  1127.977
  81  1131.678
  82  1161.842
  83  1225.217
  84  940.8839
  85  895.4548
  86  989.5184
  87  901.6238
  88  869.2267
  89  976.9333
  90  1044.87
  91  1086.443
  92  903.75
  93  939.9592
  94  994.473
  95  1020.136
  96  1241.635
  97  1414.818
  98  1132.147
  99  879.701
 100  688.2828
 101  833.0583
 102  819.8085
 103  702.8544
 104  776.4265
 105  952.9612
 106  885.0528
 107  958.5405
 108  899.291
 109  921.9979
 110  1007.797
 111  1084.373
 112  1121.564
 113  925.3877
 114  1095.42
 115  1282.911
 116  1215.656
 117  1089.185
 118  1216.72
 119  1243.639
 120  1149.057
 121  966.7334
 122  985.7416
 123  997.1185
 124  1035.934
 125  1001.09
 126  983.1244
 127  879.3097
 128  1045.755
 129  1209.229
 130  1309.791
 131  1300.019
 132  1219.228
 133  1246.467
 134  1095.837
 135  1169.145
 136  1078.741
 137  1055.188
 138  998.5263
 139  999.485
 140  1075.613
 141  1101.356
 142  1116.649
 143  1206.247
 144  1062.3
 145  912.7077
 146  855.6887
 147  966.152
 148  979.4302
 149  812.827
 150  776.137
 151  842.8126
 152  784.3102
 153  861.8795
 154  1089.702
 155  1119.634
 156  1154.984
 157  945.7233
 158  937.6432
 159  813.793
 160  883.396
 161  1148.52
 162  1262.775
 163  1082.21
 164  1032.101
 165  874.4918
 166  928.9199
 167  906.0153
 168  948.953
 169  1003.569
 170  1022.749
 171  997.1104
 172  1008.554
 173  894.3443
 174  845.6382
 175  940.6099
 176  959.5911
 177  1175.001
 178  1244.138
 179  1323.584
 180  1291.667
 181  940.4847
 182  828.7142
 183  851.0467
 184  750.3532
 185  885.2928
 186  814.29
 187  1056.627
 188  1250.567
 189  1140.632
 190  1148.744
 191  914.6813
 192  912.3341
 193  1109.685
 194  1218.981
 195  1232.079
 196  1269.125
 197  1300.393
 198  1292.682
 199  1067.441
 200  980.4747
 201  1076.449
 202  967.191
 203  1016.628
 204  1020.467
 205  921.9736
 206  951.3729
 207  960.4988
 208  1051.91
 209  1055.793
 210  993.7746
 211  1143.948
 212  1218.35
 213  1042.403
 214  981.0903
 215  1123.441
 216  1213.346
 217  1054.122
 218  813.8682
 219  1035.68
 220  1085.208
 221  1107.588
 222  882.5885
 223  946.0526
 224  1016.682
 225  1135.984
 226  1141.618
 227  1159.158
 228  1041.988
 229  1232.626
 230  1217.451
 231  1005.009
 232  834.1718
 233  823.517
 234  981.5497
 235  896.5954
 236  939.4985
 237  1211.1
 238  1306.252
 239  1348.577
 240  1334.417
 241  1283.483
 242  1253.458
 243  1121.528
 244  1134.781
 245  1230.225
 246  1111.782
 247  1191.801
 248  1132.57
 249  957.6946
 250  1036.17
 251  1024.83
 252  1063.422
 253  1132.84
 254  1144.552
 255  1358.299
 256  1263.74
 257  1255.178
 258  1229.447
 259  938.9782
 260  826.5148
 261  1006.674
 262  1170.271
 263  1181.021
 264  949.5807
 265  925.3044
 266  1051.23
 267  860.7781
 268  1059.488
 269  1201.609
 270  1280.381
 271  1373.192
 272  1253.386
 273  1212.568
 274  1106.236
 275  1053.276
 276  1107.582
 277  961.2201
 278  770.4465
 279  874.6217
 280  869.0379
 281  770.5392
 282  908.8973
 283  902.6376
 284  1130.688
 285  972.8794
 286  969.8011
 287  989.9921
 288  959.5342
 289  1032.145
 290  1082.653
 291  985.1167
 292  936.0749
 293  1117.396
 294  1221.583
 295  1220.327
 296  1082.488
 297  1080.202
 298  1138.345
 299  1088.655
 300  1016.611
 301  946.3375
 302  894.6372
 303  1012.506
 304  982.9214
 305  933.5931
 306  823.0846
 307  881.9662
 308  1099.027
 309  972.5693
 310  841.8734
 311  860.0134
 312  1127.737
 313  1025.172
 314  791.404
 315  673.5488
 316  509.2472
 317  445.9572
 318  615.7565
 319  806.0638
 320  899.4026
 321  801.4243
 322  816.4317
 323  905.0684
 324  783.5781
 325  942.1114
 326  998.3104
 327  1041.694
 328  828.6522
 329  649.2672
 330  708.4468
 331  898.3103
 332  924.626
 333  985.6445
 334  848.0106
 335  722.3556
 336  749.7644
 337  652.9996
 338  746.5337
 339  881.9225
 340  960.3484
 341  1115.677
 342  1141.973
 343  1158.18
 344  1180.399
 345  1110.182
 346  1099.504
 347  1118.377
 348  1063.125
 349  1014.194
 350  884.317
 351  739.2255
 352  770.4871
 353  754.186
 354  1098.033
 355  1203.443
 356  945.9197
 357  771.0234
 358  613.5319
 359  762.1292
 360  1069.703
 361  1020.275
 362  1123.322
 363  1114.458
 364  1204.775
 365  1198.029
 366  1000.555
 367  1026.481
 368  1180.474
 369  1055.408
 370  968.0185
 371  834.2834
 372  861.3113
 373  1104.769
 374  1041.529
 375  1081.118
 376  987.565
 377  1018.287
 378  1138.076
 379  984.8455
 380  824.5421
 381  859.1122
 382  956.0696
 383  1025.079
 384  1020.573
 385  1069.863
 386  1159.098
 387  1219.079
 388  1198.206
 389  1189.885
 390  1184.857
 391  1130.523
 392  1106.798
 393  1079.36
 394  1034.233
 395  1162.296
 396  1328.895
 397  1310.503
 398  1229.644
 399  1037.37
 400  1150.372
 401  1181.567
 402  1064.178
 403  1034.705
 404  997.9915
 405  1174.193
 406  1227.298
 407  1115.305
 408  964.9923
 409  981.846
 410  1000.898
 411  1094.793
 412  1020.919
 413  852.7971
 414  988.502
 415  863.4413
 416  886.0964
 417  917.4888
 418  995.7448
 419  1102.794
 420  1058.118
 421  989.0334
 422  1036.203
 423  894.0715
 424  915.6917
 425  954.7257
 426  806.7855
 427  953.3518
 428  935.6903
 429  969.1395
 430  901.724
 431  800.3296
 432  953.5127
 433  1088.08
 434  1016.314
 435  859.4956
 436  904.5737
 437  946.3704
 438  1135.019
 439  993.5397
 440  984.2565
 441  947.4886
 442  775.5547
 443  891.4324
 444  848.3236
 445  893.9076
 446  1003.419
 447  890.0193
 448  835.3859
 449  685.375
 450  827.744
 451  1199.375
 452  1158.644
 453  1127.507
 454  1217.823
 455  1314.618
 456  1330.772
 457  1138.849
 458  921.9686
 459  1009.56
 460  947.0395
 461  1193.562
 462  1261.622
 463  1046.944
 464  949.3162
 465  921.226
 466  1083.87
 467  975.9351
 468  876.8704
 469  831.5541
 470  838.9067
 471  833.1189
 472  980.7377
 473  1050.529
 474  1088.126
 475  983.1213
 476  1031.98
 477  943.0204
 478  947.8992
 479  878.479
 480  851.0486
 481  585.0605
 482  633.0993
 483  810.0817
 484  985.4612
 485  944.5419
 486  937.4687
 487  999.2227
 488  945.9777
 489  849.2083
 490  866.3434
 491  874.1882
 492  961.2018
 493  956.691
 494  989.9828
 495  938.149
 496  717.9644
 497  814.255
 498  1016.121
 499  893.3286
 500  848.5109
 501  755.9753
 502  864.1026
 503  711.6564
 504  570.5749
 505  692.82
 506  665.0132
 507  755.8933
 508  961.7209
 509  1096.236
 510  1054.55
 511  1004.541
 512  835.7106
 513  747.3644
 514  626.7085
 515  810.4427
 516  940.4855
 517  670.4802
 518  658.1802
 519  807.564
 520  755.7638
 521  695.3108
 522  610.3992
 523  686.448
 524  781.756
 525  743.6055
 526  934.0631
 527  1010.365
 528  732.9918
 529  717.9357
 530  644.7201
 531  858.5463
 532  869.5104
 533  886.0003
 534  1012.962
 535  910.5121
 536  650.4981
 537  719.9516
 538  721.1212
 539  692.4717
 540  912.5825
 541  1102.036
 542  1238.102
 543  1080.594
 544  1182.406
 545  1301.023
 546  1001.523
 547  896.9186
 548  918.8329
 549  851.218
 550  770.0465
 551  783.2442
 552  997.0922
 553  894.5532
 554  846.8978
 555  805.6218
 556  841.5062
 557  909.0273
 558  1059.37
 559  1132.83
 560  1115.866
 561  1123.874
 562  1106.474
 563  1104.105
 564  906.9156
 565  967.8048
 566  854.1657
 567  848.225
 568  841.8177
 569  845.3046
 570  1002.032
 571  939.0046
 572  1021.089
 573  1073.804
 574  966.969
 575  979.8317
 576  969.3217
 577  995.1564
 578  864.8817
 579  834.1119
 580  822.4276
 581  801.6849
 582  660.7328
 583  767.5436
 584  896.7205
 585  949.8705
 586  1037.706
 587  995.9316
 588  894.8938
 589  945.9315
 590  950.2261
 591  1103.425
 592  1021.137
 593  840.5232
 594  945.9572
 595  763.5425
 596  718.0292
 597  791.0725
 598  976.5292
 599  1159.871
 600  1029.667
 601  1006.984
 602  1125.442
 603  953.9647
 604  921.0812
 605  1095.608
 606  1013.793
 607  930.5638
 608  660.9863
 609  707.829
 610  791.9914
 611  639.995
 612  801.1777
 613  834.4822
 614  745.0811
 615  665.4649
 616  743.8484
 617  775.8938
 618  965.4929
 619  785.9836
 620  914.7141
 621  751.3329
 622  815.7286
 623  940.5683
 624  910.2838
 625  975.6422
 626  1106.271
 627  1048.645
 628  997.7007
 629  768.0576
 630  770.3581
 631  1000.825
 632  1022.625
 633  980.4447
 634  798.1719
 635  809.5825
 636  896.2914
 637  987.3384
 638  1084.8
 639  1175.054
 640  1301.773
 641  1305.348
 642  1252.163
 643  1224.328
 644  1209.056
 645  1057.747
 646  860.1967
 647  858.7055
 648  1002.641
 649  1048.519
 650  977.0434
 651  842.2034
 652  713.2511
 653  682.1303
 654  882.0706
 655  970.222
 656  1016.874
 657  915.6268
 658  978.6096
 659  988.9442
 660  880.4429
 661  679.8877
 662  666.6268
 663  537.335
 664  701.022
 665  686.725
 666  698.2601
 667  770.6349
 668  872.8801
 669  990.2644
 670  972.6047
 671  708.4816
 672  872.3688
 673  884.1193
 674  935.5176
 675  958.5671
 676  863.5326
 677  962.4327
 678  763.7169
 679  635.7436
 680  643.6597
 681  720.9368
 682  885.4436
 683  969.6021
 684  826.1171
 685  931.0598
 686  1004.859
 687  1079.901
 688  1036.504
 689  793.6691
 690  985.8419
 691  1240.461
 692  1224.36
 693  1148.628
 694  1002.504
 695  1111.118
 696  1350.158
 697  1151.276
 698  1113.633
 699  967.4241
 700  1059.674
 701  1118.83
 702  982.6743
 703  904.8208
 704  1002.577
 705  1123.045
 706  1277.943
 707  1129.938
 708  1187.484
 709  1343.618
 710  1318.987
 711  1069.161
 712  1105.711
 713  1151.696
 714  1208.907
 715  1183.539
 716  1270.704
 717  1481.545
 718  1207.269
 719  1193.099
 720  1192.811
 721  1197.154
 722  1110.435
 723  1127.753
 724  1344.427
 725  1321.714
 726  1178.12
 727  1134.178
 728  1161.244
 729  1156.521
 730  1197.602
 731  1203.601
 732  1102.339
 733  1148.491
 734  1275.105
 735  1300.762
 736  959.0413
 737  1036.244
 738  1076.697
 739  1116.701
 740  891.0839
 741  861.8458
 742  1047.749
 743  1029.173
 744  970.6687
 745  1129.505
 746  1055.112
 747  1014.893
 748  1032.246
 749  1265.395
 750  1361.37
 751  1372.652
 752  1363.595
 753  1519.33
 754  1317.794
 755  1493.556
 756  1586.141
 757  1523.182
 758  1314.649
 759  1280.281
 760  1392.806
 761  1403.444
 762  1074.686
 763  1019.152
 764  955.2363
 765  858.762
 766  950.8724
 767  789.4737
 768  828.7567
 769  850.5298
 770  1043.613
 771  1206.375
 772  1053.183
 773  1066.436
 774  1109.534
 775  893.1472
 776  875.3451
 777  884.5107
 778  902.1245
 779  944.2534
 780  1014.837
 781  1074.522
 782  1126.776
 783  1074.715
 784  1322.204
 785  1258.36
 786  1038.904
 787  1014.573
 788  1011.764
 789  1042.033
 790  1033.374
 791  1014.13
 792  1129.305
 793  1037.569
 794  885.1389
 795  946.2039
 796  703.4363
 797  723.8624
 798  921.4586
 799  1007.628
 800  849.3719
 801  572.002
 802  896.3329
 803  1005.569
 804  829.0952
 805  692.8895
 806  908.2388
 807  957.4526
 808  885.0715
 809  834.1253
 810  878.1021
 811  768.3882
 812  606.139
 813  648.2621
 814  599.9899
 815  625.768
 816  702.9266
 817  725.236
 818  744.0503
 819  809.6068
 820  1110.091
 821  1187.848
 822  980.4603
 823  771.0686
 824  842.9594
 825  836.284
 826  796.9928
 827  775.6913
 828  831.5885
 829  831.4572
 830  762.6807
 831  843.5577
 832  786.3766
 833  811.6564
 834  964.5893
 835  1052.852
 836  1098.728
 837  928.2532
 838  1018.12
 839  1211.675
 840  1180.131
 841  1198.657
 842  1135.018
 843  937.9108
 844  915.8889
 845  686.0195
 846  671.1968
 847  717.7665
 848  905.2028
 849  1299.387
 850  1224.636
 851  1117.031
 852  986.0139
 853  872.3168
 854  916.8947
 855  1101.777
 856  1255.802
 857  1432.702
 858  1275.713
 859  1174.612
 860  1070.524
 861  890.6317
 862  869.2426
 863  1008.531
 864  889.2144
 865  913.7169
 866  908.7094
 867  1140.398
 868  1197.095
 869  1036.663
 870  998.6584
 871  1135.021
 872  1166.174
 873  1181.453
 874  1111.679
 875  1163.966
 876  1301.858
 877  1081.979
 878  1140.214
 879  996.3393
 880  956.9765
 881  933.0649
 882  821.6832
 883  876.4885
 884  1009.037
 885  1132.722
 886  1287.881
 887  1184.419
 888  1123.29
 889  1091.171
 890  1152.367
 891  1054.113
 892  1043.109
 893  836.5214
 894  984.073
 895  949.3994
 896  996.4769
 897  978.9141
 898  867.9313
 899  959.8716
 900  983.0081
 901  896.2166
 902  847.568
 903  930.0495
 904  1160.444
 905  1252.386
 906  1225.384
 907  1253.814
 908  1159.796
 909  1040.857
 910  824.5599
 911  814.6775
 912  992.1281
 913  1010.358
 914  1054.41
 915  991.3698
 916  1014.934
 917  972.1519
 918  906.2559
 919  906.5802
 920  968.5927
 921  944.0103
 922  1143.786
 923  1111.096
 924  1108.788
 925  1090.414
 926  1064.273
 927  1168.334
 928  1243.915
 929  1179.005
 930  1214.621
 931  1081.551
 932  1188.632
 933  1306.6
 934  1178.014
 935  1236.748
 936  1101.947
 937  975.6547
 938  1045.151
 939  946.5032
 940  1041.488
 941  979.701
 942  888.965
 943  1080.103
 944  1184.364
 945  1221.105
 946  1204.721
 947  989.8342
 948  1163.846
 949  1153.15
 950  1148.868
 951  1177.069
 952  1066.227
 953  1053.321
 954  1094.147
 955  993.1368
 956  953.847
 957  879.2361
 958  974.4609
 959  1192.537
 960  1012.286
 961  960.9116
 962  1201.595
 963  1218.065
 964  1073.06
 965  824.892
 966  927.3332
 967  1105.846
 968  949.1099
 969  796.7056
 970  913.1042
 971  970.9707
 972  1111.779
 973  1004.193
 974  1026.422
 975  904.957
 976  799.1896
 977  815.0497
 978  792.7901
 979  702.8254
 980  863.4644
 981  1037.112
 982  1070.075
 983  819.7777
 984  797.041
 985  904.2963
 986  982.6554
 987  1120.246
 988  1113.633
 989  987.434
 990  867.4767
 991  888.421
 992  1060.198
 993  1000.398
 994  934.1666
 995  863.3958
 996  719.4202
 997  573.9263
 998  643.1729
 999  796.45
1000  1097.22
1001  1115.86
1002  1065.654
1003  1070.879
1004  783.1583
1005  794.6945
1006  863.175
1007  881.4723
1008  811.1312
1009  761.0155
1010  952.9401
1011  891.6082
1012  726.0857
1013  951.0841
1014  1179.634
1015  1000.191
1016  870.0618
1017  765.2605
1018  929.0473
1019  1064.553
1020  952.726
1021  1060.488
1022  909.663
1023  1025.26
