# Input file       =  1180610293.114655_cleaned.dat
# Candidate        =  PSR_0332+5434
# Telescope        =  AR
# Epoch_topo       =  57908.471205030728
# Epoch_bary       =  N/A
# T_sample         =  0.002
# Data Folded      =  7340032
# Data Avg         =  0.0671563539997026
# Data StdDev      =  2.99543380489336 
# Profile Bins     =  512
# Profile Avg      =  962.980660579445 
# Profile StdDev   =  358.652384725492 
# Reduced chi-sqr  =  1.075
# Prob(Noise)      <  0.118   (~1.2 sigma)
# P_topo (ms)      =  714.513544861239  +/- 0.000734
# P'_topo (s/s)    =  -0                +/- 3.87e-10
# P''_topo (s/s^2) =  0                 +/- 1.71e-13
# P_bary (ms)      =  N/A
# P'_bary (s/s)    =  N/A
# P''_bary (s/s^2) =  N/A
# P_orb (s)        =  N/A
# asin(i)/c (s)    =  N/A
# eccentricity     =  N/A
# w (rad)          =  N/A
# T_peri           =  N/A
######################################################
   0  1042.864
   1  896.9097
   2  725.7606
   3  879.9
   4  943.552
   5  882.87
   6  589.3158
   7  731.5846
   8  944.419
   9  831.9171
  10  862.1255
  11  1010.958
  12  1092.566
  13  959.2466
  14  684.6368
  15  616.4001
  16  814.17
  17  633.16
  18  1002.62
  19  1269.79
  20  917.0933
  21  797.8742
  22  675.2139
  23  990.5597
  24  918.9429
  25  818.6368
  26  832.455
  27  928.3828
  28  754.3705
  29  882.4023
  30  834.1915
  31  1195.76
  32  980.3422
  33  733.3821
  34  842.1403
  35  828.2057
  36  481.2549
  37  589.0074
  38  1195.646
  39  1185.893
  40  1278.894
  41  775.1013
  42  954.4734
  43  1353.861
  44  993.7242
  45  949.0108
  46  863.5292
  47  978.8979
  48  1026.235
  49  1060.465
  50  1144.943
  51  1121.159
  52  1176.393
  53  1112.791
  54  981.9365
  55  1267.999
  56  1426.264
  57  1344.948
  58  1003.84
  59  1006.583
  60  1314.55
  61  1389.745
  62  1268.228
  63  1450.348
  64  1482.681
  65  1328.956
  66  841.162
  67  1070.949
  68  1117.372
  69  809.9848
  70  1135.837
  71  1336.771
  72  1161.719
  73  1274.202
  74  1427.126
  75  1277.228
  76  1137.909
  77  1251.561
  78  1332.501
  79  1096.594
  80  1099.047
  81  1073.043
  82  1341.719
  83  1321.77
  84  1235.139
  85  1333.762
  86  1353.629
  87  1383.478
  88  1057.916
  89  1054.689
  90  857.7299
  91  638.0695
  92  817.8114
  93  963.2742
  94  845.6895
  95  1020.432
  96  1049.298
  97  1123.471
  98  1199.855
  99  712.9937
 100  811.6864
 101  624.4131
 102  768.4973
 103  1102.341
 104  906.0869
 105  996.0552
 106  996.5283
 107  1069.314
 108  1155.342
 109  925.4801
 110  864.9738
 111  1209.025
 112  1371.398
 113  1088.085
 114  1005.284
 115  1104.515
 116  972.9361
 117  1105.313
 118  860.1398
 119  825.8875
 120  1115.978
 121  1312.377
 122  1079.011
 123  680.4875
 124  656.8104
 125  787.4157
 126  613.9073
 127  824.1464
 128  739.6382
 129  977.2296
 130  1020.561
 131  788.3426
 132  685.014
 133  892.897
 134  851.942
 135  1022.677
 136  1126.807
 137  1344.881
 138  1154.421
 139  1273.935
 140  1079.05
 141  963.5916
 142  939.8546
 143  951.1089
 144  844.825
 145  739.7702
 146  1086.161
 147  1327.513
 148  773.7894
 149  565.7561
 150  647.8035
 151  574.1997
 152  646.3175
 153  655.8087
 154  793.5646
 155  891.3981
 156  838.4279
 157  891.0544
 158  990.5229
 159  949.0135
 160  878.8207
 161  1039.095
 162  1026.216
 163  845.1359
 164  802.0466
 165  1079.856
 166  1341.876
 167  1140.617
 168  1208.751
 169  1145.143
 170  775.5383
 171  704.3926
 172  914.2737
 173  836.3633
 174  857.3682
 175  1172.571
 176  1371.628
 177  1237.611
 178  1114.28
 179  1481.653
 180  1254.644
 181  1079.401
 182  755.2184
 183  661.7119
 184  1052.892
 185  1031.086
 186  918.2415
 187  1100.241
 188  1175.433
 189  1297.853
 190  1080.032
 191  606.4802
 192  575.0565
 193  941.7902
 194  976.3289
 195  1180.281
 196  1124.673
 197  954.723
 198  1090.748
 199  1252.214
 200  964.2816
 201  845.5377
 202  1125.337
 203  991.1026
 204  748.1368
 205  925.2375
 206  1053.52
 207  1174.542
 208  932.9789
 209  696.5938
 210  654.1404
 211  736.3478
 212  965.2958
 213  985.8649
 214  1454.904
 215  1387.188
 216  1033.143
 217  981.1285
 218  1155.686
 219  1216.438
 220  1319.266
 221  1005.226
 222  1048.508
 223  1142.107
 224  1092.679
 225  1052.417
 226  1019.74
 227  1175.805
 228  1257.26
 229  1132.163
 230  610.1611
 231  664.1229
 232  852.6925
 233  996.9269
 234  971.0557
 235  762.563
 236  983.6141
 237  1176.666
 238  1141.69
 239  949.0909
 240  930.2939
 241  892.0429
 242  985.5613
 243  917.89
 244  1062.068
 245  1099.581
 246  1113.115
 247  1154.276
 248  865.5154
 249  906.1382
 250  1044.453
 251  988.9075
 252  999.1232
 253  759.2177
 254  841.0261
 255  524.4239
 256  804.1849
 257  1163.522
 258  1262.927
 259  1244.129
 260  1071.258
 261  950.9592
 262  1055.153
 263  956.0845
 264  872.2552
 265  1018.034
 266  729.3321
 267  956.7582
 268  795.923
 269  923.6821
 270  842.5087
 271  739.4618
 272  442.5515
 273  657.2261
 274  900.9101
 275  899.7301
 276  1217.348
 277  1362.302
 278  1552.635
 279  1192.544
 280  817.5552
 281  766.776
 282  892.6796
 283  955.8885
 284  887.0458
 285  978.7288
 286  884.7358
 287  974.4664
 288  793.1412
 289  675.8635
 290  450.1873
 291  587.0382
 292  1132.633
 293  1110.425
 294  942.3616
 295  738.5875
 296  682.3379
 297  910.4844
 298  942.7312
 299  693.9187
 300  731.7368
 301  864.0424
 302  877.8019
 303  796.9629
 304  1122.154
 305  1105.214
 306  1073.59
 307  1106.702
 308  1075.06
 309  1230.613
 310  841.8729
 311  754.637
 312  961.1377
 313  1159.643
 314  1154.158
 315  857.3717
 316  1112.915
 317  1216.44
 318  1358.518
 319  1180.636
 320  1234.301
 321  1219.434
 322  1378.978
 323  1188.858
 324  1343.038
 325  1802.545
 326  2159.108
 327  2621.79
 328  2282.534
 329  2587.767
 330  2253.664
 331  1656.178
 332  1436.363
 333  1151.117
 334  884.883
 335  1222.984
 336  1360.144
 337  1059.345
 338  827.2471
 339  930.785
 340  1017.62
 341  979.4732
 342  923.5562
 343  1310.395
 344  1355.069
 345  1185.54
 346  1257.435
 347  1038.121
 348  822.6229
 349  847.0591
 350  858.5356
 351  1044.301
 352  813.9985
 353  887.0551
 354  1063.805
 355  1099.776
 356  1050.057
 357  1316.431
 358  1166.882
 359  1182.09
 360  1254.347
 361  1086.302
 362  812.5003
 363  585.686
 364  734.2443
 365  1091.616
 366  526.7552
 367  538.4624
 368  790.6014
 369  1151.947
 370  656.3495
 371  703.2693
 372  821.6544
 373  1072.665
 374  1137.308
 375  1320.071
 376  1102.758
 377  773.389
 378  684.0882
 379  729.8119
 380  612.2665
 381  1027.704
 382  1163.282
 383  947.7045
 384  1145.893
 385  1017.479
 386  1149.187
 387  1031.192
 388  1072.618
 389  1214.063
 390  1274.776
 391  985.0729
 392  755.3194
 393  1005.792
 394  780.8377
 395  875.475
 396  579.2318
 397  612.5735
 398  925.744
 399  985.1218
 400  1057.7
 401  974.3459
 402  724.0147
 403  1078.12
 404  771.7866
 405  841.9241
 406  844.263
 407  808.9407
 408  697.9706
 409  855.4918
 410  798.5043
 411  869.0419
 412  871.5173
 413  544.5298
 414  610.8116
 415  810.8261
 416  556.5156
 417  727.0049
 418  827.6946
 419  909.0067
 420  534.1875
 421  588.4796
 422  742.9527
 423  556.8777
 424  910.6226
 425  644.6703
 426  299.7529
 427  475.5391
 428  494.5533
 429  422.3376
 430  630.158
 431  825.1777
 432  1008.931
 433  904.6804
 434  655.722
 435  451.9195
 436  695.5198
 437  691.6446
 438  811.1361
 439  725.1858
 440  732.7145
 441  771.1761
 442  627.7229
 443  519.0923
 444  667.264
 445  706.8747
 446  648.2636
 447  239.9854
 448  699.9918
 449  840.0745
 450  714.1128
 451  923.3762
 452  748.8521
 453  554.785
 454  763.7821
 455  988.3842
 456  569.6726
 457  526.8327
 458  915.8223
 459  976.7274
 460  885.33
 461  991.9224
 462  677.2262
 463  602.1346
 464  676.3837
 465  486.6434
 466  761.4573
 467  686.1935
 468  619.4467
 469  901.6537
 470  985.3611
 471  687.7405
 472  754.6279
 473  698.7819
 474  915.0016
 475  1153.486
 476  1016.037
 477  1034.781
 478  948.7999
 479  897.908
 480  936.7972
 481  1094.495
 482  819.5159
 483  585.7449
 484  922.2277
 485  1122.688
 486  818.0114
 487  671.0826
 488  928.6317
 489  723.223
 490  662.3188
 491  797.4469
 492  808.9155
 493  885.1213
 494  946.9656
 495  893.6411
 496  1054.461
 497  822.1617
 498  916.0659
 499  1221.634
 500  1218.503
 501  817.3965
 502  709.2167
 503  707.5585
 504  984.1199
 505  1044.496
 506  892.5726
 507  942.9163
 508  1086.861
 509  814.5388
 510  852.507
 511  997.326
