# Input file       =  1180839218.112024_cleaned.dat
# Candidate        =  PSR_0332+5434
# Telescope        =  AR
# Epoch_topo       =  57911.120799907687
# Epoch_bary       =  N/A
# T_sample         =  0.002
# Data Folded      =  7143424
# Data Avg         =  0.141991218903376
# Data StdDev      =  3.68704876368521 
# Profile Bins     =  1024
# Profile Avg      =  990.414806972381 
# Profile StdDev   =  307.951353649386 
# Reduced chi-sqr  =  0.733
# Prob(Noise)      <  1   (~0.0 sigma)
# P_topo (ms)      =  714.510650745719  +/- 5.61e-05
# P'_topo (s/s)    =  -0                +/- 3.04e-11
# P''_topo (s/s^2) =  0                 +/- 1.38e-14
# P_bary (ms)      =  N/A
# P'_bary (s/s)    =  N/A
# P''_bary (s/s^2) =  N/A
# P_orb (s)        =  N/A
# asin(i)/c (s)    =  N/A
# eccentricity     =  N/A
# w (rad)          =  N/A
# T_peri           =  N/A
######################################################
   0  965.9448
   1  983.1194
   2  1012.2
   3  1019.814
   4  1017.864
   5  1052.721
   6  1145.294
   7  1191.021
   8  1084.506
   9  1122.97
  10  1075.545
  11  1158.495
  12  1072.01
  13  1066.376
  14  1058.85
  15  1078.595
  16  1239.175
  17  1227.866
  18  1074.227
  19  913.6414
  20  1010.268
  21  1046.888
  22  1063.403
  23  1049.808
  24  1050.198
  25  1142.122
  26  1099.916
  27  1016.072
  28  1038.511
  29  1099.347
  30  1094.594
  31  978.7122
  32  1013.971
  33  1037.534
  34  1110.461
  35  1065.164
  36  1121.46
  37  1018.245
  38  969.6636
  39  996.6359
  40  1150.143
  41  1176.246
  42  1147.705
  43  1162.818
  44  1158.747
  45  1061.959
  46  1051.258
  47  1110.593
  48  1110.275
  49  1159.48
  50  1193.853
  51  1100.522
  52  1120.546
  53  1054.379
  54  1164.703
  55  1175.386
  56  1176.246
  57  1188.535
  58  1160.012
  59  1103.345
  60  1146.226
  61  1136.895
  62  1224.24
  63  1152.373
  64  1115.243
  65  1100.156
  66  1033.737
  67  1039.344
  68  1051.949
  69  1073.939
  70  1058.847
  71  1090.376
  72  1186.448
  73  1177.535
  74  1182.438
  75  1194.813
  76  1267.417
  77  1248.882
  78  1198.749
  79  1220.926
  80  1160.579
  81  1147.945
  82  1081.546
  83  1069.991
  84  1004.584
  85  942.1285
  86  802.508
  87  803.9586
  88  741.5637
  89  866.3519
  90  929.0818
  91  976.8602
  92  970.9596
  93  1013.94
  94  1029.143
  95  1108.19
  96  1123.901
  97  1103.414
  98  1108.78
  99  1329.161
 100  1343.841
 101  1227.203
 102  1065.346
 103  966.8088
 104  962.918
 105  858.2649
 106  964.4951
 107  1049.246
 108  1215.149
 109  1206.558
 110  1112.741
 111  1008.123
 112  907.2729
 113  1031.516
 114  1205.505
 115  1209.674
 116  1214.489
 117  1262.681
 118  1247.642
 119  1145.162
 120  983.0021
 121  886.24
 122  929.7597
 123  992.7571
 124  1010.896
 125  1026.999
 126  1015.269
 127  865.3344
 128  855.9445
 129  894.6705
 130  965.0875
 131  1031.826
 132  1142.276
 133  1167.941
 134  1026.794
 135  868.5974
 136  781.1108
 137  841.8074
 138  917.0053
 139  994.911
 140  1005.77
 141  1004.031
 142  1029.02
 143  1087.319
 144  1066.033
 145  818.3815
 146  793.4277
 147  830.0667
 148  852.556
 149  885.0563
 150  961.1815
 151  1045.221
 152  996.2488
 153  803.6248
 154  766.3244
 155  733.8654
 156  838.4589
 157  913.2098
 158  971.6089
 159  832.8682
 160  688.3306
 161  695.2225
 162  844.1835
 163  871.5905
 164  994.5045
 165  1021.605
 166  1016.735
 167  908.7498
 168  857.7539
 169  972.7316
 170  970.6639
 171  1078.031
 172  1088.115
 173  1159.654
 174  982.2368
 175  850.4039
 176  909.5416
 177  869.8401
 178  814.8777
 179  919.3314
 180  1115.353
 181  1108.624
 182  1034.136
 183  1124.88
 184  1150.121
 185  1054.71
 186  908.0844
 187  1124.466
 188  1070.324
 189  1074.322
 190  1053.071
 191  1068.363
 192  1038.36
 193  996.7977
 194  1062.942
 195  1127.02
 196  1023.379
 197  1039.521
 198  1108.919
 199  1238.804
 200  1126.263
 201  1022.459
 202  1065.805
 203  1056.849
 204  1025.232
 205  947.8859
 206  938.023
 207  899.2965
 208  924.6707
 209  930.8517
 210  944.5313
 211  856.0158
 212  837.4188
 213  906.1804
 214  1129.204
 215  1224.075
 216  1169.33
 217  1068.345
 218  931.6238
 219  935.8436
 220  974.4903
 221  902.0759
 222  904.5406
 223  973.5199
 224  933.6338
 225  870.6573
 226  748.5295
 227  899.355
 228  1010.927
 229  1019.007
 230  1019.448
 231  957.293
 232  999.7071
 233  898.9882
 234  902.1431
 235  801.406
 236  775.3636
 237  901.9501
 238  920.473
 239  901.7971
 240  917.9716
 241  1150.504
 242  1142.658
 243  1135.249
 244  1178.795
 245  1158.654
 246  1191.369
 247  1089.206
 248  1076.22
 249  932.0203
 250  845.6993
 251  904.8107
 252  991.1829
 253  845.8134
 254  638.8706
 255  726.0859
 256  835.1982
 257  827.2359
 258  775.8162
 259  841.1765
 260  973.2808
 261  1034.996
 262  1035.47
 263  998.5473
 264  982.0576
 265  994.2728
 266  1053.287
 267  969.4775
 268  784.0892
 269  766.0081
 270  903.1436
 271  1010.639
 272  1026.477
 273  1094.958
 274  1011.589
 275  897.0752
 276  884.364
 277  897.4261
 278  913.4017
 279  847.0942
 280  920.1223
 281  943.063
 282  917.2792
 283  817.4109
 284  869.2057
 285  845.589
 286  826.436
 287  823.6606
 288  844.9596
 289  875.7978
 290  884.3783
 291  770.8772
 292  657.9643
 293  536.1063
 294  540.7183
 295  765.8871
 296  930.7508
 297  968.8698
 298  896.1027
 299  855.7433
 300  832.743
 301  788.5426
 302  932.8404
 303  1078.271
 304  1084.43
 305  982.8655
 306  968.3949
 307  949.3829
 308  981.7534
 309  886.7758
 310  965.3757
 311  1010.271
 312  910.5764
 313  964.5679
 314  1100.161
 315  1109.012
 316  1091.454
 317  1045.787
 318  917.2573
 319  723.4442
 320  762.0882
 321  883.2361
 322  1033.596
 323  986.5457
 324  937.4908
 325  901.6582
 326  843.1964
 327  857.0264
 328  973.8531
 329  1075.723
 330  952.6871
 331  934.837
 332  987.4033
 333  861.7527
 334  840.8516
 335  929.8504
 336  1092.682
 337  945.3429
 338  912.7774
 339  872.5013
 340  945.1948
 341  735.0316
 342  587.4848
 343  678.7742
 344  876.0085
 345  1029.329
 346  1142.848
 347  1248.224
 348  1295.466
 349  1212.342
 350  1130.413
 351  896.906
 352  845.6947
 353  936.3398
 354  1066.666
 355  1182.92
 356  1065.531
 357  1007.538
 358  866.0538
 359  914.1666
 360  905.9816
 361  951.4566
 362  1031.06
 363  1106.138
 364  1084.979
 365  991.5992
 366  887.434
 367  901.5507
 368  957.7464
 369  920.3929
 370  858.3369
 371  787.5542
 372  889.9608
 373  978.0708
 374  1087.81
 375  1037.928
 376  1031.62
 377  1066.503
 378  1176.574
 379  1282.897
 380  1288.025
 381  1187.209
 382  999.8721
 383  875.4913
 384  786.1895
 385  783.423
 386  840.7455
 387  980.5211
 388  972.7122
 389  1007.746
 390  893.9078
 391  844.6492
 392  837.1879
 393  874.0964
 394  936.9111
 395  934.3146
 396  922.1794
 397  904.6222
 398  816.5925
 399  958.8423
 400  973.4947
 401  1032.234
 402  949.1817
 403  955.6608
 404  1019.71
 405  994.8723
 406  979.7584
 407  1015.807
 408  1065.461
 409  1028.902
 410  1018.559
 411  1078.503
 412  1167.965
 413  1263.961
 414  1219.805
 415  961.9261
 416  808.3887
 417  798.7589
 418  870.4024
 419  924.714
 420  915.939
 421  862.142
 422  894.5632
 423  886.9292
 424  730.3334
 425  700.3466
 426  735.6803
 427  818.812
 428  810.5959
 429  899.3995
 430  817.7671
 431  664.3262
 432  605.1218
 433  645.9719
 434  888.5639
 435  845.072
 436  916.5772
 437  889.135
 438  959.1158
 439  922.0933
 440  925.7769
 441  873.5027
 442  739.8146
 443  726.1336
 444  841.5632
 445  997.0968
 446  1070.464
 447  1032.163
 448  917.4278
 449  863.5169
 450  784.8041
 451  710.0828
 452  713.7637
 453  707.5325
 454  748.9268
 455  831.1213
 456  814.0339
 457  762.636
 458  790.6333
 459  864.0709
 460  873.5336
 461  832.371
 462  938.1584
 463  914.446
 464  881.2661
 465  819.2859
 466  851.4211
 467  898.9266
 468  840.3079
 469  854.4424
 470  870.7016
 471  985.4511
 472  889.0652
 473  910.7177
 474  917.4585
 475  996.1392
 476  1031.848
 477  1159.636
 478  1296.676
 479  1362.654
 480  1314.519
 481  1276.907
 482  1140.022
 483  1116.689
 484  1129.54
 485  1098.724
 486  1063.563
 487  1033.92
 488  1065.269
 489  852.3205
 490  781.9384
 491  784.9455
 492  936.9326
 493  916.1356
 494  926.2569
 495  926.6713
 496  982.3137
 497  982.0518
 498  1020.282
 499  1076.798
 500  1001.413
 501  922.8353
 502  876.3317
 503  929.4222
 504  973.8289
 505  987.8467
 506  957.9167
 507  933.7195
 508  897.5773
 509  754.5115
 510  741.4156
 511  791.7994
 512  992.2279
 513  1108.533
 514  1274.539
 515  1103.026
 516  978.8607
 517  966.9838
 518  1009.893
 519  1059.448
 520  1028.59
 521  911.4762
 522  867.3492
 523  784.4584
 524  789.08
 525  808.049
 526  854.7223
 527  901.4423
 528  920.4838
 529  931.5914
 530  922.0104
 531  978.9178
 532  1083.17
 533  998.7449
 534  951.0483
 535  933.9485
 536  1130.177
 537  1212.805
 538  1147.24
 539  967.7625
 540  867.8476
 541  937.9497
 542  928.5959
 543  1055.313
 544  1209.981
 545  1138.874
 546  1133.256
 547  987.0081
 548  921.71
 549  805.1983
 550  819.3832
 551  916.5695
 552  1009.499
 553  1022.951
 554  975.4418
 555  903.5953
 556  877.4742
 557  808.3128
 558  810.1205
 559  823.866
 560  763.2226
 561  776.9734
 562  866.585
 563  795.2054
 564  722.9934
 565  586.7274
 566  848.1674
 567  944.5878
 568  1102.99
 569  959.0303
 570  891.4623
 571  830.17
 572  878.1987
 573  919.6499
 574  901.2249
 575  931.0199
 576  905.3973
 577  865.8129
 578  877.161
 579  819.4965
 580  813.7559
 581  772.528
 582  913.8251
 583  855.8391
 584  881.3837
 585  914.1744
 586  933.1732
 587  977.3541
 588  793.1955
 589  842.9965
 590  739.6654
 591  790.4825
 592  738.8696
 593  819.9618
 594  889.9935
 595  942.6528
 596  956.7682
 597  929.1075
 598  934.3906
 599  939.4641
 600  872.14
 601  853.4007
 602  862.5661
 603  939.0545
 604  1032.843
 605  971.2974
 606  949.683
 607  939.5408
 608  1028.527
 609  1015.607
 610  1105.957
 611  1090.228
 612  1039.869
 613  890.6987
 614  1050.452
 615  1099.812
 616  1047.125
 617  883.5232
 618  861.1267
 619  920.1597
 620  960.0448
 621  833.55
 622  915.2965
 623  950.7081
 624  876.2422
 625  934.4677
 626  1101.813
 627  1176.718
 628  1064.059
 629  1113.255
 630  1060.324
 631  1035.202
 632  888.3706
 633  952.1901
 634  1004.712
 635  926.6166
 636  912.2089
 637  1017.666
 638  1216.29
 639  1147.008
 640  1149.987
 641  1128.364
 642  1022.704
 643  902.4073
 644  957.3053
 645  1024.497
 646  1051.702
 647  998.3884
 648  966.0144
 649  915.3574
 650  889.402
 651  927.6981
 652  1057.481
 653  1076.938
 654  1053.376
 655  1036.248
 656  990.7833
 657  1018.861
 658  985.4064
 659  1047.882
 660  956.8608
 661  885.6201
 662  807.4675
 663  914.5026
 664  927.7623
 665  980.838
 666  924.6793
 667  996.7452
 668  976.8663
 669  914.23
 670  949.2284
 671  848.2757
 672  794.8094
 673  894.249
 674  1034.215
 675  1052.896
 676  962.3334
 677  1073.808
 678  1060.156
 679  1007.821
 680  959.9572
 681  989.2447
 682  1008.461
 683  901.7126
 684  879.9567
 685  865.0894
 686  918.8161
 687  1039.624
 688  1060.704
 689  1023.548
 690  922.4826
 691  854.871
 692  927.47
 693  949.4362
 694  967.3607
 695  1015.49
 696  1104.897
 697  1113.453
 698  1046.115
 699  1140.7
 700  1122.421
 701  1141.728
 702  1064.685
 703  1031.349
 704  995.4306
 705  1025.331
 706  1081.278
 707  1106.663
 708  1112.361
 709  1121.295
 710  1137.796
 711  1122.758
 712  1028.626
 713  1097.967
 714  1065.886
 715  1009.595
 716  967.8074
 717  1177.32
 718  1266.893
 719  1240.333
 720  1219.74
 721  1162.424
 722  1069.432
 723  1054.407
 724  1124.805
 725  1237.013
 726  1006.683
 727  852.9374
 728  809.4714
 729  929.0263
 730  840.3195
 731  982.5851
 732  1040.392
 733  1157.505
 734  1024.34
 735  1047.69
 736  940.3376
 737  886.8985
 738  974.4669
 739  1103.775
 740  1295.604
 741  1176.212
 742  1091.926
 743  1046.195
 744  1058.225
 745  1066.202
 746  1055.411
 747  1121.725
 748  1138.386
 749  1249.471
 750  1457.08
 751  1588.159
 752  1743.056
 753  1666.356
 754  1604.923
 755  1516.974
 756  1539.564
 757  1592.637
 758  1612.986
 759  1514.271
 760  1383.824
 761  1212.399
 762  1096.302
 763  1088.184
 764  1141.524
 765  1092.418
 766  997.546
 767  1024.054
 768  1024.846
 769  1060.58
 770  1062.291
 771  1029.246
 772  875.209
 773  886.6555
 774  1023.978
 775  1109.997
 776  1093.52
 777  1115.837
 778  1223.028
 779  1154.401
 780  1043.208
 781  1050.876
 782  1109.909
 783  1078.379
 784  1028.107
 785  1086.439
 786  1060.553
 787  1031.485
 788  1014.335
 789  999.2186
 790  1042.113
 791  1019.087
 792  1053.758
 793  1058.447
 794  948.1123
 795  844.2107
 796  897.8771
 797  937.514
 798  943.4527
 799  880.0308
 800  1001.137
 801  992.2484
 802  895.6489
 803  988.0765
 804  990.5873
 805  924.5024
 806  721.4742
 807  756.231
 808  933.4187
 809  951.5728
 810  949.627
 811  953.0618
 812  895.4276
 813  873.4682
 814  946.4619
 815  999.1264
 816  1081.302
 817  1077.779
 818  1117.279
 819  1087.136
 820  995.047
 821  890.3325
 822  927.9915
 823  924.1454
 824  905.3202
 825  917.5627
 826  1095.33
 827  1042.949
 828  894.8354
 829  808.752
 830  855.0287
 831  932.0493
 832  1046.99
 833  1134.375
 834  1096.5
 835  939.1255
 836  896.7465
 837  925.8495
 838  1001.786
 839  846.1458
 840  999.6588
 841  1067.315
 842  1093.205
 843  1046.85
 844  1087.505
 845  1036.004
 846  943.5142
 847  966.18
 848  1018.676
 849  949.5671
 850  834.6996
 851  777.8793
 852  885.9781
 853  864.7748
 854  830.8326
 855  866.8221
 856  1006.728
 857  946.701
 858  852.4506
 859  796.4787
 860  751.9199
 861  850.3275
 862  817.6855
 863  828.9169
 864  757.4257
 865  802.5421
 866  947.2946
 867  1033.287
 868  1060.254
 869  926.4716
 870  931.0354
 871  1032.963
 872  1039.792
 873  1010.353
 874  934.2968
 875  1036.18
 876  1137.478
 877  1083.033
 878  894.2896
 879  843.2824
 880  815.2114
 881  892.9659
 882  940.1735
 883  999.5573
 884  1021.094
 885  824.14
 886  787.5218
 887  756.9307
 888  782.1446
 889  802.3572
 890  835.845
 891  1048.038
 892  1030.338
 893  1057.698
 894  913.566
 895  899.7871
 896  890.7471
 897  848.9044
 898  899.218
 899  907.1146
 900  1038.378
 901  1038.414
 902  1090.291
 903  1159.41
 904  1139.609
 905  1094.797
 906  1009.696
 907  1062.572
 908  1104.716
 909  1056.557
 910  968.3851
 911  853.6207
 912  809.2092
 913  756.2034
 914  882.676
 915  1003.581
 916  1137.487
 917  1125.396
 918  987.7837
 919  864.4091
 920  894.5362
 921  1002.581
 922  1124.201
 923  1087.68
 924  1040.926
 925  1014.156
 926  1200.067
 927  1240.873
 928  1196.137
 929  1136.574
 930  1034.839
 931  982.1578
 932  943.9046
 933  962.1395
 934  1061.676
 935  1070.715
 936  1004.246
 937  1018.274
 938  1065.115
 939  1174.878
 940  1409.454
 941  1506.108
 942  1492.837
 943  1351.089
 944  1338.757
 945  1203.667
 946  1211.383
 947  1190.84
 948  1186.216
 949  1113.74
 950  1130.947
 951  990.9495
 952  1000.034
 953  985.0402
 954  1087.724
 955  1189.435
 956  1301.143
 957  1261.253
 958  1161.554
 959  1341.087
 960  1306.984
 961  1206.484
 962  966.9645
 963  1004.656
 964  1087.396
 965  1068.995
 966  1044.491
 967  944.1777
 968  1019.005
 969  980.0927
 970  1113.005
 971  1166.075
 972  1289.844
 973  1287.216
 974  1246.256
 975  1158.068
 976  1045.316
 977  902.3132
 978  809.4561
 979  890.221
 980  944.2272
 981  951.5937
 982  938.7368
 983  921.4075
 984  908.0774
 985  884.1722
 986  892.3181
 987  942.4674
 988  946.5126
 989  1032.662
 990  1016.466
 991  982.8421
 992  849.0167
 993  851.7356
 994  812.3777
 995  817.2689
 996  889.4047
 997  981.2665
 998  968.5395
 999  980.2912
1000  1090.397
1001  1105.245
1002  991.0137
1003  1011.055
1004  1136.609
1005  1150.107
1006  1015.999
1007  979.3578
1008  1030.837
1009  1001.535
1010  931.7967
1011  873.4481
1012  801.4548
1013  840.6545
1014  936.0621
1015  954.0018
1016  919.9409
1017  777.26
1018  703.5018
1019  748.3369
1020  851.5245
1021  898.9087
1022  900.6078
1023  1018.828
