# Input file       =  1180681523.102148_cleaned.dat
# Candidate        =  PSR_0332+5434
# Telescope        =  AR
# Epoch_topo       =  57909.295626182269
# Epoch_bary       =  N/A
# T_sample         =  0.002
# Data Folded      =  7340032
# Data Avg         =  0.0862844389349836
# Data StdDev      =  2.4740429280847  
# Profile Bins     =  512
# Profile Avg      =  1237.31770675093 
# Profile StdDev   =  296.224671906046 
# Reduced chi-sqr  =  1.148
# Prob(Noise)      <  0.0113   (~2.3 sigma)
# P_topo (ms)      =  714.512414803766  +/- 0.000348
# P'_topo (s/s)    =  -0                +/- 1.83e-10
# P''_topo (s/s^2) =  0                 +/- 8.1e-14
# P_bary (ms)      =  N/A
# P'_bary (s/s)    =  N/A
# P''_bary (s/s^2) =  N/A
# P_orb (s)        =  N/A
# asin(i)/c (s)    =  N/A
# eccentricity     =  N/A
# w (rad)          =  N/A
# T_peri           =  N/A
######################################################
   0  1280.433
   1  1270.853
   2  1176.663
   3  1065.956
   4  965.5306
   5  1010.229
   6  1056.298
   7  1041.996
   8  954.7211
   9  944.9375
  10  941.9585
  11  910.9334
  12  822.4974
  13  618.2427
  14  639.9776
  15  691.6627
  16  673.1312
  17  840.955
  18  865.4123
  19  1084.348
  20  1161.543
  21  1217.989
  22  1168.784
  23  735.6299
  24  741.8919
  25  1001.687
  26  835.2864
  27  1031.934
  28  1056.704
  29  1122.207
  30  1220.528
  31  1136.173
  32  911.5388
  33  1129.49
  34  1364.494
  35  1248.489
  36  948.8814
  37  708.0708
  38  730.4619
  39  972.1276
  40  1033.152
  41  963.3777
  42  1266.452
  43  1326.277
  44  1016.505
  45  1179.225
  46  1269.048
  47  1205.173
  48  1115.056
  49  1426.726
  50  1488.73
  51  1460.911
  52  1163.365
  53  993.9903
  54  1112.284
  55  1221.823
  56  1020.941
  57  1063.891
  58  1082.381
  59  1186.107
  60  899.294
  61  895.6508
  62  1195.817
  63  1138.915
  64  1429.559
  65  1648.694
  66  1443.942
  67  1265.707
  68  1243.734
  69  1342.83
  70  1370.64
  71  1150.603
  72  1116.025
  73  1278.676
  74  1074.039
  75  1068.402
  76  1472.703
  77  1462.25
  78  1282.602
  79  1172.121
  80  1240.864
  81  1208.376
  82  1076.406
  83  1263.775
  84  1390.347
  85  1440.442
  86  1118.958
  87  1037.871
  88  824.5189
  89  1085.702
  90  1183.585
  91  1123.46
  92  1043.836
  93  1119.805
  94  1197.623
  95  1469.688
  96  1251.688
  97  1102.983
  98  984.7969
  99  1040.206
 100  1237.571
 101  1048.129
 102  814.6896
 103  1008.496
 104  1105.684
 105  931.0128
 106  899.6795
 107  886.0426
 108  933.1485
 109  1406.177
 110  1257.369
 111  1235.435
 112  945.0991
 113  1112.652
 114  917.5104
 115  779.355
 116  803.9969
 117  920.8517
 118  1099.621
 119  1126.092
 120  1050.522
 121  1161.602
 122  1128.639
 123  1102.061
 124  1299.78
 125  1446.088
 126  1410.155
 127  1060.523
 128  1047.197
 129  1140.242
 130  1282.286
 131  1221.98
 132  1205.883
 133  1161.75
 134  1450.942
 135  1361.754
 136  1461.423
 137  1739.634
 138  2075.324
 139  2339.037
 140  2546.491
 141  2541.569
 142  2275.26
 143  1853.573
 144  1284.214
 145  1213.424
 146  1255.974
 147  1518.323
 148  1412.686
 149  1666.777
 150  1856.159
 151  1240.681
 152  1238.715
 153  1603.687
 154  1501.012
 155  1585.227
 156  1675.043
 157  1572.952
 158  1605.848
 159  1480.408
 160  1492.04
 161  1175.748
 162  1100.686
 163  1086.097
 164  1067.815
 165  1093.433
 166  1321.018
 167  1412.451
 168  1282.107
 169  1239.181
 170  1074.903
 171  1008.136
 172  1084.944
 173  915.4445
 174  986.4492
 175  1080.221
 176  1055.137
 177  1292.141
 178  1165.664
 179  1029.018
 180  871.3647
 181  901.1406
 182  1248.906
 183  1166.741
 184  1493.047
 185  1240.605
 186  1311.346
 187  1374.107
 188  1368.293
 189  1442.353
 190  1432.429
 191  1473.045
 192  1402.425
 193  1516.278
 194  1382.003
 195  1240.664
 196  1416.878
 197  1355.6
 198  1236.502
 199  1704.503
 200  1491.174
 201  1439.932
 202  1474.299
 203  1462.411
 204  1274.421
 205  1298.252
 206  1224.109
 207  1111.958
 208  1271.031
 209  1272.371
 210  1022.713
 211  1220.984
 212  1361.898
 213  1043.585
 214  1321.28
 215  1293.884
 216  1215.805
 217  1075.047
 218  1222.968
 219  1327.538
 220  1046.863
 221  965.4673
 222  1241.881
 223  1316.648
 224  1392.089
 225  1261.162
 226  1379.133
 227  1132.201
 228  1245.501
 229  1174.827
 230  963.9622
 231  1088.341
 232  1239.127
 233  1201.569
 234  1086.19
 235  1239.426
 236  1250.586
 237  1194.091
 238  1311.106
 239  1448.083
 240  1405.238
 241  1425.274
 242  1203.306
 243  1281.613
 244  1224.794
 245  1086.83
 246  1441.899
 247  1744.25
 248  1706.485
 249  1650.639
 250  1467.548
 251  1377.409
 252  1382.164
 253  1398.219
 254  1331.529
 255  1244.621
 256  1239.467
 257  1313.272
 258  1570.316
 259  1503.454
 260  1302.048
 261  1164.213
 262  1321.304
 263  1224.917
 264  1036.409
 265  1163.361
 266  1462.989
 267  1091.396
 268  1047.218
 269  1288.641
 270  1269.251
 271  1304.941
 272  1236.335
 273  1264.631
 274  1305.827
 275  1438.182
 276  1359.227
 277  1338.164
 278  1159.414
 279  1213.182
 280  1390.805
 281  1281.612
 282  1266.622
 283  1265.292
 284  1303.357
 285  1330.325
 286  1276.229
 287  1118.841
 288  1406.199
 289  1312.117
 290  1102.7
 291  1148.964
 292  1137.477
 293  1147.537
 294  1082.278
 295  981.0193
 296  1065.602
 297  1140.459
 298  1234.45
 299  1639.164
 300  1690.141
 301  1417.438
 302  1175.45
 303  1066.601
 304  939.0259
 305  1188.605
 306  1282.189
 307  1313.409
 308  1390.047
 309  1196.317
 310  1242.673
 311  1016.594
 312  1305.658
 313  1035.722
 314  1138.011
 315  1233.404
 316  996.4886
 317  1004.665
 318  1031.215
 319  886.7341
 320  1205.128
 321  1214.525
 322  1077.536
 323  1519.775
 324  1552.544
 325  1372.228
 326  1325.462
 327  1371.136
 328  1400.191
 329  1433.35
 330  1339.445
 331  1329.459
 332  1302.584
 333  1475.549
 334  1522.568
 335  1550.631
 336  1739.957
 337  1384.128
 338  1406.874
 339  1352.493
 340  1395.664
 341  1304.387
 342  1385.337
 343  1242.207
 344  1099.861
 345  1114.307
 346  1055.178
 347  947.8013
 348  1023.773
 349  1251.776
 350  1134.619
 351  1196.05
 352  1415.817
 353  1069.035
 354  900.6818
 355  1087.456
 356  1116.731
 357  1216.702
 358  1315.633
 359  1390.437
 360  1357.328
 361  1317.027
 362  1428.161
 363  1362.739
 364  1410.886
 365  1344.512
 366  1161.687
 367  1245.655
 368  1335.134
 369  1119.198
 370  1117.682
 371  1344.664
 372  1301.489
 373  1320.465
 374  1387.974
 375  1488.21
 376  1700.487
 377  1500.344
 378  1453.717
 379  1573.422
 380  1551.575
 381  1124.07
 382  1388.461
 383  1395.402
 384  1224.304
 385  1228.812
 386  1087.96
 387  1183.511
 388  1340.442
 389  1494.392
 390  1401.301
 391  1417.967
 392  1367.639
 393  1387.264
 394  1580.836
 395  1435.68
 396  1279.3
 397  1246.719
 398  1317.201
 399  1186.981
 400  1507.303
 401  1660.373
 402  1381.464
 403  1302.656
 404  1509.722
 405  1433.738
 406  1191.42
 407  1395.733
 408  1329.37
 409  1382.961
 410  1384.536
 411  1307.085
 412  1303.676
 413  1236.885
 414  1209.035
 415  1343.876
 416  1436.76
 417  1312.411
 418  1114.243
 419  1045.865
 420  1040.879
 421  1260.841
 422  1107.337
 423  1172.416
 424  1222.228
 425  1271.922
 426  1484.797
 427  1356.586
 428  1180.887
 429  747.1676
 430  1083.083
 431  1215.474
 432  1353.16
 433  1323.905
 434  1002.658
 435  1393.297
 436  1162.816
 437  964.2565
 438  943.9271
 439  1167.495
 440  1161.391
 441  922.2543
 442  1185.61
 443  1424.715
 444  1357.411
 445  1281.062
 446  1254.12
 447  1361.02
 448  1217.245
 449  1316.631
 450  1571.378
 451  1366.324
 452  1172.132
 453  1032.307
 454  1117.221
 455  1394.173
 456  1516.036
 457  1103.698
 458  1136.828
 459  1298.994
 460  1465.608
 461  1325.45
 462  1125.57
 463  1116.852
 464  1126.2
 465  1323.82
 466  1047.907
 467  1312.707
 468  1260.735
 469  1188.812
 470  1224.19
 471  943.5762
 472  940.6127
 473  834.8984
 474  889.1735
 475  840.2635
 476  852.1486
 477  1103.831
 478  1009.923
 479  1116.65
 480  1487.48
 481  1129.194
 482  1135.613
 483  1272.331
 484  1259.075
 485  1081.818
 486  1224.55
 487  1058.212
 488  1022.654
 489  920.0873
 490  939.0751
 491  1054.907
 492  1226.056
 493  1329.945
 494  1241.546
 495  1114.328
 496  1230.222
 497  1285.098
 498  1345.023
 499  1546.272
 500  1261.639
 501  1305.308
 502  1368.955
 503  1136.705
 504  1137.015
 505  1380.396
 506  1460.067
 507  1433.224
 508  1242.759
 509  815.6668
 510  1025.801
 511  1189.462
