# Input file       =  1180265636.121797_cleaned.dat
# Candidate        =  PSR_0332+5434
# Telescope        =  AR
# Epoch_topo       =  57904.482119465247
# Epoch_bary       =  N/A
# T_sample         =  0.002
# Data Folded      =  7340032
# Data Avg         =  0.0922300879402818
# Data StdDev      =  3.01965199712584 
# Profile Bins     =  512
# Profile Avg      =  1321.89255051106 
# Profile StdDev   =  361.552102417042 
# Reduced chi-sqr  =  1.091
# Prob(Noise)      <  0.0767   (~1.4 sigma)
# P_topo (ms)      =  714.51742464653   +/- 0.000278
# P'_topo (s/s)    =  -0                +/- 1.47e-10
# P''_topo (s/s^2) =  0                 +/- 6.47e-14
# P_bary (ms)      =  N/A
# P'_bary (s/s)    =  N/A
# P''_bary (s/s^2) =  N/A
# P_orb (s)        =  N/A
# asin(i)/c (s)    =  N/A
# eccentricity     =  N/A
# w (rad)          =  N/A
# T_peri           =  N/A
######################################################
   0  1059.331
   1  1442.29
   2  1748.238
   3  1460.215
   4  1009.311
   5  1163.832
   6  1219.673
   7  1263.146
   8  1176.503
   9  1406.713
  10  1493.195
  11  1362.162
  12  1654.788
  13  1619.204
  14  1348.159
  15  1122.137
  16  1431.745
  17  1259.804
  18  1070.939
  19  1220.951
  20  1541.312
  21  1651.01
  22  1391.103
  23  1098.286
  24  1684.802
  25  1786.185
  26  1515.964
  27  1458.078
  28  1432.529
  29  1466.947
  30  1749.855
  31  1588.297
  32  1647.815
  33  1530.394
  34  1347.594
  35  1356.765
  36  1712.068
  37  1679.143
  38  1680.5
  39  1391.688
  40  1449.201
  41  1393.109
  42  1383.096
  43  1479.035
  44  1638.784
  45  1440.645
  46  1388.783
  47  1354.794
  48  1681.047
  49  1578.838
  50  1096.926
  51  1313.71
  52  1656.186
  53  1298.708
  54  1354.299
  55  1536.97
  56  1614.595
  57  1869.441
  58  1470.36
  59  1121.197
  60  1200.127
  61  1440.75
  62  1837.775
  63  1404.443
  64  1575.257
  65  1314.971
  66  1133.076
  67  1106.92
  68  1384.695
  69  1730.977
  70  1599.328
  71  1388.715
  72  1572.626
  73  1303.739
  74  968.9683
  75  1329.262
  76  1536.864
  77  1540.707
  78  1721.781
  79  1896.694
  80  2223.198
  81  2282.869
  82  2569.039
  83  2586.877
  84  2595.553
  85  2091.507
  86  1621.493
  87  1238.047
  88  1384.141
  89  1330.481
  90  1224.213
  91  1389.47
  92  1401.684
  93  1332.137
  94  1436.83
  95  1239.664
  96  1161.622
  97  1526.821
  98  1645.38
  99  1363.063
 100  930.2678
 101  1150.12
 102  1323.613
 103  1514.389
 104  1322.53
 105  1355.551
 106  1569.252
 107  1556.435
 108  1310.662
 109  1039.561
 110  1357.153
 111  1509.558
 112  1363.364
 113  1642.043
 114  1283.956
 115  1311.734
 116  1256.557
 117  1121.812
 118  1340.833
 119  1321.036
 120  1591.019
 121  2024.258
 122  1614.794
 123  1446.773
 124  1160.365
 125  925.159
 126  1040.045
 127  903.1919
 128  948.5386
 129  1224.587
 130  1316.901
 131  1176.097
 132  1021.353
 133  985.9094
 134  1070.495
 135  811.4391
 136  964.5922
 137  1262.528
 138  904.9526
 139  550.6147
 140  777.9888
 141  887.5518
 142  1339.022
 143  1321.21
 144  1186.834
 145  857.6036
 146  1279.94
 147  1081.208
 148  948.5856
 149  793.6277
 150  1020.547
 151  1215.658
 152  1099.787
 153  1412.944
 154  1430.966
 155  1065.985
 156  1290.709
 157  1391.975
 158  1130.971
 159  1313.408
 160  1563.947
 161  1744.967
 162  1740.01
 163  1667.611
 164  1788.868
 165  1731.221
 166  1478.631
 167  1579.191
 168  1865
 169  1824.864
 170  1289.959
 171  1357.932
 172  1454.145
 173  1338.789
 174  1521.927
 175  1366.711
 176  951.1367
 177  793.155
 178  1095.727
 179  1243.151
 180  1233.908
 181  1248.564
 182  1339.108
 183  1193.792
 184  1158.26
 185  1328.652
 186  1322.893
 187  1145.699
 188  1145.829
 189  912.7561
 190  1128.987
 191  1073.746
 192  1126.746
 193  1120.116
 194  833.3912
 195  956.6616
 196  1361.499
 197  1469.369
 198  1338.479
 199  1651.534
 200  1488.997
 201  1486.396
 202  1138.807
 203  1537.295
 204  1440.256
 205  1597.836
 206  1470.253
 207  1704.477
 208  1552.011
 209  1811.29
 210  1782.094
 211  1733.822
 212  1780.965
 213  1487.467
 214  1485.424
 215  1446.397
 216  1449.699
 217  1516.103
 218  1249.061
 219  1040.792
 220  1379.602
 221  1471.763
 222  1527.997
 223  1503.509
 224  1322.432
 225  1614.036
 226  1456.519
 227  1130.595
 228  1244.172
 229  1094.168
 230  1206.413
 231  1140.894
 232  1227.634
 233  1531.918
 234  1374.006
 235  1289.586
 236  1214.167
 237  1210.114
 238  1170.902
 239  1335.287
 240  1047.701
 241  1211.379
 242  1494.942
 243  1504.466
 244  1629.732
 245  1471.635
 246  1392.222
 247  1357.166
 248  1399.419
 249  1498.08
 250  1295.534
 251  1401.556
 252  1478.986
 253  1681.748
 254  1674.577
 255  1696.407
 256  1424.709
 257  1158.406
 258  1435.281
 259  1141.251
 260  1319.386
 261  1230.324
 262  1163.507
 263  1277.63
 264  1403.755
 265  1592.514
 266  1608.611
 267  1467.466
 268  1413.262
 269  1322.489
 270  1825.205
 271  1557.545
 272  1528.345
 273  1278.351
 274  1314.542
 275  1544.753
 276  1455.046
 277  1333.355
 278  1796.201
 279  1561.452
 280  1404.703
 281  1413.488
 282  1454.138
 283  1596.58
 284  1522.42
 285  1602.667
 286  1367.332
 287  922.577
 288  1235.594
 289  1335.938
 290  1419.741
 291  1532.677
 292  1121.18
 293  1445.074
 294  1556.846
 295  1391.915
 296  1142.086
 297  1059.323
 298  917.2107
 299  1334.008
 300  1260.432
 301  860.373
 302  856.6755
 303  814.6804
 304  903.3
 305  1145.957
 306  1310.561
 307  1428.226
 308  1526.199
 309  1301.463
 310  1216.811
 311  1415.523
 312  947.6
 313  808.6161
 314  1030.864
 315  1031.526
 316  709.8026
 317  1109.061
 318  1161.792
 319  894.1285
 320  1118.705
 321  1333.768
 322  1291.142
 323  1070.896
 324  1054.96
 325  934.4435
 326  957.0684
 327  1113.578
 328  1307.283
 329  1337.405
 330  1408.281
 331  1308.596
 332  1271.144
 333  1144.252
 334  1429.939
 335  1526.808
 336  1344.002
 337  1419.288
 338  1541.779
 339  1551.306
 340  1180.171
 341  1250.809
 342  1419.927
 343  1268.94
 344  1238.212
 345  1242.627
 346  1148.631
 347  1285.248
 348  1088.062
 349  792.8684
 350  1048.007
 351  936.7283
 352  896.0847
 353  771.9932
 354  658.7733
 355  949.9932
 356  1077.054
 357  1246.462
 358  1252.178
 359  1177.316
 360  952.0678
 361  1166.855
 362  1128.244
 363  1367.515
 364  1530.142
 365  1490.361
 366  1235.076
 367  1227.864
 368  1207.306
 369  1499.757
 370  1276.903
 371  1354.205
 372  1388.307
 373  1517.533
 374  1362.182
 375  1472.322
 376  1290.927
 377  1301.169
 378  1019.456
 379  1197.011
 380  1335.619
 381  1604.385
 382  1445.343
 383  1434.483
 384  1572.83
 385  1103.708
 386  1054.412
 387  1199.656
 388  986.7417
 389  995.0494
 390  1370.193
 391  1681.145
 392  1343.857
 393  1132.668
 394  1348.143
 395  1290.707
 396  1062.565
 397  1122.527
 398  1340.906
 399  1164.549
 400  736.0617
 401  748.5323
 402  995.2175
 403  1037.863
 404  995.8054
 405  1012.851
 406  987.3518
 407  939.4561
 408  866.8168
 409  940.1392
 410  1115.177
 411  1187.11
 412  1636.65
 413  1610.109
 414  1568.224
 415  1623.57
 416  1468.967
 417  1623.567
 418  1354.351
 419  1671.216
 420  1475.632
 421  1212.705
 422  1475.307
 423  1355.057
 424  1188.508
 425  1120.924
 426  1449.893
 427  1231.178
 428  937.843
 429  792.1597
 430  912.4304
 431  1253.716
 432  1376.795
 433  1267.014
 434  1160.517
 435  1501.063
 436  1197.823
 437  1154.246
 438  1133.271
 439  1217.758
 440  1114.944
 441  895.0983
 442  780.7822
 443  974.1376
 444  673.9231
 445  824.2683
 446  1039.994
 447  1313.808
 448  1145.616
 449  1152.013
 450  1384.812
 451  1257.246
 452  1158.833
 453  1327.878
 454  1367.862
 455  1349.576
 456  1137.273
 457  1306.731
 458  1256.473
 459  1609.351
 460  1556.725
 461  1605.102
 462  1417.098
 463  1067.243
 464  1736.449
 465  1517.274
 466  1672.115
 467  1732.716
 468  1457.883
 469  1433.75
 470  1375.255
 471  1525.512
 472  1349.8
 473  1137.654
 474  1244.451
 475  1253.658
 476  1247.952
 477  1172.153
 478  1113.186
 479  1104.501
 480  971.2059
 481  1017.399
 482  867.6375
 483  1153.945
 484  1487.572
 485  1396.107
 486  1079.384
 487  825.7637
 488  900.8389
 489  1382.336
 490  1409.044
 491  823.3
 492  1035.064
 493  1417.431
 494  1149.345
 495  1137.661
 496  1214.701
 497  1706.991
 498  1785.341
 499  1554.229
 500  1693.324
 501  1650.551
 502  1427.584
 503  1518.732
 504  1335.26
 505  1145.221
 506  1237.667
 507  1437.398
 508  1615.477
 509  1371.763
 510  1374.829
 511  997.655
