# Input file       =  1180423018.099737_cleaned.dat
# Candidate        =  PSR_0332+5434
# Telescope        =  AR
# Epoch_topo       =  57906.303670135843
# Epoch_bary       =  N/A
# T_sample         =  0.002
# Data Folded      =  7340032
# Data Avg         =  0.0877210041424924
# Data StdDev      =  2.88714058346564 
# Profile Bins     =  1024
# Profile Avg      =  628.886274846278 
# Profile StdDev   =  244.436991485824 
# Reduced chi-sqr  =  0.792
# Prob(Noise)      <  1   (~0.0 sigma)
# P_topo (ms)      =  714.515311574704  +/- 0.000681
# P'_topo (s/s)    =  -0                +/- 3.59e-10
# P''_topo (s/s^2) =  0                 +/- 1.59e-13
# P_bary (ms)      =  N/A
# P'_bary (s/s)    =  N/A
# P''_bary (s/s^2) =  N/A
# P_orb (s)        =  N/A
# asin(i)/c (s)    =  N/A
# eccentricity     =  N/A
# w (rad)          =  N/A
# T_peri           =  N/A
######################################################
   0  502.5135
   1  569.215
   2  666.731
   3  627.3805
   4  583.2982
   5  490.3025
   6  624.7626
   7  705.7452
   8  658.8972
   9  646.0851
  10  682.3519
  11  758.0981
  12  558.5088
  13  538.8658
  14  497.6872
  15  541.0286
  16  394.0693
  17  377.6285
  18  486.3604
  19  591.9284
  20  628.7379
  21  655.0694
  22  691.8137
  23  676.7916
  24  670.2862
  25  587.4039
  26  575.6833
  27  543.6683
  28  606.6689
  29  597.9284
  30  564.2274
  31  608.2509
  32  679.2969
  33  681.4295
  34  673.4084
  35  657.4312
  36  688.1218
  37  605.1805
  38  564.052
  39  494.449
  40  593.6801
  41  679.487
  42  730.7637
  43  603.1556
  44  583.9009
  45  602.1893
  46  613.1675
  47  507.8901
  48  471.3725
  49  514.4881
  50  674.5705
  51  697.5656
  52  704.42
  53  590.8222
  54  667.7455
  55  634.3276
  56  616.3102
  57  432.532
  58  588.3221
  59  730.1476
  60  827.6912
  61  716.5117
  62  615.6073
  63  559.2026
  64  533.757
  65  547.225
  66  626.601
  67  652.3076
  68  717.1127
  69  692.9165
  70  685.1392
  71  623.3076
  72  558.3477
  73  533.9605
  74  559.0956
  75  529.029
  76  558.9594
  77  596.3651
  78  670.9563
  79  652.0666
  80  565.0097
  81  530.3339
  82  596.2421
  83  700.6445
  84  742.077
  85  752.7192
  86  684.062
  87  668.8925
  88  650.4988
  89  677.1323
  90  593.3713
  91  608.4912
  92  638.1558
  93  621.6295
  94  564.2543
  95  686.1096
  96  793.8582
  97  725.4694
  98  694.0534
  99  667.0481
 100  722.248
 101  736.9388
 102  693.1442
 103  651.3027
 104  650.514
 105  739.4191
 106  676.9086
 107  596.5619
 108  530.5766
 109  611.9456
 110  605.3342
 111  662.1071
 112  661.5016
 113  703.2466
 114  649.9443
 115  646.8291
 116  643.2556
 117  608.8646
 118  581.123
 119  611.0476
 120  625.4239
 121  578.8189
 122  559.5983
 123  650.6298
 124  767.7164
 125  922.3724
 126  818.8619
 127  707.9169
 128  669.2474
 129  760.2416
 130  730.2122
 131  729.2319
 132  797.2177
 133  893.2844
 134  819.681
 135  719.5952
 136  732.9754
 137  824.7659
 138  779.7554
 139  775.1196
 140  717.2963
 141  707.1882
 142  656.8462
 143  644.5432
 144  617.6768
 145  566.6119
 146  641.2814
 147  682.1629
 148  593.0012
 149  498.4399
 150  562.4041
 151  707.1072
 152  762.4568
 153  688.9011
 154  697.782
 155  723.1512
 156  771.1635
 157  799.9509
 158  730.8176
 159  679.4254
 160  639.8631
 161  694.5961
 162  723.2197
 163  737.6348
 164  764.5519
 165  807.4932
 166  793.9968
 167  795.1884
 168  725.8923
 169  681.7134
 170  599.9694
 171  606.6508
 172  678.5938
 173  739.5503
 174  680.7457
 175  617.4387
 176  572.5751
 177  608.7196
 178  676.8781
 179  595.9323
 180  612.8414
 181  630.6406
 182  727.9328
 183  641.0044
 184  598.1188
 185  609.7548
 186  672.3053
 187  651.7042
 188  692.7642
 189  709.1161
 190  707.8959
 191  693.5668
 192  702.894
 193  667.477
 194  673.3926
 195  633.7697
 196  607.2608
 197  585.8029
 198  605.3624
 199  669.1533
 200  670.3115
 201  623.2075
 202  608.8351
 203  542.583
 204  452.1951
 205  413.5057
 206  419.138
 207  472.554
 208  545.0342
 209  597.1602
 210  602.372
 211  592.8549
 212  571.5641
 213  495.4085
 214  373.5567
 215  462.7633
 216  636.715
 217  752.6179
 218  716.282
 219  600.2155
 220  475.2113
 221  471.8654
 222  521.3293
 223  630.2928
 224  643.1746
 225  615.7052
 226  532.4075
 227  480.0755
 228  439.861
 229  478.3048
 230  574.5635
 231  596.1852
 232  656.9183
 233  610.6664
 234  601.3328
 235  541.9416
 236  556.2685
 237  561.2833
 238  596.606
 239  509.0002
 240  556.1156
 241  484.9322
 242  581.2441
 243  553.3422
 244  575.2772
 245  613.5297
 246  689.0652
 247  745.0216
 248  774.2866
 249  651.0886
 250  642.2823
 251  661.2869
 252  681.0005
 253  617.7537
 254  589.5876
 255  644.1924
 256  637.5064
 257  638.1364
 258  637.6596
 259  671.9959
 260  667.9471
 261  519.3866
 262  528.9894
 263  506.7924
 264  524.9771
 265  465.4444
 266  512.4617
 267  497.8734
 268  519.4412
 269  611.0768
 270  629.781
 271  669.1992
 272  576.5403
 273  610.5355
 274  590.4556
 275  574.8948
 276  467.8858
 277  476.0237
 278  558.3152
 279  597.4194
 280  560.179
 281  632.8302
 282  666.8525
 283  656.8967
 284  629.7973
 285  623.937
 286  610.4507
 287  651.6138
 288  762.4628
 289  785.4169
 290  762.4676
 291  700.8234
 292  771.23
 293  787.776
 294  732.4069
 295  633.581
 296  547.0076
 297  640.3329
 298  665.7568
 299  703.7021
 300  763.1553
 301  776.7294
 302  786.5516
 303  673.4683
 304  641.8013
 305  683.0958
 306  682.2065
 307  670.8199
 308  699.2379
 309  687.4577
 310  607.0531
 311  448.54
 312  463.4658
 313  511.8492
 314  636.6909
 315  604.7472
 316  647.257
 317  628.9696
 318  654.8013
 319  534.8253
 320  411.3164
 321  439.2969
 322  521.0994
 323  561.595
 324  594.3416
 325  545.6043
 326  643.1772
 327  659.6848
 328  678.7375
 329  601.635
 330  455.1246
 331  485.2273
 332  576.7717
 333  611.3391
 334  599.3401
 335  541.4868
 336  489.644
 337  377.3485
 338  432.5414
 339  478.7426
 340  495.6536
 341  432.2055
 342  499.3723
 343  607.3242
 344  624.9351
 345  544.1864
 346  468.1516
 347  371.4219
 348  442.3102
 349  442.8929
 350  524.9669
 351  573.0834
 352  591.8655
 353  594.9075
 354  591.5989
 355  633.3021
 356  644.9874
 357  623.2277
 358  592.8711
 359  548.3122
 360  588.1384
 361  598.4521
 362  640.6652
 363  697.2947
 364  617.9971
 365  545.3259
 366  518.9382
 367  632.2054
 368  632.9592
 369  461.2083
 370  295.7623
 371  409.1595
 372  583.0461
 373  768.1129
 374  680.1393
 375  645.6066
 376  528.0431
 377  489.0673
 378  398.3272
 379  376.8073
 380  458.8088
 381  566.1597
 382  649.8466
 383  744.5473
 384  784.5576
 385  706.1206
 386  732.7368
 387  808.6744
 388  823.9081
 389  692.2923
 390  644.0197
 391  744.7139
 392  769.0981
 393  823.0005
 394  768.8755
 395  754.9478
 396  739.791
 397  792.1819
 398  747.7521
 399  752.6501
 400  747.4187
 401  816.4324
 402  664.7585
 403  559.8909
 404  488.0306
 405  628.4381
 406  726.0273
 407  776.3557
 408  755.26
 409  662.5513
 410  672.3288
 411  678.3071
 412  737.1793
 413  600.3269
 414  514.3211
 415  543.7922
 416  600.2612
 417  595.0613
 418  585.5383
 419  645.8345
 420  705.3434
 421  682.002
 422  660.3893
 423  580.3228
 424  564.8361
 425  609.3956
 426  621.0792
 427  608.4942
 428  549.8093
 429  516.5867
 430  524.0847
 431  617.9194
 432  718.9159
 433  741.4359
 434  692.6259
 435  587.4445
 436  624.4769
 437  666.3129
 438  739.2249
 439  728.8745
 440  757.9067
 441  743.1861
 442  668.0684
 443  605.6851
 444  656.7306
 445  774.5137
 446  738.3262
 447  599.085
 448  542.9363
 449  711.9218
 450  719.0024
 451  728.7596
 452  619.4749
 453  630.4455
 454  525.8924
 455  531.8421
 456  632.2896
 457  673.6219
 458  781.5578
 459  744.1879
 460  742.59
 461  668.2882
 462  658.994
 463  633.7434
 464  695.6371
 465  642.5369
 466  585.6915
 467  497.7776
 468  514.5377
 469  543.9684
 470  628.9276
 471  709.3647
 472  637.0643
 473  550.6436
 474  508.0319
 475  532.3658
 476  556.7211
 477  603.9416
 478  480.3719
 479  503.5736
 480  610.5746
 481  692.3601
 482  664.1729
 483  642.0931
 484  690.9539
 485  623.4583
 486  528.4081
 487  515.2327
 488  549.0096
 489  630.0902
 490  630.1931
 491  584.4669
 492  562.1198
 493  445.1147
 494  375.7697
 495  309.073
 496  392.2473
 497  414.7803
 498  551.2177
 499  627.2316
 500  612.2762
 501  594.0441
 502  557.3092
 503  511.6122
 504  425.5593
 505  443.7018
 506  518.8834
 507  582.726
 508  497.4402
 509  379.1334
 510  421.5154
 511  544.3851
 512  480.0937
 513  410.8983
 514  387.463
 515  460.3455
 516  501.8778
 517  519.106
 518  569.5463
 519  612.3573
 520  540.032
 521  526.049
 522  414.8766
 523  374.6636
 524  305.3623
 525  378.2668
 526  399.5675
 527  370.1474
 528  383.9463
 529  532.7502
 530  607.5858
 531  613.7053
 532  603.2845
 533  520.5712
 534  501.077
 535  540.7849
 536  773.6659
 537  725.5222
 538  646.0076
 539  620.9372
 540  827.1453
 541  854.3173
 542  781.6736
 543  637.4265
 544  629.4659
 545  617.5106
 546  673.4941
 547  657.1054
 548  598.189
 549  554.3752
 550  639.1189
 551  588.8505
 552  557.4055
 553  479.9823
 554  545.6155
 555  586.7781
 556  587.7628
 557  578.2247
 558  612.2187
 559  734.7581
 560  834.739
 561  834.0073
 562  820.0759
 563  771.0633
 564  701.8419
 565  649.815
 566  569.3529
 567  525.5839
 568  572.382
 569  681.1398
 570  775.4731
 571  780.6649
 572  687.4557
 573  620.7202
 574  484.3125
 575  431.3988
 576  355.4432
 577  378.5528
 578  467.0984
 579  582.8132
 580  635.8745
 581  642.5425
 582  616.5613
 583  642.5443
 584  658.2997
 585  728.787
 586  700.278
 587  643.7377
 588  570.5165
 589  595.0795
 590  597.7251
 591  570.9972
 592  614.5817
 593  651.879
 594  704.8173
 595  711.1682
 596  685.3772
 597  653.8702
 598  607.8832
 599  582.1293
 600  669.4015
 601  724.2581
 602  740.5452
 603  702.5696
 604  675.445
 605  580.3273
 606  490.2073
 607  435.3534
 608  441.5162
 609  460.7671
 610  529.6323
 611  597.0955
 612  521.3127
 613  465.9921
 614  452.9952
 615  539.6702
 616  511.0262
 617  521.7279
 618  453.1957
 619  506.5078
 620  507.4552
 621  608.7922
 622  603.0938
 623  586.0986
 624  497.0448
 625  502.1721
 626  459.0116
 627  482.7319
 628  474.5764
 629  517.2684
 630  589.6948
 631  649.564
 632  638.3206
 633  725.671
 634  701.6442
 635  678.22
 636  645.3477
 637  678.3265
 638  723.4056
 639  713.783
 640  721.9092
 641  719.61
 642  772.8024
 643  775.5005
 644  651.3168
 645  530.0138
 646  596.2294
 647  646.0427
 648  717.1302
 649  672.3062
 650  672.8691
 651  582.4985
 652  560.8635
 653  527.2447
 654  565.8282
 655  650.0673
 656  689.1939
 657  663.004
 658  588.5366
 659  559.9432
 660  631.5746
 661  571.6808
 662  553.1379
 663  542.7032
 664  551.849
 665  516.7261
 666  443.8891
 667  423.7397
 668  464.713
 669  530.9163
 670  552.4893
 671  520.0557
 672  481.7564
 673  531.7684
 674  583.0071
 675  634.2092
 676  579.8174
 677  483.2804
 678  505.9668
 679  493.3932
 680  522.5779
 681  533.4998
 682  515.3633
 683  487.0775
 684  539.1819
 685  583.5635
 686  618.251
 687  520.7457
 688  496.8714
 689  364.0444
 690  274.6323
 691  266.6368
 692  298.4205
 693  258.488
 694  193.6529
 695  256.4713
 696  403.4991
 697  472.9097
 698  570.5272
 699  563.864
 700  642.9055
 701  627.9753
 702  592.3738
 703  463.7732
 704  481.7528
 705  608.13
 706  721.9022
 707  685.9904
 708  566.7839
 709  492.9328
 710  549.0743
 711  583.9359
 712  631.5958
 713  511.0353
 714  533.1268
 715  478.5934
 716  549.1519
 717  571.7292
 718  567.9129
 719  556.7057
 720  518.7531
 721  470.6359
 722  478.0913
 723  547.4228
 724  602.2979
 725  632.9579
 726  659.9583
 727  577.3835
 728  648.1394
 729  659.4575
 730  686.8575
 731  706.7037
 732  700.5214
 733  717.383
 734  662.6231
 735  724.381
 736  742.1
 737  652.7316
 738  607.2086
 739  612.037
 740  641.2351
 741  638.0693
 742  698.339
 743  790.1791
 744  818.2101
 745  787.1159
 746  778.7615
 747  894.473
 748  904.7673
 749  875.2749
 750  846.3917
 751  868.2755
 752  921.541
 753  1073.139
 754  1136.52
 755  1202.019
 756  1261.525
 757  1333.333
 758  1266.323
 759  1135.739
 760  1012.332
 761  951.282
 762  844.5693
 763  740.7437
 764  732.9867
 765  742.2618
 766  734.8074
 767  784.7108
 768  788.1047
 769  815.1992
 770  567.7939
 771  564.588
 772  510.0468
 773  640.4709
 774  631.964
 775  662.5246
 776  613.9594
 777  675.687
 778  773.072
 779  794.0959
 780  692.1772
 781  660.4592
 782  667.135
 783  744.549
 784  785.0721
 785  815.078
 786  890.6738
 787  945.9062
 788  994.5657
 789  949.6144
 790  897.6331
 791  775.7045
 792  789.1341
 793  838.7075
 794  879.6996
 795  732.4456
 796  647.6508
 797  611.0413
 798  708.9274
 799  751.3759
 800  844.5331
 801  817.2143
 802  859.5433
 803  811.6548
 804  812.9246
 805  789.545
 806  726.5598
 807  659.0125
 808  615.3663
 809  607.1536
 810  703.101
 811  846.1497
 812  869.3005
 813  815.4012
 814  771.9901
 815  822.9666
 816  930.0294
 817  930.3734
 818  835.7725
 819  805.2947
 820  760.9084
 821  743.6411
 822  585.1478
 823  564.4688
 824  594.5424
 825  596.881
 826  625.8544
 827  693.8713
 828  854.8344
 829  899.8259
 830  802.2902
 831  687.7419
 832  640.9186
 833  640.1169
 834  628.133
 835  607.3747
 836  560.3327
 837  601.2125
 838  636.8151
 839  693.5561
 840  617.9802
 841  573.011
 842  609.8873
 843  633.7866
 844  573.6163
 845  513.1467
 846  522.8505
 847  599.7127
 848  603.2098
 849  624.9006
 850  646.816
 851  719.585
 852  719.6382
 853  702.2548
 854  634.923
 855  660.8249
 856  718.6775
 857  734.131
 858  668.7668
 859  626.4386
 860  657.4172
 861  594.3885
 862  558.3331
 863  483.0615
 864  571.059
 865  641.8389
 866  713.3891
 867  631.4478
 868  510.6317
 869  565.1492
 870  703.21
 871  806.2629
 872  817.2973
 873  819.929
 874  719.8882
 875  623.6878
 876  618.4039
 877  746.6556
 878  655.4153
 879  650.1367
 880  640.5852
 881  698.8443
 882  616.7327
 883  658.0032
 884  770.8444
 885  748.4804
 886  738.8784
 887  607.0566
 888  568.1475
 889  524.9999
 890  521.8665
 891  553.7031
 892  625.9639
 893  740.3681
 894  701.6062
 895  627.4042
 896  644.054
 897  776.2391
 898  811.2555
 899  843.6926
 900  793.4673
 901  661.6699
 902  564.6732
 903  592.1965
 904  706.8805
 905  730.6096
 906  580.2973
 907  586.3841
 908  655.829
 909  727.4529
 910  750.4291
 911  628.8663
 912  625.3501
 913  577.2355
 914  591.4029
 915  555.8267
 916  488.3789
 917  493.6678
 918  597.0572
 919  688.2146
 920  699.8525
 921  626.3184
 922  653.4127
 923  729.9413
 924  781.9406
 925  785.5032
 926  736.0578
 927  648.6028
 928  647.1755
 929  637.8911
 930  638.6617
 931  615.6069
 932  637.6345
 933  704.8516
 934  660.1206
 935  644.707
 936  632.9664
 937  621.963
 938  683.1684
 939  648.5974
 940  700.5777
 941  631.5903
 942  725.0615
 943  761.0676
 944  841.1685
 945  771.632
 946  716.6747
 947  639.6417
 948  594.7344
 949  589.0438
 950  574.211
 951  600.1194
 952  600.231
 953  676.2036
 954  680.2924
 955  739.5929
 956  673.1614
 957  593.709
 958  516.829
 959  577.1028
 960  597.575
 961  646.283
 962  604.7975
 963  659.968
 964  617.4671
 965  642.6967
 966  552.7079
 967  632.7949
 968  649.0331
 969  691.1314
 970  582.2404
 971  474.3237
 972  519.7974
 973  615.4006
 974  675.5582
 975  685.7181
 976  669.8149
 977  686.3292
 978  691.1673
 979  733.5286
 980  736.2558
 981  626.0914
 982  543.6075
 983  444.8112
 984  518.6188
 985  504.2002
 986  589.0839
 987  648.477
 988  666.6674
 989  606.8864
 990  544.4407
 991  552.0682
 992  566.0544
 993  503.131
 994  486.9859
 995  477.3854
 996  539.2072
 997  502.609
 998  551.2098
 999  491.3951
1000  555.1326
1001  520.7164
1002  547.1636
1003  530.23
1004  599.3301
1005  708.3722
1006  754.2081
1007  680.0313
1008  655.2692
1009  617.0663
1010  581.8121
1011  516.2164
1012  572.7061
1013  662.9911
1014  738.2269
1015  673.128
1016  598.7249
1017  546.4268
1018  525.9503
1019  495.6868
1020  531.2382
1021  503.1461
1022  515.3217
1023  467.9014
