# Input file       =  1180610293.114655_cleaned.dat
# Candidate        =  PSR_0332+5434
# Telescope        =  AR
# Epoch_topo       =  57908.471205030728
# Epoch_bary       =  N/A
# T_sample         =  0.002
# Data Folded      =  7340032
# Data Avg         =  0.0671563539997026
# Data StdDev      =  2.99543380489336 
# Profile Bins     =  512
# Profile Avg      =  962.980660552518 
# Profile StdDev   =  358.652384725492 
# Reduced chi-sqr  =  1.076
# Prob(Noise)      <  0.114   (~1.2 sigma)
# P_topo (ms)      =  714.513544684901  +/- 0.000734
# P'_topo (s/s)    =  -0                +/- 3.87e-10
# P''_topo (s/s^2) =  0                 +/- 1.71e-13
# P_bary (ms)      =  N/A
# P'_bary (s/s)    =  N/A
# P''_bary (s/s^2) =  N/A
# P_orb (s)        =  N/A
# asin(i)/c (s)    =  N/A
# eccentricity     =  N/A
# w (rad)          =  N/A
# T_peri           =  N/A
######################################################
   0  1214.46
   1  837.7877
   2  1116.998
   3  1068.812
   4  801.9723
   5  1226.647
   6  1310.817
   7  1142.057
   8  1346.006
   9  1406.235
  10  1250.632
  11  1130.37
  12  1315.926
  13  1268.482
  14  1068.848
  15  1092.09
  16  1135.898
  17  1344.868
  18  1292.871
  19  1236.169
  20  1370.369
  21  1364.067
  22  1329.979
  23  1040.4
  24  1045.397
  25  802.7531
  26  633.765
  27  827.639
  28  971.2402
  29  839.9424
  30  1106.396
  31  989.0255
  32  1203.817
  33  1079.585
  34  745.127
  35  779.1284
  36  586.8369
  37  864.5681
  38  1096.962
  39  891.3527
  40  1018.366
  41  989.6624
  42  1111.961
  43  1116.582
  44  887.884
  45  897.1454
  46  1323.622
  47  1305.13
  48  1061.71
  49  1004.883
  50  1087.029
  51  988.7974
  52  1086.468
  53  775.776
  54  912.3143
  55  1162.01
  56  1328.55
  57  981.4542
  58  619.1268
  59  723.1763
  60  732.9071
  61  647.0695
  62  821.0271
  63  749.1461
  64  1014.74
  65  1015.435
  66  734.0649
  67  732.3328
  68  874.6194
  69  854.4816
  70  1071.169
  71  1160.085
  72  1352.168
  73  1133.375
  74  1298.001
  75  994.723
  76  977.6544
  77  930.4471
  78  957.5903
  79  792.0424
  80  801.4268
  81  1154.07
  82  1293.24
  83  620.8305
  84  660.2872
  85  595.6024
  86  599.0268
  87  629.9701
  88  673.0907
  89  831.8634
  90  863.5716
  91  857.6234
  92  898.446
  93  1013.065
  94  938.2923
  95  871.2552
  96  1089.34
  97  981.61
  98  836.2105
  99  792.0282
 100  1171.105
 101  1337.992
 102  1103.628
 103  1269.946
 104  1047.383
 105  731.9581
 106  695.9894
 107  980.8181
 108  761.1059
 109  964.9728
 110  1191.171
 111  1392.99
 112  1167.891
 113  1189.365
 114  1508.999
 115  1170.791
 116  1057.699
 117  635.0903
 118  773.8479
 119  1049.823
 120  1013.232
 121  947.572
 122  1111.699
 123  1248.007
 124  1225.058
 125  1046.768
 126  512.3394
 127  662.3471
 128  965.518
 129  1021.3
 130  1182.558
 131  1058.858
 132  953.0663
 133  1160.715
 134  1219.982
 135  916.8144
 136  889.4694
 137  1170.333
 138  887.219
 139  744.8768
 140  960.9094
 141  1124.423
 142  1147.493
 143  869.906
 144  653.7036
 145  681.421
 146  769.0681
 147  970.6829
 148  1037.11
 149  1513.842
 150  1302.731
 151  979.4691
 152  1075.754
 153  1128.418
 154  1263.625
 155  1267.974
 156  983.8999
 157  1076.241
 158  1133.157
 159  1106.921
 160  1014.823
 161  1058.342
 162  1177.122
 163  1292.431
 164  1014.409
 165  596.2284
 166  697.2809
 167  894.1125
 168  995.7343
 169  928.4232
 170  776.7009
 171  1045.872
 172  1183.2
 173  1088.213
 174  946.948
 175  896.4998
 176  911.092
 177  988.3067
 178  915.5533
 179  1116.019
 180  1063.569
 181  1155.033
 182  1091.347
 183  861.1923
 184  926.0319
 185  1051.999
 186  995.5734
 187  936.5958
 188  787.632
 189  791.575
 190  541.6843
 191  874.1053
 192  1203.476
 193  1264.015
 194  1223.891
 195  1029.221
 196  952.6
 197  1051.355
 198  917.6223
 199  941.7543
 200  951.8614
 201  752.9369
 202  949.9571
 203  791.6082
 204  923.5605
 205  853.5471
 206  669.6485
 207  464.4326
 208  722.3188
 209  887.5806
 210  959.9637
 211  1256.592
 212  1390.404
 213  1527.746
 214  1063.064
 215  805.0063
 216  809.488
 217  892.4534
 218  948.9997
 219  908.671
 220  963.9464
 221  913.7886
 222  926.7387
 223  779.0604
 224  604.848
 225  450.4869
 226  723.6774
 227  1169.868
 228  1057.823
 229  900.4412
 230  685.7584
 231  728.4639
 232  978.8544
 233  869.2266
 234  705.6425
 235  708.4996
 236  929.0045
 237  821.1874
 238  831.0414
 239  1176.458
 240  1082.062
 241  1108.412
 242  1050.948
 243  1123.495
 244  1187.889
 245  783.346
 246  780.8268
 247  1011.454
 248  1204.282
 249  1074.064
 250  888.8174
 251  1125.416
 252  1258.808
 253  1348.954
 254  1154.993
 255  1240.853
 256  1257.045
 257  1370.605
 258  1155.533
 259  1461.134
 260  1855.831
 261  2288.327
 262  2544.858
 263  2324.485
 264  2607.577
 265  2104.314
 266  1568.674
 267  1403.259
 268  1103.497
 269  904.3086
 270  1287.159
 271  1332.487
 272  972.159
 273  822.3386
 274  955.7748
 275  1016.374
 276  970.515
 277  975.9331
 278  1373.16
 279  1299.72
 280  1193.894
 281  1256.602
 282  959.0612
 283  809.063
 284  843.3083
 285  906.9922
 286  1023.286
 287  797.9136
 288  897.1805
 289  1139.095
 290  1026.907
 291  1163.487
 292  1276.517
 293  1159.047
 294  1184.296
 295  1260.59
 296  1026.667
 297  765.268
 298  560.0593
 299  828.7689
 300  1049.154
 301  415.5899
 302  608.2545
 303  886.3575
 304  1118.395
 305  586.7682
 306  756.8597
 307  844.255
 308  1106.515
 309  1155.864
 310  1322.08
 311  1036.234
 312  717.6361
 313  688.9424
 314  694.9655
 315  664.1088
 316  1151.693
 317  1060.359
 318  1045.88
 319  1059.108
 320  1083.213
 321  1084.575
 322  1080.399
 323  1059.078
 324  1264.246
 325  1209.219
 326  925.5807
 327  790.6256
 328  999.7514
 329  796.1563
 330  825.326
 331  565.7544
 332  654.0342
 333  991.3451
 334  936.3333
 335  1117.971
 336  853.3486
 337  815.6135
 338  1069.354
 339  730.1255
 340  874.9498
 341  824.115
 342  761.3817
 343  717.5081
 344  844.343
 345  858.7005
 346  872.4224
 347  838.8476
 348  475.381
 349  699.0732
 350  745.5051
 351  565.694
 352  739.8564
 353  865.8286
 354  846.7759
 355  502.4289
 356  657.9884
 357  662.6113
 358  625.0775
 359  927.1769
 360  527.2247
 361  326.0993
 362  517.4996
 363  442.627
 364  478.7351
 365  664.7713
 366  873.9524
 367  1009.882
 368  840.2646
 369  614.4966
 370  439.5685
 371  781.0815
 372  648.6592
 373  846.9491
 374  684.3604
 375  778.7112
 376  758.804
 377  600.3701
 378  479.9023
 379  727.4165
 380  701.3768
 381  569.2362
 382  274.9097
 383  793.7919
 384  793.939
 385  740.9318
 386  937.9973
 387  661.0444
 388  577.0929
 389  840.8872
 390  965.5563
 391  492.121
 392  574.4064
 393  984.4719
 394  941.8542
 395  943.9659
 396  925.566
 397  606.1085
 398  642.8914
 399  654.5253
 400  491.5867
 401  804.8902
 402  623.3426
 403  669.9391
 404  953.9963
 405  929.5858
 406  638.0803
 407  821.5958
 408  662.9901
 409  1033.289
 410  1104.189
 411  1024.936
 412  1002.733
 413  961.3149
 414  897.2205
 415  981.7376
 416  1066.421
 417  716.5577
 418  630.8686
 419  1006.274
 420  1096.488
 421  716.7126
 422  748.1268
 423  888.9651
 424  688.4177
 425  671.9005
 426  838.5753
 427  800.5911
 428  935.8367
 429  924.908
 430  925.4894
 431  1038.645
 432  781.5314
 433  996.8612
 434  1250.222
 435  1147.543
 436  764.5624
 437  687.9049
 438  772.0759
 439  1008.865
 440  1054.569
 441  838.9594
 442  1017.503
 443  1037.85
 444  769.6907
 445  895.1625
 446  1015.781
 447  1015.885
 448  884.8203
 449  695.6471
 450  939.7422
 451  925.2726
 452  861.0369
 453  525.867
 454  828.4518
 455  919.6373
 456  826.5988
 457  878.1699
 458  1051.89
 459  1081.99
 460  912.5553
 461  624.1711
 462  700.0716
 463  779.499
 464  668.0378
 465  1072.249
 466  1256.449
 467  801.6488
 468  795.2532
 469  712.6451
 470  1023.015
 471  917.9359
 472  763.1444
 473  881.1692
 474  903.0691
 475  777.2227
 476  881.9474
 477  850.0912
 478  1224.197
 479  883.3821
 480  753.9827
 481  870.8787
 482  769.7009
 483  416.2903
 484  723.6054
 485  1239.396
 486  1216.293
 487  1223.995
 488  689.9817
 489  1097.887
 490  1310.856
 491  953.0573
 492  943.9299
 493  869.1808
 494  985.7131
 495  1026.333
 496  1098.625
 497  1127.347
 498  1146.451
 499  1171.047
 500  1079.589
 501  1020.582
 502  1325.174
 503  1430.656
 504  1278.556
 505  968.6903
 506  1040.254
 507  1349.637
 508  1364.828
 509  1300.59
 510  1513.748
 511  1451.568
