# Input file       =  1180351768.120151_cleaned.dat
# Candidate        =  PSR_0332+5434
# Telescope        =  AR
# Epoch_topo       =  57905.479017594342
# Epoch_bary       =  N/A
# T_sample         =  0.002
# Data Folded      =  7340032
# Data Avg         =  0.9611511114885  
# Data StdDev      =  14.371521186071  
# Profile Bins     =  1024
# Profile Avg      =  6889.5633073243  
# Profile StdDev   =  1216.75107264127 
# Reduced chi-sqr  =  0.813
# Prob(Noise)      <  1   (~0.0 sigma)
# P_topo (ms)      =  714.51644930252   +/- 0.000115
# P'_topo (s/s)    =  -0                +/- 6.08e-11
# P''_topo (s/s^2) =  0                 +/- 2.69e-14
# P_bary (ms)      =  N/A
# P'_bary (s/s)    =  N/A
# P''_bary (s/s^2) =  N/A
# P_orb (s)        =  N/A
# asin(i)/c (s)    =  N/A
# eccentricity     =  N/A
# w (rad)          =  N/A
# T_peri           =  N/A
######################################################
   0  7040.139
   1  7062.698
   2  6832.335
   3  6889.851
   4  7186.312
   5  7245.043
   6  6490.45
   7  6208.089
   8  6178.705
   9  5749.121
  10  5758.363
  11  6164.567
  12  6798.077
  13  7369.549
  14  7883.603
  15  8425.883
  16  7947.682
  17  7332.296
  18  6663.01
  19  6630.236
  20  6932.578
  21  6540.898
  22  6476.124
  23  6320.885
  24  6322.482
  25  6486.785
  26  6914.267
  27  7143.306
  28  7034.406
  29  7081.008
  30  7458.941
  31  7193.236
  32  6660.524
  33  6501.106
  34  6449.174
  35  6763.976
  36  6780.893
  37  7090.203
  38  6893.757
  39  6992.35
  40  7059.055
  41  7497.008
  42  7259.647
  43  7244.459
  44  7204.943
  45  7934.119
  46  7685.436
  47  7190.16
  48  6342.945
  49  6652.675
  50  6966.321
  51  7239.654
  52  6594.48
  53  6445.475
  54  6668.506
  55  6540.109
  56  6213.087
  57  6223.202
  58  6308.421
  59  6527.766
  60  6537.922
  61  6904.576
  62  7068.402
  63  6881.693
  64  7055.995
  65  6813.592
  66  6970.499
  67  6878.007
  68  7340.227
  69  7183.952
  70  7312.599
  71  7108.694
  72  7866.165
  73  7290.051
  74  7297.431
  75  6621.318
  76  7218.534
  77  7294.163
  78  7542.52
  79  7300.665
  80  7105.862
  81  6829.477
  82  6798.992
  83  6960.956
  84  7030.698
  85  7385.816
  86  7685.791
  87  7362.838
  88  7045.76
  89  7158.642
  90  7178.688
  91  6791.458
  92  6724.503
  93  7134.566
  94  7725.822
  95  7208.932
  96  7182.024
  97  7134.837
  98  7489.825
  99  7017.115
 100  6358.652
 101  6598.962
 102  7603.127
 103  8201.705
 104  8192.529
 105  7955.892
 106  8485.632
 107  8903.224
 108  9068.944
 109  8487.32
 110  8415.545
 111  8586.873
 112  8635.633
 113  8148.229
 114  7626.005
 115  6914.83
 116  7032.619
 117  6688.046
 118  6823.007
 119  6642.133
 120  6897.641
 121  7038.083
 122  7349.857
 123  7507.872
 124  7680.075
 125  7708.798
 126  7480.366
 127  7946.898
 128  7975.242
 129  7490.156
 130  7184.926
 131  7203.394
 132  7280.994
 133  6978.767
 134  6986.034
 135  7290.876
 136  7435.375
 137  7623.039
 138  7453.039
 139  7124.388
 140  7014.393
 141  7328.802
 142  7697.308
 143  7903.103
 144  7528.192
 145  7528.107
 146  7314.18
 147  7658.367
 148  7853.565
 149  7432.29
 150  7369.914
 151  7004.382
 152  7043.283
 153  7044.479
 154  7458.135
 155  7486.139
 156  7224.588
 157  7127.403
 158  6945.303
 159  6786.707
 160  7045.748
 161  7722.153
 162  7218.402
 163  7033.217
 164  7281.576
 165  7468.854
 166  7464.855
 167  7878.172
 168  8304.542
 169  8554.152
 170  7662.143
 171  7233.121
 172  6729.811
 173  6945.355
 174  6682.551
 175  6689.88
 176  6804.806
 177  7309.852
 178  7168.09
 179  6790.812
 180  6926.352
 181  7127.877
 182  7298.598
 183  7365.103
 184  7363.012
 185  7525.583
 186  7361.76
 187  7295.161
 188  6937.414
 189  6847.207
 190  7081.997
 191  7734.233
 192  7119.426
 193  6789.893
 194  6954.488
 195  7320.924
 196  6583.165
 197  6260.013
 198  6079.36
 199  6936.153
 200  6999.83
 201  6986.187
 202  7120.436
 203  7014.268
 204  7390.1
 205  7685.578
 206  7650.33
 207  7613.782
 208  7398.088
 209  7593.04
 210  7722.234
 211  7703.079
 212  7535.531
 213  7273.871
 214  7322.613
 215  7607.936
 216  7895.628
 217  7944.728
 218  7398.389
 219  7433.123
 220  7267.707
 221  7572.161
 222  8022.806
 223  7867.88
 224  7483.76
 225  6930.731
 226  6739.615
 227  6637.883
 228  6216.403
 229  6051.995
 230  5932.269
 231  6085.775
 232  6394.983
 233  6562.573
 234  7083.498
 235  7254.644
 236  7540.784
 237  7198.967
 238  7181.513
 239  7271.119
 240  7130.706
 241  7404.137
 242  7168.5
 243  6831.883
 244  6494.706
 245  6453.545
 246  6614.259
 247  6759.504
 248  6909.774
 249  7059.589
 250  6556.186
 251  6550.183
 252  6308.41
 253  5843.271
 254  5832.835
 255  6116.991
 256  6816.976
 257  6807.726
 258  6912.562
 259  6162.329
 260  6046.338
 261  6274.751
 262  6594.11
 263  6292.074
 264  6029.828
 265  6040.533
 266  6461.787
 267  6415.05
 268  7134.655
 269  7368.588
 270  7971.763
 271  7551.089
 272  7284.988
 273  6951.08
 274  6817.171
 275  6795.251
 276  7238.848
 277  7412.8
 278  6997.811
 279  6129.231
 280  6266.878
 281  6366.225
 282  7542.018
 283  7648.183
 284  7668.292
 285  7193.039
 286  7215.377
 287  7046.031
 288  6586.376
 289  5664.034
 290  5727.346
 291  6084.494
 292  6127.141
 293  6462.485
 294  6490.081
 295  6989.761
 296  6929.913
 297  7027.237
 298  6890.889
 299  6918.24
 300  6968.283
 301  7467.098
 302  7964.345
 303  8060.213
 304  7773.057
 305  7551.86
 306  7049.697
 307  6573.67
 308  5628.972
 309  6077.957
 310  6654.4
 311  6897.084
 312  6268.708
 313  6438.527
 314  6993.509
 315  7585.355
 316  7672.586
 317  7833.406
 318  7881.752
 319  7712.94
 320  7628.171
 321  7938.498
 322  7270.085
 323  6820.977
 324  6501.59
 325  6550.399
 326  6767.823
 327  6813.536
 328  6423.587
 329  6231.147
 330  6738.032
 331  7398.517
 332  7438.066
 333  6756.113
 334  6623.009
 335  6764.023
 336  7302.655
 337  7670.948
 338  7401.479
 339  6790.469
 340  6684.924
 341  6882.849
 342  8190.484
 343  8350.78
 344  8140.146
 345  7313.592
 346  7414.78
 347  7276.63
 348  6865.701
 349  6596.299
 350  6837.389
 351  7062.734
 352  6586.794
 353  5543.061
 354  5557.914
 355  5843.773
 356  6654.659
 357  6714.867
 358  6915.709
 359  6769.771
 360  7344.315
 361  7720.532
 362  6911.184
 363  6241.593
 364  6108.309
 365  6735.27
 366  7304.231
 367  7209.463
 368  6932.995
 369  6558.878
 370  6570.54
 371  6122.607
 372  5638.269
 373  5675.942
 374  6249.318
 375  6702.963
 376  6904.98
 377  6396.836
 378  6107.837
 379  6095.976
 380  6725.814
 381  6968.088
 382  7424.785
 383  7310.774
 384  7418.019
 385  7518.015
 386  7246.771
 387  6596.398
 388  5974.418
 389  6376.912
 390  6585.948
 391  6548.131
 392  5971.897
 393  5258.448
 394  5107.706
 395  5509.913
 396  6303.222
 397  6979.707
 398  6778.324
 399  6588.707
 400  6670.897
 401  6538.392
 402  6689.73
 403  6783.049
 404  6823.201
 405  6316.64
 406  5680.822
 407  6065.616
 408  5866.299
 409  6431.542
 410  6777.523
 411  6544.395
 412  5883.374
 413  5415.092
 414  5592.336
 415  6354.29
 416  6507.152
 417  6931.357
 418  6604.964
 419  6463.729
 420  6616.151
 421  6858.593
 422  6656.657
 423  6537.784
 424  6727.077
 425  6645.175
 426  6056.435
 427  5852.208
 428  6251.153
 429  6365.286
 430  6384.719
 431  6500.104
 432  6520.428
 433  5984.918
 434  6108.168
 435  6664.047
 436  6962.499
 437  6336.009
 438  6243.819
 439  6552.321
 440  6604.221
 441  6381.629
 442  6221.641
 443  6500.236
 444  6594.93
 445  6628.304
 446  6694.952
 447  6477.378
 448  6509.715
 449  6244.53
 450  6159.81
 451  6847.887
 452  7147.421
 453  7305.583
 454  6803.372
 455  7175.803
 456  7309.208
 457  6870.611
 458  6631.196
 459  6899.453
 460  7569.328
 461  6917.046
 462  7021.968
 463  6821.829
 464  6934.025
 465  7048.381
 466  7499.095
 467  7515.562
 468  7091.283
 469  6736.877
 470  6775.867
 471  6841.673
 472  6754.332
 473  7316.014
 474  6779.634
 475  6559.965
 476  6547.921
 477  6977.717
 478  6539.039
 479  6428.091
 480  6592.957
 481  6618.337
 482  6657.061
 483  7253.168
 484  8371.644
 485  8283.414
 486  7706.587
 487  7685.009
 488  7308.188
 489  7515.626
 490  7343.395
 491  7047.072
 492  5960.404
 493  5715.731
 494  6179.213
 495  5773.063
 496  5574.853
 497  5713.094
 498  6537.475
 499  6482.007
 500  6511.738
 501  6849.799
 502  6609.485
 503  6454.354
 504  7112.204
 505  7414.744
 506  7386.944
 507  6795.166
 508  6763.514
 509  6838.264
 510  6973.029
 511  7232.508
 512  7629.691
 513  6647.326
 514  6703.615
 515  5903.542
 516  5886.997
 517  5984.212
 518  6854.578
 519  6882.737
 520  6665.173
 521  6982.158
 522  6920.109
 523  6368.296
 524  6156.565
 525  7140.077
 526  7496.206
 527  7059.827
 528  6532.164
 529  6608.069
 530  6665.342
 531  7123.482
 532  7312.53
 533  6645.583
 534  5579.201
 535  5179.479
 536  5777.392
 537  6845.093
 538  7556.325
 539  7798.303
 540  7342.287
 541  6843.862
 542  6972.925
 543  7058.042
 544  6551.642
 545  6502.848
 546  7066.206
 547  7062.708
 548  6538.521
 549  6124.765
 550  6507.656
 551  6457.058
 552  6595.382
 553  7140.468
 554  7200.865
 555  6878.316
 556  6868.081
 557  6856.345
 558  7322.13
 559  7540.112
 560  7863.124
 561  7484.513
 562  7395.223
 563  6859.499
 564  6565.375
 565  6579.029
 566  6770.112
 567  7164.082
 568  6491.122
 569  6042.442
 570  6172.201
 571  6545.624
 572  7006.788
 573  6898.639
 574  6791.358
 575  6821.265
 576  6753.75
 577  7503.795
 578  7685.302
 579  7521.413
 580  7488.088
 581  7355.664
 582  7200.996
 583  6620.954
 584  6874.177
 585  6633.026
 586  6834.138
 587  6424.438
 588  5886.174
 589  5599.965
 590  6179.85
 591  6733.568
 592  6993.088
 593  6238.79
 594  6256.978
 595  6036.975
 596  5726.364
 597  5533.589
 598  5473.239
 599  6687.593
 600  6941.803
 601  7177.79
 602  6886.995
 603  7106.383
 604  7588.966
 605  7949.434
 606  7663.482
 607  7144.743
 608  6893.601
 609  6966.29
 610  6802.044
 611  6717.37
 612  6734.53
 613  6896.276
 614  7445.205
 615  7439.366
 616  7813.08
 617  7557.169
 618  7100.114
 619  7292.648
 620  7456.752
 621  7539.75
 622  7245.857
 623  6974.41
 624  7435.761
 625  6796.271
 626  6434.019
 627  5898.421
 628  5870.63
 629  6072.57
 630  6644.482
 631  7099.966
 632  6181.513
 633  5638.917
 634  5591.637
 635  6292.655
 636  6395.212
 637  6818.95
 638  6974.725
 639  7267.715
 640  7208.064
 641  7387.671
 642  7332.212
 643  7540.271
 644  7824.018
 645  7541.939
 646  7291.248
 647  7270.854
 648  7656.153
 649  7545.194
 650  7064.928
 651  6901.81
 652  6292.446
 653  6098.086
 654  5754.242
 655  5895.565
 656  6131.658
 657  6712.167
 658  6620.883
 659  6857.986
 660  6765.748
 661  7165.939
 662  7461.498
 663  7583.595
 664  7468.006
 665  7026.445
 666  6335.247
 667  5789.672
 668  5870.351
 669  5905.174
 670  5992.362
 671  5904.478
 672  6149.004
 673  6023.502
 674  6552.99
 675  7392.101
 676  8167.503
 677  8197.037
 678  8217.35
 679  7736.344
 680  7306.013
 681  6716.845
 682  6702.734
 683  6886.841
 684  6845.469
 685  6633.44
 686  6364.328
 687  6356.418
 688  6883.094
 689  6908.391
 690  7111.694
 691  6919.546
 692  7193.42
 693  7507.403
 694  7760.01
 695  7646.782
 696  7110.974
 697  7162.75
 698  6765.633
 699  6458.555
 700  6024.982
 701  5658.217
 702  5724.732
 703  5662.646
 704  5536.796
 705  5906.374
 706  6751.516
 707  7473.011
 708  7469.58
 709  7037.18
 710  7052.893
 711  6754.161
 712  6896.973
 713  6820.098
 714  7299.528
 715  7059.1
 716  6386.033
 717  6283.542
 718  6383.646
 719  6592.653
 720  6638.96
 721  6600.414
 722  6925.59
 723  6973.951
 724  7958.569
 725  8677.331
 726  9138.775
 727  8733.715
 728  8154.652
 729  7872.17
 730  7263.653
 731  7295.285
 732  6590.407
 733  6580.245
 734  6507.049
 735  6609.074
 736  6416.168
 737  5978.356
 738  6031.759
 739  6312.52
 740  6697.827
 741  7395.266
 742  7645.342
 743  7981.781
 744  7802.75
 745  7824.794
 746  7665.412
 747  7516.093
 748  7265.101
 749  6696.054
 750  6965.258
 751  6936.827
 752  7162.048
 753  7548.958
 754  7249.73
 755  7200.327
 756  7346.76
 757  7998.186
 758  8311.231
 759  7834.838
 760  7417.653
 761  7296.935
 762  7344.376
 763  6942.53
 764  6847.106
 765  6054.008
 766  5992.194
 767  5212.367
 768  5834.916
 769  6153.461
 770  6389.722
 771  6393.486
 772  6558.49
 773  7063.028
 774  7085.221
 775  7128.405
 776  7131.891
 777  7595.026
 778  7846.751
 779  7500.819
 780  6811.966
 781  5992.358
 782  5564.878
 783  5900.548
 784  6221.708
 785  6498.476
 786  6254.139
 787  6568.735
 788  6711.305
 789  6356.664
 790  6434.76
 791  7057.284
 792  7294.963
 793  7047.549
 794  7228.403
 795  7155.163
 796  6747.457
 797  6439.551
 798  6489.747
 799  6978.84
 800  6531.742
 801  6200.59
 802  5588.084
 803  5199.959
 804  5974.09
 805  6592.023
 806  6990.481
 807  6401.584
 808  6348.809
 809  6104.725
 810  6070.045
 811  5422.941
 812  5454.185
 813  5632.126
 814  6495.309
 815  6878.622
 816  7421.458
 817  6844.34
 818  6849.876
 819  6940.784
 820  7092.378
 821  6966.699
 822  6638.005
 823  6722.109
 824  7559.037
 825  7780.846
 826  8159.529
 827  7625.868
 828  7836.746
 829  7641.728
 830  7337.576
 831  6936.303
 832  6701.843
 833  6625.942
 834  6691.051
 835  6863.152
 836  7567.367
 837  7590.978
 838  7371.797
 839  7199.161
 840  7808.225
 841  7695.058
 842  7342.985
 843  6972.268
 844  6827.446
 845  6369.054
 846  6713.255
 847  7023.104
 848  6562.75
 849  5814.677
 850  6244.884
 851  6533.292
 852  6573.26
 853  6943.887
 854  6959.401
 855  6543.402
 856  5873.198
 857  6349.017
 858  7111.578
 859  7414.188
 860  7765.161
 861  8157.709
 862  8503.029
 863  7653.366
 864  6708.811
 865  6297.334
 866  6042.278
 867  5908.527
 868  6150.89
 869  6526.981
 870  6334.582
 871  6251.407
 872  6409.46
 873  6248.572
 874  6435.402
 875  6522.372
 876  6355.728
 877  5993.522
 878  6234.404
 879  6525.902
 880  6119.833
 881  6108.024
 882  5979.536
 883  6861.324
 884  7005.5
 885  7231.826
 886  6997.863
 887  7681.349
 888  7940.561
 889  7746.831
 890  7422.079
 891  7112.413
 892  7637.765
 893  7976.819
 894  7577.034
 895  6951.39
 896  6658.291
 897  6797.343
 898  7063.777
 899  7095.55
 900  6720.238
 901  5790.6
 902  6120.816
 903  6557.474
 904  6891.781
 905  7191.461
 906  7263.282
 907  7000.972
 908  6207.936
 909  6678.288
 910  6829.739
 911  6144.867
 912  6091.389
 913  6782.52
 914  7103.572
 915  6020.256
 916  5562.573
 917  6296.103
 918  6809.493
 919  6979.912
 920  7156.483
 921  6973.531
 922  6909.312
 923  7000.676
 924  7291.883
 925  7166.154
 926  7227.615
 927  7276.961
 928  6773.6
 929  6679.82
 930  6807.282
 931  7157.142
 932  6914.044
 933  7084.485
 934  7393.923
 935  7123.412
 936  6594.844
 937  6624.889
 938  6869.922
 939  7275.744
 940  7522.864
 941  7924.705
 942  6962.149
 943  5877.94
 944  6044.913
 945  6190.568
 946  6792.905
 947  6851.879
 948  7054.924
 949  6737.911
 950  6243.516
 951  6762.893
 952  6691.614
 953  6581.124
 954  6913.624
 955  7123.356
 956  7301.585
 957  6679.889
 958  7134.274
 959  7258.143
 960  6646.869
 961  6749.501
 962  6951.647
 963  6810.521
 964  6239.169
 965  6457.444
 966  6933.685
 967  6223.81
 968  6243.087
 969  6567.801
 970  7077.118
 971  6972.046
 972  6972.086
 973  6731.611
 974  5934.558
 975  6237.716
 976  6668.448
 977  6859.841
 978  6873.159
 979  7196.296
 980  7686.655
 981  7549.853
 982  6669.279
 983  6607.325
 984  6155.866
 985  6270.792
 986  6379.78
 987  6589.859
 988  6786.666
 989  6786.056
 990  7292.647
 991  7189.671
 992  6928.205
 993  7001.275
 994  7157.888
 995  7005.554
 996  7127.07
 997  7029.141
 998  6922.229
 999  6363.392
1000  6774.993
1001  6490.831
1002  6275.865
1003  6439.321
1004  6817.196
1005  6793.769
1006  6339.241
1007  6648.962
1008  6761.284
1009  7123.558
1010  6930.923
1011  6913.044
1012  6512.048
1013  6206.486
1014  6528.832
1015  6803.662
1016  6865.83
1017  6596.123
1018  6508.302
1019  6961.485
1020  7282.777
1021  7418.944
1022  7079.105
1023  6949.729
