# Input file       =  1180853821.116358_cleaned.dat
# Candidate        =  PSR_0332+5434
# Telescope        =  AR
# Epoch_topo       =  57911.289816161552
# Epoch_bary       =  N/A
# T_sample         =  0.002
# Data Folded      =  7340032
# Data Avg         =  0.114924166448223
# Data StdDev      =  2.88848857238991 
# Profile Bins     =  512
# Profile Avg      =  1647.58021339763 
# Profile StdDev   =  345.847507311834 
# Reduced chi-sqr  =  0.925
# Prob(Noise)      <  0.887   (~0.0 sigma)
# P_topo (ms)      =  714.510500695358  +/- 0.000585
# P'_topo (s/s)    =  -0                +/- 3.08e-10
# P''_topo (s/s^2) =  0                 +/- 1.36e-13
# P_bary (ms)      =  N/A
# P'_bary (s/s)    =  N/A
# P''_bary (s/s^2) =  N/A
# P_orb (s)        =  N/A
# asin(i)/c (s)    =  N/A
# eccentricity     =  N/A
# w (rad)          =  N/A
# T_peri           =  N/A
######################################################
   0  1495.222
   1  1708.887
   2  1799.228
   3  1318.579
   4  1185.568
   5  1400.527
   6  1385.383
   7  1603.331
   8  1508.799
   9  1491.662
  10  1637.285
  11  1645.723
  12  1854.738
  13  1773.259
  14  1755.401
  15  1783.785
  16  2040.596
  17  2065.696
  18  1920.399
  19  1820.052
  20  1991.082
  21  1682.229
  22  1528.75
  23  1595.6
  24  2172.854
  25  1768.829
  26  1963.9
  27  2032.455
  28  1969.174
  29  1827.266
  30  1864.225
  31  2062.554
  32  2019.467
  33  1782.6
  34  2022.51
  35  1811.185
  36  1657.354
  37  1632.179
  38  1846.203
  39  2247.845
  40  2034.134
  41  1697.004
  42  1880.075
  43  1995.895
  44  1794.135
  45  1987.901
  46  1993.433
  47  1958.274
  48  1697.27
  49  1836.784
  50  1656.472
  51  1502.411
  52  1420.652
  53  1647.426
  54  1626.936
  55  1798.622
  56  1893.46
  57  1741.543
  58  1768.851
  59  1825.474
  60  2017.883
  61  2074.72
  62  1861.35
  63  1953.682
  64  1745.525
  65  1662.682
  66  1604.818
  67  1425.839
  68  1671.649
  69  1884.197
  70  1953.723
  71  1712.115
  72  1557.701
  73  1633.215
  74  1700.163
  75  2019.677
  76  2285.727
  77  1968.999
  78  1691.709
  79  1445.959
  80  1821.895
  81  1714.321
  82  1528.186
  83  1498.659
  84  1633.716
  85  1796.98
  86  1699.911
  87  1423.07
  88  1150.628
  89  1440.236
  90  1552.832
  91  1224.322
  92  1310.38
  93  1495.754
  94  1631.527
  95  1365.521
  96  1078.687
  97  1529.623
  98  1734.02
  99  1539.678
 100  1637.486
 101  1636.983
 102  1546.452
 103  1798.817
 104  1991.354
 105  1792.282
 106  1673.929
 107  1750.717
 108  1919.205
 109  1391.75
 110  1557.44
 111  1793.378
 112  1605.037
 113  1531.653
 114  1533.503
 115  1587.711
 116  1689.345
 117  1435.033
 118  1654.889
 119  1515.031
 120  1481.33
 121  1471.27
 122  1569.977
 123  1570.8
 124  1216.803
 125  1643.555
 126  1711.819
 127  1536.123
 128  1534.265
 129  1385.338
 130  1495.529
 131  1882.033
 132  1725.179
 133  1920.806
 134  1498.893
 135  1500.399
 136  1283.381
 137  1440.214
 138  1457.901
 139  1448.468
 140  1463.173
 141  1431.204
 142  1552.224
 143  1799.055
 144  1785.447
 145  1344.527
 146  1357.218
 147  1468.449
 148  1453.462
 149  1485.691
 150  1607.317
 151  1822.61
 152  1672.077
 153  1640.014
 154  1463.667
 155  1406.298
 156  1592.329
 157  1482.756
 158  1661.99
 159  1430.941
 160  1459.583
 161  1378.128
 162  1286.45
 163  1662.18
 164  1502.514
 165  1590.934
 166  1467.217
 167  1311.668
 168  1210.233
 169  1083.468
 170  1228.344
 171  1160.124
 172  1638.125
 173  1582.503
 174  1649.788
 175  1659.94
 176  1601.918
 177  1761.583
 178  1817.046
 179  1609.711
 180  1914.522
 181  2041.23
 182  2016.862
 183  1589.364
 184  1590.525
 185  1864.127
 186  1621.587
 187  1756.222
 188  1767.613
 189  1919.742
 190  1926.952
 191  1722.473
 192  1621.596
 193  1700.354
 194  1660.052
 195  1612.487
 196  1594.607
 197  1571.973
 198  1469.098
 199  1511.429
 200  1541.844
 201  1940.63
 202  1737.849
 203  1463.772
 204  1746.484
 205  1654.502
 206  1686.225
 207  1966.662
 208  1825.076
 209  1996.845
 210  1585.185
 211  1651.631
 212  1755.269
 213  1775.995
 214  1853.701
 215  1782.12
 216  1750.828
 217  1962.831
 218  1696.399
 219  1876.107
 220  2260.41
 221  2085.36
 222  1601.693
 223  1467.663
 224  1865.689
 225  1957.148
 226  1917.499
 227  1766.775
 228  1680.85
 229  1715.456
 230  1850.509
 231  1715.406
 232  1817.911
 233  1967.292
 234  1998.87
 235  1844.592
 236  1932.418
 237  1769.124
 238  1865.452
 239  1634.661
 240  1693.022
 241  1673.181
 242  1618.709
 243  1510.595
 244  1473.73
 245  1536.479
 246  1386.802
 247  1373.759
 248  1424.656
 249  1492.115
 250  1372.811
 251  1471.29
 252  1587.418
 253  1502.11
 254  1658.956
 255  1642.746
 256  1694.293
 257  1573.586
 258  1738.231
 259  1510.925
 260  1496.85
 261  1569.974
 262  1458.261
 263  1361.009
 264  1383.051
 265  1821.863
 266  1784.608
 267  1819.196
 268  1604.272
 269  1469.222
 270  1527.196
 271  1395.688
 272  1515.686
 273  1652.28
 274  1460.877
 275  1385.668
 276  1548.149
 277  1682.788
 278  1656.062
 279  1540.743
 280  1536.53
 281  1672.763
 282  1974.349
 283  1823.46
 284  1746.354
 285  1720.986
 286  1533.633
 287  1713.432
 288  1614.717
 289  1678.06
 290  1599.553
 291  1518.078
 292  1466.738
 293  1458.68
 294  1351.918
 295  1607.776
 296  1420.726
 297  1576.104
 298  1437.306
 299  1448.696
 300  1391.188
 301  1496.843
 302  1539.573
 303  1552.712
 304  1846.768
 305  1579.793
 306  1518.696
 307  1597.922
 308  1913.38
 309  2062.792
 310  1618.608
 311  1594.448
 312  1735.495
 313  1833.717
 314  1704.827
 315  1381.953
 316  1227.22
 317  1545.922
 318  1818.059
 319  1998.334
 320  1610.622
 321  1697.35
 322  1942.611
 323  1851.517
 324  1883.714
 325  2238.773
 326  2712.198
 327  2726.408
 328  2836.472
 329  3064.601
 330  3038.277
 331  2132.104
 332  1513.787
 333  1638.625
 334  1807.486
 335  1417.276
 336  1475.587
 337  1744.244
 338  1668.721
 339  1654.253
 340  1795.42
 341  1918.081
 342  1731.565
 343  1565.463
 344  1761.53
 345  1913.257
 346  1796.954
 347  1591.807
 348  1682.705
 349  1636.445
 350  1443.136
 351  1532.772
 352  1365.198
 353  1184.094
 354  1288.526
 355  1546.193
 356  1357.995
 357  1140.115
 358  1255.004
 359  1413.812
 360  1409.072
 361  1422.792
 362  1404.531
 363  1328.21
 364  1338.557
 365  1337.905
 366  1637.894
 367  1643.26
 368  1509.749
 369  1603.447
 370  1797.889
 371  1925.779
 372  1386.274
 373  1436.806
 374  1628.828
 375  1636.99
 376  1629.798
 377  1927.221
 378  1859.995
 379  1643.002
 380  1666.782
 381  1571.693
 382  1402.037
 383  1623.202
 384  1804.462
 385  1800.785
 386  1769.256
 387  1758.879
 388  1640.936
 389  1656.59
 390  1729.403
 391  1687.108
 392  1828.209
 393  1818.396
 394  1616.614
 395  1540.418
 396  1455.836
 397  1755.016
 398  2046.641
 399  1970.66
 400  1788.154
 401  1690.581
 402  1717.867
 403  1553.125
 404  1614.64
 405  1763.888
 406  1961.277
 407  1862.502
 408  1801.199
 409  1727.313
 410  1832.638
 411  1583.261
 412  1716.152
 413  1863.22
 414  1681.677
 415  1571.706
 416  1528.18
 417  2012.067
 418  1649.958
 419  1625.175
 420  1601.17
 421  1859.11
 422  1748.171
 423  1488.167
 424  1676.033
 425  1707.74
 426  1598.21
 427  1647.977
 428  1789.935
 429  1441.646
 430  1346.13
 431  1383.28
 432  1400.969
 433  1313.487
 434  1435.511
 435  1629.381
 436  1619.247
 437  1704.608
 438  1623.524
 439  1634.015
 440  1465.986
 441  1173.912
 442  1417.578
 443  1500.618
 444  1586.928
 445  1757.734
 446  1583.394
 447  1651.156
 448  1723.951
 449  1548.402
 450  1477.018
 451  1773.424
 452  2004.697
 453  1798.643
 454  1792.087
 455  1651.849
 456  1803.324
 457  1696.974
 458  1494.409
 459  1395.244
 460  1478.009
 461  1560.251
 462  1317.127
 463  1416.836
 464  1686.999
 465  1568.626
 466  1545.81
 467  1511.157
 468  1374.641
 469  1530.848
 470  1659.075
 471  1746.112
 472  1545.974
 473  1537.01
 474  1503.896
 475  1605.154
 476  1349.571
 477  1468.16
 478  1536.301
 479  1729.191
 480  1601.315
 481  1511.554
 482  1559.242
 483  1772.146
 484  1674.93
 485  1729.546
 486  1655.249
 487  1774.472
 488  1577.909
 489  1446.604
 490  1476.179
 491  1346.666
 492  1382.827
 493  1500.341
 494  1402.594
 495  1397.802
 496  1351.396
 497  1534.089
 498  1460.439
 499  1461.755
 500  1420.423
 501  1465.055
 502  1265.233
 503  1267.98
 504  1299.122
 505  1447.645
 506  1523.519
 507  1454.105
 508  1691.244
 509  1430.096
 510  974.8308
 511  1085.251
