# Input file       =  1180954929.103668_cleaned.dat
# Candidate        =  PSR_0332+5434
# Telescope        =  AR
# Epoch_topo       =  57912.460047496155
# Epoch_bary       =  N/A
# T_sample         =  0.002
# Data Folded      =  7340032
# Data Avg         =  0.127677789262504
# Data StdDev      =  3.5096408098049  
# Profile Bins     =  1024
# Profile Avg      =  915.203356355661 
# Profile StdDev   =  297.140376765027 
# Reduced chi-sqr  =  1.474
# Prob(Noise)      <  3.06e-21   (~9.4 sigma)
# P_topo (ms)      =  714.509719104463  +/- 0.000134
# P'_topo (s/s)    =  -0                +/- 7.06e-11
# P''_topo (s/s^2) =  0                 +/- 3.12e-14
# P_bary (ms)      =  N/A
# P'_bary (s/s)    =  N/A
# P''_bary (s/s^2) =  N/A
# P_orb (s)        =  N/A
# asin(i)/c (s)    =  N/A
# eccentricity     =  N/A
# w (rad)          =  N/A
# T_peri           =  N/A
######################################################
   0  1090.301
   1  1071.943
   2  1005.38
   3  1024.852
   4  1119.958
   5  1174.8
   6  1236.455
   7  1230.718
   8  1149.919
   9  895.4234
  10  766.4109
  11  848.8483
  12  983.0678
  13  1029.122
  14  834.5676
  15  644.321
  16  541.6822
  17  617.374
  18  829.441
  19  860.252
  20  850.7652
  21  796.0851
  22  916.8718
  23  937.1592
  24  893.1938
  25  835.0884
  26  720.968
  27  615.5051
  28  597.0194
  29  690.9748
  30  759.139
  31  787.5472
  32  786.9219
  33  909.624
  34  896.8168
  35  865.2027
  36  827.8361
  37  870.0389
  38  819.2482
  39  723.0385
  40  634.719
  41  665.1527
  42  783.1772
  43  965.6913
  44  1010.728
  45  934.4336
  46  801.6978
  47  861.6961
  48  937.7774
  49  975.4359
  50  873.6575
  51  723.3612
  52  692.0393
  53  672.9799
  54  676.1202
  55  724.3124
  56  722.6144
  57  790.2128
  58  710.5145
  59  872.5539
  60  962.1287
  61  1204.301
  62  1095.236
  63  1036.498
  64  860.9158
  65  930.4418
  66  838.3116
  67  787.1412
  68  728.9887
  69  970.3406
  70  1151.391
  71  1181.515
  72  939.3348
  73  903.5884
  74  867.3788
  75  900.5886
  76  822.901
  77  865.6889
  78  975.0825
  79  958.3249
  80  923.9001
  81  863.7333
  82  761.9314
  83  794.9514
  84  779.5251
  85  901.6656
  86  796.7887
  87  779.1
  88  756.3005
  89  778.0051
  90  804.8734
  91  828.2887
  92  859.6144
  93  827.2346
  94  786.7191
  95  672.7848
  96  624.9459
  97  675.0472
  98  727.8986
  99  768.9561
 100  775.1309
 101  646.9094
 102  622.5776
 103  610.8487
 104  680.4094
 105  594.5355
 106  508.1607
 107  503.1595
 108  567.9682
 109  508.2314
 110  566.1795
 111  602.1536
 112  754.6376
 113  683.5575
 114  658.8654
 115  577.7915
 116  554.9532
 117  545.174
 118  560.2276
 119  571.9923
 120  481.6421
 121  583.1947
 122  650.9031
 123  772.2499
 124  733.2476
 125  717.5903
 126  584.6277
 127  588.2714
 128  678.0313
 129  891.2276
 130  940.9941
 131  856.9202
 132  722.7947
 133  719.6504
 134  865.1102
 135  900.2105
 136  806.1624
 137  837.9896
 138  929.1801
 139  1000.479
 140  1022.693
 141  1038.564
 142  1023.247
 143  1028.418
 144  1078.062
 145  1135.488
 146  1117.377
 147  1057.189
 148  1059.86
 149  1013.94
 150  965.0897
 151  1036.656
 152  1121.468
 153  1152.014
 154  1105.121
 155  1123.114
 156  1299.253
 157  1334.558
 158  1289.317
 159  1225.76
 160  1262.602
 161  1261.108
 162  1263.609
 163  1274.545
 164  1298.366
 165  1215.966
 166  1174.006
 167  1271.393
 168  1318.879
 169  1351.425
 170  1223.847
 171  1201.059
 172  1129.52
 173  1078.849
 174  1059.31
 175  1072.771
 176  1138.835
 177  1036.854
 178  987.131
 179  1036.106
 180  1156.913
 181  1206.288
 182  1120.897
 183  1001.346
 184  873.5814
 185  730.8068
 186  677.5213
 187  692.6706
 188  637.384
 189  533.9486
 190  562.0491
 191  750.7059
 192  866.2321
 193  821.7505
 194  865.7712
 195  877.7534
 196  922.1174
 197  839.3663
 198  792.5131
 199  810.0611
 200  889.9819
 201  961.7413
 202  850.4152
 203  671.8978
 204  584.1553
 205  663.6497
 206  807.5056
 207  797.2543
 208  787.6932
 209  774.8309
 210  857.9564
 211  826.186
 212  848.7216
 213  883.1395
 214  910.3114
 215  966.2817
 216  861.0549
 217  722.2787
 218  744.0109
 219  874.4715
 220  948.3347
 221  917.1387
 222  953.0244
 223  978.1208
 224  957.7327
 225  826.2898
 226  928.1453
 227  1027.096
 228  1072.864
 229  905.4913
 230  843.5164
 231  889.8168
 232  928.3755
 233  943.4549
 234  946.5246
 235  928.5358
 236  937.7081
 237  943.3222
 238  970.3339
 239  1044.341
 240  1075.761
 241  990.5107
 242  947.1214
 243  930.6685
 244  1058.663
 245  1041.202
 246  986.1816
 247  986.9493
 248  1022.156
 249  1104.539
 250  1056.62
 251  1044.69
 252  1002.088
 253  1085.736
 254  1063.579
 255  1065.094
 256  976.9637
 257  869.5427
 258  920.4012
 259  904.5292
 260  1073.236
 261  1088.444
 262  1031.756
 263  957.9188
 264  950.291
 265  976.7756
 266  928.6231
 267  962.9387
 268  997.3559
 269  869.3857
 270  768.3768
 271  868.328
 272  922.0281
 273  892.6655
 274  812.0015
 275  899.8282
 276  976.9596
 277  983.1979
 278  916.7667
 279  945.4329
 280  850.8116
 281  839.1024
 282  803.8072
 283  880.1331
 284  915.49
 285  913.6719
 286  908.3295
 287  911.8373
 288  941.0302
 289  1024.259
 290  1048.038
 291  1017.869
 292  1103.058
 293  1112.94
 294  1032.266
 295  874.5468
 296  889.6733
 297  924.9539
 298  944.2405
 299  822.1061
 300  779.2283
 301  754.0367
 302  892.1956
 303  1002.292
 304  956.5256
 305  856.2207
 306  819.5151
 307  922.0212
 308  919.9924
 309  942.0094
 310  830.5063
 311  883.017
 312  758.9855
 313  737.178
 314  760.9196
 315  947.9263
 316  1016.211
 317  997.5868
 318  1057.987
 319  1070.639
 320  1119.159
 321  1061.787
 322  1054.848
 323  1009.212
 324  995.7537
 325  933.5959
 326  939.4969
 327  995.7126
 328  1052.256
 329  1066.116
 330  1191.62
 331  1232.248
 332  1225.544
 333  1118.515
 334  998.1484
 335  972.7044
 336  1020.111
 337  1068.896
 338  1198.74
 339  1212.769
 340  1156.443
 341  1010.921
 342  1031.709
 343  1166.458
 344  1099.635
 345  1037.288
 346  1138.476
 347  1182.897
 348  1024.816
 349  763.0586
 350  745.4407
 351  732.8134
 352  783.5118
 353  745.5059
 354  753.8283
 355  747.5235
 356  769.8511
 357  848.1915
 358  870.7461
 359  869.1855
 360  845.925
 361  755.2778
 362  742.6514
 363  621.0835
 364  629.6432
 365  666.6873
 366  822.1221
 367  794.9692
 368  762.2053
 369  784.772
 370  840.7056
 371  797.2914
 372  804.6499
 373  779.7692
 374  766.6902
 375  814.0204
 376  816.3123
 377  766.1873
 378  725.999
 379  756.6009
 380  967.5947
 381  1038.621
 382  1053.975
 383  920.6064
 384  966.4538
 385  943.9266
 386  1033.351
 387  1023.543
 388  1135.985
 389  1172.935
 390  1290.442
 391  1335.359
 392  1283.392
 393  1182.529
 394  1041.01
 395  1056.22
 396  1048.011
 397  1140.658
 398  1137.006
 399  1100.164
 400  1119.196
 401  1198.146
 402  1220.571
 403  1293.686
 404  1391.688
 405  1486.061
 406  1399.563
 407  1303.745
 408  1252.956
 409  1288.952
 410  1286.759
 411  1247.461
 412  1178.514
 413  1154.719
 414  1165.26
 415  1199.526
 416  1324.95
 417  1200.702
 418  1131.934
 419  1147.987
 420  1223.352
 421  1258.854
 422  1296.229
 423  1304.767
 424  1317.161
 425  1195.848
 426  1111.44
 427  1016.108
 428  992.5042
 429  899.0499
 430  885.2943
 431  777.6631
 432  747.419
 433  739.4514
 434  865.2286
 435  851.249
 436  901.7018
 437  914.5175
 438  990.1851
 439  879.2933
 440  810.6857
 441  822.1439
 442  811.5657
 443  753.3379
 444  629.1162
 445  748.7197
 446  833.9701
 447  888.5054
 448  868.0529
 449  813.9944
 450  746.2135
 451  659.0803
 452  654.1633
 453  740.4595
 454  754.939
 455  629.6808
 456  543.1246
 457  505.1378
 458  598.9355
 459  564.5214
 460  607.8431
 461  665.8038
 462  775.6736
 463  859.322
 464  768.9479
 465  680.1454
 466  583.696
 467  627.9258
 468  811.1606
 469  770.456
 470  748.4154
 471  711.3804
 472  774.2434
 473  883.9094
 474  841.8195
 475  862.1102
 476  841.1203
 477  867.1917
 478  811.9996
 479  807.3936
 480  971.0054
 481  1081.72
 482  1040.241
 483  1030.45
 484  1020.346
 485  1038.022
 486  1058.068
 487  1027.513
 488  1095.49
 489  1003.471
 490  926.621
 491  895.2379
 492  918.4308
 493  966.0092
 494  1023.525
 495  1110.293
 496  1072.568
 497  964.6684
 498  928.371
 499  996.7937
 500  1052.627
 501  1001.269
 502  1041.747
 503  1077.082
 504  1067.99
 505  1073.445
 506  1203.114
 507  1339.786
 508  1208.891
 509  1120.713
 510  1089.908
 511  1085.354
 512  1029.388
 513  999.9724
 514  1105.622
 515  1080.445
 516  1051.488
 517  995.1181
 518  1063.747
 519  1060.334
 520  1034.76
 521  1042.947
 522  1096.419
 523  1053.68
 524  1040.576
 525  1051.946
 526  1032.026
 527  848.5198
 528  726.6273
 529  760.42
 530  827.9805
 531  898.7261
 532  915.9193
 533  863.1508
 534  864.3411
 535  829.2991
 536  881.1636
 537  794.8851
 538  741.7594
 539  733.313
 540  773.6339
 541  758.361
 542  718.4772
 543  760.6976
 544  831.4841
 545  823.4539
 546  846.0905
 547  933.3483
 548  951.8461
 549  935.2981
 550  892.8144
 551  903.7712
 552  839.978
 553  803.5692
 554  856.6407
 555  878.3499
 556  790.2751
 557  649.1683
 558  655.7178
 559  622.5888
 560  602.7532
 561  697.9045
 562  869.5048
 563  937.6463
 564  863.7077
 565  779.8285
 566  687.6924
 567  739.2495
 568  898.4194
 569  947.3203
 570  863.5014
 571  767.2366
 572  839.29
 573  937.6025
 574  963.2426
 575  878.2922
 576  760.8943
 577  734.7706
 578  722.5804
 579  788.7749
 580  743.0099
 581  786.3052
 582  853.5462
 583  927.3956
 584  913.545
 585  1034.325
 586  1076.546
 587  1054.22
 588  1014.424
 589  966.3345
 590  889.3307
 591  829.1898
 592  789.9265
 593  856.8884
 594  824.3016
 595  897.4819
 596  937.6012
 597  1119.998
 598  1074
 599  943.3645
 600  845.4293
 601  803.8239
 602  816.2224
 603  698.8356
 604  709.0279
 605  737.6147
 606  746.892
 607  752.9092
 608  767.1925
 609  783.2249
 610  662.6577
 611  565.3499
 612  483.2571
 613  527.5965
 614  496.7856
 615  530.0722
 616  614.3622
 617  629.2705
 618  643.3273
 619  582.8624
 620  580.8241
 621  479.7239
 622  489.7747
 623  583.2791
 624  640.1583
 625  658.2801
 626  727.8125
 627  756.3888
 628  697.0681
 629  667.8979
 630  712.3612
 631  723.313
 632  645.0144
 633  667.9582
 634  751.8224
 635  797.5521
 636  633.9487
 637  515.4323
 638  458.044
 639  461.3901
 640  546.533
 641  657.2098
 642  857.5955
 643  943.0389
 644  936.8763
 645  902.0746
 646  825.0991
 647  869.8127
 648  848.6332
 649  785.9437
 650  921.4398
 651  1021.299
 652  1129.84
 653  1136.51
 654  1183.006
 655  1083.428
 656  937.1155
 657  876.3393
 658  941.226
 659  976.3106
 660  825.6443
 661  781.0914
 662  851.0876
 663  1016.115
 664  1043.239
 665  1056.505
 666  1178.592
 667  1208.197
 668  1155.079
 669  1136.955
 670  1185.82
 671  1181.812
 672  1097.698
 673  987.8149
 674  973.6511
 675  988.7401
 676  1026.828
 677  1080.865
 678  1051.505
 679  1122.53
 680  1112.82
 681  1168.628
 682  1154.136
 683  1158.246
 684  1125.992
 685  1053.418
 686  957.1197
 687  988.7209
 688  932.5745
 689  855.8459
 690  789.3245
 691  816.0371
 692  900.2408
 693  842.0122
 694  855.363
 695  823.1681
 696  902.3256
 697  919.0833
 698  1032.546
 699  1051.344
 700  973.1169
 701  847.5886
 702  813.417
 703  829.9555
 704  859.9526
 705  759.4078
 706  702.9667
 707  723.1421
 708  884.9139
 709  946.0966
 710  986.1719
 711  887.6277
 712  858.9342
 713  943.8208
 714  991.9314
 715  1012.29
 716  952.303
 717  944.0641
 718  994.545
 719  894.9271
 720  836.6226
 721  761.1646
 722  825.6992
 723  835.6785
 724  820.9578
 725  762.2255
 726  826.929
 727  759.0321
 728  795.0846
 729  841.8886
 730  920.4724
 731  947.3713
 732  923.3391
 733  944.727
 734  935.9668
 735  981.4609
 736  991.2372
 737  913.5764
 738  897.1771
 739  996.4216
 740  1083.643
 741  1080.8
 742  966.1881
 743  948.7671
 744  1101.56
 745  1089.497
 746  988.6212
 747  1028.797
 748  1143.251
 749  1280.481
 750  1325.931
 751  1368.096
 752  1571.85
 753  1771.905
 754  1953.24
 755  1932.261
 756  1952.037
 757  1900.417
 758  1779.296
 759  1665.67
 760  1594.915
 761  1526.125
 762  1386.71
 763  1302.976
 764  1308.043
 765  1263.404
 766  1246.997
 767  1222.511
 768  1198.239
 769  1060.372
 770  967.6078
 771  968.8536
 772  1084.079
 773  1086.89
 774  1059.449
 775  946.3285
 776  893.9017
 777  781.2235
 778  828.4218
 779  810.1384
 780  886.7975
 781  818.0048
 782  788.7853
 783  828.3398
 784  933.1447
 785  1036.325
 786  995.1152
 787  899.825
 788  901.6262
 789  855.2161
 790  835.3882
 791  782.7849
 792  809.517
 793  797.9792
 794  796.6325
 795  813.7266
 796  821.0515
 797  775.5403
 798  799.772
 799  834.9084
 800  917.0131
 801  955.0994
 802  1031.331
 803  924.4306
 804  791.722
 805  782.5129
 806  796.2184
 807  755.1294
 808  629.6198
 809  670.0435
 810  770.5882
 811  823.1662
 812  864.8618
 813  940.9808
 814  1033.674
 815  1041.42
 816  937.3067
 817  888.9437
 818  908.4933
 819  990.899
 820  972.6974
 821  1005.078
 822  1044.623
 823  1033.295
 824  894.1075
 825  835.5825
 826  818.925
 827  989.1036
 828  1127.579
 829  1251.193
 830  1156.903
 831  1055.344
 832  945.0095
 833  920.9739
 834  911.7029
 835  895.3445
 836  939.2717
 837  1040.295
 838  1089.323
 839  1100.79
 840  1151.925
 841  1254.505
 842  1299.809
 843  1224.564
 844  1104.757
 845  1073.229
 846  1173.597
 847  1134.989
 848  953.3074
 849  806.2289
 850  802.9379
 851  928.9589
 852  1062.017
 853  1011.854
 854  949.4818
 855  858.1017
 856  948.6656
 857  964.5604
 858  954.7446
 859  809.6938
 860  794.1581
 861  807.7333
 862  862.1588
 863  835.4902
 864  797.6935
 865  832.3941
 866  915.6514
 867  984.8416
 868  961.1751
 869  891.6313
 870  820.9617
 871  860.1297
 872  755.2822
 873  675.6877
 874  689.5007
 875  810.3407
 876  953.1946
 877  901.0388
 878  938.7126
 879  877.1336
 880  895.7916
 881  934.1406
 882  962.8954
 883  922.1526
 884  879.2844
 885  818.8764
 886  726.9297
 887  750.4839
 888  785.7716
 889  846.8646
 890  785.6846
 891  860.7846
 892  974.8578
 893  997.1655
 894  952.7098
 895  1035.422
 896  1181.473
 897  1110.806
 898  1045.522
 899  965.369
 900  1030.005
 901  1032.876
 902  1030.504
 903  977.5033
 904  793.4748
 905  788.0304
 906  764.6265
 907  825.1167
 908  842.3682
 909  944.9551
 910  942.4426
 911  975.5507
 912  876.8594
 913  872.1808
 914  622.684
 915  528.9939
 916  549.6245
 917  748.3179
 918  913.1627
 919  874.1564
 920  817.4514
 921  796.7911
 922  884.3236
 923  1078.573
 924  1113.842
 925  1179.877
 926  1061.678
 927  1089.625
 928  1067.921
 929  1079.874
 930  1052.689
 931  1037.229
 932  1090.457
 933  1175.158
 934  1159.876
 935  1149.251
 936  898.1772
 937  863.7681
 938  890.6873
 939  917.077
 940  799.6656
 941  779.3125
 942  756.2652
 943  698.9723
 944  635.8812
 945  749.3596
 946  802.9976
 947  941.791
 948  953.4052
 949  965.683
 950  801.9748
 951  756.3954
 952  737.127
 953  752.6901
 954  658.7689
 955  721.5869
 956  744.2358
 957  735.9168
 958  634.5377
 959  655.931
 960  678.5694
 961  683.0942
 962  607.1203
 963  629.7045
 964  674.8904
 965  724.148
 966  663.6844
 967  537.8798
 968  513.2371
 969  504.8594
 970  551.0948
 971  598.6389
 972  674.6369
 973  690.3794
 974  695.4525
 975  763.8997
 976  821.2965
 977  811.4353
 978  693.8806
 979  598.8433
 980  626.2989
 981  681.0064
 982  694.224
 983  699.5546
 984  656.6237
 985  800.1246
 986  848.6088
 987  957.8947
 988  867.9775
 989  814.2415
 990  706.5284
 991  597.5118
 992  483.3313
 993  509.5309
 994  666.0587
 995  732.4816
 996  772.5969
 997  913.3831
 998  953.8245
 999  933.9587
1000  934.5321
1001  1046.963
1002  1034.636
1003  985.7356
1004  962.8947
1005  953.606
1006  938.074
1007  981.1686
1008  1004.775
1009  1014.255
1010  1159.227
1011  1303.927
1012  1321.178
1013  1191.029
1014  1116.1
1015  1121.635
1016  1190.195
1017  1118.292
1018  1065.658
1019  1036.1
1020  1159.868
1021  1181.877
1022  1161.051
1023  1084.7
