# Input file       =  1180868747.104038_cleaned.dat
# Candidate        =  PSR_0332+5434
# Telescope        =  AR
# Epoch_topo       =  57911.462570648589
# Epoch_bary       =  N/A
# T_sample         =  0.002
# Data Folded      =  7340032
# Data Avg         =  0.101139117546803
# Data StdDev      =  3.11239138771814 
# Profile Bins     =  1024
# Profile Avg      =  724.741471992317 
# Profile StdDev   =  263.507635027245 
# Reduced chi-sqr  =  0.891
# Prob(Noise)      <  0.995   (~0.0 sigma)
# P_topo (ms)      =  714.510669599967  +/- 0.000334
# P'_topo (s/s)    =  -0                +/- 1.76e-10
# P''_topo (s/s^2) =  0                 +/- 7.79e-14
# P_bary (ms)      =  N/A
# P'_bary (s/s)    =  N/A
# P''_bary (s/s^2) =  N/A
# P_orb (s)        =  N/A
# asin(i)/c (s)    =  N/A
# eccentricity     =  N/A
# w (rad)          =  N/A
# T_peri           =  N/A
######################################################
   0  760.4377
   1  811.542
   2  865.7506
   3  836.4198
   4  771.6325
   5  814.1194
   6  731.1682
   7  651.1814
   8  635.7846
   9  708.5342
  10  720.7957
  11  740.5957
  12  792.4532
  13  832.5167
  14  834.7979
  15  821.8293
  16  814.2796
  17  720.0417
  18  730.0991
  19  656.0707
  20  746.9488
  21  761.2235
  22  781.3872
  23  730.2539
  24  755.5627
  25  833.4308
  26  847.804
  27  880.2986
  28  851.5555
  29  842.228
  30  776.0771
  31  564.7808
  32  553.4147
  33  629.3751
  34  774.2028
  35  800.3492
  36  753.5032
  37  744.486
  38  752.9489
  39  726.3721
  40  791.7574
  41  861.6099
  42  960.1697
  43  967.1454
  44  792.582
  45  683.7348
  46  673.3405
  47  684.6819
  48  626.2585
  49  570.4514
  50  614.7651
  51  689.2535
  52  678.8265
  53  654.8096
  54  702.4904
  55  724.4961
  56  789.3659
  57  822.258
  58  746.8948
  59  742.947
  60  707.6132
  61  738.5792
  62  748.31
  63  656.7955
  64  632.5801
  65  576.2218
  66  631.1034
  67  535.3282
  68  447.3631
  69  497.0873
  70  522.5306
  71  579.7132
  72  468.0317
  73  467.1463
  74  394.5395
  75  531.7596
  76  549.0547
  77  578.6702
  78  479.2407
  79  594.9982
  80  539.84
  81  548.2077
  82  464.4365
  83  508.2655
  84  481.6234
  85  510.4998
  86  496.712
  87  449.8556
  88  378.5772
  89  410.3425
  90  456.9109
  91  546.0843
  92  513.9017
  93  472.3644
  94  401.8796
  95  382.0218
  96  439.3871
  97  535.8883
  98  605.3373
  99  614.7935
 100  544.7751
 101  502.3385
 102  354.9413
 103  266.8565
 104  359.5149
 105  529.6498
 106  622.6473
 107  564.3254
 108  568.8859
 109  566.7882
 110  545.3967
 111  611.0812
 112  696.4371
 113  713.0138
 114  572.1642
 115  602.0947
 116  655.5292
 117  612.0115
 118  474.4736
 119  445.9614
 120  416.9472
 121  547.1039
 122  586.1676
 123  647.8202
 124  649.2467
 125  684.0749
 126  744.2241
 127  683.7803
 128  761.1693
 129  737.0876
 130  751.846
 131  709.4239
 132  698.702
 133  638.1714
 134  534.4232
 135  676.1129
 136  749.924
 137  883.3187
 138  747.2756
 139  705.8182
 140  645.22
 141  642.4169
 142  712.7711
 143  820.4679
 144  811.7754
 145  698.5545
 146  712.7266
 147  838.8028
 148  843.8068
 149  802.1614
 150  818.8901
 151  954.5214
 152  898.796
 153  766.6555
 154  667.473
 155  696.3319
 156  699.5203
 157  699.8189
 158  729.6591
 159  791.2712
 160  800.1135
 161  779.5015
 162  741.7668
 163  778.587
 164  854.6267
 165  916.0562
 166  866.6925
 167  721.3013
 168  730.5405
 169  741.939
 170  703.0191
 171  673.6431
 172  720.5482
 173  837.5442
 174  928.6725
 175  984.7225
 176  880.8182
 177  846.9755
 178  775.3166
 179  731.2119
 180  650.9166
 181  631.4423
 182  769.5607
 183  729.7821
 184  873.7114
 185  917.326
 186  877.8006
 187  759.2928
 188  763.0191
 189  813.974
 190  932.4633
 191  856.2993
 192  842.3595
 193  749.9093
 194  830.48
 195  876.5031
 196  752.6349
 197  522.7579
 198  574.8624
 199  778.216
 200  957.5232
 201  893.4819
 202  850.0565
 203  834.1161
 204  798.0529
 205  703.2592
 206  711.239
 207  719.964
 208  769.3813
 209  735.915
 210  727.2323
 211  831.4857
 212  908.0157
 213  917.0087
 214  916.4924
 215  852.2601
 216  872.6653
 217  842.0767
 218  859.3079
 219  823.6407
 220  769.4077
 221  825.9352
 222  858.8353
 223  842.1292
 224  719.5641
 225  777.7692
 226  915.791
 227  991.733
 228  882.8409
 229  765.0093
 230  750.1166
 231  766.9745
 232  727.806
 233  655.3046
 234  678.9801
 235  711.3502
 236  668.6935
 237  688.7782
 238  722.1412
 239  719.2404
 240  655.8588
 241  582.3398
 242  679.4349
 243  707.5321
 244  851.3719
 245  784.6887
 246  726.0438
 247  657.548
 248  692.8451
 249  593.451
 250  544.0978
 251  580.8649
 252  779.1702
 253  820.3034
 254  722.0311
 255  659.0116
 256  527.1527
 257  526.0875
 258  594.3571
 259  752.5
 260  870.3051
 261  827.2061
 262  710.6616
 263  539.377
 264  416.9451
 265  426.5607
 266  497.1906
 267  666.5612
 268  685.024
 269  699.5394
 270  574.7836
 271  483.8435
 272  369.1894
 273  428.5731
 274  508.6664
 275  519.146
 276  673.371
 277  750.0579
 278  879.1873
 279  883.0427
 280  853.0776
 281  711.9563
 282  611.4487
 283  704.8267
 284  817.698
 285  793.6133
 286  660.1681
 287  588.5812
 288  657.3091
 289  703.6191
 290  715.3494
 291  724.2711
 292  825.7015
 293  850.9084
 294  822.7745
 295  856.2433
 296  857.6999
 297  930.6548
 298  930.2325
 299  888.4161
 300  729.2888
 301  671.8839
 302  772.9052
 303  879.5453
 304  833.449
 305  863.9681
 306  799.8849
 307  833.0864
 308  776.1632
 309  751.4321
 310  761.7864
 311  799.5697
 312  840.4262
 313  746.5455
 314  651.4201
 315  691.8813
 316  715.2803
 317  770.6348
 318  754.9285
 319  823.4517
 320  819.0718
 321  760.1475
 322  685.1208
 323  703.5357
 324  714.9536
 325  720.7312
 326  730.8636
 327  804.1467
 328  857.1609
 329  850.2579
 330  776.2976
 331  793.6207
 332  858.0887
 333  986.7018
 334  946.9847
 335  847.3561
 336  728.4688
 337  697.8779
 338  680.9149
 339  715.0256
 340  610.7986
 341  687.2723
 342  699.0421
 343  827.5076
 344  832.2825
 345  913.3907
 346  915.9402
 347  898.5881
 348  893.2322
 349  855.5361
 350  886.9457
 351  848.2
 352  852.4407
 353  889.9419
 354  957.0073
 355  949.4658
 356  759.7908
 357  668.2871
 358  697.2841
 359  758.3796
 360  753.5542
 361  736.1705
 362  632.1415
 363  604.0748
 364  553.8197
 365  727.3005
 366  812.9211
 367  946.7917
 368  940.7078
 369  956.9169
 370  873.6575
 371  879.1252
 372  788.6704
 373  718.1731
 374  668.5449
 375  766.6998
 376  786.9465
 377  611.758
 378  548.4786
 379  522.2889
 380  663.1664
 381  707.7262
 382  715.0791
 383  666.1
 384  594.7383
 385  584.4897
 386  520.7432
 387  526.835
 388  547.5977
 389  575.3741
 390  509.7432
 391  554.2988
 392  595.6019
 393  653.1201
 394  722.5277
 395  703.738
 396  748.7814
 397  576.9315
 398  536.4916
 399  464.256
 400  564.2108
 401  553.7028
 402  565.3339
 403  584.8123
 404  651.2891
 405  537.7952
 406  501.1678
 407  487.5827
 408  614.4326
 409  609.7877
 410  612.822
 411  594.5527
 412  546.8089
 413  563.8694
 414  684.7753
 415  642.039
 416  690.1219
 417  739.3577
 418  792.5018
 419  633.4348
 420  527.7731
 421  559.6059
 422  641.8955
 423  665.993
 424  663.9521
 425  610.6603
 426  597.6708
 427  570.0059
 428  634.2904
 429  624.1291
 430  561.846
 431  542.3691
 432  637.259
 433  673.7789
 434  644.1611
 435  728.8211
 436  848.093
 437  872.4837
 438  793.334
 439  775.2057
 440  894.1013
 441  912.6936
 442  947.1042
 443  882.5128
 444  797.1895
 445  779.8771
 446  791.3557
 447  830.5417
 448  716.5361
 449  671.5135
 450  649.377
 451  708.3171
 452  737.8252
 453  689.6318
 454  589.5168
 455  519.8045
 456  563.3113
 457  623.0289
 458  688.2982
 459  743.4194
 460  719.1705
 461  727.6262
 462  671.8813
 463  639.9887
 464  711.2982
 465  886.5181
 466  976.5966
 467  939.2269
 468  799.3467
 469  726.2966
 470  685.4153
 471  707.8485
 472  733.8158
 473  668.6411
 474  663.92
 475  758.2345
 476  833.887
 477  823.262
 478  730.6534
 479  835.1988
 480  816.9615
 481  892.8595
 482  927.4984
 483  933.45
 484  788.9468
 485  597.3444
 486  628.5935
 487  714.3318
 488  829.5825
 489  907.9207
 490  968.7553
 491  962.325
 492  910.6747
 493  798.5667
 494  690.6184
 495  610.8936
 496  651.0694
 497  735.8886
 498  690.6456
 499  647.5955
 500  621.345
 501  738.8525
 502  778.8398
 503  800.0205
 504  863.0273
 505  909.2812
 506  853.1215
 507  754.6998
 508  698.0114
 509  761.5731
 510  686.0646
 511  749.3393
 512  706.0523
 513  695.5232
 514  750.4327
 515  814.2979
 516  919.0681
 517  778.5526
 518  744.7565
 519  738.2869
 520  846.1865
 521  851.4337
 522  862.2497
 523  848.4376
 524  763.0159
 525  764.7344
 526  811.5098
 527  850.2189
 528  801.4318
 529  693.4915
 530  680.3746
 531  689.5231
 532  664.1998
 533  706.3115
 534  700.7914
 535  757.4325
 536  683.937
 537  666.5236
 538  634.7127
 539  694.9835
 540  737.3068
 541  787.4708
 542  699.5494
 543  622.9523
 544  618.695
 545  674.2947
 546  705.455
 547  593.6205
 548  571.8174
 549  633.764
 550  668.0157
 551  718.761
 552  712.7059
 553  683.4125
 554  616.8069
 555  709.0656
 556  700.4127
 557  755.5331
 558  653.4816
 559  622.3062
 560  556.949
 561  651.2954
 562  728.9543
 563  738.9688
 564  686.5843
 565  762.0363
 566  877.3555
 567  914.9543
 568  773.4215
 569  775.4185
 570  766.3073
 571  849.3277
 572  876.289
 573  841.7321
 574  735.7853
 575  712.171
 576  762.0404
 577  704.7806
 578  604.674
 579  526.3065
 580  533.4053
 581  579.2754
 582  570.6624
 583  556.1913
 584  537.5485
 585  657.1544
 586  742.5283
 587  724.6622
 588  642.5934
 589  620.7208
 590  605.6167
 591  584.4107
 592  583.2139
 593  556.1981
 594  554.4367
 595  461.1743
 596  388.3575
 597  280.3163
 598  324.1108
 599  383.2945
 600  405.4111
 601  317.4794
 602  307.6562
 603  306.6177
 604  458.921
 605  543.5381
 606  668.4766
 607  727.3917
 608  647.9962
 609  461.0927
 610  338.1506
 611  388.8794
 612  487.9175
 613  461.2062
 614  413.4912
 615  424.9204
 616  485.5076
 617  543.837
 618  610.4092
 619  673.1809
 620  751.6455
 621  661.0599
 622  651.1961
 623  658.2042
 624  737.0631
 625  734.184
 626  675.6853
 627  616.9359
 628  621.4954
 629  543.455
 630  593.2919
 631  595.2778
 632  653.1694
 633  641.5916
 634  686.1213
 635  746.1732
 636  714.0883
 637  734.9003
 638  704.1876
 639  745.7449
 640  877.3857
 641  886.2323
 642  752.2901
 643  552.2081
 644  528.298
 645  549.8575
 646  593.7588
 647  587.007
 648  614.9
 649  622.4845
 650  750.2192
 651  785.7667
 652  737.2655
 653  676.0372
 654  689.045
 655  814.9394
 656  831.2481
 657  756.2719
 658  744.5014
 659  748.5891
 660  715.6899
 661  629.0416
 662  628.9145
 663  570.1859
 664  568.694
 665  511.4503
 666  630.6252
 667  677.1046
 668  739.183
 669  728.6863
 670  709.2383
 671  742.3453
 672  679.2377
 673  628.7573
 674  600.9983
 675  678.1229
 676  689.9839
 677  664.004
 678  625.8301
 679  609.61
 680  566.4384
 681  652.1697
 682  688.1086
 683  686.8869
 684  608.2982
 685  609.7063
 686  648.7327
 687  621.9589
 688  644.4883
 689  705.7566
 690  826.317
 691  818.0641
 692  773.2686
 693  781.5102
 694  784.4904
 695  778.5684
 696  699.7061
 697  827.4711
 698  924.3293
 699  926.32
 700  924.2767
 701  869.6923
 702  816.3541
 703  654.0413
 704  627.7387
 705  645.9308
 706  659.1382
 707  675.2313
 708  663.5582
 709  669.8012
 710  728.409
 711  672.2499
 712  818.0121
 713  728.1807
 714  716.8563
 715  680.9307
 716  746.5972
 717  852.0319
 718  686.2714
 719  621.738
 720  588.5289
 721  719.6842
 722  784.1244
 723  810.091
 724  806.9268
 725  810.4998
 726  783.6633
 727  708.432
 728  709.7629
 729  791.163
 730  899.2201
 731  826.3145
 732  785.9887
 733  828.079
 734  796.157
 735  791.4259
 736  739.1122
 737  807.2715
 738  813.179
 739  808.8123
 740  740.9812
 741  812.4172
 742  891.6218
 743  973.4545
 744  997.2255
 745  992.4363
 746  977.6402
 747  887.2114
 748  827.139
 749  924.5028
 750  1013.605
 751  1112.351
 752  1227.683
 753  1311.545
 754  1352.627
 755  1279.551
 756  1246.375
 757  1236.179
 758  1307.452
 759  1165.477
 760  973.105
 761  846.9057
 762  839.0201
 763  753.4714
 764  676.5026
 765  724.7908
 766  763.0791
 767  668.3855
 768  641.5427
 769  688.613
 770  733.3486
 771  624.5789
 772  623.7035
 773  670.8286
 774  759.5447
 775  705.6675
 776  773.5471
 777  787.1165
 778  809.2442
 779  768.7275
 780  881.8685
 781  907.9383
 782  918.984
 783  854.511
 784  951.9617
 785  960.0369
 786  972.88
 787  865.4585
 788  838.5789
 789  792.3301
 790  860.4568
 791  774.4222
 792  743.6027
 793  668.3287
 794  695.1908
 795  746.0824
 796  775.7762
 797  844.7833
 798  817.3123
 799  891.6268
 800  699.2516
 801  605.8416
 802  650.7732
 803  743.0352
 804  759.737
 805  662.2673
 806  768.3327
 807  837.9746
 808  860.2874
 809  812.8607
 810  821.5732
 811  836.1554
 812  754.167
 813  783.0297
 814  777.3777
 815  753.4706
 816  669.1774
 817  677.2565
 818  594.798
 819  533.1256
 820  529.205
 821  680.0349
 822  814.3535
 823  879.8325
 824  936.6871
 825  975.3327
 826  859.9343
 827  709.1835
 828  625.9675
 829  702.6003
 830  774.777
 831  879.0603
 832  871.2499
 833  823.7548
 834  764.9056
 835  811.1873
 836  803.8557
 837  763.6834
 838  709.9699
 839  727.1851
 840  800.9131
 841  818.9446
 842  807.2639
 843  824.1429
 844  761.5866
 845  761.637
 846  719.2278
 847  794.275
 848  749.7938
 849  789.1108
 850  721.8288
 851  722.9038
 852  730.3218
 853  784.5125
 854  815.0216
 855  793.6688
 856  797.4944
 857  775.2045
 858  727.1592
 859  708.3271
 860  647.3106
 861  780.6073
 862  843.5673
 863  899.3346
 864  859.577
 865  849.7939
 866  852.343
 867  858.7645
 868  847.1644
 869  738.1904
 870  706.3396
 871  725.4286
 872  766.3771
 873  758.198
 874  812.7826
 875  861.2015
 876  765.8776
 877  788.1644
 878  843.2759
 879  925.8093
 880  865.8661
 881  862.1933
 882  802.265
 883  736.584
 884  643.0417
 885  686.3284
 886  730.8013
 887  762.4897
 888  773.0732
 889  739.1721
 890  768.6616
 891  824.8797
 892  963.8003
 893  831.5489
 894  668.997
 895  730.2339
 896  878.189
 897  955.0003
 898  955.8162
 899  951.3585
 900  900.788
 901  853.5176
 902  868.5541
 903  921.0195
 904  912.025
 905  928.6506
 906  850.9594
 907  767.7698
 908  706.0562
 909  707.3257
 910  703.9937
 911  697.4669
 912  740.518
 913  632.1111
 914  601.9449
 915  545.6425
 916  641.2745
 917  642.7408
 918  672.2303
 919  679.9743
 920  737.8529
 921  779.1161
 922  677.0805
 923  618.337
 924  612.4822
 925  620.084
 926  503.3283
 927  426.2329
 928  449.0171
 929  484.748
 930  478.7346
 931  539.9417
 932  555.5146
 933  561.3891
 934  542.6319
 935  601.1083
 936  637.7914
 937  666.4516
 938  658.8593
 939  778.7556
 940  827.5583
 941  805.8473
 942  673.9971
 943  590.9327
 944  521.3994
 945  478.2528
 946  486.2905
 947  469.3249
 948  582.1719
 949  649.9087
 950  681.29
 951  615.511
 952  692.6443
 953  812.4176
 954  838.2419
 955  823.9761
 956  837.4945
 957  882.5725
 958  824.1143
 959  761.4473
 960  718.1988
 961  862.4342
 962  874.6761
 963  858.504
 964  812.4982
 965  759.9167
 966  823.5133
 967  810.3913
 968  930.8929
 969  854.8298
 970  779.7686
 971  668.1704
 972  697.1528
 973  768.6289
 974  841.4712
 975  852.3566
 976  780.3371
 977  789.5278
 978  718.7265
 979  719.2561
 980  734.7493
 981  862.6663
 982  846.253
 983  758.6104
 984  665.4694
 985  717.7657
 986  784.7225
 987  811.5876
 988  796.5563
 989  894.2662
 990  913.1192
 991  955.8156
 992  900.199
 993  896.4686
 994  825.9234
 995  849.5115
 996  833.0765
 997  832.9028
 998  796.1669
 999  823.1484
1000  869.2701
1001  864.7123
1002  766.8978
1003  695.4866
1004  779.53
1005  904.5142
1006  879.5483
1007  875.3552
1008  825.9765
1009  616.2556
1010  490.1971
1011  580.6711
1012  770.2964
1013  843.048
1014  816.5817
1015  723.5511
1016  604.7785
1017  548.4142
1018  592.7538
1019  569.022
1020  589.8735
1021  712.544
1022  758.5533
1023  813.4329
