# Input file       =  1180164504.097987_cleaned.dat
# Candidate        =  PSR_0332+5434
# Telescope        =  AR
# Epoch_topo       =  57903.311609930402
# Epoch_bary       =  N/A
# T_sample         =  0.002
# Data Folded      =  7340032
# Data Avg         =  0.317937777703   
# Data StdDev      =  17.2714535856277 
# Profile Bins     =  1024
# Profile Avg      =  2279.01188959668 
# Profile StdDev   =  1462.2710709813  
# Reduced chi-sqr  =  0.810
# Prob(Noise)      <  1   (~0.0 sigma)
# P_topo (ms)      =  714.518237219965  +/- 0.000389
# P'_topo (s/s)    =  -0                +/- 2.05e-10
# P''_topo (s/s^2) =  0                 +/- 9.07e-14
# P_bary (ms)      =  N/A
# P'_bary (s/s)    =  N/A
# P''_bary (s/s^2) =  N/A
# P_orb (s)        =  N/A
# asin(i)/c (s)    =  N/A
# eccentricity     =  N/A
# w (rad)          =  N/A
# T_peri           =  N/A
######################################################
   0  2813.97
   1  2705.645
   2  2623.638
   3  2421.811
   4  2483.121
   5  2544.945
   6  2546.034
   7  2648.465
   8  2698.931
   9  2741.033
  10  2870.179
  11  2897.685
  12  3099.524
  13  3060.003
  14  3329.77
  15  3221.989
  16  3175.668
  17  3146.666
  18  3189.945
  19  3105.141
  20  3058.079
  21  2940.894
  22  3033.221
  23  3235.071
  24  3342.248
  25  3025.644
  26  3013.209
  27  2853.171
  28  2704.123
  29  2584.305
  30  2759.685
  31  2817.06
  32  2980.28
  33  2858.267
  34  2697.122
  35  2686.496
  36  2839.215
  37  2967.502
  38  2835.908
  39  2917.962
  40  2796.207
  41  2937.329
  42  3375.093
  43  3700.486
  44  3775.364
  45  3444.921
  46  3276.278
  47  3150.257
  48  2743.49
  49  2790.057
  50  2873.916
  51  2901.706
  52  2840.898
  53  2780.599
  54  2910.796
  55  2943.786
  56  2822.077
  57  2697.643
  58  2884.446
  59  2987.704
  60  2658.737
  61  2647.732
  62  2937.293
  63  2845.456
  64  2946.548
  65  3083.525
  66  2975.263
  67  3130.261
  68  3007.584
  69  2790.383
  70  2610.945
  71  2524.228
  72  2507.889
  73  2392.733
  74  2132.593
  75  2180.858
  76  2310.713
  77  2431.281
  78  2639.379
  79  2497.26
  80  2279.852
  81  2070.289
  82  2197.858
  83  2375.807
  84  2176.528
  85  2648.833
  86  2847.307
  87  2878.714
  88  2968.764
  89  2975.398
  90  2942.179
  91  3040.052
  92  2935.51
  93  3180.771
  94  2860.213
  95  2758.003
  96  2316.416
  97  2407.112
  98  2587.555
  99  2053.403
 100  1693.43
 101  1696.027
 102  2235.353
 103  2529.448
 104  2391.83
 105  1904.155
 106  1902.289
 107  2050.317
 108  2517.419
 109  2489.765
 110  2240.884
 111  1780.169
 112  1802.682
 113  1852.376
 114  1998.308
 115  1806.948
 116  1433.544
 117  1264.18
 118  1397.407
 119  1663.194
 120  2164.184
 121  2735.583
 122  2932.413
 123  2998.926
 124  2867.409
 125  3106.222
 126  3079.494
 127  3144.606
 128  3225.278
 129  3466.275
 130  3287.7
 131  3327.507
 132  3242.977
 133  3288.412
 134  3346.136
 135  3479.233
 136  3538.573
 137  3386.644
 138  3377.795
 139  3207.874
 140  3244.723
 141  3056.352
 142  2712.527
 143  2669.167
 144  2583.22
 145  2578.095
 146  2509.604
 147  2432.15
 148  2432.642
 149  2424.226
 150  2518.736
 151  2465.15
 152  2361.939
 153  2285.748
 154  2346.031
 155  2304.224
 156  2316.605
 157  2508.251
 158  2578.075
 159  2148.678
 160  1934.015
 161  1801.456
 162  1864.865
 163  1876.311
 164  1897.171
 165  1829.456
 166  1576.509
 167  1648.678
 168  1787.314
 169  1645.495
 170  1594.186
 171  1679.431
 172  1730.005
 173  1722.472
 174  1828.511
 175  2394.179
 176  2993.708
 177  3011.146
 178  2679.033
 179  2666.843
 180  2843.148
 181  3226.512
 182  3425.609
 183  3447.778
 184  3267.735
 185  3386.773
 186  3478.207
 187  3602.938
 188  3490.142
 189  3192.327
 190  3108.013
 191  3087.637
 192  3119.516
 193  3118.046
 194  3339.767
 195  3487.359
 196  3230.004
 197  3644.117
 198  3831.618
 199  3984.003
 200  3938.378
 201  3876.732
 202  3899.771
 203  3587.415
 204  3468.858
 205  3182.371
 206  3139.175
 207  3238.421
 208  3754.751
 209  3874.018
 210  3844.444
 211  3288.392
 212  3300.407
 213  3327.522
 214  3303.187
 215  3338.578
 216  3043.814
 217  2798.727
 218  2627.846
 219  2419.665
 220  2256.811
 221  2021.701
 222  2544.006
 223  2451.47
 224  2330.638
 225  2233.354
 226  1952.196
 227  1902.551
 228  2099.877
 229  2440.884
 230  2195.761
 231  2203.135
 232  2354.215
 233  2578.711
 234  2434.383
 235  2774.036
 236  2636.442
 237  2630.646
 238  2875.673
 239  2836.585
 240  2696.03
 241  2577.481
 242  3282.736
 243  3315.089
 244  3419.719
 245  3082.491
 246  3285.836
 247  3170.85
 248  3197.137
 249  2911.618
 250  2824.069
 251  2830.646
 252  2729.573
 253  2438.553
 254  2570.738
 255  2279.271
 256  2370.406
 257  2789.373
 258  3123.384
 259  2928.342
 260  2582.047
 261  2487.599
 262  2667.226
 263  2864.091
 264  3038.227
 265  3027.126
 266  2909.74
 267  3064.675
 268  3082.287
 269  2742.538
 270  2631.477
 271  2655.266
 272  2531.342
 273  2328.526
 274  1965.027
 275  1959.202
 276  2067.75
 277  2526.627
 278  2936.753
 279  2764.88
 280  2730.212
 281  2565.81
 282  2443.644
 283  2743.291
 284  2760.999
 285  2497.026
 286  2438.071
 287  2479.839
 288  2189.395
 289  2145.155
 290  2526.171
 291  3016.93
 292  3141.754
 293  3632.857
 294  3328.834
 295  3189.869
 296  2681.349
 297  3091.281
 298  3360.835
 299  3264.441
 300  2674.962
 301  2551.135
 302  2509.851
 303  2745.303
 304  3042.824
 305  2499.804
 306  2128.278
 307  2071.04
 308  2448.135
 309  2371.681
 310  2312.891
 311  2248.915
 312  2079.704
 313  2306.009
 314  2599.54
 315  2703.697
 316  2252.169
 317  2316.51
 318  2352.368
 319  2604.085
 320  2357.415
 321  2394.455
 322  2352.98
 323  2483.527
 324  2712.971
 325  2678.004
 326  2784.626
 327  3275.591
 328  3228.253
 329  3351.173
 330  2817.7
 331  2828.502
 332  2892
 333  2857.381
 334  2829.511
 335  2484.819
 336  2476.294
 337  2387.656
 338  2233.486
 339  3069.733
 340  3278.52
 341  3390.854
 342  3341.565
 343  3221.738
 344  3065.827
 345  2582.867
 346  2573.204
 347  2662.369
 348  2889.575
 349  3482.738
 350  3852.655
 351  3864.666
 352  3607.31
 353  3284.96
 354  3208.409
 355  3016.578
 356  2881.958
 357  2700.421
 358  3009.102
 359  3249.632
 360  2776.199
 361  2476.441
 362  2023.142
 363  2399.328
 364  2869.375
 365  3271.536
 366  3167.705
 367  2418.439
 368  2150.416
 369  2186.988
 370  2416.333
 371  2557.167
 372  2945.241
 373  3082.29
 374  2947.383
 375  2466.414
 376  2158.134
 377  1943.672
 378  1910.19
 379  1870.439
 380  1889.415
 381  1965.551
 382  1799.308
 383  2038.373
 384  2454.822
 385  2256.909
 386  1982.313
 387  1725.443
 388  1741.772
 389  1436.978
 390  1511.68
 391  1527.794
 392  1745.026
 393  1996.617
 394  2483.478
 395  2903.595
 396  3101.863
 397  3307.211
 398  3636.229
 399  3584.202
 400  3636.972
 401  3297.408
 402  3323.283
 403  3404.188
 404  3044.309
 405  2746.612
 406  2516.358
 407  2354.356
 408  2467.224
 409  2614.019
 410  2402.07
 411  2179.031
 412  2185.115
 413  1830.037
 414  2105.681
 415  2225.669
 416  2224.251
 417  2149.394
 418  2249.733
 419  2674.991
 420  2937.693
 421  3564.591
 422  4009.995
 423  3496.794
 424  3113.619
 425  2958.618
 426  2945.855
 427  2307.376
 428  2110.085
 429  2525.933
 430  2498.076
 431  2279.364
 432  2351.264
 433  2464.485
 434  2462.842
 435  2674.083
 436  3284.503
 437  3576.51
 438  3232.331
 439  2917.876
 440  2306.057
 441  2512.962
 442  2786.384
 443  2659.625
 444  2950.231
 445  2930.978
 446  2759.319
 447  2294.984
 448  2317.992
 449  2417.405
 450  2422.602
 451  2260.452
 452  2098.557
 453  1688.057
 454  1576.292
 455  1644.575
 456  1667.509
 457  1855.596
 458  2007.418
 459  1557.264
 460  1614.282
 461  1754.113
 462  1969.834
 463  1963.411
 464  2035.109
 465  2268.806
 466  2400.791
 467  1859.782
 468  1798.913
 469  2091.786
 470  2270.594
 471  2623.496
 472  2857.084
 473  3193.392
 474  2940.842
 475  2888.137
 476  3107.56
 477  4071.144
 478  4241.488
 479  4042.651
 480  3314.964
 481  3446.649
 482  3199.884
 483  3569.664
 484  3702.523
 485  3593.464
 486  3309.105
 487  3199.653
 488  3297.839
 489  3031.999
 490  2898.827
 491  3377.469
 492  3428.896
 493  3201.097
 494  2985.099
 495  2445.218
 496  1812.628
 497  1273.307
 498  1181.544
 499  1338.663
 500  1724.973
 501  1816.357
 502  1830.23
 503  2004.818
 504  2127.817
 505  1928.731
 506  1961.725
 507  1882.94
 508  1763.572
 509  1515.645
 510  1776.938
 511  1844.728
 512  2155.858
 513  2386.746
 514  2449.935
 515  2416.864
 516  2899.875
 517  3054.052
 518  3587.385
 519  3288.728
 520  3006.235
 521  2677.49
 522  2447.793
 523  2916.18
 524  2795.089
 525  2832.563
 526  3102.287
 527  3030.667
 528  2683.504
 529  2623.573
 530  2642.187
 531  2794.449
 532  3180.362
 533  3062.496
 534  3111.564
 535  2941.526
 536  2537.555
 537  2083.209
 538  1827.073
 539  2028.368
 540  2156.611
 541  2005.297
 542  2369.012
 543  2380.232
 544  2281.159
 545  1839.033
 546  1562.014
 547  1039.476
 548  1101.317
 549  1127.787
 550  1720.042
 551  2024.575
 552  2366.851
 553  1579.054
 554  1067.089
 555  1020.592
 556  1724.567
 557  1518.452
 558  1141.766
 559  792.8418
 560  780.8143
 561  1024.869
 562  1145.693
 563  1067.457
 564  960.2623
 565  1106.748
 566  1137.923
 567  1216.112
 568  1364.799
 569  1716.746
 570  1699.883
 571  2037.214
 572  2295.765
 573  2730.578
 574  2592.274
 575  2442.031
 576  2288.449
 577  2240.087
 578  2522.786
 579  1910.354
 580  1609.231
 581  1573.77
 582  1641.147
 583  1851.896
 584  1600.453
 585  1663.876
 586  1499.425
 587  1564.887
 588  1536.321
 589  1415.171
 590  1098.605
 591  895.7035
 592  877.6599
 593  1145.208
 594  1439.629
 595  1224.59
 596  1293.073
 597  1054.524
 598  916.7244
 599  1029.121
 600  1251.942
 601  1574.911
 602  1779.19
 603  1732.08
 604  1916.101
 605  2007.307
 606  2189.357
 607  2171.752
 608  2287.805
 609  2552.868
 610  2480.567
 611  2225.135
 612  2664.876
 613  3012.316
 614  3126.005
 615  3002.687
 616  2988.873
 617  2934.908
 618  2417.365
 619  1868.672
 620  1992.098
 621  1880.692
 622  2062.678
 623  2046.449
 624  1762.298
 625  1658.746
 626  1751.844
 627  1463.803
 628  1397.547
 629  1628.098
 630  1604.731
 631  1652.886
 632  1589.244
 633  1627.037
 634  1598.65
 635  1618.453
 636  1520.112
 637  1535.98
 638  1488.267
 639  1502.551
 640  1458.315
 641  1854.143
 642  1895.411
 643  1824.413
 644  1862.642
 645  1948.963
 646  2137.181
 647  2262.23
 648  2561.86
 649  2564.469
 650  2599.652
 651  2803.801
 652  2615.251
 653  2633.03
 654  2236.388
 655  1956.512
 656  1995.278
 657  1961.683
 658  1853.764
 659  2060.718
 660  2178.625
 661  2296.062
 662  2909.382
 663  2787.164
 664  2579.186
 665  2269.032
 666  2488.64
 667  2719.705
 668  2482.993
 669  2563.178
 670  2404.618
 671  2094.239
 672  2350.614
 673  2289.242
 674  2489.023
 675  2577.103
 676  2665.186
 677  2282.28
 678  1939.51
 679  1580.596
 680  1283.741
 681  1380.525
 682  1422.099
 683  1727.545
 684  2065.833
 685  2437.932
 686  2640.22
 687  2725.829
 688  2871.843
 689  2451.195
 690  2347.574
 691  2108.423
 692  2089.207
 693  1963.4
 694  1753.374
 695  1920.066
 696  2384.447
 697  2494.217
 698  2557.805
 699  2327.545
 700  2288.727
 701  1628.53
 702  1479.035
 703  1426.101
 704  1130.371
 705  738.9756
 706  620.7403
 707  523.1631
 708  973.1542
 709  948.5372
 710  467.1926
 711  131.334
 712  365.6971
 713  448.2691
 714  749.9037
 715  682.0003
 716  1247.132
 717  1265.764
 718  1095.097
 719  549.3083
 720  734.1887
 721  822.9549
 722  1087.645
 723  1151.618
 724  1075.198
 725  660.2139
 726  537.3494
 727  880.2568
 728  914.425
 729  853.3699
 730  1191.1
 731  1522.486
 732  1625.424
 733  1663.758
 734  1713.606
 735  1722.576
 736  1690.328
 737  1403.571
 738  1326.636
 739  1330.002
 740  1468.647
 741  1988.605
 742  2300.035
 743  2101.949
 744  2065.783
 745  1946.826
 746  1979.647
 747  2059.751
 748  2172.576
 749  2242.097
 750  2148.288
 751  2305.114
 752  1983.441
 753  1911.732
 754  1906.023
 755  2316.268
 756  2322.043
 757  2420.124
 758  2129.748
 759  1888.085
 760  1563.927
 761  1528.524
 762  1256.973
 763  1221.058
 764  988.5516
 765  958.7795
 766  1078.244
 767  979.1708
 768  1235.381
 769  1432.114
 770  1303.992
 771  1143.886
 772  1191.344
 773  1291.876
 774  1587.045
 775  1620.584
 776  1796.936
 777  1860.234
 778  2197.367
 779  2334.601
 780  2010.071
 781  2474.131
 782  2546.71
 783  2056.649
 784  1970.614
 785  2219.981
 786  2378.185
 787  2075.482
 788  2212.349
 789  2073.552
 790  1801.93
 791  1878.058
 792  2019.288
 793  1863.643
 794  1456.025
 795  1596.304
 796  1588.632
 797  1780.556
 798  2001.991
 799  2170.053
 800  2607.768
 801  2364.255
 802  2361.65
 803  2181.56
 804  2345.22
 805  2554.802
 806  2408.469
 807  2131.774
 808  2154.771
 809  2316.093
 810  2257.304
 811  2253.434
 812  2148.441
 813  2016.616
 814  2351.468
 815  2741.38
 816  2733.992
 817  2244.28
 818  2103.661
 819  2329.539
 820  2175.763
 821  2265.069
 822  2269.476
 823  2432.71
 824  2324.956
 825  2523.784
 826  2736.461
 827  2759.632
 828  2422.638
 829  2346.551
 830  2669.961
 831  3042.646
 832  2838.359
 833  2760.278
 834  2639.771
 835  2512.836
 836  2676.47
 837  2847.599
 838  3082.28
 839  3563.245
 840  3715.695
 841  3425.983
 842  2813.027
 843  2974.345
 844  3221.742
 845  3427.282
 846  3255.088
 847  3107.286
 848  2754.676
 849  2654.981
 850  2709.802
 851  2631.325
 852  2402.243
 853  2367.884
 854  1772.094
 855  1720.849
 856  1825.426
 857  1905.727
 858  1774.59
 859  1741.331
 860  1682.451
 861  1750.123
 862  1602.254
 863  1752.078
 864  1909.36
 865  2104.289
 866  2198.888
 867  2002.763
 868  1973.066
 869  1839.564
 870  1903.393
 871  1927.082
 872  1828.74
 873  1824.732
 874  1804.726
 875  1609.571
 876  1559.27
 877  1660.547
 878  1702.665
 879  1904.172
 880  1912.831
 881  2038.615
 882  2264.906
 883  2258.663
 884  2147.528
 885  2104.487
 886  2029.198
 887  1940.571
 888  1673.062
 889  1772.812
 890  1919.345
 891  1745.478
 892  1686.3
 893  1560.638
 894  1405.136
 895  1230.422
 896  1060.23
 897  665.3483
 898  918.3944
 899  1021.558
 900  886.2029
 901  789.2387
 902  822.1178
 903  795.7816
 904  868.1594
 905  805.315
 906  680.3768
 907  551.7731
 908  559.4397
 909  772.2099
 910  694.5864
 911  1043.012
 912  901.5281
 913  824.5524
 914  903.4274
 915  920.936
 916  1198.761
 917  1879.39
 918  1800.534
 919  2048.047
 920  2447.209
 921  2397.976
 922  1903.709
 923  1753.848
 924  1819.507
 925  1920.115
 926  1573.004
 927  1915.044
 928  2118.093
 929  2249.919
 930  1835.739
 931  1467.572
 932  1675.508
 933  1874.825
 934  1750.847
 935  1385.069
 936  1325.302
 937  1402.658
 938  1549.174
 939  1568.761
 940  1405.979
 941  1276.872
 942  1466.615
 943  1755.345
 944  1706.97
 945  1698.702
 946  1768.196
 947  1957.572
 948  2109.845
 949  2330.194
 950  2458.395
 951  2429.303
 952  2378.292
 953  2269.838
 954  2461.957
 955  2208.927
 956  2150.74
 957  1623.366
 958  1477.312
 959  1623.99
 960  1952.777
 961  2104.505
 962  2090.281
 963  1894.515
 964  1794.674
 965  1726.548
 966  1638.97
 967  1710.92
 968  1744.195
 969  1635.754
 970  1634.582
 971  1745.153
 972  1727.307
 973  1661.764
 974  1658.79
 975  1467.49
 976  1207.532
 977  767.9407
 978  884.8054
 979  967.6671
 980  801.1558
 981  683.9003
 982  539.0907
 983  519.8756
 984  482.0809
 985  498.4057
 986  698.8786
 987  956.3604
 988  973.7432
 989  887.1098
 990  858.1039
 991  916.0208
 992  931.0602
 993  840.8047
 994  845.1927
 995  1248.77
 996  1564.496
 997  1851.504
 998  1891.069
 999  1848.286
1000  2006.122
1001  2111.859
1002  2167.379
1003  2162.678
1004  2174.386
1005  2103.899
1006  2147.976
1007  2596.266
1008  2941.18
1009  3299.438
1010  3178.472
1011  2994.656
1012  2496.839
1013  2350.156
1014  2177.228
1015  2127.832
1016  2170.476
1017  2216.117
1018  2232.061
1019  2245.589
1020  2407.724
1021  2389.944
1022  2445.712
1023  2678.02
