# Input file       =  1180853821.116358_cleaned.dat
# Candidate        =  PSR_0332+5434
# Telescope        =  AR
# Epoch_topo       =  57911.289816161552
# Epoch_bary       =  N/A
# T_sample         =  0.002
# Data Folded      =  7340032
# Data Avg         =  0.114924166448223
# Data StdDev      =  2.88848857238991 
# Profile Bins     =  1024
# Profile Avg      =  823.790106698817 
# Profile StdDev   =  244.551117676662 
# Reduced chi-sqr  =  0.853
# Prob(Noise)      <  1   (~0.0 sigma)
# P_topo (ms)      =  714.510500695358  +/- 0.000585
# P'_topo (s/s)    =  -0                +/- 3.09e-10
# P''_topo (s/s^2) =  0                 +/- 1.36e-13
# P_bary (ms)      =  N/A
# P'_bary (s/s)    =  N/A
# P''_bary (s/s^2) =  N/A
# P_orb (s)        =  N/A
# asin(i)/c (s)    =  N/A
# eccentricity     =  N/A
# w (rad)          =  N/A
# T_peri           =  N/A
######################################################
   0  618.8372
   1  652.0116
   2  795.0822
   3  827.3555
   4  867.7883
   5  794.5186
   6  758.2328
   7  748.3948
   8  806.8171
   9  781.1261
  10  714.0072
  11  669.3333
  12  712.2677
  13  751.48
  14  789.4142
  15  798.2475
  16  873.7497
  17  884.8997
  18  849.496
  19  758.9095
  20  785.1254
  21  793.853
  22  742.1677
  23  756.4045
  24  751.2726
  25  837.0406
  26  762.3
  27  701.96
  28  635.6455
  29  708.4767
  30  777.4492
  31  758.7462
  32  781.6585
  33  865.0551
  34  862.121
  35  802.2413
  36  791.4133
  37  787.0795
  38  711.86
  39  750.7133
  40  836.2302
  41  921.4907
  42  845.7144
  43  826.2839
  44  856.776
  45  895.9865
  46  822.4747
  47  804.0717
  48  863.7905
  49  912.8856
  50  845.7782
  51  826.4615
  52  744.4665
  53  716.5042
  54  731.2124
  55  749.9674
  56  709.3591
  57  672.4913
  58  675.5662
  59  680.3857
  60  711.5295
  61  760.1882
  62  742.0202
  63  724.4271
  64  675.2432
  65  712.8904
  66  683.6483
  67  684.5602
  68  670.9041
  69  763.3707
  70  771.1281
  71  735.2639
  72  726.7087
  73  720.6645
  74  741.7308
  75  696.3908
  76  722.4061
  77  746.7063
  78  705.9617
  79  658.5598
  80  595.9033
  81  627.009
  82  651.8909
  83  645.94
  84  656.6075
  85  686.4576
  86  780.1281
  87  771.4393
  88  741.8609
  89  697.736
  90  767.4174
  91  813.8024
  92  886.2126
  93  758.7094
  94  624.9809
  95  483.5841
  96  484.751
  97  494.1389
  98  618.0635
  99  699.0583
 100  817.1294
 101  824.6699
 102  898.5588
 103  882.8373
 104  903.6302
 105  697.791
 106  573.9747
 107  534.6225
 108  685.5389
 109  698.4464
 110  693.8024
 111  651.5192
 112  750.2009
 113  791.4388
 114  821.6423
 115  754.4682
 116  737.9155
 117  737.5002
 118  758.2465
 119  830.9211
 120  807.6362
 121  826.7411
 122  828.2109
 123  934.4825
 124  933.3123
 125  913.1231
 126  843.8173
 127  882.9175
 128  867.5698
 129  866.1226
 130  937.9019
 131  1008.679
 132  1034.483
 133  1013.174
 134  1061.935
 135  953.2407
 136  955.9521
 137  844.7103
 138  984.2929
 139  981.6653
 140  991.3097
 141  852.2624
 142  813.4076
 143  773.5875
 144  738.509
 145  727.5494
 146  916.4034
 147  1084.671
 148  1097.298
 149  939.671
 150  799.7028
 151  956.9457
 152  1036.936
 153  1046.315
 154  970.8902
 155  986.8116
 156  979.0628
 157  944.5107
 158  871.6915
 159  902.6811
 160  983.2233
 161  1045.911
 162  1011.306
 163  1004.896
 164  1008.013
 165  895.9208
 166  882.1085
 167  980.9833
 168  1060.773
 169  969.2067
 170  807.8599
 171  828.1365
 172  836.2634
 173  811.1622
 174  816.7158
 175  885.0421
 176  993.418
 177  1108.724
 178  1151.515
 179  1074.734
 180  919.6382
 181  840.9337
 182  858.6945
 183  902.2203
 184  999.9027
 185  1022.405
 186  960.5226
 187  869.8901
 188  933.1735
 189  965.35
 190  1027.204
 191  1001.546
 192  990.6086
 193  1004.375
 194  940.4827
 195  842.569
 196  854.531
 197  904.1255
 198  933.7283
 199  843.903
 200  795.1818
 201  761.9741
 202  723.6619
 203  732.7681
 204  691.4615
 205  785.4222
 206  884.2526
 207  796.1296
 208  820.4492
 209  840.9672
 210  987.1159
 211  960.5009
 212  924.7665
 213  875.2832
 214  855.5306
 215  851.8334
 216  919.6092
 217  878.46
 218  957.0262
 219  957.8509
 220  1079.515
 221  1044.816
 222  1012.711
 223  944.5285
 224  922.1986
 225  1008.435
 226  930.9144
 227  904.3371
 228  823.0406
 229  864.0013
 230  800.0027
 231  826.2328
 232  776.0767
 233  705.4547
 234  708.8616
 235  786.3535
 236  922.871
 237  943.4424
 238  941.5844
 239  975.2557
 240  977.0267
 241  909.3399
 242  772.2541
 243  789.9349
 244  772.1328
 245  836.9884
 246  789.0696
 247  847.2614
 248  873.2203
 249  964.5452
 250  1087.542
 251  1181.124
 252  1100.557
 253  1037.797
 254  904.3877
 255  904.4574
 256  765.1161
 257  721.5837
 258  736.4802
 259  876.8428
 260  968.1579
 261  924.8716
 262  757.2662
 263  789.727
 264  738.6182
 265  759.606
 266  743.7987
 267  799.57
 268  844.5471
 269  879.0089
 270  925.9976
 271  884.4185
 272  785.0846
 273  741.8723
 274  675.4678
 275  577.5954
 276  557.2997
 277  663.9205
 278  817.0065
 279  809.4997
 280  723.8556
 281  611.9716
 282  601.3092
 283  642.3935
 284  685.313
 285  735.6053
 286  767.6486
 287  822.4176
 288  801.0217
 289  716.0143
 290  622.9795
 291  517.2112
 292  573.9487
 293  685.8116
 294  882.1339
 295  858.1452
 296  858.2124
 297  750.7488
 298  795.686
 299  776.9454
 300  857.2192
 301  803.8973
 302  831.1508
 303  740.2363
 304  814.2532
 305  837.083
 306  987.5803
 307  1012.775
 308  960.0701
 309  899.6808
 310  889.5722
 311  864.5751
 312  791.2089
 313  833.5096
 314  953.0559
 315  1007.467
 316  876.5245
 317  721.0723
 318  661.6088
 319  729.992
 320  864.2751
 321  915.4568
 322  861.9045
 323  811.1093
 324  781.7623
 325  761.249
 326  769.0718
 327  780.4224
 328  753.6296
 329  789.8402
 330  813.363
 331  896.7734
 332  773.5435
 333  704.7083
 334  733.3514
 335  803.3126
 336  863.9548
 337  770.5121
 338  723.5077
 339  725.6201
 340  769.0026
 341  735.7282
 342  730.7339
 343  736.2863
 344  849.5889
 345  813.3702
 346  730.0695
 347  613.3587
 348  601.9548
 349  783.6726
 350  895.3719
 351  915.8511
 352  770.1298
 353  776.3996
 354  766.4869
 355  792.9337
 356  743.4221
 357  709.3267
 358  662.5073
 359  691.5358
 360  842.9539
 361  964.6341
 362  915.8527
 363  869.2154
 364  855.1573
 365  1004.765
 366  907.3593
 367  791.1265
 368  681.2462
 369  725.7472
 370  783.5117
 371  666.4142
 372  593.4056
 373  668.7665
 374  800.548
 375  776.011
 376  658.1332
 377  689.668
 378  780.8249
 379  734.261
 380  718.0686
 381  676.7264
 382  758.735
 383  766.1559
 384  793.2134
 385  880.8417
 386  947.6268
 387  943.2366
 388  810.9057
 389  714.4104
 390  602.8899
 391  646.173
 392  736.851
 393  762.5729
 394  702.3714
 395  715.6909
 396  746.6988
 397  746.4187
 398  737.7307
 399  805.5575
 400  813.8154
 401  920.7178
 402  902.9728
 403  855.8748
 404  800.8443
 405  817.972
 406  830.7301
 407  757.91
 408  680.7242
 409  679.3919
 410  742.9277
 411  814.4567
 412  773.3849
 413  735.8857
 414  744.1761
 415  809.1924
 416  863.9736
 417  720.418
 418  694.188
 419  695.1938
 420  775.958
 421  727.5165
 422  634.5282
 423  627.477
 424  672.7769
 425  823.6407
 426  841.3788
 427  777.8834
 428  720.7859
 429  789.3725
 430  805.4879
 431  752.9117
 432  699.4445
 433  652.6909
 434  654.7565
 435  612.2403
 436  589.2336
 437  493.7728
 438  596.0328
 439  623.1755
 440  603.8655
 441  535.5832
 442  638.1168
 443  801.7805
 444  859.6326
 445  810.4423
 446  764.0201
 447  807.6113
 448  858.19
 449  850.6498
 450  791.1827
 451  799.2964
 452  807.1952
 453  855.7351
 454  920.1959
 455  920.217
 456  882.9775
 457  808.5458
 458  811.9979
 459  921.7431
 460  1006.055
 461  1001.547
 462  1046.245
 463  1019.076
 464  973.0929
 465  800.8444
 466  768.9077
 467  754.8257
 468  853.1009
 469  958.3831
 470  906.8533
 471  816.1185
 472  793.0107
 473  846.2252
 474  929.4772
 475  872.8164
 476  907.0314
 477  943.0297
 478  979.8997
 479  990.1717
 480  915.9757
 481  850.2229
 482  870.3641
 483  818.9027
 484  791.3538
 485  818.7368
 486  896.0046
 487  836.1884
 488  810.6849
 489  786.2972
 490  829.542
 491  809.3511
 492  778.2579
 493  779.0826
 494  799.2467
 495  741.917
 496  717.7699
 497  737.3341
 498  783.5739
 499  781.2751
 500  771.7825
 501  962.7479
 502  996.955
 503  941.0023
 504  748.1946
 505  728.9034
 506  745.4911
 507  894.8688
 508  861.5151
 509  856.8813
 510  789.2715
 511  813.3951
 512  892.7001
 513  1010.07
 514  955.1678
 515  904.9852
 516  931.0426
 517  1006.948
 518  978.7964
 519  801.0883
 520  761.1799
 521  784.9399
 522  890.5044
 523  886.1862
 524  866.5455
 525  885.7889
 526  892.8848
 527  953.7312
 528  897.9854
 529  920.2827
 530  846.3442
 531  853.4747
 532  918.3085
 533  993.3145
 534  962.3304
 535  847.8233
 536  843.4568
 537  900.8703
 538  999.478
 539  1108.486
 540  1178.075
 541  1083.491
 542  953.0748
 543  807.0016
 544  776.6011
 545  699.4076
 546  776.0532
 547  900.1606
 548  998.9193
 549  986.4342
 550  962.7913
 551  955.9999
 552  960.4653
 553  912.7764
 554  838.5333
 555  863.851
 556  812.9906
 557  847.1976
 558  880.7764
 559  940.3923
 560  903.306
 561  858.03
 562  855.289
 563  905.6661
 564  928.4449
 565  994.6102
 566  978.3868
 567  1039.215
 568  955.5926
 569  943.5169
 570  896.2245
 571  1003.488
 572  920.3323
 573  892.908
 574  880.1981
 575  953.6578
 576  902.1856
 577  839.6034
 578  793.2527
 579  826.9029
 580  872.0255
 581  841.4214
 582  821.8538
 583  815.1858
 584  798.6258
 585  762.6582
 586  738.5385
 587  736.3937
 588  746.0371
 589  767.4167
 590  767.9131
 591  694.376
 592  683.4766
 593  663.9894
 594  716.8082
 595  707.3702
 596  712.2139
 597  738.6188
 598  754.8602
 599  676.719
 600  695.9794
 601  710.8066
 602  775.5304
 603  786.1743
 604  799.9177
 605  783.7653
 606  717.871
 607  795.5225
 608  880.3447
 609  807.9163
 610  815.2888
 611  831.329
 612  866.6754
 613  794.9678
 614  781.494
 615  885.7875
 616  856.9768
 617  807.9931
 618  676.73
 619  731.264
 620  779.9078
 621  813.3995
 622  748.0545
 623  738.7164
 624  724.1759
 625  701.7786
 626  638.8348
 627  630.7352
 628  787.3835
 629  911.6763
 630  911.4084
 631  886.3644
 632  909.4011
 633  937.5738
 634  863.9803
 635  830.0103
 636  763.3182
 637  750.765
 638  721.6439
 639  769.7924
 640  746.8706
 641  721.8621
 642  671.6419
 643  767.821
 644  769.5092
 645  821.076
 646  824.4894
 647  772.248
 648  673.3239
 649  652.2413
 650  751.6669
 651  765.9194
 652  786.85
 653  826.6063
 654  862.998
 655  851.8877
 656  792.3801
 657  768.4141
 658  778.1373
 659  785.5849
 660  740.0998
 661  795.3923
 662  914.9308
 663  1020.626
 664  942.8368
 665  906.0189
 666  914.727
 667  879.7234
 668  859.4503
 669  842.8796
 670  862.5822
 671  768.5264
 672  768.0026
 673  841.3011
 674  877.0071
 675  803.7869
 676  811.6714
 677  831.4777
 678  844.1245
 679  814.8918
 680  778.4431
 681  780.0192
 682  727.6354
 683  716.5806
 684  755.0178
 685  786.0939
 686  657.571
 687  642.0945
 688  740.1177
 689  856.1341
 690  731.0822
 691  705.4288
 692  725.551
 693  785.8797
 694  788.4651
 695  716.1786
 696  715.4615
 697  715.6817
 698  742.2756
 699  677.8737
 700  701.7362
 701  707.7354
 702  802.0261
 703  766.3623
 704  764.2465
 705  733.6216
 706  841.2875
 707  901.6772
 708  949.0903
 709  807.503
 710  740.9647
 711  728.7682
 712  803.7147
 713  776.2783
 714  828.4221
 715  924.4915
 716  1022.174
 717  1078.51
 718  962.6843
 719  885.0142
 720  702.6852
 721  806.0639
 722  800.4775
 723  863.9085
 724  892.173
 725  932.2426
 726  900.7462
 727  885.1055
 728  796.9232
 729  720.7267
 730  639.0528
 731  621.4246
 732  614.3774
 733  738.5274
 734  840.8602
 735  897.0316
 736  930.9976
 737  1011.349
 738  985.1758
 739  858.5897
 740  722.4048
 741  802.0145
 742  933.6336
 743  1000.408
 744  932.0662
 745  945.3281
 746  900.5123
 747  944.9219
 748  950.244
 749  1095.731
 750  1178.359
 751  1340.663
 752  1395.903
 753  1394.444
 754  1320.895
 755  1395.184
 756  1462.787
 757  1524.778
 758  1552.313
 759  1551.474
 760  1453.882
 761  1154.495
 762  902.5479
 763  766.5986
 764  737.553
 765  792.7752
 766  875.0786
 767  953.0102
 768  832.5648
 769  712.7578
 770  688.7072
 771  713.2921
 772  774.0613
 773  818.3868
 774  941.3915
 775  842.6236
 776  811.6629
 777  802.9065
 778  860.346
 779  886.6548
 780  925.6863
 781  960.3846
 782  956.9727
 783  874.2977
 784  842.3034
 785  788.4199
 786  773.8701
 787  854.3331
 788  928.0931
 789  984.074
 790  922.6946
 791  914.9843
 792  867.1605
 793  809.7222
 794  776.5522
 795  808.861
 796  883.3307
 797  830.5931
 798  788.6988
 799  692.0529
 800  760.822
 801  745.5635
 802  791.0014
 803  715.8548
 804  621.2617
 805  593.5543
 806  586.3721
 807  623.3792
 808  683.7206
 809  766.1101
 810  785.0826
 811  678.0948
 812  663.6906
 813  593.2534
 814  538.6638
 815  610.7372
 816  655.6843
 817  724.8389
 818  687.6208
 819  707.0187
 820  708.184
 821  698.7819
 822  732.4868
 823  698.2775
 824  700.7655
 825  659.3402
 826  654.6628
 827  671.302
 828  668.7798
 829  659.3714
 830  692.0413
 831  789.2726
 832  860.8715
 833  833.3132
 834  805.8152
 835  758.5968
 836  743.7628
 837  790.0964
 838  832.2501
 839  885.3507
 840  924.1848
 841  992.4518
 842  919.7029
 843  738.8647
 844  612.6143
 845  700.8937
 846  770.8
 847  836.0664
 848  780.2719
 849  839.866
 850  801.7439
 851  824.2826
 852  807.4981
 853  940.9982
 854  1017.836
 855  968.535
 856  860.3945
 857  803.7744
 858  837.6809
 859  846.2256
 860  823.1543
 861  797.6437
 862  761.3666
 863  700.4426
 864  691.8881
 865  769.6707
 866  889.6761
 867  916.6803
 868  877.8466
 869  883.2734
 870  924.7697
 871  898.7457
 872  870.0676
 873  913.5402
 874  835.2746
 875  825.4279
 876  819.1453
 877  830.6154
 878  823.0842
 879  864.6066
 880  867.674
 881  851.0906
 882  838.6694
 883  901.8693
 884  928.5322
 885  903.6705
 886  911.1072
 887  803.8563
 888  803.9297
 889  779.748
 890  747.0999
 891  699.8243
 892  767.3252
 893  847.8433
 894  928.4856
 895  997.6292
 896  1069.555
 897  1018.429
 898  933.8805
 899  889.0089
 900  891.5571
 901  846.9022
 902  836.3939
 903  845.7282
 904  866.8459
 905  778.3195
 906  770.601
 907  797.9045
 908  822.6633
 909  864.327
 910  924.3829
 911  998.4913
 912  960.0871
 913  933.1312
 914  920.6349
 915  895.6232
 916  895.6657
 917  839.7601
 918  893.1346
 919  951.0068
 920  882.0486
 921  801.9778
 922  779.8749
 923  844.9641
 924  870.5169
 925  938.2077
 926  933.5831
 927  859.6979
 928  809.0829
 929  806.1871
 930  745.134
 931  729.2187
 932  828.4636
 933  1023.706
 934  991.9216
 935  843.6375
 936  783.2787
 937  764.5358
 938  870.6531
 939  757.7672
 940  845.1519
 941  872.9042
 942  1010.56
 943  913.5472
 944  795.5098
 945  733.6586
 946  758.8435
 947  808.1954
 948  890.7734
 949  865.5126
 950  828.5876
 951  799.6566
 952  790.0932
 953  795.1518
 954  870.9877
 955  885.0436
 956  891.9577
 957  729.0369
 958  691.6273
 959  659.7276
 960  686.473
 961  709.8126
 962  663.9536
 963  684.1156
 964  725.6013
 965  692.3227
 966  603.4443
 967  651.6493
 968  828.9639
 969  856.3613
 970  760.0674
 971  769.7258
 972  869.5365
 973  881.0137
 974  809.7524
 975  782.6713
 976  845.3601
 977  832.0385
 978  789.5107
 979  748.0021
 980  704.4214
 981  586.7529
 982  582.1359
 983  664.1855
 984  775.4006
 985  773.12
 986  717.8044
 987  735.8818
 988  871.3972
 989  882.4278
 990  866.3329
 991  763.2244
 992  823.315
 993  824.137
 994  828.1729
 995  845.543
 996  875.105
 997  801.8158
 998  727.1876
 999  709.8184
1000  785.1959
1001  842.9208
1002  962.0997
1003  1014.74
1004  975.8191
1005  905.2251
1006  889.3549
1007  918.802
1008  861.7784
1009  813.6114
1010  854.2474
1011  916.6294
1012  881.1241
1013  838.5597
1014  844.1965
1015  761.6882
1016  712.4153
1017  657.4755
1018  754.2005
1019  754.3513
1020  721.3111
1021  804.1676
1022  750.6762
1023  679.5125
