# Input file       =  1180250726.097181_cleaned.dat
# Candidate        =  PSR_0332+5434
# Telescope        =  AR
# Epoch_topo       =  57904.309549735895
# Epoch_bary       =  N/A
# T_sample         =  0.002
# Data Folded      =  7340032
# Data Avg         =  0.105452935581395
# Data StdDev      =  2.91841880558211 
# Profile Bins     =  512
# Profile Avg      =  1511.92287585461 
# Profile StdDev   =  349.431145011401 
# Reduced chi-sqr  =  1.372
# Prob(Noise)      <  4.23e-08   (~5.4 sigma)
# P_topo (ms)      =  714.517259178162  +/- 0.000231
# P'_topo (s/s)    =  -0                +/- 1.22e-10
# P''_topo (s/s^2) =  0                 +/- 5.37e-14
# P_bary (ms)      =  N/A
# P'_bary (s/s)    =  N/A
# P''_bary (s/s^2) =  N/A
# P_orb (s)        =  N/A
# asin(i)/c (s)    =  N/A
# eccentricity     =  N/A
# w (rad)          =  N/A
# T_peri           =  N/A
######################################################
   0  1370.234
   1  1426.521
   2  1411.247
   3  1148.836
   4  1422.673
   5  1558.61
   6  1882.514
   7  1869.938
   8  1643.414
   9  1615.704
  10  1602.079
  11  1719.817
  12  1359.88
  13  1416.637
  14  1471.73
  15  1656.78
  16  1444.721
  17  1533.978
  18  1617.763
  19  1366.722
  20  1297.106
  21  1056.204
  22  1180.899
  23  1261.333
  24  1484.268
  25  1372.6
  26  1122.947
  27  1213.766
  28  1454.127
  29  1187.828
  30  1228.246
  31  1662.701
  32  1481.396
  33  1291.38
  34  1500.589
  35  1882.7
  36  2008.043
  37  1600.744
  38  1625.561
  39  1655.17
  40  1306.049
  41  1504.729
  42  1471.518
  43  1732.299
  44  1684.42
  45  1687.017
  46  1540.771
  47  1425.121
  48  1769.83
  49  1445.948
  50  1393.384
  51  1498.71
  52  1277.486
  53  1680.59
  54  1863.603
  55  1801.975
  56  1795.053
  57  1560.72
  58  1652.526
  59  1767.088
  60  1551.038
  61  1619.199
  62  1554.929
  63  1563.875
  64  1746.74
  65  1826.804
  66  1711.167
  67  1642.271
  68  1182.434
  69  1345.633
  70  1234.018
  71  1368.44
  72  1417.856
  73  1309.743
  74  1383.978
  75  1249.077
  76  1127.512
  77  1009.613
  78  995.5162
  79  1187.981
  80  1145.787
  81  1174.349
  82  1134.734
  83  1095.208
  84  1275.372
  85  1434.635
  86  1124.266
  87  1234.96
  88  1125.821
  89  1130.743
  90  1465.802
  91  1398.847
  92  1524.23
  93  1471.281
  94  1389.314
  95  1525.004
  96  1360.289
  97  1678.684
  98  1503.712
  99  1424.429
 100  1444.935
 101  1670.964
 102  1556.69
 103  1617.808
 104  1452.588
 105  1436.025
 106  1550.613
 107  1347.489
 108  1355.902
 109  1515.35
 110  1696.395
 111  1710.192
 112  1488.845
 113  1641.417
 114  1743.919
 115  1166.138
 116  1119.741
 117  1410.296
 118  1740.509
 119  1768.317
 120  1725.292
 121  1475.561
 122  1261.588
 123  1294.454
 124  1552.907
 125  1535.997
 126  1523.236
 127  1633.676
 128  1466.128
 129  1609.548
 130  1823.323
 131  1443.634
 132  1451.926
 133  1573.806
 134  1622.456
 135  1551.89
 136  1801.376
 137  1957.549
 138  1522.948
 139  1852.242
 140  1593.591
 141  1363.678
 142  1855.607
 143  1830.172
 144  1559.698
 145  1737.006
 146  1644.632
 147  1627.486
 148  1528.759
 149  1693.041
 150  1323.743
 151  1549.101
 152  1927.867
 153  1656.273
 154  1470.102
 155  1410.358
 156  1357.542
 157  1433.148
 158  1408.562
 159  1460.07
 160  1574.123
 161  1326.664
 162  1317.659
 163  1602.963
 164  1491.048
 165  1282.064
 166  1338.39
 167  1127.419
 168  1392.534
 169  1536.03
 170  1404.223
 171  1528.729
 172  1742.803
 173  1656.233
 174  1459.602
 175  1623.677
 176  1729.345
 177  1937.555
 178  1887.699
 179  1677.67
 180  1867.544
 181  2072.799
 182  2173.299
 183  1794.297
 184  1555.708
 185  1885.813
 186  1789.005
 187  2015.249
 188  2193.415
 189  1749.619
 190  1712.39
 191  1834.113
 192  1668.318
 193  1678.56
 194  1721.891
 195  1784.524
 196  1815.663
 197  1650.441
 198  1611.038
 199  1570.534
 200  1306.027
 201  1631.501
 202  1384.504
 203  1190.909
 204  1580.342
 205  1373.584
 206  1252.317
 207  1374.331
 208  1606.978
 209  1523.101
 210  1409.905
 211  1421.139
 212  1460.307
 213  1622.002
 214  1687.604
 215  1839.977
 216  1925.491
 217  2186.601
 218  2465.246
 219  2952.01
 220  2942.66
 221  3113.602
 222  2921.288
 223  2461.792
 224  1853.861
 225  1736.055
 226  1990.793
 227  1868.762
 228  1641.645
 229  1671.509
 230  1402.685
 231  1557.304
 232  1829.847
 233  1911.974
 234  1993.774
 235  1750.913
 236  1436.098
 237  1505.475
 238  1471.178
 239  1440.162
 240  1138.684
 241  921.4043
 242  776.1898
 243  876.1804
 244  919.5278
 245  1470.529
 246  1326.693
 247  1012.063
 248  780.8768
 249  1046.66
 250  994.7147
 251  994.9504
 252  939.9822
 253  858.2382
 254  655.4048
 255  759.4138
 256  955.9548
 257  1024.829
 258  1233.473
 259  1512.822
 260  1640.318
 261  1553.643
 262  1412.351
 263  1350.291
 264  1296.792
 265  1168.355
 266  1638.834
 267  1575.782
 268  1676.699
 269  1377.307
 270  1621.74
 271  1491.936
 272  1417.623
 273  1261.371
 274  1432.46
 275  1737.506
 276  1919.91
 277  1768.663
 278  1798.602
 279  1435.067
 280  1461.094
 281  1473.141
 282  1500.165
 283  1317.153
 284  1334.684
 285  1631.16
 286  1208.377
 287  1062.096
 288  1219.869
 289  1129.262
 290  1444.371
 291  1543.876
 292  1741.112
 293  1523.366
 294  1331.779
 295  1227.446
 296  1548.959
 297  1445.47
 298  1710.83
 299  1519.653
 300  1379.895
 301  1393.261
 302  1495.074
 303  1737.583
 304  1638.885
 305  1459.339
 306  1172.118
 307  1221.145
 308  1495.042
 309  1637.905
 310  1552.376
 311  1753.28
 312  1568.573
 313  1597.501
 314  1566.823
 315  1448.519
 316  1486.216
 317  1545.96
 318  1475.867
 319  1523.882
 320  1617.213
 321  1634.201
 322  1377.239
 323  1487.989
 324  1414.642
 325  1449.634
 326  1539.554
 327  1230.918
 328  1230.812
 329  1493.218
 330  1297.792
 331  1059.041
 332  1423.974
 333  1348.819
 334  1157.626
 335  1443.497
 336  1581.581
 337  1196.806
 338  984.6277
 339  1418.316
 340  1387.89
 341  1519.9
 342  1608.539
 343  1537.662
 344  1259.998
 345  1454.923
 346  1679.461
 347  1823.354
 348  1785.233
 349  2034.518
 350  2044.073
 351  1764.082
 352  1616.3
 353  1527.682
 354  1759.459
 355  1987.079
 356  1890.612
 357  1785.402
 358  1637.037
 359  1258.705
 360  1293.588
 361  1694.674
 362  1856.474
 363  1821.494
 364  1682.145
 365  1571.562
 366  1642.407
 367  1525.167
 368  1969.05
 369  1941.765
 370  1843.275
 371  1880.879
 372  1890.98
 373  1811.254
 374  1829.319
 375  1793.45
 376  1511.168
 377  1415.82
 378  1732.934
 379  1776.078
 380  1649.219
 381  1725.233
 382  1510.761
 383  1453.852
 384  1605.988
 385  1681.277
 386  1481.753
 387  1858.852
 388  2102.24
 389  1621.047
 390  1814.633
 391  1904.328
 392  1906.074
 393  1806.635
 394  2012.992
 395  2022.047
 396  1540.782
 397  1506.171
 398  1673.572
 399  1314.264
 400  1234.229
 401  1604.729
 402  1578.365
 403  1898.468
 404  1638.878
 405  1610.615
 406  1067.974
 407  1010.645
 408  1428.35
 409  1542.775
 410  1366.266
 411  1299.252
 412  1041.426
 413  1171.224
 414  840.4148
 415  793.0563
 416  959.6498
 417  1010.58
 418  1077.826
 419  1228.838
 420  1298.36
 421  1330.85
 422  1086.751
 423  1135.495
 424  944.7321
 425  1196.709
 426  1424.732
 427  1863.414
 428  1851.984
 429  1548.475
 430  1297.956
 431  1430.704
 432  1560.525
 433  1783.105
 434  1822.536
 435  1647.372
 436  1634.792
 437  1648.322
 438  1707.937
 439  1876.816
 440  1601.273
 441  1407.248
 442  1549.032
 443  1437.434
 444  1737.461
 445  1631.097
 446  1600.462
 447  1649.989
 448  1506.732
 449  1625.348
 450  1750.17
 451  1699.894
 452  1422.407
 453  1376.321
 454  1464.611
 455  1576.942
 456  1386.635
 457  1206.842
 458  1085.29
 459  1131.289
 460  1387.648
 461  1729.734
 462  1671.348
 463  1284.841
 464  1193.306
 465  1114.138
 466  1098.466
 467  1070.194
 468  1473.453
 469  1772.619
 470  1435.299
 471  1564.189
 472  1788.789
 473  1337.614
 474  1548.92
 475  1717.86
 476  1302.469
 477  1717.152
 478  1796.054
 479  1698.903
 480  1472.545
 481  1600.307
 482  1791.226
 483  1672.205
 484  1498.908
 485  1598.847
 486  1454.253
 487  1388.217
 488  1356.199
 489  1206.007
 490  1283.662
 491  1353.193
 492  1522.778
 493  1536.163
 494  1262.95
 495  1378.5
 496  1231.014
 497  1151.702
 498  1197.173
 499  931.3055
 500  1010.76
 501  1231.479
 502  1120.094
 503  1189.907
 504  1359.292
 505  1449.329
 506  1375.861
 507  1238.711
 508  1186.093
 509  1155.052
 510  1168.567
 511  1334.509
