# Input file       =  1180681523.102148_cleaned.dat
# Candidate        =  PSR_0332+5434
# Telescope        =  AR
# Epoch_topo       =  57909.295626182269
# Epoch_bary       =  N/A
# T_sample         =  0.002
# Data Folded      =  7340032
# Data Avg         =  0.0862844389349836
# Data StdDev      =  2.4740429280847  
# Profile Bins     =  512
# Profile Avg      =  1237.31770657618 
# Profile StdDev   =  296.224671906046 
# Reduced chi-sqr  =  1.147
# Prob(Noise)      <  0.0118   (~2.3 sigma)
# P_topo (ms)      =  714.51241480822   +/- 0.00035
# P'_topo (s/s)    =  -0                +/- 1.85e-10
# P''_topo (s/s^2) =  0                 +/- 8.15e-14
# P_bary (ms)      =  N/A
# P'_bary (s/s)    =  N/A
# P''_bary (s/s^2) =  N/A
# P_orb (s)        =  N/A
# asin(i)/c (s)    =  N/A
# eccentricity     =  N/A
# w (rad)          =  N/A
# T_peri           =  N/A
######################################################
   0  1631.064
   1  1401.136
   2  1302.829
   3  1366.347
   4  1365.034
   5  1464.072
   6  1325.511
   7  1363.434
   8  1263.324
   9  1456.041
  10  1538.511
  11  1493.458
  12  1777.535
  13  1430.09
  14  1421.701
  15  1348.945
  16  1405.978
  17  1280.383
  18  1374.195
  19  1295.368
  20  1158.91
  21  1076.795
  22  1097.011
  23  955.379
  24  1003.721
  25  1183.045
  26  1222.694
  27  1066.358
  28  1453.444
  29  1161.724
  30  914.7037
  31  1032.12
  32  1096.724
  33  1195.887
  34  1265.336
  35  1406.07
  36  1373.087
  37  1326.108
  38  1385.334
  39  1403.105
  40  1387.545
  41  1388.949
  42  1180.161
  43  1205.671
  44  1339.954
  45  1176.657
  46  1070.755
  47  1303.366
  48  1326.403
  49  1323.44
  50  1365.93
  51  1469.246
  52  1635.481
  53  1566.266
  54  1433.467
  55  1546.098
  56  1629.49
  57  1182.222
  58  1301.134
  59  1431.036
  60  1255.692
  61  1231.417
  62  1127.402
  63  1137.912
  64  1301.77
  65  1488.194
  66  1420.32
  67  1398.939
  68  1388.057
  69  1344.47
  70  1579.743
  71  1442.955
  72  1344.318
  73  1223.181
  74  1339.602
  75  1180.923
  76  1403.352
  77  1663.958
  78  1481.325
  79  1273.041
  80  1458.074
  81  1496.684
  82  1244.309
  83  1324.168
  84  1382.25
  85  1314.984
  86  1405.734
  87  1321.398
  88  1279.675
  89  1287.736
  90  1197.179
  91  1306.183
  92  1431.118
  93  1371.029
  94  1148.47
  95  1073.357
  96  1004.58
  97  1217.152
  98  1155.245
  99  1112.984
 100  1237.824
 101  1230.811
 102  1460.981
 103  1398.83
 104  1276.215
 105  795.0885
 106  949.4301
 107  1243.859
 108  1272.161
 109  1434.395
 110  1000.848
 111  1299.611
 112  1265.176
 113  987.3543
 114  932.6948
 115  1086.121
 116  1211.633
 117  939.4016
 118  1108.969
 119  1374.557
 120  1410.547
 121  1258.43
 122  1312.06
 123  1316.278
 124  1295.329
 125  1189.837
 126  1552.717
 127  1434.505
 128  1221.233
 129  1055.718
 130  1094.881
 131  1294.845
 132  1569.777
 133  1179.869
 134  1105.078
 135  1244.385
 136  1433.076
 137  1398.875
 138  1141.54
 139  1135.486
 140  1079.066
 141  1337.826
 142  1099.469
 143  1210.093
 144  1331.4
 145  1154.95
 146  1266.703
 147  955.6988
 148  971.8179
 149  866.0657
 150  875.457
 151  861.5536
 152  819.7432
 153  1063.523
 154  1064.39
 155  1003.499
 156  1461.807
 157  1216.595
 158  1086.653
 159  1240.345
 160  1315.579
 161  1119.817
 162  1203.741
 163  1106.401
 164  984.4017
 165  968.4952
 166  898.0477
 167  1022.034
 168  1203.692
 169  1308.179
 170  1292.597
 171  1115.693
 172  1189.935
 173  1322.791
 174  1282.892
 175  1521.644
 176  1316.362
 177  1255.838
 178  1388.649
 179  1211.752
 180  1110.688
 181  1329.369
 182  1453.139
 183  1462.577
 184  1294.364
 185  916.8221
 186  900.4907
 187  1200.232
 188  1237.589
 189  1298.506
 190  1174.48
 191  1122.829
 192  971.9894
 193  1005.872
 194  1032.802
 195  1035.131
 196  1002.286
 197  923.0171
 198  976.9501
 199  899.9986
 200  858.6514
 201  671.0181
 202  608.3792
 203  688.1587
 204  670.7441
 205  811.7551
 206  858.997
 207  1028.008
 208  1126.93
 209  1199.672
 210  1213.21
 211  854.8795
 212  648.1255
 213  1015.849
 214  864.4592
 215  971.9807
 216  1068.112
 217  1095.203
 218  1197.147
 219  1193.636
 220  923.7849
 221  1062.409
 222  1311.994
 223  1326.716
 224  1004.807
 225  771.9951
 226  710.9509
 227  889.2374
 228  1082.337
 229  925.1973
 230  1172.278
 231  1373.284
 232  1047.88
 233  1139.516
 234  1243.075
 235  1271.748
 236  1064.34
 237  1378.115
 238  1476.736
 239  1479.769
 240  1229.668
 241  1043.049
 242  1031.106
 243  1247.733
 244  1047.73
 245  1079.807
 246  1069.355
 247  1169.604
 248  970.8029
 249  843.0099
 250  1140.568
 251  1184.162
 252  1291.112
 253  1652.404
 254  1510.044
 255  1329.966
 256  1220.141
 257  1307.262
 258  1355.49
 259  1271.865
 260  1053.248
 261  1276.052
 262  1103.669
 263  1037.904
 264  1386.245
 265  1489.476
 266  1342.496
 267  1192.387
 268  1207.621
 269  1247.189
 270  1072.055
 271  1205.618
 272  1363.54
 273  1453.278
 274  1212.478
 275  1059.407
 276  847.1176
 277  1002.977
 278  1179.157
 279  1154.871
 280  1042.571
 281  1108.626
 282  1145.51
 283  1435.964
 284  1335.701
 285  1099.954
 286  1021.368
 287  1003.303
 288  1203.235
 289  1142.143
 290  832.8368
 291  933.7633
 292  1129.704
 293  975.9922
 294  878.1015
 295  933.1495
 296  819.6532
 297  1361.581
 298  1277.068
 299  1264.374
 300  1008.474
 301  1060.67
 302  1033.957
 303  744.9524
 304  833.4332
 305  839.3641
 306  1099.601
 307  1100.468
 308  1074.749
 309  1101.809
 310  1177.989
 311  1076.284
 312  1236.317
 313  1396.1
 314  1475.625
 315  1158.078
 316  1034.207
 317  1096.794
 318  1289.451
 319  1207.231
 320  1224.71
 321  1140.429
 322  1385.096
 323  1409.925
 324  1379.401
 325  1685.955
 326  1963.744
 327  2289.07
 328  2471.776
 329  2594.416
 330  2364.393
 331  2006.405
 332  1375.41
 333  1226.453
 334  1204.978
 335  1471.302
 336  1432.511
 337  1581.067
 338  1887.413
 339  1426.625
 340  1118.307
 341  1557.173
 342  1540.324
 343  1517.598
 344  1700.16
 345  1575.819
 346  1641.314
 347  1492.784
 348  1489.708
 349  1280.531
 350  1063.066
 351  1133.976
 352  1053.054
 353  1069.202
 354  1275.186
 355  1380.205
 356  1349.61
 357  1224.216
 358  1150.147
 359  982.976
 360  1086.147
 361  977.4481
 362  901.0471
 363  1098.483
 364  1033.709
 365  1267.435
 366  1203.159
 367  1057.888
 368  920.2732
 369  835.1673
 370  1211.573
 371  1163.846
 372  1430.368
 373  1319.005
 374  1245.636
 375  1400.082
 376  1327.233
 377  1454.322
 378  1404.132
 379  1496.933
 380  1426.444
 381  1464.54
 382  1464.352
 383  1225.108
 384  1375.96
 385  1401.45
 386  1228.009
 387  1582.866
 388  1578.407
 389  1416.037
 390  1479.044
 391  1501.058
 392  1302.517
 393  1280.742
 394  1253.785
 395  1138.408
 396  1217.065
 397  1340.125
 398  1050.95
 399  1108.821
 400  1429.854
 401  1062.785
 402  1228.057
 403  1320.296
 404  1263.54
 405  1088.849
 406  1149.254
 407  1345.895
 408  1131.787
 409  943.7375
 410  1160.828
 411  1324.314
 412  1374.2
 413  1279.598
 414  1380.39
 415  1187.975
 416  1213.308
 417  1226.351
 418  994.8068
 419  1007.976
 420  1230.724
 421  1208.619
 422  1129.877
 423  1152.984
 424  1312.693
 425  1159.632
 426  1276.188
 427  1451.003
 428  1376.582
 429  1499.451
 430  1186.024
 431  1298.428
 432  1241.58
 433  1123.653
 434  1297.768
 435  1728.002
 436  1677.077
 437  1680.161
 438  1522.446
 439  1362.156
 440  1408.448
 441  1374.884
 442  1382.97
 443  1258.454
 444  1244.481
 445  1275.711
 446  1512.1
 447  1528.832
 448  1371.421
 449  1154.026
 450  1284.718
 451  1274.557
 452  1077.316
 453  1085.901
 454  1434.516
 455  1200.168
 456  1031.27
 457  1220.083
 458  1301.506
 459  1268.73
 460  1269.653
 461  1255.979
 462  1270.56
 463  1451.904
 464  1338.763
 465  1404.284
 466  1170.023
 467  1179.842
 468  1354.932
 469  1326.933
 470  1241.637
 471  1272.86
 472  1302.367
 473  1329.303
 474  1320.091
 475  1113.984
 476  1326.112
 477  1389.271
 478  1117.133
 479  1144.736
 480  1116.236
 481  1174.542
 482  1111.542
 483  982.6007
 484  1020.692
 485  1139.024
 486  1193.455
 487  1530.909
 488  1724.799
 489  1507.343
 490  1222.251
 491  1102.962
 492  937.4033
 493  1095.476
 494  1319.953
 495  1263.911
 496  1417.65
 497  1204.213
 498  1254.35
 499  1032.549
 500  1266.46
 501  1083.589
 502  1102.266
 503  1234.422
 504  1082.158
 505  957.5994
 506  1052.45
 507  889.6136
 508  1105.173
 509  1295.591
 510  1057.399
 511  1370.454
