# Input file       =  1180853821.116358_cleaned.dat
# Candidate        =  PSR_0332+5434
# Telescope        =  AR
# Epoch_topo       =  57911.289816161552
# Epoch_bary       =  N/A
# T_sample         =  0.002
# Data Folded      =  7340032
# Data Avg         =  0.114924166448223
# Data StdDev      =  2.88848857238991 
# Profile Bins     =  512
# Profile Avg      =  1647.58021348539 
# Profile StdDev   =  345.847507311834 
# Reduced chi-sqr  =  0.925
# Prob(Noise)      <  0.886   (~0.0 sigma)
# P_topo (ms)      =  714.510500674968  +/- 0.000585
# P'_topo (s/s)    =  -0                +/- 3.09e-10
# P''_topo (s/s^2) =  0                 +/- 1.36e-13
# P_bary (ms)      =  N/A
# P'_bary (s/s)    =  N/A
# P''_bary (s/s^2) =  N/A
# P_orb (s)        =  N/A
# asin(i)/c (s)    =  N/A
# eccentricity     =  N/A
# w (rad)          =  N/A
# T_peri           =  N/A
######################################################
   0  1405.63
   1  1535.407
   2  1709.427
   3  1874.9
   4  1467.632
   5  1270.993
   6  1501.685
   7  1417.015
   8  1486.252
   9  1563.595
  10  1780.956
  11  1724.277
  12  1619.749
  13  1547.33
  14  1375.492
  15  1585.891
  16  1492.015
  17  1581.566
  18  1546.519
  19  1395.584
  20  1473.11
  21  1258.296
  22  1561.278
  23  1585.288
  24  1530.038
  25  1531.527
  26  1331.613
  27  1259.622
  28  1069.458
  29  1224.347
  30  1137.668
  31  1519.388
  32  1632.124
  33  1588.907
  34  1703.06
  35  1594.17
  36  1698.494
  37  1842.737
  38  1653.259
  39  1789.56
  40  2021.708
  41  2063.82
  42  1705.975
  43  1530.474
  44  1854.13
  45  1684.689
  46  1653.804
  47  1801.513
  48  1868.619
  49  1970.47
  50  1738.957
  51  1673.551
  52  1632.598
  53  1716.796
  54  1598.536
  55  1631.468
  56  1553.91
  57  1517.451
  58  1478.463
  59  1553.017
  60  1797.98
  61  1894.566
  62  1455.173
  63  1685.105
  64  1696.45
  65  1619.759
  66  1937.446
  67  1836.968
  68  1971.606
  69  1706.851
  70  1574.122
  71  1769.582
  72  1763.811
  73  1853.735
  74  1824.313
  75  1691.505
  76  1937.49
  77  1760.852
  78  1780.094
  79  2159.006
  80  2227.057
  81  1703.252
  82  1461.421
  83  1731.204
  84  1988.033
  85  1911.596
  86  1846.471
  87  1694.008
  88  1669.968
  89  1844.134
  90  1741.443
  91  1773.617
  92  1947.009
  93  2020.175
  94  1868.113
  95  1922.026
  96  1791.467
  97  1854.405
  98  1692.255
  99  1641.604
 100  1708.36
 101  1636.37
 102  1542.825
 103  1455.127
 104  1534.312
 105  1428.556
 106  1360.859
 107  1422.87
 108  1475.632
 109  1403.144
 110  1427.301
 111  1567.33
 112  1545.856
 113  1572.766
 114  1675.012
 115  1664.87
 116  1627.556
 117  1699.456
 118  1623.087
 119  1424.153
 120  1589.145
 121  1471.554
 122  1414.214
 123  1284.521
 124  1754.627
 125  1792.546
 126  1858.395
 127  1642.743
 128  1497.672
 129  1513.013
 130  1446.428
 131  1468.361
 132  1606.172
 133  1545.938
 134  1342.965
 135  1511.169
 136  1645.922
 137  1708.71
 138  1548.166
 139  1561.335
 140  1553.275
 141  1974.54
 142  1823.887
 143  1794.38
 144  1716.592
 145  1589.425
 146  1648.118
 147  1648.057
 148  1663.858
 149  1632.508
 150  1566.649
 151  1430.789
 152  1528.431
 153  1292.015
 154  1623.501
 155  1418.528
 156  1546.065
 157  1468.313
 158  1428.67
 159  1419.703
 160  1435.485
 161  1564.58
 162  1497.2
 163  1784.716
 164  1718.009
 165  1476.009
 166  1584.054
 167  1802.462
 168  2119.05
 169  1760.363
 170  1517.332
 171  1678.553
 172  1851.574
 173  1762.297
 174  1462.846
 175  1252.524
 176  1392.426
 177  1774.679
 178  1978.886
 179  1754.004
 180  1566.227
 181  1957.145
 182  1870.408
 183  1856.088
 184  2103.945
 185  2570.605
 186  2789.545
 187  2755.897
 188  2996.398
 189  3099.583
 190  2467.091
 191  1610.209
 192  1534.05
 193  1846.352
 194  1499.725
 195  1427.13
 196  1632.345
 197  1755.448
 198  1621.376
 199  1754.675
 200  1910.759
 201  1799.302
 202  1602.152
 203  1668.073
 204  1924.143
 205  1824.971
 206  1640.8
 207  1618.516
 208  1694.236
 209  1455.891
 210  1521.851
 211  1477.678
 212  1190.159
 213  1229.093
 214  1489.5
 215  1421.472
 216  1220.364
 217  1191.21
 218  1398.817
 219  1391.515
 220  1393.471
 221  1437.672
 222  1359.639
 223  1315.471
 224  1336.943
 225  1525.718
 226  1691.975
 227  1549.163
 228  1549.837
 229  1735.082
 230  1929.692
 231  1560.36
 232  1350.74
 233  1630.423
 234  1622.598
 235  1625.886
 236  1800.314
 237  1961.445
 238  1640.534
 239  1687.453
 240  1605.381
 241  1433.147
 242  1513.675
 243  1821.14
 244  1761.164
 245  1799.701
 246  1775.424
 247  1655.613
 248  1660.705
 249  1694.637
 250  1720.207
 251  1756.569
 252  1828.647
 253  1685.452
 254  1572.778
 255  1428.826
 256  1677.981
 257  1958.875
 258  2057.117
 259  1811.05
 260  1727.723
 261  1688.21
 262  1619.875
 263  1574.25
 264  1703.382
 265  1946.3
 266  1877
 267  1825.45
 268  1720.869
 269  1853.964
 270  1635.696
 271  1659.266
 272  1824.996
 273  1762.246
 274  1607.509
 275  1474.105
 276  1924.449
 277  1765.872
 278  1566.463
 279  1615.995
 280  1772.284
 281  1886.309
 282  1491.385
 283  1596.234
 284  1761.106
 285  1600.073
 286  1603.137
 287  1780.458
 288  1571.889
 289  1340.323
 290  1397.755
 291  1374.68
 292  1384.336
 293  1289.431
 294  1678.621
 295  1535.188
 296  1761.243
 297  1591.628
 298  1674.705
 299  1513.044
 300  1244.062
 301  1301.741
 302  1540.107
 303  1488.322
 304  1767.217
 305  1608.444
 306  1655.469
 307  1696.135
 308  1626.975
 309  1439.884
 310  1668.293
 311  2008.947
 312  1853.713
 313  1801.437
 314  1648.621
 315  1793.026
 316  1713.392
 317  1579.08
 318  1369.04
 319  1507.029
 320  1541.792
 321  1390.547
 322  1302.112
 323  1651.354
 324  1641.332
 325  1508.833
 326  1570.739
 327  1366.205
 328  1491.23
 329  1609.604
 330  1754.572
 331  1583.698
 332  1578.958
 333  1487.261
 334  1592.13
 335  1430.313
 336  1383.397
 337  1540.205
 338  1670.712
 339  1650.794
 340  1557.44
 341  1484.77
 342  1772.427
 343  1660.775
 344  1743.649
 345  1637.498
 346  1790.311
 347  1637.926
 348  1446.31
 349  1490.661
 350  1367.719
 351  1366.474
 352  1477.605
 353  1443.178
 354  1389.179
 355  1365.521
 356  1460.755
 357  1498.237
 358  1446.86
 359  1436.904
 360  1477.085
 361  1336.432
 362  1233.788
 363  1286.616
 364  1377.854
 365  1544.848
 366  1435.302
 367  1624.897
 368  1593.752
 369  1034.176
 370  1000.899
 371  1392.786
 372  1675.763
 373  1788.581
 374  1505.686
 375  1112.976
 376  1401.863
 377  1343.954
 378  1570.234
 379  1554.957
 380  1491.891
 381  1604.253
 382  1630.334
 383  1796.587
 384  1828.405
 385  1733.612
 386  1748.724
 387  1982.608
 388  2043.021
 389  1982.172
 390  1796.908
 391  1988.206
 392  1804.226
 393  1565.284
 394  1484.569
 395  2077.525
 396  1954.866
 397  1808.78
 398  2082.471
 399  1960.506
 400  1888.327
 401  1794.991
 402  2051.394
 403  2025.365
 404  1842.665
 405  1923.097
 406  1954.149
 407  1641.972
 408  1639.115
 409  1750.604
 410  2160.804
 411  2168.02
 412  1729.62
 413  1791.82
 414  2023.975
 415  1809.764
 416  1926.82
 417  2016.707
 418  1995.913
 419  1740.087
 420  1793.658
 421  1740.859
 422  1546.259
 423  1432.1
 424  1531.238
 425  1659.284
 426  1704.662
 427  1941.049
 428  1776.452
 429  1723.654
 430  1802.252
 431  1958.878
 432  2113.271
 433  1923.026
 434  1950.347
 435  1798.535
 436  1680.592
 437  1616.35
 438  1471.836
 439  1526.909
 440  1886.623
 441  1918.457
 442  1848.053
 443  1565.171
 444  1617.793
 445  1651.153
 446  1879.426
 447  2285.517
 448  2099.16
 449  1768.021
 450  1453.064
 451  1690.704
 452  1840.609
 453  1537.406
 454  1490.062
 455  1576.69
 456  1750.726
 457  1783.017
 458  1492.723
 459  1210.706
 460  1275.18
 461  1621.608
 462  1279.603
 463  1279.948
 464  1440.521
 465  1618.657
 466  1473.859
 467  1095.109
 468  1348.227
 469  1750.562
 470  1575.658
 471  1599.58
 472  1643.361
 473  1565.216
 474  1695.33
 475  2013.123
 476  1832.366
 477  1739.974
 478  1654.691
 479  1959.232
 480  1518.205
 481  1435.929
 482  1803.871
 483  1649.698
 484  1538.518
 485  1545.332
 486  1559.079
 487  1706.448
 488  1454.667
 489  1585.732
 490  1594.465
 491  1448.72
 492  1496.501
 493  1490.012
 494  1649.567
 495  1289.918
 496  1473.535
 497  1807.873
 498  1520.362
 499  1546.743
 500  1426.395
 501  1375.507
 502  1857.245
 503  1757.683
 504  1899.696
 505  1629.659
 506  1427.396
 507  1412.272
 508  1308.008
 509  1535.878
 510  1378.973
 511  1495.99
