# Input file       =  1180093266.106979_cleaned.dat
# Candidate        =  PSR_0332+5434
# Telescope        =  AR
# Epoch_topo       =  57902.487096145589
# Epoch_bary       =  N/A
# T_sample         =  0.002
# Data Folded      =  7340032
# Data Avg         =  0.106249306340552
# Data StdDev      =  3.21879331677423 
# Profile Bins     =  512
# Profile Avg      =  1523.21979465306 
# Profile StdDev   =  385.395897286621 
# Reduced chi-sqr  =  0.848
# Prob(Noise)      <  0.994   (~0.0 sigma)
# P_topo (ms)      =  714.519381937291  +/- 0.000648
# P'_topo (s/s)    =  -0                +/- 3.42e-10
# P''_topo (s/s^2) =  0                 +/- 1.51e-13
# P_bary (ms)      =  N/A
# P'_bary (s/s)    =  N/A
# P''_bary (s/s^2) =  N/A
# P_orb (s)        =  N/A
# asin(i)/c (s)    =  N/A
# eccentricity     =  N/A
# w (rad)          =  N/A
# T_peri           =  N/A
######################################################
   0  1711.096
   1  1561.68
   2  1308.962
   3  1694.508
   4  1818.043
   5  1805.87
   6  1948.772
   7  1626.069
   8  1498.69
   9  1893.452
  10  1807.495
  11  1455.633
  12  1809.774
  13  1849.848
  14  1645.768
  15  1636.751
  16  1720.344
  17  1674.209
  18  1973.822
  19  1935.502
  20  1685.282
  21  1737.868
  22  1875.049
  23  1987.861
  24  1787.341
  25  1817.041
  26  1806.271
  27  1701.821
  28  1580.408
  29  1525.028
  30  1619.963
  31  1274.383
  32  1581.009
  33  1564.83
  34  1313.994
  35  1341.866
  36  1439.85
  37  1494.708
  38  1389.051
  39  1501.496
  40  1500.631
  41  1511.775
  42  1468.051
  43  1440.969
  44  1028.705
  45  1581.837
  46  1839.537
  47  1326.054
  48  1285.766
  49  1617.286
  50  1642.115
  51  1415.726
  52  1467.987
  53  1784.024
  54  1425.201
  55  1040.621
  56  1365.887
  57  1341.382
  58  1147.738
  59  929.9112
  60  866.9545
  61  1231.436
  62  1340.999
  63  1319.417
  64  1527.832
  65  1109.334
  66  852.1024
  67  1062.375
  68  976.2097
  69  1284.061
  70  951.0311
  71  1150.89
  72  1006.485
  73  1332.987
  74  1636.495
  75  1406.984
  76  1392.023
  77  1565.865
  78  1559.279
  79  1676.45
  80  1470.737
  81  1804.113
  82  1664.235
  83  1430.237
  84  1289.798
  85  1321.226
  86  1160.932
  87  1765.883
  88  1696.246
  89  1863.5
  90  1621.829
  91  1879.966
  92  1553.53
  93  1493.809
  94  2012.607
  95  1736.353
  96  1633.68
  97  1738.978
  98  1293.375
  99  1669.024
 100  1642.859
 101  1405.07
 102  1378.964
 103  1066.628
 104  1124.335
 105  1266.642
 106  1282.247
 107  1288.802
 108  1395.828
 109  1443.853
 110  1198.496
 111  1329.592
 112  1115.82
 113  1208.073
 114  1275.459
 115  1348.205
 116  1823.508
 117  1836.816
 118  1941.271
 119  1813.346
 120  1611.027
 121  1555.156
 122  1375.451
 123  1166.003
 124  1534.201
 125  1734.141
 126  1655.243
 127  1845.101
 128  1645.972
 129  1583.022
 130  1476.867
 131  1453.359
 132  1607.994
 133  1415.011
 134  1603.906
 135  1538.545
 136  1495.043
 137  1446.554
 138  1362.522
 139  1240.24
 140  1580.59
 141  1571.873
 142  1201.626
 143  1323.497
 144  1614.078
 145  1634.34
 146  1761.875
 147  1949.824
 148  1793.54
 149  1850.524
 150  1449.041
 151  1364.972
 152  1589.065
 153  1326.522
 154  1461.492
 155  1506.474
 156  1466.01
 157  1223.741
 158  1381.523
 159  1504.325
 160  1320.947
 161  1024.367
 162  1169.402
 163  1527.435
 164  1602.251
 165  1347.922
 166  1344.584
 167  1125.192
 168  1379.562
 169  1175.309
 170  1633.975
 171  1684.846
 172  1644.199
 173  1539.131
 174  1616.887
 175  1373.738
 176  1904.585
 177  1704.435
 178  1532.762
 179  1597.381
 180  1739.667
 181  1619.137
 182  1758.721
 183  1940.418
 184  1744.355
 185  1265.48
 186  1326.511
 187  1591.764
 188  1793.249
 189  1845.002
 190  1785.427
 191  1698.568
 192  1528.978
 193  1409.743
 194  1747.787
 195  1787.791
 196  1889.788
 197  1761.989
 198  1868.349
 199  2032.174
 200  1899.85
 201  1650.271
 202  1578.965
 203  1788.631
 204  2080.497
 205  1525.431
 206  1381.252
 207  1133.593
 208  1104.666
 209  1251.396
 210  1297.079
 211  1704.149
 212  1901.576
 213  1813.253
 214  1640.124
 215  1652.536
 216  1388.951
 217  1470.984
 218  1677.746
 219  1577.366
 220  1624.223
 221  1128.397
 222  1389.119
 223  1491.898
 224  1613.196
 225  1399.829
 226  1497.875
 227  1632.521
 228  1473.989
 229  1335.949
 230  1388.771
 231  1469.149
 232  1594.751
 233  1539.608
 234  1140.027
 235  1462.993
 236  1550.294
 237  1543.732
 238  1383.503
 239  1427.88
 240  1483.275
 241  1337.134
 242  1732.721
 243  1723.71
 244  1660.587
 245  1643.157
 246  1507.002
 247  1451.888
 248  1553.39
 249  1603.942
 250  1821.266
 251  1484.036
 252  1745.642
 253  1641.966
 254  1473.785
 255  1219.991
 256  1536.59
 257  1760.307
 258  1451.207
 259  1269.857
 260  1854.786
 261  1889.151
 262  1608.492
 263  1829.235
 264  1740.581
 265  1594.914
 266  1389.572
 267  1592.832
 268  1854.475
 269  1769.425
 270  2016.811
 271  1790.522
 272  1967.615
 273  1886.781
 274  1745.545
 275  1937.058
 276  1903.781
 277  1432.969
 278  1457.215
 279  1894.951
 280  1864.104
 281  1919.108
 282  1605.654
 283  1603.193
 284  1629.483
 285  1537.499
 286  1219.886
 287  1149.184
 288  1602.205
 289  1396.726
 290  1427.016
 291  1614.606
 292  1634.385
 293  1425.735
 294  1645.53
 295  1329.79
 296  1444.106
 297  1447.119
 298  1367.452
 299  1375.261
 300  1107.725
 301  1137.015
 302  1274.586
 303  1396.069
 304  1383.33
 305  1400.128
 306  1202.243
 307  1297.943
 308  1247.357
 309  1431.175
 310  1419.154
 311  1402.701
 312  1537.013
 313  1498.731
 314  1742.956
 315  1454.424
 316  1329.551
 317  1112.51
 318  967.3771
 319  1366.095
 320  1586.158
 321  1239.98
 322  1522.955
 323  1589.54
 324  1623.903
 325  1743.34
 326  2114.368
 327  2540.754
 328  2755.672
 329  2546.751
 330  2244.948
 331  2380.316
 332  2050.221
 333  1768.915
 334  1479.485
 335  1712.938
 336  1761.632
 337  1854.494
 338  1901.865
 339  1703.308
 340  1676.644
 341  2007.875
 342  2009.583
 343  1995.649
 344  1587.351
 345  1604.13
 346  1583.208
 347  1793.767
 348  1755.968
 349  1806.638
 350  1684.023
 351  1618.529
 352  1826.626
 353  1725.103
 354  1527.344
 355  1863.05
 356  1652.455
 357  1348.745
 358  1338.6
 359  1617.869
 360  1682.038
 361  1564.883
 362  1529.584
 363  1597.949
 364  1613.863
 365  1494.416
 366  1327.323
 367  1180.408
 368  1197.673
 369  1831.805
 370  1740.111
 371  1664.737
 372  1772.8
 373  1878.688
 374  1864.887
 375  1479.626
 376  1307.006
 377  1564.391
 378  1488.858
 379  1554.724
 380  1477.296
 381  1320.8
 382  1310.434
 383  1298.663
 384  1596.401
 385  1682.919
 386  1598.331
 387  1581.71
 388  1414.926
 389  1604.482
 390  1287.532
 391  875.1911
 392  1147.399
 393  1490.5
 394  1435.106
 395  1504.564
 396  1322.403
 397  1226.687
 398  1185.491
 399  1305.489
 400  1229.563
 401  1386.622
 402  1104.142
 403  1179.576
 404  1154.83
 405  1305.17
 406  1642.695
 407  1596.643
 408  1191.472
 409  1071.161
 410  1255.953
 411  1121.408
 412  1445.847
 413  1551.643
 414  1560.902
 415  1583.973
 416  1513.146
 417  1494.186
 418  1182.631
 419  1332.464
 420  1230.87
 421  1193.014
 422  856.9927
 423  1239.154
 424  1245.882
 425  1245.645
 426  1215.338
 427  1761.141
 428  1661.873
 429  1396.681
 430  1709.184
 431  1232.099
 432  1564.284
 433  1419.324
 434  1554.945
 435  1315.929
 436  1533.885
 437  1355.301
 438  1100.902
 439  1549.169
 440  1751.835
 441  1494.124
 442  1599.937
 443  1799.215
 444  1267.654
 445  1358.267
 446  1691.138
 447  1527.345
 448  1492.283
 449  1384.307
 450  1620.279
 451  1648.553
 452  1567.464
 453  1764.8
 454  1657.092
 455  1877.308
 456  1848.667
 457  1437.286
 458  1609.57
 459  1505.388
 460  1488.311
 461  1331.872
 462  1239.244
 463  1471.865
 464  1527.769
 465  1835.482
 466  1680.564
 467  1552.101
 468  1855.618
 469  1825.331
 470  1837.846
 471  1399.838
 472  1488.995
 473  1580.235
 474  1581.015
 475  1480.149
 476  1534.041
 477  1229.326
 478  1297.651
 479  1652.721
 480  1435.233
 481  1156.145
 482  1372.732
 483  1436.653
 484  1308.689
 485  1116.301
 486  1471.268
 487  1703.988
 488  1558.032
 489  1282.92
 490  878.1484
 491  902.6485
 492  1101.204
 493  1455.39
 494  1344.282
 495  1393.22
 496  1309.97
 497  1423.14
 498  1292.488
 499  1370.385
 500  1556.593
 501  1209.158
 502  1372.767
 503  1554.731
 504  1533.44
 505  1550.956
 506  1134.967
 507  1406.861
 508  1485.034
 509  1280.593
 510  1349.665
 511  1723.906
