# Input file       =  1180753068.109029_cleaned.dat
# Candidate        =  PSR_0332+5434
# Telescope        =  AR
# Epoch_topo       =  57910.123693391542
# Epoch_bary       =  N/A
# T_sample         =  0.002
# Data Folded      =  7143424
# Data Avg         =  0.164592731493064
# Data StdDev      =  4.83285800919957 
# Profile Bins     =  1024
# Profile Avg      =  1148.1853752147  
# Profile StdDev   =  403.652151440694 
# Reduced chi-sqr  =  0.533
# Prob(Noise)      <  1   (~0.0 sigma)
# P_topo (ms)      =  714.511606298292  +/- 2.8e-05
# P'_topo (s/s)    =  -0                +/- 1.52e-11
# P''_topo (s/s^2) =  0                 +/- 6.89e-15
# P_bary (ms)      =  N/A
# P'_bary (s/s)    =  N/A
# P''_bary (s/s^2) =  N/A
# P_orb (s)        =  N/A
# asin(i)/c (s)    =  N/A
# eccentricity     =  N/A
# w (rad)          =  N/A
# T_peri           =  N/A
######################################################
   0  1250.272
   1  1276.654
   2  1349.667
   3  1499.033
   4  1574.499
   5  1481.127
   6  1215.093
   7  1141.353
   8  1029.705
   9  1226.992
  10  1333.309
  11  1220.817
  12  1082.965
  13  1198.974
  14  1280.912
  15  1288.565
  16  1151.911
  17  1197.364
  18  1287.828
  19  1412.117
  20  1381.347
  21  1124.484
  22  1031.083
  23  1145.349
  24  1217.482
  25  1172.114
  26  1081.64
  27  1185.774
  28  1245.357
  29  1205.586
  30  1116.513
  31  1206.546
  32  1260.431
  33  1258.157
  34  1184.534
  35  1091.022
  36  1155.297
  37  1312.707
  38  1223.967
  39  886.6345
  40  796.0147
  41  1034.101
  42  1182.086
  43  1075.956
  44  1045.841
  45  1112.347
  46  1240.462
  47  1138.349
  48  1048.729
  49  1136.487
  50  1237.388
  51  1390.447
  52  1481.366
  53  1314.543
  54  987.3754
  55  1055.718
  56  1369.864
  57  1414.155
  58  1309.818
  59  1322.457
  60  1356.225
  61  1229.498
  62  1011.622
  63  931.6324
  64  1033.483
  65  1178.077
  66  1345.811
  67  1361.367
  68  1386.399
  69  1418.349
  70  1369.857
  71  1196.93
  72  1059.074
  73  1063.42
  74  1098.831
  75  1000.628
  76  963.9227
  77  971.7235
  78  1046.236
  79  1139.387
  80  1181.887
  81  1064.306
  82  1012.078
  83  1162.822
  84  1325.92
  85  1230.632
  86  1072.589
  87  1044.07
  88  1212.944
  89  1105.725
  90  927.1375
  91  905.0118
  92  1037.978
  93  1106.313
  94  1087.605
  95  978.9719
  96  975.8234
  97  1043.909
  98  1180.057
  99  1145.952
 100  1128.734
 101  1324.195
 102  1376.417
 103  1269.434
 104  1057.182
 105  1011.194
 106  987.7668
 107  1035.88
 108  934.3126
 109  1040.691
 110  1170.521
 111  1299.552
 112  1147.481
 113  1019.509
 114  987.5862
 115  1229.669
 116  1422.259
 117  1407.673
 118  1195.098
 119  1127.284
 120  1180.124
 121  1113.72
 122  1004.609
 123  967.8066
 124  983.5496
 125  1041.224
 126  1098.599
 127  1075.841
 128  1137.217
 129  1123.948
 130  1251.989
 131  1303.484
 132  1318.258
 133  1366.338
 134  1453.725
 135  1401.339
 136  1140.525
 137  1133.347
 138  1168.82
 139  1127.536
 140  1004.281
 141  885.908
 142  937.4575
 143  1081.012
 144  1165.399
 145  1104.51
 146  1113.241
 147  1272.37
 148  1428.349
 149  1483.26
 150  1468.431
 151  1444.58
 152  1405.351
 153  1395.493
 154  1154.071
 155  902.147
 156  807.7108
 157  924.59
 158  1151.068
 159  1102.185
 160  1179.764
 161  1299.448
 162  1312.104
 163  1119.658
 164  1051.297
 165  1098.705
 166  1173.835
 167  1230.826
 168  1220.293
 169  987.5312
 170  971.3843
 171  1039.912
 172  1130.567
 173  1077.097
 174  1051.679
 175  1107.646
 176  1214.26
 177  1064.386
 178  905.3626
 179  915.6826
 180  1098.975
 181  1077.673
 182  1052.67
 183  940.5238
 184  1002.873
 185  1164.17
 186  1349.11
 187  1030.059
 188  920.8738
 189  938.663
 190  1175.44
 191  1163.868
 192  1033.851
 193  1094.782
 194  1108.734
 195  1024.058
 196  905.7098
 197  908.3328
 198  1055.64
 199  1103.678
 200  1176.301
 201  1162.349
 202  1090.341
 203  1037.911
 204  1193.375
 205  1186.292
 206  1137.709
 207  1133.965
 208  1219.076
 209  1111.795
 210  818.8902
 211  751.0333
 212  877.7733
 213  1099.776
 214  1152.459
 215  1152.806
 216  1136.427
 217  1133.459
 218  1182.577
 219  1103.897
 220  884.2712
 221  925.5109
 222  1139.126
 223  1243.964
 224  995.9606
 225  1071.588
 226  1212.036
 227  1239.934
 228  1101.723
 229  1091.926
 230  1101.624
 231  1185.64
 232  1171.168
 233  1228.613
 234  1222.855
 235  1291.688
 236  1301.346
 237  1288.998
 238  1122.775
 239  1184.323
 240  1274.971
 241  1289.616
 242  1193.105
 243  1188.086
 244  1261.209
 245  1183.945
 246  1075.059
 247  1045.405
 248  1111.841
 249  1403.51
 250  1485.356
 251  1372.007
 252  1125.654
 253  1003.248
 254  1037.888
 255  1134.547
 256  1228.371
 257  1230.542
 258  1380.796
 259  1327.384
 260  1213.903
 261  1121.985
 262  1081.746
 263  1136.026
 264  1182.359
 265  1193.461
 266  1144.997
 267  1172.606
 268  1135.324
 269  1079.356
 270  1087.859
 271  1084.641
 272  1152.896
 273  1228.394
 274  1188.756
 275  1083.832
 276  1144.815
 277  1344.206
 278  1283.663
 279  1249.219
 280  1275.886
 281  1437.087
 282  1398.499
 283  1253.27
 284  1004.116
 285  994.2865
 286  1134.693
 287  1271.314
 288  1152.025
 289  929.4457
 290  916.101
 291  1108.13
 292  1133.553
 293  982.0844
 294  877.7178
 295  1074.39
 296  1173.924
 297  1198.693
 298  1182.693
 299  1253.447
 300  1236.14
 301  1326.361
 302  1280.154
 303  1207.98
 304  1097.64
 305  1046.038
 306  1035.23
 307  857.4557
 308  798.0061
 309  938.172
 310  1108.962
 311  965.3116
 312  929.6592
 313  1085.337
 314  1281.731
 315  1249.594
 316  1300.381
 317  1253.316
 318  1113.963
 319  1114.448
 320  1128.379
 321  890.9659
 322  738.3763
 323  975.2429
 324  1221.032
 325  1156.394
 326  985.7394
 327  1039.467
 328  1215.49
 329  1190.9
 330  1199.118
 331  1358.841
 332  1471.35
 333  1360.418
 334  1288.8
 335  1108.731
 336  1028.48
 337  1077.704
 338  1188.475
 339  1101.917
 340  1048.75
 341  1127.939
 342  1195.886
 343  990.0102
 344  867.1089
 345  899.2438
 346  1282.4
 347  1450.598
 348  1389.799
 349  1178.766
 350  1066.479
 351  1242.765
 352  1468.228
 353  1344.27
 354  998.8512
 355  1031.129
 356  1153.007
 357  1088.428
 358  914.5136
 359  875.5109
 360  1001.971
 361  1125.027
 362  1121.112
 363  1031.806
 364  1040.277
 365  1169.812
 366  1315.262
 367  1435.694
 368  1345.38
 369  1155.678
 370  1006.8
 371  976.3665
 372  880.0804
 373  1042.945
 374  1243.721
 375  1202.414
 376  1010.809
 377  975.4311
 378  1086.894
 379  1204.966
 380  1236.86
 381  1226.221
 382  1181.694
 383  1236.304
 384  1285.691
 385  1266.646
 386  1033.596
 387  974.4088
 388  1218.215
 389  1238.473
 390  1252.332
 391  1111.298
 392  1226.604
 393  1116.173
 394  1122.32
 395  1081.108
 396  1251.696
 397  1443.546
 398  1507.675
 399  1281.398
 400  1092.704
 401  1094.152
 402  1169.926
 403  1095.542
 404  1151.34
 405  1205.576
 406  1345.379
 407  1309.647
 408  1150.101
 409  1060.128
 410  1156.274
 411  1335.926
 412  1306.894
 413  1287.907
 414  1125.318
 415  1256.81
 416  1296.414
 417  1286.5
 418  1187.689
 419  1215.91
 420  1238.67
 421  1257.803
 422  1256.594
 423  1240.062
 424  1084.47
 425  1156.024
 426  1144.367
 427  1127.316
 428  1181.089
 429  1269.493
 430  1335.472
 431  1249.064
 432  1242.242
 433  1251.596
 434  1237.681
 435  1070.607
 436  958.6782
 437  1131.627
 438  1099.425
 439  1099.646
 440  1099.878
 441  1114.125
 442  1031.578
 443  1131.127
 444  1316.205
 445  1182.549
 446  1099.706
 447  1227.312
 448  1414.199
 449  1216.419
 450  934.2769
 451  764.07
 452  789.2637
 453  818.6213
 454  806.5442
 455  912.81
 456  1032.549
 457  1110.708
 458  1143.402
 459  956.3907
 460  907.7987
 461  1124.385
 462  1291.307
 463  1171.234
 464  1073.303
 465  1149.196
 466  1168.98
 467  1076.441
 468  927.1317
 469  917.8196
 470  1091.657
 471  1222.663
 472  1169.98
 473  912.2875
 474  778.4064
 475  971.4744
 476  1196.518
 477  1155.615
 478  982.5704
 479  1126.692
 480  1271.667
 481  1297.319
 482  1151.22
 483  1172.338
 484  1164.694
 485  1248.637
 486  1217.639
 487  1080.191
 488  879.203
 489  893.696
 490  927.264
 491  1014.654
 492  974.262
 493  1114.747
 494  1199.252
 495  1163.694
 496  1087.847
 497  1175.87
 498  1379.39
 499  1314.953
 500  1200.547
 501  1160.439
 502  1109.724
 503  1096.742
 504  1004.035
 505  815.2276
 506  773.9341
 507  1014.632
 508  1341.808
 509  1341.508
 510  1173.195
 511  1174.813
 512  1284.584
 513  1418.585
 514  1351.634
 515  1332.018
 516  1319.919
 517  1346.349
 518  1336.06
 519  1289.952
 520  1159.721
 521  1212.211
 522  1230.911
 523  1198.786
 524  1037.309
 525  1019.695
 526  996.3777
 527  1052.522
 528  1205.705
 529  1281.053
 530  1273.215
 531  1359.989
 532  1269.657
 533  1161.723
 534  1107.286
 535  1202.408
 536  1262.109
 537  1201.593
 538  1190.37
 539  1192.571
 540  1161.489
 541  980.2321
 542  816.6772
 543  878.5126
 544  1130.022
 545  1349.983
 546  1467.469
 547  1324.713
 548  1195.872
 549  1260.301
 550  1427.918
 551  1257.879
 552  1170.72
 553  1133.492
 554  1294.909
 555  1323.657
 556  1356.985
 557  1331.677
 558  1295.729
 559  1109.438
 560  997.2362
 561  1039.357
 562  1106.48
 563  1178.047
 564  1296.326
 565  1232.201
 566  1146.816
 567  1175.377
 568  1286.697
 569  1162.82
 570  1064.618
 571  1098.51
 572  1133.824
 573  1109.133
 574  1063.711
 575  1054.076
 576  1184.706
 577  1275.862
 578  1338.894
 579  1151.159
 580  1018.052
 581  1032.531
 582  1316.79
 583  1293.162
 584  1127.408
 585  1084.715
 586  1205.821
 587  1202.938
 588  1310.65
 589  1259.127
 590  1150.729
 591  1030.007
 592  972.1505
 593  1022.833
 594  959.9796
 595  1036.577
 596  1107.709
 597  1116.756
 598  1072.959
 599  951.1235
 600  865.9391
 601  753.4092
 602  731.3814
 603  799.8723
 604  934.4713
 605  963.4844
 606  1018.728
 607  976.904
 608  870.7062
 609  935.354
 610  1218.714
 611  1294.849
 612  1243.339
 613  1229.052
 614  1363.83
 615  1231.455
 616  1151.674
 617  951.1436
 618  961.3559
 619  904.6383
 620  947.3858
 621  884.4058
 622  874.7239
 623  848.6367
 624  916.3024
 625  935.1401
 626  942.407
 627  1053.781
 628  1292.113
 629  1347.405
 630  1320.888
 631  1437.636
 632  1427.014
 633  1316.312
 634  1155.903
 635  991.0307
 636  871.213
 637  931.955
 638  899.2511
 639  922.0718
 640  891.5975
 641  1083.565
 642  1145.519
 643  1174.209
 644  987.2104
 645  868.6436
 646  1054.443
 647  1271.038
 648  1272.47
 649  1233.094
 650  1150.849
 651  1075.791
 652  977.814
 653  863.306
 654  844.1591
 655  964.8802
 656  1037.824
 657  995.2056
 658  973.5013
 659  848.5667
 660  895.3234
 661  1048.439
 662  1192.488
 663  1251.85
 664  1313.615
 665  1274.351
 666  1102.03
 667  961.6516
 668  962.6369
 669  985.8938
 670  1047.691
 671  965.4069
 672  921.9619
 673  1030.743
 674  1224.451
 675  1180.18
 676  1246.169
 677  1269.828
 678  1257.396
 679  1225.429
 680  1220.074
 681  1119.498
 682  1090.53
 683  1173.246
 684  1116.638
 685  902.435
 686  751.3522
 687  872.9407
 688  996.8565
 689  969.9531
 690  944.346
 691  1027.183
 692  1105.287
 693  1079.063
 694  1058.347
 695  1138.981
 696  1216.511
 697  1402.626
 698  1334.788
 699  1079.815
 700  930.0081
 701  1068.561
 702  1222.77
 703  1107.539
 704  1037.691
 705  1050.188
 706  1149.364
 707  1102.373
 708  911.9572
 709  928.1124
 710  987.4067
 711  1198.246
 712  1226.476
 713  1137.091
 714  1021.964
 715  1110.074
 716  1381.808
 717  1393.122
 718  1159.001
 719  1078.845
 720  1202.329
 721  1201.683
 722  1187.673
 723  1174.636
 724  1105.225
 725  1159.947
 726  1173.728
 727  1180.866
 728  1197.438
 729  1236.854
 730  1440.256
 731  1396.311
 732  1309.53
 733  1126.069
 734  1212.53
 735  1053.54
 736  1094.019
 737  1127.444
 738  1210.977
 739  1129.574
 740  1079.268
 741  1126.193
 742  1195.958
 743  1381.338
 744  1557.299
 745  1514.214
 746  1413.982
 747  1364.796
 748  1334.311
 749  1322.031
 750  1284.6
 751  1444.57
 752  1532.202
 753  1590.81
 754  1559.414
 755  1736.291
 756  1796.774
 757  1800.809
 758  1837.504
 759  1820.275
 760  1807.556
 761  1748.636
 762  1516.958
 763  1105.861
 764  990.3724
 765  1091.368
 766  1204.206
 767  1125.936
 768  965.5016
 769  879.4545
 770  902.7033
 771  1128.156
 772  1139.953
 773  1189.034
 774  1162.408
 775  1143.203
 776  1211.229
 777  1183.119
 778  1098.258
 779  1109.646
 780  1132.59
 781  1143.697
 782  1000.326
 783  871.524
 784  1067.366
 785  1116.563
 786  1172.222
 787  942.3527
 788  1045.489
 789  1046.361
 790  1055.601
 791  1047.783
 792  952.5056
 793  892.1916
 794  945.3179
 795  1099.373
 796  1106.573
 797  1029.063
 798  1045.589
 799  1095.501
 800  941.8832
 801  855.9327
 802  1020.479
 803  1221.977
 804  1215.658
 805  926.5297
 806  936.3467
 807  1085.004
 808  1215.559
 809  1224.667
 810  1193.776
 811  1097.37
 812  1004.701
 813  967.4772
 814  952.544
 815  1054.178
 816  1251.529
 817  1358.655
 818  1229.66
 819  992.7158
 820  904.1042
 821  1043.42
 822  1094.818
 823  1133.632
 824  1125.987
 825  1325.375
 826  1249.875
 827  1180.882
 828  1221.939
 829  1288.135
 830  1253.712
 831  1303.128
 832  1297.599
 833  1165.642
 834  1054.255
 835  1134.752
 836  1148.544
 837  914.5311
 838  879.0286
 839  1036.62
 840  1335.963
 841  1207.306
 842  1055.508
 843  1200.477
 844  1450.873
 845  1519.508
 846  1385.569
 847  1156.969
 848  1034.904
 849  1134.416
 850  1253.893
 851  1053.842
 852  933.9899
 853  1023.919
 854  1282.046
 855  1399.492
 856  1355.969
 857  1269.72
 858  1242.164
 859  1314.313
 860  1361.377
 861  1416.583
 862  1307.401
 863  1266.08
 864  1282.434
 865  1156.483
 866  907.3827
 867  1080.485
 868  1312.224
 869  1274.04
 870  1003.023
 871  1057.39
 872  1215.692
 873  1271.885
 874  1131.99
 875  1137.421
 876  1283.599
 877  1389.916
 878  1297.99
 879  1044.178
 880  920.207
 881  972.1313
 882  1114.737
 883  1075.547
 884  1025.352
 885  1218.615
 886  1348.083
 887  1190.662
 888  1109.332
 889  1145.493
 890  1267.635
 891  1212.353
 892  1172.268
 893  1101.194
 894  1254.632
 895  1353.772
 896  1478.208
 897  1386.663
 898  1311.389
 899  1346.698
 900  1339.839
 901  1152.074
 902  858.3608
 903  847.4891
 904  1101.158
 905  1100.246
 906  1059.942
 907  1020.267
 908  1205.582
 909  1387.456
 910  1478.763
 911  1227.305
 912  1113.555
 913  1225.306
 914  1410.823
 915  1235.193
 916  899.138
 917  892.6179
 918  1153.949
 919  1415.953
 920  1286.292
 921  1087.78
 922  1027.819
 923  1055.753
 924  1149.99
 925  1140.726
 926  1180.184
 927  1200.693
 928  1225.177
 929  1059.738
 930  823.0578
 931  754.0693
 932  923.8121
 933  932.6805
 934  984.9064
 935  927.5344
 936  1057.41
 937  1122.271
 938  1018.84
 939  1016.791
 940  1113.46
 941  1288.951
 942  1227.396
 943  1167.823
 944  1023.492
 945  911.3062
 946  840.1077
 947  787.2682
 948  781.2143
 949  835.3062
 950  1070.967
 951  1221.482
 952  1241.837
 953  953.0023
 954  873.7797
 955  1068.277
 956  1208.468
 957  1098.692
 958  1063.421
 959  1330.591
 960  1344.142
 961  1266.639
 962  1136.086
 963  1078.45
 964  1039.158
 965  916.8638
 966  986.6738
 967  1043.588
 968  1160.655
 969  1209.107
 970  1216.27
 971  1047.99
 972  1005.333
 973  1308.575
 974  1369.378
 975  1152.218
 976  968.5187
 977  1062.389
 978  1116.566
 979  1156.326
 980  1098.643
 981  1022.239
 982  948.8368
 983  1179.806
 984  1234.405
 985  1222.412
 986  1060.193
 987  1194.049
 988  1260.546
 989  1118.442
 990  997.0631
 991  1280.099
 992  1503.373
 993  1512.382
 994  1502.271
 995  1543.055
 996  1414.719
 997  1181.599
 998  1040.177
 999  995.7822
1000  1050.63
1001  1266.081
1002  1386.29
1003  1267.447
1004  1214.575
1005  1171.526
1006  1379.309
1007  1270.794
1008  1244.877
1009  1295.47
1010  1416.203
1011  1509.285
1012  1344.788
1013  1216.495
1014  976.8298
1015  1079.551
1016  1180.728
1017  1136.334
1018  1049.257
1019  1097.498
1020  1201.648
1021  1147.058
1022  1127.759
1023  1186.581
