# Input file       =  1180524139.099545_cleaned.dat
# Candidate        =  PSR_0332+5434
# Telescope        =  AR
# Epoch_topo       =  57907.474052078069
# Epoch_bary       =  N/A
# T_sample         =  0.002
# Data Folded      =  7340032
# Data Avg         =  0.125994822867921
# Data StdDev      =  9.39053611331834 
# Profile Bins     =  1024
# Profile Avg      =  903.144932472577 
# Profile StdDev   =  795.040743469165 
# Reduced chi-sqr  =  0.951
# Prob(Noise)      <  0.869   (~0.0 sigma)
# P_topo (ms)      =  714.514510062705  +/- 0.000579
# P'_topo (s/s)    =  -0                +/- 3.05e-10
# P''_topo (s/s^2) =  0                 +/- 1.35e-13
# P_bary (ms)      =  N/A
# P'_bary (s/s)    =  N/A
# P''_bary (s/s^2) =  N/A
# P_orb (s)        =  N/A
# asin(i)/c (s)    =  N/A
# eccentricity     =  N/A
# w (rad)          =  N/A
# T_peri           =  N/A
######################################################
   0  1683.958
   1  1712.024
   2  1471.61
   3  1489.225
   4  1911.135
   5  2189.791
   6  2132.202
   7  2007.934
   8  1749.708
   9  1616.105
  10  1599.462
  11  1362.883
  12  1243.68
  13  907.0778
  14  753.9603
  15  730.8382
  16  1050.993
  17  1502.185
  18  1764.763
  19  1740.571
  20  1512.93
  21  1219.063
  22  1100.696
  23  970.7994
  24  652.5012
  25  489.4395
  26  608.2957
  27  986.2202
  28  1116.71
  29  940.2523
  30  810.8344
  31  977.5176
  32  947.2476
  33  1150.427
  34  1221.412
  35  1161.3
  36  958.9308
  37  879.4678
  38  922.5818
  39  995.1342
  40  960.8345
  41  1016.788
  42  937.1248
  43  941.3366
  44  944.574
  45  1027.159
  46  1161.833
  47  1307.202
  48  1307.941
  49  1367.411
  50  1293.283
  51  1318.385
  52  1310.813
  53  1145.803
  54  1042.629
  55  1036.563
  56  887.2858
  57  1027.637
  58  864.4683
  59  830.5286
  60  879.1932
  61  982.6929
  62  1023.09
  63  848.4464
  64  849.9352
  65  865.497
  66  577.7776
  67  457.9303
  68  431.1487
  69  645.8985
  70  673.7632
  71  436.6131
  72  286.3624
  73  309.3079
  74  514.6752
  75  511.5508
  76  501.0658
  77  596.6152
  78  623.7415
  79  668.4435
  80  617.0596
  81  650.1124
  82  531.4941
  83  184.851
  84  41.44686
  85  221.7054
  86  288.3493
  87  266.6864
  88  191.2398
  89  177.6971
  90  202.8495
  91  257.1
  92  280.2378
  93  297.1295
  94  766.0063
  95  1045.702
  96  1160.18
  97  902.0815
  98  1050.188
  99  1082.985
 100  1158.306
 101  920.3683
 102  785.4388
 103  912.2662
 104  762.459
 105  864.5921
 106  682.3964
 107  638.2258
 108  488.526
 109  484.8683
 110  451.6228
 111  356.074
 112  280.8204
 113  449.3329
 114  451.3477
 115  535.1395
 116  369.7819
 117  272.6988
 118  171.2792
 119  255.7951
 120  313.0814
 121  366.1646
 122  207.9904
 123  424.2727
 124  428.5611
 125  406.606
 126  413.6742
 127  475.4613
 128  525.4413
 129  591.0854
 130  542.4246
 131  483.8745
 132  536.9073
 133  605.6639
 134  587.6218
 135  283.0167
 136  270.4236
 137  323.2164
 138  409.6231
 139  490.8347
 140  247.5245
 141  -1.562672
 142  -170.8072
 143  59.04468
 144  301.2802
 145  276.7859
 146  267.0652
 147  306.5552
 148  376.6238
 149  311.8769
 150  218.0486
 151  162.2565
 152  106.5898
 153  112.6688
 154  110.2875
 155  86.97864
 156  35.34826
 157  81.74507
 158  134.2412
 159  80.77707
 160  61.07154
 161  -119.6402
 162  7.566479
 163  441.1454
 164  647.4144
 165  621.3787
 166  509.3166
 167  570.7745
 168  497.4584
 169  443.7835
 170  388.9534
 171  22.52217
 172  -158.2592
 173  44.86729
 174  75.41322
 175  79.69365
 176  64.65781
 177  576.4799
 178  481.8503
 179  388.6879
 180  453.4306
 181  567.319
 182  591.1805
 183  570.0526
 184  830.6697
 185  752.889
 186  795.3978
 187  766.7045
 188  750.1142
 189  854.5431
 190  1122.047
 191  1114.325
 192  1149.901
 193  1114.782
 194  1196.05
 195  1306.269
 196  1543.988
 197  1610.222
 198  1195.803
 199  925.8066
 200  635.4936
 201  886.613
 202  924.5055
 203  897.0673
 204  731.9589
 205  527.7369
 206  399.1697
 207  581.3677
 208  928.2911
 209  1023.112
 210  1180.858
 211  1351.889
 212  1451.526
 213  1829.338
 214  1683.94
 215  1633.299
 216  1460.769
 217  1424.985
 218  1694.453
 219  1454.641
 220  1402.342
 221  1204.142
 222  1142.34
 223  1096.822
 224  1072.209
 225  1143.132
 226  1123.315
 227  1456.598
 228  1437.819
 229  1343.938
 230  945.0819
 231  969.1296
 232  948.8425
 233  880.6505
 234  970.7058
 235  949.2974
 236  844.0588
 237  839.9949
 238  882.3127
 239  943.5546
 240  985.7059
 241  890.2198
 242  772.6632
 243  866.915
 244  925.1503
 245  864.6828
 246  818.6421
 247  915.5112
 248  960.9894
 249  979.5936
 250  965.6111
 251  837.6025
 252  672.0153
 253  614.2021
 254  659.4146
 255  812.2139
 256  1269.741
 257  1393.254
 258  1369.555
 259  1144.153
 260  1029.525
 261  1122.423
 262  1294.548
 263  1291.784
 264  1024.511
 265  674.6062
 266  776.5195
 267  815.0975
 268  1039.716
 269  992.9906
 270  1000.869
 271  726.7905
 272  698.7694
 273  621.8903
 274  881.7563
 275  1043.546
 276  955.2643
 277  772.1922
 278  711.3846
 279  878.1159
 280  1099.415
 281  1172.287
 282  1026.456
 283  484.1343
 284  385.5806
 285  621.5928
 286  743.045
 287  759.274
 288  604.3295
 289  743.2955
 290  731.9572
 291  845.4964
 292  978.3422
 293  1091.193
 294  1289.391
 295  1342.98
 296  1312.899
 297  1274.836
 298  1211.418
 299  1200.569
 300  1202.267
 301  1119.226
 302  1077.145
 303  926.1268
 304  824.9762
 305  779.2662
 306  823.9769
 307  999.8699
 308  1183.125
 309  1171.255
 310  1186.284
 311  976.4785
 312  822.7839
 313  851.9413
 314  905.2636
 315  905.1873
 316  948.0081
 317  969.832
 318  1075.5
 319  1016.14
 320  908.3997
 321  850.5748
 322  911.5507
 323  1102.012
 324  1046.572
 325  883.5691
 326  696.8818
 327  692.4061
 328  873.931
 329  893.834
 330  942.2045
 331  678.7083
 332  656.959
 333  635.033
 334  857.1462
 335  917.5018
 336  751.6652
 337  433.1267
 338  472.4611
 339  711.5798
 340  956.6469
 341  823.218
 342  403.7437
 343  167.0571
 344  125.2774
 345  365.0984
 346  553.3109
 347  637.8455
 348  432.6012
 349  440.5938
 350  475.1111
 351  486.2066
 352  434.9467
 353  370.9268
 354  255.1374
 355  121.7513
 356  182.6705
 357  259.877
 358  290.0822
 359  303.0623
 360  345.6647
 361  455.0445
 362  777.3971
 363  852.9148
 364  801.7734
 365  673.2207
 366  695.1251
 367  745.431
 368  748.8298
 369  722.669
 370  618.8079
 371  481.1829
 372  443.6205
 373  578.1187
 374  607.5145
 375  644.1607
 376  401.3868
 377  419.6615
 378  431.5616
 379  452.5122
 380  544.4905
 381  491.0969
 382  476.33
 383  434.6076
 384  501.0233
 385  553.7789
 386  567.5325
 387  577.473
 388  587.662
 389  532.149
 390  718.7637
 391  843.0189
 392  820.337
 393  830.5982
 394  832.6195
 395  901.9657
 396  831.3846
 397  946.2846
 398  892.5804
 399  893.5642
 400  847.2206
 401  859.8757
 402  978.8582
 403  911.8757
 404  756.2644
 405  856.6429
 406  983.9411
 407  912.6913
 408  863.9039
 409  806.7027
 410  821.9822
 411  657.9414
 412  687.2613
 413  704.1193
 414  690.141
 415  538.9542
 416  541.4671
 417  693.2675
 418  864.9612
 419  907.2159
 420  934.843
 421  946.4128
 422  996.0695
 423  981.0988
 424  1065.844
 425  1014.662
 426  915.5089
 427  836.878
 428  1296.803
 429  1340.006
 430  1293.078
 431  940.3357
 432  847.7135
 433  770.9293
 434  968.3194
 435  1010.809
 436  1043.577
 437  713.9988
 438  848.5706
 439  746.1349
 440  983.4527
 441  952.1602
 442  1077.305
 443  933.9424
 444  892.8664
 445  814.4141
 446  976.1899
 447  1022.911
 448  1061.809
 449  964.7676
 450  996.3797
 451  1254.397
 452  1499.223
 453  1602.346
 454  1629.627
 455  1501.132
 456  1537.152
 457  1609.732
 458  1664.642
 459  1635.621
 460  1671.765
 461  1568.965
 462  1565.941
 463  1556.377
 464  1622.612
 465  1635.384
 466  1693.723
 467  1808.301
 468  1696.13
 469  1640.82
 470  1582.265
 471  1415.296
 472  1373.355
 473  1516.543
 474  1409.315
 475  1236.621
 476  1151.402
 477  1064.979
 478  951.1172
 479  775.4955
 480  854.6044
 481  830.9439
 482  770.6622
 483  632.851
 484  558.9889
 485  746.9061
 486  741.8502
 487  738.8414
 488  566.2383
 489  595.4033
 490  570.0341
 491  334.1016
 492  442.4201
 493  463.9556
 494  661.3894
 495  658.6518
 496  603.3798
 497  504.7946
 498  404.8616
 499  280.76
 500  228.2729
 501  185.0939
 502  478.8934
 503  745.056
 504  1008.99
 505  850.6903
 506  1060.412
 507  1268.721
 508  1489.167
 509  1322.277
 510  1504.929
 511  1564.849
 512  1397.644
 513  1223.517
 514  1317.582
 515  1358.788
 516  1233.895
 517  1058.135
 518  819.4069
 519  771.2147
 520  854.3621
 521  1193.274
 522  1199.103
 523  1150.503
 524  844.0173
 525  827.1956
 526  831.5386
 527  1004.832
 528  967.4033
 529  967.7474
 530  771.2231
 531  766.951
 532  832.0613
 533  904.515
 534  1234.143
 535  1316.061
 536  1381.743
 537  1196.339
 538  1162.111
 539  1291.522
 540  1224.465
 541  1155.079
 542  944.1809
 543  717.5703
 544  683.5647
 545  765.9483
 546  849.7311
 547  933.7659
 548  969.9293
 549  1056.056
 550  1038.125
 551  1098.223
 552  924.6385
 553  907.4539
 554  803.9196
 555  651.6514
 556  435.9011
 557  528.3657
 558  591.3246
 559  764.5415
 560  882.6171
 561  863.0037
 562  706.5504
 563  634.6672
 564  545.1622
 565  441.5306
 566  597.1232
 567  761.2994
 568  888.5386
 569  988.3888
 570  1004.817
 571  785.1048
 572  610.445
 573  524.1016
 574  351.5323
 575  502.3091
 576  585.0361
 577  766.5675
 578  703.0497
 579  769.9631
 580  661.8403
 581  678.4313
 582  701.3049
 583  492.5713
 584  329.5537
 585  477.6332
 586  843.608
 587  896.8591
 588  686.9056
 589  607.5823
 590  588.2122
 591  686.5873
 592  581.9126
 593  644.0131
 594  708.927
 595  739.3057
 596  541.4677
 597  536.6181
 598  528.3141
 599  492.566
 600  397.6344
 601  342.6975
 602  211.9485
 603  235.4962
 604  342.1538
 605  356.2103
 606  330.4138
 607  293.6055
 608  313.6916
 609  442.7137
 610  458.6671
 611  406.2007
 612  392.3078
 613  497.0759
 614  451.9471
 615  417.4013
 616  330.2289
 617  237.3716
 618  280.8423
 619  305.1554
 620  316.0786
 621  332.7078
 622  499.3029
 623  591.2277
 624  369.1187
 625  297.1283
 626  378.2359
 627  375.0397
 628  297.401
 629  319.2874
 630  418.475
 631  585.0419
 632  641.3532
 633  537.3855
 634  592.5809
 635  613.3254
 636  684.5381
 637  770.3207
 638  566.1402
 639  587.0807
 640  278.8765
 641  519.5244
 642  547.0055
 643  885.0746
 644  1012.444
 645  855.8834
 646  467.9195
 647  179.9681
 648  403.8825
 649  575.0724
 650  657.7313
 651  526.0201
 652  420.4544
 653  416.1266
 654  361.7794
 655  293.4651
 656  228.1178
 657  245.8715
 658  371.8661
 659  433.5818
 660  367.8351
 661  527.6553
 662  578.6772
 663  524.4913
 664  484.4376
 665  564.8629
 666  662.8082
 667  629.7066
 668  502.7865
 669  478.7859
 670  362.074
 671  399.6591
 672  495.7502
 673  635.9742
 674  660.3394
 675  578.231
 676  644.4912
 677  625.1738
 678  680.8436
 679  846.1406
 680  1157.415
 681  976.1473
 682  610.4828
 683  619.3036
 684  472.9322
 685  439.0103
 686  160.1141
 687  252.6635
 688  100.6021
 689  -61.51754
 690  -33.51369
 691  223.5849
 692  460.5265
 693  459.9928
 694  457.0342
 695  569.6174
 696  863.2028
 697  847.3605
 698  830.1785
 699  835.1937
 700  739.9333
 701  482.0904
 702  440.0571
 703  693.4361
 704  953.7551
 705  1094.093
 706  1023.692
 707  934.6418
 708  932.4453
 709  1239.458
 710  1366.794
 711  1373.038
 712  936.3984
 713  885.4008
 714  1078.524
 715  1222.714
 716  1089.331
 717  1013.99
 718  766.9391
 719  665.5846
 720  856.19
 721  1040.479
 722  978.1424
 723  847.313
 724  661.9826
 725  563.0746
 726  710.954
 727  847.8479
 728  870.257
 729  888.3665
 730  754.2405
 731  783.3623
 732  951.0934
 733  1130.69
 734  984.371
 735  649.2065
 736  509.7827
 737  581.2192
 738  840.6522
 739  1161.866
 740  1310.073
 741  1072.239
 742  865.496
 743  961.497
 744  1220.17
 745  1327.242
 746  1110.192
 747  1266.503
 748  1134.374
 749  1365.007
 750  1457.194
 751  1361.857
 752  1313.901
 753  1587.518
 754  2060.463
 755  2251.004
 756  2194.24
 757  2034.807
 758  1869.95
 759  1882.161
 760  2010.555
 761  1841.906
 762  1832.143
 763  1677.002
 764  1578.087
 765  1274.529
 766  1183.102
 767  1166.528
 768  1531.834
 769  1720.032
 770  1835.801
 771  1828.32
 772  1837.027
 773  1613.011
 774  1733.229
 775  2029.466
 776  2092.303
 777  1455.817
 778  1051.375
 779  1044.108
 780  1186.999
 781  1156.033
 782  1094.636
 783  894.9195
 784  846.3548
 785  771.6298
 786  606.7744
 787  483.6938
 788  558.8295
 789  790.7257
 790  968.2152
 791  1185.781
 792  1587.303
 793  1567.863
 794  1355.399
 795  1097.334
 796  1281.35
 797  1256.271
 798  937.5801
 799  731.0658
 800  834.641
 801  830.3329
 802  858.0505
 803  900.654
 804  995.5446
 805  912.8114
 806  826.1477
 807  862.7868
 808  899.4355
 809  1005.01
 810  981.4468
 811  934.6271
 812  846.6227
 813  765.741
 814  693.103
 815  700.7726
 816  812.3146
 817  894.2891
 818  829.8503
 819  735.053
 820  505.2278
 821  444.6191
 822  391.2354
 823  441.645
 824  367.7886
 825  512.5944
 826  548.5455
 827  789.907
 828  743.497
 829  599.294
 830  796.6534
 831  862.1807
 832  974.4701
 833  1108.111
 834  1010.288
 835  758.5698
 836  891.8556
 837  1314.298
 838  1423.691
 839  1534.607
 840  1386.158
 841  1446.861
 842  1318.416
 843  1268.976
 844  981.8254
 845  790.9177
 846  888.9779
 847  1114.732
 848  1354.433
 849  1296.779
 850  1030.893
 851  900.0399
 852  974.1871
 853  1096.645
 854  1218.969
 855  1219.007
 856  1134.529
 857  1084.639
 858  994.759
 859  966.2309
 860  939.3604
 861  1060.44
 862  1033.159
 863  1183.433
 864  1132.475
 865  1093.438
 866  1034.101
 867  1152.933
 868  1178.371
 869  1049.094
 870  1031.519
 871  981.9331
 872  1067.422
 873  1038.447
 874  1099.517
 875  1007.667
 876  934.8437
 877  833.3276
 878  661.6508
 879  502.7272
 880  360.2324
 881  353.1324
 882  295.7144
 883  569.1923
 884  784.0944
 885  977.6556
 886  888.3581
 887  747.164
 888  628.1392
 889  675.6583
 890  798.7758
 891  734.2573
 892  844.4581
 893  904.0132
 894  1140.395
 895  1054.409
 896  998.1673
 897  1146.201
 898  1395.104
 899  1428.601
 900  1490.903
 901  1382.94
 902  1333.733
 903  1255.578
 904  1464.408
 905  1589.143
 906  1545.103
 907  1456.308
 908  1420.351
 909  1036.582
 910  856.576
 911  846.8314
 912  1132.9
 913  1224.731
 914  1207.557
 915  1187.128
 916  1075.678
 917  1053.679
 918  1218.763
 919  1229.916
 920  1384.464
 921  1620.619
 922  1610.645
 923  1387.709
 924  1226.701
 925  1040.234
 926  1013.183
 927  1003.991
 928  1234.062
 929  1209.471
 930  1156.673
 931  1281.649
 932  1256.452
 933  1217.513
 934  1052.281
 935  1063.352
 936  1261.394
 937  1337.006
 938  1141.564
 939  798.7515
 940  722.9609
 941  939.3573
 942  1184.886
 943  1224.68
 944  1191.289
 945  1276.989
 946  1495.037
 947  1765.099
 948  1831.545
 949  1877.129
 950  1468.26
 951  1588.272
 952  1525.804
 953  1607.7
 954  1348.021
 955  1357.792
 956  1665.758
 957  1648.959
 958  1752.677
 959  1701.303
 960  1708.989
 961  1866.422
 962  1961.872
 963  2007.961
 964  1473.838
 965  1295.242
 966  1303.195
 967  1470.076
 968  1670.964
 969  1676.425
 970  1481.642
 971  1662.003
 972  1631.98
 973  1859.703
 974  1914.979
 975  2188.716
 976  1871.493
 977  1628.981
 978  1204.082
 979  1247.426
 980  1454.422
 981  1936.36
 982  1968.371
 983  1971.274
 984  1654.09
 985  1520.542
 986  1486.331
 987  1485.539
 988  1288.874
 989  1006.385
 990  1011.066
 991  1117.293
 992  1232.343
 993  1237.079
 994  1264.931
 995  1383.542
 996  1367.232
 997  1324.042
 998  1135.813
 999  1018.235
1000  838.3666
1001  914.2175
1002  1013.532
1003  1103.046
1004  1002.594
1005  1000.789
1006  1060.047
1007  1136.189
1008  1012.135
1009  822.5439
1010  677.4539
1011  755.2368
1012  991.0471
1013  1048.041
1014  1039.536
1015  1228.53
1016  1587.715
1017  1739.787
1018  1676.602
1019  1487.797
1020  1621.254
1021  1708.363
1022  1685.314
1023  1580.223
