# Input file       =  1180437945.13237_cleaned.dat
# Candidate        =  PSR_0332+5434
# Telescope        =  AR
# Epoch_topo       =  57906.476436717247
# Epoch_bary       =  N/A
# T_sample         =  0.002
# Data Folded      =  7340032
# Data Avg         =  0.0950657576332949
# Data StdDev      =  3.04444028848124 
# Profile Bins     =  1024
# Profile Avg      =  681.446332894121 
# Profile StdDev   =  257.754620310627 
# Reduced chi-sqr  =  1.003
# Prob(Noise)      <  0.466   (~0.1 sigma)
# P_topo (ms)      =  714.515478039906  +/- 0.000182
# P'_topo (s/s)    =  -0                +/- 9.59e-11
# P''_topo (s/s^2) =  0                 +/- 4.24e-14
# P_bary (ms)      =  N/A
# P'_bary (s/s)    =  N/A
# P''_bary (s/s^2) =  N/A
# P_orb (s)        =  N/A
# asin(i)/c (s)    =  N/A
# eccentricity     =  N/A
# w (rad)          =  N/A
# T_peri           =  N/A
######################################################
   0  774.8373
   1  785.2067
   2  814.9457
   3  768.7231
   4  826.6144
   5  747.908
   6  775.8799
   7  780.4116
   8  797.9718
   9  718.6869
  10  734.3607
  11  729.3796
  12  662.0389
  13  562.8304
  14  645.5344
  15  708.3781
  16  723.3075
  17  747.5121
  18  823.717
  19  874.0796
  20  743.3674
  21  540.8596
  22  440.7426
  23  531.2427
  24  666.6335
  25  767.5079
  26  833.7855
  27  891.3893
  28  896.1574
  29  830.0272
  30  825.6218
  31  733.9796
  32  653.0175
  33  553.1188
  34  495.6681
  35  386.6795
  36  449.3967
  37  558.1272
  38  702.0068
  39  685.8865
  40  695.5399
  41  554.4127
  42  512.767
  43  496.6836
  44  546.2842
  45  626.0566
  46  717.4481
  47  776.9647
  48  751.9678
  49  620.3361
  50  574.6802
  51  477.0781
  52  588.4095
  53  504.9452
  54  515.3234
  55  533.1335
  56  629.5143
  57  623.4437
  58  636.8514
  59  748.2764
  60  793.2562
  61  874.0683
  62  838.212
  63  869.3862
  64  789.2844
  65  816.0834
  66  785.6982
  67  654.3297
  68  628.4492
  69  651.5052
  70  751.3071
  71  768.7264
  72  812.2322
  73  885.6003
  74  875.2598
  75  866.8927
  76  850.1877
  77  797.8421
  78  776.9882
  79  776.9249
  80  757.8796
  81  801.7172
  82  846.8018
  83  916.6539
  84  1036.017
  85  1061.325
  86  972.0472
  87  795.1827
  88  789.0119
  89  842.2057
  90  859.5516
  91  806.5741
  92  818.481
  93  754.0876
  94  757.787
  95  730.8386
  96  671.7089
  97  592.2169
  98  616.3
  99  743.1738
 100  747.1569
 101  720.1648
 102  747.551
 103  843.6335
 104  951.5177
 105  899.1399
 106  905.1506
 107  826.6961
 108  758.6171
 109  635.1042
 110  539.0433
 111  535.7063
 112  678.1017
 113  731.0244
 114  715.57
 115  655.8359
 116  620.3026
 117  633.5078
 118  591.2265
 119  584.9243
 120  576.6226
 121  667.8401
 122  737.6638
 123  663.1491
 124  543.6964
 125  619.989
 126  662.0224
 127  675.3862
 128  595.585
 129  568.5276
 130  634.7422
 131  669.353
 132  670.7729
 133  582.413
 134  605.1013
 135  613.1902
 136  728.7386
 137  818.456
 138  856.8176
 139  766.0773
 140  691.5967
 141  678.3423
 142  688.3521
 143  664.1261
 144  649.7191
 145  638.6431
 146  677.8808
 147  701.8785
 148  736.8967
 149  686.5437
 150  628.1693
 151  629.1608
 152  650.9889
 153  645.8533
 154  517.3362
 155  453.7621
 156  412.0045
 157  514.5469
 158  566.0591
 159  700.449
 160  754.9071
 161  802.6692
 162  690.7041
 163  574.5699
 164  559.8401
 165  671.5228
 166  811.189
 167  926.3756
 168  1005.482
 169  909.0182
 170  811.5927
 171  774.8695
 172  856.3909
 173  845.035
 174  741.543
 175  689.5599
 176  666.893
 177  683.1556
 178  678.8201
 179  657.8039
 180  621.8762
 181  637.6373
 182  705.9175
 183  805.8572
 184  738.2936
 185  674.0781
 186  566.0702
 187  541.4445
 188  533.1637
 189  564.9814
 190  660.7592
 191  733.78
 192  797.2842
 193  828.9613
 194  831.2628
 195  774.7434
 196  669.4939
 197  613.3849
 198  676.0298
 199  722.6682
 200  741.642
 201  672.7629
 202  655.5367
 203  548.929
 204  454.7951
 205  358.9402
 206  483.2094
 207  623.9756
 208  734.4756
 209  790.593
 210  864.0477
 211  743.6356
 212  606.4806
 213  482.5809
 214  505.8473
 215  575.3741
 216  602.5353
 217  642.6282
 218  531.6468
 219  583.1229
 220  639.6868
 221  686.2115
 222  560.3535
 223  531.282
 224  571.5556
 225  696.7164
 226  700.8752
 227  652.3239
 228  625.4983
 229  609.2717
 230  628.1407
 231  599.6664
 232  630.499
 233  683.2542
 234  719.0806
 235  703.1434
 236  627.1565
 237  621.3644
 238  653.8505
 239  614.7872
 240  567.2394
 241  606.7224
 242  660.7191
 243  717.1259
 244  634.35
 245  633.9476
 246  588.7765
 247  690.4196
 248  714.1792
 249  773.0835
 250  822.5416
 251  941.1444
 252  990.5972
 253  991.2466
 254  806.9062
 255  761.7074
 256  718.4311
 257  858.284
 258  862.3625
 259  966.2959
 260  885.1136
 261  801.0235
 262  745.6959
 263  763.1055
 264  814.846
 265  783.1104
 266  814.6478
 267  774.786
 268  783.2833
 269  776.3356
 270  758.4228
 271  782.1051
 272  731.9009
 273  746.4256
 274  662.7859
 275  575.5917
 276  635.1442
 277  776.4073
 278  842.4888
 279  667.6466
 280  675.1631
 281  744.3279
 282  723.5197
 283  703.4894
 284  846.4043
 285  915.5253
 286  805.4902
 287  668.2661
 288  672.8506
 289  679.0649
 290  675.1613
 291  776.8741
 292  877.8563
 293  940.2238
 294  962.1246
 295  970.9492
 296  831.1221
 297  683.6667
 298  761.9616
 299  848.6853
 300  824.0756
 301  634.9347
 302  552.3094
 303  459.3868
 304  423.8377
 305  539.0333
 306  657.5751
 307  699.6814
 308  661.306
 309  687.6901
 310  728.0051
 311  675.8531
 312  664.4469
 313  747.2007
 314  907.3715
 315  975.8005
 316  943.9525
 317  835.8231
 318  757.3052
 319  773.3351
 320  763.0808
 321  773.5779
 322  758.0073
 323  801.1105
 324  826.9666
 325  825.0915
 326  804.7754
 327  827.2118
 328  957.4209
 329  931.3074
 330  857.9198
 331  798.4536
 332  869.2225
 333  892.3045
 334  751.8627
 335  821.3651
 336  933.6935
 337  936.2307
 338  843.0659
 339  658.2444
 340  714.1332
 341  755.8315
 342  921.9902
 343  952.2568
 344  818.9146
 345  842.8771
 346  835.6246
 347  967.9152
 348  830.4705
 349  767.9791
 350  664.0515
 351  659.4236
 352  653.8294
 353  655.9517
 354  686.2642
 355  697.4749
 356  723.3599
 357  717.4337
 358  718.0307
 359  733.8453
 360  817.5825
 361  826.4713
 362  799.44
 363  653.7214
 364  546.8218
 365  383.3095
 366  414.2153
 367  508.7441
 368  625.6768
 369  669.5467
 370  657.366
 371  682.3023
 372  697.9311
 373  719.9805
 374  598.7573
 375  498.2288
 376  549.5555
 377  726.8284
 378  785.0955
 379  716.1436
 380  627.4724
 381  568.4318
 382  566.236
 383  652.2394
 384  781.0172
 385  708.7111
 386  621.33
 387  550.6296
 388  548.5217
 389  457.3772
 390  433.9953
 391  417.2201
 392  468.3575
 393  480.0601
 394  445.1989
 395  495.2444
 396  556.92
 397  559.7453
 398  600.9984
 399  674.45
 400  766.5658
 401  634.9139
 402  562.2464
 403  639.3165
 404  755.9372
 405  762.1039
 406  662.7354
 407  533.5565
 408  560.5071
 409  671.0444
 410  746.5619
 411  820.7169
 412  785.5689
 413  761.863
 414  736.2681
 415  811.0687
 416  938.0916
 417  798.1262
 418  574.2754
 419  636.5583
 420  764.6674
 421  749.4163
 422  638.7885
 423  594.5779
 424  600.44
 425  686.8755
 426  868.4391
 427  907.0587
 428  792.5345
 429  798.5991
 430  820.7935
 431  812.5168
 432  753.5167
 433  763.6316
 434  738.2051
 435  745.1383
 436  649.9705
 437  693.3013
 438  567.371
 439  532.0519
 440  473.1403
 441  636.3268
 442  674.0406
 443  706.4348
 444  836.5956
 445  940.2054
 446  863.259
 447  769.0485
 448  657.5988
 449  696.5585
 450  642.4706
 451  616.0012
 452  462.9442
 453  447.0455
 454  430.4761
 455  544.2206
 456  500.7117
 457  514.319
 458  513.4505
 459  677.6353
 460  722.0504
 461  720.0828
 462  531.7319
 463  417.458
 464  275.9528
 465  355.002
 466  411.6019
 467  465.5536
 468  508.8446
 469  621.5452
 470  719.1548
 471  738.4464
 472  711.8394
 473  688.0125
 474  676.8473
 475  703.0201
 476  621.4518
 477  594.6279
 478  584.4667
 479  508.1381
 480  588.6557
 481  617.0959
 482  676.9813
 483  571.4731
 484  578.724
 485  670.5344
 486  809.2234
 487  792.0414
 488  643.3051
 489  547.0764
 490  666.9605
 491  779.4088
 492  831.2744
 493  801.2441
 494  834.466
 495  784.3133
 496  882.4324
 497  868.2993
 498  811.3922
 499  789.864
 500  886.051
 501  929.4765
 502  843.5858
 503  802.8995
 504  732.8475
 505  775.7145
 506  741.0897
 507  752.5256
 508  710.1268
 509  692.0461
 510  726.1938
 511  761.1799
 512  850.9609
 513  823.538
 514  866.3126
 515  850.2315
 516  844.1896
 517  767.3347
 518  677.3622
 519  673.0045
 520  664.9655
 521  644.4048
 522  656.4046
 523  754.078
 524  746.3347
 525  677.8176
 526  597.3647
 527  623.1755
 528  605.298
 529  635.4825
 530  685.553
 531  695.4848
 532  666.815
 533  586.8751
 534  538.7994
 535  555.9779
 536  528.7739
 537  526.7392
 538  601.9767
 539  599.5795
 540  637.3114
 541  639.5376
 542  748.3701
 543  743.0655
 544  762.9413
 545  786.3679
 546  794.2816
 547  690.8155
 548  527.0337
 549  417.9213
 550  467.6085
 551  553.6677
 552  638.5686
 553  610.3939
 554  509.4189
 555  457.4947
 556  515.3581
 557  569.1343
 558  667.6054
 559  709.33
 560  781.6365
 561  679.3152
 562  634.0829
 563  730.9448
 564  824.2636
 565  774.9399
 566  545.9122
 567  380.1792
 568  315.7156
 569  374.9089
 570  420.8796
 571  504.681
 572  517.5968
 573  493.8434
 574  501.0778
 575  612.335
 576  719.424
 577  833.6412
 578  913.8312
 579  963.7317
 580  842.5594
 581  711.3394
 582  665.1585
 583  716.1133
 584  819.454
 585  818.7924
 586  700.6049
 587  521.8243
 588  493.173
 589  620.6733
 590  673.7503
 591  638.9277
 592  629.1239
 593  718.7321
 594  736.8772
 595  713.0037
 596  626.8008
 597  661.4697
 598  645.6025
 599  753.8858
 600  841.2293
 601  816.0815
 602  837.1223
 603  776.4813
 604  799.5352
 605  832.9396
 606  841.0192
 607  742.449
 608  685.9969
 609  747.7842
 610  818.6313
 611  837.0938
 612  751.98
 613  756.0369
 614  698.1932
 615  676.3965
 616  588.1005
 617  508.9467
 618  545.2158
 619  638.5619
 620  733.9698
 621  748.8942
 622  708.5789
 623  715.3687
 624  609.6368
 625  560.9131
 626  582.4363
 627  650.8249
 628  691.6158
 629  728.2885
 630  818.1188
 631  807.9372
 632  733.2589
 633  685.775
 634  691.678
 635  706.6643
 636  655.8453
 637  628.6035
 638  596.1716
 639  574.8723
 640  474.3779
 641  472.1772
 642  533.9508
 643  612.4542
 644  624.2988
 645  652.7961
 646  620.4935
 647  495.8613
 648  487.1695
 649  508.5066
 650  598.7086
 651  665.3634
 652  746.4147
 653  827.0626
 654  791.8106
 655  702.3189
 656  627.5283
 657  564.5571
 658  606.4978
 659  656.591
 660  797.4217
 661  848.1514
 662  835.6748
 663  774.9597
 664  690.9816
 665  666.836
 666  722.8302
 667  804.5146
 668  768.3477
 669  682.3172
 670  635.9679
 671  663.664
 672  690.2952
 673  785.4668
 674  844.2076
 675  923.0286
 676  863.1154
 677  852.6826
 678  783.7584
 679  810.7302
 680  808.7714
 681  765.6837
 682  715.6472
 683  704.3701
 684  775.5806
 685  858.8085
 686  830.2168
 687  801.8085
 688  720.2458
 689  626.0081
 690  597.3989
 691  624.5092
 692  766.8721
 693  830.6276
 694  814.4628
 695  682.2783
 696  548.905
 697  552.3749
 698  672.5077
 699  709.1673
 700  605.7669
 701  511.539
 702  578.3765
 703  709.0989
 704  657.9848
 705  472.4463
 706  354.3238
 707  457.0932
 708  493.7875
 709  469.4559
 710  387.7985
 711  444.7829
 712  577.2975
 713  677.7379
 714  610.8605
 715  529.3445
 716  467.0734
 717  527.3564
 718  569.9348
 719  481.6407
 720  368.775
 721  307.4929
 722  397.2145
 723  408.0098
 724  429.1048
 725  523.3523
 726  595.4526
 727  589.7248
 728  612.0938
 729  704.545
 730  728.1673
 731  686.3259
 732  582.5184
 733  568.2542
 734  553.5483
 735  648.2956
 736  742.2242
 737  794.806
 738  809.5761
 739  806.7836
 740  904.4824
 741  939.1893
 742  937.1257
 743  878.6273
 744  874.7114
 745  891.0683
 746  950.4117
 747  989.777
 748  948.1613
 749  914.7375
 750  827.5768
 751  924.0524
 752  957.2931
 753  999.5613
 754  1046.902
 755  1074.423
 756  1181.641
 757  1208.923
 758  1262.326
 759  1370.869
 760  1349.997
 761  1254.526
 762  1063.364
 763  837.5828
 764  756.3619
 765  724.0529
 766  863.9623
 767  930.9717
 768  923.5927
 769  902.9388
 770  867.1902
 771  786.3248
 772  700.4387
 773  680.8627
 774  720.2063
 775  688.1304
 776  676.991
 777  650.8101
 778  699.5172
 779  676.3934
 780  707.6651
 781  593.3015
 782  622.6757
 783  575.875
 784  544.7148
 785  509.5184
 786  449.3521
 787  501.2999
 788  484.9089
 789  569.9659
 790  584.3975
 791  643.45
 792  615.6638
 793  692.0609
 794  703.0015
 795  769.1173
 796  618.162
 797  580.2201
 798  594.8715
 799  672.4362
 800  595.5408
 801  641.1459
 802  527.334
 803  444.1655
 804  388.5769
 805  558.6093
 806  623.3073
 807  569.2552
 808  558.8882
 809  551.1288
 810  447.6002
 811  326.5881
 812  304.0299
 813  438.8396
 814  508.4709
 815  685.1641
 816  664.7396
 817  678.2236
 818  645.5142
 819  661.34
 820  557.9443
 821  560.2762
 822  599.7023
 823  558.9009
 824  557.5946
 825  536.5698
 826  645.9362
 827  768.0569
 828  846.6881
 829  858.1952
 830  837.2596
 831  800.2714
 832  804.6033
 833  725.8716
 834  778.2995
 835  802.535
 836  786.286
 837  734.4961
 838  684.2244
 839  646.5438
 840  472.3896
 841  500.9031
 842  568.0096
 843  761.2975
 844  717.0814
 845  719.1453
 846  687.6166
 847  719.9243
 848  724.9208
 849  711.4656
 850  650.3752
 851  545.3807
 852  560.3739
 853  572.1964
 854  657.9857
 855  778.8068
 856  726.5377
 857  808.2742
 858  748.4637
 859  683.5714
 860  554.6915
 861  596.5307
 862  704.3857
 863  718.5425
 864  669.366
 865  634.4972
 866  611.7169
 867  592.0789
 868  566.6052
 869  581.9442
 870  469.9414
 871  465.6424
 872  508.7442
 873  602.4052
 874  693.522
 875  734.9692
 876  759.5951
 877  705.1995
 878  664.1656
 879  621.2859
 880  618.5161
 881  576.0948
 882  548.1583
 883  507.6783
 884  546.0444
 885  652.0837
 886  704.1232
 887  765.7438
 888  765.0895
 889  714.4224
 890  556.2966
 891  503.7043
 892  487.6572
 893  536.4375
 894  463.6004
 895  531.434
 896  569.6422
 897  637.1387
 898  530.7723
 899  456.0833
 900  456.6547
 901  573.0558
 902  603.1227
 903  582.5567
 904  632.4578
 905  610.7769
 906  499.2895
 907  372.3392
 908  411.6201
 909  468.0226
 910  568.9525
 911  484.0287
 912  597.296
 913  519.6933
 914  545.5073
 915  466.4525
 916  473.1538
 917  472.7467
 918  360.1791
 919  337.3187
 920  361.0049
 921  486.282
 922  557.597
 923  655.3525
 924  699.3834
 925  679.829
 926  661.3506
 927  573.705
 928  549.1907
 929  562.0744
 930  773.9267
 931  821.9088
 932  782.6141
 933  723.6107
 934  735.3433
 935  734.4849
 936  629.8246
 937  678.0193
 938  663.9554
 939  728.8331
 940  642.8724
 941  610.9531
 942  567.2382
 943  565.3609
 944  657.023
 945  751.5452
 946  817.1676
 947  774.7554
 948  593.25
 949  594.6275
 950  648.1747
 951  659.3345
 952  636.4705
 953  611.6164
 954  584.99
 955  487.7508
 956  543.1832
 957  609.7523
 958  579.6301
 959  567.0071
 960  553.635
 961  676.3813
 962  735.3729
 963  798.3246
 964  768.254
 965  727.7719
 966  605.2372
 967  355.3659
 968  350.3879
 969  312.5378
 970  405.1312
 971  381.7104
 972  524.5688
 973  608.5154
 974  652.7309
 975  575.436
 976  481.6147
 977  403.8957
 978  544.8942
 979  544.6299
 980  494.8534
 981  364.9238
 982  428.4065
 983  537.2852
 984  589.3419
 985  589.5032
 986  569.4746
 987  634.7054
 988  632.9869
 989  521.6809
 990  472.7515
 991  473.9355
 992  565.7473
 993  519.0396
 994  518.8652
 995  599.6985
 996  709.9673
 997  721.1616
 998  770.5986
 999  862.0421
1000  861.8161
1001  716.8542
1002  617.8079
1003  596.2875
1004  556.7523
1005  571.084
1006  715.204
1007  812.6736
1008  887.5164
1009  832.6646
1010  879.1212
1011  816.3131
1012  751.9368
1013  747.2202
1014  821.7286
1015  859.6282
1016  830.6996
1017  865.9661
1018  903.5281
1019  875.2227
1020  760.6656
1021  739.1501
1022  744.7926
1023  770.1354
