# Input file       =  1180336856.118337_cleaned.dat
# Candidate        =  PSR_0332+5434
# Telescope        =  AR
# Epoch_topo       =  57905.306424980750
# Epoch_bary       =  N/A
# T_sample         =  0.002
# Data Folded      =  7340032
# Data Avg         =  0.104974785205351
# Data StdDev      =  2.75853300143112 
# Profile Bins     =  1024
# Profile Avg      =  752.471828751974 
# Profile StdDev   =  233.548553764842 
# Reduced chi-sqr  =  1.165
# Prob(Noise)      <  0.00018   (~3.6 sigma)
# P_topo (ms)      =  714.516284023929  +/- 0.000255
# P'_topo (s/s)    =  -0                +/- 1.35e-10
# P''_topo (s/s^2) =  0                 +/- 5.95e-14
# P_bary (ms)      =  N/A
# P'_bary (s/s)    =  N/A
# P''_bary (s/s^2) =  N/A
# P_orb (s)        =  N/A
# asin(i)/c (s)    =  N/A
# eccentricity     =  N/A
# w (rad)          =  N/A
# T_peri           =  N/A
######################################################
   0  702.6074
   1  797.758
   2  745.8014
   3  680.4326
   4  605.0015
   5  728.5226
   6  789.1235
   7  874.7498
   8  771.5259
   9  745.5938
  10  730.5148
  11  728.1425
  12  658.4322
  13  657.64
  14  710.5988
  15  613.8276
  16  536.6608
  17  530.4305
  18  573.6428
  19  611.0706
  20  669.9932
  21  773.0499
  22  819.9119
  23  823.5118
  24  762.0796
  25  609.0757
  26  518.5364
  27  542.5266
  28  498.5509
  29  500.6769
  30  518.9915
  31  568.4986
  32  480.2528
  33  338.5292
  34  393.2019
  35  506.3336
  36  621.1475
  37  609.0608
  38  632.7405
  39  676.9211
  40  586.8528
  41  507.0788
  42  447.9311
  43  496.7332
  44  463.1937
  45  519.0669
  46  536.8928
  47  513.6141
  48  445.5436
  49  513.7202
  50  578.9503
  51  692.9345
  52  759.9982
  53  756.8694
  54  723.8847
  55  648.8154
  56  746.6487
  57  729.2544
  58  628.9033
  59  528.5181
  60  635.5222
  61  728.3668
  62  725.9243
  63  632.3288
  64  622.5856
  65  627.8807
  66  604.0887
  67  668.0224
  68  685.7592
  69  741.9036
  70  686.0938
  71  732.5282
  72  807.7609
  73  794.4991
  74  726.2784
  75  667.9263
  76  732.2494
  77  695.2017
  78  676.1138
  79  666.5431
  80  731.7481
  81  687.2973
  82  648.8169
  83  620.7241
  84  802.0677
  85  790.723
  86  787.8281
  87  757.4983
  88  788.9949
  89  705.915
  90  724.5344
  91  784.3658
  92  895.0528
  93  907.5685
  94  887.1503
  95  968.4534
  96  981.4247
  97  879.0222
  98  749.7447
  99  664.8585
 100  652.4783
 101  704.4793
 102  774.5966
 103  766.26
 104  744.914
 105  695.7097
 106  722.9637
 107  758.3369
 108  764.5169
 109  765.615
 110  764.9175
 111  723.5858
 112  619.2518
 113  545.362
 114  516.51
 115  407.3761
 116  353.2123
 117  378.2878
 118  525.8853
 119  547.5103
 120  602.162
 121  556.2642
 122  550.3006
 123  520.6878
 124  522.3519
 125  558.5562
 126  533.4838
 127  489.0772
 128  408.0636
 129  492.4269
 130  580.5877
 131  654.4745
 132  547.6976
 133  522.4406
 134  591.1846
 135  703.1767
 136  707.803
 137  564.7999
 138  529.9749
 139  515.8099
 140  599.81
 141  557.8449
 142  626.8403
 143  607.509
 144  636.6078
 145  627.8921
 146  722.8291
 147  684.4667
 148  662.5779
 149  563.8769
 150  582.2199
 151  699.4301
 152  822.5708
 153  789.8446
 154  739.0117
 155  687.8012
 156  727.3506
 157  690.108
 158  650.3704
 159  632.1262
 160  697.0736
 161  854.9462
 162  793.5366
 163  658.7631
 164  549.1147
 165  565.8128
 166  620.1661
 167  637.8984
 168  655.2312
 169  668.4404
 170  623.5151
 171  651.0293
 172  686.3563
 173  835.5355
 174  861.1205
 175  872.1597
 176  787.2006
 177  786.6644
 178  776.3956
 179  794.2162
 180  812.096
 181  761.4012
 182  676.801
 183  612.4617
 184  639.8232
 185  682.2047
 186  642.1755
 187  697.46
 188  742.6294
 189  814.9835
 190  713.6061
 191  758.0988
 192  738.7256
 193  678.7197
 194  579.7596
 195  615.2497
 196  665.4354
 197  625.9007
 198  587.399
 199  679.2386
 200  667.11
 201  595.5732
 202  575.2112
 203  685.0948
 204  743.6073
 205  703.2018
 206  596.2322
 207  532.9347
 208  547.0886
 209  577.7015
 210  635.5098
 211  623.4408
 212  714.7731
 213  675.6812
 214  656.7737
 215  606.2946
 216  600.1843
 217  570.6376
 218  525.7258
 219  533.874
 220  559.4573
 221  544.4219
 222  478.3271
 223  490.1216
 224  490.1563
 225  535.3107
 226  664.7714
 227  743.2347
 228  894.9562
 229  911.0013
 230  922.1589
 231  982.1616
 232  1026.224
 233  1004.212
 234  920.0229
 235  886.2333
 236  921.6375
 237  782.8567
 238  735.7608
 239  799.6588
 240  934.5042
 241  902.9476
 242  887.4739
 243  856.733
 244  911.0829
 245  814.4051
 246  769.3964
 247  756.514
 248  801.8289
 249  765.6802
 250  791.0165
 251  859.9426
 252  1016.128
 253  929.4596
 254  846.8318
 255  715.2518
 256  800.5217
 257  816.717
 258  881.575
 259  852.8466
 260  752.4233
 261  761.1498
 262  669.7527
 263  608.6478
 264  510.826
 265  563.4327
 266  622.579
 267  601.9121
 268  636.3336
 269  650.6066
 270  674.0729
 271  715.9166
 272  810.7305
 273  859.7613
 274  765.4329
 275  712.5278
 276  797.9086
 277  831.4453
 278  844.6898
 279  787.4708
 280  742.7937
 281  680.9644
 282  633.7559
 283  668.4387
 284  750.8909
 285  839.3784
 286  946.8777
 287  847.4132
 288  794.5923
 289  679.9177
 290  642.0281
 291  573.3749
 292  630.6819
 293  732.1281
 294  765.5003
 295  690.4974
 296  717.4266
 297  662.91
 298  624.1536
 299  555.8244
 300  634.1376
 301  797.2734
 302  877.3159
 303  831.4262
 304  754.0185
 305  673.841
 306  698.0402
 307  714.5871
 308  724.4112
 309  742.0934
 310  612.5554
 311  562.1985
 312  592.4855
 313  701.2723
 314  827.0936
 315  839.7491
 316  734.6968
 317  646.4153
 318  652.4915
 319  681.2402
 320  651.2183
 321  565.0439
 322  645.9565
 323  762.7968
 324  861.9589
 325  791.5627
 326  722.3573
 327  717.5185
 328  796.2911
 329  770.0499
 330  745.275
 331  795.4258
 332  802.4075
 333  712.9549
 334  609.8471
 335  611.6321
 336  736.7559
 337  810.2554
 338  784.6951
 339  719.9256
 340  697.4337
 341  777.5443
 342  641.1832
 343  575.0133
 344  589.4622
 345  796.7874
 346  819.9337
 347  796.4885
 348  685.785
 349  620.6864
 350  654.3456
 351  716.7648
 352  704.1484
 353  590.0636
 354  599.2961
 355  594.7126
 356  621.5481
 357  610.8569
 358  629.9789
 359  661.3132
 360  606.0311
 361  633.4221
 362  518.1688
 363  528.2693
 364  529.2941
 365  649.3195
 366  635.2671
 367  668.0522
 368  722.584
 369  699.3196
 370  644.4863
 371  595.4929
 372  634.821
 373  626.693
 374  621.3309
 375  588.2042
 376  589.9332
 377  597.5345
 378  571.0631
 379  594.902
 380  630.0095
 381  704.2719
 382  659.7839
 383  662.0125
 384  744.4622
 385  717.1703
 386  685.5318
 387  672.8929
 388  745.4141
 389  803.244
 390  884.9575
 391  947.685
 392  1003.002
 393  942.3175
 394  859.6542
 395  887.6039
 396  879.0883
 397  904.0251
 398  941.8849
 399  867.9855
 400  840.2888
 401  784.7058
 402  855.8399
 403  879.5134
 404  841.2161
 405  862.5809
 406  964.272
 407  1032.22
 408  1021.965
 409  826.8879
 410  662.4621
 411  694.7739
 412  797.9682
 413  819.7476
 414  807.7275
 415  801.6215
 416  834.47
 417  818.1703
 418  768.5715
 419  766.8561
 420  816.8851
 421  896.1675
 422  918.6671
 423  795.8704
 424  818.3825
 425  743.5078
 426  827.7132
 427  858.1202
 428  930.0668
 429  813.1795
 430  699.7724
 431  748.5229
 432  904.3621
 433  981.752
 434  909.3979
 435  768.0823
 436  772.155
 437  880.1058
 438  991.953
 439  912.4738
 440  779.5772
 441  719.2516
 442  742.2659
 443  778.8723
 444  728.4565
 445  599.0609
 446  523.5854
 447  559.4742
 448  681.1714
 449  659.6166
 450  652.7967
 451  615.989
 452  670.1338
 453  628.2367
 454  590.6436
 455  490.9082
 456  534.7746
 457  518.7936
 458  625.7677
 459  692.6426
 460  844.7875
 461  810.0453
 462  777.3268
 463  650.4738
 464  695.1815
 465  649.3211
 466  729.4276
 467  755.5153
 468  779.8722
 469  818.7931
 470  740.483
 471  776.6669
 472  740.2638
 473  747.1937
 474  688.4255
 475  708.4724
 476  794.2438
 477  712.1295
 478  671.4243
 479  584.9785
 480  692.583
 481  741.0038
 482  818.4771
 483  790.5109
 484  765.3854
 485  847.1646
 486  965.6222
 487  978.1921
 488  863.0228
 489  784.1146
 490  758.5618
 491  769.95
 492  701.0159
 493  762.8766
 494  744.0584
 495  749.7368
 496  663.2492
 497  760.3284
 498  768.7944
 499  723.6472
 500  695.5842
 501  727.1034
 502  792.6354
 503  761.5751
 504  767.4223
 505  752.007
 506  719.5305
 507  735.2081
 508  729.5292
 509  799.2636
 510  734.2493
 511  723.7012
 512  705.2343
 513  779.5864
 514  765.0242
 515  801.7192
 516  761.9337
 517  892.954
 518  877.0742
 519  881.9091
 520  804.8969
 521  779.5857
 522  858.7603
 523  863.4306
 524  870.3027
 525  799.7648
 526  801.5725
 527  852.6293
 528  869.476
 529  926.4532
 530  956.8956
 531  955.4438
 532  916.3138
 533  915.3365
 534  844.6544
 535  715.9615
 536  696.797
 537  754.196
 538  781.5562
 539  822.2197
 540  826.7035
 541  856.9554
 542  853.3411
 543  904.181
 544  805.9939
 545  758.319
 546  783.6752
 547  894.2955
 548  873.4598
 549  742.3532
 550  611.3246
 551  551.8547
 552  703.3315
 553  789.4309
 554  799.2042
 555  795.1367
 556  942.5636
 557  939.4377
 558  921.892
 559  922.6104
 560  919.4313
 561  871.357
 562  759.3329
 563  746.0945
 564  841.4308
 565  858.2607
 566  940.037
 567  889.0034
 568  931.2813
 569  978.5492
 570  1007.891
 571  994.9122
 572  904.8477
 573  834.6246
 574  785.9415
 575  818.5857
 576  904.142
 577  948.5436
 578  957.0432
 579  850.5438
 580  823.3853
 581  694.0276
 582  771.6859
 583  755.2257
 584  802.8827
 585  822.934
 586  739.5634
 587  721.8167
 588  714.2929
 589  810.0222
 590  858.2549
 591  822.3496
 592  841.8696
 593  880.2457
 594  866.6001
 595  836.3862
 596  937.6472
 597  1033.713
 598  1047.667
 599  945.2616
 600  915.2398
 601  847.4175
 602  795.0972
 603  840.1083
 604  810.8429
 605  824.9362
 606  816.917
 607  956.1461
 608  1018.549
 609  1010.444
 610  968.8021
 611  889.3896
 612  879.2061
 613  815.0336
 614  890.5748
 615  894.5241
 616  882.2864
 617  834.7957
 618  744.1116
 619  676.3489
 620  672.4294
 621  694.7689
 622  675.1752
 623  670.9155
 624  778.5953
 625  935.1113
 626  993.4399
 627  919.42
 628  868.5378
 629  749.6499
 630  788.8835
 631  863.0214
 632  987.9837
 633  917.7199
 634  764.2688
 635  579.513
 636  607.3737
 637  676.5356
 638  732.6229
 639  669.2131
 640  689.9319
 641  756.9731
 642  831.2772
 643  743.4133
 644  708.2156
 645  721.7788
 646  735.3369
 647  759.7817
 648  802.3021
 649  931.754
 650  973.5822
 651  939.1882
 652  967.8269
 653  847.8766
 654  796.1049
 655  751.4413
 656  870.8472
 657  865.6305
 658  894.9186
 659  889.1886
 660  924.5046
 661  835.3246
 662  741.7017
 663  652.7061
 664  628.0497
 665  625.1439
 666  644.7281
 667  770.6879
 668  876.2991
 669  904.2979
 670  809.0011
 671  742.1343
 672  671.0762
 673  631.82
 674  584.1677
 675  523.3074
 676  559.9633
 677  635.0674
 678  786.8442
 679  781.9471
 680  754.781
 681  724.4286
 682  748.574
 683  686.3802
 684  632.6907
 685  656.5709
 686  782.0539
 687  900.0187
 688  861.7359
 689  737.778
 690  633.3271
 691  662.019
 692  640.8341
 693  629.4449
 694  638.3182
 695  738.5262
 696  892.5379
 697  850.4374
 698  790.374
 699  841.8979
 700  938.4013
 701  932.9711
 702  741.7612
 703  750.2637
 704  737.9506
 705  743.9711
 706  748.5338
 707  807.3544
 708  919.6391
 709  879.252
 710  721.7231
 711  667.463
 712  654.361
 713  656.291
 714  666.5724
 715  654.2847
 716  645.5802
 717  628.8959
 718  699.2861
 719  744.4049
 720  674.9808
 721  671.6498
 722  731.153
 723  721.9293
 724  596.8818
 725  634.6825
 726  549.4072
 727  573.0415
 728  671.2497
 729  823.3353
 730  825.4048
 731  745.2001
 732  780.7441
 733  787.5968
 734  794.332
 735  866.2064
 736  919.1472
 737  888.6865
 738  789.996
 739  881.19
 740  919.5839
 741  931.5738
 742  932.8588
 743  930.146
 744  979.3209
 745  870.8961
 746  908.2045
 747  894.1578
 748  953.6611
 749  883.9362
 750  849.3447
 751  949.5218
 752  1228.463
 753  1496.884
 754  1581.289
 755  1414.042
 756  1430.787
 757  1464.485
 758  1443.192
 759  1355.965
 760  1395.202
 761  1490.412
 762  1345.857
 763  1095.015
 764  977.0148
 765  858.6335
 766  811.636
 767  795.251
 768  744.3344
 769  699.744
 770  715.6367
 771  795.9141
 772  871.3069
 773  803.3642
 774  691.9495
 775  709.0406
 776  777.2095
 777  869.9274
 778  847.9762
 779  796.301
 780  752.0978
 781  766.8094
 782  843.5002
 783  930.7734
 784  862.0552
 785  873.3744
 786  845.4943
 787  787.3098
 788  611.9169
 789  601.5223
 790  677.1362
 791  746.5873
 792  652.6515
 793  580.8442
 794  598.3026
 795  592.8308
 796  681.8444
 797  768.3682
 798  778.1693
 799  766.3833
 800  757.7614
 801  835.586
 802  705.0873
 803  685.7844
 804  700.7214
 805  706.6597
 806  590.8296
 807  548.2538
 808  509.5554
 809  572.3724
 810  533.6237
 811  687.5029
 812  713.0778
 813  699.3937
 814  646.0931
 815  699.0409
 816  680.9645
 817  663.4745
 818  660.8217
 819  682.1812
 820  647.5949
 821  567.5607
 822  614.0212
 823  658.0559
 824  679.5427
 825  712.5971
 826  701.2631
 827  736.9883
 828  799.668
 829  886.5919
 830  920.4988
 831  822.9256
 832  808.3994
 833  899.809
 834  873.5783
 835  802.7173
 836  698.1525
 837  693.239
 838  669.3228
 839  723.8852
 840  759.5608
 841  843.8497
 842  841.6214
 843  813.1646
 844  699.0161
 845  698.1337
 846  717.0142
 847  795.5882
 848  722.3441
 849  716.1674
 850  769.3273
 851  826.7134
 852  795.6298
 853  769.3154
 854  740.3094
 855  746.5403
 856  735.7961
 857  827.4252
 858  872.2377
 859  834.6304
 860  774.2897
 861  761.4841
 862  851.1859
 863  839.4184
 864  831.8035
 865  733.8574
 866  763.9264
 867  701.4308
 868  788.1641
 869  756.3907
 870  790.5181
 871  743.7893
 872  710.8102
 873  628.9518
 874  637.621
 875  726.5765
 876  673.5154
 877  674.0242
 878  637.3358
 879  725.9713
 880  768.5576
 881  750.7039
 882  755.2455
 883  725.3782
 884  813.461
 885  808.8064
 886  815.356
 887  779.304
 888  748.3897
 889  818.7769
 890  879.6224
 891  897.8698
 892  792.6799
 893  555.1555
 894  474.1774
 895  480.5891
 896  625.6874
 897  694.925
 898  785.5167
 899  790.261
 900  788.7219
 901  830.3739
 902  867.3874
 903  946.175
 904  876.3757
 905  782.7173
 906  748.2743
 907  700.6072
 908  722.0981
 909  712.3224
 910  782.2081
 911  879.5868
 912  962.6523
 913  1030.751
 914  1058.381
 915  1045.785
 916  972.541
 917  817.5134
 918  736.6501
 919  773.6108
 920  876.9738
 921  814.1351
 922  813.1596
 923  806.13
 924  882.677
 925  864.7655
 926  870.2216
 927  765.827
 928  760.1246
 929  733.0946
 930  882.2097
 931  847.5399
 932  859.485
 933  877.6997
 934  982.2543
 935  878.4973
 936  825.1002
 937  624.0658
 938  525.2095
 939  505.8847
 940  575.4116
 941  641.7276
 942  656.0471
 943  764.7101
 944  785.647
 945  794.9142
 946  730.0979
 947  704.9464
 948  679.5247
 949  669.2371
 950  619.8367
 951  676.2552
 952  734.4583
 953  783.2779
 954  833.6658
 955  837.9467
 956  855.7016
 957  740.6246
 958  746.3304
 959  800.2
 960  859.9432
 961  896.9658
 962  819.7129
 963  791.0248
 964  827.2714
 965  913.8259
 966  924.8323
 967  842.4278
 968  777.1012
 969  834.9436
 970  743.1808
 971  750.9747
 972  745.9939
 973  814.0231
 974  812.0939
 975  712.3705
 976  759.2104
 977  835.7863
 978  987.6285
 979  989.4362
 980  928.6569
 981  818.1522
 982  812.2344
 983  809.6537
 984  822.8071
 985  764.8975
 986  835.3479
 987  896.097
 988  857.0124
 989  776.929
 990  759.5296
 991  793.5938
 992  783.3047
 993  864.3071
 994  808.2088
 995  804.0875
 996  673.5121
 997  792.8224
 998  821.2711
 999  767.3085
1000  601.8303
1001  644.2404
1002  825.5029
1003  966.6538
1004  880.6211
1005  838.8657
1006  745.074
1007  732.3032
1008  758.6503
1009  779.6017
1010  802.5138
1011  804.5984
1012  670.8983
1013  547.7863
1014  570.314
1015  688.808
1016  700.7116
1017  662.9374
1018  665.6261
1019  658.7014
1020  697.8263
1021  798.4618
1022  772.4314
1023  704.9481
