# Input file       =  1180007091.099125_cleaned.dat
# Candidate        =  PSR_0332+5434
# Telescope        =  AR
# Epoch_topo       =  57901.489700221355
# Epoch_bary       =  N/A
# T_sample         =  0.002
# Data Folded      =  7340032
# Data Avg         =  0.116147735132212
# Data StdDev      =  3.30011022184799 
# Profile Bins     =  1024
# Profile Avg      =  832.5267451925   
# Profile StdDev   =  279.400670275584 
# Reduced chi-sqr  =  0.850
# Prob(Noise)      <  1   (~0.0 sigma)
# P_topo (ms)      =  714.520364526417  +/- 0.000278
# P'_topo (s/s)    =  -0                +/- 1.47e-10
# P''_topo (s/s^2) =  0                 +/- 6.48e-14
# P_bary (ms)      =  N/A
# P'_bary (s/s)    =  N/A
# P''_bary (s/s^2) =  N/A
# P_orb (s)        =  N/A
# asin(i)/c (s)    =  N/A
# eccentricity     =  N/A
# w (rad)          =  N/A
# T_peri           =  N/A
######################################################
   0  744.9778
   1  789.8984
   2  819.5955
   3  854.0677
   4  841.2855
   5  831.3382
   6  880.7796
   7  847.8928
   8  905.2369
   9  898.394
  10  910.5599
  11  876.3507
  12  853.3745
  13  760.5069
  14  708.0167
  15  791.5693
  16  923.2999
  17  1028.491
  18  1025.35
  19  985.3367
  20  948.4141
  21  950.9481
  22  908.7255
  23  901.9533
  24  815.3609
  25  799.9902
  26  812.4594
  27  961.5114
  28  925.2222
  29  893.2231
  30  840.504
  31  839.8343
  32  772.2035
  33  808.2952
  34  744.8842
  35  777.4907
  36  683.7547
  37  765.7276
  38  724.04
  39  713.5643
  40  625.9474
  41  460.8377
  42  562.6035
  43  674.1085
  44  830.3171
  45  710.5516
  46  654.0253
  47  700.8104
  48  767.5923
  49  788.7251
  50  775.4931
  51  730.9994
  52  635.7493
  53  674.3917
  54  563.3405
  55  627.6301
  56  608.6084
  57  661.8668
  58  712.481
  59  708.597
  60  702.8904
  61  857.3175
  62  1078.231
  63  1116.878
  64  936.2771
  65  896.7142
  66  971.0009
  67  977.9995
  68  914.809
  69  789.7463
  70  775.976
  71  749.5137
  72  741.8183
  73  767.8159
  74  916.9714
  75  1087.995
  76  999.5769
  77  961.5045
  78  940.98
  79  987.16
  80  985.3674
  81  921.9468
  82  866.2812
  83  721.3391
  84  702.6602
  85  708.5468
  86  810.5076
  87  855.6208
  88  898.4867
  89  740.7296
  90  580.2136
  91  469.5644
  92  621.4155
  93  717.9124
  94  808.0783
  95  822.4695
  96  869.2029
  97  887.0783
  98  865.1033
  99  812.3024
 100  713.8872
 101  745.0407
 102  689.3612
 103  716.9305
 104  772.474
 105  937.4069
 106  993.032
 107  888.2524
 108  838.912
 109  771.9064
 110  749.9648
 111  714.2771
 112  771.9273
 113  973.3441
 114  933.8731
 115  905.7711
 116  916.2019
 117  872.4377
 118  781.0679
 119  694.9453
 120  831.2512
 121  928.3115
 122  887.4365
 123  926.2391
 124  958.7662
 125  978.2452
 126  805.6648
 127  902.6904
 128  926.8628
 129  970.2599
 130  850.6646
 131  766.7044
 132  678.0814
 133  576.7343
 134  593.1614
 135  643.2311
 136  556.6314
 137  435.9301
 138  560.0298
 139  795.6537
 140  941.4433
 141  828.5932
 142  782.5325
 143  767.613
 144  801.2375
 145  731.7473
 146  758.5096
 147  805.5775
 148  862.582
 149  861.0571
 150  797.6516
 151  775.3004
 152  757.1172
 153  689.839
 154  729.5731
 155  722.1862
 156  704.8942
 157  705.8655
 158  765.8647
 159  830.5127
 160  883.2728
 161  875.7363
 162  924.1396
 163  892.8312
 164  803.4105
 165  742.8896
 166  690.665
 167  708.15
 168  812.7719
 169  932.8672
 170  1048.098
 171  1057.676
 172  905.6442
 173  774.0516
 174  772.001
 175  877.8885
 176  916.2455
 177  904.2306
 178  1010.09
 179  992.1973
 180  869.7871
 181  879.1995
 182  976.7548
 183  1045.891
 184  911.348
 185  922.0931
 186  907.6469
 187  880.8434
 188  779.8327
 189  789.1665
 190  817.3557
 191  893.5201
 192  804.3201
 193  671.1586
 194  525.4102
 195  580.4716
 196  728.7368
 197  798.3204
 198  842.5257
 199  933.6188
 200  951.2851
 201  833.3801
 202  729.5472
 203  714.3282
 204  816.6393
 205  778.7303
 206  674.5276
 207  545.4088
 208  589.8245
 209  761.2901
 210  839.3734
 211  868.924
 212  838.2261
 213  914.3215
 214  1047.957
 215  1071.167
 216  995.424
 217  828.6434
 218  715.4263
 219  607.1537
 220  589.488
 221  703.3213
 222  826.4493
 223  882.9073
 224  877.8401
 225  881.7434
 226  966.4754
 227  983.3266
 228  1036.841
 229  855.9891
 230  725.9979
 231  724.6837
 232  895.7361
 233  861.964
 234  719.7859
 235  701.6722
 236  816.4999
 237  919.0046
 238  884.3833
 239  861.2311
 240  774.0748
 241  835.4408
 242  875.798
 243  846.0507
 244  819.0109
 245  828.6408
 246  874.1144
 247  821.588
 248  698.6188
 249  664.5494
 250  631.3325
 251  714.871
 252  775.454
 253  888.7933
 254  892.3042
 255  833.826
 256  764.4799
 257  712.0269
 258  694.4079
 259  740.7781
 260  874.1401
 261  992.3188
 262  991.7966
 263  883.3969
 264  805.7686
 265  735.202
 266  687.7055
 267  611.2689
 268  630.2891
 269  699.0327
 270  764.261
 271  882.5361
 272  915.4354
 273  876.6711
 274  854.2322
 275  813.5251
 276  806.878
 277  760.2624
 278  808.3306
 279  755.7082
 280  717.6248
 281  748.8478
 282  873.2642
 283  905.0087
 284  897.6241
 285  871.7832
 286  916.1449
 287  886.5347
 288  780.6917
 289  760.9121
 290  729.6856
 291  680.8306
 292  650.6986
 293  677.7143
 294  816.4487
 295  786.5687
 296  850.3293
 297  720.9971
 298  693.3339
 299  584.0082
 300  575.1795
 301  661.2401
 302  634.5911
 303  513.0475
 304  538.3444
 305  667.2216
 306  756.636
 307  801.4334
 308  896.1165
 309  908.2127
 310  842.5896
 311  766.7857
 312  791.0884
 313  747.1461
 314  613.9468
 315  540.429
 316  582.5858
 317  634.1045
 318  603.3523
 319  526.3386
 320  625.8461
 321  760.9299
 322  893.0502
 323  940.9447
 324  849.4863
 325  892.5266
 326  947.516
 327  1029.424
 328  919.1567
 329  856.118
 330  792.8698
 331  859.5286
 332  898.1173
 333  862.323
 334  728.423
 335  643.4381
 336  712.8036
 337  820.6685
 338  769.8615
 339  830.3405
 340  866.4008
 341  949.7319
 342  855.4445
 343  836.1083
 344  931.347
 345  977.5359
 346  1035.903
 347  990.8367
 348  984.3724
 349  981.5793
 350  1044.465
 351  1043.926
 352  1050.894
 353  988.2736
 354  927.9814
 355  892.5098
 356  942.817
 357  1019.613
 358  947.0187
 359  934.8628
 360  966.1108
 361  1109.959
 362  1130.884
 363  956.6331
 364  870.381
 365  797.3522
 366  843.8906
 367  795.878
 368  743.9544
 369  664.6497
 370  693.3313
 371  716.796
 372  759.8126
 373  840.7389
 374  907.6502
 375  971.7498
 376  935.8993
 377  906.1858
 378  899.2382
 379  934.1746
 380  864.2649
 381  811.1138
 382  831.9466
 383  801.7767
 384  725.5023
 385  577.6958
 386  660.9198
 387  823.9133
 388  1108.788
 389  1067.002
 390  978.0833
 391  795.1194
 392  806.1516
 393  805.9298
 394  931.0289
 395  843.3275
 396  770.931
 397  681.6034
 398  748.6794
 399  804.406
 400  823.0217
 401  957.9648
 402  929.8575
 403  850.8538
 404  684.0611
 405  649.516
 406  636.215
 407  722.1573
 408  775.4485
 409  882.094
 410  899.0693
 411  945.5082
 412  932.1976
 413  888.7211
 414  915.6
 415  884.7465
 416  828.9006
 417  732.405
 418  739.2268
 419  909.7147
 420  901.0905
 421  811.2592
 422  676.4216
 423  668.3754
 424  732.6335
 425  813.5487
 426  907.9692
 427  863.05
 428  756.5461
 429  771.8691
 430  864.509
 431  898.3766
 432  750.3912
 433  681.2461
 434  774.0895
 435  879.386
 436  931.1694
 437  889.2584
 438  949.0458
 439  947.9326
 440  1001.907
 441  921.1368
 442  915.5276
 443  934.0721
 444  929.0481
 445  900.186
 446  838.8305
 447  810.0266
 448  716.2406
 449  691.6512
 450  654.8765
 451  665.476
 452  706.1565
 453  785.5783
 454  820.1227
 455  737.1808
 456  732.6618
 457  732.5984
 458  794.174
 459  696.6407
 460  691.7418
 461  691.3425
 462  779.6463
 463  753.8184
 464  796.2703
 465  759.1454
 466  785.9583
 467  835.2157
 468  828.156
 469  810.1001
 470  907.788
 471  977.9985
 472  915.4333
 473  771.4052
 474  745.5673
 475  752.86
 476  859.6042
 477  792.177
 478  852.9667
 479  799.2243
 480  859.9426
 481  882.7272
 482  931.8287
 483  906.2593
 484  848.4754
 485  764.6248
 486  829.4877
 487  838.8129
 488  754.9367
 489  631.1559
 490  635.9575
 491  849.0819
 492  967.6418
 493  933.4926
 494  937.1866
 495  859.1916
 496  902.6953
 497  861.349
 498  820.4267
 499  786.1603
 500  838.6284
 501  1029.839
 502  1205.645
 503  1145.881
 504  987.4019
 505  866.5933
 506  986.5078
 507  1009.161
 508  932.6165
 509  742.9594
 510  569.9347
 511  643.779
 512  712.9932
 513  966.0253
 514  957.7173
 515  979.9967
 516  851.7621
 517  905.8458
 518  978.7584
 519  938.8057
 520  886.0023
 521  799.1774
 522  744.2133
 523  751.6586
 524  867.6336
 525  868.4084
 526  782.4876
 527  687.3997
 528  777.7303
 529  806.8104
 530  851.1363
 531  791.0433
 532  865.3196
 533  842.1468
 534  812.3069
 535  772.8409
 536  813.0623
 537  742.2595
 538  650.4293
 539  731.6283
 540  675.5453
 541  644.3252
 542  630.2554
 543  675.6359
 544  685.4293
 545  684.6639
 546  782.1213
 547  582.3935
 548  515.7309
 549  510.6499
 550  697.6983
 551  665.118
 552  664.1391
 553  718.3419
 554  768.2234
 555  711.3179
 556  662.717
 557  745.129
 558  861.4835
 559  815.9948
 560  720.2496
 561  625.6649
 562  660.2092
 563  629.5472
 564  755.1915
 565  725.6517
 566  799.3353
 567  756.9443
 568  872.0992
 569  857.1537
 570  860.4738
 571  884.1503
 572  1057.903
 573  1052.086
 574  971.8249
 575  850.3977
 576  886.8317
 577  773.6349
 578  614.8166
 579  570.7102
 580  719.9401
 581  816.9543
 582  889.9057
 583  878.8607
 584  874.2507
 585  790.5203
 586  895.5507
 587  981.7166
 588  1037.843
 589  938.9725
 590  853.1876
 591  814.7313
 592  813.4335
 593  918.9164
 594  962.1206
 595  975.8276
 596  919.2228
 597  883.6674
 598  860.5681
 599  736.9361
 600  657.6677
 601  637.7844
 602  558.869
 603  538.4687
 604  590.8229
 605  645.8762
 606  674.6673
 607  717.3748
 608  814.7772
 609  760.3397
 610  675.4313
 611  665.2876
 612  666.8506
 613  648.4163
 614  731.3445
 615  765.5201
 616  907.125
 617  844.9052
 618  919.955
 619  923.5476
 620  959.0143
 621  985.098
 622  967.8752
 623  935.1728
 624  978.2975
 625  953.619
 626  1008.396
 627  972.0499
 628  874.9698
 629  795.7678
 630  635.3358
 631  649.2054
 632  686.2282
 633  831.1268
 634  845.1562
 635  870.9199
 636  873.076
 637  917.8924
 638  870.4384
 639  900.0574
 640  840.1688
 641  870.71
 642  865.2466
 643  849.277
 644  858.5227
 645  857.95
 646  891.7537
 647  857.1807
 648  829.9429
 649  802.1417
 650  848.4885
 651  906.5593
 652  940.0814
 653  867.7816
 654  915.1019
 655  933.451
 656  916.9418
 657  851.6028
 658  908.0807
 659  946.2527
 660  1000.637
 661  1030.454
 662  932.7924
 663  798.1016
 664  717.1375
 665  798.8486
 666  894.6375
 667  827.2092
 668  869.4259
 669  898.0001
 670  930.9604
 671  936.3237
 672  996.9538
 673  1003.583
 674  956.7782
 675  828.9876
 676  870.0788
 677  760.6379
 678  772.7968
 679  725.9299
 680  764.4432
 681  809.7266
 682  696.2832
 683  695.3084
 684  675.6104
 685  716.0524
 686  703.3022
 687  641.2928
 688  625.811
 689  668.3807
 690  636.8013
 691  681.3382
 692  716.0942
 693  697.6425
 694  536.1689
 695  511.2595
 696  685.5866
 697  865.5009
 698  886.2613
 699  856.5708
 700  887.3373
 701  859.8365
 702  767.8314
 703  782.029
 704  765.6417
 705  787.7486
 706  784.6175
 707  811.8029
 708  867.8269
 709  791.7831
 710  751.7568
 711  727.8513
 712  750.8089
 713  744.0615
 714  829.0897
 715  874.3679
 716  901.6765
 717  831.5366
 718  841.4196
 719  793.7504
 720  785.162
 721  768.1292
 722  920.4935
 723  856.5349
 724  914.8129
 725  843.9536
 726  962.6385
 727  926.2179
 728  867.0624
 729  802.0595
 730  691.765
 731  614.4887
 732  602.285
 733  616.641
 734  758.6614
 735  796.8624
 736  789.2512
 737  794.1403
 738  752.1818
 739  864.663
 740  863.4526
 741  860.4869
 742  739.184
 743  773.2656
 744  806.2454
 745  959.444
 746  1041.768
 747  1065.204
 748  1055.046
 749  1133.898
 750  1284.891
 751  1358.703
 752  1419.579
 753  1533.617
 754  1606.433
 755  1609.304
 756  1562.05
 757  1455.951
 758  1408.946
 759  1373.815
 760  1353.654
 761  1333.14
 762  1130.066
 763  1057.613
 764  1073.71
 765  1096.075
 766  1050.687
 767  1088.84
 768  1170.989
 769  1257.235
 770  1146.516
 771  990.0951
 772  917.718
 773  885.0026
 774  900.8054
 775  989.3188
 776  1078.281
 777  1052.931
 778  1002.062
 779  983.903
 780  977.9352
 781  885.7657
 782  783.9213
 783  795.2784
 784  926.5781
 785  1009.558
 786  946.7952
 787  992.3057
 788  989.0697
 789  1073.762
 790  1033.615
 791  1049.206
 792  963.5959
 793  976.8607
 794  944.5074
 795  885.3871
 796  918.3198
 797  1047.609
 798  966.0802
 799  831.6341
 800  745.2916
 801  785.1844
 802  750.2142
 803  699.7764
 804  745.0743
 805  832.0944
 806  884.3152
 807  956.2895
 808  1040.799
 809  1094.054
 810  1018.131
 811  985.2054
 812  904.4705
 813  868.5494
 814  793.9782
 815  833.6916
 816  803.2341
 817  787.8972
 818  833.5395
 819  931.6186
 820  893.818
 821  821.4667
 822  781.6496
 823  651.441
 824  641.4744
 825  671.7056
 826  810.9948
 827  818.4442
 828  867.7689
 829  832.8767
 830  832.6392
 831  773.2063
 832  889.6381
 833  915.9109
 834  987.6487
 835  955.8585
 836  976.275
 837  1035.113
 838  954.9765
 839  978.1232
 840  1042.957
 841  1006.173
 842  888.1948
 843  788.0863
 844  801.0638
 845  818.5187
 846  904.3358
 847  1062.084
 848  1197.94
 849  1096.885
 850  905.702
 851  824.9288
 852  893.6318
 853  979.7922
 854  965.4163
 855  912.6796
 856  876.7859
 857  907.3651
 858  832.621
 859  817.0453
 860  724.9822
 861  753.5058
 862  706.5228
 863  562.3056
 864  443.4416
 865  391.7858
 866  662.6708
 867  821.0291
 868  943.847
 869  834.6813
 870  893.3108
 871  870.2101
 872  944.7863
 873  968.0817
 874  997.0715
 875  833.0121
 876  667.1308
 877  657.2358
 878  758.1492
 879  782.3249
 880  837.4392
 881  854.8389
 882  827.1647
 883  772.8555
 884  734.8997
 885  692.4153
 886  752.8458
 887  839.2772
 888  919.9755
 889  808.9133
 890  672.4151
 891  672.7215
 892  712.3885
 893  738.755
 894  795.8719
 895  910.9827
 896  979.6939
 897  915.4326
 898  840.9376
 899  718.3966
 900  713.3713
 901  727.8167
 902  727.8875
 903  644.5128
 904  586.5672
 905  597.5159
 906  663.1908
 907  683.1335
 908  734.4304
 909  727.5718
 910  712.4411
 911  699.3539
 912  638.03
 913  587.5839
 914  520.6441
 915  566.1423
 916  715.9839
 917  741.9679
 918  730.1289
 919  707.304
 920  755.0236
 921  760.905
 922  674.8432
 923  624.107
 924  608.4651
 925  657.6748
 926  810.4732
 927  972.0168
 928  909.9335
 929  731.6127
 930  680.3994
 931  690.766
 932  702.3918
 933  662.4593
 934  704.8928
 935  715.2618
 936  723.9683
 937  670.427
 938  691.3204
 939  749.5653
 940  762.0856
 941  754.0289
 942  833.4727
 943  878.5357
 944  869.2186
 945  928.0728
 946  942.5608
 947  983.2429
 948  889.0303
 949  841.9446
 950  762.2491
 951  779.1058
 952  822.8649
 953  873.6813
 954  846.5001
 955  816.734
 956  874.3843
 957  886.6508
 958  836.2303
 959  678.444
 960  681.371
 961  695.106
 962  708.4641
 963  664.4979
 964  694.3351
 965  718.02
 966  731.9592
 967  722.245
 968  831.4901
 969  1007.903
 970  1049.591
 971  931.2239
 972  774.9137
 973  665.8576
 974  732.3691
 975  773.853
 976  781.1699
 977  848.0481
 978  877.2276
 979  851.7313
 980  840.4877
 981  824.9315
 982  965.625
 983  903.0076
 984  864.8288
 985  804.8399
 986  950.9415
 987  950.3261
 988  788.6099
 989  731.757
 990  815.4227
 991  994.3411
 992  1049.26
 993  1009.247
 994  861.4463
 995  836.5215
 996  941.379
 997  966.6604
 998  926.7919
 999  965.04
1000  929.8513
1001  975.7009
1002  936.002
1003  1031.832
1004  1038.756
1005  993.1495
1006  956.1057
1007  873.3354
1008  924.9161
1009  832.8538
1010  925.6697
1011  1008.187
1012  1036.302
1013  1114.081
1014  1050.297
1015  963.3644
1016  814.7259
1017  959.3415
1018  989.5767
1019  843.394
1020  854.7347
1021  919.5405
1022  928.9947
1023  793.7938
