# Input file       =  1180939997.108558_cleaned.dat
# Candidate        =  PSR_0332+5434
# Telescope        =  AR
# Epoch_topo       =  57912.287223478677
# Epoch_bary       =  N/A
# T_sample         =  0.002
# Data Folded      =  7340032
# Data Avg         =  0.0664258102478925
# Data StdDev      =  2.33320314237049 
# Profile Bins     =  512
# Profile Avg      =  952.654768077037 
# Profile StdDev   =  279.361496719831 
# Reduced chi-sqr  =  1.527
# Prob(Noise)      <  1.49e-13   (~7.3 sigma)
# P_topo (ms)      =  714.509549034787  +/- 0.000341
# P'_topo (s/s)    =  -0                +/- 1.8e-10
# P''_topo (s/s^2) =  0                 +/- 7.94e-14
# P_bary (ms)      =  N/A
# P'_bary (s/s)    =  N/A
# P''_bary (s/s^2) =  N/A
# P_orb (s)        =  N/A
# asin(i)/c (s)    =  N/A
# eccentricity     =  N/A
# w (rad)          =  N/A
# T_peri           =  N/A
######################################################
   0  890.3208
   1  1004.332
   2  984.9548
   3  1042.375
   4  964.5771
   5  975.5885
   6  1031.579
   7  855.9365
   8  941.5756
   9  782.7029
  10  943.4407
  11  1215.17
  12  1191.713
  13  998.2927
  14  1171.346
  15  1156.721
  16  981.4537
  17  803.7878
  18  983.6691
  19  924.5563
  20  823.9817
  21  943.737
  22  965.6763
  23  1041.6
  24  1324.576
  25  1036.577
  26  933.229
  27  653.8145
  28  760.762
  29  856.1359
  30  836.9306
  31  1112.536
  32  815.5613
  33  1002.633
  34  1048.614
  35  990.9374
  36  925.0743
  37  953.4681
  38  1072.007
  39  1140.508
  40  999.5147
  41  1026.664
  42  898.7885
  43  857.9762
  44  995.5622
  45  1042.007
  46  1235.391
  47  998.7917
  48  916.083
  49  822.9069
  50  855.1813
  51  580.0199
  52  513.965
  53  959.0259
  54  958.54
  55  894.6836
  56  919.4896
  57  900.8464
  58  814.0793
  59  667.0829
  60  532.2456
  61  687.4694
  62  737.3138
  63  910.1636
  64  992.9642
  65  938.1478
  66  755.8692
  67  774.2193
  68  775.067
  69  443.8103
  70  464.9319
  71  648.3754
  72  1038.4
  73  770.04
  74  587.9186
  75  667.3465
  76  638.6979
  77  848.6693
  78  1036.548
  79  1148.265
  80  1220.112
  81  1115.701
  82  773.0948
  83  893.455
  84  711.1651
  85  786.9041
  86  759.8003
  87  903.0876
  88  821.9825
  89  629.0789
  90  900.8376
  91  786.785
  92  826.8715
  93  942.0837
  94  857.9059
  95  931.6985
  96  969.2941
  97  827.9992
  98  827.5953
  99  833.8204
 100  862.1178
 101  774.5106
 102  729.1478
 103  761.4429
 104  906.3854
 105  773.0054
 106  706.033
 107  689.9423
 108  726.8061
 109  567.5306
 110  632.9943
 111  692.9731
 112  629.2542
 113  747.8917
 114  798.4044
 115  829.8002
 116  1110.251
 117  1105.546
 118  1188.047
 119  1036.455
 120  1017.495
 121  1201.907
 122  1002.505
 123  1134.245
 124  1140.901
 125  590.0226
 126  786.8198
 127  883.3419
 128  889.6807
 129  949.516
 130  878.6672
 131  1126.833
 132  1046.124
 133  749.8784
 134  801.0055
 135  795.7518
 136  765.0837
 137  908.7676
 138  793.4226
 139  884.4624
 140  909.8065
 141  934.7212
 142  866.1315
 143  593.9763
 144  688.35
 145  805.1426
 146  790.4157
 147  739.1548
 148  455.817
 149  466.2589
 150  558.2507
 151  537.8234
 152  754.8154
 153  638.1141
 154  518.8908
 155  703.538
 156  847.7107
 157  821.8174
 158  513.4515
 159  760.8957
 160  984.3417
 161  707.2039
 162  870.0842
 163  859.6556
 164  801.9532
 165  500.9834
 166  580.3438
 167  780.2553
 168  709.1481
 169  602.3021
 170  194.3889
 171  430.6532
 172  585.8617
 173  537.0595
 174  514.9937
 175  724.1934
 176  589.5403
 177  435.5355
 178  623.7996
 179  911.0578
 180  569.056
 181  528.0291
 182  753.8651
 183  865.6812
 184  818.1209
 185  660.626
 186  370.5561
 187  899.2957
 188  781.6839
 189  667.9387
 190  973.2875
 191  1062.34
 192  1028.172
 193  710.752
 194  780.5417
 195  716.2782
 196  786.9319
 197  902.0981
 198  758.001
 199  690.7639
 200  699.7688
 201  772.9114
 202  734.524
 203  795.5668
 204  1035.829
 205  1345.387
 206  1130.105
 207  1032.593
 208  1166.828
 209  1384.324
 210  1169.801
 211  1408.129
 212  1264.343
 213  1196.061
 214  1062.072
 215  1068.95
 216  924.837
 217  1143.349
 218  1087.276
 219  805.0154
 220  1106.129
 221  1212.622
 222  1128.911
 223  959.5988
 224  855.3314
 225  844.6736
 226  716.9462
 227  637.3426
 228  599.9496
 229  809.9438
 230  1002.141
 231  837.0809
 232  789.7382
 233  842.4332
 234  915.159
 235  881.9484
 236  1066.614
 237  1212.917
 238  927.0177
 239  905.5751
 240  920.1403
 241  826.7491
 242  858.3762
 243  700.4312
 244  801.5889
 245  929.9065
 246  1005.583
 247  994.0583
 248  952.1413
 249  935.6541
 250  803.7882
 251  785.7912
 252  987.4803
 253  877.0651
 254  878.6068
 255  1028.31
 256  865.7825
 257  691.5145
 258  659.6105
 259  757.7266
 260  1088.781
 261  1027.481
 262  733.7072
 263  953.5037
 264  740.7734
 265  730.1118
 266  644.3425
 267  946.0163
 268  896.8629
 269  716.6608
 270  1015.641
 271  1148.093
 272  1066.42
 273  1063.748
 274  1178.323
 275  914.939
 276  1046.027
 277  1254.361
 278  1180.627
 279  862.1338
 280  879.3644
 281  1088.436
 282  950.8989
 283  1036.235
 284  1173.603
 285  982.9351
 286  1019.86
 287  937.9218
 288  1053.053
 289  902.1635
 290  959.8337
 291  958.335
 292  893.9373
 293  936.5937
 294  878.7557
 295  962.2365
 296  928.7104
 297  883.1691
 298  935.6378
 299  870.1347
 300  709.4237
 301  795.3143
 302  699.8449
 303  567.4481
 304  739.0536
 305  686.2375
 306  952.2009
 307  1042.597
 308  894.4249
 309  813.3098
 310  676.1039
 311  677.4302
 312  605.3921
 313  724.188
 314  957.7788
 315  921.0235
 316  729.2758
 317  890.3792
 318  1072.119
 319  1002.921
 320  693.6981
 321  464.9063
 322  1016.455
 323  1070.497
 324  950.1777
 325  922.0126
 326  748.161
 327  804.8344
 328  622.6394
 329  619.6409
 330  839.1887
 331  993.8815
 332  971.0427
 333  883.0117
 334  811.0836
 335  691.101
 336  926.3789
 337  807.077
 338  826.1032
 339  719.3788
 340  898.3511
 341  941.4691
 342  514.2144
 343  739.8437
 344  1060.024
 345  1112.761
 346  1294.367
 347  1277.467
 348  997.0898
 349  978.5644
 350  1242.571
 351  1456.686
 352  1432.265
 353  877.9065
 354  863.6055
 355  1070.39
 356  1178.26
 357  1003.691
 358  905.6331
 359  1087.529
 360  1179.641
 361  1233.685
 362  1123.833
 363  996.1226
 364  1053.708
 365  931.3139
 366  875.1386
 367  871.5142
 368  990.9421
 369  1158.753
 370  1161.63
 371  1106.283
 372  1193.19
 373  1158.872
 374  977.4642
 375  828.7836
 376  900.6559
 377  1033.36
 378  1069.045
 379  1006.583
 380  1228.718
 381  915.1382
 382  880.4065
 383  1000.121
 384  1161.467
 385  1219.302
 386  1162.357
 387  1085.127
 388  1143.284
 389  1036.079
 390  845.3762
 391  702.9128
 392  862.5276
 393  921.6406
 394  1044.743
 395  815.6042
 396  865.794
 397  1017.324
 398  1002.909
 399  1245.719
 400  1077.706
 401  1100.61
 402  917.2697
 403  935.0893
 404  1159.036
 405  1120.936
 406  797.6153
 407  981.6477
 408  1040.268
 409  996.4547
 410  1124.449
 411  1074.234
 412  1009.486
 413  1024.709
 414  951.8065
 415  1308.794
 416  1225.99
 417  1321.547
 418  1154.53
 419  1069.887
 420  1295.157
 421  1377.83
 422  1350.105
 423  1330.732
 424  1137.033
 425  1134.231
 426  1119.236
 427  1100.243
 428  1260.292
 429  1162.541
 430  1203.334
 431  1071.982
 432  1058.732
 433  950.2282
 434  907.8234
 435  1041.889
 436  1128.024
 437  1081.783
 438  877.1904
 439  1136.352
 440  1127.869
 441  1150.317
 442  1369.083
 443  1280.996
 444  1306.279
 445  1295.181
 446  1160.759
 447  1097.806
 448  1293.424
 449  1019.08
 450  1118.53
 451  1175.598
 452  1028.911
 453  1153.837
 454  1307.334
 455  1143.177
 456  1090.243
 457  1104.515
 458  1240.707
 459  1589.024
 460  2015.341
 461  2400.531
 462  2258.173
 463  2312.823
 464  2423.531
 465  1979.363
 466  1518.92
 467  1493.061
 468  1387.024
 469  926.2284
 470  1266.023
 471  1143.685
 472  929.4409
 473  851.2811
 474  1035.593
 475  1291.442
 476  1181.085
 477  1131.679
 478  899.2263
 479  1143.706
 480  1425.089
 481  969.4481
 482  749.162
 483  945.888
 484  1062.643
 485  1026.644
 486  933.1327
 487  987.6083
 488  979.4298
 489  1099.38
 490  1062.623
 491  1021.142
 492  1071.78
 493  1146.945
 494  860.4304
 495  734.1656
 496  957.248
 497  1340.327
 498  1388.674
 499  1102.461
 500  992.7624
 501  1088.131
 502  1111.745
 503  877.1215
 504  988.8722
 505  1098.823
 506  1155.347
 507  1010.093
 508  1104.062
 509  1202.587
 510  1159.027
 511  1248.697
