# Input file       =  1180250726.097181_cleaned.dat
# Candidate        =  PSR_0332+5434
# Telescope        =  AR
# Epoch_topo       =  57904.309549735895
# Epoch_bary       =  N/A
# T_sample         =  0.002
# Data Folded      =  7340032
# Data Avg         =  0.105452935581395
# Data StdDev      =  2.91841880558211 
# Profile Bins     =  1024
# Profile Avg      =  755.961437920833 
# Profile StdDev   =  247.085132195341 
# Reduced chi-sqr  =  1.239
# Prob(Noise)      <  2.27e-07   (~5.0 sigma)
# P_topo (ms)      =  714.517259207823  +/- 0.00023
# P'_topo (s/s)    =  -0                +/- 1.22e-10
# P''_topo (s/s^2) =  0                 +/- 5.37e-14
# P_bary (ms)      =  N/A
# P'_bary (s/s)    =  N/A
# P''_bary (s/s^2) =  N/A
# P_orb (s)        =  N/A
# asin(i)/c (s)    =  N/A
# eccentricity     =  N/A
# w (rad)          =  N/A
# T_peri           =  N/A
######################################################
   0  798.1292
   1  940.1749
   2  1017.149
   3  972.3984
   4  966.1585
   5  925.2171
   6  939.2586
   7  859.9293
   8  811.2498
   9  829.3243
  10  697.0841
  11  584.6677
  12  570.1886
  13  700.2111
  14  800.6519
  15  887.5682
  16  894.855
  17  953.6181
  18  905.2213
  19  918.1417
  20  872.8622
  21  821.5528
  22  774.4282
  23  796.8964
  24  833.8859
  25  810.8947
  26  754.2909
  27  762.4588
  28  947.1594
  29  1002.569
  30  1041.407
  31  911.0909
  32  933.69
  33  911.2335
  34  923.3748
  35  946.2664
  36  944.8604
  37  954.0176
  38  895.1833
  39  915.2398
  40  926.5357
  41  904.5864
  42  914.4072
  43  884.0515
  44  833.0532
  45  702.9264
  46  665.0162
  47  735.4626
  48  851.5593
  49  878.8515
  50  858.0527
  51  908.4905
  52  880.0041
  53  786.2332
  54  800.7101
  55  908.4902
  56  826.0534
  57  706.3228
  58  676.246
  59  767.744
  60  762.1065
  61  836.7927
  62  878.3149
  63  819.7251
  64  726.8696
  65  742.0271
  66  850.7532
  67  992.4794
  68  1067.442
  69  1037.465
  70  895.1591
  71  741.9789
  72  851.4254
  73  946.9492
  74  971.7919
  75  932.8365
  76  961.7082
  77  948.2083
  78  879.3184
  79  926.5707
  80  948.8726
  81  1055.172
  82  1020.144
  83  1011.857
  84  844.3805
  85  720.7589
  86  699.8454
  87  781.3863
  88  878.1176
  89  810.2048
  90  707.6809
  91  618.0021
  92  622.3583
  93  610.1752
  94  764.2684
  95  822.9496
  96  812.2896
  97  764.3355
  98  890.7471
  99  995.1455
 100  853.3901
 101  810.1862
 102  785.6196
 103  826.294
 104  617.213
 105  478.5075
 106  473.2086
 107  520.388
 108  693.566
 109  718.256
 110  831.2269
 111  721.7641
 112  696.4777
 113  673.3687
 114  667.6812
 115  643.6658
 116  510.9706
 117  525.1553
 118  620.7327
 119  553.3477
 120  457.2324
 121  392.562
 122  416.7675
 123  385.2251
 124  445.8511
 125  492.7449
 126  528.8873
 127  485.1918
 128  511.7766
 129  558.1075
 130  611.2418
 131  616.2091
 132  627.115
 133  655.9219
 134  724.0612
 135  626.36
 136  528.5417
 137  562.5449
 138  584.3348
 139  560.9586
 140  468.2928
 141  472.3672
 142  560.6074
 143  620.4948
 144  658.0553
 145  745.1246
 146  892.6234
 147  956.1464
 148  993.9273
 149  876.4651
 150  822.3475
 151  736.326
 152  683.2355
 153  623.6933
 154  670.0119
 155  749.6329
 156  751.9117
 157  800.4832
 158  883.1846
 159  891.0027
 160  935.8319
 161  886.45
 162  870.3328
 163  788.5529
 164  805.6887
 165  819.6488
 166  848.5416
 167  809.0137
 168  803.558
 169  889.2814
 170  949.369
 171  933.1143
 172  868.3768
 173  751.0138
 174  675.5839
 175  723.3311
 176  802.0191
 177  757.5378
 178  668.4465
 179  757.663
 180  870.1057
 181  861.658
 182  800.7482
 183  829.8105
 184  809.6003
 185  794.9603
 186  804.0482
 187  842.9669
 188  784.915
 189  729.0328
 190  761.8251
 191  854.981
 192  874.4995
 193  883.2408
 194  845.8809
 195  846.2055
 196  761.0303
 197  683.5569
 198  656.3367
 199  706.5495
 200  767.3193
 201  701.2418
 202  776.6626
 203  792.277
 204  787.1346
 205  621.4172
 206  650.5029
 207  565.3132
 208  565.9468
 209  521.1097
 210  549.6177
 211  576.5316
 212  579.6337
 213  782.7265
 214  804.8357
 215  915.399
 216  863.6393
 217  824.3171
 218  673.3573
 219  629.9525
 220  610.1934
 221  581.9927
 222  554.0694
 223  562.8268
 224  577.2466
 225  526.9222
 226  483.1354
 227  569.9968
 228  683.9188
 229  769.8661
 230  877.7698
 231  884.141
 232  801.801
 233  661.4911
 234  690.278
 235  845.5037
 236  937.8894
 237  868.3436
 238  698.8952
 239  655.5422
 240  654.031
 241  861.9733
 242  904.5911
 243  834.3668
 244  650.9233
 245  647.6196
 246  788.4152
 247  909.2455
 248  917.0274
 249  884.5913
 250  854.4024
 251  851.9299
 252  747.7021
 253  738.6908
 254  738.265
 255  844.6458
 256  863.6882
 257  921.5626
 258  882.288
 259  806.0192
 260  744.8968
 261  748.3265
 262  819.784
 263  784.4498
 264  762.4653
 265  701.4979
 266  663.6954
 267  717.4694
 268  712.9936
 269  668.2927
 270  551.1559
 271  639.6566
 272  669.5334
 273  617.9646
 274  641.6615
 275  697.4579
 276  772.9251
 277  749.848
 278  797.4539
 279  745.7768
 280  666.6766
 281  603.3822
 282  667.5156
 283  704.0167
 284  656.5608
 285  584.7955
 286  527.2197
 287  621.4312
 288  629.5657
 289  581.4446
 290  468.4425
 291  462.7053
 292  510.3962
 293  492.3043
 294  602.8868
 295  623.1278
 296  597.8752
 297  529.8493
 298  567.0745
 299  608.4933
 300  662.8696
 301  689.9635
 302  741.727
 303  714.9207
 304  675.8494
 305  696.9173
 306  643.0615
 307  612.5181
 308  523.7935
 309  645.3586
 310  617.6302
 311  558.6671
 312  500.1786
 313  649.1543
 314  688.4596
 315  655.0546
 316  645.1587
 317  714.9796
 318  713.7087
 319  709.1465
 320  733.1891
 321  684.0101
 322  598.4725
 323  549.343
 324  691.9912
 325  720.523
 326  786.5502
 327  766.4284
 328  906.5021
 329  955.9118
 330  1013.076
 331  878.4617
 332  851.67
 333  793.6031
 334  821.0068
 335  797.4553
 336  798.9898
 337  797.0825
 338  907.4462
 339  816.7777
 340  740.6024
 341  631.078
 342  726.1859
 343  692.2745
 344  708.2539
 345  745.3583
 346  853.1901
 347  809.8585
 348  743.3177
 349  708.9155
 350  712.4639
 351  806.939
 352  826.4167
 353  801.7341
 354  644.065
 355  722.692
 356  652.5859
 357  661.8273
 358  514.0734
 359  538.4124
 360  610.0699
 361  566.4575
 362  620.5345
 363  631.847
 364  761.1077
 365  725.6468
 366  735.6587
 367  640.3909
 368  616.8759
 369  517.0412
 370  564.3289
 371  633.3209
 372  732.1591
 373  728.7216
 374  660.2922
 375  550.5253
 376  554.9515
 377  643.2284
 378  824.5607
 379  829.2077
 380  798.7868
 381  700.9572
 382  610.8069
 383  671.5037
 384  695.9412
 385  792.1786
 386  865.5364
 387  998.6549
 388  1022.624
 389  998.4034
 390  852.8594
 391  766.0159
 392  733.0935
 393  873.9008
 394  880.1017
 395  796.4475
 396  640.0107
 397  665.7693
 398  738.6017
 399  765.8002
 400  718.5619
 401  745.4539
 402  833.0772
 403  887.5627
 404  806.7354
 405  877.854
 406  820.167
 407  880.8144
 408  773.4024
 409  765.554
 410  714.0466
 411  710.9089
 412  854.1978
 413  904.8398
 414  807.2424
 415  666.3641
 416  627.3467
 417  748.4384
 418  785.3585
 419  720.9391
 420  641.6487
 421  632.55
 422  772.7203
 423  880.5826
 424  957.316
 425  922.3958
 426  872.4989
 427  914.7512
 428  910.0202
 429  895.5587
 430  819.4722
 431  746.3583
 432  812.142
 433  832.9673
 434  938.1833
 435  838.2233
 436  772.0442
 437  777.3115
 438  824.66
 439  799.3921
 440  767.7714
 441  785.3528
 442  793.7794
 443  770.884
 444  772.5849
 445  953.2846
 446  949.8276
 447  889.6902
 448  820.527
 449  880.6382
 450  900.7551
 451  771.2437
 452  597.202
 453  585.5059
 454  662.989
 455  685.3334
 456  622.4363
 457  612.8807
 458  653.585
 459  707.5609
 460  743.412
 461  678.3984
 462  688.9091
 463  622.2457
 464  701.759
 465  678.3947
 466  682.2706
 467  577.3959
 468  584.6036
 469  543.9076
 470  561.6205
 471  455.8878
 472  508.8182
 473  485.3068
 474  600.3817
 475  578.6894
 476  589.7357
 477  559.3634
 478  573.8919
 479  599.4852
 480  589.0391
 481  553.1397
 482  543.3074
 483  546.1385
 484  570.8054
 485  693.1802
 486  737.6815
 487  700.3015
 488  609.856
 489  524.4749
 490  626.0422
 491  600.191
 492  600.882
 493  529.3716
 494  566.3376
 495  558.2993
 496  687.2009
 497  759.6735
 498  719.9453
 499  696.2671
 500  716.4564
 501  798.8726
 502  787.7846
 503  693.6682
 504  662.8594
 505  715.3426
 506  766.5269
 507  762.5074
 508  673.9396
 509  687.5825
 510  784.8973
 511  877.1725
 512  799.8923
 513  722.1912
 514  643.4319
 515  775.5145
 516  674.4785
 517  763.0285
 518  805.2838
 519  862.3792
 520  796.7403
 521  762.3477
 522  817.5219
 523  803.1565
 524  766.0944
 525  696.696
 526  690.3217
 527  737.9101
 528  778.3167
 529  779.193
 530  663.1477
 531  691.8573
 532  653.3149
 533  698.7579
 534  714.9314
 535  783.2814
 536  861.4685
 537  829.9033
 538  904.2036
 539  816.3851
 540  792.7071
 541  714.0008
 542  732.8741
 543  884.7471
 544  879.3509
 545  878.8282
 546  652.8533
 547  533.2999
 548  540.5121
 549  566.2153
 550  686.8876
 551  707.4782
 552  853.1002
 553  884.0071
 554  852.8854
 555  905.8997
 556  896.1769
 557  843.6568
 558  771.1372
 559  712.4929
 560  663.2498
 561  612.2793
 562  585.3544
 563  695.0873
 564  762.0991
 565  782.9222
 566  780.4193
 567  755.8691
 568  769.8272
 569  747.9073
 570  859.0872
 571  778.9504
 572  737.0078
 573  736.9683
 574  757.0662
 575  835.2571
 576  903.3284
 577  923.3914
 578  770.4313
 579  689.8029
 580  680.1155
 581  761.0599
 582  744.5526
 583  820.7175
 584  813.6918
 585  810.311
 586  798.112
 587  759.2996
 588  846.5479
 589  936.1932
 590  1008.227
 591  962.6135
 592  770.2897
 593  765.5135
 594  841.8725
 595  984.1141
 596  891.2813
 597  734.8347
 598  627.6473
 599  720.4122
 600  880.384
 601  960.2662
 602  943.4564
 603  894.4838
 604  812.3988
 605  764.7095
 606  826.6896
 607  893.5864
 608  858.0548
 609  798.4328
 610  780.936
 611  846.9911
 612  756.9713
 613  771.8682
 614  818.6255
 615  869.7332
 616  715.9265
 617  624.026
 618  698.9471
 619  825.0512
 620  943.4493
 621  976.1945
 622  929.0286
 623  753.1286
 624  719.802
 625  743.1852
 626  723.3278
 627  695.9348
 628  680.078
 629  673.8328
 630  727.9042
 631  710.5554
 632  704.8658
 633  703.2422
 634  737.3066
 635  717.6578
 636  788.0037
 637  785.7401
 638  704.3314
 639  640.8013
 640  598.086
 641  703.7549
 642  752.488
 643  839.3939
 644  794.8325
 645  711.491
 646  653.2184
 647  639.022
 648  648.7457
 649  680.6268
 650  594.0232
 651  539.7792
 652  614.3121
 653  747.2142
 654  805.8159
 655  752.5995
 656  691.837
 657  710.0496
 658  738.9213
 659  778.8146
 660  842.7103
 661  892.8599
 662  894.145
 663  777.972
 664  727.2648
 665  731.1815
 666  819.238
 667  798.3844
 668  870.0212
 669  849.509
 670  956.2643
 671  968.6224
 672  962.0121
 673  937.1557
 674  845.8099
 675  839.1206
 676  897.4828
 677  945.1776
 678  996.523
 679  1069.778
 680  1115.445
 681  1069.52
 682  975.9091
 683  841.1127
 684  773.9404
 685  777.1052
 686  914.0966
 687  957.7349
 688  919.8406
 689  874.0586
 690  937.0345
 691  1056.802
 692  1159.479
 693  1047.248
 694  957.0172
 695  814.2806
 696  824.1542
 697  877.7189
 698  916.6359
 699  918.6724
 700  855.4168
 701  823.0317
 702  831.8709
 703  838.9854
 704  865.6794
 705  855.0391
 706  908.565
 707  869.2507
 708  919.5026
 709  904.7066
 710  869.6571
 711  786.4375
 712  757.0252
 713  850.2924
 714  842.2807
 715  748.0688
 716  612.8273
 717  679.5775
 718  798.0913
 719  830.0295
 720  791.3924
 721  620.662
 722  543.0584
 723  637.3311
 724  767.0065
 725  806.8141
 726  704.3472
 727  677.6112
 728  636.3344
 729  620.2188
 730  658.9896
 731  702.6372
 732  783.1629
 733  808.6243
 734  797.4552
 735  740.9398
 736  690.2327
 737  721.2016
 738  688.2662
 739  734.8419
 740  678.0499
 741  779.5543
 742  792.5455
 743  822.6921
 744  798.201
 745  876.2728
 746  950.9205
 747  900.1432
 748  876.9979
 749  1021.438
 750  1092.831
 751  1095.97
 752  1138.432
 753  1292.448
 754  1451.063
 755  1491.265
 756  1466.981
 757  1468.427
 758  1570.698
 759  1539.279
 760  1531.126
 761  1412.752
 762  1322.932
 763  1171.592
 764  999.7678
 765  881.8395
 766  832.822
 767  888.0799
 768  933.8533
 769  1046.017
 770  999.7261
 771  897.0654
 772  805.4979
 773  818.9408
 774  910.7728
 775  773.4947
 776  743.7305
 777  663.3024
 778  757.586
 779  786.473
 780  895.821
 781  930.3548
 782  930.9206
 783  975.4371
 784  1002.903
 785  991.0406
 786  913.5907
 787  854.0767
 788  752.4385
 789  691.0486
 790  768.2534
 791  732.6902
 792  737.8077
 793  733.8803
 794  775.0869
 795  681.3431
 796  546.8723
 797  592.2369
 798  551.4548
 799  401.2469
 800  305.4229
 801  453.3217
 802  480.5913
 803  415.2545
 804  382.9133
 805  505.9037
 806  706.7202
 807  748.8624
 808  723.1023
 809  616.1125
 810  563.5294
 811  469.5771
 812  403.6224
 813  383.3764
 814  490.4746
 815  537.2589
 816  544.473
 817  457.0759
 818  500.1982
 819  489.2333
 820  483.6249
 821  463.5479
 822  454.3692
 823  416.085
 824  323.0286
 825  334.3104
 826  341.7529
 827  401.5737
 828  455.1982
 829  495.9712
 830  506.1527
 831  513.3887
 832  558.5178
 833  665.1327
 834  704.6746
 835  786.7709
 836  826.403
 837  820.0108
 838  785.3987
 839  776.0901
 840  705.6024
 841  714.2684
 842  650.5334
 843  694.4695
 844  681.4694
 845  625.7437
 846  556.5148
 847  600.0115
 848  811.8292
 849  824.1555
 850  761.5537
 851  810.1635
 852  846.4835
 853  834.58
 854  689.1264
 855  688.4965
 856  785.9924
 857  830.942
 858  745.206
 859  753.767
 860  762.4182
 861  671.6233
 862  618.6236
 863  630.801
 864  716.5793
 865  702.8647
 866  835.9903
 867  885.2448
 868  979.9776
 869  947.0974
 870  884.4612
 871  887.2808
 872  910.426
 873  892.714
 874  769.7722
 875  677.7068
 876  700.9195
 877  749.2229
 878  751.6511
 879  728.6202
 880  769.197
 881  726.3183
 882  711.683
 883  621.0584
 884  605.7522
 885  713.5815
 886  804.375
 887  825.8638
 888  694.7211
 889  536.3466
 890  534.3646
 891  528.659
 892  607.3805
 893  613.9592
 894  548.9484
 895  575.3983
 896  663.3545
 897  770.9643
 898  752.0538
 899  777.9365
 900  871.5057
 901  869.381
 902  788.001
 903  745.3758
 904  696.075
 905  648.3372
 906  587.489
 907  632.5367
 908  769.9489
 909  774.7399
 910  715.3885
 911  733.283
 912  810.1668
 913  885.7031
 914  799.8348
 915  733.1071
 916  660.6424
 917  712.5508
 918  754.2172
 919  650.8994
 920  686.0641
 921  789.1057
 922  874.7093
 923  861.2371
 924  831.5867
 925  815.5033
 926  743.49
 927  725.2142
 928  614.3068
 929  578.0742
 930  605.3758
 931  604.5952
 932  666.9197
 933  803.2297
 934  855.6672
 935  794.6924
 936  743.2042
 937  797.124
 938  883.2038
 939  870.659
 940  816.03
 941  757.585
 942  740.4394
 943  850.1199
 944  802.3953
 945  778.4905
 946  707.2822
 947  738.8909
 948  735.0211
 949  746.9924
 950  757.0328
 951  786.6062
 952  739.4117
 953  743.0257
 954  762.0742
 955  757.9897
 956  783.3585
 957  827.4206
 958  843.079
 959  801.5291
 960  687.3686
 961  695.4803
 962  713.916
 963  764.9418
 964  732.8943
 965  690.7878
 966  698.8099
 967  740.3902
 968  800.701
 969  746.2333
 970  669.6128
 971  578.3955
 972  580.4215
 973  634.1717
 974  705.5829
 975  782.9639
 976  714.3527
 977  608.2914
 978  517.6966
 979  534.8522
 980  661.594
 981  744.0974
 982  752.2249
 983  617.8541
 984  538.4659
 985  603.5372
 986  703.2437
 987  730.1434
 988  806.1168
 989  778.6602
 990  709.5928
 991  511.8515
 992  500.7017
 993  478.3097
 994  643.0386
 995  751.2029
 996  743.3524
 997  661.1058
 998  685.4823
 999  814.4761
1000  843.3336
1001  777.5956
1002  748.3444
1003  784.7017
1004  672.9232
1005  600.9139
1006  634.0897
1007  797.9415
1008  834.1644
1009  844.8904
1010  887.8937
1011  931.708
1012  910.8342
1013  879.3919
1014  938.6326
1015  1069.036
1016  1080.887
1017  984.8408
1018  870.6952
1019  894.4301
1020  815.6064
1021  814.415
1022  744.0233
1023  782.2879
