# Input file       =  1180767674.113528_cleaned.dat
# Candidate        =  PSR_0332+5434
# Telescope        =  AR
# Epoch_topo       =  57910.292744369537
# Epoch_bary       =  N/A
# T_sample         =  0.002
# Data Folded      =  7340032
# Data Avg         =  0.0643223572302046
# Data StdDev      =  2.24590866222246 
# Profile Bins     =  512
# Profile Avg      =  921.514586658352 
# Profile StdDev   =  268.909463552776 
# Reduced chi-sqr  =  1.674
# Prob(Noise)      <  8.98e-20   (~9.0 sigma)
# P_topo (ms)      =  714.511456050075  +/- 0.000276
# P'_topo (s/s)    =  -0                +/- 1.46e-10
# P''_topo (s/s^2) =  0                 +/- 6.43e-14
# P_bary (ms)      =  N/A
# P'_bary (s/s)    =  N/A
# P''_bary (s/s^2) =  N/A
# P_orb (s)        =  N/A
# asin(i)/c (s)    =  N/A
# eccentricity     =  N/A
# w (rad)          =  N/A
# T_peri           =  N/A
######################################################
   0  1112.999
   1  748.6275
   2  520.7846
   3  322.6727
   4  324.8333
   5  701.0079
   6  898.6966
   7  818.7977
   8  683.1377
   9  750.2155
  10  884.9359
  11  574.7903
  12  537.0205
  13  605.4816
  14  765.5922
  15  828.2557
  16  686.4431
  17  704.6965
  18  720.8074
  19  676.8801
  20  1050.878
  21  799.0721
  22  540.6554
  23  689.6357
  24  636.6762
  25  817.5508
  26  1040.99
  27  1031.134
  28  768.5959
  29  709.3641
  30  803.2385
  31  762.2885
  32  867.1951
  33  1012.067
  34  604.0134
  35  788.9088
  36  727.7884
  37  782.784
  38  1046.422
  39  865.0334
  40  773.3054
  41  730.3209
  42  801.825
  43  874.6512
  44  632.26
  45  669.0319
  46  655.9889
  47  623.9971
  48  611.9678
  49  550.2362
  50  958.0867
  51  920.4728
  52  741.401
  53  641.0088
  54  600.6027
  55  892.3617
  56  849.6799
  57  846.3444
  58  1044.071
  59  1143.096
  60  1012.604
  61  900.6081
  62  807.8906
  63  939.6719
  64  808.7123
  65  901.0002
  66  937.1247
  67  1006.872
  68  979.2545
  69  784.6489
  70  863.8027
  71  968.16
  72  1089.926
  73  1055.835
  74  1097.614
  75  1333.653
  76  1110.32
  77  1145.972
  78  1058.422
  79  1062.216
  80  1160.275
  81  1459.534
  82  1244.967
  83  981.3497
  84  1004.167
  85  940.2017
  86  807.5012
  87  799.2389
  88  1052.533
  89  1317.502
  90  1186.052
  91  995.6603
  92  1051.454
  93  1086.408
  94  790.8214
  95  754.7461
  96  937.8071
  97  822.3141
  98  704.0735
  99  817.5612
 100  697.8585
 101  850.0656
 102  851.4051
 103  567.4635
 104  718.7858
 105  1069.554
 106  618.2462
 107  513.9678
 108  969.2275
 109  1009.496
 110  1166.75
 111  1245.422
 112  1224.972
 113  1144.394
 114  1184.128
 115  1238.452
 116  1202.915
 117  1177.939
 118  1340.945
 119  1160.616
 120  1199.104
 121  861.8281
 122  754.3943
 123  1174.677
 124  1068.741
 125  801.329
 126  712.0571
 127  703.0208
 128  845.0486
 129  823.7455
 130  710.1698
 131  603.5029
 132  728.2643
 133  936.6737
 134  921.7946
 135  954.7346
 136  924.183
 137  977.4691
 138  970.5388
 139  1021.969
 140  1194.839
 141  1006.227
 142  1063.44
 143  1106.725
 144  833.4195
 145  1034.071
 146  1003.074
 147  797.1129
 148  1081.703
 149  1165.932
 150  1524.526
 151  1054.999
 152  954.0892
 153  877.4234
 154  1086.232
 155  1045.689
 156  893.7576
 157  1066.62
 158  994.7452
 159  1050.217
 160  1102.772
 161  873.1832
 162  712.5221
 163  861.0793
 164  976.7335
 165  1098.108
 166  1089.59
 167  1083.457
 168  1238.08
 169  1394.783
 170  1294.236
 171  1249.278
 172  1372.934
 173  1319.757
 174  1261.738
 175  1167.04
 176  1262.399
 177  1034.694
 178  944.2224
 179  879.7575
 180  868.437
 181  1021.505
 182  1078.386
 183  1190.904
 184  974.6108
 185  822.7759
 186  962.8364
 187  1029.103
 188  866.197
 189  948.5065
 190  1005.602
 191  1089.594
 192  940.4797
 193  667.387
 194  861.2422
 195  941.1105
 196  1103.409
 197  1144.519
 198  969.6541
 199  858.2916
 200  962.8697
 201  638.9844
 202  626.8471
 203  699.4151
 204  499.8527
 205  556.4379
 206  674.534
 207  766.5598
 208  679.4145
 209  870.4789
 210  1226.495
 211  1069.64
 212  726.7488
 213  427.764
 214  617.4153
 215  910.3477
 216  888.6005
 217  674.0869
 218  864.6056
 219  616.648
 220  557.0975
 221  596.0579
 222  652.2654
 223  801.4119
 224  635.2642
 225  954.2796
 226  834.8901
 227  833.2408
 228  653.3685
 229  741.1207
 230  1007.7
 231  935.124
 232  924.1876
 233  769.0438
 234  559.5562
 235  630.8105
 236  1045.052
 237  891.7642
 238  810.6442
 239  797.1415
 240  846.9611
 241  696.7592
 242  930.7762
 243  741.193
 244  819.3768
 245  807.4731
 246  819.92
 247  648.9106
 248  618.2731
 249  853.1705
 250  872.5198
 251  837.0729
 252  897.4291
 253  923.2435
 254  784.3984
 255  878.369
 256  826.1244
 257  943.3323
 258  1009.707
 259  782.0809
 260  938.2542
 261  1048.428
 262  961.1638
 263  1062.08
 264  868.53
 265  710.7608
 266  1020.762
 267  960.7729
 268  722.3686
 269  785.802
 270  871.607
 271  864.2236
 272  621.0769
 273  588.0781
 274  623.1774
 275  731.705
 276  772.4154
 277  848.0674
 278  624.549
 279  701.6805
 280  719.0754
 281  669.7505
 282  954.2533
 283  1018.686
 284  880.5645
 285  807.7358
 286  785.6049
 287  697.3024
 288  958.3303
 289  1200.126
 290  903.3385
 291  757.5898
 292  1078.139
 293  1131.189
 294  1073.298
 295  1009.611
 296  1046.875
 297  1086.886
 298  866.9502
 299  755.7804
 300  1102.634
 301  1039.018
 302  1019.149
 303  1062.325
 304  1045.211
 305  752.8731
 306  1239.628
 307  1214.731
 308  862.0831
 309  1001.943
 310  1065.802
 311  1240.805
 312  1124.753
 313  1190.056
 314  1321.63
 315  1052.128
 316  1258.379
 317  1166.483
 318  1326.299
 319  1262.861
 320  1156.551
 321  1082.638
 322  1105.104
 323  1010.63
 324  1157.505
 325  1470.162
 326  1787.597
 327  2362.117
 328  2810.438
 329  2667.448
 330  2158.552
 331  1588.808
 332  968.2182
 333  989.3563
 334  832.3483
 335  670.9315
 336  948.978
 337  1116.2
 338  1108.644
 339  979.3135
 340  1087.781
 341  1088.051
 342  852.8309
 343  1117.191
 344  863.932
 345  1146.584
 346  1079.063
 347  1013.239
 348  899.6905
 349  1068.144
 350  980.6036
 351  689.5916
 352  689.8428
 353  592.5253
 354  416.1464
 355  595.4797
 356  809.3834
 357  678.681
 358  663.2122
 359  785.0539
 360  883.96
 361  846.7302
 362  784.0748
 363  908.0763
 364  690.0469
 365  593.109
 366  913.7496
 367  1025.485
 368  776.434
 369  631.5917
 370  609.3303
 371  930.6905
 372  851.931
 373  772.2004
 374  813.6475
 375  362.9901
 376  460.2685
 377  726.6853
 378  985.3654
 379  925.4528
 380  759.6742
 381  640.1501
 382  523.121
 383  500.0111
 384  696.0436
 385  840.8043
 386  702.0643
 387  658.7817
 388  549.7533
 389  624.5524
 390  772.1675
 391  982.8497
 392  965.6889
 393  915.5769
 394  729.7005
 395  819.2134
 396  973.7416
 397  867.6818
 398  780.4324
 399  796.3126
 400  751.7494
 401  812.3254
 402  667.6339
 403  997.8594
 404  1078.86
 405  978.6036
 406  815.3854
 407  854.0846
 408  894.8409
 409  965.9656
 410  1089.742
 411  1203.517
 412  1128.152
 413  1125.506
 414  1309.704
 415  1074.655
 416  1028.551
 417  1136.995
 418  1239.309
 419  1279.642
 420  1114.546
 421  1214.49
 422  1034.82
 423  821.4355
 424  1107.014
 425  1106.607
 426  1173.885
 427  1002.462
 428  837.676
 429  949.635
 430  1096.748
 431  931.9219
 432  767.6065
 433  511.0883
 434  681.6366
 435  1169.353
 436  1114.832
 437  833.5379
 438  1053.934
 439  1111.257
 440  1102.824
 441  1012.272
 442  843.6923
 443  1062.343
 444  1124.777
 445  980.654
 446  678.6569
 447  759.8842
 448  896.8091
 449  1033.061
 450  1074.242
 451  986.5279
 452  945.4844
 453  958.4161
 454  928.025
 455  900.9924
 456  931.262
 457  1006.345
 458  1060.239
 459  1079.151
 460  918.7248
 461  894.1776
 462  888.8548
 463  1338.346
 464  1095.823
 465  696.0607
 466  383.4936
 467  786.7761
 468  725.1873
 469  547.8361
 470  722.3365
 471  620.6433
 472  456.9317
 473  509.1629
 474  668.7535
 475  803.2314
 476  967.7621
 477  857.5723
 478  813.6501
 479  1203.928
 480  1195.788
 481  981.7163
 482  932.2365
 483  976.1427
 484  951.6047
 485  907.4449
 486  1121.115
 487  1193.782
 488  1045.838
 489  943.1542
 490  911.4702
 491  1086.5
 492  982.955
 493  1171.635
 494  1146.339
 495  939.0005
 496  1123.573
 497  960.2039
 498  745.0668
 499  1111.031
 500  1165.345
 501  904.9813
 502  946.7227
 503  1024.621
 504  896.1949
 505  842.9035
 506  836.9122
 507  629.3257
 508  610.3757
 509  659.2739
 510  1004.525
 511  1024.506
