# Input file       =  1180164504.097987_cleaned.dat
# Candidate        =  PSR_0332+5434
# Telescope        =  AR
# Epoch_topo       =  57903.311609930402
# Epoch_bary       =  N/A
# T_sample         =  0.002
# Data Folded      =  7340032
# Data Avg         =  0.0306486489395871
# Data StdDev      =  1.00020111974769 
# Profile Bins     =  512
# Profile Avg      =  439.402630020705 
# Profile StdDev   =  119.757117054832 
# Reduced chi-sqr  =  1.298
# Prob(Noise)      <  6.08e-06   (~4.4 sigma)
# P_topo (ms)      =  714.518237189791  +/- 0.000225
# P'_topo (s/s)    =  -0                +/- 1.19e-10
# P''_topo (s/s^2) =  0                 +/- 5.24e-14
# P_bary (ms)      =  N/A
# P'_bary (s/s)    =  N/A
# P''_bary (s/s^2) =  N/A
# P_orb (s)        =  N/A
# asin(i)/c (s)    =  N/A
# eccentricity     =  N/A
# w (rad)          =  N/A
# T_peri           =  N/A
######################################################
   0  410.3184
   1  472.8651
   2  389.2712
   3  356.4047
   4  424.4241
   5  446.6723
   6  391.6823
   7  326.584
   8  347.3043
   9  224.8323
  10  297.7718
  11  396.414
  12  455.0772
  13  380.3674
  14  364.5014
  15  428.1974
  16  360.8417
  17  391.8977
  18  586.3312
  19  348.1571
  20  434.9846
  21  569.9543
  22  601.7214
  23  499.1143
  24  579.7427
  25  656.8242
  26  624.2144
  27  670.5927
  28  567.862
  29  562.7338
  30  588.4039
  31  544.2679
  32  616.6669
  33  522.1226
  34  496.7365
  35  487.7217
  36  441.4951
  37  475.964
  38  558.8953
  39  487.5318
  40  476.9349
  41  419.9612
  42  410.0828
  43  397.1022
  44  315.5283
  45  394.2126
  46  377.1059
  47  341.9091
  48  224.4616
  49  274.246
  50  304.6635
  51  427.2454
  52  438.798
  53  395.7199
  54  333.7319
  55  368.9061
  56  447.8694
  57  388.5918
  58  365.1323
  59  379.048
  60  399.1783
  61  372.6132
  62  393.081
  63  392.8345
  64  448.2767
  65  475.2127
  66  515.9175
  67  522.3187
  68  547.5374
  69  518.2484
  70  399.1085
  71  316.1505
  72  381.6085
  73  420.7692
  74  532.5981
  75  445.0255
  76  408.209
  77  477.4033
  78  407.2478
  79  414.4169
  80  455.2215
  81  489.9059
  82  530.6852
  83  522.5258
  84  498.4275
  85  526.9109
  86  563.2209
  87  511.8265
  88  416.6707
  89  411.5315
  90  458.4897
  91  467.6132
  92  384.0653
  93  354.2198
  94  431.218
  95  528.2577
  96  469.6419
  97  412.6054
  98  386.2394
  99  331.4061
 100  284.5893
 101  298.1162
 102  369.4223
 103  362.235
 104  442.6897
 105  391.8453
 106  470.6073
 107  380.5376
 108  464.4167
 109  517.7684
 110  531.9204
 111  418.5447
 112  424.1837
 113  505.9108
 114  638.8177
 115  616.676
 116  619.0039
 117  454.882
 118  499.8301
 119  481.5129
 120  482.9784
 121  444.351
 122  396.4167
 123  354.9516
 124  336.4454
 125  364.6478
 126  374.7516
 127  425.6921
 128  443.5074
 129  514.4061
 130  459.937
 131  479.9529
 132  398.9723
 133  334.9882
 134  433.6878
 135  357.5209
 136  241.5387
 137  285.3465
 138  446.0635
 139  336.0023
 140  322.8813
 141  503.4154
 142  416.5564
 143  377.6547
 144  398.8776
 145  403.9019
 146  345.5004
 147  271.8658
 148  428.2991
 149  399.9659
 150  384.6638
 151  451.7363
 152  444.0616
 153  431.6586
 154  474.3461
 155  500.1108
 156  503.1528
 157  368.7082
 158  400.1843
 159  382.881
 160  449.3552
 161  505.4201
 162  553.1771
 163  500.6499
 164  487.2065
 165  444.6511
 166  507.3528
 167  505.2523
 168  415.3414
 169  413.718
 170  395.6435
 171  518.3669
 172  434.0836
 173  419.0223
 174  454.0913
 175  544.9449
 176  549.174
 177  406.4326
 178  319.9229
 179  268.9753
 180  197.7296
 181  301.2715
 182  335.6989
 183  439.7344
 184  284.2984
 185  245.8612
 186  363.907
 187  381.9791
 188  393.4955
 189  335.4709
 190  373.4989
 191  338.6775
 192  420.9278
 193  398.3823
 194  355.1291
 195  345.0284
 196  290.019
 197  405.7729
 198  409.9291
 199  364.1284
 200  318.0975
 201  355.4683
 202  401.8233
 203  397.5788
 204  394.6711
 205  369.2928
 206  320.2581
 207  275.3567
 208  401.2264
 209  410.1285
 210  331.63
 211  394.5934
 212  502.1315
 213  540.5226
 214  553.0804
 215  465.8917
 216  415.8023
 217  382.3686
 218  368.0231
 219  317.0464
 220  290.4105
 221  332.9063
 222  392.0073
 223  412.625
 224  451.0145
 225  449.3723
 226  389.4392
 227  455.7385
 228  475.4805
 229  466.9037
 230  509.6688
 231  525.9939
 232  530.6475
 233  521.7157
 234  449.4599
 235  442.2682
 236  481.2319
 237  544.8964
 238  470.2858
 239  396.0678
 240  500.5287
 241  625.2977
 242  576.5685
 243  527.6234
 244  502.7764
 245  450.3196
 246  562.3527
 247  582.1856
 248  559.0036
 249  441.3363
 250  451.8503
 251  655.517
 252  561.8736
 253  514.0637
 254  547.364
 255  485.9715
 256  395.3758
 257  436.9533
 258  341.0147
 259  329.6099
 260  379.1617
 261  442.4884
 262  495.4119
 263  418.9582
 264  368.932
 265  344.3858
 266  412.338
 267  364.4152
 268  430.7235
 269  551.4081
 270  432.7038
 271  318.5562
 272  348.3576
 273  463.2906
 274  422.0569
 275  442.7001
 276  527.7441
 277  377.1544
 278  411.5655
 279  484.2859
 280  455.9659
 281  477.5267
 282  455.2669
 283  408.4576
 284  373.643
 285  437.1276
 286  458.0137
 287  472.7346
 288  458.8007
 289  362.4514
 290  417.2113
 291  429.1683
 292  572.8844
 293  417.8462
 294  449.7356
 295  369.6989
 296  409.7113
 297  549.8248
 298  502.7494
 299  519.814
 300  451.1774
 301  318.2195
 302  317.3242
 303  235.0481
 304  307.3499
 305  361.8185
 306  332.9724
 307  478.1393
 308  430.4631
 309  425.9691
 310  368.4059
 311  311.7286
 312  320.9251
 313  302.3545
 314  435.0435
 315  447.3954
 316  357.8914
 317  335.5904
 318  339.0432
 319  270.7589
 320  345.4826
 321  424.5863
 322  416.5566
 323  470.0929
 324  453.7203
 325  467.417
 326  361.8347
 327  312.7105
 328  370.0618
 329  436.8711
 330  459.4226
 331  512.4858
 332  376.7066
 333  353.6121
 334  389.8644
 335  457.3109
 336  548.4502
 337  461.5916
 338  253.2974
 339  323.5244
 340  347.6957
 341  386.054
 342  238.8219
 343  340.849
 344  392.8239
 345  270.7296
 346  296.7823
 347  375.5138
 348  349.129
 349  263.9255
 350  346.7113
 351  357.6593
 352  429.3779
 353  384.8786
 354  388.1599
 355  452.2014
 356  404.7807
 357  453.308
 358  507.2674
 359  478.8954
 360  522.8708
 361  641.5377
 362  605.0819
 363  486.4365
 364  459.6391
 365  506.9114
 366  452.0537
 367  487.4876
 368  554.7217
 369  518.9177
 370  430.8166
 371  316.799
 372  365.6809
 373  395.7179
 374  459.5629
 375  468.3266
 376  406.7589
 377  393.3447
 378  549.3666
 379  591.7137
 380  499.8626
 381  503.4478
 382  525.713
 383  468.9022
 384  377.9641
 385  395.7702
 386  449.1593
 387  495.1836
 388  456.7188
 389  423.2823
 390  450.6958
 391  390.5136
 392  403.1589
 393  388.8
 394  407.6575
 395  430.4592
 396  480.0419
 397  468.0488
 398  533.4194
 399  457.0891
 400  337.7773
 401  535.9271
 402  558.5779
 403  443.6225
 404  371.6751
 405  442.3848
 406  434.6934
 407  407.262
 408  415.1351
 409  611.6195
 410  405.0653
 411  350.8737
 412  353.6214
 413  387.2396
 414  446.0976
 415  487.231
 416  603.1618
 417  578.0532
 418  373.4389
 419  450.4226
 420  566.1247
 421  481.3666
 422  410.3102
 423  510.9606
 424  495.6159
 425  417.0762
 426  429.5232
 427  369.3797
 428  267.164
 429  371.0594
 430  385.2507
 431  374.9717
 432  386.0769
 433  467.0794
 434  415.4926
 435  274.1497
 436  282.1502
 437  503.9783
 438  604.8293
 439  558.467
 440  548.7063
 441  577.2158
 442  498.3781
 443  563.7534
 444  604.2557
 445  595.1371
 446  506.1707
 447  443.0904
 448  515.4449
 449  554.9808
 450  650.7437
 451  548.2253
 452  403.0549
 453  449.9688
 454  499.8993
 455  485.7675
 456  420.2376
 457  477.1075
 458  497.6285
 459  542.258
 460  639.2626
 461  658.0907
 462  535.9013
 463  559.4636
 464  506.3447
 465  396.6691
 466  451.3432
 467  388.1328
 468  483.4783
 469  552.1028
 470  570.1567
 471  519.7888
 472  496.0739
 473  487.2973
 474  412.1792
 475  372.7169
 476  432.8894
 477  360.0244
 478  348.2763
 479  432.3772
 480  474.8748
 481  399.7411
 482  501.1488
 483  580.4979
 484  488.4298
 485  431.1255
 486  480.1531
 487  281.1415
 488  271.4013
 489  466.6857
 490  520.144
 491  314.3213
 492  406.7358
 493  431.4711
 494  490.2033
 495  470.6964
 496  502.1046
 497  618.3683
 498  823.5532
 499  939.3406
 500  997.9323
 501  991.0641
 502  821.7973
 503  613.9346
 504  472.7867
 505  445.5873
 506  374.9591
 507  254.4162
 508  278.3548
 509  242.6784
 510  313.1068
 511  334.5253
