# Input file       =  1180925359.100276_cleaned.dat
# Candidate        =  PSR_0332+5434
# Telescope        =  AR
# Epoch_topo       =  57912.117802086526
# Epoch_bary       =  N/A
# T_sample         =  0.002
# Data Folded      =  7208960
# Data Avg         =  0.102983110095374
# Data StdDev      =  4.20508773289299 
# Profile Bins     =  512
# Profile Avg      =  1449.73799032817 
# Profile StdDev   =  498.972244524568 
# Reduced chi-sqr  =  0.716
# Prob(Noise)      <  1   (~0.0 sigma)
# P_topo (ms)      =  714.509699120743  +/- 5.69e-05
# P'_topo (s/s)    =  -0                +/- 3.06e-11
# P''_topo (s/s^2) =  0                 +/- 1.37e-14
# P_bary (ms)      =  N/A
# P'_bary (s/s)    =  N/A
# P''_bary (s/s^2) =  N/A
# P_orb (s)        =  N/A
# asin(i)/c (s)    =  N/A
# eccentricity     =  N/A
# w (rad)          =  N/A
# T_peri           =  N/A
######################################################
   0  875.7563
   1  1559.699
   2  1393.908
   3  1561.222
   4  1688.934
   5  1563.032
   6  1138.992
   7  1064.392
   8  1511.891
   9  1647.945
  10  1474.41
  11  1540.41
  12  1278.336
  13  1353.422
  14  1398.116
  15  853.8573
  16  1358.244
  17  1045.494
  18  1271.456
  19  1848.667
  20  1949.322
  21  1598.502
  22  1343.801
  23  991.9479
  24  693.96
  25  804.9515
  26  1154.51
  27  1437.818
  28  1298.309
  29  1174.861
  30  1168.998
  31  1334.318
  32  974.7338
  33  877.1186
  34  1161.048
  35  1468.408
  36  1155.169
  37  1218.062
  38  1302.982
  39  1065.834
  40  1216.263
  41  1016.026
  42  951.987
  43  1041.972
  44  1135.997
  45  1396.862
  46  1724.008
  47  1676.029
  48  1428.88
  49  1264.382
  50  1441.761
  51  1883.304
  52  1952.95
  53  1802.825
  54  1770.028
  55  1715.483
  56  1562.777
  57  1342.26
  58  1218.5
  59  1144.911
  60  1306.788
  61  932.9741
  62  1236.817
  63  1456.822
  64  973.7575
  65  1080.609
  66  965.4086
  67  1372.972
  68  1736.735
  69  1621.317
  70  1772.069
  71  1373.662
  72  1335.347
  73  1011.205
  74  1185.648
  75  1546.674
  76  1169.693
  77  952.2648
  78  1288.105
  79  1426.927
  80  1208.224
  81  1449.141
  82  1666.025
  83  1333.295
  84  1263.03
  85  1581.734
  86  1853.083
  87  1797.291
  88  1296.625
  89  1616.453
  90  1190.487
  91  1298.432
  92  1369.178
  93  1501.027
  94  1672.325
  95  1419.565
  96  1669.381
  97  1392.002
  98  1222.93
  99  1599.232
 100  1887.083
 101  1747.174
 102  1751.77
 103  1970.084
 104  1831.988
 105  1600.436
 106  1301.969
 107  839.3534
 108  971.6259
 109  1522.388
 110  1625.257
 111  1734.43
 112  1705.533
 113  1803.664
 114  1485.695
 115  1052.988
 116  1275.475
 117  881.6373
 118  1676.076
 119  2146.523
 120  1958.558
 121  1655.262
 122  1244.959
 123  1445.215
 124  1503.794
 125  1278.487
 126  1825.684
 127  1651.653
 128  1438.74
 129  1275.268
 130  1171.361
 131  1241.282
 132  1096.05
 133  1354.248
 134  1892.579
 135  1820.282
 136  1601.267
 137  1645.333
 138  1916.27
 139  1970.467
 140  1263.035
 141  808.8325
 142  1081.422
 143  1407.667
 144  1532.218
 145  1728.949
 146  1691.83
 147  949.6857
 148  1083.712
 149  1293.626
 150  1238.183
 151  1686.778
 152  1900.27
 153  1802.101
 154  1623.646
 155  1400.724
 156  1412.732
 157  1510.838
 158  1470.853
 159  1205.067
 160  1376.76
 161  1620.278
 162  1312.736
 163  1184.052
 164  1091.59
 165  1254.729
 166  1355.881
 167  1798.075
 168  1816.991
 169  1605.532
 170  1376.783
 171  1691.101
 172  1534.082
 173  1043.901
 174  1135.596
 175  1190.771
 176  1241.529
 177  1333.568
 178  1724.935
 179  1323.829
 180  966.1791
 181  1289.834
 182  1350.049
 183  1726.965
 184  1816.473
 185  1903.728
 186  1882.656
 187  1720.323
 188  1070.42
 189  916.2642
 190  1420.012
 191  1690.482
 192  1763.834
 193  1783.93
 194  1597.671
 195  1689.296
 196  1510.061
 197  1311.594
 198  1277.793
 199  1372.63
 200  1469.271
 201  1654.389
 202  1748.229
 203  1635.419
 204  1355.243
 205  1355.581
 206  1444.351
 207  1342.62
 208  1222.636
 209  1278.015
 210  1481.21
 211  1589.895
 212  1384.036
 213  1050.942
 214  959.3752
 215  1345.042
 216  1573.323
 217  1832.457
 218  2129.794
 219  1887.981
 220  1760.58
 221  1743.502
 222  1533.446
 223  1296.771
 224  1244.249
 225  1615.092
 226  1806.616
 227  1559.946
 228  1459.363
 229  1383.501
 230  1407.928
 231  877.5524
 232  1319.895
 233  1320.959
 234  1711.623
 235  1802.143
 236  1560.5
 237  1284.062
 238  1036.201
 239  1321.009
 240  910.5154
 241  1025.926
 242  1453.073
 243  1740.782
 244  2132.934
 245  1385.342
 246  1256.788
 247  1269.861
 248  1344.849
 249  1507.658
 250  1751.125
 251  1538.093
 252  1875.872
 253  1630.389
 254  1645.354
 255  1429.153
 256  1380.364
 257  1490.163
 258  1299.748
 259  1454.577
 260  1432.081
 261  1592.43
 262  1143.014
 263  1157.807
 264  1166.759
 265  1307.469
 266  1886.656
 267  2131.312
 268  1873.443
 269  1781.229
 270  1284.321
 271  1179.259
 272  1068.302
 273  1336.035
 274  1646.967
 275  1347.037
 276  1878.551
 277  1472.668
 278  1473.438
 279  1345.658
 280  1448.045
 281  1523.412
 282  1211.16
 283  1397.586
 284  1916.138
 285  1893.244
 286  1440.805
 287  1326.724
 288  1318.897
 289  1178.941
 290  705.348
 291  881.1124
 292  1556.218
 293  1536.448
 294  1914.509
 295  1624.02
 296  1396.387
 297  650.3176
 298  781.4
 299  1476.572
 300  1756.417
 301  1900.628
 302  1769.483
 303  1280.677
 304  1328.68
 305  1285.946
 306  1657.99
 307  1417.911
 308  1508.504
 309  1123.579
 310  1222.43
 311  1221.499
 312  978.1696
 313  1218.406
 314  1328.542
 315  1414.021
 316  1335.348
 317  1684.817
 318  1815.436
 319  1716.529
 320  1637.455
 321  1603.782
 322  1021.972
 323  970.8675
 324  1155.423
 325  1590.053
 326  2030.141
 327  1644.932
 328  1324.87
 329  1302.361
 330  1317.288
 331  1184.473
 332  1560.931
 333  2125.712
 334  1917.044
 335  1691.585
 336  1214.791
 337  1206.4
 338  1636.776
 339  1707.515
 340  1880.92
 341  1985.853
 342  1529.529
 343  1588.178
 344  1528.543
 345  1542.388
 346  1503.589
 347  2069.263
 348  1949.277
 349  1677.633
 350  1900.129
 351  1956.488
 352  1980.873
 353  2369.547
 354  2829.845
 355  2533.002
 356  2445.235
 357  2284.43
 358  2099.903
 359  1752.393
 360  1398.981
 361  1155.93
 362  1114.883
 363  1297.268
 364  911.0627
 365  1762.742
 366  1843.825
 367  1917.807
 368  1327.693
 369  1067.386
 370  979.345
 371  1092.383
 372  1137.336
 373  934.6908
 374  1155.883
 375  1306.317
 376  1304.929
 377  1409.484
 378  1378.048
 379  1320.945
 380  1827.049
 381  1709.135
 382  1584.57
 383  1579.153
 384  1608.947
 385  1454.957
 386  1301.935
 387  1264.735
 388  1111.181
 389  1364.509
 390  1507.976
 391  1704.824
 392  2058.971
 393  1758.848
 394  1205.189
 395  1424.964
 396  1271.219
 397  1565.604
 398  1746.041
 399  1804.243
 400  1902.361
 401  1620.431
 402  1824.889
 403  1642.901
 404  1184.566
 405  1084.406
 406  1376.321
 407  1371.303
 408  1348.072
 409  1779.056
 410  1832.365
 411  1038.46
 412  1191.329
 413  1747.516
 414  1360.111
 415  1497.763
 416  1986.052
 417  1988.666
 418  1342.03
 419  1808.502
 420  1519.673
 421  1305.539
 422  1258.44
 423  1099.071
 424  1263.615
 425  1551.6
 426  1233.139
 427  1116.353
 428  1209.288
 429  1540.856
 430  1453.085
 431  1253.831
 432  1935.229
 433  1468.642
 434  1326.366
 435  1431.923
 436  1181.817
 437  1127.675
 438  1300.411
 439  1730.388
 440  1333.735
 441  1394.686
 442  1319.984
 443  1179.854
 444  1295.109
 445  1374.323
 446  1402.614
 447  1491.631
 448  1929.042
 449  2115.333
 450  1674.055
 451  1608.56
 452  1333.521
 453  853.8773
 454  1047.942
 455  1223.077
 456  1158.615
 457  1432.409
 458  1418.343
 459  1493.512
 460  1481.7
 461  1699.832
 462  1416.052
 463  1188.408
 464  1252.602
 465  1687.897
 466  1788.847
 467  1730.115
 468  1557.259
 469  1514.678
 470  1479.324
 471  1167.69
 472  1091.358
 473  1456.031
 474  1354.556
 475  1033.769
 476  1564.78
 477  1510.61
 478  1087.772
 479  1092.013
 480  1169.018
 481  1269.407
 482  1515.825
 483  1767.456
 484  1863.484
 485  1538.106
 486  1728.807
 487  1332.133
 488  1366.306
 489  1226.258
 490  1337.052
 491  1360.574
 492  1045.256
 493  1200.582
 494  1422.813
 495  1484.274
 496  1506.583
 497  1613.824
 498  1716.253
 499  1735.073
 500  1356.49
 501  1437.186
 502  1442.071
 503  1245.842
 504  1193.489
 505  1349.556
 506  1309.37
 507  1096.207
 508  1409.007
 509  1308.407
 510  1210.63
 511  964.2431
