# Input file       =  1180093266.106979_cleaned.dat
# Candidate        =  PSR_0332+5434
# Telescope        =  AR
# Epoch_topo       =  57902.487096145589
# Epoch_bary       =  N/A
# T_sample         =  0.002
# Data Folded      =  7340032
# Data Avg         =  0.106249306340552
# Data StdDev      =  3.21879331677423 
# Profile Bins     =  1024
# Profile Avg      =  761.609897326529 
# Profile StdDev   =  272.516052412844 
# Reduced chi-sqr  =  0.788
# Prob(Noise)      <  1   (~0.0 sigma)
# P_topo (ms)      =  714.519381937291  +/- 0.000647
# P'_topo (s/s)    =  -0                +/- 3.42e-10
# P''_topo (s/s^2) =  0                 +/- 1.51e-13
# P_bary (ms)      =  N/A
# P'_bary (s/s)    =  N/A
# P''_bary (s/s^2) =  N/A
# P_orb (s)        =  N/A
# asin(i)/c (s)    =  N/A
# eccentricity     =  N/A
# w (rad)          =  N/A
# T_peri           =  N/A
######################################################
   0  662.7503
   1  721.5049
   2  769.2711
   3  770.5052
   4  765.6514
   5  892.9513
   6  968.051
   7  884.9922
   8  762.6885
   9  717.9227
  10  856.971
  11  934.4234
  12  922.9442
  13  932.8132
  14  899.9817
  15  973.8153
  16  837.5175
  17  696.6805
  18  684.2246
  19  707.3959
  20  788.814
  21  756.545
  22  839.8146
  23  792.3961
  24  773.4388
  25  722.2885
  26  769.4556
  27  762.8769
  28  760.4427
  29  610.7089
  30  602.8611
  31  600.8621
  32  716.0515
  33  789.2005
  34  881.5215
  35  756.1793
  36  641.3295
  37  537.3804
  38  622.0924
  39  671.6302
  40  703.722
  41  713.226
  42  740.6349
  43  701.3334
  44  575.6255
  45  506.1291
  46  630.2184
  47  705.4432
  48  779.7009
  49  803.9618
  50  910.9711
  51  784.1755
  52  754.9807
  53  663.8003
  54  593.9684
  55  468.4504
  56  379.2308
  57  438.5241
  58  477.1631
  59  531.5602
  60  601.3186
  61  716.1979
  62  741.0452
  63  657.5258
  64  690.9036
  65  708.5244
  66  677.6502
  67  623.064
  68  696.6094
  69  733.6391
  70  679.6661
  71  662.5596
  72  623.8179
  73  654.244
  74  738.8358
  75  814.929
  76  726.678
  77  614.1236
  78  594.351
  79  648.2051
  80  743.8062
  81  772.0669
  82  776.6484
  83  741.377
  84  808.2729
  85  817.85
  86  699.6951
  87  546.4554
  88  586.2383
  89  678.69
  90  742.8634
  91  734.7073
  92  744.4531
  93  649.3196
  94  623.4961
  95  632.3328
  96  747.8567
  97  837.8879
  98  891.0343
  99  869.9656
 100  827.1246
 101  809.5969
 102  737.9257
 103  639.0468
 104  677.31
 105  795.5269
 106  928.3063
 107  897.9912
 108  903.5907
 109  876.3707
 110  938.8758
 111  937.5005
 112  1013.909
 113  858.6882
 114  732.9031
 115  682.2484
 116  846.0952
 117  918.3272
 118  988.3098
 119  957.8042
 120  823.1368
 121  742.9139
 122  714.449
 123  900.1971
 124  931.3274
 125  981.835
 126  855.106
 127  837.5359
 128  799.8676
 129  825.7728
 130  824.5936
 131  887.9552
 132  826.4376
 133  845.5681
 134  844.6693
 135  969.7759
 136  1015.591
 137  1011.906
 138  894.5704
 139  836.3591
 140  853.1525
 141  851.7369
 142  898.0396
 143  927.2245
 144  956.9576
 145  1002.544
 146  979.4634
 147  939.4339
 148  828.4496
 149  903.1774
 150  930.1609
 151  935.7916
 152  858.2252
 153  867.7001
 154  832.9972
 155  803.3137
 156  760.7527
 157  742.3234
 158  789.9562
 159  825.035
 160  780.8536
 161  632.2119
 162  641.9476
 163  754.6857
 164  857.5367
 165  795.1339
 166  738.5461
 167  660.9318
 168  649.6782
 169  639.8802
 170  716.121
 171  709.9017
 172  716.7393
 173  724.6779
 174  769.0792
 175  714.8438
 176  672.9332
 177  727.3336
 178  790.5828
 179  756.8459
 180  739.2969
 181  745.054
 182  769.2988
 183  728.4452
 184  736.4122
 185  747.5685
 186  668.696
 187  515.5584
 188  517.272
 189  686.4231
 190  947.3378
 191  964.0245
 192  847.4172
 193  705.5181
 194  590.5835
 195  631.1934
 196  676.5831
 197  783.323
 198  864.0568
 199  816.8309
 200  813.4258
 201  710.8793
 202  681.7921
 203  707.8691
 204  786.1806
 205  909.1628
 206  875.0839
 207  768.9887
 208  607.3214
 209  522.0872
 210  522.4178
 211  636.1158
 212  759.5813
 213  708.794
 214  605.7073
 215  554.3634
 216  591.2236
 217  490.9662
 218  411.5547
 219  385.9356
 220  514.6212
 221  598.5142
 222  650.454
 223  677.6959
 224  653.8225
 225  671.3168
 226  659.7344
 227  775.0718
 228  752.0692
 229  636.0425
 230  422.4939
 231  363.4126
 232  517.1631
 233  557.5668
 234  479.5077
 235  434.255
 236  571.7267
 237  669.8016
 238  598.5397
 239  460.8441
 240  494.5885
 241  571.6604
 242  586.2467
 243  520.5404
 244  483.2529
 245  640.6839
 246  735.8654
 247  830.0358
 248  792.5396
 249  719.5525
 250  669.8094
 251  653.7689
 252  762.2572
 253  781.1156
 254  780.0139
 255  750.7629
 256  822.1998
 257  875.5209
 258  787.3876
 259  729.2357
 260  745.4639
 261  909.5524
 262  918.0312
 263  860.0512
 264  771.281
 265  734.0823
 266  681.2423
 267  627.5795
 268  671.4429
 269  727.9799
 270  563.251
 271  542.7899
 272  650.7195
 273  878.7332
 274  909.8667
 275  819.9207
 276  877.3355
 277  945.1618
 278  923.1176
 279  807.3223
 280  802.9981
 281  930.6486
 282  961.0643
 283  824.3621
 284  706.3729
 285  708.1802
 286  811.8867
 287  972.0846
 288  1049.02
 289  951.6419
 290  742.0724
 291  772.8021
 292  890.2043
 293  942.1633
 294  762.1196
 295  642.1245
 296  659.295
 297  792.4028
 298  903.3047
 299  861.0409
 300  756.459
 301  696.0897
 302  705.3099
 303  725.723
 304  639.9824
 305  536.4404
 306  517.0238
 307  572.633
 308  569.2854
 309  621.5787
 310  643.6161
 311  654.83
 312  621.1518
 313  633.8533
 314  659.8333
 315  654.0126
 316  763.2484
 317  706.1592
 318  716.123
 319  581.9774
 320  618.9778
 321  694.3323
 322  644.2464
 323  583.3928
 324  518.402
 325  540.8801
 326  680.503
 327  664.7896
 328  593.2046
 329  648.4401
 330  736.4518
 331  943.3969
 332  892.4905
 333  933.8486
 334  910.4844
 335  1001.519
 336  943.2518
 337  936.1256
 338  854.624
 339  815.4672
 340  789.5625
 341  770.1564
 342  770.0134
 343  689.101
 344  677.852
 345  569.8305
 346  586.3083
 347  708.4916
 348  878.8525
 349  900.0643
 350  818.782
 351  789.4907
 352  870.6425
 353  929.8186
 354  914.626
 355  836.1591
 356  795.7448
 357  809.89
 358  772.6917
 359  784.0108
 360  688.6523
 361  726.4678
 362  746.0275
 363  805.4377
 364  790.1906
 365  713.1558
 366  706.1672
 367  791.8392
 368  817.9585
 369  781.7666
 370  745.011
 371  747.4759
 372  742.8775
 373  704.6633
 374  739.1982
 375  690.5811
 376  653.1136
 377  580.4114
 378  680.283
 379  741.3474
 380  851.3388
 381  794.6591
 382  754.2567
 383  596.3
 384  592.1317
 385  619.7735
 386  738.6027
 387  791.1438
 388  828.2153
 389  823.08
 390  809.1298
 391  861.1953
 392  919.1254
 393  979.5215
 394  980.1769
 395  891.0964
 396  880.2561
 397  894.4079
 398  950.9954
 399  749.0934
 400  673.251
 401  599.2333
 402  789.8802
 403  798.0468
 404  779.3273
 405  690.6863
 406  624.6732
 407  736.3428
 408  738.2847
 409  757.054
 410  755.7587
 411  759.1695
 412  692.3737
 413  630.2505
 414  588.9911
 415  685.6618
 416  710.7159
 417  760.2323
 418  733.4579
 419  708.415
 420  596.4698
 421  547.2385
 422  464.2513
 423  550.8087
 424  654.5472
 425  769.5087
 426  769.0483
 427  831.5544
 428  767.1674
 429  687.9959
 430  653.9117
 431  680.2214
 432  646.2472
 433  540.9691
 434  585.2932
 435  709.9783
 436  669.34
 437  584.6928
 438  591.78
 439  754.6362
 440  913.7698
 441  854.1213
 442  827.8372
 443  845.5053
 444  790.0158
 445  751.1051
 446  785.8867
 447  840.7101
 448  759.9539
 449  646.5728
 450  744.1503
 451  940.0314
 452  989.6332
 453  890.6439
 454  789.7963
 455  771.4826
 456  768.0696
 457  799.3469
 458  799.3074
 459  896.0358
 460  846.1131
 461  845.6954
 462  771.1085
 463  870.5297
 464  898.8959
 465  969.6955
 466  969.0027
 467  931.1039
 468  776.9619
 469  623.119
 470  633.1194
 471  617.7303
 472  726.0244
 473  745.0878
 474  860.5002
 475  893.668
 476  908.1243
 477  913.1375
 478  942.39
 479  920.7954
 480  850.6221
 481  857.5339
 482  833.8644
 483  811.2177
 484  698.5169
 485  670.8855
 486  750.2836
 487  825.4269
 488  949.1041
 489  886.2403
 490  909.6675
 491  947.7816
 492  936.9283
 493  907.1776
 494  842.4316
 495  898.5446
 496  990.537
 497  1020.213
 498  1005.291
 499  924.5792
 500  962.219
 501  834.6094
 502  800.0561
 503  767.2007
 504  824.8549
 505  871.6588
 506  940.7715
 507  1061.727
 508  1008.483
 509  797.2166
 510  689.2796
 511  668.0068
 512  712.5613
 513  568.2555
 514  547.0615
 515  526.238
 516  588.946
 517  632.9044
 518  616.6467
 519  637.7892
 520  681.007
 521  816.7178
 522  913.4633
 523  933.7639
 524  989.2438
 525  950.9153
 526  822.3243
 527  788.6263
 528  860.5694
 529  871.0436
 530  755.312
 531  671.9659
 532  720.5067
 533  735.8799
 534  739.227
 535  822.622
 536  869.4351
 537  785.7227
 538  788.6004
 539  824.0413
 540  790.1514
 541  557.0135
 542  546.9918
 543  665.4833
 544  751.827
 545  702.7371
 546  787.7608
 547  800.066
 548  816.2283
 549  704.072
 550  673.4171
 551  720.7322
 552  804.2051
 553  841.2486
 554  787.6708
 555  760.6313
 556  693.6774
 557  676.3704
 558  662.3717
 559  656.5771
 560  745.6351
 561  727.7472
 562  729.1685
 563  735.6518
 564  886.0701
 565  850.9503
 566  646.9671
 567  540.2384
 568  603.1254
 569  742.2715
 570  737.4346
 571  766.8247
 572  797.284
 573  785.448
 574  738.181
 575  700.2259
 576  680.3258
 577  672.0871
 578  776.7454
 579  784.6666
 580  672.2098
 581  631.4271
 582  722.1912
 583  847.4694
 584  911.5847
 585  869.6119
 586  840.3691
 587  836.8188
 588  828.7612
 589  863.7478
 590  774.7194
 591  794.6541
 592  690.1581
 593  701.3276
 594  765.1487
 595  805.5576
 596  735.757
 597  753.1302
 598  882.9034
 599  929.352
 600  879.8123
 601  722.9203
 602  752.3737
 603  864.0912
 604  901.0324
 605  834.1781
 606  796.9995
 607  766.8669
 608  666.3123
 609  567.7277
 610  678.0856
 611  754.3571
 612  791.1929
 613  867.8336
 614  907.4146
 615  782.0523
 616  616.9269
 617  562.4867
 618  751.8556
 619  922.7783
 620  948.8452
 621  967.2416
 622  909.4193
 623  818.707
 624  782.4006
 625  890.6793
 626  957.6323
 627  888.0345
 628  833.873
 629  808.761
 630  782.2565
 631  712.3803
 632  664.3705
 633  752.2733
 634  865.9785
 635  941.9145
 636  914.7679
 637  840.5934
 638  940.4242
 639  994.6833
 640  1025.816
 641  888.7299
 642  894.1106
 643  933.1231
 644  1034.77
 645  959.6472
 646  910.1086
 647  830.4277
 648  941.8502
 649  949.8739
 650  985.4811
 651  998.713
 652  876.6018
 653  783.1427
 654  620.1005
 655  707.0056
 656  790.9968
 657  927.1764
 658  986.3522
 659  923.9367
 660  946.1353
 661  992.6625
 662  898.5703
 663  837.0311
 664  758.3323
 665  818.7699
 666  782.9598
 667  808.9329
 668  825.919
 669  820.3198
 670  693.6358
 671  624.5933
 672  582.1772
 673  538.2147
 674  618.1821
 675  754.4081
 676  877.5588
 677  726.9773
 678  651.8085
 679  691.6864
 680  750.2715
 681  812.3052
 682  815.998
 683  860.5624
 684  755.03
 685  710.9457
 686  712.8721
 687  824.968
 688  826.9214
 689  688.4032
 690  623.7389
 691  681.5701
 692  781.5908
 693  706.6605
 694  722.9057
 695  685.1277
 696  680.49
 697  696.973
 698  671.5318
 699  558.8102
 700  545.2662
 701  547.5046
 702  600.6583
 703  601.1221
 704  680.4335
 705  683.1003
 706  718.1776
 707  692.8856
 708  674.7877
 709  682.803
 710  728.0342
 711  624.0009
 712  563.7473
 713  626.3969
 714  683.9585
 715  651.8419
 716  582.2951
 717  666.4991
 718  788.3804
 719  725.7003
 720  673.2123
 721  687.9885
 722  726.2775
 723  776.5575
 724  772.274
 725  758.2596
 726  747.6426
 727  857.2813
 728  896.4645
 729  752.6007
 730  668.658
 731  678.9619
 732  634.9287
 733  576.2623
 734  524.2902
 735  448.4037
 736  521.0682
 737  574.1378
 738  836.8936
 739  815.0819
 740  747.6899
 741  585.6165
 742  657.2755
 743  764.4792
 744  772.944
 745  815.1954
 746  768.5721
 747  808.5496
 748  826.6771
 749  858.6545
 750  889.6863
 751  1022.75
 752  1137.893
 753  1251.516
 754  1315.529
 755  1355.64
 756  1396.213
 757  1298.192
 758  1216.478
 759  1103.51
 760  1154.898
 761  1215.638
 762  1148.48
 763  1037.843
 764  1002.345
 765  897.787
 766  834.9974
 767  736.6901
 768  743.6599
 769  815.0917
 770  916.8967
 771  876.8811
 772  879.3312
 773  897.8649
 774  970.1622
 775  945.7388
 776  941.0451
 777  894.5344
 778  792.5405
 779  830.4521
 780  876.0605
 781  1014.086
 782  1001.616
 783  981.7001
 784  1032.774
 785  1039.907
 786  934.252
 787  777.6547
 788  803.7645
 789  788.0967
 790  811.0074
 791  756.5315
 792  835.8916
 793  865.1006
 794  929.9482
 795  859.2941
 796  898.6865
 797  899.0269
 798  893.5227
 799  849.5097
 800  833.3362
 801  810.3886
 802  799.7074
 803  925.8199
 804  920.3569
 805  921.2737
 806  784.5176
 807  741.1501
 808  799.7565
 809  914.0803
 810  968.467
 811  894.8696
 812  717.6465
 813  690.7443
 814  660.6769
 815  661.7631
 816  671.3871
 817  777.594
 818  870.7869
 819  853.981
 820  820.2849
 821  793.5113
 822  770.242
 823  727.3743
 824  801.2682
 825  772.2881
 826  822.5407
 827  820.1171
 828  791.1897
 829  771.803
 830  709.0706
 831  672.9511
 832  643.4779
 833  611.9384
 834  542.664
 835  548.9597
 836  706.1856
 837  882.2457
 838  962.7875
 839  875.439
 840  851.6776
 841  812.9141
 842  857.5809
 843  852.2376
 844  923.1078
 845  920.5001
 846  960.2026
 847  950.3441
 848  909.8016
 849  790.9164
 850  655.925
 851  630.7006
 852  683.197
 853  762.0466
 854  804.4002
 855  752.0573
 856  735.5455
 857  772.0379
 858  790.2218
 859  778.9224
 860  684.241
 861  653.7285
 862  671.6334
 863  634.2006
 864  671.9203
 865  598.3001
 866  714.4465
 867  767.1566
 868  842.5976
 869  868.4389
 870  807.4426
 871  797.3357
 872  798.5533
 873  818.6298
 874  749.9123
 875  685.0114
 876  749.4771
 877  794.3339
 878  800.2139
 879  690.6925
 880  559.6563
 881  448.705
 882  421.2784
 883  541.9507
 884  639.4249
 885  748.3258
 886  748.2487
 887  704.0092
 888  737.1697
 889  759.9937
 890  736.2714
 891  672.1205
 892  638.1219
 893  625.7027
 894  592.1744
 895  570.0823
 896  615.3854
 897  656.2548
 898  654.1193
 899  589.6564
 900  652.4833
 901  684.3719
 902  693.2799
 903  520.2994
 904  573.7485
 905  597.589
 906  575.6959
 907  577.8773
 908  596.3373
 909  658.2518
 910  651.1326
 911  779.8391
 912  891.5176
 913  829.1592
 914  752.3816
 915  627.5894
 916  526.4158
 917  499.4353
 918  596.5302
 919  665.4742
 920  574.4795
 921  530.4295
 922  599.5108
 923  697.5471
 924  773.6291
 925  766.77
 926  784.7053
 927  794.9636
 928  762.8378
 929  831.6613
 930  751.4761
 931  781.9379
 932  720.1072
 933  794.8813
 934  686.6319
 935  594.1265
 936  581.5153
 937  689.2372
 938  648.3958
 939  608.3842
 940  628.2875
 941  644.3024
 942  520.7911
 943  392.1169
 944  483.5959
 945  605.7981
 946  638.6132
 947  632.9558
 948  620.1671
 949  672.6449
 950  553.3449
 951  546.6857
 952  693.0035
 953  862.429
 954  920.1369
 955  853.8851
 956  783.9401
 957  664.9486
 958  742.5135
 959  869.5703
 960  831.2141
 961  642.1838
 962  578.1729
 963  767.0675
 964  821.1992
 965  742.1714
 966  664.3742
 967  779.0355
 968  784.405
 969  687.144
 970  618.5131
 971  726.9894
 972  828.7142
 973  744.5058
 974  567.843
 975  487.291
 976  630.9188
 977  714.2651
 978  859.4622
 979  842.5321
 980  913.222
 981  761.6531
 982  699.4966
 983  727.5067
 984  916.2654
 985  922.2033
 986  859.0514
 987  666.2615
 988  563.2047
 989  626.4694
 990  781.0701
 991  866.3113
 992  807.9929
 993  771.1573
 994  758.163
 995  749.8469
 996  733.8077
 997  673.8753
 998  709.3135
 999  781.5518
1000  857.8414
1001  827.6697
1002  815.7673
1003  762.279
1004  808.6698
1005  873.2817
1006  900.7401
1007  829.1487
1008  825.502
1009  901.799
1010  996.7419
1011  922.7662
1012  897.8999
1013  724.7191
1014  684.5342
1015  776.8265
1016  861.6081
1017  797.2768
1018  683.0716
1019  731.7165
1020  768.849
1021  681.8029
1022  628.4097
1023  580.2097
