# Input file       =  1180437945.13237_cleaned.dat
# Candidate        =  PSR_0332+5434
# Telescope        =  AR
# Epoch_topo       =  57906.476436717247
# Epoch_bary       =  N/A
# T_sample         =  0.002
# Data Folded      =  7340032
# Data Avg         =  0.0950657576332949
# Data StdDev      =  3.04444028848124 
# Profile Bins     =  512
# Profile Avg      =  1362.89266578281 
# Profile StdDev   =  364.520079807616 
# Reduced chi-sqr  =  1.092
# Prob(Noise)      <  0.0742   (~1.4 sigma)
# P_topo (ms)      =  714.515478097794  +/- 0.000184
# P'_topo (s/s)    =  -0                +/- 9.72e-11
# P''_topo (s/s^2) =  0                 +/- 4.29e-14
# P_bary (ms)      =  N/A
# P'_bary (s/s)    =  N/A
# P''_bary (s/s^2) =  N/A
# P_orb (s)        =  N/A
# asin(i)/c (s)    =  N/A
# eccentricity     =  N/A
# w (rad)          =  N/A
# T_peri           =  N/A
######################################################
   0  1414.274
   1  1346.782
   2  1574.393
   3  1936.458
   4  1630.075
   5  1529.763
   6  1535.14
   7  1619.049
   8  1636.162
   9  1735.02
  10  1839.337
  11  1641.505
  12  1686.045
  13  1691.269
  14  1821.252
  15  1391.06
  16  1621.171
  17  1804.438
  18  1651.517
  19  1832.056
  20  1474.009
  21  1309.392
  22  1328.29
  23  1406.73
  24  1441.562
  25  1533.562
  26  1631.221
  27  1270.043
  28  821.8544
  29  1072.626
  30  1316.862
  31  1362.311
  32  1366.537
  33  1041.867
  34  1462.866
  35  1395.328
  36  1136.526
  37  1389.178
  38  1371.228
  39  1119.912
  40  907.0836
  41  883.312
  42  928.9528
  43  1012.168
  44  1153.56
  45  1415.568
  46  1250.381
  47  1335.804
  48  1459.372
  49  1108.774
  50  1364.314
  51  1604.288
  52  1519.957
  53  1687.992
  54  1474.195
  55  1336.123
  56  1439.785
  57  1193.478
  58  1481.379
  59  1715.165
  60  1615.8
  61  1590.113
  62  1515.092
  63  1397.007
  64  1290.734
  65  1030.66
  66  1253.735
  67  1495.467
  68  1813.424
  69  1468.616
  70  1350.972
  71  1125.178
  72  873.1476
  73  1042.562
  74  1004.728
  75  1355.639
  76  1310.723
  77  752.5165
  78  727.7132
  79  939.9086
  80  1293.337
  81  1459.013
  82  1381.043
  83  1339.284
  84  1193.371
  85  1075.046
  86  1283.086
  87  1163.982
  88  1410.524
  89  1506.723
  90  1182.998
  91  1573.847
  92  1643.852
  93  1640.432
  94  1704.925
  95  1646.208
  96  1804.37
  97  1549.994
  98  1529.704
  99  1472.414
 100  1413.989
 101  1588.762
 102  1682.626
 103  1701.813
 104  1482.093
 105  1332.172
 106  1291.297
 107  1498.459
 108  1311.784
 109  1235.511
 110  1290.997
 111  1366.875
 112  1161.982
 113  1078.64
 114  1099.128
 115  1227.934
 116  1364.285
 117  1496.522
 118  1578.881
 119  1303.135
 120  885.511
 121  1150.016
 122  1170.55
 123  957.9746
 124  1184.535
 125  1476.186
 126  1346.792
 127  1499.817
 128  1429.956
 129  727.6872
 130  761.8912
 131  1013.075
 132  979.7349
 133  1266.991
 134  1710.792
 135  1838.914
 136  1416.576
 137  1478.455
 138  1577.149
 139  1046.67
 140  1263.341
 141  1268.427
 142  1430.954
 143  1381.013
 144  1285.176
 145  1544.728
 146  1666.664
 147  1566.163
 148  1675.066
 149  1467.104
 150  1522.307
 151  1612.7
 152  1471.615
 153  1293.258
 154  1060.057
 155  1331.677
 156  1460.013
 157  1360.754
 158  1139.569
 159  1317.676
 160  1500.759
 161  1557.269
 162  1396.829
 163  1383.046
 164  1235.641
 165  1097.7
 166  971.4688
 167  1203.555
 168  1286.969
 169  1011.464
 170  1083
 171  1357.59
 172  1616.21
 173  1385.336
 174  1168.157
 175  1404.549
 176  1687.523
 177  1497.061
 178  1373.893
 179  1579.061
 180  1331.309
 181  1338.584
 182  1605.394
 183  1787.817
 184  1647.516
 185  1606.307
 186  1508.887
 187  1453.23
 188  1688.118
 189  1550.565
 190  1255.99
 191  1331.439
 192  1655.526
 193  1289.105
 194  1194.552
 195  1345.141
 196  1069.237
 197  1380.37
 198  886.2252
 199  902.3752
 200  898.1796
 201  967.1601
 202  1297.921
 203  1016.005
 204  1081.71
 205  899.229
 206  683.7701
 207  827.3026
 208  1081.09
 209  1206.388
 210  1409.039
 211  1310.142
 212  1118.141
 213  1329.071
 214  1598.784
 215  1678.201
 216  1888.527
 217  1753.666
 218  1810.551
 219  1961.238
 220  1771.542
 221  1842.101
 222  2019.821
 223  2205.691
 224  2466.869
 225  2705.098
 226  2403.308
 227  1667.233
 228  1547.877
 229  1838.304
 230  1790.843
 231  1527.695
 232  1394.644
 233  1376.621
 234  1340.573
 235  1374.511
 236  1244.871
 237  1155.059
 238  975.8945
 239  976.0586
 240  1121.462
 241  1257.973
 242  1357.125
 243  1427.213
 244  1170.859
 245  1271.816
 246  1186.502
 247  856.6115
 248  1138.731
 249  1127.131
 250  1048.58
 251  656.8524
 252  885.6516
 253  1324.81
 254  1315.525
 255  1252.594
 256  1136.416
 257  1154.545
 258  1124.2
 259  1580.328
 260  1715.128
 261  1617.021
 262  1485.756
 263  1598.796
 264  1438.48
 265  1179.378
 266  1018.843
 267  1456.73
 268  1415.863
 269  1445.979
 270  1372.252
 271  1125.528
 272  1193.808
 273  1499.162
 274  1555.361
 275  1293.015
 276  1245.973
 277  1419.519
 278  1258.203
 279  1165.121
 280  1073.318
 281  963.1517
 282  1241.917
 283  1487.896
 284  1397.069
 285  1256.748
 286  1143.21
 287  1037.984
 288  1313.758
 289  1511.345
 290  1344.037
 291  994.2217
 292  1010.476
 293  1054.121
 294  1205.972
 295  917.5989
 296  1145.066
 297  1205.271
 298  1167.325
 299  771.9511
 300  1018.081
 301  1065.141
 302  1084.792
 303  945.8605
 304  878.4027
 305  680.8539
 306  992.9898
 307  1335.712
 308  1356.212
 309  1142.085
 310  1253.547
 311  1628.413
 312  1457.43
 313  1396.7
 314  1330.803
 315  1381.404
 316  1207.471
 317  1194.255
 318  1532.327
 319  1422.579
 320  1233.169
 321  1295.735
 322  1216.511
 323  1011.996
 324  1195.629
 325  1124.26
 326  1375.876
 327  1551.573
 328  1384.264
 329  762.7804
 330  711.4761
 331  859.0503
 332  1231.866
 333  1108.487
 334  929.7891
 335  1056.977
 336  776.7988
 337  1107.517
 338  1161.71
 339  1256.181
 340  1042.089
 341  1014.415
 342  1050.716
 343  1245.865
 344  1477.292
 345  1719.792
 346  1399.43
 347  1156.393
 348  1234.866
 349  1664.149
 350  1712.606
 351  1601.967
 352  1551.525
 353  1707.187
 354  1729.581
 355  1686.372
 356  1480.921
 357  1533.851
 358  1595.436
 359  1612.25
 360  1516.852
 361  1585.523
 362  1455.447
 363  1426.366
 364  1178.681
 365  1433.681
 366  1529.828
 367  1664.945
 368  1049.075
 369  1135.033
 370  1558.788
 371  1788.46
 372  1664.146
 373  1434.861
 374  1081.709
 375  836.6906
 376  1202.22
 377  1388.389
 378  1108.445
 379  1023.659
 380  1292.918
 381  1552.316
 382  1243.247
 383  1053.077
 384  1040.467
 385  1112.355
 386  1255.969
 387  1508.309
 388  1695.891
 389  1677.042
 390  1618.1
 391  1306.949
 392  1376.232
 393  1560.936
 394  1745.145
 395  1731.29
 396  1585.452
 397  1552.631
 398  1628.158
 399  1908.258
 400  2063.564
 401  1596.678
 402  1685.726
 403  1630.019
 404  1528.472
 405  1450.633
 406  1190.236
 407  1472.567
 408  1451.401
 409  1756.13
 410  1831.436
 411  1617.866
 412  1223.255
 413  1155.402
 414  1465.624
 415  1297.743
 416  1231.217
 417  1159.674
 418  1367.478
 419  1263.499
 420  1242.609
 421  1288.047
 422  1175.447
 423  1346.023
 424  1207.388
 425  1296.553
 426  1656.084
 427  1503.273
 428  1362.53
 429  1326.742
 430  1304.165
 431  1433.616
 432  1344.904
 433  1278.053
 434  1196.827
 435  868.9367
 436  1046.661
 437  1409.056
 438  1533.57
 439  1135.382
 440  1419.452
 441  1894.984
 442  1770.211
 443  1624.824
 444  1621.623
 445  1367.488
 446  1369.412
 447  1274.171
 448  1311.495
 449  1556.745
 450  1282.82
 451  1081.667
 452  1176.996
 453  1498.791
 454  1675.676
 455  1492.73
 456  1261.533
 457  1460.081
 458  1352.57
 459  1057.475
 460  806.5566
 461  1300.179
 462  1633.432
 463  1437.29
 464  981.735
 465  1164.867
 466  1190.824
 467  1185.062
 468  1285.317
 469  1074.078
 470  1377.789
 471  1306.959
 472  1240.536
 473  1222.63
 474  1372.692
 475  1356.194
 476  1267.055
 477  1214.105
 478  1238.771
 479  1368.282
 480  1228.228
 481  1357.471
 482  1568.545
 483  1897.869
 484  1851.075
 485  1487.122
 486  1695.186
 487  1856.893
 488  1579.995
 489  1556.531
 490  1594.72
 491  1554.624
 492  1536.344
 493  1537.012
 494  1431.799
 495  1199.584
 496  1580.146
 497  1368.076
 498  1483.471
 499  1497.017
 500  1763.04
 501  1346.424
 502  1346.259
 503  1617.66
 504  1884.4
 505  1853.233
 506  1436.022
 507  1682.396
 508  1241.69
 509  914.3193
 510  1116.306
 511  1371.654
