# Input file       =  1180696444.113249_cleaned.dat
# Candidate        =  PSR_0332+5434
# Telescope        =  AR
# Epoch_topo       =  57909.468323070010
# Epoch_bary       =  N/A
# T_sample         =  0.002
# Data Folded      =  7340032
# Data Avg         =  0.112148069431507
# Data StdDev      =  3.23834949236117 
# Profile Bins     =  1024
# Profile Avg      =  803.937922251005 
# Profile StdDev   =  274.171757283197 
# Reduced chi-sqr  =  0.981
# Prob(Noise)      <  0.661   (~0.0 sigma)
# P_topo (ms)      =  714.512582892704  +/- 0.000341
# P'_topo (s/s)    =  -0                +/- 1.8e-10
# P''_topo (s/s^2) =  0                 +/- 7.95e-14
# P_bary (ms)      =  N/A
# P'_bary (s/s)    =  N/A
# P''_bary (s/s^2) =  N/A
# P_orb (s)        =  N/A
# asin(i)/c (s)    =  N/A
# eccentricity     =  N/A
# w (rad)          =  N/A
# T_peri           =  N/A
######################################################
   0  701.519
   1  639.5475
   2  550.2353
   3  602.6423
   4  749.066
   5  865.3221
   6  771.563
   7  632.5476
   8  638.5686
   9  653.1701
  10  754.733
  11  757.7333
  12  618.0944
  13  436.4283
  14  329.2578
  15  426.3325
  16  544.5811
  17  622.7643
  18  655.7449
  19  741.2156
  20  825.4473
  21  877.3132
  22  826.5117
  23  645.0814
  24  592.9418
  25  586.9816
  26  734.1552
  27  718.5032
  28  656.3134
  29  665.4586
  30  681.7576
  31  781.458
  32  748.939
  33  691.0633
  34  673.4091
  35  710.3531
  36  760.241
  37  754.248
  38  850.2053
  39  936.8194
  40  929.7818
  41  908.722
  42  845.9576
  43  854.9396
  44  838.0922
  45  861.159
  46  971.7629
  47  1091.175
  48  1124.487
  49  982.296
  50  893.6066
  51  936.0971
  52  943.1707
  53  951.987
  54  979.3151
  55  1017.488
  56  951.2089
  57  799.5627
  58  832.8642
  59  869.1552
  60  968.799
  61  906.9371
  62  863.265
  63  815.8082
  64  673.915
  65  695.0218
  66  765.7946
  67  817.636
  68  714.2256
  69  726.6749
  70  846.8201
  71  864.3821
  72  762.8445
  73  675.4306
  74  752.5937
  75  685.114
  76  766.8309
  77  768.9419
  78  801.1108
  79  788.2132
  80  791.232
  81  920.5526
  82  1016.965
  83  984.3073
  84  931.916
  85  733.8145
  86  758.1251
  87  710.2677
  88  723.4801
  89  757.9825
  90  845.5099
  91  916.7428
  92  891.568
  93  750.2192
  94  794.7878
  95  698.1928
  96  747.9525
  97  738.8672
  98  791.0951
  99  828.4701
 100  839.8867
 101  885.6579
 102  835.3671
 103  883.1666
 104  922.167
 105  909.7977
 106  843.3969
 107  790.4838
 108  763.5406
 109  773.0433
 110  780.8411
 111  779.5177
 112  783.5599
 113  788.985
 114  877.5726
 115  870.3922
 116  906.4265
 117  912.7732
 118  916.8032
 119  897.083
 120  886.4789
 121  749.2249
 122  763.905
 123  774.1724
 124  956.4727
 125  1030.897
 126  1029.104
 127  971.6133
 128  903.1521
 129  896.4681
 130  860.5844
 131  836.6494
 132  834.9951
 133  902.2296
 134  885.1105
 135  877.2226
 136  849.9445
 137  852.4746
 138  881.5555
 139  932.3161
 140  1002.744
 141  1008.046
 142  905.6447
 143  858.976
 144  858.5346
 145  841.4751
 146  803.7641
 147  780.7947
 148  792.9331
 149  738.2764
 150  739.7578
 151  857.7083
 152  942.409
 153  901.2188
 154  850.5699
 155  820.8767
 156  983.5967
 157  873.1189
 158  834.7064
 159  708.8857
 160  738.8544
 161  771.0977
 162  827.9941
 163  853.6799
 164  830.4148
 165  766.7496
 166  736.0865
 167  715.4976
 168  749.464
 169  770.8719
 170  825.6432
 171  798.7384
 172  594.3511
 173  461.7884
 174  453.9288
 175  546.7726
 176  618.8792
 177  679.4266
 178  673.7863
 179  708.0377
 180  785.8321
 181  790.6921
 182  764.2617
 183  810.8246
 184  762.8489
 185  755.5256
 186  720.1174
 187  841.6078
 188  718.9758
 189  671.1555
 190  642.2859
 191  786.347
 192  799.1806
 193  709.8119
 194  812.7523
 195  943.2172
 196  960.5532
 197  816.4827
 198  711.3038
 199  600.9659
 200  652.4424
 201  716.5071
 202  702.5544
 203  727.1937
 204  790.895
 205  941.3849
 206  1027.092
 207  1144.483
 208  1152.997
 209  1112.757
 210  1007.461
 211  993.1838
 212  849.6559
 213  865.9043
 214  795.4039
 215  889.4507
 216  811.3091
 217  726.7668
 218  721.7576
 219  837.3897
 220  896.0852
 221  824.1573
 222  862.7338
 223  822.4463
 224  792.9559
 225  824.1797
 226  1016.711
 227  1192.279
 228  1250.229
 229  1201.552
 230  1132.101
 231  1110.257
 232  1034.712
 233  879.3662
 234  739.6573
 235  720.8967
 236  792.6617
 237  906.2452
 238  850.1295
 239  736.8246
 240  640.8623
 241  707.1969
 242  814.9211
 243  782.983
 244  793.3995
 245  922.5917
 246  1028.199
 247  956.8596
 248  858.2319
 249  953.9974
 250  1041.406
 251  1047.146
 252  925.0934
 253  882.9393
 254  792.6902
 255  781.4176
 256  678.5505
 257  641.0751
 258  644.7451
 259  769.2264
 260  818.7888
 261  955.4266
 262  962.9518
 263  975.5104
 264  910.655
 265  878.791
 266  806.5696
 267  685.239
 268  712.9595
 269  619.7188
 270  628.8831
 271  627.1313
 272  692.1957
 273  683.8442
 274  716.1888
 275  708.6651
 276  799.8705
 277  814.2121
 278  770.7363
 279  673.9809
 280  646.0819
 281  705.218
 282  672.903
 283  755.8322
 284  710.5499
 285  782.7979
 286  798.8324
 287  822.0237
 288  821.3414
 289  743.402
 290  694.8337
 291  735.523
 292  888.65
 293  981.6863
 294  919.249
 295  933.8942
 296  914.1173
 297  906.1406
 298  903.8466
 299  978.0158
 300  982.4855
 301  893.1993
 302  831.3718
 303  810.6119
 304  829.3226
 305  944.5573
 306  935.874
 307  987.5393
 308  1001.816
 309  1149.17
 310  1094.57
 311  1038.323
 312  887.0057
 313  803.1039
 314  730.8464
 315  724.7091
 316  704.3392
 317  739.7357
 318  771.0717
 319  755.2989
 320  705.6642
 321  719.8837
 322  767.9001
 323  757.0983
 324  874.5799
 325  883.5933
 326  807.4017
 327  685.5764
 328  657.2328
 329  667.6861
 330  673.143
 331  692.5958
 332  735.6356
 333  763.7418
 334  788.2891
 335  856.0681
 336  764.7496
 337  711.0832
 338  797.694
 339  790.1046
 340  760.2023
 341  697.0827
 342  689.7723
 343  694.1072
 344  675.9189
 345  788.2181
 346  810.7772
 347  785.7449
 348  801.6997
 349  857.0671
 350  812.1605
 351  750.8424
 352  676.5399
 353  774.9324
 354  826.6475
 355  865.4879
 356  776.2939
 357  822.9855
 358  820.7781
 359  841.1328
 360  884.0073
 361  910.3145
 362  923.9985
 363  803.3316
 364  770.3856
 365  869.1903
 366  951.0106
 367  1064.733
 368  1030.587
 369  1014.202
 370  852.123
 371  903.1208
 372  904.8815
 373  1100.735
 374  1127.163
 375  1053.743
 376  1029.713
 377  996.4315
 378  1108.538
 379  1115.331
 380  1158.108
 381  1047.591
 382  940.0455
 383  1004.58
 384  1046.423
 385  1156.454
 386  1277.836
 387  1268.546
 388  1218.518
 389  1119.439
 390  1144.155
 391  1055.085
 392  942.0356
 393  911.0851
 394  947.5605
 395  968.2004
 396  962.8968
 397  1052.903
 398  1119.237
 399  1204.604
 400  1109.034
 401  1128.337
 402  934.2835
 403  935.9807
 404  977.7723
 405  1104.254
 406  1109.449
 407  1016.33
 408  945.7214
 409  841.5038
 410  769.7664
 411  772.8792
 412  831.8506
 413  854.7094
 414  869.092
 415  870.2935
 416  851.8657
 417  827.8337
 418  870.3383
 419  960.8042
 420  1082.488
 421  1017.244
 422  945.7814
 423  813.6765
 424  814.6194
 425  732.5769
 426  749.4724
 427  759.3514
 428  971.2729
 429  1001.829
 430  989.0574
 431  980.0641
 432  1099.077
 433  1071.919
 434  971.1272
 435  856.4377
 436  864.6373
 437  867.2947
 438  777.0444
 439  690.8919
 440  647.4184
 441  672.7846
 442  740.8848
 443  667.9377
 444  771.8404
 445  723.8964
 446  803.0334
 447  790.123
 448  777.7914
 449  689.5025
 450  647.6668
 451  649.812
 452  642.0312
 453  749.8741
 454  836.7197
 455  826.0842
 456  720.835
 457  673.5165
 458  705.7864
 459  776.5276
 460  851.6005
 461  833.0696
 462  820.3753
 463  800.3682
 464  877.6298
 465  849.8438
 466  796.6026
 467  780.8156
 468  864.6329
 469  846.4361
 470  843.3704
 471  833.9828
 472  909.774
 473  960.0688
 474  1016.424
 475  966.2328
 476  898.3966
 477  882.0582
 478  976.5458
 479  1002.182
 480  934.657
 481  1039.072
 482  1011.501
 483  983.5951
 484  893.7275
 485  991.3409
 486  1014.268
 487  924.3929
 488  929.0001
 489  817.6363
 490  843.9207
 491  787.2572
 492  822.7025
 493  885.5987
 494  796.8344
 495  752.0569
 496  715.5711
 497  690.8965
 498  678.5053
 499  646.0699
 500  750.9374
 501  789.9841
 502  798.8646
 503  788.7507
 504  838.146
 505  902.4299
 506  951.8045
 507  1056.985
 508  1001.653
 509  897.6939
 510  746.5923
 511  754.4553
 512  768.4177
 513  755.0831
 514  775.6815
 515  826.2317
 516  881.9688
 517  924.1096
 518  935.1774
 519  941.3625
 520  1018.443
 521  1049.497
 522  1060.607
 523  949.7997
 524  885.8892
 525  829.5976
 526  907.6237
 527  887.4473
 528  871.3513
 529  833.4058
 530  945.387
 531  1015.056
 532  909.3149
 533  824.5115
 534  847.2555
 535  1008.344
 536  1130.494
 537  1147.078
 538  1063.519
 539  953.7883
 540  903.7476
 541  912.314
 542  976.5347
 543  926.1086
 544  946.6676
 545  936.2062
 546  946.4721
 547  877.8984
 548  933.9222
 549  1050.3
 550  1051.44
 551  892.002
 552  824.6159
 553  822.1684
 554  838.4309
 555  718.0872
 556  699.3607
 557  869.0977
 558  845.0824
 559  842.0123
 560  801.3828
 561  951.8773
 562  900.5497
 563  844.432
 564  824.4316
 565  862.9745
 566  865.5563
 567  881.3411
 568  895.2938
 569  975.5748
 570  974.9846
 571  987.7518
 572  883.2332
 573  908.9329
 574  753.831
 575  656.0554
 576  556.9092
 577  611.0609
 578  674.3007
 579  722.0562
 580  803.7261
 581  766.9089
 582  672.1124
 583  475.4207
 584  485.1991
 585  593.2288
 586  702.8307
 587  766.9145
 588  706.5203
 589  692.1221
 590  618.9357
 591  682.8293
 592  678.5704
 593  599.4052
 594  509.8937
 595  461.8907
 596  550.5356
 597  611.7924
 598  585.6901
 599  512.3481
 600  464.4147
 601  439.7649
 602  425.3596
 603  442.1425
 604  455.6945
 605  499.4121
 606  665.4296
 607  854.8153
 608  814.0575
 609  676.9424
 610  585.8003
 611  672.5319
 612  670.3166
 613  663.3316
 614  635.091
 615  551.9947
 616  589.5876
 617  635.2399
 618  710.7028
 619  645.8751
 620  646.9779
 621  657.3236
 622  710.3389
 623  745.0963
 624  792.2357
 625  746.6594
 626  708.5278
 627  665.5193
 628  657.7073
 629  680.0785
 630  633.2279
 631  548.6298
 632  518.1535
 633  644.3223
 634  742.0921
 635  706.7624
 636  618.9897
 637  574.821
 638  590.4834
 639  714.9808
 640  834.7131
 641  860.8936
 642  715.775
 643  519.0145
 644  489.5615
 645  544.4937
 646  666.6989
 647  712.3393
 648  780.4066
 649  779.9019
 650  742.9077
 651  734.6669
 652  805.4119
 653  821.9417
 654  806.5733
 655  762.7059
 656  728.6675
 657  622.7263
 658  509.4799
 659  495.6159
 660  431.6048
 661  386.0411
 662  408.1582
 663  422.4126
 664  399.3102
 665  519.4606
 666  605.6343
 667  586.9375
 668  599.6434
 669  649.5502
 670  556.8881
 671  500.3518
 672  585.0609
 673  683.0781
 674  735.0682
 675  781.2142
 676  856.5549
 677  829.6109
 678  710.515
 679  683.7219
 680  660.5728
 681  650.1673
 682  694.2678
 683  644.0456
 684  641.0684
 685  584.2949
 686  719.4383
 687  763.7571
 688  786.7321
 689  819.2336
 690  839.5352
 691  844.8425
 692  724.3126
 693  659.5344
 694  650.0669
 695  696.1663
 696  719.1622
 697  726.8428
 698  771.4395
 699  805.9201
 700  685.6132
 701  589.9329
 702  597.4556
 703  662.6634
 704  781.779
 705  834.5458
 706  891.5294
 707  809.553
 708  731.1276
 709  675.5744
 710  704.2695
 711  788.3068
 712  872.0742
 713  807.8481
 714  697.2033
 715  611.0933
 716  764.8223
 717  869.8945
 718  966.7186
 719  925.6734
 720  933.9606
 721  943.8961
 722  972.1512
 723  1047.517
 724  1030.837
 725  977.6749
 726  876.6852
 727  1030.499
 728  1040.506
 729  1068.567
 730  981.3951
 731  966.289
 732  852.3232
 733  782.6567
 734  694.4257
 735  740.2068
 736  727.7093
 737  792.9412
 738  925.0199
 739  1023.391
 740  1040.492
 741  986.5035
 742  959.9949
 743  1034.718
 744  995.7173
 745  902.6944
 746  735.0908
 747  781.4374
 748  856.5426
 749  943.7213
 750  955.5297
 751  997.0809
 752  1054.392
 753  1185.396
 754  1291.097
 755  1300.427
 756  1248.5
 757  1232.474
 758  1238.353
 759  1162.713
 760  1097.364
 761  1093.612
 762  982.9894
 763  762.1997
 764  701.8073
 765  745.6301
 766  782.1741
 767  779.0645
 768  834.3964
 769  902.4019
 770  921.5157
 771  882.0042
 772  894.4187
 773  723.2146
 774  685.1876
 775  609.6056
 776  533.5823
 777  494.0149
 778  516.4937
 779  561.8812
 780  654.7896
 781  647.0768
 782  773.0508
 783  724.5731
 784  827.0994
 785  848.9194
 786  865.8561
 787  877.7806
 788  853.5479
 789  820.1666
 790  707.8804
 791  738.1458
 792  648.0998
 793  640.7911
 794  689.7629
 795  864.1808
 796  903.4612
 797  825.6772
 798  765.0859
 799  768.4072
 800  711.5548
 801  667.2344
 802  625.7416
 803  681.2396
 804  591.2381
 805  491.5156
 806  580.3866
 807  623.8869
 808  631.5146
 809  611.4556
 810  716.3315
 811  824.3636
 812  741.803
 813  740.7947
 814  781.7211
 815  924.0172
 816  995.8523
 817  998.7211
 818  944.29
 819  891.9451
 820  903.7607
 821  931.4955
 822  924.2341
 823  818.4176
 824  797.3932
 825  745.7689
 826  912.9916
 827  1037.77
 828  1010.983
 829  862.0365
 830  846.5765
 831  888.6568
 832  921.6708
 833  845.817
 834  747.6036
 835  734.3055
 836  859.2098
 837  911.5948
 838  931.6158
 839  854.2722
 840  968.7238
 841  946.0009
 842  929.2067
 843  702.7319
 844  645.1339
 845  628.9241
 846  831.1903
 847  866.186
 848  864.3054
 849  736.0133
 850  754.1013
 851  758.5044
 852  748.8512
 853  659.4492
 854  781.5204
 855  859.5858
 856  868.9158
 857  746.1501
 858  634.3965
 859  617.0095
 860  652.3425
 861  565.6959
 862  593.7625
 863  695.8406
 864  904.3624
 865  908.3314
 866  829.3391
 867  729.811
 868  688.4006
 869  679.9984
 870  605.1495
 871  629.3893
 872  687.4077
 873  687.4066
 874  760.7932
 875  742.4453
 876  789.0605
 877  667.5031
 878  734.4855
 879  754.0522
 880  756.7922
 881  643.6215
 882  584.8818
 883  551.1421
 884  597.0057
 885  649.9173
 886  728.351
 887  735.019
 888  598.7818
 889  502.6533
 890  509.6087
 891  691.7458
 892  704.0765
 893  675.9052
 894  711.9292
 895  819.8743
 896  833.7287
 897  808.3163
 898  781.3498
 899  808.2603
 900  885.7332
 901  915.658
 902  838.8893
 903  734.5634
 904  768.2758
 905  847.0018
 906  925.7804
 907  826.4958
 908  761.1277
 909  691.9893
 910  780.3145
 911  888.1498
 912  927.6544
 913  830.9344
 914  749.265
 915  657.5103
 916  738.9114
 917  822.728
 918  916.7873
 919  899.6512
 920  887.2752
 921  816.907
 922  734.9106
 923  677.0607
 924  749.5627
 925  871.3922
 926  841.7827
 927  731.8167
 928  534.587
 929  526.9499
 930  578.6869
 931  714.0044
 932  745.006
 933  657.1908
 934  603.3085
 935  595.4099
 936  658.2386
 937  709.1964
 938  729.1585
 939  627.2475
 940  537.9658
 941  532.2542
 942  545.5831
 943  477.2051
 944  509.4837
 945  538.4965
 946  681.4474
 947  687.0749
 948  754.8042
 949  726.1198
 950  727.8686
 951  595.4229
 952  633.0285
 953  699.1905
 954  792.9796
 955  664.124
 956  551.7615
 957  553.4436
 958  705.874
 959  746.6009
 960  701.5415
 961  637.5667
 962  674.6854
 963  679.9307
 964  655.7775
 965  668.0448
 966  649.9591
 967  714.3863
 968  810.7577
 969  807.698
 970  711.9854
 971  616.5504
 972  714.1539
 973  882.1205
 974  1094.241
 975  1145.173
 976  970.45
 977  837.1074
 978  783.698
 979  834.2399
 980  942.3787
 981  939.2076
 982  946.5612
 983  794.4091
 984  809.8458
 985  806.3289
 986  818.0241
 987  772.6576
 988  749.6792
 989  854.1702
 990  920.6683
 991  916.9264
 992  825.458
 993  853.7517
 994  942.2746
 995  1057.454
 996  934.8353
 997  872.6525
 998  829.9274
 999  851.9689
1000  770.7147
1001  714.0807
1002  698.0733
1003  769.6256
1004  782.5872
1005  775.2858
1006  798.1617
1007  871.959
1008  876.3614
1009  797.1089
1010  750.6329
1011  775.5514
1012  826.7545
1013  805.5543
1014  696.6224
1015  758.7144
1016  805.5728
1017  862.3458
1018  748.3453
1019  653.3416
1020  572.1861
1021  664.2694
1022  721.9735
1023  754.546
