# Input file       =  1180595367.128308_cleaned.dat
# Candidate        =  PSR_0332+5434
# Telescope        =  AR
# Epoch_topo       =  57908.298450559123
# Epoch_bary       =  N/A
# T_sample         =  0.002
# Data Folded      =  7340032
# Data Avg         =  0.0989550501128961
# Data StdDev      =  3.12483669672369 
# Profile Bins     =  512
# Profile Avg      =  1417.4961748844  
# Profile StdDev   =  374.146185880271 
# Reduced chi-sqr  =  0.812
# Prob(Noise)      <  0.999   (~0.0 sigma)
# P_topo (ms)      =  714.513377127909  +/- 0.000432
# P'_topo (s/s)    =  -0                +/- 2.28e-10
# P''_topo (s/s^2) =  0                 +/- 1.01e-13
# P_bary (ms)      =  N/A
# P'_bary (s/s)    =  N/A
# P''_bary (s/s^2) =  N/A
# P_orb (s)        =  N/A
# asin(i)/c (s)    =  N/A
# eccentricity     =  N/A
# w (rad)          =  N/A
# T_peri           =  N/A
######################################################
   0  1495.585
   1  1463.915
   2  1367.015
   3  1351.392
   4  1554.184
   5  1686.216
   6  1557.935
   7  1232.394
   8  1403.325
   9  1247.706
  10  1324.095
  11  1304.211
  12  1253.699
  13  1620.024
  14  1933.892
  15  1610.042
  16  1305.38
  17  944.1133
  18  913.3467
  19  1207.999
  20  1480.112
  21  1593.555
  22  1448.452
  23  1176.065
  24  1092.509
  25  1508.866
  26  1701.764
  27  1359.467
  28  1168.605
  29  1271.965
  30  1339.143
  31  1320.257
  32  1354.157
  33  1211.137
  34  1279.49
  35  1299.534
  36  1160.909
  37  957.5272
  38  1081.567
  39  1163.199
  40  1147.798
  41  1587.014
  42  1882.765
  43  1169.652
  44  1371.56
  45  1338.698
  46  1298.949
  47  1337.431
  48  1440.37
  49  1614.995
  50  1448.703
  51  1262.533
  52  1036.184
  53  1168.788
  54  1220.729
  55  1443.936
  56  1542.81
  57  1858.001
  58  1584.803
  59  1397.588
  60  1371.468
  61  1204.265
  62  1336.744
  63  1465.019
  64  1765.376
  65  1698.89
  66  1369.244
  67  1347.094
  68  1500.629
  69  1445.626
  70  1111.25
  71  1281.437
  72  1459.059
  73  1680.471
  74  1560.493
  75  1275.76
  76  1251.036
  77  1556.805
  78  1402.101
  79  1419.625
  80  1376.707
  81  1409.826
  82  1237.745
  83  1248.916
  84  1306.861
  85  1229.25
  86  1371.495
  87  1498.776
  88  1607.735
  89  1419.709
  90  1317.366
  91  1702.496
  92  1444.171
  93  1377.56
  94  1892.376
  95  2041.362
  96  1931.219
  97  1553.199
  98  1608.11
  99  1653.927
 100  1513.095
 101  1494.375
 102  1478.449
 103  1640.267
 104  1822.906
 105  1481.959
 106  1779.504
 107  1819.519
 108  1468.71
 109  1747.598
 110  1802.402
 111  1562.105
 112  1523.992
 113  1822.116
 114  1613.452
 115  1583.135
 116  1512.919
 117  1282.672
 118  1511.137
 119  1036.158
 120  1136.141
 121  1071.996
 122  1092.208
 123  1102.296
 124  1028.923
 125  829.8314
 126  976.4512
 127  1033.457
 128  1153.423
 129  1230.449
 130  1325.415
 131  1799.741
 132  1607.886
 133  1620.882
 134  1251.976
 135  1011.804
 136  1309.404
 137  1559.808
 138  1590.282
 139  1393.984
 140  1336.688
 141  1453.966
 142  1708.523
 143  1639.902
 144  1373.762
 145  1475.865
 146  1593.596
 147  1138.038
 148  1403.716
 149  1562.769
 150  1697.414
 151  1558.061
 152  1437.96
 153  1187.691
 154  1146.976
 155  1143.815
 156  1093.319
 157  1388.528
 158  1495.075
 159  1549.108
 160  1146.315
 161  1083.096
 162  1474.985
 163  1547.784
 164  1286.052
 165  995.3315
 166  1106.981
 167  1208.59
 168  1439.684
 169  1475.348
 170  1669.541
 171  1468.936
 172  1424.393
 173  1375.547
 174  1188.547
 175  1479.003
 176  1500.545
 177  1609.473
 178  1780.696
 179  1375.448
 180  1313.448
 181  1495.441
 182  1467.31
 183  1394.858
 184  1269.955
 185  1287.817
 186  1506.16
 187  1494.515
 188  1213.165
 189  1382.534
 190  1399.85
 191  1388.683
 192  1401.009
 193  1437.637
 194  1486.431
 195  1061.595
 196  956.6651
 197  1094.13
 198  1520.726
 199  1519.537
 200  1104.607
 201  1382.706
 202  1506.022
 203  1083.13
 204  1161.711
 205  1618.989
 206  1370.851
 207  1115.591
 208  1227.134
 209  1068.66
 210  1308.057
 211  1436.113
 212  1556.216
 213  1286.836
 214  1408.128
 215  1286.428
 216  1142.755
 217  1271.624
 218  1303.508
 219  1383.751
 220  1427.72
 221  1341.909
 222  1442.972
 223  1288.7
 224  1686.945
 225  1705.764
 226  1440.36
 227  1234.997
 228  1270.945
 229  1168.059
 230  1317.872
 231  1677.823
 232  1733.448
 233  1436.202
 234  1569.952
 235  1583.037
 236  1635.469
 237  1590.519
 238  1561.809
 239  1384.395
 240  1337.5
 241  1381.53
 242  1399.214
 243  1348.467
 244  1426.549
 245  1587.598
 246  1595.873
 247  1645.617
 248  1398.167
 249  1402.222
 250  1358.477
 251  1427.756
 252  1155.588
 253  1415.228
 254  1351.241
 255  1351.151
 256  1087.866
 257  1003.131
 258  990.7407
 259  963.1495
 260  1008.376
 261  1298.737
 262  1274.052
 263  1394.035
 264  1554.907
 265  1498.357
 266  1579.535
 267  1644.05
 268  1501.22
 269  1713.891
 270  1628.534
 271  1718.676
 272  1541.101
 273  1573.687
 274  1338.67
 275  1554.944
 276  1606.731
 277  1893.168
 278  1654.121
 279  1596.996
 280  1477.229
 281  1168.406
 282  950.29
 283  1054.587
 284  1282.582
 285  1190.655
 286  1178.04
 287  1296.637
 288  1045.827
 289  1024.348
 290  1200.974
 291  1136.432
 292  1239.466
 293  1011.014
 294  833.7336
 295  1287.746
 296  1182.835
 297  1124.922
 298  1323.367
 299  1161.736
 300  1186.899
 301  1180.497
 302  1223.605
 303  1413.768
 304  1418.934
 305  1580.098
 306  1590.988
 307  1375.875
 308  1380.915
 309  1586.859
 310  1603.459
 311  1707.68
 312  1696.661
 313  1634.845
 314  1798.443
 315  1425.855
 316  1610.861
 317  1484.785
 318  1435.099
 319  1338.012
 320  1573.829
 321  1783.284
 322  1919.844
 323  1952.92
 324  1888.147
 325  1850.264
 326  2038.892
 327  2426.952
 328  2801.632
 329  2624.393
 330  2380.678
 331  2119.331
 332  1807.114
 333  1376.349
 334  1090.426
 335  1175.134
 336  1215.452
 337  1496.469
 338  1419.878
 339  1659.339
 340  1472.713
 341  1673.166
 342  1411.4
 343  1359.62
 344  1675.16
 345  1923.245
 346  1455.581
 347  1342.425
 348  1395.247
 349  1717.461
 350  1563.054
 351  1415.788
 352  1420.162
 353  1372.694
 354  1579.312
 355  1616.698
 356  1445.5
 357  1767.843
 358  1731.63
 359  1734.386
 360  1937.331
 361  1834.878
 362  1600.486
 363  1356.739
 364  1419.896
 365  1628.262
 366  1589.367
 367  1406.508
 368  1604.413
 369  1369.045
 370  1311.146
 371  1035.551
 372  1275.56
 373  1511.866
 374  1437.729
 375  1294.8
 376  965.0461
 377  845.8952
 378  978.0415
 379  1369.511
 380  1738.584
 381  1473.038
 382  1270.571
 383  1329.687
 384  1594.503
 385  1710.008
 386  1420.341
 387  1142.973
 388  1084.343
 389  1119.795
 390  1238.19
 391  1343.151
 392  1433.318
 393  1509.879
 394  1192.808
 395  1120.476
 396  1297.36
 397  1529.427
 398  1652.468
 399  1461.059
 400  1080.158
 401  1372.182
 402  1546.508
 403  1657.462
 404  1675.965
 405  1500.563
 406  1432.366
 407  1365.247
 408  1136.414
 409  1112.308
 410  1727.566
 411  1694.776
 412  1391.491
 413  1523.461
 414  1545.954
 415  1508.471
 416  1400.572
 417  1637.236
 418  1338.151
 419  1428.874
 420  1421.829
 421  1385.968
 422  1116.25
 423  1286.257
 424  1399.298
 425  1350.59
 426  1439.62
 427  1530.291
 428  1715.561
 429  1397.972
 430  1520.554
 431  1565.019
 432  1600.546
 433  1277.209
 434  1350.931
 435  1280.539
 436  1539.143
 437  1552.999
 438  1667.283
 439  1668.598
 440  1660.604
 441  1433.342
 442  1398.394
 443  1306.122
 444  1415.273
 445  1401.206
 446  1355.655
 447  1262.726
 448  1489.748
 449  1260.774
 450  1277.668
 451  1489.329
 452  1470.089
 453  1735.4
 454  1398.373
 455  1360.595
 456  1230.892
 457  933.4141
 458  1205.237
 459  1197.969
 460  1255.739
 461  1487.95
 462  1560.972
 463  1390.666
 464  1355.273
 465  1139.9
 466  892.5969
 467  1219.92
 468  1460.415
 469  1552.441
 470  1271.379
 471  1453.18
 472  1341.157
 473  1071.18
 474  1205.901
 475  920.2446
 476  1086.624
 477  1237.666
 478  1478.252
 479  1518.314
 480  1207.896
 481  1086.207
 482  1378.607
 483  1429.213
 484  1415.252
 485  1583.155
 486  1529.164
 487  1349.299
 488  1645.085
 489  1542.119
 490  1474.58
 491  1787.138
 492  1504.874
 493  1354.563
 494  1368.351
 495  1227.773
 496  1167.212
 497  1180.063
 498  1191.464
 499  1124.229
 500  1081.983
 501  1223.88
 502  1772.847
 503  1804.326
 504  1625.841
 505  1441.972
 506  1309.883
 507  1304.624
 508  1321.887
 509  1513.155
 510  1751.835
 511  1695.183
