# Input file       =  1180336856.118337_cleaned.dat
# Candidate        =  PSR_0332+5434
# Telescope        =  AR
# Epoch_topo       =  57905.306424980750
# Epoch_bary       =  N/A
# T_sample         =  0.002
# Data Folded      =  7340032
# Data Avg         =  0.104974785205351
# Data StdDev      =  2.75853300143112 
# Profile Bins     =  512
# Profile Avg      =  1504.94365750395 
# Profile StdDev   =  330.287532206862 
# Reduced chi-sqr  =  1.279
# Prob(Noise)      <  1.87e-05   (~4.1 sigma)
# P_topo (ms)      =  714.516284023929  +/- 0.000308
# P'_topo (s/s)    =  -0                +/- 1.62e-10
# P''_topo (s/s^2) =  0                 +/- 7.17e-14
# P_bary (ms)      =  N/A
# P'_bary (s/s)    =  N/A
# P''_bary (s/s^2) =  N/A
# P_orb (s)        =  N/A
# asin(i)/c (s)    =  N/A
# eccentricity     =  N/A
# w (rad)          =  N/A
# T_peri           =  N/A
######################################################
   0  1327.997
   1  1466.752
   2  1515.462
   3  1425.859
   4  1506.316
   5  1533.691
   6  1368.37
   7  1066.351
   8  785.352
   9  880.1157
  10  1149.887
  11  1108.565
  12  1041.855
  13  1095.32
  14  907.0582
  15  1044.682
  16  1220.118
  17  1103.117
  18  1399.866
  19  1119.191
  20  1102.381
  21  1179.292
  22  1246.679
  23  1340.65
  24  1356.757
  25  1146.137
  26  1489.309
  27  1554.48
  28  1411.112
  29  1348.468
  30  1309.09
  31  1653.247
  32  1228.274
  33  1181.367
  34  1287.319
  35  1299.98
  36  1322.155
  37  1677.457
  38  1669.585
  39  1560.486
  40  1609.664
  41  1458.604
  42  1252.662
  43  1326.805
  44  1416.132
  45  1530.931
  46  1500.647
  47  1281.151
  48  1274.175
  49  1219.343
  50  1343.319
  51  1178.463
  52  1406.089
  53  1321.25
  54  1073.779
  55  1206.566
  56  1330.345
  57  1338.208
  58  1210.731
  59  1110.176
  60  1085.715
  61  1030.959
  62  978.1318
  63  1175.483
  64  1618.293
  65  1823.716
  66  1995.093
  67  1942.509
  68  1806.917
  69  1550.086
  70  1695.808
  71  1803.907
  72  1762.955
  73  1606.589
  74  1554.282
  75  1539.159
  76  1858.91
  77  1809.154
  78  1502.759
  79  1691.459
  80  1626.965
  81  1453.024
  82  1131.375
  83  1170.685
  84  1238.601
  85  1318.164
  86  1495.237
  87  1646.279
  88  1494.896
  89  1677.98
  90  1549.035
  91  1323.781
  92  1392.061
  93  1771.457
  94  1667.497
  95  1345.422
  96  1191.228
  97  1484.987
  98  1409.009
  99  1314.476
 100  1171.036
 101  1654.222
 102  1601.504
 103  1376.088
 104  1432.759
 105  1367.077
 106  1153.886
 107  1502.243
 108  1594.396
 109  1307.481
 110  1338.583
 111  1200.38
 112  1604.599
 113  1530.189
 114  1491.781
 115  1532.734
 116  1597.884
 117  1343.393
 118  1322.62
 119  1599.934
 120  1421.229
 121  1441.478
 122  1147.774
 123  1598.861
 124  1500.568
 125  1271.586
 126  1429.548
 127  1196.341
 128  1214.845
 129  1231.221
 130  1272.296
 131  1167.775
 132  1048.04
 133  1277.077
 134  1376.8
 135  1363.05
 136  1224.831
 137  1253.544
 138  1181.186
 139  1169.357
 140  1214.742
 141  1367.502
 142  1386.28
 143  1420.431
 144  1400.099
 145  1663.509
 146  1943.544
 147  1813.521
 148  1759.538
 149  1844.662
 150  1731.8
 151  1625.903
 152  1730.567
 153  1800.173
 154  2061.303
 155  1536.943
 156  1470.22
 157  1623.918
 158  1629.346
 159  1600.447
 160  1571.9
 161  1812.12
 162  1624.176
 163  1563.269
 164  1780.509
 165  1546.781
 166  1611.833
 167  1909.257
 168  1542.948
 169  1848.787
 170  1728.761
 171  1460.19
 172  1517.184
 173  1144.695
 174  1217.46
 175  1316.301
 176  1278.022
 177  1234.606
 178  1030.645
 179  1132.22
 180  1515.045
 181  1601.272
 182  1346.536
 183  1369.763
 184  1533.092
 185  1566.805
 186  1521.273
 187  1446.21
 188  1484.004
 189  1400.976
 190  1255.031
 191  1563.425
 192  1554.62
 193  1787.01
 194  1859.88
 195  1546.064
 196  1482.364
 197  1496.899
 198  1425.275
 199  1519.96
 200  1422.948
 201  1514.214
 202  1531.724
 203  1474.389
 204  1456.34
 205  1543.232
 206  1431.152
 207  1538.445
 208  1557.704
 209  1756.1
 210  1701.122
 211  1622.863
 212  1741.081
 213  1608.914
 214  1701.779
 215  1884.767
 216  1878.075
 217  1768.347
 218  1423.887
 219  1529.748
 220  1641.403
 221  1704.69
 222  1720.963
 223  1534.848
 224  1768.395
 225  1399.269
 226  1218.801
 227  1581.238
 228  1721.972
 229  1855.852
 230  1848.629
 231  1663.162
 232  1573.113
 233  1781.708
 234  1818.332
 235  1990.065
 236  1906.979
 237  1629.186
 238  1710.53
 239  1905.08
 240  1695.371
 241  1463.958
 242  1545.222
 243  1579.027
 244  1434.298
 245  1650.2
 246  1660.328
 247  1754.12
 248  1756.559
 249  2078.201
 250  1868.495
 251  1660.415
 252  1649.789
 253  1637.928
 254  1949.411
 255  1992.657
 256  1786.924
 257  1694.682
 258  1779.948
 259  1600.085
 260  1355.737
 261  1366.016
 262  1423.976
 263  1913.444
 264  1810.281
 265  1541.175
 266  1818.55
 267  1729.503
 268  1192.922
 269  1396.774
 270  1365.299
 271  1572.201
 272  1462.893
 273  1449.616
 274  1546.886
 275  1890.832
 276  1911.955
 277  1677.776
 278  1599.844
 279  1763.189
 280  1807.723
 281  1610.154
 282  1293.657
 283  1257.183
 284  1613.412
 285  1724.214
 286  1430.544
 287  1239.772
 288  1080.919
 289  1388.022
 290  1543.644
 291  1477.706
 292  1329.513
 293  1403.755
 294  1768.152
 295  1400.864
 296  1302.475
 297  1256.26
 298  1605.718
 299  1657.037
 300  1747.095
 301  1707.747
 302  1492.295
 303  1489.391
 304  1699.239
 305  1632.748
 306  1320.138
 307  1337.649
 308  1303.169
 309  1308.008
 310  1427.255
 311  1395.443
 312  1339.334
 313  1191.673
 314  1215.559
 315  1651.086
 316  1519.511
 317  1578.362
 318  1770.181
 319  1697.529
 320  1784.412
 321  1860.639
 322  1910.871
 323  1777.054
 324  1849.925
 325  1735.63
 326  2108.693
 327  3052.527
 328  2857.24
 329  2916.084
 330  2740.76
 331  2871.518
 332  2118.452
 333  1685.57
 334  1547.868
 335  1413.882
 336  1662.45
 337  1519.117
 338  1463.509
 339  1710.332
 340  1561.933
 341  1594.583
 342  1792.876
 343  1716.515
 344  1443.776
 345  1253.327
 346  1418.313
 347  1181.93
 348  1259.572
 349  1534.302
 350  1515.967
 351  1561.231
 352  1382.651
 353  1320.554
 354  1056.315
 355  1105.486
 356  1380.806
 357  1358.715
 358  1378.593
 359  1319.005
 360  1335.881
 361  1178.27
 362  1325.957
 363  1414.783
 364  1511.59
 365  1807.558
 366  1636.978
 367  1773.419
 368  1528.737
 369  1363.01
 370  1468.175
 371  1674.665
 372  1533.458
 373  1409.994
 374  1523.59
 375  1466.388
 376  1629.947
 377  1514.54
 378  1473.901
 379  1683.558
 380  1622.396
 381  1607.439
 382  1682.988
 383  1503.371
 384  1480.201
 385  1547.104
 386  1469.907
 387  1275.959
 388  1403.142
 389  1303.277
 390  1473.966
 391  1512.606
 392  1528.878
 393  1625.816
 394  1530.809
 395  1680.817
 396  1720.102
 397  1058.56
 398  1080.302
 399  1466.5
 400  1581.016
 401  1684.717
 402  1826.889
 403  1539.213
 404  1424.099
 405  1488.024
 406  1813.029
 407  2086.706
 408  2035.563
 409  1580.021
 410  1624.955
 411  1636.973
 412  1676.592
 413  1738.526
 414  1549.506
 415  1594.565
 416  1705.988
 417  1843.73
 418  1735.131
 419  1185.123
 420  1071.356
 421  1287.951
 422  1537.323
 423  1527.139
 424  1395.459
 425  1295.794
 426  1388.257
 427  1605.667
 428  1697.712
 429  1496.417
 430  1643.101
 431  1724.897
 432  1604.782
 433  1837.535
 434  1635.901
 435  1586.519
 436  1488.675
 437  1634.001
 438  1460.146
 439  1796.765
 440  1937.461
 441  1641.056
 442  1636.754
 443  1584.882
 444  1764.721
 445  1540.74
 446  1577.821
 447  1672.133
 448  1487.398
 449  1592.978
 450  1413.023
 451  1420.034
 452  1855.279
 453  1594.643
 454  1485.716
 455  1578.771
 456  1505.572
 457  1115.554
 458  1378.85
 459  1329.105
 460  1346.53
 461  1569.401
 462  1410.126
 463  1551.63
 464  1289.627
 465  1491.96
 466  1663.929
 467  1476.036
 468  1396.632
 469  1371.512
 470  1174.684
 471  1090.781
 472  1260.019
 473  1574.807
 474  1602.518
 475  1151.372
 476  1042.357
 477  1015.907
 478  1071.686
 479  729.4088
 480  1092.236
 481  1244.647
 482  1280.259
 483  966.441
 484  959.62
 485  1050.18
 486  970.0421
 487  1067.447
 488  1426.406
 489  1495.161
 490  1388.799
 491  1379.588
 492  1149.395
 493  1452.341
 494  1269.794
 495  1223.635
 496  1344.392
 497  1433.403
 498  1516.545
 499  1539.862
 500  1392.969
 501  1385.727
 502  1390.031
 503  1349.507
 504  1395.79
 505  1590.7
 506  1545.746
 507  1433.166
 508  1651.361
 509  1790.383
 510  1948.051
 511  1660.118
