# Input file       =  1180351768.120151_cleaned.dat
# Candidate        =  PSR_0332+5434
# Telescope        =  AR
# Epoch_topo       =  57905.479017594342
# Epoch_bary       =  N/A
# T_sample         =  0.002
# Data Folded      =  7340032
# Data Avg         =  0.0680138343440311
# Data StdDev      =  1.00035018684577 
# Profile Bins     =  512
# Profile Avg      =  975.077741478896 
# Profile StdDev   =  119.774965311109 
# Reduced chi-sqr  =  1.242
# Prob(Noise)      <  0.000153   (~3.6 sigma)
# P_topo (ms)      =  714.516448862289  +/- 0.000165
# P'_topo (s/s)    =  -0                +/- 8.7e-11
# P''_topo (s/s^2) =  0                 +/- 3.84e-14
# P_bary (ms)      =  N/A
# P'_bary (s/s)    =  N/A
# P''_bary (s/s^2) =  N/A
# P_orb (s)        =  N/A
# asin(i)/c (s)    =  N/A
# eccentricity     =  N/A
# w (rad)          =  N/A
# T_peri           =  N/A
######################################################
   0  1473.366
   1  1386.168
   2  1156.837
   3  1051.533
   4  946.5962
   5  721.8939
   6  850.709
   7  828.5457
   8  889.2553
   9  1025.559
  10  1071.491
  11  1007.733
  12  944.3438
  13  863.7524
  14  1006.783
  15  1050.631
  16  948.6326
  17  1052.005
  18  1026.885
  19  908.4362
  20  943.9407
  21  1011.886
  22  975.8447
  23  896.885
  24  1010.363
  25  1017.158
  26  960.0258
  27  989.0429
  28  1029.618
  29  1000.327
  30  954.7063
  31  951.8903
  32  901.6788
  33  918.3213
  34  1009.516
  35  1042.553
  36  980.9435
  37  898.0739
  38  912.3329
  39  961.4477
  40  991.0266
  41  1012.699
  42  1074.992
  43  987.4955
  44  932.983
  45  905.3247
  46  777.8256
  47  885.8443
  48  984.6873
  49  905.2173
  50  838.3239
  51  893.2068
  52  917.3187
  53  1000.715
  54  896.0665
  55  917.1202
  56  855.156
  57  734.0953
  58  911.1125
  59  915.5546
  60  880.5472
  61  1002.312
  62  995.1061
  63  968.2238
  64  1020.058
  65  1152.875
  66  1246.954
  67  1183.292
  68  1224.066
  69  1107.361
  70  1062.621
  71  1068.76
  72  1074.3
  73  1023.548
  74  925.0825
  75  940.3094
  76  944.3517
  77  908.9303
  78  948.4526
  79  969.3074
  80  929.5316
  81  915.9459
  82  967.9156
  83  927.4656
  84  1013.885
  85  945.5392
  86  963.1071
  87  1051.535
  88  949.6207
  89  869.5861
  90  797.2025
  91  902.7528
  92  1012.856
  93  974.015
  94  934.2499
  95  942.3423
  96  920.9437
  97  1088.459
  98  965.8212
  99  1018.805
 100  933.4822
 101  885.7134
 102  913.6226
 103  958.609
 104  1069.478
 105  1059.13
 106  1031.201
 107  1127.103
 108  1082.225
 109  945.3984
 110  972.1654
 111  1097.136
 112  1130.434
 113  1036.178
 114  985.4532
 115  1003.421
 116  986.8182
 117  997.0541
 118  956.0745
 119  1121.729
 120  1043.445
 121  996.6772
 122  1030.017
 123  961.8932
 124  927.8917
 125  903.7791
 126  944.064
 127  919.9053
 128  936.1484
 129  983.0375
 130  924.1749
 131  1074.386
 132  1087.148
 133  1009.879
 134  963.3994
 135  968.5471
 136  864.0836
 137  821.0326
 138  875.1401
 139  846.1393
 140  859.2896
 141  857.4009
 142  891.4814
 143  776.1108
 144  772.2449
 145  743.5478
 146  832.2095
 147  928.439
 148  901.387
 149  864.793
 150  843.1246
 151  874.3745
 152  903.3983
 153  1028.568
 154  1029.859
 155  976.9811
 156  892.5817
 157  921.1293
 158  888.9907
 159  874.7982
 160  851.9058
 161  855.8593
 162  874.1514
 163  904.9347
 164  937.7127
 165  999.0356
 166  992.2576
 167  1023.245
 168  901.7889
 169  894.1995
 170  1044.857
 171  966.0698
 172  861.035
 173  947.611
 174  883.595
 175  846.1594
 176  854.452
 177  876.0587
 178  994.3987
 179  993.1841
 180  1051.41
 181  1003.704
 182  897.5623
 183  836.304
 184  816.2293
 185  1027.728
 186  1034.384
 187  1110.933
 188  1045.841
 189  1033.984
 190  915.8922
 191  917.8807
 192  978.412
 193  963.1306
 194  1106.568
 195  1036.536
 196  1016.15
 197  1078.531
 198  1098.216
 199  1048.003
 200  1002.124
 201  992.721
 202  919.85
 203  986.6407
 204  1091.004
 205  1066.996
 206  959.8845
 207  946.9952
 208  906.4809
 209  984.5475
 210  1006.2
 211  932.1418
 212  903.5825
 213  940.3323
 214  1046.647
 215  1050.802
 216  1003.825
 217  985.2567
 218  974.1021
 219  811.7182
 220  805.6354
 221  895.4551
 222  1106.724
 223  942.8986
 224  905.8763
 225  868.9991
 226  938.4237
 227  951.7328
 228  1062.341
 229  1049.301
 230  969.4247
 231  1098.443
 232  878.0681
 233  879.4445
 234  961.4598
 235  1029.185
 236  1069.18
 237  1082.672
 238  1150.584
 239  1123.268
 240  937.8555
 241  1102.874
 242  1177.464
 243  1045.187
 244  1046.049
 245  1180.825
 246  1115.551
 247  942.3958
 248  907.6789
 249  1008.302
 250  1050.224
 251  1055.126
 252  1039.508
 253  959.1904
 254  880.8918
 255  822.8129
 256  837.0905
 257  873.2878
 258  901.8834
 259  822.1975
 260  651.4425
 261  603.5591
 262  817.492
 263  965.796
 264  1021.334
 265  887.8605
 266  873.5609
 267  793.5947
 268  909.2802
 269  1062.322
 270  982.8011
 271  936.5724
 272  965.3284
 273  890.6432
 274  894.7715
 275  909.0776
 276  952.483
 277  939.551
 278  860.5562
 279  972.9394
 280  938.191
 281  1054.431
 282  1041.166
 283  1029.599
 284  1032.364
 285  1029.006
 286  1160.225
 287  1141.87
 288  985.9636
 289  1091.922
 290  1022.256
 291  1048.244
 292  995.5647
 293  993.4238
 294  984.994
 295  835.0542
 296  833.0731
 297  871.7755
 298  926.7333
 299  971.0353
 300  999.3262
 301  1006.14
 302  1088.348
 303  1059.588
 304  1035.817
 305  1085.083
 306  935.5466
 307  963.5969
 308  993.6345
 309  987.0601
 310  848.0139
 311  943.8499
 312  924.9146
 313  875.616
 314  1020.319
 315  979.4816
 316  1057.56
 317  1082.284
 318  1016.317
 319  1064.023
 320  1035.775
 321  1109.404
 322  916.2078
 323  990.5885
 324  1121.54
 325  1076.417
 326  1057.625
 327  985.2987
 328  997.3046
 329  1081.37
 330  1037.389
 331  1021.732
 332  1061.936
 333  1039.758
 334  992.2757
 335  894.6573
 336  914.5165
 337  888.8859
 338  936.2924
 339  933.8516
 340  836.6634
 341  905.984
 342  972.4138
 343  1027.443
 344  1038.344
 345  949.2038
 346  938.3394
 347  811.4785
 348  876.1111
 349  1053.642
 350  996.8189
 351  928.9163
 352  940.8281
 353  863.3257
 354  763.8074
 355  781.891
 356  939.8621
 357  970.9395
 358  869.4203
 359  938.2474
 360  984.5982
 361  982.8569
 362  1000.384
 363  942.2932
 364  1040.051
 365  1066.591
 366  1067.474
 367  1096.238
 368  1030.412
 369  1012.943
 370  1070.093
 371  993.131
 372  988.7705
 373  915.6022
 374  1028.712
 375  1085.616
 376  1114.547
 377  988.9548
 378  841.0497
 379  875.5417
 380  825.4041
 381  866.748
 382  834.5729
 383  935.9638
 384  993.862
 385  1026.537
 386  1009.23
 387  1054.026
 388  1018.4
 389  967.9807
 390  908.1487
 391  765.5742
 392  842.3289
 393  936.6414
 394  942.4009
 395  982.975
 396  944.9141
 397  889.9838
 398  908.1008
 399  1027.122
 400  977.1349
 401  885.0919
 402  967.9338
 403  1002.211
 404  987.2502
 405  1119.867
 406  970.4405
 407  1062.243
 408  983.3994
 409  1057.353
 410  1119.385
 411  1100.031
 412  1139.983
 413  1167.961
 414  1173.943
 415  1005.71
 416  1081.19
 417  1092.561
 418  1101.387
 419  1027.185
 420  1003.412
 421  1018.711
 422  1145.482
 423  1092.33
 424  1047.091
 425  1053.343
 426  963.6927
 427  937.5069
 428  988.2817
 429  1108.178
 430  985.1549
 431  1017.622
 432  932.8969
 433  918.8427
 434  991.0128
 435  1004.012
 436  1068.032
 437  970.9489
 438  946.1442
 439  885.7348
 440  963.4574
 441  1045.1
 442  922.0974
 443  1022.612
 444  1089.025
 445  959.8464
 446  991.9147
 447  942.8633
 448  974.4
 449  1022.444
 450  1016.007
 451  1120.859
 452  1080.332
 453  1045.815
 454  1059.649
 455  1199.736
 456  1174.839
 457  1167.915
 458  1071.51
 459  991.1116
 460  936.4159
 461  911.8952
 462  970.0667
 463  924.2874
 464  964.53
 465  999.4201
 466  935.7286
 467  817.7995
 468  809.9418
 469  866.6318
 470  969.4298
 471  1013.942
 472  1012.485
 473  996.351
 474  910.8243
 475  857.705
 476  852.7825
 477  943.3985
 478  784.8129
 479  778.3182
 480  909.4884
 481  860.6837
 482  902.6852
 483  894.3278
 484  847.9866
 485  876.56
 486  921.7216
 487  1006.593
 488  1035.276
 489  1013.07
 490  999.6476
 491  960.6355
 492  935.1265
 493  962.1343
 494  892.7443
 495  1010.926
 496  1123.336
 497  1154.476
 498  1070.383
 499  1001.697
 500  883.9068
 501  890.3421
 502  896.255
 503  955.1105
 504  1062.09
 505  1162.002
 506  943.0217
 507  993.0714
 508  919.3014
 509  1074.573
 510  1232.189
 511  1288.093
