# Input file       =  1181528503.117767_cleaned.dat
# Candidate        =  PSR_0332+5434
# Telescope        =  AR
# Epoch_topo       =  57919.098635622307
# Epoch_bary       =  N/A
# T_sample         =  0.002
# Data Folded      =  7208960
# Data Avg         =  0.0957063912075357
# Data StdDev      =  3.84316384500303 
# Profile Bins     =  512
# Profile Avg      =  1347.65135738542 
# Profile StdDev   =  456.026654287555 
# Reduced chi-sqr  =  0.819
# Prob(Noise)      <  0.999   (~0.0 sigma)
# P_topo (ms)      =  714.503141343447  +/- 5.34e-05
# P'_topo (s/s)    =  -0                +/- 2.87e-11
# P''_topo (s/s^2) =  0                 +/- 1.29e-14
# P_bary (ms)      =  N/A
# P'_bary (s/s)    =  N/A
# P''_bary (s/s^2) =  N/A
# P_orb (s)        =  N/A
# asin(i)/c (s)    =  N/A
# eccentricity     =  N/A
# w (rad)          =  N/A
# T_peri           =  N/A
######################################################
   0  1481.243
   1  1398.373
   2  1415.069
   3  1637.772
   4  1592.986
   5  1391.168
   6  1500.43
   7  1739.694
   8  1218.64
   9  1215.276
  10  1555.837
  11  1550.802
  12  1302.262
  13  1162.224
  14  1525.06
  15  1355.175
  16  1415.081
  17  1354.023
  18  1349.469
  19  1639.526
  20  1810.947
  21  1804.978
  22  1478.791
  23  1511.862
  24  1316.676
  25  1341.383
  26  1164.689
  27  796.53
  28  1273.395
  29  1380.786
  30  1622.94
  31  1527.687
  32  1521.76
  33  1110.702
  34  764.75
  35  692.2777
  36  773.5004
  37  1257.713
  38  1729.66
  39  1680.037
  40  1605.501
  41  1296.315
  42  962.8665
  43  688.3347
  44  1132.962
  45  658.6271
  46  823.5955
  47  1243.026
  48  1282.098
  49  1479.888
  50  1364.807
  51  1119.886
  52  1103.412
  53  1175.767
  54  1289.691
  55  1238.333
  56  1266.94
  57  1343.246
  58  1246.221
  59  1171.641
  60  1408.549
  61  1086.463
  62  941.3504
  63  1248.642
  64  1705.763
  65  1707.843
  66  1888.603
  67  1841.201
  68  1648.149
  69  1415.792
  70  889.5966
  71  1106.633
  72  1288.208
  73  1388.425
  74  1568.886
  75  1259.229
  76  1213.99
  77  1152.114
  78  787.9577
  79  813.1033
  80  1271.088
  81  1730.573
  82  1731.43
  83  1655.806
  84  1643.021
  85  1486.726
  86  1434.987
  87  1599.198
  88  1716.26
  89  1473.192
  90  1944.258
  91  1594.176
  92  1412.733
  93  1458.75
  94  1650.548
  95  1269.558
  96  1057.027
  97  1604.464
  98  1644.867
  99  1311.746
 100  884.897
 101  1193.338
 102  1360.244
 103  1563.815
 104  1679.539
 105  1472.255
 106  1351.017
 107  968.1797
 108  874.5912
 109  879.6668
 110  1422.719
 111  1442.499
 112  1778.33
 113  1848.046
 114  1848.67
 115  1852.614
 116  1335.496
 117  982.7412
 118  1156.919
 119  1389.182
 120  1705.239
 121  1590.057
 122  1873.651
 123  1529.305
 124  849.1704
 125  854.6422
 126  1135.409
 127  1732.135
 128  1850.849
 129  2200.152
 130  2844.509
 131  2594.887
 132  2103.205
 133  1731.908
 134  1393.931
 135  881.8804
 136  1386.934
 137  1373.509
 138  1558.374
 139  1499.449
 140  1426.885
 141  1069.114
 142  855.0196
 143  1114.213
 144  671.9435
 145  648.0107
 146  1413.078
 147  1722.704
 148  1624.881
 149  1327.998
 150  1329.28
 151  1189.513
 152  1108.348
 153  970.7818
 154  1078.718
 155  1678.272
 156  1215.038
 157  1403.861
 158  1124.785
 159  1000.542
 160  876.8691
 161  745.7541
 162  1307.142
 163  1545.86
 164  1823.301
 165  1690.546
 166  1689.76
 167  1528.607
 168  1065.281
 169  809.5057
 170  1025.116
 171  1133.794
 172  1224.354
 173  1339.684
 174  989.6918
 175  1273.906
 176  1388.868
 177  1247.2
 178  1201.88
 179  1380.411
 180  1427.529
 181  1758.78
 182  1723.447
 183  1359.991
 184  1373.97
 185  1473.841
 186  1422.303
 187  1592.254
 188  1534.229
 189  1389.901
 190  1196.012
 191  1099.331
 192  1182.367
 193  1042.342
 194  1143.634
 195  1296.355
 196  1535.941
 197  1784.209
 198  1439.661
 199  1356.37
 200  792.5367
 201  1097.749
 202  1361.103
 203  1668.119
 204  1291.608
 205  1546.071
 206  1257.782
 207  1003.909
 208  1300.361
 209  1447.382
 210  1396.087
 211  1269.734
 212  1389.578
 213  1716.693
 214  1410.191
 215  873.9426
 216  827.5963
 217  1016.278
 218  1155.303
 219  924.1451
 220  862.712
 221  1275.2
 222  1506.633
 223  1216.369
 224  1226.819
 225  913.9517
 226  1193.481
 227  1006.457
 228  1239.449
 229  1577.611
 230  1732.208
 231  1587.89
 232  1140.134
 233  1205.47
 234  1212.763
 235  1044.319
 236  783.6698
 237  1184.348
 238  1844.479
 239  1639.512
 240  1271.424
 241  1184.489
 242  1233.647
 243  1335.489
 244  1315.934
 245  1294.299
 246  1570.603
 247  2010.815
 248  2085.964
 249  1639.372
 250  1323.515
 251  1093.157
 252  931.3671
 253  1074.469
 254  1316.554
 255  1774.393
 256  1642.157
 257  1087.479
 258  1321.524
 259  1142.188
 260  1120.442
 261  1576.228
 262  1653.876
 263  1670.693
 264  1431.583
 265  1315.516
 266  1159.143
 267  1009.988
 268  1242.969
 269  1200.832
 270  1304.414
 271  1514.591
 272  1487.626
 273  1156.155
 274  1257.272
 275  1288.567
 276  1265.078
 277  1488.051
 278  1614.849
 279  1590.645
 280  1379.676
 281  1393.738
 282  1178.921
 283  1259.59
 284  1140.184
 285  1220.625
 286  1178.652
 287  1273.683
 288  1259.221
 289  729.2622
 290  1082.166
 291  1543.578
 292  1327.632
 293  1220.826
 294  1392.778
 295  1803.137
 296  1777.276
 297  1517.241
 298  917.6722
 299  754.7315
 300  1023.378
 301  1043.79
 302  1144.507
 303  1500.169
 304  1780.428
 305  1629.274
 306  1162.485
 307  1164.614
 308  1552.6
 309  1649.395
 310  1720.297
 311  2005.455
 312  2066.265
 313  1676.348
 314  1473.775
 315  1201.721
 316  1152.742
 317  1300.627
 318  1234.558
 319  1352.15
 320  1810.065
 321  1790.501
 322  1297.005
 323  1090.421
 324  1213.102
 325  1324.189
 326  1177.998
 327  1334.788
 328  1544.582
 329  1619.581
 330  1560.81
 331  1085.924
 332  1072.851
 333  1077.895
 334  1191.259
 335  1168.642
 336  1091.375
 337  1594.767
 338  1715.954
 339  1315.925
 340  1322.787
 341  1487.291
 342  1458.059
 343  1407.658
 344  1620.788
 345  1501.672
 346  1692.787
 347  1409.585
 348  1171.065
 349  807.5448
 350  1089.423
 351  1111.006
 352  1137.626
 353  1336.485
 354  1021.397
 355  1324.729
 356  1576.622
 357  1409.043
 358  1380.633
 359  1048.86
 360  976.6721
 361  1121.359
 362  1517.144
 363  1347.485
 364  1222.266
 365  1327.436
 366  1240.521
 367  1203.096
 368  1387.317
 369  1474.553
 370  1298.109
 371  1432.826
 372  1135.462
 373  1369.074
 374  1353.937
 375  1336.743
 376  1330.618
 377  1612.481
 378  1938.896
 379  1639.875
 380  947.9444
 381  732.7959
 382  790.2079
 383  1030.133
 384  1236.961
 385  1731.297
 386  1683.846
 387  1668.426
 388  1592.287
 389  1473.042
 390  1355.192
 391  1071.164
 392  1276.466
 393  1276.97
 394  1520.599
 395  1282.84
 396  1113.938
 397  1039.626
 398  895.0532
 399  1508.042
 400  1216.8
 401  966.4841
 402  1230.971
 403  1779.749
 404  1874.981
 405  1147.602
 406  1171.366
 407  1216.746
 408  1122.911
 409  1171.445
 410  1468.581
 411  1767.897
 412  1693.791
 413  1928.137
 414  1660.28
 415  1308.737
 416  1043.081
 417  1401.497
 418  1445.631
 419  1617.984
 420  1785.403
 421  1216.473
 422  1326.496
 423  1375.983
 424  1658.738
 425  1235.575
 426  1258.352
 427  1410.446
 428  1348.742
 429  1758.542
 430  1434.023
 431  1458.328
 432  1505.836
 433  1815.172
 434  1273.904
 435  1144.113
 436  1462.58
 437  1495.305
 438  1126.449
 439  1229.52
 440  1683.494
 441  1100.295
 442  980.2902
 443  1727.797
 444  1574.488
 445  1491.557
 446  1421.25
 447  1516.853
 448  1331.356
 449  1678.887
 450  2072.271
 451  1648.556
 452  1569.297
 453  1394.854
 454  1388.952
 455  1242.991
 456  1408.911
 457  1541.474
 458  1289.689
 459  1358.961
 460  1557.741
 461  1637.462
 462  1457.516
 463  929.1083
 464  1076.755
 465  1108.14
 466  1157.988
 467  1597.083
 468  1861.266
 469  1894.915
 470  1784.708
 471  1197.99
 472  864.5285
 473  881.2037
 474  1124.681
 475  980.2872
 476  1465.131
 477  1749.665
 478  1468.839
 479  1144.977
 480  858.4789
 481  967.9346
 482  830.9961
 483  775.0543
 484  1009.694
 485  1372.862
 486  1452.272
 487  1577.35
 488  1094.435
 489  692.7482
 490  748.1571
 491  969.3226
 492  1146.988
 493  1183.394
 494  1328.326
 495  1617.955
 496  1588.844
 497  1422.517
 498  1328.31
 499  1072.08
 500  1177.645
 501  1327.689
 502  1700.264
 503  1453.924
 504  1111.934
 505  1075.695
 506  1151.399
 507  1116.003
 508  929.9299
 509  1573.798
 510  1650.24
 511  1294.666
