# Input file       =  1181011511.105454_cleaned.dat
# Candidate        =  PSR_0332+5434
# Telescope        =  AR
# Epoch_topo       =  57913.114931776086
# Epoch_bary       =  N/A
# T_sample         =  0.002
# Data Folded      =  7143424
# Data Avg         =  0.233624401765047
# Data StdDev      =  4.87629094294075 
# Profile Bins     =  1024
# Profile Avg      =  1629.63814751258 
# Profile StdDev   =  407.279776567407 
# Reduced chi-sqr  =  0.441
# Prob(Noise)      <  1   (~0.0 sigma)
# P_topo (ms)      =  714.508750764159  +/- 0.000106
# P'_topo (s/s)    =  -0                +/- 5.73e-11
# P''_topo (s/s^2) =  0                 +/- 2.6e-14
# P_bary (ms)      =  N/A
# P'_bary (s/s)    =  N/A
# P''_bary (s/s^2) =  N/A
# P_orb (s)        =  N/A
# asin(i)/c (s)    =  N/A
# eccentricity     =  N/A
# w (rad)          =  N/A
# T_peri           =  N/A
######################################################
   0  1598.04
   1  1588.54
   2  1582.321
   3  1683.951
   4  1631.813
   5  1493.795
   6  1439.564
   7  1420.42
   8  1507.951
   9  1390.013
  10  1382.125
  11  1496.6
  12  1623.367
  13  1673.994
  14  1708.086
  15  1666.09
  16  1644.718
  17  1577.802
  18  1492.686
  19  1433.756
  20  1316.201
  21  1351.228
  22  1221.204
  23  1321.364
  24  1303.277
  25  1514.662
  26  1704.025
  27  1792.91
  28  1744.542
  29  1685.437
  30  1738.208
  31  1711.17
  32  1591.085
  33  1406.287
  34  1445.261
  35  1524.043
  36  1722.198
  37  1699.174
  38  1601.879
  39  1453.798
  40  1494.87
  41  1689.949
  42  1654.212
  43  1594.418
  44  1574.257
  45  1686.969
  46  1652.13
  47  1506.335
  48  1428.639
  49  1444.676
  50  1491.221
  51  1476.406
  52  1435.656
  53  1338.937
  54  1452.115
  55  1588.408
  56  1662.9
  57  1508.718
  58  1482.752
  59  1522.89
  60  1469.421
  61  1510.128
  62  1580.595
  63  1596.503
  64  1596.127
  65  1499.203
  66  1593.78
  67  1549.823
  68  1560.793
  69  1439.39
  70  1374.541
  71  1512.346
  72  1626.799
  73  1693.491
  74  1518.486
  75  1532.743
  76  1547.169
  77  1540.505
  78  1490.803
  79  1613.527
  80  1732.232
  81  1785.247
  82  1765.075
  83  1636.256
  84  1587.021
  85  1554.321
  86  1768.785
  87  1722.51
  88  1653.389
  89  1518.082
  90  1580.724
  91  1689.307
  92  1490.878
  93  1369.935
  94  1452.177
  95  1640.471
  96  1745.772
  97  1712.05
  98  1686.332
  99  1607.446
 100  1600.81
 101  1632.711
 102  1637.857
 103  1585.696
 104  1612.248
 105  1653.41
 106  1584.013
 107  1450.381
 108  1578.328
 109  1719.354
 110  1579.866
 111  1475.197
 112  1322.375
 113  1405.016
 114  1560.238
 115  1639.329
 116  1641.903
 117  1478.924
 118  1531.237
 119  1600.875
 120  1584.075
 121  1612.643
 122  1553.118
 123  1722.574
 124  1606.449
 125  1537.77
 126  1515.838
 127  1495.606
 128  1496.319
 129  1488.083
 130  1522.572
 131  1618.889
 132  1641.621
 133  1675.831
 134  1506.155
 135  1408.153
 136  1434.242
 137  1502.771
 138  1607.801
 139  1599.703
 140  1646.62
 141  1670.753
 142  1626.107
 143  1598.938
 144  1592.364
 145  1550.849
 146  1536.81
 147  1592.236
 148  1546.756
 149  1462.272
 150  1323.249
 151  1350.948
 152  1371.649
 153  1355.028
 154  1494.739
 155  1468.395
 156  1478.153
 157  1323.018
 158  1454.564
 159  1570.826
 160  1554.624
 161  1553.989
 162  1592.429
 163  1694.499
 164  1764.416
 165  1664.931
 166  1628.507
 167  1636.472
 168  1694.095
 169  1640.677
 170  1479.591
 171  1270.204
 172  1235.257
 173  1356.643
 174  1566.028
 175  1586.343
 176  1548.23
 177  1480.962
 178  1597.541
 179  1729.217
 180  1662.697
 181  1508.244
 182  1544.034
 183  1599.368
 184  1717.65
 185  1791.524
 186  1790.529
 187  1702.15
 188  1561.24
 189  1505.773
 190  1412.172
 191  1482.839
 192  1492.686
 193  1573.068
 194  1573.612
 195  1485.552
 196  1465.633
 197  1508.972
 198  1540.009
 199  1555.76
 200  1525.141
 201  1619.639
 202  1667.883
 203  1705.615
 204  1625.075
 205  1670.196
 206  1671.174
 207  1746.373
 208  1630.544
 209  1650.198
 210  1569.249
 211  1509.291
 212  1504.936
 213  1462.576
 214  1529.609
 215  1531.374
 216  1508.11
 217  1444.389
 218  1428.748
 219  1498.212
 220  1553.404
 221  1598.564
 222  1592.99
 223  1582.09
 224  1543.013
 225  1541.978
 226  1647.257
 227  1795.295
 228  1876.09
 229  1876.312
 230  1718.596
 231  1648.313
 232  1538.592
 233  1648.546
 234  1678.642
 235  1580.868
 236  1478.681
 237  1541.394
 238  1631.543
 239  1631.752
 240  1590.571
 241  1495.249
 242  1499.942
 243  1500.28
 244  1515.136
 245  1476.314
 246  1591.006
 247  1614.522
 248  1532.779
 249  1482.798
 250  1511.167
 251  1547.023
 252  1724.585
 253  1854.895
 254  1721.252
 255  1473.135
 256  1356.371
 257  1527.422
 258  1617.822
 259  1507.093
 260  1553.851
 261  1669.493
 262  1682.44
 263  1493.395
 264  1449.334
 265  1469.467
 266  1546.893
 267  1636.674
 268  1672.201
 269  1608.79
 270  1681.839
 271  1806.93
 272  1738.647
 273  1713.967
 274  1643.706
 275  1748.385
 276  1720.886
 277  1700.496
 278  1611.735
 279  1581.937
 280  1586.175
 281  1623.231
 282  1554.29
 283  1458.67
 284  1441.987
 285  1588.706
 286  1513.878
 287  1466.361
 288  1517.443
 289  1595.384
 290  1576.329
 291  1598.735
 292  1657.41
 293  1806.17
 294  1828.944
 295  1655.64
 296  1502.206
 297  1397.857
 298  1510.356
 299  1513.742
 300  1482.622
 301  1425.428
 302  1435.244
 303  1532.268
 304  1524.265
 305  1540.126
 306  1617.228
 307  1853.235
 308  1968.194
 309  1933.665
 310  1818.681
 311  1773.105
 312  1818.945
 313  1782.922
 314  1710.795
 315  1616.847
 316  1610.231
 317  1687.307
 318  1579.655
 319  1495.081
 320  1468.745
 321  1523.11
 322  1491.394
 323  1586.549
 324  1599.431
 325  1731.061
 326  1739.532
 327  1862.058
 328  1779.826
 329  1701.913
 330  1739.34
 331  1764.178
 332  1693.464
 333  1607.422
 334  1622.927
 335  1768.68
 336  1750.482
 337  1603.608
 338  1471.542
 339  1544.373
 340  1697.286
 341  1697.754
 342  1565.891
 343  1558.208
 344  1691.082
 345  1743.401
 346  1633.343
 347  1516.446
 348  1578.051
 349  1692.244
 350  1865.418
 351  1805.866
 352  1885.812
 353  1813.479
 354  1768.897
 355  1679.936
 356  1553.728
 357  1441.211
 358  1410.91
 359  1480.017
 360  1575.122
 361  1633.231
 362  1651.521
 363  1664.404
 364  1720.03
 365  1595.402
 366  1643.123
 367  1733.767
 368  1898.479
 369  1724.976
 370  1679.401
 371  1635.782
 372  1766.097
 373  1848.489
 374  1808.617
 375  1677.811
 376  1583.649
 377  1596.364
 378  1606.81
 379  1578.379
 380  1625.673
 381  1628.695
 382  1744.281
 383  1642.294
 384  1614.457
 385  1499.223
 386  1414.662
 387  1409.335
 388  1465.11
 389  1505.403
 390  1576.663
 391  1735.898
 392  1774.13
 393  1702.448
 394  1632.911
 395  1665.288
 396  1611.434
 397  1543.802
 398  1662.156
 399  1749.2
 400  1907.254
 401  1767.957
 402  1661.314
 403  1527.978
 404  1652.344
 405  1733.454
 406  1604.349
 407  1327.25
 408  1231.348
 409  1336.643
 410  1418.577
 411  1572.48
 412  1577.15
 413  1566.429
 414  1535.203
 415  1631.269
 416  1639.118
 417  1518.976
 418  1488.736
 419  1611.832
 420  1698.167
 421  1623.481
 422  1582.193
 423  1587.81
 424  1682.249
 425  1677.84
 426  1763.526
 427  1767.719
 428  1720.567
 429  1692.224
 430  1569.405
 431  1656.538
 432  1702.448
 433  1756.357
 434  1649.814
 435  1589.061
 436  1650.258
 437  1705.926
 438  1742.203
 439  1747.521
 440  1749.266
 441  1836.216
 442  1683.933
 443  1755.863
 444  1679.903
 445  1671.515
 446  1529.033
 447  1431.238
 448  1349.747
 449  1352.672
 450  1374.994
 451  1385.014
 452  1441.467
 453  1603.538
 454  1744.484
 455  1646.621
 456  1624.204
 457  1672.763
 458  1828.872
 459  1848.321
 460  1718.719
 461  1664.311
 462  1542.812
 463  1614.43
 464  1693.258
 465  1742.284
 466  1563.63
 467  1550.545
 468  1560.038
 469  1503.428
 470  1512.11
 471  1505.51
 472  1714.257
 473  1704.369
 474  1761.435
 475  1638.824
 476  1697.182
 477  1712.95
 478  1730.29
 479  1753.233
 480  1546.019
 481  1445.897
 482  1507.493
 483  1684.172
 484  1660.513
 485  1642.845
 486  1633.308
 487  1696.288
 488  1650.979
 489  1610.373
 490  1672.904
 491  1771.587
 492  1813.214
 493  1767.819
 494  1599.402
 495  1384.629
 496  1485.338
 497  1620.91
 498  1638.365
 499  1524.917
 500  1543.693
 501  1657.843
 502  1711.632
 503  1761.719
 504  1804.626
 505  1708.275
 506  1748.401
 507  1695.283
 508  1722.278
 509  1548.554
 510  1503.862
 511  1597.901
 512  1646.802
 513  1561.42
 514  1529.994
 515  1590.973
 516  1762.872
 517  1798.578
 518  1704.946
 519  1600.438
 520  1557.224
 521  1669.757
 522  1725.935
 523  1746.83
 524  1866.539
 525  1757.384
 526  1777.939
 527  1645.884
 528  1809.18
 529  1832.976
 530  1849.761
 531  1619.215
 532  1539.769
 533  1555.275
 534  1484.185
 535  1430.077
 536  1288.545
 537  1406.932
 538  1522.901
 539  1526.116
 540  1496.826
 541  1363.587
 542  1446.948
 543  1575.992
 544  1702.2
 545  1620.354
 546  1612.766
 547  1694.939
 548  1708.38
 549  1656.634
 550  1505.176
 551  1483.239
 552  1420
 553  1561.035
 554  1514.5
 555  1605.761
 556  1515.232
 557  1522.475
 558  1624.186
 559  1543.746
 560  1495.519
 561  1544.659
 562  1678.618
 563  1815.169
 564  1823.231
 565  1896.608
 566  1823.208
 567  1759.496
 568  1610.294
 569  1571.873
 570  1622.877
 571  1745.683
 572  1771.558
 573  1709.83
 574  1557.656
 575  1516.116
 576  1535.135
 577  1478.831
 578  1500.928
 579  1478.463
 580  1545.089
 581  1585.973
 582  1677.136
 583  1645.19
 584  1581.788
 585  1727.919
 586  1734.813
 587  1705.825
 588  1636.882
 589  1605.659
 590  1613.998
 591  1643.823
 592  1703.711
 593  1731.108
 594  1693.745
 595  1483.286
 596  1330.926
 597  1344.336
 598  1576.693
 599  1533.863
 600  1586.185
 601  1634.565
 602  1849.975
 603  1855.499
 604  1706.146
 605  1683.79
 606  1670.63
 607  1764.375
 608  1790.6
 609  1793.381
 610  1688.241
 611  1592.965
 612  1565.142
 613  1646.301
 614  1634.629
 615  1603.91
 616  1583.637
 617  1699.155
 618  1746.427
 619  1787.984
 620  1853.074
 621  1850.607
 622  1659.135
 623  1631.997
 624  1665.635
 625  1751.771
 626  1688.514
 627  1558.384
 628  1450.264
 629  1513.482
 630  1777.866
 631  1982.441
 632  1962.773
 633  1748.398
 634  1619.688
 635  1656.625
 636  1658.561
 637  1803.091
 638  1751.557
 639  1697.146
 640  1619.584
 641  1547.741
 642  1365.101
 643  1224.778
 644  1442.546
 645  1562.853
 646  1614.058
 647  1491.838
 648  1509.493
 649  1504.479
 650  1602.515
 651  1586.365
 652  1749.141
 653  1895.901
 654  1893.889
 655  1868.032
 656  1838.215
 657  1888.049
 658  1848.225
 659  1716.328
 660  1586.31
 661  1662.686
 662  1717.526
 663  1814.647
 664  1652.583
 665  1613.148
 666  1618.604
 667  1701.387
 668  1798.473
 669  1724.801
 670  1761.942
 671  1744.648
 672  1869.444
 673  1882.328
 674  1861.007
 675  1716.579
 676  1675.404
 677  1599.964
 678  1518.369
 679  1376.436
 680  1428.45
 681  1448.219
 682  1498.142
 683  1356.265
 684  1295.822
 685  1372.907
 686  1593.994
 687  1671.306
 688  1657.457
 689  1601.538
 690  1836.335
 691  2000.984
 692  1913.427
 693  1777.105
 694  1692.597
 695  1661.178
 696  1500.22
 697  1333.412
 698  1491.595
 699  1600.874
 700  1569.448
 701  1385.402
 702  1383.18
 703  1577.648
 704  1681.274
 705  1713.506
 706  1545.12
 707  1373.934
 708  1347.034
 709  1545.828
 710  1569.218
 711  1507.268
 712  1486.018
 713  1663.784
 714  1661.302
 715  1702.133
 716  1578.996
 717  1652.046
 718  1721.099
 719  1796.265
 720  1805.528
 721  1740.046
 722  1726.45
 723  1724.012
 724  1646.839
 725  1603.677
 726  1469.612
 727  1514.962
 728  1565.691
 729  1564.339
 730  1576.518
 731  1712.142
 732  1769.535
 733  1692.807
 734  1689.026
 735  1776.288
 736  1864.861
 737  1812.383
 738  1776.937
 739  1795.627
 740  1765.089
 741  1630.958
 742  1538.435
 743  1577.429
 744  1636.318
 745  1662.014
 746  1791.2
 747  1840.499
 748  1639.187
 749  1615.244
 750  1761.227
 751  1973.588
 752  1922.723
 753  1980.581
 754  2141.912
 755  2237.871
 756  2113.691
 757  2075.997
 758  2196.389
 759  2303.842
 760  2193.304
 761  2079.589
 762  1775.426
 763  1650.227
 764  1636.894
 765  1764.53
 766  1557.477
 767  1434.495
 768  1471.996
 769  1658.033
 770  1670.022
 771  1653.085
 772  1587.359
 773  1655.473
 774  1730.582
 775  1781.159
 776  1670.143
 777  1551.557
 778  1540.421
 779  1681.495
 780  1750.435
 781  1815.952
 782  1807.504
 783  1858.279
 784  1918.612
 785  1941.909
 786  1875.67
 787  1753.761
 788  1882.163
 789  1640.762
 790  1447.938
 791  1199.751
 792  1375.254
 793  1496.734
 794  1619.842
 795  1568.701
 796  1682.857
 797  1828.704
 798  1825.672
 799  1699.811
 800  1720.183
 801  1807.075
 802  1834.131
 803  1810.649
 804  1745.004
 805  1585.117
 806  1486.13
 807  1470.025
 808  1629.743
 809  1579.82
 810  1556.234
 811  1550.649
 812  1515.472
 813  1398.117
 814  1448.307
 815  1652.209
 816  1674.878
 817  1699.979
 818  1722.282
 819  1766.451
 820  1654.692
 821  1770.199
 822  1857.471
 823  1950.63
 824  1873.753
 825  1764.392
 826  1704.106
 827  1589.802
 828  1726.777
 829  1805.945
 830  1843.501
 831  1683.592
 832  1580.573
 833  1627.003
 834  1633.422
 835  1633.511
 836  1624.872
 837  1690.024
 838  1781.421
 839  1776.998
 840  1585.868
 841  1527.032
 842  1401.646
 843  1411.214
 844  1411.776
 845  1510.577
 846  1739.899
 847  1774.002
 848  1715.91
 849  1646.126
 850  1714.552
 851  1752.822
 852  1747.212
 853  1778.574
 854  1774.985
 855  1753.715
 856  1760.128
 857  1858.944
 858  1924.918
 859  1737.435
 860  1653.13
 861  1616.373
 862  1565.748
 863  1512.827
 864  1593.652
 865  1774.561
 866  1719.701
 867  1727.519
 868  1681.355
 869  1778.616
 870  1812.159
 871  1899.414
 872  1897.482
 873  1833.162
 874  1685.114
 875  1562.527
 876  1592.466
 877  1493.656
 878  1519.223
 879  1564.674
 880  1651.621
 881  1450.593
 882  1380.264
 883  1363.235
 884  1557.193
 885  1553.748
 886  1566.068
 887  1717.551
 888  1974.872
 889  2000.048
 890  1792.041
 891  1708.927
 892  1811.231
 893  1751.905
 894  1656.557
 895  1392.444
 896  1396.545
 897  1446.557
 898  1548.336
 899  1447.394
 900  1356.523
 901  1450.125
 902  1674.336
 903  1788.738
 904  1682.952
 905  1522.802
 906  1630.974
 907  1671.836
 908  1600.144
 909  1390.031
 910  1364.01
 911  1412.921
 912  1567.219
 913  1521.201
 914  1405.918
 915  1236.186
 916  1226.982
 917  1509.981
 918  1567.475
 919  1630.379
 920  1607.743
 921  1617.831
 922  1501.717
 923  1334.483
 924  1406.488
 925  1630.829
 926  1793.81
 927  1877.04
 928  1830.115
 929  1809.252
 930  1850.87
 931  1834.873
 932  1720.937
 933  1593.092
 934  1619.923
 935  1809.382
 936  1735.04
 937  1581.444
 938  1330.777
 939  1393.106
 940  1470.537
 941  1607.097
 942  1548.578
 943  1461.418
 944  1522.314
 945  1670.488
 946  1740.863
 947  1731.915
 948  1743.817
 949  1842.508
 950  1881.525
 951  1825.053
 952  1820.75
 953  1693.201
 954  1625.239
 955  1608.939
 956  1919.008
 957  1979.62
 958  1968.806
 959  1739.62
 960  1660.944
 961  1776.192
 962  1983.89
 963  1997.944
 964  1894.763
 965  1736.004
 966  1729.58
 967  1733.494
 968  1819.124
 969  1797.604
 970  1843.468
 971  1974.427
 972  1949.731
 973  1911.701
 974  1601.908
 975  1442.087
 976  1387.302
 977  1529.359
 978  1639.738
 979  1791.247
 980  1806.226
 981  1824.83
 982  1700.08
 983  1535.374
 984  1531.363
 985  1648.166
 986  1756.625
 987  1750.996
 988  1518.027
 989  1285.274
 990  1224.453
 991  1489.198
 992  1653.771
 993  1770.754
 994  1781.557
 995  1897.944
 996  1748.398
 997  1711.619
 998  1636.905
 999  1667.993
1000  1783.902
1001  1686.128
1002  1611.494
1003  1485.645
1004  1505.359
1005  1598.517
1006  1482.209
1007  1383.273
1008  1300.819
1009  1484.187
1010  1633.595
1011  1642.496
1012  1666.749
1013  1685.841
1014  1691.651
1015  1816.536
1016  1828.229
1017  1950.58
1018  1815.173
1019  1685.434
1020  1640.907
1021  1701.564
1022  1707.803
1023  1669.185
