# Input file       =  1181442298.112694_cleaned.dat
# Candidate        =  PSR_0332+5434
# Telescope        =  AR
# Epoch_topo       =  57918.100892508031
# Epoch_bary       =  N/A
# T_sample         =  0.002
# Data Folded      =  7208960
# Data Avg         =  0.0660342998241751
# Data StdDev      =  3.39939549725625 
# Profile Bins     =  512
# Profile Avg      =  929.728272990078 
# Profile StdDev   =  403.369467900666 
# Reduced chi-sqr  =  0.677
# Prob(Noise)      <  1   (~0.0 sigma)
# P_topo (ms)      =  714.504067135884  +/- 3.96e-05
# P'_topo (s/s)    =  -0                +/- 2.13e-11
# P''_topo (s/s^2) =  0                 +/- 9.57e-15
# P_bary (ms)      =  N/A
# P'_bary (s/s)    =  N/A
# P''_bary (s/s^2) =  N/A
# P_orb (s)        =  N/A
# asin(i)/c (s)    =  N/A
# eccentricity     =  N/A
# w (rad)          =  N/A
# T_peri           =  N/A
######################################################
   0  1299.895
   1  1326.378
   2  1158.298
   3  836.8307
   4  641.5052
   5  946.8405
   6  899.072
   7  784.1454
   8  747.2674
   9  1010.834
  10  892.8453
  11  706.579
  12  1078.58
  13  826.7132
  14  1017.169
  15  925.4226
  16  946.7909
  17  811.9059
  18  642.5682
  19  865.1094
  20  1117.94
  21  1139.725
  22  1253.202
  23  909.8387
  24  907.3802
  25  1015.259
  26  879.4349
  27  868.9872
  28  1119.277
  29  871.6462
  30  911.9199
  31  813.582
  32  851.3983
  33  1133.354
  34  1261.99
  35  1148.707
  36  811.0844
  37  1069.409
  38  1055.434
  39  825.3906
  40  702.4659
  41  1112.384
  42  1296.335
  43  1135.534
  44  1074.875
  45  890.8973
  46  862.1204
  47  1207.201
  48  1213.084
  49  1099.983
  50  940.7134
  51  1403.976
  52  712.392
  53  726.7951
  54  1167.928
  55  1232.884
  56  931.3975
  57  584.8331
  58  1057.767
  59  943.5067
  60  1184.027
  61  1233.691
  62  1222.574
  63  1000.011
  64  804.4529
  65  1128.073
  66  937.7881
  67  1388.601
  68  1075.99
  69  1023.928
  70  577.6205
  71  899.4582
  72  1090.187
  73  994.7531
  74  1075.85
  75  901.5405
  76  829.1059
  77  816.6262
  78  880.6446
  79  925.749
  80  630.5569
  81  543.5955
  82  335.3738
  83  729.512
  84  937.019
  85  1033.529
  86  1247.253
  87  881.3762
  88  777.3289
  89  679.8221
  90  787.0399
  91  696.7376
  92  811.0016
  93  925.1553
  94  943.9675
  95  1009.208
  96  853.08
  97  961.7107
  98  871.1284
  99  1134.022
 100  1195.587
 101  1139.079
 102  771.4
 103  685.6779
 104  917.6806
 105  920.7183
 106  979.0396
 107  1148.55
 108  1113.83
 109  906.818
 110  604.8052
 111  949.0922
 112  239.8974
 113  578.2198
 114  776.4277
 115  839.957
 116  1183.049
 117  992.776
 118  1058.464
 119  684.9874
 120  885.9393
 121  708.1868
 122  821.5311
 123  1040.727
 124  1043.261
 125  674.2744
 126  645.5139
 127  886.283
 128  699.9584
 129  921.4653
 130  827.5508
 131  1026.257
 132  1294.307
 133  1016.992
 134  759.7565
 135  581.1437
 136  788.5429
 137  462.8116
 138  768.426
 139  976.3137
 140  625.8381
 141  727.2529
 142  614.693
 143  973.8598
 144  607.7872
 145  718.726
 146  950.1347
 147  939.8443
 148  1092.307
 149  878.6401
 150  999.6175
 151  628.7074
 152  629.7932
 153  436.2539
 154  402.0145
 155  697.3817
 156  589.1788
 157  738.3989
 158  938.7499
 159  1155.027
 160  901.3987
 161  887.9405
 162  709.1088
 163  599.722
 164  922.8955
 165  1002.506
 166  859.3566
 167  922.5341
 168  1127.415
 169  1295.748
 170  866.9061
 171  1345.687
 172  1261.638
 173  1136.542
 174  977.1157
 175  928.9995
 176  897.9213
 177  808.7365
 178  780.6041
 179  542.8264
 180  577.9453
 181  301.2223
 182  881.7406
 183  979.9229
 184  698.2656
 185  741.2996
 186  456.3309
 187  723.1918
 188  536.6494
 189  546.1676
 190  649.9591
 191  1098.943
 192  862.6407
 193  323.5143
 194  805.871
 195  747.7684
 196  770.0276
 197  658.8773
 198  909.6259
 199  1270.12
 200  1033.774
 201  762.4463
 202  555.3253
 203  768.033
 204  618.0396
 205  1042.578
 206  872.9769
 207  839.748
 208  661.842
 209  108.3583
 210  159.2475
 211  557.535
 212  1082.196
 213  1030.387
 214  1177.768
 215  1172.721
 216  1004.656
 217  808.0444
 218  541.051
 219  590.1251
 220  328.8456
 221  903.111
 222  822.7767
 223  848.8352
 224  1061.118
 225  919.2961
 226  1119.939
 227  799.918
 228  698.0828
 229  946.0448
 230  856.3394
 231  1148.26
 232  1169.837
 233  1434.671
 234  1228.193
 235  886.472
 236  980.2477
 237  1041.941
 238  958.7355
 239  832.9387
 240  1071.369
 241  881.3402
 242  1096.023
 243  892.9547
 244  934.7584
 245  830.9418
 246  1140.101
 247  1312.22
 248  1034.098
 249  1262.974
 250  823.1179
 251  843.1335
 252  1093.775
 253  1017.886
 254  899.3335
 255  914.7696
 256  1195.327
 257  729.186
 258  830.2963
 259  961.6274
 260  613.7523
 261  722.0609
 262  1120.197
 263  1160.362
 264  988.9728
 265  929.0868
 266  980.9574
 267  1032.282
 268  988.6288
 269  675.4882
 270  775.0982
 271  914.9803
 272  731.0588
 273  1079.104
 274  1217.399
 275  829.1458
 276  673.0566
 277  1004.739
 278  877.1251
 279  1002.541
 280  1057.752
 281  904.3038
 282  966.9542
 283  771.9459
 284  782.411
 285  806.8293
 286  903.8685
 287  959.4932
 288  1052.932
 289  918.687
 290  612.9274
 291  627.0219
 292  493.1075
 293  979.7285
 294  996.9608
 295  990.3174
 296  1200.587
 297  1046.124
 298  876.5992
 299  884.4324
 300  1163.836
 301  1298.661
 302  781.0366
 303  751.722
 304  789.0138
 305  817.3534
 306  1167.921
 307  1260.407
 308  1057.59
 309  1255.475
 310  1099.367
 311  1181.112
 312  1250.34
 313  788.4294
 314  1318.255
 315  1135.212
 316  947.7637
 317  695.757
 318  963.6797
 319  936.3591
 320  761.4869
 321  1012.202
 322  1274.893
 323  1586.868
 324  1154.895
 325  1426.351
 326  1876.184
 327  2075.416
 328  2056.509
 329  1980.103
 330  1971.874
 331  1763.246
 332  1273.312
 333  885.7897
 334  937.7948
 335  853.0201
 336  649.5021
 337  885.2645
 338  1087.201
 339  1283.402
 340  1019.861
 341  1152.701
 342  1036.289
 343  696.0548
 344  1043.779
 345  968.7396
 346  1128.701
 347  962.2188
 348  1007.511
 349  999.1227
 350  775.8629
 351  581.9896
 352  1003.583
 353  1190.252
 354  852.3954
 355  950.0042
 356  889.2176
 357  1073.605
 358  969.7277
 359  816.2704
 360  922.1304
 361  504.2892
 362  794.4467
 363  907.8741
 364  889.147
 365  1047.266
 366  1083.139
 367  1306.387
 368  1082.547
 369  628.8705
 370  553.0146
 371  794.7325
 372  919.4188
 373  854.2674
 374  1097.999
 375  1143.535
 376  1181.228
 377  868.2476
 378  976.4241
 379  1037.494
 380  944.7418
 381  1155.302
 382  901.963
 383  970.7001
 384  1044.119
 385  1465.773
 386  1104.876
 387  1074.578
 388  1471.992
 389  1189.038
 390  998.4242
 391  589.5093
 392  1191.847
 393  1084.306
 394  896.2348
 395  898.9827
 396  948.1313
 397  1397.295
 398  1276.967
 399  1040.699
 400  890.5849
 401  1130.102
 402  999.0789
 403  942.9279
 404  1049.124
 405  900.755
 406  1131.443
 407  904.1316
 408  781.4304
 409  858.33
 410  854.2078
 411  1083.645
 412  862.8947
 413  1220.639
 414  975.4623
 415  1043.682
 416  981.1129
 417  786.1319
 418  848.0428
 419  988.6619
 420  1047.154
 421  972.5923
 422  917.8147
 423  743.855
 424  1037.082
 425  855.8568
 426  855.8743
 427  1047.845
 428  778.3132
 429  1026.043
 430  775.7128
 431  796.2232
 432  994.5279
 433  961.4856
 434  726.1918
 435  902.6066
 436  952.9869
 437  896.131
 438  908.3677
 439  690.7368
 440  745.5183
 441  635.6299
 442  645.6656
 443  965.8165
 444  784.3422
 445  974.6783
 446  1143.045
 447  1012.342
 448  890.503
 449  1141.583
 450  1091.091
 451  1114.609
 452  1012.289
 453  971.747
 454  1132.496
 455  1227.691
 456  1176.213
 457  987.9625
 458  665.2408
 459  1152.008
 460  976.3724
 461  945.4189
 462  1000.15
 463  835.7029
 464  817.3624
 465  506.3164
 466  910.4705
 467  996.1193
 468  1249.781
 469  1198.544
 470  1022.21
 471  880.6931
 472  649.6362
 473  570.1255
 474  459.9298
 475  874.8463
 476  836.902
 477  955.7061
 478  892.7301
 479  736.3165
 480  1006.632
 481  1028.052
 482  1058.908
 483  633.3941
 484  539.2331
 485  731.7666
 486  813.0135
 487  1085.399
 488  942.8218
 489  1146.283
 490  859.5385
 491  727.212
 492  553.3118
 493  780.524
 494  783.1522
 495  429.2488
 496  755.13
 497  757.7891
 498  770.0844
 499  829.8918
 500  1219.134
 501  1033.684
 502  869.2748
 503  850.9673
 504  801.9518
 505  633.9067
 506  821.3552
 507  944.0047
 508  742.8882
 509  641.6676
 510  766.6501
 511  880.223
