# Input file       =  1181629295.118561_cleaned.dat
# Candidate        =  PSR_0332+5434
# Telescope        =  AR
# Epoch_topo       =  57920.265209705569
# Epoch_bary       =  N/A
# T_sample         =  0.002
# Data Folded      =  7340032
# Data Avg         =  0.0357574589043251
# Data StdDev      =  0.999926325815209
# Profile Bins     =  512
# Profile Avg      =  513.031165605591 
# Profile StdDev   =  119.724215142918 
# Reduced chi-sqr  =  1.126
# Prob(Noise)      <  0.0249   (~2.0 sigma)
# P_topo (ms)      =  714.502076423764  +/- 0.000252
# P'_topo (s/s)    =  -0                +/- 1.33e-10
# P''_topo (s/s^2) =  0                 +/- 5.88e-14
# P_bary (ms)      =  N/A
# P'_bary (s/s)    =  N/A
# P''_bary (s/s^2) =  N/A
# P_orb (s)        =  N/A
# asin(i)/c (s)    =  N/A
# eccentricity     =  N/A
# w (rad)          =  N/A
# T_peri           =  N/A
######################################################
   0  530.1916
   1  354.0989
   2  264.8856
   3  443.8432
   4  520.2102
   5  449.6132
   6  387.7676
   7  403.9242
   8  368.0775
   9  396.9395
  10  526.5646
  11  508.3044
  12  394.915
  13  334.751
  14  339.2757
  15  363.1476
  16  442.6983
  17  457.6381
  18  444.8632
  19  420.7836
  20  317.8352
  21  418.6997
  22  476.7422
  23  270.8848
  24  354.9206
  25  513.4116
  26  584.9944
  27  491.7157
  28  457.3915
  29  508.0995
  30  404.3
  31  436.8604
  32  366.0727
  33  538.8511
  34  445.2841
  35  470.3114
  36  500.1476
  37  543.5856
  38  536.059
  39  501.4722
  40  507.6802
  41  496.9296
  42  434.8409
  43  381.6068
  44  466.7827
  45  394.2232
  46  310.4003
  47  345.5968
  48  432.8914
  49  394.4019
  50  421.8837
  51  408.9782
  52  420.9253
  53  444.5011
  54  336.0488
  55  369.4135
  56  426.5967
  57  587.8209
  58  562.4882
  59  475.0326
  60  492.3108
  61  499.5588
  62  506.3346
  63  455.6501
  64  467.3766
  65  457.9498
  66  531.3547
  67  462.7249
  68  410.7839
  69  536.4312
  70  609.4577
  71  542.793
  72  567.7823
  73  534.3994
  74  571.3983
  75  644.2028
  76  667.5268
  77  525.5892
  78  430.8307
  79  511.8693
  80  544.8358
  81  601.7067
  82  632.3128
  83  533.9869
  84  516.9944
  85  499.9896
  86  484.2359
  87  453.8291
  88  462.5412
  89  589.4314
  90  472.6344
  91  474.1707
  92  498.9504
  93  632.9731
  94  590.2919
  95  540.9791
  96  494.5634
  97  536.7577
  98  400.5599
  99  473.5256
 100  527.5199
 101  467.602
 102  546.2006
 103  541.9654
 104  581.8197
 105  542.809
 106  479.085
 107  605.272
 108  595.2776
 109  651.4311
 110  607.5107
 111  612.3119
 112  558.1865
 113  575.6757
 114  530.6219
 115  603.8413
 116  519.3118
 117  620.3033
 118  619.2755
 119  594.3533
 120  520.9587
 121  456.0832
 122  456.507
 123  548.7029
 124  509.8198
 125  483.0348
 126  487.7219
 127  602.3646
 128  598.5602
 129  527.2775
 130  621.3326
 131  515.8938
 132  489.07
 133  542.1225
 134  533.4144
 135  642.7502
 136  557.0375
 137  558.9236
 138  637.5043
 139  587.5891
 140  621.1503
 141  668.0353
 142  529.9681
 143  488.293
 144  471.6729
 145  513.5884
 146  498.0871
 147  419.8784
 148  364.8346
 149  497.37
 150  600.6409
 151  607.8181
 152  583.8527
 153  591.0341
 154  578.9743
 155  614.9385
 156  585.9384
 157  557.6935
 158  686.4951
 159  552.1235
 160  472.0002
 161  466.7126
 162  472.8297
 163  370.24
 164  442.083
 165  459.6404
 166  376.273
 167  550.8196
 168  473.1775
 169  406.7954
 170  441.0992
 171  658.7748
 172  982.5822
 173  1051.675
 174  967.2502
 175  829.2839
 176  664.5689
 177  526.0471
 178  500.1346
 179  558.8474
 180  525.5193
 181  511.2913
 182  526.9265
 183  528.9615
 184  489.6003
 185  452.1919
 186  468.8894
 187  496.6691
 188  555.431
 189  603.6965
 190  529.8043
 191  673.8685
 192  560.0093
 193  511.3978
 194  574.8958
 195  708.2761
 196  643.4593
 197  578.9761
 198  486.662
 199  603.984
 200  449.666
 201  515.5136
 202  501.3634
 203  494.565
 204  596.0651
 205  580.9236
 206  626.854
 207  538.2255
 208  551.3848
 209  614.4041
 210  561.4801
 211  493.5848
 212  593.7166
 213  503.2582
 214  380.7871
 215  465.5794
 216  461.762
 217  496.7581
 218  501.9072
 219  513.8447
 220  526.6227
 221  509.8318
 222  413.5044
 223  442.98
 224  617.7386
 225  619.7216
 226  554.8774
 227  408.2387
 228  486.9293
 229  476.3664
 230  443.9009
 231  449.996
 232  319.4589
 233  377.6828
 234  517.3481
 235  472.8756
 236  458.9801
 237  507.0946
 238  467.8115
 239  512.3403
 240  468.261
 241  496.156
 242  543.514
 243  586.8625
 244  474.0331
 245  458.4082
 246  581.2059
 247  635.1396
 248  571.5643
 249  517.2338
 250  534.2053
 251  509.134
 252  506.0766
 253  566.2662
 254  549.634
 255  442.9514
 256  526.0369
 257  527.4017
 258  387.9023
 259  336.5352
 260  481.7238
 261  612.904
 262  603.7472
 263  569.6963
 264  485.0858
 265  466.3481
 266  508.7717
 267  539.6633
 268  461.8376
 269  525.6367
 270  682.1447
 271  430.1961
 272  419.3773
 273  604.3353
 274  595.7205
 275  411.5302
 276  332.2748
 277  446.8435
 278  563.1209
 279  606.9647
 280  577.9763
 281  533.6345
 282  451.3262
 283  547.2596
 284  635.8289
 285  619.3893
 286  609.9336
 287  541.545
 288  553.3192
 289  504.3056
 290  535.6341
 291  623.3557
 292  653.0382
 293  552.2585
 294  577.8319
 295  602.4069
 296  657.702
 297  590.6144
 298  549.0746
 299  437.0911
 300  417.5479
 301  476.8872
 302  504.8361
 303  465.9128
 304  506.4018
 305  530.41
 306  582.117
 307  517.2154
 308  513.1644
 309  405.7328
 310  337.2103
 311  396.1903
 312  382.4565
 313  410.8564
 314  319.9189
 315  456.5094
 316  463.5355
 317  473.3421
 318  547.181
 319  593.5785
 320  457.3738
 321  528.8584
 322  562.8076
 323  533.3264
 324  484.814
 325  472.3457
 326  424.0021
 327  566.2546
 328  689.7744
 329  572.6765
 330  556.0535
 331  610.9448
 332  582.3856
 333  661.7474
 334  610.8462
 335  503.5423
 336  406.8435
 337  483.295
 338  461.0729
 339  338.4574
 340  382.7056
 341  430.4289
 342  395.1869
 343  425.279
 344  559.1543
 345  421.3061
 346  420.7126
 347  487.2549
 348  560.1022
 349  496.007
 350  469.7121
 351  520.585
 352  466.3482
 353  360.9809
 354  397.3521
 355  381.2437
 356  552.7919
 357  573.7578
 358  504.8703
 359  479.7874
 360  538.6926
 361  437.0165
 362  493.1515
 363  615.4064
 364  534.9631
 365  438.1795
 366  578.3297
 367  613.1451
 368  649.6743
 369  648.306
 370  558.1592
 371  710.9099
 372  599.6908
 373  551.5154
 374  600.8431
 375  690.3187
 376  659.2785
 377  587.1771
 378  525.6683
 379  615.8519
 380  445.5076
 381  487.5993
 382  599.6445
 383  521.8886
 384  493.8401
 385  514.4252
 386  487.8742
 387  460.7436
 388  473.5916
 389  559.3578
 390  446.3917
 391  457.039
 392  496.0289
 393  517.7161
 394  580.4566
 395  493.1451
 396  478.6183
 397  464.4781
 398  474.9884
 399  509.5982
 400  499.4295
 401  372.6385
 402  301.9482
 403  392.808
 404  405.5461
 405  498.5112
 406  481.6759
 407  396.2267
 408  350.0896
 409  358.054
 410  468.795
 411  575.1907
 412  594.8781
 413  571.7736
 414  620.2453
 415  619.8354
 416  662.5651
 417  673.2309
 418  638.8738
 419  546.7227
 420  562.8203
 421  483.3683
 422  515.235
 423  570.1207
 424  593.2031
 425  561.8383
 426  558.7259
 427  512.4669
 428  568.9044
 429  487.3343
 430  514.6225
 431  454.2509
 432  488.9644
 433  456.5318
 434  562.8757
 435  475.332
 436  405.6854
 437  496.2128
 438  476.2483
 439  407.3232
 440  508.7988
 441  590.8541
 442  567.7755
 443  512.1758
 444  580.5577
 445  486.2162
 446  449.272
 447  497.5961
 448  558.1744
 449  445.5269
 450  551.6656
 451  520.4225
 452  443.5392
 453  468.1769
 454  648.5637
 455  534.5317
 456  526.2124
 457  542.4283
 458  616.2737
 459  596.0602
 460  507.6516
 461  340.7781
 462  415.5856
 463  447.303
 464  494.7305
 465  521.9796
 466  514.0374
 467  492.4398
 468  480.8552
 469  445.6247
 470  495.6202
 471  555.7834
 472  495.0263
 473  493.287
 474  491.9573
 475  478.1373
 476  329.5107
 477  264.8988
 478  333.7099
 479  295.6073
 480  342.5931
 481  463.4257
 482  572.0895
 483  498.0492
 484  461.5958
 485  546.0555
 486  620.7741
 487  604.0676
 488  645.9742
 489  628.9893
 490  659.5439
 491  524.1642
 492  531.701
 493  492.4413
 494  518.9579
 495  537.9633
 496  630.0317
 497  530.7197
 498  512.0786
 499  601.6286
 500  754.3843
 501  710.9131
 502  559.8573
 503  510.028
 504  530.3301
 505  486.0777
 506  603.6188
 507  509.9286
 508  421.1283
 509  435.2464
 510  398.149
 511  498.3417
