# Input file       =  1181471836.140327_cleaned.dat
# Candidate        =  PSR_0332+5434
# Telescope        =  AR
# Epoch_topo       =  57918.442767827859
# Epoch_bary       =  N/A
# T_sample         =  0.002
# Data Folded      =  7340032
# Data Avg         =  0.224305719513462
# Data StdDev      =  4.72002866947411 
# Profile Bins     =  1024
# Profile Avg      =  1607.93289259732 
# Profile StdDev   =  399.616705296755 
# Reduced chi-sqr  =  0.743
# Prob(Noise)      <  1   (~0.0 sigma)
# P_topo (ms)      =  714.504092719683  +/- 0.0006
# P'_topo (s/s)    =  -0                +/- 3.16e-10
# P''_topo (s/s^2) =  0                 +/- 1.4e-13
# P_bary (ms)      =  N/A
# P'_bary (s/s)    =  N/A
# P''_bary (s/s^2) =  N/A
# P_orb (s)        =  N/A
# asin(i)/c (s)    =  N/A
# eccentricity     =  N/A
# w (rad)          =  N/A
# T_peri           =  N/A
######################################################
   0  1467.768
   1  1488.389
   2  1578.29
   3  1624.15
   4  1633.9
   5  1683.649
   6  1770.992
   7  1695.778
   8  1605.168
   9  1620.416
  10  1646.011
  11  1459.355
  12  1396.159
  13  1320.823
  14  1425.643
  15  1347.005
  16  1387.052
  17  1370.793
  18  1482.621
  19  1499.012
  20  1521.219
  21  1635.855
  22  1705.489
  23  1761.369
  24  1680.826
  25  1634.374
  26  1585.712
  27  1500.187
  28  1520.263
  29  1574.723
  30  1592.216
  31  1685.079
  32  1685.169
  33  1652.308
  34  1664.733
  35  1502.165
  36  1453.558
  37  1284.013
  38  1336.06
  39  1333.06
  40  1352.829
  41  1353.077
  42  1452.373
  43  1507.504
  44  1387
  45  1330.669
  46  1327.078
  47  1430.487
  48  1546.755
  49  1591.929
  50  1538.391
  51  1561.466
  52  1512.946
  53  1532.322
  54  1403.415
  55  1178.464
  56  1154.101
  57  1326.47
  58  1376.674
  59  1246.648
  60  1057.706
  61  1218.959
  62  1252.608
  63  1442.294
  64  1460.093
  65  1448.755
  66  1473.029
  67  1575.206
  68  1476.607
  69  1546.011
  70  1456.708
  71  1619.916
  72  1498.806
  73  1443.637
  74  1361.591
  75  1413.582
  76  1508.13
  77  1492.416
  78  1551.656
  79  1520.171
  80  1652.65
  81  1749.225
  82  1705.659
  83  1636.062
  84  1794.08
  85  1968.109
  86  1973.09
  87  1909.555
  88  1884.368
  89  1922.157
  90  1864.224
  91  1662.722
  92  1524.228
  93  1475.46
  94  1658.27
  95  1832.509
  96  1847.702
  97  1693.561
  98  1511.446
  99  1560.303
 100  1600.153
 101  1646.061
 102  1631.099
 103  1649.18
 104  1651.954
 105  1686.682
 106  1659.94
 107  1598.7
 108  1524.218
 109  1565.76
 110  1600.172
 111  1571.016
 112  1550.009
 113  1521.706
 114  1490.682
 115  1439.662
 116  1568.36
 117  1767.56
 118  1734.127
 119  1576.492
 120  1636.854
 121  1698.109
 122  1650.203
 123  1546.879
 124  1472.762
 125  1473.419
 126  1386.973
 127  1540.494
 128  1596.976
 129  1616.143
 130  1463.459
 131  1585.42
 132  1585.758
 133  1577.797
 134  1479.747
 135  1412.029
 136  1575.353
 137  1574.386
 138  1531.641
 139  1524.93
 140  1445.681
 141  1492.639
 142  1376.666
 143  1432.387
 144  1540.387
 145  1543.705
 146  1601.33
 147  1597.153
 148  1790.174
 149  1863.995
 150  1866.567
 151  1932.383
 152  1855.993
 153  1849.766
 154  1719.731
 155  1758.208
 156  1721.11
 157  1745.327
 158  1842.549
 159  1902.756
 160  1955.392
 161  1836.265
 162  1767.829
 163  1701.975
 164  1739.214
 165  1772.298
 166  1897.015
 167  1913.113
 168  1829.35
 169  1745.684
 170  1906.852
 171  2058.587
 172  2056.799
 173  1958.773
 174  1757.35
 175  1711.303
 176  1615.581
 177  1698.821
 178  1796.338
 179  1749.725
 180  1674.195
 181  1628.932
 182  1750.811
 183  1812.383
 184  1880.23
 185  1836.104
 186  1728.093
 187  1831.467
 188  1885.145
 189  1861.343
 190  1698.416
 191  1659.761
 192  1755.362
 193  1794.008
 194  1821.927
 195  1854.151
 196  1769.967
 197  1763.696
 198  1679.26
 199  1769.374
 200  1827.238
 201  1817.184
 202  1817.897
 203  1791.395
 204  1750.615
 205  1687.312
 206  1714.099
 207  1694.955
 208  1842.815
 209  1874.971
 210  1908.066
 211  1807.795
 212  1814
 213  1858.866
 214  1854.176
 215  1826.045
 216  1702.662
 217  1630.073
 218  1561.402
 219  1525.665
 220  1555.519
 221  1595.406
 222  1544.791
 223  1522.865
 224  1559.301
 225  1557.137
 226  1540.547
 227  1634.472
 228  1683.732
 229  1677.877
 230  1638.578
 231  1681.008
 232  1660.755
 233  1643.164
 234  1436.697
 235  1440.783
 236  1459.081
 237  1559.094
 238  1511.659
 239  1524.247
 240  1589.574
 241  1619.671
 242  1619.62
 243  1505.783
 244  1433.257
 245  1277.136
 246  1288.213
 247  1272.545
 248  1474.371
 249  1566.638
 250  1654.793
 251  1553.337
 252  1463.827
 253  1408.954
 254  1446.188
 255  1507.257
 256  1615.68
 257  1656.293
 258  1432.445
 259  1240.71
 260  1130.119
 261  1128.196
 262  1153.145
 263  1199.398
 264  1276.116
 265  1375.262
 266  1334.208
 267  1412.663
 268  1432.623
 269  1399.054
 270  1449.971
 271  1510.955
 272  1588.705
 273  1478.136
 274  1405.77
 275  1294.373
 276  1375.924
 277  1467.815
 278  1601.018
 279  1683.195
 280  1608.572
 281  1538.343
 282  1321.609
 283  1363.465
 284  1364.937
 285  1498.632
 286  1548.258
 287  1574.917
 288  1613.131
 289  1761.364
 290  1795.128
 291  1804.989
 292  1882.947
 293  1850.826
 294  1679.993
 295  1448.594
 296  1490.648
 297  1583.742
 298  1580.295
 299  1572.735
 300  1634.999
 301  1664.359
 302  1610.013
 303  1532.034
 304  1447.667
 305  1419.448
 306  1342.829
 307  1347.656
 308  1392.992
 309  1500.587
 310  1575.395
 311  1455.561
 312  1337.845
 313  1376.698
 314  1507.915
 315  1464.052
 316  1294.441
 317  1263.849
 318  1452.069
 319  1597.819
 320  1556.426
 321  1505.78
 322  1458.143
 323  1423.317
 324  1402.928
 325  1466.156
 326  1596.368
 327  1826.878
 328  1888.622
 329  1874.329
 330  1684.147
 331  1623.769
 332  1596.028
 333  1586.967
 334  1519.789
 335  1551.826
 336  1606.714
 337  1712.176
 338  1776.828
 339  1865.779
 340  1911.997
 341  1814.51
 342  1714.646
 343  1604.968
 344  1529.015
 345  1576.192
 346  1496.442
 347  1637.143
 348  1678.316
 349  1835.542
 350  1770.968
 351  1694.344
 352  1620.175
 353  1667.431
 354  1742.412
 355  1581.662
 356  1463.102
 357  1444.327
 358  1536.874
 359  1617.298
 360  1607.82
 361  1527.418
 362  1533.431
 363  1529.735
 364  1427.705
 365  1446.365
 366  1532.382
 367  1774.345
 368  1761.068
 369  1759.822
 370  1568.326
 371  1556.593
 372  1470.486
 373  1569.821
 374  1483.932
 375  1475.901
 376  1444.751
 377  1591.158
 378  1599.345
 379  1575.054
 380  1486.527
 381  1638.123
 382  1691.145
 383  1712.384
 384  1577.683
 385  1737.557
 386  1721.734
 387  1693.558
 388  1604.16
 389  1737.362
 390  1642.178
 391  1609.851
 392  1467.603
 393  1438.991
 394  1260.504
 395  1212.048
 396  1320.037
 397  1357.685
 398  1423.789
 399  1427.824
 400  1516.346
 401  1567.315
 402  1659.928
 403  1632.842
 404  1584.358
 405  1543.964
 406  1640.472
 407  1662.911
 408  1607.462
 409  1517.107
 410  1466.983
 411  1464.696
 412  1437.852
 413  1507.386
 414  1345.027
 415  1374.884
 416  1426.193
 417  1547.086
 418  1663.049
 419  1765.208
 420  1786.037
 421  1768.957
 422  1737.693
 423  1609.224
 424  1625.521
 425  1583.215
 426  1544.131
 427  1473.287
 428  1552.036
 429  1646.648
 430  1530.751
 431  1443.322
 432  1471.725
 433  1619.954
 434  1675.625
 435  1578.623
 436  1534.938
 437  1555.5
 438  1654.21
 439  1606.878
 440  1557.507
 441  1461.633
 442  1468.683
 443  1487.887
 444  1428.339
 445  1466.326
 446  1503.814
 447  1682.014
 448  1523.772
 449  1486.521
 450  1451.318
 451  1599.192
 452  1641.173
 453  1793.001
 454  1724.089
 455  1714.976
 456  1671.412
 457  1715.153
 458  1745.208
 459  1594.31
 460  1612.491
 461  1723.396
 462  1741.078
 463  1611.578
 464  1633.4
 465  1686.224
 466  1819.252
 467  1817.04
 468  1852.239
 469  1733.975
 470  1692.803
 471  1866.767
 472  1923.193
 473  1854.438
 474  1669.875
 475  1587.238
 476  1607.219
 477  1604.311
 478  1649.658
 479  1697.142
 480  1735.5
 481  1739.168
 482  1637.368
 483  1597.879
 484  1627.926
 485  1662.935
 486  1507.76
 487  1480.741
 488  1469.855
 489  1492.969
 490  1402.825
 491  1457.069
 492  1329.066
 493  1330.409
 494  1342.027
 495  1545.47
 496  1629.697
 497  1666.676
 498  1596.931
 499  1520.865
 500  1612.473
 501  1660.353
 502  1697.068
 503  1730.068
 504  1782.214
 505  1712.961
 506  1656.057
 507  1622.768
 508  1629.473
 509  1577.273
 510  1654.518
 511  1655.781
 512  1635.154
 513  1513.668
 514  1636.067
 515  1778.604
 516  1771.462
 517  1816.956
 518  1785.62
 519  1764.77
 520  1599.78
 521  1570.907
 522  1662.478
 523  1739.528
 524  1797.061
 525  1781.357
 526  1873.141
 527  1816.614
 528  1815.344
 529  1717.657
 530  1761.143
 531  1741.091
 532  1806.664
 533  1820.17
 534  1715.617
 535  1630.315
 536  1537.493
 537  1559.802
 538  1613.229
 539  1712.536
 540  1610.318
 541  1513.175
 542  1515.712
 543  1721.404
 544  1795.437
 545  1802.739
 546  1770.759
 547  1649
 548  1492.929
 549  1383.055
 550  1472.502
 551  1513.237
 552  1670.1
 553  1708.269
 554  1828.585
 555  1786.126
 556  1878.949
 557  1845.88
 558  1730.019
 559  1560.845
 560  1523.528
 561  1663.451
 562  1698.714
 563  1632.503
 564  1522.558
 565  1385.74
 566  1440.188
 567  1588.305
 568  1736.884
 569  1764.325
 570  1755.403
 571  1736.518
 572  1656.756
 573  1439.866
 574  1432.088
 575  1451.529
 576  1522.206
 577  1418.006
 578  1398.863
 579  1531.033
 580  1631.543
 581  1727.689
 582  1729.357
 583  1741.688
 584  1576.984
 585  1412.01
 586  1538.549
 587  1768.295
 588  1817.586
 589  1714.424
 590  1562.363
 591  1627.232
 592  1559.992
 593  1672.178
 594  1736.145
 595  1718.726
 596  1772.337
 597  1703.135
 598  1719.968
 599  1589.278
 600  1731.925
 601  1829.296
 602  1761.713
 603  1682.884
 604  1491.858
 605  1530.388
 606  1574.783
 607  1676.336
 608  1772.119
 609  1873.172
 610  1891.927
 611  1955.796
 612  1894.986
 613  1854.092
 614  1823.603
 615  1847.417
 616  1871.291
 617  1837.119
 618  1767.156
 619  1792.479
 620  1811.137
 621  1859.341
 622  1789.77
 623  1795.903
 624  1808.006
 625  1760.404
 626  1780.97
 627  1724.258
 628  1822.465
 629  1662.417
 630  1561.592
 631  1422.402
 632  1544.3
 633  1568.598
 634  1593.15
 635  1521.001
 636  1643.685
 637  1538.37
 638  1520.614
 639  1593.394
 640  1762.361
 641  1957.776
 642  1891.082
 643  1903.793
 644  1828.435
 645  1876.664
 646  1905.161
 647  1991.17
 648  2160.237
 649  2237.234
 650  2277.139
 651  2231.76
 652  2399.46
 653  2570.464
 654  2704.632
 655  2759.671
 656  2723.072
 657  2747.552
 658  2560.595
 659  2485.552
 660  2434.836
 661  2232.875
 662  2156.386
 663  1988.228
 664  1874.684
 665  1770.486
 666  1794.3
 667  1880.248
 668  1975.311
 669  2024.363
 670  2114.654
 671  2014.791
 672  2001.418
 673  1883.056
 674  1890.003
 675  1844.44
 676  1815.991
 677  1735.511
 678  1620.326
 679  1710.492
 680  1791.361
 681  1901.511
 682  1844.723
 683  1654.845
 684  1598.277
 685  1559.235
 686  1630.487
 687  1647.698
 688  1617.946
 689  1690.952
 690  1687.25
 691  1532.432
 692  1395.778
 693  1314.445
 694  1479.427
 695  1626.437
 696  1654.43
 697  1571.533
 698  1581.128
 699  1638.146
 700  1678.504
 701  1696.417
 702  1581.945
 703  1475.368
 704  1470.179
 705  1525.859
 706  1500.125
 707  1545.464
 708  1555.057
 709  1565.778
 710  1466.824
 711  1454.876
 712  1371.646
 713  1359.753
 714  1349.004
 715  1196.208
 716  1283.802
 717  1353.537
 718  1467.822
 719  1426.54
 720  1392.651
 721  1448.797
 722  1454.242
 723  1485.949
 724  1634.299
 725  1595.307
 726  1431.526
 727  1312.572
 728  1235.836
 729  1248.764
 730  1303.868
 731  1392.83
 732  1380.076
 733  1362.018
 734  1500.392
 735  1572.964
 736  1554.366
 737  1529.277
 738  1508.073
 739  1566.491
 740  1721.244
 741  1634.888
 742  1497.348
 743  1344.412
 744  1447.169
 745  1608.186
 746  1649.313
 747  1562.15
 748  1431.783
 749  1414.337
 750  1329.06
 751  1526.214
 752  1632.482
 753  1767.96
 754  1745.553
 755  1720.912
 756  1666.233
 757  1550.973
 758  1493.558
 759  1627.148
 760  1758.904
 761  1920.296
 762  1872.627
 763  1806.039
 764  1756.389
 765  1699.698
 766  1702.075
 767  1596.829
 768  1518.51
 769  1388.87
 770  1507.159
 771  1556.432
 772  1619.287
 773  1588.508
 774  1511.719
 775  1383.85
 776  1320.786
 777  1298.015
 778  1325.538
 779  1408.394
 780  1431.031
 781  1466.397
 782  1562.079
 783  1475.603
 784  1516.993
 785  1461.143
 786  1478.885
 787  1425.914
 788  1369.771
 789  1412.379
 790  1385.199
 791  1352.833
 792  1381.355
 793  1517.529
 794  1623.184
 795  1712.317
 796  1696.516
 797  1680.753
 798  1655.532
 799  1663.305
 800  1573.434
 801  1453.37
 802  1407.843
 803  1535.623
 804  1565.573
 805  1628.199
 806  1527.871
 807  1519.679
 808  1591.453
 809  1595.175
 810  1641.724
 811  1685.061
 812  1632.182
 813  1479.807
 814  1407.108
 815  1452.022
 816  1566.581
 817  1706.03
 818  1675.052
 819  1655.707
 820  1664.028
 821  1734.168
 822  1696.612
 823  1675.345
 824  1743.81
 825  1653.521
 826  1533.583
 827  1286.919
 828  1326.451
 829  1367.56
 830  1546.393
 831  1584.661
 832  1709.049
 833  1762.453
 834  1690.783
 835  1664.175
 836  1609.361
 837  1726.899
 838  1683.08
 839  1657.432
 840  1532.529
 841  1629.266
 842  1653.714
 843  1649.534
 844  1550.016
 845  1568.72
 846  1577.34
 847  1559.468
 848  1601.695
 849  1538.219
 850  1500.779
 851  1312.601
 852  1504.81
 853  1613.656
 854  1643.867
 855  1448.716
 856  1412.259
 857  1473.253
 858  1504.868
 859  1447.482
 860  1323.367
 861  1444.74
 862  1554.647
 863  1718.164
 864  1640.193
 865  1592.151
 866  1488.854
 867  1509.617
 868  1610.781
 869  1730.977
 870  1796.138
 871  1783.39
 872  1670.254
 873  1567.175
 874  1644.553
 875  1800.36
 876  1788.443
 877  1689.761
 878  1551.125
 879  1474.805
 880  1501.6
 881  1675.231
 882  1781.426
 883  1779.81
 884  1724.781
 885  1632.027
 886  1523.712
 887  1569.174
 888  1688.21
 889  1641.99
 890  1433.984
 891  1246.845
 892  1358.169
 893  1476.235
 894  1617.569
 895  1604.179
 896  1743.635
 897  1753.592
 898  1550.081
 899  1331.394
 900  1269.193
 901  1406.364
 902  1468.288
 903  1463.563
 904  1533.241
 905  1617.267
 906  1678.315
 907  1714.878
 908  1727.011
 909  1785.732
 910  1748.073
 911  1654.714
 912  1546.117
 913  1629.442
 914  1566.53
 915  1488.991
 916  1408.794
 917  1457.266
 918  1703.205
 919  1702.217
 920  1736.726
 921  1686.814
 922  1618.199
 923  1677.974
 924  1638.807
 925  1706.151
 926  1569.969
 927  1415.674
 928  1339.777
 929  1436.518
 930  1574.09
 931  1594.43
 932  1522.983
 933  1458.266
 934  1521.034
 935  1483.909
 936  1380.345
 937  1363.123
 938  1456.093
 939  1602.528
 940  1554.968
 941  1505.91
 942  1427.899
 943  1503.473
 944  1595.713
 945  1686.46
 946  1651.93
 947  1636.786
 948  1498.339
 949  1397.973
 950  1453.953
 951  1514.6
 952  1494.282
 953  1424.518
 954  1442.471
 955  1511.104
 956  1487.466
 957  1450.861
 958  1485.927
 959  1433.79
 960  1412.777
 961  1495.905
 962  1638.744
 963  1632.809
 964  1606.578
 965  1646.783
 966  1550.18
 967  1468.302
 968  1447.41
 969  1459.095
 970  1495.832
 971  1512.822
 972  1701.577
 973  1622.286
 974  1689.009
 975  1497.49
 976  1508.513
 977  1506.104
 978  1642.221
 979  1576.18
 980  1529.409
 981  1420.386
 982  1519.432
 983  1574.301
 984  1612.198
 985  1606.726
 986  1628.699
 987  1567.388
 988  1586.289
 989  1702.302
 990  1867.345
 991  1768.888
 992  1695.093
 993  1658.278
 994  1597.93
 995  1539.817
 996  1527.705
 997  1714.106
 998  1615.62
 999  1448.277
1000  1288.812
1001  1287.675
1002  1450.055
1003  1391.613
1004  1448.698
1005  1408.001
1006  1579.585
1007  1672.101
1008  1708.224
1009  1634.213
1010  1601.121
1011  1653.094
1012  1682.985
1013  1604.647
1014  1518.018
1015  1496.781
1016  1456.899
1017  1393.217
1018  1372.433
1019  1377.717
1020  1302.051
1021  1281.913
1022  1387.458
1023  1442.901
