# Input file       =  1181629295.118561_cleaned.dat
# Candidate        =  PSR_0332+5434
# Telescope        =  AR
# Epoch_topo       =  57920.265209705569
# Epoch_bary       =  N/A
# T_sample         =  0.002
# Data Folded      =  7340032
# Data Avg         =  0.0357574589043251
# Data StdDev      =  0.999926325815209
# Profile Bins     =  512
# Profile Avg      =  513.031157808029 
# Profile StdDev   =  119.724215142918 
# Reduced chi-sqr  =  1.117
# Prob(Noise)      <  0.0337   (~1.8 sigma)
# P_topo (ms)      =  714.502075656779  +/- 0.000254
# P'_topo (s/s)    =  -0                +/- 1.34e-10
# P''_topo (s/s^2) =  0                 +/- 5.92e-14
# P_bary (ms)      =  N/A
# P'_bary (s/s)    =  N/A
# P''_bary (s/s^2) =  N/A
# P_orb (s)        =  N/A
# asin(i)/c (s)    =  N/A
# eccentricity     =  N/A
# w (rad)          =  N/A
# T_peri           =  N/A
######################################################
   0  1038.304
   1  950.3672
   2  795.5121
   3  630.2324
   4  512.1194
   5  518.9265
   6  553.7023
   7  520.4407
   8  503.3055
   9  538.0332
  10  527.7642
  11  474.0269
  12  450.538
  13  475.5923
  14  498.4615
  15  581.5086
  16  578.3005
  17  552.5583
  18  677.1556
  19  541.351
  20  505.2969
  21  615.6288
  22  693.7593
  23  641.5422
  24  543.962
  25  515.4761
  26  581.5197
  27  445.115
  28  532.5308
  29  483.6631
  30  530.1365
  31  584.5632
  32  589.7341
  33  613.884
  34  527.5579
  35  566.8984
  36  617.2363
  37  540.6414
  38  510.0096
  39  587.4999
  40  466.4984
  41  396.8657
  42  473.6296
  43  461.9865
  44  496.7288
  45  508.5222
  46  513.7108
  47  533.9978
  48  488.6224
  49  402.4345
  50  471.9803
  51  629.9773
  52  613.9704
  53  522.9949
  54  413.8864
  55  499.0004
  56  465.787
  57  448.8417
  58  433.9939
  59  302.7486
  60  422.2738
  61  508.1965
  62  470.4104
  63  460.2645
  64  514.5645
  65  466.4044
  66  520.2515
  67  460.7686
  68  505.4765
  69  555.4172
  70  567.8131
  71  456.276
  72  470.4781
  73  605.5139
  74  631.2831
  75  559.626
  76  510.1651
  77  545.3011
  78  488.275
  79  526.0028
  80  567.2388
  81  533.5732
  82  442.4031
  83  536.1108
  84  512.3188
  85  364.3791
  86  352.55
  87  521.5392
  88  610.9942
  89  597.7894
  90  558.4066
  91  476.1145
  92  468.7906
  93  513.7412
  94  533.0029
  95  453.1739
  96  575.1127
  97  658.8496
  98  390.963
  99  457.4853
 100  613.827
 101  575.8558
 102  366.4659
 103  359.7888
 104  471.528
 105  576.4337
 106  607.7417
 107  563.1605
 108  522.4758
 109  444.8403
 110  582.5793
 111  623.3441
 112  631.8478
 113  588.4836
 114  547.3444
 115  546.0819
 116  508.049
 117  546.5076
 118  641.0181
 119  630.8265
 120  549.9247
 121  588.9202
 122  614.9655
 123  649.3743
 124  580.9089
 125  530.7088
 126  422.8796
 127  421.564
 128  490.6731
 129  497.0362
 130  465.4669
 131  511.3882
 132  543.1437
 133  580.7123
 134  504.2303
 135  513.2335
 136  374.5354
 137  351.155
 138  393.0983
 139  397.8233
 140  390.2389
 141  326.6535
 142  475.4673
 143  449.5782
 144  498.9305
 145  559.6901
 146  584.6113
 147  441.1043
 148  544.2746
 149  551.3384
 150  529.0203
 151  488.1472
 152  463.5407
 153  436.065
 154  601.8401
 155  686.3921
 156  541.8189
 157  576.9385
 158  594.8044
 159  600.5261
 160  664.5559
 161  589.0444
 162  488.7435
 163  402.1534
 164  503.4017
 165  427.3065
 166  344.7284
 167  386.0433
 168  439.6807
 169  375.4711
 170  470.3073
 171  536.4454
 172  414.5431
 173  424.3819
 174  507.3155
 175  558.7433
 176  486.4974
 177  477.243
 178  518.0511
 179  436.7032
 180  361.802
 181  394.3427
 182  409.8627
 183  567.6799
 184  559.7057
 185  497.8248
 186  481.5921
 187  536.3874
 188  425.5556
 189  528.111
 190  621.7072
 191  492.4233
 192  454.0252
 193  593.8501
 194  624.2345
 195  658.1268
 196  625.2115
 197  582.9406
 198  704.3335
 199  582.7424
 200  543.3206
 201  629.6092
 202  691.1829
 203  656.092
 204  559.2323
 205  548.5516
 206  592.3173
 207  432.7256
 208  512.324
 209  602.5908
 210  500.6032
 211  498.0474
 212  516.078
 213  477.3064
 214  453.3782
 215  499.7632
 216  555.2336
 217  434.2036
 218  460.3928
 219  495.0516
 220  531.7604
 221  576.5793
 222  481.1304
 223  478.344
 224  462.6147
 225  478.4254
 226  530.2424
 227  473.294
 228  354.2642
 229  308.624
 230  405.0532
 231  403.101
 232  517.5656
 233  453.0084
 234  387.9074
 235  350.8708
 236  376.1521
 237  494.2679
 238  582.1733
 239  584.7017
 240  579.7979
 241  622.5188
 242  633.8429
 243  663.4512
 244  676.8999
 245  605.2389
 246  547.3104
 247  554.5254
 248  490.0544
 249  516.8651
 250  582.0274
 251  587.8655
 252  564.7568
 253  551.4384
 254  515.1929
 255  565.9373
 256  486.2101
 257  502.1482
 258  460.1498
 259  473.1913
 260  480.4888
 261  553.4208
 262  458.1979
 263  414.9624
 264  514.0792
 265  450.0662
 266  413.3055
 267  539.3838
 268  592.5806
 269  543.1798
 270  526.9861
 271  572.1808
 272  481.8639
 273  439.7311
 274  527.304
 275  533.6729
 276  455.243
 277  550.9162
 278  512.4133
 279  422.1918
 280  523.614
 281  632.6464
 282  529.7776
 283  517.9957
 284  561.1038
 285  616.1675
 286  593.5693
 287  467.3925
 288  336.6656
 289  434.7133
 290  445.7631
 291  514.7783
 292  509.2697
 293  516.6551
 294  489.7341
 295  478.6303
 296  440.7834
 297  515.5095
 298  544.2835
 299  499.0606
 300  478.1803
 301  510.9919
 302  447.3534
 303  311.3537
 304  262.0661
 305  350.2181
 306  291.032
 307  363.1528
 308  491.3813
 309  562.8608
 310  481.6414
 311  476.7397
 312  565.1528
 313  621.4966
 314  613.5994
 315  636.5842
 316  641.6494
 317  639.3267
 318  508.8864
 319  523.4962
 320  504.0877
 321  517.5945
 322  559.9123
 323  625.0261
 324  509.1835
 325  522.4058
 326  635.3884
 327  764.6208
 328  675.5877
 329  550.488
 330  508.2283
 331  528.9966
 332  488.8272
 333  615.3004
 334  476.498
 335  426.7094
 336  426.4698
 337  409.3444
 338  507.7305
 339  514.9539
 340  313.307
 341  289.0829
 342  476.4605
 343  514.4587
 344  435.8082
 345  380.3954
 346  410.9908
 347  356.5728
 348  434.5301
 349  526.7688
 350  493.029
 351  365.679
 352  342.3083
 353  331.4665
 354  381.726
 355  442.292
 356  458.5319
 357  443.1086
 358  409.7569
 359  314.3061
 360  456.4052
 361  441.5656
 362  266.185
 363  380.7654
 364  543.4225
 365  570.0488
 366  472.5215
 367  468.4411
 368  490.0537
 369  408.4665
 370  431.5814
 371  386.0396
 372  538.2645
 373  423.8312
 374  495.2695
 375  501.6939
 376  551.248
 377  518.3211
 378  509.3789
 379  503.1254
 380  495.2141
 381  409.761
 382  402.2758
 383  458.3365
 384  382.0033
 385  296.5889
 386  379.4335
 387  417.4085
 388  410.3024
 389  413.7995
 390  417.9027
 391  415.4795
 392  440.0121
 393  324.6921
 394  380.0788
 395  443.1941
 396  606.2085
 397  540.5124
 398  477.3307
 399  507.7752
 400  485.5633
 401  516.7812
 402  439.1772
 403  470.8105
 404  469.8715
 405  527.7189
 406  440.2677
 407  414.9117
 408  575.1458
 409  595.9232
 410  544.7613
 411  569.4549
 412  524.5249
 413  596.6338
 414  643.8648
 415  665.4842
 416  480.4141
 417  445.3704
 418  516.9416
 419  552.3367
 420  629.3018
 421  611.5433
 422  529.9004
 423  506.2475
 424  497.5438
 425  478.9935
 426  445.825
 427  489.8537
 428  580.6675
 429  460.5273
 430  479.9454
 431  521.3759
 432  634.0972
 433  583.3528
 434  515.9742
 435  512.4067
 436  521.6801
 437  390.9371
 438  493.8179
 439  513.2932
 440  475.5476
 441  565.4589
 442  536.5483
 443  601.9732
 444  500.4529
 445  511.267
 446  601.8478
 447  616.3427
 448  630.1889
 449  610.7379
 450  600.7905
 451  570.4996
 452  558.8797
 453  550.6777
 454  588.3356
 455  521.2371
 456  643.8062
 457  603.9721
 458  591.3596
 459  498.8362
 460  452.4759
 461  460.9193
 462  567.9481
 463  492.6164
 464  477.9778
 465  503.9381
 466  616.535
 467  581.5
 468  542.3777
 469  608.0765
 470  507.2156
 471  490.048
 472  551.1835
 473  534.0374
 474  652.1723
 475  530.4513
 476  599.3333
 477  620.4785
 478  591.3157
 479  632.5452
 480  653.0684
 481  511.1141
 482  493.3181
 483  472.1541
 484  518.5008
 485  490.0848
 486  395.1021
 487  373.1714
 488  531.4241
 489  599.5408
 490  606.8946
 491  582.5442
 492  592.9221
 493  579.9494
 494  616.686
 495  569.8908
 496  582.7089
 497  678.2646
 498  528.3839
 499  462.1526
 500  487.0427
 501  438.1599
 502  377.5426
 503  453.6842
 504  445.0959
 505  395.0493
 506  576.4319
 507  433.0559
 508  418.1598
 509  448.7281
 510  737.7221
 511  1015.362
