# Input file       =  1181026120.100374_cleaned.dat
# Candidate        =  PSR_0332+5434
# Telescope        =  AR
# Epoch_topo       =  57913.284017365440
# Epoch_bary       =  N/A
# T_sample         =  0.002
# Data Folded      =  7340032
# Data Avg         =  0.0719422857426771
# Data StdDev      =  2.46968661378852 
# Profile Bins     =  512
# Profile Avg      =  1031.66569228031 
# Profile StdDev   =  295.703077167954 
# Reduced chi-sqr  =  1.145
# Prob(Noise)      <  0.0125   (~2.2 sigma)
# P_topo (ms)      =  714.508600988721  +/- 0.000341
# P'_topo (s/s)    =  -0                +/- 1.8e-10
# P''_topo (s/s^2) =  0                 +/- 7.95e-14
# P_bary (ms)      =  N/A
# P'_bary (s/s)    =  N/A
# P''_bary (s/s^2) =  N/A
# P_orb (s)        =  N/A
# asin(i)/c (s)    =  N/A
# eccentricity     =  N/A
# w (rad)          =  N/A
# T_peri           =  N/A
######################################################
   0  710.7335
   1  801.5246
   2  1045.828
   3  1275.328
   4  1184.704
   5  1412.556
   6  1126.167
   7  1286.047
   8  1206.281
   9  939.1816
  10  752.1749
  11  693.6336
  12  1106.14
  13  1350.319
  14  1149.926
  15  1096.755
  16  888.534
  17  838.456
  18  751.8378
  19  818.5763
  20  707.6642
  21  889.0271
  22  889.7647
  23  747.4726
  24  826.8038
  25  906.1722
  26  998.7919
  27  713.208
  28  931.6269
  29  972.251
  30  737.6147
  31  735.0306
  32  784.2604
  33  748.5919
  34  561.929
  35  769.7598
  36  850.2167
  37  1111.353
  38  1155.946
  39  822.2004
  40  503.3998
  41  702.3043
  42  1133.692
  43  995.7819
  44  650.006
  45  967.5148
  46  1096.941
  47  1204.629
  48  1360.763
  49  1235.605
  50  1128.672
  51  1179.505
  52  1323.567
  53  1384.556
  54  1348.534
  55  1398.65
  56  1227.158
  57  1097.974
  58  843.7429
  59  752.5718
  60  788.7504
  61  871.7306
  62  1043.701
  63  1118.3
  64  1239.72
  65  1296.639
  66  1162.587
  67  1197.896
  68  1013.151
  69  1089.125
  70  1311.658
  71  1053.889
  72  1050.424
  73  1038.956
  74  1127.296
  75  963.5932
  76  957.7756
  77  948.0228
  78  949.3846
  79  940.3443
  80  1181.031
  81  1096.92
  82  974.749
  83  1104.02
  84  1159.462
  85  853.483
  86  825.1495
  87  1013.933
  88  804.9267
  89  579.4718
  90  938.1775
  91  1001.743
  92  896.203
  93  1189.908
  94  1217.344
  95  1071.312
  96  1114.025
  97  1057.276
  98  1037.733
  99  944.0853
 100  1017.768
 101  1243.51
 102  1015.902
 103  947.4529
 104  846.9977
 105  1055.891
 106  1200.422
 107  1034.852
 108  743.3131
 109  1174.961
 110  1182.742
 111  969.9536
 112  1078.952
 113  1015.398
 114  1259.533
 115  991.3857
 116  1231.525
 117  1105.857
 118  1161.821
 119  1138.61
 120  1000.701
 121  978.9039
 122  1100.69
 123  1123.39
 124  1066.491
 125  1121.969
 126  1209.364
 127  1163.149
 128  1224.944
 129  1286.463
 130  1230.067
 131  1188.905
 132  1280.612
 133  1230.651
 134  1261.356
 135  1217.541
 136  1275.271
 137  1163.395
 138  880.1394
 139  615.9954
 140  679.6704
 141  971.9746
 142  915.9795
 143  1007.102
 144  1233.763
 145  1040.676
 146  1029.569
 147  936.0719
 148  1086.702
 149  1323.541
 150  1084.19
 151  888.0995
 152  639.3792
 153  967.937
 154  1281.719
 155  1061.45
 156  1004.352
 157  802.8503
 158  722.7145
 159  777.2827
 160  566.2522
 161  598.0168
 162  883.0576
 163  1239.739
 164  1144.999
 165  1048.955
 166  844.3397
 167  961.6133
 168  776.8759
 169  751.1862
 170  967.0709
 171  811.6537
 172  1021.429
 173  862.0215
 174  947.1234
 175  1000.336
 176  1164.973
 177  995.3298
 178  874.2774
 179  670.927
 180  828.0218
 181  777.0311
 182  887.1083
 183  1059.232
 184  880.7633
 185  868.5872
 186  1038.153
 187  1115.096
 188  956.3769
 189  630.278
 190  913.6921
 191  986.1976
 192  656.5995
 193  718.0466
 194  884.4331
 195  1052.493
 196  1372.088
 197  1380.943
 198  1001.289
 199  884.5739
 200  967.1917
 201  851.1873
 202  953.7379
 203  1141.392
 204  902.5604
 205  832.352
 206  969.5653
 207  974.6657
 208  1343.951
 209  1271.407
 210  964.397
 211  883.1129
 212  925.8537
 213  1097.683
 214  961.652
 215  1165.515
 216  1265.665
 217  1209.753
 218  1183.539
 219  1175.752
 220  680.9905
 221  655.928
 222  1085.834
 223  1105.209
 224  897.6327
 225  1108.549
 226  1091.706
 227  1043.068
 228  1154.853
 229  1182.748
 230  994.3392
 231  696.3888
 232  815.6058
 233  1031.235
 234  1241.038
 235  1298.438
 236  1188.453
 237  1412.004
 238  1079.441
 239  913.7952
 240  1121.271
 241  1151.737
 242  1115.745
 243  837.8293
 244  902.9178
 245  986.2105
 246  1087.028
 247  1194.1
 248  1101.254
 249  1095.135
 250  1258.582
 251  1109.649
 252  1215.3
 253  1309.501
 254  1447.794
 255  1303.544
 256  1056.813
 257  1178.535
 258  932.5458
 259  1016.228
 260  1349.953
 261  1302.475
 262  1257.265
 263  1125.722
 264  903.8268
 265  967.7337
 266  851.2682
 267  1560.964
 268  1342.583
 269  1223.252
 270  1159.296
 271  1170.037
 272  1104.133
 273  1027.928
 274  966.1031
 275  1062.344
 276  1096.904
 277  854.8781
 278  792.573
 279  1246.078
 280  1311.935
 281  1345.765
 282  1237.864
 283  1026.523
 284  1224.181
 285  1548.483
 286  1104.261
 287  749.9833
 288  976.6859
 289  1253.765
 290  1185.45
 291  1206.206
 292  1186.358
 293  1104.583
 294  871.7224
 295  897.9023
 296  913.4075
 297  808.1082
 298  652.8533
 299  763.5574
 300  928.5439
 301  1051.265
 302  1191.636
 303  983.4093
 304  819.6111
 305  1064.319
 306  1241.662
 307  1364.398
 308  1155.786
 309  1310.162
 310  1171.993
 311  1083.58
 312  1361.756
 313  968.1542
 314  849.4818
 315  1130.291
 316  1118.17
 317  892.5335
 318  907.6359
 319  1464.961
 320  1736.378
 321  1574.055
 322  1268.394
 323  1367.305
 324  1313.509
 325  1690.739
 326  1919.467
 327  1995.205
 328  2244.515
 329  2138.957
 330  1574.762
 331  1185.222
 332  1416.426
 333  1382.628
 334  1148.268
 335  1183.707
 336  1078.328
 337  563.3302
 338  601.1371
 339  900.9204
 340  869.3115
 341  1049.584
 342  973.0255
 343  901.4847
 344  1181.05
 345  1116.783
 346  947.1974
 347  957.4044
 348  805.0319
 349  1336.121
 350  1295.948
 351  951.0389
 352  988.0036
 353  968.5655
 354  978.1547
 355  714.0073
 356  821.4216
 357  936.5057
 358  670.2453
 359  538.6636
 360  827.8554
 361  748.9458
 362  830.2205
 363  777.4193
 364  690.9574
 365  692.0391
 366  626.6345
 367  807.5847
 368  671.9457
 369  698.6713
 370  820.9619
 371  852.4312
 372  985.1257
 373  899.0928
 374  787.0714
 375  895.785
 376  738.2672
 377  739.8306
 378  1084.333
 379  892.2001
 380  836.2529
 381  801.2818
 382  906.7632
 383  865.7909
 384  1011.129
 385  1240.286
 386  1250.848
 387  1147.88
 388  652.0726
 389  474.407
 390  976.0285
 391  1065.569
 392  1093.51
 393  970.9962
 394  1098.051
 395  1126.677
 396  936.8738
 397  773.8493
 398  928.6627
 399  993.3114
 400  685.5085
 401  704.3521
 402  891.989
 403  998.9442
 404  811.8913
 405  795.0526
 406  878.3938
 407  958.9572
 408  951.985
 409  908.2922
 410  809.1235
 411  1016.944
 412  797.3107
 413  524.5941
 414  870.0985
 415  1005.809
 416  1044.06
 417  844.4158
 418  918.5109
 419  973.9094
 420  1088.25
 421  936.3829
 422  898.925
 423  1039.739
 424  883.2523
 425  641.3831
 426  587.3118
 427  996.2618
 428  947.1656
 429  777.8379
 430  735.801
 431  851.9186
 432  919.5472
 433  1112.795
 434  1457.586
 435  1183.115
 436  1172.64
 437  1061.911
 438  1429.331
 439  1292.796
 440  1223.291
 441  999.9876
 442  1192.152
 443  1207.944
 444  1403.15
 445  1121.102
 446  1250.792
 447  1178.75
 448  1174.147
 449  1184.833
 450  1131.685
 451  938.8751
 452  898.3205
 453  1051.173
 454  1213.853
 455  1375.025
 456  1335.665
 457  1173.077
 458  864.152
 459  1274.27
 460  1134.123
 461  824.8147
 462  929.6003
 463  1199.231
 464  1116.809
 465  1189.632
 466  1329.717
 467  1213.872
 468  1352.96
 469  938.2292
 470  1119.442
 471  1420.386
 472  1247.061
 473  1126.056
 474  1326.197
 475  1121.224
 476  1274.874
 477  1030.476
 478  829.3668
 479  511.2334
 480  583.9178
 481  892.4595
 482  887.1542
 483  1128.021
 484  1096.485
 485  863.9615
 486  645.2245
 487  711.9335
 488  1214.436
 489  1279.113
 490  1112.254
 491  1063.028
 492  898.2703
 493  888.6982
 494  1088.562
 495  1195.328
 496  867.408
 497  901.9088
 498  1006.135
 499  952.3681
 500  958.4074
 501  1034.694
 502  1071.711
 503  1159.566
 504  1353.119
 505  1178.678
 506  1097.135
 507  1125.31
 508  1342.74
 509  1144.452
 510  830.7388
 511  806.5018
