# Input file       =  1181442298.112694_cleaned.dat
# Candidate        =  PSR_0332+5434
# Telescope        =  AR
# Epoch_topo       =  57918.100892508031
# Epoch_bary       =  N/A
# T_sample         =  0.002
# Data Folded      =  7208960
# Data Avg         =  0.0660342998241751
# Data StdDev      =  3.39939549725625 
# Profile Bins     =  512
# Profile Avg      =  929.728272931173 
# Profile StdDev   =  403.369467900666 
# Reduced chi-sqr  =  0.684
# Prob(Noise)      <  1   (~0.0 sigma)
# P_topo (ms)      =  714.504066925801  +/- 3.57e-05
# P'_topo (s/s)    =  -0                +/- 1.92e-11
# P''_topo (s/s^2) =  0                 +/- 8.62e-15
# P_bary (ms)      =  N/A
# P'_bary (s/s)    =  N/A
# P''_bary (s/s^2) =  N/A
# P_orb (s)        =  N/A
# asin(i)/c (s)    =  N/A
# eccentricity     =  N/A
# w (rad)          =  N/A
# T_peri           =  N/A
######################################################
   0  695.4373
   1  988.163
   2  1060.373
   3  865.5618
   4  535.3453
   5  907.0831
   6  718.0115
   7  839.7973
   8  890.3536
   9  888.5359
  10  1248.71
  11  1155.961
  12  844.8539
  13  593.6685
  14  741.177
  15  634.882
  16  503.3884
  17  1062.271
  18  660.9593
  19  762.8074
  20  595.965
  21  864.0241
  22  772.0472
  23  541.0807
  24  961.7804
  25  945.8719
  26  1079.549
  27  933.4383
  28  934.5784
  29  783.7369
  30  583.7091
  31  583.9106
  32  288.5018
  33  649.9953
  34  600.0596
  35  707.0457
  36  843.4567
  37  1155.233
  38  1021.207
  39  854.0464
  40  791.7702
  41  591.8423
  42  763.2719
  43  1053.701
  44  859.0219
  45  912.5621
  46  1015.851
  47  1315.559
  48  1001.713
  49  1105.597
  50  1401.502
  51  1100.967
  52  1094.855
  53  893.5825
  54  973.6982
  55  776.0179
  56  871.7219
  57  561.522
  58  639.3419
  59  324.2779
  60  595.4941
  61  1126.046
  62  682.212
  63  804.7748
  64  496.5686
  65  671.0469
  66  604.6714
  67  493.9014
  68  611.7936
  69  920.144
  70  1087.824
  71  369.6233
  72  646.3932
  73  818.8745
  74  725.9337
  75  736.2943
  76  728.3713
  77  1209.721
  78  1152.09
  79  883.842
  80  529.1981
  81  718.9061
  82  626.5729
  83  897.0332
  84  1033.506
  85  761.2151
  86  845.8017
  87  248.3593
  88  135.2566
  89  317.392
  90  963.2361
  91  1034.535
  92  1115.74
  93  1236.388
  94  1041.008
  95  931.7286
  96  594.4146
  97  580.2946
  98  383.4057
  99  646.3874
 100  984.8419
 101  709.4241
 102  1049.386
 103  959.9752
 104  1043.432
 105  999.5598
 106  594.8633
 107  940.9621
 108  804.7303
 109  1089.976
 110  1128.357
 111  1339.501
 112  1397.347
 113  961.582
 114  930.3775
 115  1021.498
 116  1031.009
 117  851.6376
 118  1002.62
 119  941.3984
 120  960.1818
 121  1059.339
 122  837.1514
 123  949.2094
 124  898.7482
 125  1330.781
 126  1124.179
 127  1175.007
 128  1101.275
 129  676.3493
 130  1101.513
 131  1043.938
 132  950.9592
 133  819.5341
 134  1152.848
 135  919.7145
 136  676.2018
 137  1022.62
 138  713.8373
 139  612.9806
 140  989.8279
 141  1212.646
 142  1044.22
 143  932.9195
 144  941.1341
 145  1043.49
 146  1045.873
 147  791.5226
 148  660.0836
 149  905.2247
 150  778.9226
 151  909.8392
 152  1239.865
 153  1015.522
 154  622.0358
 155  899.6996
 156  1005.68
 157  869.5574
 158  1158.327
 159  848.9373
 160  1019.028
 161  794.811
 162  816.4537
 163  760.9595
 164  876.2155
 165  932.384
 166  1003.005
 167  1043.896
 168  665.2227
 169  710.5887
 170  454.9737
 171  777.0338
 172  1041.688
 173  907.6649
 174  1200.82
 175  1095.394
 176  952.4677
 177  785.7569
 178  1077.255
 179  1334.878
 180  978.1958
 181  736.5963
 182  743.6585
 183  816.0115
 184  991.2834
 185  1322.624
 186  1086.985
 187  1164.78
 188  1212.657
 189  1071.046
 190  1342.257
 191  873.3797
 192  1103.479
 193  1287.691
 194  986.7925
 195  778.6772
 196  819.328
 197  1042.363
 198  744.3648
 199  920.4844
 200  1125.866
 201  1515.725
 202  1382.476
 203  1169.314
 204  1814.559
 205  1962.151
 206  2108.12
 207  1989.036
 208  2008.743
 209  1882.123
 210  1469.739
 211  977.0638
 212  851.3131
 213  991.5325
 214  653.0858
 215  808.3718
 216  986.7831
 217  1262.891
 218  1114.261
 219  1033.084
 220  1209.73
 221  744.0453
 222  902.5172
 223  1011.352
 224  1034.208
 225  1059.496
 226  947.3572
 227  1076.74
 228  888.7733
 229  599.3962
 230  775.1201
 231  1205.017
 232  979.8274
 233  875.6295
 234  976.3207
 235  920.5219
 236  1104.759
 237  790.3761
 238  938.6077
 239  658.5075
 240  604.4764
 241  958.3076
 242  840.2655
 243  1056.664
 244  989.9381
 245  1293.233
 246  1163.358
 247  823.7141
 248  471.5581
 249  710.808
 250  946.2532
 251  829.2991
 252  1035.228
 253  1096.496
 254  1205.872
 255  999.9727
 256  850.9796
 257  1119.656
 258  901.8624
 259  1128.852
 260  979.671
 261  922.3568
 262  952.7368
 263  1369.408
 264  1324.012
 265  930.5323
 266  1409.556
 267  1335.505
 268  1079.912
 269  687.0443
 270  875.4792
 271  1281.3
 272  914.1229
 273  934.0665
 274  814.5579
 275  1211.681
 276  1402.807
 277  1147.536
 278  939.3886
 279  1002.479
 280  1152.183
 281  868.7186
 282  1048.628
 283  928.2175
 284  1033.129
 285  1055.095
 286  748.9031
 287  890.6019
 288  797.7383
 289  1056.27
 290  896.4443
 291  1094.875
 292  1099.38
 293  993.9051
 294  1018.218
 295  861.1787
 296  770.4772
 297  951.5318
 298  1048.95
 299  992.526
 300  945.5126
 301  815.834
 302  869.9503
 303  1052.57
 304  705.3289
 305  1097.959
 306  827.1978
 307  938.9191
 308  919.45
 309  699.6957
 310  956.4955
 311  1008.8
 312  813.1003
 313  785.9285
 314  957.8083
 315  945.5759
 316  885.4944
 317  805.3319
 318  677.8138
 319  724.0713
 320  530.2796
 321  938.3386
 322  826.8599
 323  862.554
 324  1107.157
 325  1093.451
 326  893.8536
 327  1068.182
 328  1088.985
 329  1160.06
 330  1036.035
 331  1003.009
 332  1015.519
 333  1212.498
 334  1200.178
 335  1136.037
 336  698.6796
 337  965.9743
 338  1104.325
 339  867.4739
 340  1076.423
 341  803.8225
 342  952.6652
 343  488.8983
 344  788.3885
 345  940.6503
 346  1195.853
 347  1226.793
 348  1068.314
 349  980.3582
 350  743.7935
 351  574.7447
 352  477.8322
 353  684.858
 354  935.5394
 355  810.0582
 356  1008.253
 357  691.377
 358  954.8037
 359  1028.273
 360  1094.657
 361  837.8925
 362  451.1446
 363  674.5924
 364  763.798
 365  1057.736
 366  948.2482
 367  1078.928
 368  971.3653
 369  841.4229
 370  557.8765
 371  689.5293
 372  847.7015
 373  508.3873
 374  588.2674
 375  782.8829
 376  778.7601
 377  758.7061
 378  1114.201
 379  1119.713
 380  919.2297
 381  837.2933
 382  872.3184
 383  613.3685
 384  778.099
 385  923.7676
 386  868.656
 387  621.5412
 388  743.0441
 389  822.6433
 390  1102.652
 391  1397.778
 392  1194.427
 393  1044.598
 394  595.5334
 395  849.9183
 396  923.0184
 397  808.5522
 398  736.445
 399  916.3986
 400  1030.543
 401  692.8974
 402  995.0847
 403  907.5485
 404  925.1509
 405  984.8077
 406  910.267
 407  892.1985
 408  665.5961
 409  741.4719
 410  1103.426
 411  1137.086
 412  1211.558
 413  1067.481
 414  788.7662
 415  1022.168
 416  962.2897
 417  797.1254
 418  1097.482
 419  954.8088
 420  873.8295
 421  890.5753
 422  802.7062
 423  1048.683
 424  1164.609
 425  1280.439
 426  831.8
 427  1049.115
 428  1042.527
 429  955.7628
 430  688.8029
 431  919.1108
 432  1287.848
 433  1218.408
 434  1049.985
 435  1010.743
 436  792.5499
 437  1099.283
 438  1260.557
 439  1149.76
 440  940.1279
 441  1230.18
 442  1108.102
 443  503.33
 444  1129.638
 445  1136.971
 446  1224.598
 447  521.9233
 448  946.9292
 449  1005.953
 450  1010.906
 451  1321.688
 452  1164.632
 453  1182.007
 454  737.8143
 455  1063.429
 456  979.7562
 457  1220.572
 458  1269.864
 459  971.3972
 460  791.7432
 461  635.424
 462  1180.876
 463  957.2167
 464  1106.037
 465  979.9377
 466  790.2335
 467  894.3056
 468  764.1784
 469  1005.84
 470  678.4105
 471  623.9712
 472  355.3946
 473  585.8557
 474  882.2963
 475  964.0272
 476  1225.234
 477  1021.857
 478  817.938
 479  707.5488
 480  739.7055
 481  742.8082
 482  710.087
 483  920.0229
 484  893.4761
 485  1022.825
 486  892.9884
 487  940.7183
 488  925.2797
 489  990.8896
 490  1225.028
 491  1161.232
 492  937.2935
 493  664.7294
 494  779.2415
 495  1011.174
 496  867.669
 497  1150.742
 498  1072.388
 499  1107.725
 500  573.3518
 501  910.0927
 502  525.5358
 503  336.4363
 504  793.4874
 505  732.3639
 506  1068.295
 507  1113.632
 508  1018.397
 509  849.9078
 510  773.2817
 511  817.2647
