# Input file       =  1181041046.106092_cleaned.dat
# Candidate        =  PSR_0332+5434
# Telescope        =  AR
# Epoch_topo       =  57913.456772061247
# Epoch_bary       =  N/A
# T_sample         =  0.002
# Data Folded      =  7340032
# Data Avg         =  0.11106101324445 
# Data StdDev      =  3.25362674503015 
# Profile Bins     =  1024
# Profile Avg      =  796.0719682899   
# Profile StdDev   =  275.465191244107 
# Reduced chi-sqr  =  1.028
# Prob(Noise)      <  0.26   (~0.6 sigma)
# P_topo (ms)      =  714.508771051753  +/- 0.000293
# P'_topo (s/s)    =  -0                +/- 1.54e-10
# P''_topo (s/s^2) =  0                 +/- 6.82e-14
# P_bary (ms)      =  N/A
# P'_bary (s/s)    =  N/A
# P''_bary (s/s^2) =  N/A
# P_orb (s)        =  N/A
# asin(i)/c (s)    =  N/A
# eccentricity     =  N/A
# w (rad)          =  N/A
# T_peri           =  N/A
######################################################
   0  885.576
   1  805.3523
   2  694.0765
   3  698.8593
   4  689.966
   5  787.4456
   6  754.136
   7  831.129
   8  841.4348
   9  784.4894
  10  781.1501
  11  649.6993
  12  649.1942
  13  621.4059
  14  718.2074
  15  792.5036
  16  831.4387
  17  734.0324
  18  734.5263
  19  842.2316
  20  877.2671
  21  799.8783
  22  772.0517
  23  773.3401
  24  702.9694
  25  591.2416
  26  657.1435
  27  742.374
  28  845.9386
  29  735.532
  30  680.9049
  31  506.0186
  32  521.8748
  33  618.0372
  34  779.0653
  35  789.9635
  36  851.9205
  37  777.0334
  38  807.343
  39  741.3473
  40  698.665
  41  676.7822
  42  745.9492
  43  890.3696
  44  842.9403
  45  707.5498
  46  623.2289
  47  650.5258
  48  641.3997
  49  610.1258
  50  500.6132
  51  564.4614
  52  648.2397
  53  691.6767
  54  626.4437
  55  514.8676
  56  601.3687
  57  704.5406
  58  751.1078
  59  709.461
  60  726.9412
  61  559.6219
  62  445.2533
  63  433.1819
  64  596.3551
  65  757.7517
  66  751.0002
  67  740.6986
  68  702.3411
  69  777.4609
  70  836.6068
  71  900.1331
  72  889.3813
  73  888.1831
  74  798.793
  75  748.4786
  76  672.5268
  77  696.0033
  78  732.7053
  79  776.4617
  80  739.1581
  81  763.0092
  82  768.6849
  83  797.0473
  84  755.8768
  85  729.5756
  86  679.1066
  87  677.3767
  88  644.6219
  89  705.4514
  90  824.0745
  91  889.147
  92  830.0312
  93  771.4814
  94  772.0781
  95  819.6693
  96  810.0853
  97  898.5603
  98  989.3316
  99  907.8183
 100  938.8303
 101  985.5204
 102  1186.332
 103  1095.379
 104  1200.803
 105  1077.996
 106  1070.482
 107  889.7761
 108  875.7997
 109  946.4998
 110  958.5374
 111  1025.578
 112  918.3759
 113  883.1771
 114  789.291
 115  814.5179
 116  924.4601
 117  932.1518
 118  837.2471
 119  686.9042
 120  705.6488
 121  806.3791
 122  786.2047
 123  700.5126
 124  692.2947
 125  782.6368
 126  778.1701
 127  743.4575
 128  601.686
 129  515.8101
 130  509.7855
 131  546.3551
 132  592.7173
 133  568.8486
 134  701.4315
 135  663.9276
 136  699.8975
 137  665.3014
 138  760.026
 139  873.339
 140  894.3079
 141  857.7126
 142  767.8998
 143  780.0341
 144  816.0032
 145  934.6465
 146  857.3926
 147  795.1191
 148  764.5246
 149  797.7189
 150  725.6599
 151  649.7316
 152  669.5809
 153  702.4914
 154  763.6815
 155  786.1071
 156  795.3336
 157  724.165
 158  646.0014
 159  663.2448
 160  739.158
 161  767.0576
 162  632.9832
 163  448.4343
 164  591.3098
 165  742.3592
 166  829.0303
 167  759.1891
 168  823.4031
 169  812.905
 170  723.0612
 171  695.4038
 172  748.651
 173  721.1238
 174  700.79
 175  687.12
 176  704.3926
 177  725.4625
 178  673.6343
 179  676.6937
 180  663.6682
 181  708.8605
 182  688.9826
 183  705.3123
 184  762.8113
 185  871.384
 186  937.423
 187  863.1439
 188  786.6537
 189  771.9296
 190  738.218
 191  806.5969
 192  916.3869
 193  1071.208
 194  1118.495
 195  1130.626
 196  1000.844
 197  836.8984
 198  677.7971
 199  689.9687
 200  824.7585
 201  836.0016
 202  837.4918
 203  802.4578
 204  821.8192
 205  764.3939
 206  759.2707
 207  701.9047
 208  739.4423
 209  687.2018
 210  732.6121
 211  778.4597
 212  825.6918
 213  802.4667
 214  736.0186
 215  739.1937
 216  756.4857
 217  829.217
 218  827.9458
 219  776.41
 220  747.9092
 221  842.3873
 222  897.7342
 223  864.3351
 224  741.36
 225  705.4439
 226  775.5994
 227  852.7945
 228  839.4135
 229  758.7433
 230  838.6141
 231  921.399
 232  926.9334
 233  863.7935
 234  864.4382
 235  932.8729
 236  937.9448
 237  852.3624
 238  799.333
 239  881.6154
 240  1004.66
 241  990.0245
 242  916.0033
 243  820.6133
 244  717.0517
 245  612.0342
 246  552.5711
 247  543.8969
 248  662.3
 249  793.0936
 250  858.5906
 251  871.1878
 252  847.9851
 253  870.954
 254  937.5699
 255  929.8617
 256  935.2578
 257  913.5924
 258  889.291
 259  861.0952
 260  1017.741
 261  1039.25
 262  986.2385
 263  867.0374
 264  964.9218
 265  999.9627
 266  998.3237
 267  1013.286
 268  1052.816
 269  982.6828
 270  967.1495
 271  909.1644
 272  955.2411
 273  1004.417
 274  1117.535
 275  1047.873
 276  988.3912
 277  955.676
 278  1061.843
 279  1016.61
 280  899.6675
 281  845.8078
 282  870.3203
 283  927.9495
 284  948.9969
 285  945.6301
 286  923.2372
 287  785.2247
 288  760.0424
 289  645.0516
 290  719.6992
 291  799.02
 292  906.2108
 293  779.1024
 294  668.0085
 295  680.534
 296  741.843
 297  678.0117
 298  669.1395
 299  723.1166
 300  646.2341
 301  602.4276
 302  582.8256
 303  714.5375
 304  692.2364
 305  684.6237
 306  609.1469
 307  554.8837
 308  541.2275
 309  519.3256
 310  533.6461
 311  617.8929
 312  713.0115
 313  708.6996
 314  650.8138
 315  669.2061
 316  688.7863
 317  735.5438
 318  721.022
 319  730.0649
 320  691.2092
 321  746.8954
 322  747.1015
 323  654.702
 324  691.6636
 325  803.9628
 326  957.0122
 327  910.5447
 328  843.361
 329  765.5797
 330  787.5686
 331  758.6357
 332  751.2899
 333  762.988
 334  884.4385
 335  986.3066
 336  953.4815
 337  855.8755
 338  785.7047
 339  773.9318
 340  686.8206
 341  816.7503
 342  821.9301
 343  824.3674
 344  722.8066
 345  679.7836
 346  627.4831
 347  704.9946
 348  720.6228
 349  618.5851
 350  527.6365
 351  577.1003
 352  709.9279
 353  715.1299
 354  794.4321
 355  780.8616
 356  732.8452
 357  706.9297
 358  730.4708
 359  658.7155
 360  534.7908
 361  527.7798
 362  597.7463
 363  586.6949
 364  510.3943
 365  574.1149
 366  706.69
 367  757.1039
 368  803.1147
 369  875.9657
 370  876.4915
 371  813.5306
 372  742.3207
 373  740.9926
 374  755.2103
 375  688.8888
 376  660.7029
 377  658.36
 378  709.6052
 379  767.3425
 380  740.6223
 381  694.5502
 382  639.8192
 383  592.9973
 384  681.3818
 385  738.9537
 386  756.368
 387  798.8052
 388  793.5477
 389  694.0848
 390  614.5092
 391  692.0022
 392  802.1921
 393  761.6629
 394  679.9591
 395  651.5258
 396  647.2375
 397  668.5047
 398  840.293
 399  867.9453
 400  804.5742
 401  800.7561
 402  739.9575
 403  706.9767
 404  711.6494
 405  783.7371
 406  799.4847
 407  764.494
 408  677.2054
 409  600.5732
 410  483.3241
 411  563.3233
 412  620.557
 413  727.0404
 414  740.3553
 415  812.1313
 416  751.9565
 417  688.3602
 418  628.5602
 419  682.2064
 420  599.378
 421  603.6735
 422  466.3708
 423  550.0717
 424  587.6049
 425  591.6575
 426  636.0844
 427  624.6073
 428  792.3973
 429  764.821
 430  684.5917
 431  600.3948
 432  670.9044
 433  776.0792
 434  884.79
 435  995.2029
 436  1016.002
 437  999.3395
 438  909.046
 439  894.8435
 440  904.275
 441  990.1745
 442  1005.566
 443  810.0676
 444  644.4988
 445  712.6199
 446  822.7346
 447  895.4072
 448  873.9243
 449  910.2917
 450  933.9747
 451  902.8422
 452  815.9121
 453  650.9088
 454  583.2672
 455  623.2389
 456  740.6801
 457  750.159
 458  611.6812
 459  576.241
 460  649.5829
 461  807.0781
 462  808.2621
 463  849.1519
 464  739.2966
 465  694.3107
 466  653.6788
 467  738.1319
 468  698.0186
 469  764.757
 470  760.6155
 471  782.7433
 472  625.4654
 473  738.6758
 474  874.9177
 475  975.5581
 476  963.7346
 477  965.7989
 478  973.1207
 479  874.4645
 480  700.0369
 481  628.2573
 482  656.0402
 483  848.3093
 484  895.3833
 485  832.2216
 486  671.347
 487  684.1511
 488  886.6178
 489  1014.841
 490  993.0204
 491  861.9948
 492  852.9876
 493  861.2306
 494  816.7303
 495  708.1818
 496  623.5956
 497  700.5263
 498  746.0142
 499  783.8424
 500  744.1133
 501  698.717
 502  676.0446
 503  664.9343
 504  680.5848
 505  769.4504
 506  764.8646
 507  879.8741
 508  927.7736
 509  1047.26
 510  986.656
 511  880.2809
 512  795.4578
 513  944.8649
 514  1019.821
 515  938.5505
 516  848.5975
 517  942.3635
 518  987.1061
 519  849.8499
 520  760.3643
 521  798.6613
 522  852.9142
 523  780.1906
 524  722.1711
 525  710.6469
 526  741.8454
 527  798.3745
 528  890.7051
 529  907.4415
 530  752.6406
 531  754.9893
 532  802.5729
 533  879.3854
 534  871.1243
 535  787.9274
 536  711.7398
 537  734.3123
 538  825.8553
 539  905.869
 540  848.3493
 541  695.5604
 542  705.712
 543  688.0738
 544  709.501
 545  729.4244
 546  785.014
 547  857.6929
 548  855.1332
 549  882.3456
 550  858.8658
 551  787.2338
 552  660.71
 553  618.3737
 554  618.4822
 555  650.299
 556  602.3099
 557  479.0146
 558  573.5417
 559  661.3976
 560  666.0946
 561  615.7545
 562  705.9139
 563  813.5349
 564  782.7537
 565  760.5137
 566  724.5551
 567  785.0198
 568  753.8361
 569  810.6982
 570  797.8323
 571  763.8184
 572  709.8453
 573  786.4694
 574  784.9129
 575  732.2496
 576  730.2802
 577  772.8492
 578  852.4332
 579  837.9734
 580  823.4488
 581  774.6434
 582  710.6191
 583  829.8665
 584  931.3975
 585  950.7888
 586  840.853
 587  702.9333
 588  747.3563
 589  768.4338
 590  837.0063
 591  753.5971
 592  787.802
 593  807.5405
 594  862.5069
 595  847.1718
 596  871.3857
 597  911.2812
 598  958.6029
 599  982.8577
 600  1018.526
 601  890.7111
 602  802.9972
 603  757.1732
 604  833.0261
 605  963.4443
 606  922.2855
 607  916.6829
 608  892.9625
 609  845.3046
 610  845.545
 611  859.8049
 612  929.8698
 613  876.4735
 614  828.5176
 615  711.9207
 616  667.0975
 617  651.8798
 618  801.4791
 619  956.6269
 620  935.9452
 621  909.1866
 622  838.2064
 623  892.801
 624  835.2438
 625  929.2344
 626  919.3112
 627  850.5631
 628  681.8754
 629  578.6448
 630  648.9305
 631  735.6453
 632  846.9123
 633  862.537
 634  731.4036
 635  685.874
 636  776.476
 637  835.16
 638  752.594
 639  710.2638
 640  829.29
 641  812.0413
 642  656.4686
 643  596.7462
 644  667.4109
 645  688.5374
 646  690.7284
 647  693.7974
 648  687.6536
 649  616.0306
 650  611.2523
 651  714.3085
 652  671.1575
 653  562.4898
 654  586.5792
 655  729.5729
 656  784.6973
 657  749.7087
 658  766.5107
 659  842.1467
 660  837.5477
 661  795.3441
 662  671.6479
 663  557.8016
 664  608.4105
 665  681.7209
 666  749.5748
 667  650.0959
 668  647.1799
 669  648.6906
 670  779.3628
 671  674.014
 672  710.6171
 673  746.7403
 674  776.2953
 675  711.5729
 676  773.5727
 677  964.4208
 678  1062.596
 679  966.8503
 680  861.2852
 681  765.1821
 682  713.7587
 683  727.9819
 684  748.3174
 685  758.5499
 686  758.2
 687  859.5944
 688  895.9161
 689  902.4379
 690  816.9614
 691  908.4236
 692  878.8995
 693  925.4833
 694  906.2333
 695  1025.031
 696  1053.822
 697  1075.788
 698  988.6334
 699  946.76
 700  857.3141
 701  798.9959
 702  644.5065
 703  644.7169
 704  666.2018
 705  645.9435
 706  710.8136
 707  739.8124
 708  755.476
 709  827.1343
 710  900.5098
 711  1000.693
 712  1038.688
 713  969.1306
 714  867.578
 715  765.1857
 716  795.9492
 717  810.0355
 718  781.2127
 719  870.5305
 720  928.476
 721  973.8291
 722  842.2565
 723  787.9586
 724  729.9496
 725  774.7158
 726  863.3756
 727  910.8598
 728  897.6851
 729  765.2394
 730  832.9636
 731  913.7631
 732  1024.411
 733  934.945
 734  835.6321
 735  707.482
 736  682.2865
 737  641.4752
 738  634.493
 739  597.3386
 740  676.0267
 741  752.6288
 742  810.6801
 743  805.1198
 744  752.2698
 745  798.6636
 746  764.7184
 747  934.6573
 748  1155.289
 749  1322.499
 750  1403.98
 751  1269.225
 752  1359.796
 753  1405.785
 754  1550.714
 755  1501.221
 756  1502.085
 757  1517.053
 758  1527.458
 759  1389.523
 760  1221.37
 761  1109.203
 762  1096.302
 763  1055.678
 764  988.8762
 765  951.3409
 766  1011.119
 767  1025.697
 768  1051.135
 769  1040.855
 770  973.433
 771  878.4567
 772  899.4763
 773  885.6304
 774  959.7051
 775  923.9077
 776  1039.874
 777  1083.883
 778  1085.181
 779  1051.743
 780  1020.124
 781  983.0534
 782  984.8764
 783  901.7721
 784  1068.71
 785  1161.948
 786  1310.755
 787  1221.781
 788  1066.719
 789  1004.27
 790  960.5061
 791  998.0709
 792  974.423
 793  1115.793
 794  1114.347
 795  993.2881
 796  865.825
 797  802.921
 798  810.329
 799  728.9028
 800  750.5858
 801  620.4578
 802  615.7657
 803  613.1989
 804  724.0823
 805  804.5297
 806  820.1742
 807  828.4566
 808  735.2453
 809  742.7778
 810  750.064
 811  753.5428
 812  821.2461
 813  890.393
 814  865.9926
 815  780.711
 816  802.7215
 817  773.1647
 818  755.571
 819  770.4868
 820  750.1313
 821  651.3181
 822  642.5698
 823  703.6902
 824  745.293
 825  674.1899
 826  678.7938
 827  673.2568
 828  767.6416
 829  762.2593
 830  778.6495
 831  688.993
 832  787.7392
 833  780.4136
 834  769.3076
 835  714.0403
 836  782.567
 837  792.7469
 838  683.0071
 839  595.4555
 840  598.9293
 841  575.9088
 842  669.7651
 843  748.9021
 844  775.4904
 845  818.1397
 846  825.9934
 847  853.7842
 848  959.1641
 849  897.324
 850  769.2318
 851  830.9406
 852  927.7953
 853  978.9498
 854  847.4382
 855  843.4741
 856  890.4362
 857  996.1357
 858  1141.523
 859  1146.972
 860  1131.218
 861  1086.556
 862  1158.487
 863  1191.394
 864  1122.813
 865  945.9221
 866  858.483
 867  878.4785
 868  892.7283
 869  955.0448
 870  1030.934
 871  1033.172
 872  1007.632
 873  970.7886
 874  967.186
 875  794.9064
 876  740.5295
 877  742.7879
 878  865.5392
 879  817.968
 880  846.4507
 881  839.9131
 882  774.2252
 883  757.9159
 884  705.2674
 885  733.0294
 886  750.6553
 887  683.1035
 888  666.9362
 889  745.6179
 890  864.619
 891  837.5649
 892  822.8823
 893  788.4124
 894  756.8135
 895  663.963
 896  646.7307
 897  622.3348
 898  598.4751
 899  589.5731
 900  634.631
 901  729.0262
 902  723.8816
 903  725.149
 904  629.6394
 905  658.7095
 906  699.1918
 907  654.4945
 908  534.5464
 909  476.3073
 910  558.0354
 911  817.0038
 912  874.8479
 913  872.4739
 914  798.0139
 915  872.6139
 916  882.1324
 917  810.7461
 918  734.6967
 919  748.2939
 920  741.6931
 921  907.0735
 922  997.0649
 923  1012.529
 924  939.7365
 925  992.6082
 926  909.4791
 927  855.376
 928  786.5409
 929  891.3678
 930  933.6127
 931  939.9663
 932  938.5172
 933  829.8793
 934  940.17
 935  911.1689
 936  942.5399
 937  900.9514
 938  1005.427
 939  1092.728
 940  1005.39
 941  921.0778
 942  915.9263
 943  945.9099
 944  938.9333
 945  908.4288
 946  874.1608
 947  871.5148
 948  926.2213
 949  1033.724
 950  1035.153
 951  998.5019
 952  1049.367
 953  1057.342
 954  1137.208
 955  1065.833
 956  942.8856
 957  759.0456
 958  747.9608
 959  928.3432
 960  1010.869
 961  969.0343
 962  907.8331
 963  997.599
 964  1122.115
 965  1089.164
 966  896.423
 967  735.6431
 968  733.4985
 969  811.1375
 970  786.6789
 971  716.7682
 972  670.5449
 973  789.7025
 974  848.0386
 975  789.377
 976  551.2074
 977  467.7945
 978  506.5283
 979  648.9524
 980  688.5748
 981  731.9487
 982  749.2303
 983  780.8576
 984  791.8975
 985  822.1439
 986  715.8564
 987  602.6771
 988  545.9964
 989  639.0018
 990  701.1042
 991  649.9818
 992  551.0736
 993  472.1233
 994  499.6004
 995  475.052
 996  515.1943
 997  515.6603
 998  511.0128
 999  457.7952
1000  539.5723
1001  602.1066
1002  682.804
1003  726.5625
1004  664.0693
1005  641.8099
1006  629.1703
1007  716.2968
1008  596.4315
1009  588.2162
1010  500.8277
1011  556.5234
1012  478.0899
1013  552.4792
1014  672.8461
1015  742.238
1016  671.9692
1017  597.1364
1018  528.1415
1019  467.8477
1020  510.8744
1021  552.3933
1022  709.272
1023  779.1628
