# Input file       =  1181385701.112891_cleaned.dat
# Candidate        =  PSR_0332+5434
# Telescope        =  AR
# Epoch_topo       =  57917.445834639941
# Epoch_bary       =  N/A
# T_sample         =  0.002
# Data Folded      =  7340032
# Data Avg         =  0.139684385625255
# Data StdDev      =  3.65148413644988 
# Profile Bins     =  1024
# Profile Avg      =  1001.26840587852 
# Profile StdDev   =  309.149406123002 
# Reduced chi-sqr  =  0.648
# Prob(Noise)      <  1   (~0.0 sigma)
# P_topo (ms)      =  714.505020834762  +/- 0.000737
# P'_topo (s/s)    =  -0                +/- 3.89e-10
# P''_topo (s/s^2) =  0                 +/- 1.72e-13
# P_bary (ms)      =  N/A
# P'_bary (s/s)    =  N/A
# P''_bary (s/s^2) =  N/A
# P_orb (s)        =  N/A
# asin(i)/c (s)    =  N/A
# eccentricity     =  N/A
# w (rad)          =  N/A
# T_peri           =  N/A
######################################################
   0  947.2223
   1  877.069
   2  970.9484
   3  1123.657
   4  1243.589
   5  1183.509
   6  1134.773
   7  1071.859
   8  1031.477
   9  1000.877
  10  914.4923
  11  900.9734
  12  982.2765
  13  1018.532
  14  1129.128
  15  931.6063
  16  901.6782
  17  1041.322
  18  1272.985
  19  1376.781
  20  1261.457
  21  1240.095
  22  1157.12
  23  1123.079
  24  990.5198
  25  1043.607
  26  1038.152
  27  1157.371
  28  1172.832
  29  1181.981
  30  1164.131
  31  1089.748
  32  986.4047
  33  837.351
  34  683.4236
  35  722.7738
  36  873.7745
  37  942.0662
  38  795.4961
  39  753.1825
  40  776.5771
  41  795.7562
  42  691.8541
  43  730.7566
  44  802.8617
  45  895.8806
  46  843.1135
  47  902.9086
  48  870.2149
  49  901.2914
  50  923.9316
  51  931.2881
  52  917.6591
  53  847.2604
  54  861.3858
  55  846.7072
  56  847.4898
  57  899.2512
  58  963.9206
  59  895.5554
  60  819.7119
  61  698.832
  62  839.5294
  63  931.9357
  64  941.7039
  65  845.5809
  66  801.4926
  67  854.2084
  68  897.1976
  69  968.9018
  70  918.6945
  71  974.9612
  72  945.4224
  73  1019.287
  74  1065.988
  75  1015.901
  76  1027.388
  77  944.2484
  78  851.9983
  79  760.8761
  80  709.0733
  81  769.2583
  82  802.3011
  83  739.1094
  84  875.977
  85  887.419
  86  968.3831
  87  887.5795
  88  911.7248
  89  950.103
  90  967.837
  91  938.2117
  92  970.6614
  93  913.955
  94  956.4781
  95  950.6564
  96  944.2794
  97  925.5009
  98  979.7214
  99  1076.207
 100  1123.245
 101  1082.685
 102  1008.886
 103  960.271
 104  921.6349
 105  1001.152
 106  1062.072
 107  1164.265
 108  1176.511
 109  1029.424
 110  920.5764
 111  853.5707
 112  879.7307
 113  684.7943
 114  685.6373
 115  695.574
 116  812.4859
 117  868.7776
 118  989.5726
 119  1064.558
 120  925.8154
 121  833.3746
 122  848.4001
 123  920.6595
 124  899.5184
 125  863.3728
 126  799.1113
 127  843.3923
 128  891.1982
 129  889.9073
 130  944.3442
 131  975.1005
 132  1032.519
 133  975.3616
 134  945.2874
 135  912.8996
 136  848.1512
 137  872.8177
 138  1017.73
 139  984.6624
 140  937.2712
 141  850.1603
 142  863.1434
 143  850.5874
 144  844.1505
 145  929.8399
 146  1002.986
 147  998.6386
 148  1013.15
 149  969.5197
 150  994.6338
 151  1061.682
 152  1098.929
 153  1029.319
 154  957.3044
 155  906.9022
 156  983.0475
 157  959.31
 158  1043.159
 159  1032.793
 160  978.8149
 161  990.9827
 162  1050.81
 163  994.6382
 164  873.5208
 165  834.8274
 166  830.4966
 167  743.7437
 168  746.2061
 169  836.5486
 170  810.1615
 171  707.7676
 172  750.2874
 173  995.4341
 174  1148.457
 175  1102.278
 176  1035.98
 177  1002.025
 178  1006.549
 179  913.5721
 180  860.4488
 181  796.4936
 182  909.4172
 183  958.3621
 184  1044.335
 185  1212.784
 186  1237.212
 187  1302.808
 188  1155.958
 189  1050.141
 190  961.8449
 191  1043.314
 192  1107.627
 193  1066.091
 194  967.4683
 195  1082.395
 196  1090.678
 197  1067.66
 198  941.6417
 199  971.0311
 200  959.5228
 201  983.8981
 202  976.8106
 203  1121.102
 204  1204.838
 205  1226.591
 206  1191.869
 207  1136.947
 208  1122.88
 209  1109.852
 210  1101.151
 211  957.813
 212  917.8728
 213  995.3403
 214  1048.106
 215  940.8347
 216  873.0627
 217  917.5984
 218  852.7598
 219  737.5289
 220  766.7442
 221  816.6163
 222  921.6302
 223  955.7337
 224  957.785
 225  914.8599
 226  951.2881
 227  1018.106
 228  908.3099
 229  800.2348
 230  819.8109
 231  857.1287
 232  837.6064
 233  864.8934
 234  844.1107
 235  994.2303
 236  1017.712
 237  1042.016
 238  1099.283
 239  1103.428
 240  1118.56
 241  931.4031
 242  874.9622
 243  834.1331
 244  767.6754
 245  731.7855
 246  815.4908
 247  917.4243
 248  997.2922
 249  956.8659
 250  951.9858
 251  1012.891
 252  1160.324
 253  1125.431
 254  1012.299
 255  811.4879
 256  872.6143
 257  812.1396
 258  952.1603
 259  1057.681
 260  1083.532
 261  1115.04
 262  1064.375
 263  1083.261
 264  1032.098
 265  980.6469
 266  976.9742
 267  981.1855
 268  1041.543
 269  1054.201
 270  1069.846
 271  1077.814
 272  1156.717
 273  1175.711
 274  1226.73
 275  1237.492
 276  1213.314
 277  1226.12
 278  1297.925
 279  1289.794
 280  1178.463
 281  1150.752
 282  1084.193
 283  1254.481
 284  1224.955
 285  1220.234
 286  1200.373
 287  1239.412
 288  1356.801
 289  1419.192
 290  1361.304
 291  1187.942
 292  1074.607
 293  1094.373
 294  1141.615
 295  1085.068
 296  1167.489
 297  1114.244
 298  1114.266
 299  982.517
 300  935.8008
 301  927.7336
 302  938.2861
 303  1008.774
 304  1017.554
 305  1111.83
 306  1130.134
 307  1162.1
 308  1147.372
 309  1151.865
 310  1257.141
 311  1211.223
 312  1147.104
 313  1011.15
 314  955.0107
 315  865.038
 316  759.0079
 317  660.5709
 318  713.5695
 319  689.0754
 320  762.5156
 321  890.9928
 322  1061.132
 323  1152.661
 324  1037.88
 325  921.417
 326  926.5412
 327  1002.524
 328  1123.888
 329  996.7769
 330  783.4683
 331  693.6169
 332  788.9124
 333  821.857
 334  882.256
 335  1017.815
 336  1095.26
 337  947.5891
 338  829.3774
 339  791.1426
 340  793.9671
 341  760.0786
 342  843.5906
 343  977.5426
 344  1072.602
 345  1018.384
 346  808.2991
 347  830.4114
 348  906.8289
 349  1031.414
 350  1028.927
 351  967.5954
 352  1114.394
 353  1192.321
 354  1074.282
 355  838.4225
 356  871.9101
 357  1061.832
 358  1227.043
 359  1239.932
 360  1133.943
 361  985.7601
 362  1027.593
 363  1028.845
 364  1077.861
 365  962.2368
 366  993.3229
 367  907.7955
 368  906.1282
 369  910.6194
 370  930.8705
 371  940.1027
 372  933.9376
 373  961.9229
 374  1033.329
 375  1031.231
 376  1088.732
 377  1079.726
 378  1141.077
 379  1112.227
 380  1146.346
 381  1178.638
 382  1268.426
 383  1241.05
 384  1142.622
 385  1037.286
 386  1122.117
 387  1058.331
 388  991.9681
 389  978.5705
 390  946.1013
 391  898.2061
 392  683.0888
 393  695.4262
 394  802.0901
 395  957.3005
 396  1012.248
 397  970.8771
 398  971.9076
 399  1003.003
 400  994.7374
 401  903.4784
 402  819.2128
 403  885.0607
 404  983.5526
 405  1004.828
 406  995.6358
 407  832.3984
 408  814.7086
 409  820.4559
 410  973.0289
 411  990.5898
 412  957.4738
 413  841.4999
 414  752.8678
 415  726.8223
 416  780.7521
 417  796.6791
 418  811.1121
 419  804.5222
 420  817.9751
 421  817.5466
 422  829.8179
 423  890.8004
 424  900.6251
 425  997.826
 426  1024.979
 427  1036.624
 428  1041.353
 429  1131.145
 430  1067.833
 431  1040.731
 432  1064.1
 433  1140.847
 434  1032.343
 435  883.4315
 436  923.3455
 437  970.9849
 438  1011.121
 439  953.4944
 440  830.5575
 441  863.0463
 442  969.5695
 443  995.1852
 444  1034.478
 445  1017.277
 446  1141.291
 447  1094.225
 448  981.8727
 449  873.3471
 450  895.5562
 451  990.077
 452  1053.708
 453  1096.791
 454  1168.695
 455  1205.773
 456  1131.828
 457  1008.594
 458  1031.818
 459  1052.18
 460  1110.145
 461  1123.503
 462  1065.78
 463  1023.546
 464  1031.735
 465  1042.784
 466  1030.962
 467  940.9562
 468  922.8261
 469  890.823
 470  996.9268
 471  1037.956
 472  1039.894
 473  1061.341
 474  1092.575
 475  1067.781
 476  1105.371
 477  1058.734
 478  1141.887
 479  1006.712
 480  906.6351
 481  753.808
 482  887.3908
 483  943.7719
 484  980.3436
 485  1002.5
 486  1093.427
 487  1127.577
 488  1022.99
 489  950.4467
 490  949.4423
 491  989.8827
 492  1047.467
 493  1073.865
 494  1222.938
 495  1227.965
 496  1148.109
 497  985.938
 498  1047.428
 499  1143.525
 500  1132.787
 501  1077.401
 502  1076.964
 503  1112.491
 504  1004.223
 505  842.0015
 506  820.3325
 507  814.9736
 508  882.8881
 509  873.6185
 510  877.6804
 511  975.7784
 512  1010.006
 513  1083.604
 514  1128.284
 515  1117.313
 516  1192.039
 517  1112.59
 518  1185.213
 519  1236.076
 520  1254.566
 521  1165.801
 522  1056.501
 523  999.329
 524  947.0917
 525  1003.306
 526  1081.957
 527  1123.241
 528  1102.557
 529  1128.666
 530  1170.916
 531  1228.604
 532  1066.692
 533  960.9941
 534  871.3049
 535  972.5847
 536  979.043
 537  892.5776
 538  779.4332
 539  792.0717
 540  797.1858
 541  941.0917
 542  934.2294
 543  1099.385
 544  1207.455
 545  1241.545
 546  1128.823
 547  979.0959
 548  999.7216
 549  961.7446
 550  884.5051
 551  844.543
 552  833.1741
 553  872.1073
 554  832.8242
 555  827.4755
 556  882.7413
 557  1000.789
 558  1052.139
 559  1143.989
 560  1058.342
 561  1013.015
 562  903.3553
 563  951.8691
 564  1094.989
 565  1187.518
 566  1162.891
 567  1090.525
 568  947.8643
 569  923.1575
 570  836.8817
 571  877.7385
 572  841.4384
 573  915.2737
 574  871.9666
 575  701.1132
 576  759.1435
 577  909.1035
 578  1043.858
 579  924.4036
 580  827.0274
 581  889.7499
 582  861.5519
 583  898.4269
 584  934.5639
 585  980.2773
 586  993.0163
 587  985.3569
 588  973.6711
 589  1139.172
 590  1257.077
 591  1171.93
 592  937.7154
 593  795.2106
 594  754.1802
 595  765.2908
 596  821.8347
 597  935.7211
 598  928.0252
 599  1003.284
 600  961.2557
 601  924.6313
 602  885.1919
 603  1038.638
 604  1200.699
 605  1227.018
 606  1133.862
 607  982.2645
 608  905.1645
 609  1011.501
 610  1096.87
 611  1212.325
 612  1176.843
 613  1119.308
 614  1112.994
 615  1040.127
 616  1092.595
 617  1143.089
 618  1126.069
 619  902.7474
 620  789.3536
 621  862.8094
 622  1092.391
 623  1021.559
 624  1088.706
 625  1124.036
 626  1212.92
 627  1028.696
 628  971.0256
 629  985.3828
 630  1126.888
 631  1018.993
 632  992.1435
 633  892.6657
 634  830.7972
 635  758.7216
 636  827.6921
 637  974.5685
 638  966.3262
 639  884.592
 640  893.0011
 641  840.2015
 642  878.4465
 643  906.2612
 644  945.6469
 645  820.8343
 646  758.3362
 647  826.0928
 648  970.0649
 649  1078.675
 650  1131.26
 651  1231.469
 652  1262.873
 653  1300.333
 654  1275.87
 655  1401.475
 656  1462.274
 657  1514.56
 658  1548.845
 659  1594.42
 660  1463.88
 661  1369.957
 662  1281.749
 663  1176.187
 664  1034.935
 665  897.0673
 666  764.6221
 667  753.8336
 668  759.2836
 669  937.2783
 670  966.5126
 671  967.2521
 672  999.994
 673  1069.962
 674  1119.238
 675  1118.084
 676  1114.177
 677  1105.653
 678  1149.809
 679  1258.537
 680  1268.021
 681  1131.066
 682  982.5239
 683  976.3614
 684  956.4793
 685  911.6937
 686  1044.366
 687  1168.32
 688  1135.665
 689  1155.005
 690  1113.77
 691  1152.535
 692  956.8813
 693  888.0216
 694  918.6782
 695  970.7306
 696  957.7578
 697  939.4654
 698  955.8692
 699  1108.73
 700  1150.5
 701  1200.04
 702  1007.075
 703  925.9919
 704  938.7681
 705  968.6048
 706  947.5296
 707  920.7056
 708  1008.53
 709  995.7507
 710  954.0243
 711  975.5593
 712  1024.546
 713  968.7276
 714  1040.126
 715  1104.842
 716  1155.062
 717  961.5804
 718  963.0823
 719  1003.172
 720  1060.676
 721  1013.616
 722  1013.978
 723  902.219
 724  919.1784
 725  913.2314
 726  1014.336
 727  1050.105
 728  1103.457
 729  1160.445
 730  1160.779
 731  1058.571
 732  985.3124
 733  972.1605
 734  1045.175
 735  1063.449
 736  1017.789
 737  893.1561
 738  859.7649
 739  897.2236
 740  1027.883
 741  990.8749
 742  1004.475
 743  972.7762
 744  994.6724
 745  945.7699
 746  1013.336
 747  974.6011
 748  994.5672
 749  909.7429
 750  1005.406
 751  945.2495
 752  917.2124
 753  826.4818
 754  913.3239
 755  1024.372
 756  1040.315
 757  1047.121
 758  1014.252
 759  1180.559
 760  1184.578
 761  1137.973
 762  1004.878
 763  838.8658
 764  842.3776
 765  812.7357
 766  905.3705
 767  953.5672
 768  1014.909
 769  1063.994
 770  978.5243
 771  850.1625
 772  792.4063
 773  810.4174
 774  934.2601
 775  1106.277
 776  1096.792
 777  1139.972
 778  1069.432
 779  1159.072
 780  1152.394
 781  1186.995
 782  1200.307
 783  1169.638
 784  1232.047
 785  1229.56
 786  1250.081
 787  1178.817
 788  1166.746
 789  1231.216
 790  1213.254
 791  1231.901
 792  1134.901
 793  1156.375
 794  1102.611
 795  1083.767
 796  1086.208
 797  1127.055
 798  1117.202
 799  1229.906
 800  1233.414
 801  1226.801
 802  1062.058
 803  1024.407
 804  1099.278
 805  1190.671
 806  1164.564
 807  1063.567
 808  1036.44
 809  1142.25
 810  1302.369
 811  1430.01
 812  1388.961
 813  1243.624
 814  1178.451
 815  1136.318
 816  1124.642
 817  1059.102
 818  1034.281
 819  1061.037
 820  1027.139
 821  1061.949
 822  1076.611
 823  1123.683
 824  1173.771
 825  1158.336
 826  1182.736
 827  1067.567
 828  1070.825
 829  1082.995
 830  1161.202
 831  1247.564
 832  1253.179
 833  1139.143
 834  956.6921
 835  902.6943
 836  1024.116
 837  1048.037
 838  1089.823
 839  1123.149
 840  1134.174
 841  1019.272
 842  1043.76
 843  1106.654
 844  1213.842
 845  1211.686
 846  984.0087
 847  866.2654
 848  875.4509
 849  923.4982
 850  986.0307
 851  957.2954
 852  1020.92
 853  1014.601
 854  1115.205
 855  1280.183
 856  1214.581
 857  1131.46
 858  1002.256
 859  971.2105
 860  884.1685
 861  915.2617
 862  987.929
 863  1095.779
 864  1090.94
 865  1029.019
 866  1045.421
 867  981.6165
 868  959.5708
 869  907.092
 870  962.8253
 871  992.1562
 872  991.0439
 873  857.9787
 874  806.3336
 875  774.5795
 876  881.1744
 877  942.6876
 878  978.3913
 879  908.1635
 880  1035.365
 881  1130.255
 882  1189.472
 883  1155.072
 884  1051.178
 885  1011.689
 886  936.5325
 887  1000.059
 888  1087.391
 889  1155.791
 890  1230.055
 891  1207.843
 892  1111.29
 893  983.6898
 894  908.1135
 895  866.4728
 896  911.2605
 897  1005.671
 898  1063.513
 899  1092.206
 900  1023.773
 901  1076.27
 902  1084.23
 903  1096.022
 904  1090.15
 905  1035.85
 906  976.5168
 907  947.6883
 908  976.9805
 909  1057.87
 910  1139.427
 911  1187.943
 912  1178.845
 913  1019.161
 914  977.4399
 915  985.0381
 916  961.6487
 917  980.3603
 918  906.4453
 919  1030.05
 920  1078.604
 921  1127.67
 922  1063.319
 923  1054.054
 924  1114.337
 925  1250.78
 926  1236.536
 927  1139.237
 928  972.2026
 929  960.4938
 930  986.9612
 931  991.6475
 932  916.0327
 933  989.5444
 934  974.456
 935  1032.703
 936  924.3278
 937  962.8708
 938  1016.841
 939  1187.054
 940  1148.452
 941  984.852
 942  924.5502
 943  931.4072
 944  1066.074
 945  1007.745
 946  972.9406
 947  1027.176
 948  1047.564
 949  1033.666
 950  908.7356
 951  975.0646
 952  999.4524
 953  1078.052
 954  997.274
 955  1081.681
 956  1005.635
 957  1014.242
 958  878.5354
 959  838.5569
 960  1002.152
 961  1038.569
 962  998.5761
 963  919.2884
 964  1003.501
 965  995.4245
 966  857.102
 967  843.7382
 968  980.0967
 969  1122.84
 970  1071.836
 971  890.9896
 972  793.8253
 973  686.1713
 974  800.8329
 975  815.6298
 976  961.8637
 977  1067.348
 978  1108.359
 979  992.2881
 980  867.0627
 981  808.1617
 982  936.6742
 983  959.7981
 984  928.5585
 985  859.512
 986  878.9978
 987  829.0483
 988  819.6094
 989  788.6417
 990  934.8694
 991  954.3527
 992  980.8982
 993  857.6196
 994  778.6337
 995  798.0901
 996  887.4371
 997  987.858
 998  1046.889
 999  1071.984
1000  996.2927
1001  809.6479
1002  844.4896
1003  895.2892
1004  810.5999
1005  701.2742
1006  800.7
1007  954.5328
1008  995.2062
1009  891.5444
1010  786.0842
1011  763.3172
1012  836.2029
1013  972.9196
1014  985.7618
1015  1071.892
1016  1052.167
1017  1047.088
1018  934.3216
1019  958.2831
1020  880.0524
1021  994.631
1022  1062.462
1023  1156.471
