# Input file       =  1181026120.100374_cleaned.dat
# Candidate        =  PSR_0332+5434
# Telescope        =  AR
# Epoch_topo       =  57913.284017365440
# Epoch_bary       =  N/A
# T_sample         =  0.002
# Data Folded      =  7340032
# Data Avg         =  0.0719422857426771
# Data StdDev      =  2.46968661378852 
# Profile Bins     =  512
# Profile Avg      =  1031.66569227921 
# Profile StdDev   =  295.703077167954 
# Reduced chi-sqr  =  1.149
# Prob(Noise)      <  0.011   (~2.3 sigma)
# P_topo (ms)      =  714.508601155518  +/- 0.000339
# P'_topo (s/s)    =  -0                +/- 1.79e-10
# P''_topo (s/s^2) =  0                 +/- 7.89e-14
# P_bary (ms)      =  N/A
# P'_bary (s/s)    =  N/A
# P''_bary (s/s^2) =  N/A
# P_orb (s)        =  N/A
# asin(i)/c (s)    =  N/A
# eccentricity     =  N/A
# w (rad)          =  N/A
# T_peri           =  N/A
######################################################
   0  1228.58
   1  1176.868
   2  1046.272
   3  1114.019
   4  1041.858
   5  980.696
   6  951.0457
   7  1142.902
   8  1148.799
   9  980.3592
  10  865.1826
  11  965.0746
  12  1129.056
  13  1195.589
  14  779.8939
  15  931.4483
  16  1298.823
  17  1041.905
  18  1069.326
  19  978.2559
  20  1167.86
  21  1103.453
  22  1050.243
  23  1252.473
  24  1069.521
  25  1216.713
  26  1043.487
  27  967.6448
  28  1077.423
  29  1107.953
  30  1108.627
  31  1014.715
  32  1230.871
  33  1190.237
  34  1181.046
  35  1291.205
  36  1220.361
  37  1198.896
  38  1243.758
  39  1272.621
  40  1267.288
  41  1213.955
  42  1223.031
  43  1247.132
  44  1017.483
  45  766.8649
  46  572.8797
  47  890.2635
  48  928.4045
  49  937.0754
  50  1122.151
  51  1208.375
  52  953.0273
  53  1038.183
  54  917.1254
  55  1314.067
  56  1180.485
  57  1022.763
  58  693.3365
  59  778.6016
  60  1168.836
  61  1187.503
  62  1010.116
  63  914.0515
  64  735.3487
  65  765.3328
  66  736.9621
  67  504.3622
  68  729.5522
  69  1096.617
  70  1189.941
  71  1118.689
  72  881.2255
  73  904.1339
  74  920.4594
  75  700.4185
  76  932.0914
  77  843.0356
  78  934.5039
  79  941.2026
  80  938.0612
  81  931.7936
  82  1126.221
  83  1038.612
  84  993.2012
  85  723.5437
  86  765.8697
  87  784.9696
  88  775.321
  89  1017.379
  90  990.7021
  91  825.9148
  92  980.1001
  93  1131.575
  94  1059.795
  95  752.1837
  96  687.4255
  97  1062.206
  98  778.8994
  99  640.8726
 100  808.6172
 101  947.4866
 102  1221.639
 103  1450.685
 104  1206.451
 105  923.1826
 106  918.1459
 107  932.8008
 108  842.6625
 109  1049.901
 110  1082.39
 111  775.4273
 112  948.8611
 113  926.2442
 114  1175.185
 115  1427.468
 116  1046.501
 117  939.1503
 118  809.2742
 119  1078.94
 120  1024.492
 121  1051.137
 122  1267.005
 123  1184.45
 124  1215.114
 125  1169.31
 126  992.2256
 127  510.0205
 128  932.0541
 129  1146.675
 130  982.4944
 131  976.1219
 132  1154.462
 133  1000.925
 134  1150.619
 135  1169.641
 136  1163.954
 137  774.0868
 138  709.697
 139  936.4453
 140  1114.717
 141  1365.254
 142  1171.8
 143  1330.668
 144  1306.164
 145  910.7805
 146  1042.073
 147  1125.281
 148  1154.334
 149  989.5836
 150  828.241
 151  964.364
 152  1018.046
 153  1148.417
 154  1175.354
 155  1052.543
 156  1202.38
 157  1196.555
 158  1129.633
 159  1287.624
 160  1383.921
 161  1411.316
 162  1114.842
 163  1158.368
 164  1045.742
 165  936.1212
 166  1169.35
 167  1388.829
 168  1238.988
 169  1255.229
 170  994.309
 171  950.0907
 172  822.1233
 173  1218.713
 174  1561.642
 175  1237.867
 176  1164.38
 177  1174.956
 178  1114.449
 179  1078.452
 180  998.3472
 181  1000.712
 182  1117.384
 183  948.8705
 184  803.1072
 185  994.7463
 186  1353.531
 187  1284.651
 188  1378.157
 189  1087.397
 190  1048.449
 191  1437.572
 192  1373.067
 193  858.1326
 194  814.2874
 195  1193.589
 196  1220.075
 197  1171.791
 198  1195.965
 199  1176.551
 200  978.7062
 201  864.8367
 202  916.9693
 203  888.6613
 204  711.7568
 205  662.5822
 206  843.8589
 207  1006.859
 208  1129.557
 209  1137.167
 210  834.701
 211  922.824
 212  1192.117
 213  1317.98
 214  1238.031
 215  1229.443
 216  1266.301
 217  1141.947
 218  1148.997
 219  1324.923
 220  689.825
 221  1083.863
 222  1151.655
 223  1011.041
 224  837.4906
 225  1155.08
 226  1713.119
 227  1667.611
 228  1399.597
 229  1276.157
 230  1365.713
 231  1461.099
 232  1873.262
 233  1895.065
 234  2170.351
 235  2236.82
 236  1905.625
 237  1289.225
 238  1282.792
 239  1446.062
 240  1223.093
 241  1135.551
 242  1207.04
 243  814.5785
 244  474.5738
 245  792.0273
 246  889.0598
 247  951.374
 248  1085.239
 249  843.2999
 250  1094.062
 251  1167.376
 252  1015.765
 253  936.5328
 254  849.5404
 255  1046.97
 256  1436.9
 257  1093.977
 258  907.19
 259  1001.386
 260  958.9113
 261  864.5475
 262  713.1868
 263  941.6909
 264  834.606
 265  508.8446
 266  712.5579
 267  812.86
 268  767.3735
 269  869.2885
 270  665.9243
 271  733.4151
 272  627.4863
 273  727.0173
 274  768.5422
 275  651.261
 276  733.5302
 277  864.7802
 278  913.4077
 279  984.6158
 280  813.3438
 281  828.699
 282  860.0113
 283  641.5348
 284  966.3384
 285  1036.323
 286  851.4913
 287  794.8793
 288  839.8138
 289  923.6082
 290  841.2828
 291  1200.994
 292  1190.127
 293  1314.039
 294  909.071
 295  455.6912
 296  695.6732
 297  1098.063
 298  1083.027
 299  1024.271
 300  1023.26
 301  1138.208
 302  1052.882
 303  813.8961
 304  820.8033
 305  1034.604
 306  818.3782
 307  634.461
 308  816.5187
 309  975.4973
 310  924.1677
 311  750.9511
 312  848.0188
 313  973.4529
 314  924.0061
 315  962.7705
 316  762.475
 317  947.1027
 318  972.3384
 319  587.5298
 320  682.0446
 321  992.9017
 322  1040.257
 323  911.2724
 324  873.2004
 325  922.8197
 326  1119.172
 327  970.173
 328  926.6695
 329  932.3546
 330  996.3885
 331  754.9292
 332  582.762
 333  786.7654
 334  1078.955
 335  803.1069
 336  768.0659
 337  727.0665
 338  918.3422
 339  929.0759
 340  1375.085
 341  1306.049
 342  1219.733
 343  1071.599
 344  1274.42
 345  1359.387
 346  1286.096
 347  1069.572
 348  1118.68
 349  1154.671
 350  1346.357
 351  1254.681
 352  1193.455
 353  1251.193
 354  1112.83
 355  1188.809
 356  1163.107
 357  1058.805
 358  883.9327
 359  987.9652
 360  1106.89
 361  1342.201
 362  1346.397
 363  1307.226
 364  917.3588
 365  1039.815
 366  1320.49
 367  931.2255
 368  840.9817
 369  1097.122
 370  1207.823
 371  1108.979
 372  1275.237
 373  1262.211
 374  1263.73
 375  1252.752
 376  851.5085
 377  1383.096
 378  1347.786
 379  1085.009
 380  1321.789
 381  1169.673
 382  1233.279
 383  1142.921
 384  945.3688
 385  652.203
 386  478.3795
 387  764.9175
 388  888.6996
 389  1015.828
 390  1153.169
 391  1016.77
 392  707.4095
 393  643.9371
 394  924.7742
 395  1379.209
 396  1119.247
 397  1106.21
 398  966.3481
 399  855.8918
 400  1010.652
 401  1157.938
 402  1076.058
 403  801.6965
 404  997.9565
 405  1011.763
 406  914.1066
 407  1026.712
 408  1053.723
 409  1068.452
 410  1278.567
 411  1281.107
 412  1119.312
 413  1124.507
 414  1257.661
 415  1298.438
 416  941.2975
 417  808.2844
 418  695.9841
 419  767.764
 420  877.8649
 421  1269.11
 422  1172.355
 423  1353.138
 424  1221.535
 425  1193.821
 426  1303.667
 427  1049.213
 428  872.9647
 429  649.9865
 430  910.0681
 431  1268.283
 432  1272.531
 433  1100.63
 434  999.8229
 435  842.5145
 436  776.7837
 437  784.0252
 438  762.2943
 439  761.3261
 440  997.6951
 441  745.0596
 442  825.1491
 443  799.5886
 444  1038.772
 445  800.4755
 446  823.4697
 447  999.9151
 448  855.0017
 449  683.8029
 450  796.2356
 451  786.5508
 452  622.2903
 453  616.4672
 454  829.301
 455  974.8447
 456  1203.05
 457  1050.522
 458  571.9712
 459  555.6949
 460  916.1534
 461  1180.148
 462  752.9013
 463  781.5106
 464  1086.325
 465  1113.125
 466  1295.91
 467  1330.194
 468  1137.002
 469  1163.408
 470  1200.788
 471  1435.992
 472  1305.929
 473  1459.545
 474  1242.323
 475  1195.199
 476  970.3033
 477  765.9617
 478  810.2114
 479  755.0202
 480  1016.471
 481  1059.934
 482  1210.614
 483  1265.474
 484  1245.555
 485  1145.637
 486  1119.587
 487  981.7194
 488  1276.7
 489  1210.533
 490  1002.111
 491  1054.155
 492  1072.533
 493  1058.168
 494  961.2139
 495  958.0823
 496  948.2512
 497  889.9847
 498  1083.516
 499  1185.25
 500  1032.458
 501  999.2353
 502  1187.232
 503  1021.238
 504  781.2056
 505  924.1579
 506  975.0143
 507  593.2536
 508  766.0283
 509  1026.217
 510  886.5546
 511  1063.352
