# Input file       =  1181213400.102393_cleaned.dat
# Candidate        =  PSR_0332+5434
# Telescope        =  AR
# Epoch_topo       =  57915.451609981399
# Epoch_bary       =  N/A
# T_sample         =  0.002
# Data Folded      =  7340032
# Data Avg         =  0.140191449017689
# Data StdDev      =  8.87684200346103 
# Profile Bins     =  1024
# Profile Avg      =  1004.86582857092 
# Profile StdDev   =  751.549323800647 
# Reduced chi-sqr  =  0.904
# Prob(Noise)      <  0.987   (~0.0 sigma)
# P_topo (ms)      =  714.506888205395  +/- 0.000402
# P'_topo (s/s)    =  -0                +/- 2.12e-10
# P''_topo (s/s^2) =  0                 +/- 9.36e-14
# P_bary (ms)      =  N/A
# P'_bary (s/s)    =  N/A
# P''_bary (s/s^2) =  N/A
# P_orb (s)        =  N/A
# asin(i)/c (s)    =  N/A
# eccentricity     =  N/A
# w (rad)          =  N/A
# T_peri           =  N/A
######################################################
   0  1109.234
   1  1094.315
   2  894.7614
   3  955.1875
   4  937.1497
   5  1222.89
   6  1222.424
   7  1190.467
   8  1065.085
   9  858.2872
  10  811.7305
  11  1024.897
  12  1092.027
  13  1044.211
  14  1213.784
  15  1372.388
  16  1347.109
  17  1091.841
  18  953.6869
  19  966.5418
  20  901.7292
  21  636.4327
  22  600.7028
  23  649.317
  24  581.4967
  25  316.9641
  26  345.129
  27  268.8155
  28  254.3005
  29  203.0356
  30  233.9005
  31  227.2911
  32  444.7265
  33  860.5397
  34  843.5964
  35  636.6673
  36  487.1871
  37  553.6393
  38  506.8969
  39  606.7883
  40  555.5774
  41  634.0795
  42  923.5486
  43  964.8693
  44  943.4978
  45  521.7557
  46  515.435
  47  691.4119
  48  959.3258
  49  1162.563
  50  1359.089
  51  1436.018
  52  1544.995
  53  1501.393
  54  1329.854
  55  1161.169
  56  1027.748
  57  917.8414
  58  915.8212
  59  931.8224
  60  945.7714
  61  886.2099
  62  693.2506
  63  694.188
  64  787.4125
  65  918.4429
  66  1050.779
  67  1010.762
  68  797.3199
  69  785.6165
  70  689.7124
  71  837.2221
  72  822.9708
  73  845.0108
  74  846.7692
  75  869.1616
  76  847.3737
  77  903.1275
  78  867.4027
  79  899.0346
  80  1055.481
  81  1132.827
  82  1013.635
  83  882.6401
  84  808.8199
  85  750.8747
  86  641.0203
  87  674.8312
  88  683.1692
  89  595.106
  90  698.0188
  91  751.9505
  92  776.8409
  93  841.1224
  94  813.603
  95  810.3759
  96  864.8163
  97  914.999
  98  839.5234
  99  518.5551
 100  513.7341
 101  432.668
 102  431.077
 103  -10.41125
 104  -74.13761
 105  61.55403
 106  506.679
 107  561.4722
 108  646.0287
 109  763.6589
 110  717.1811
 111  796.609
 112  810.4202
 113  981.5162
 114  985.135
 115  964.6728
 116  1182.743
 117  1395.177
 118  1378.9
 119  851.7269
 120  499.3573
 121  359.8743
 122  335.9128
 123  362.7203
 124  414.6417
 125  421.2427
 126  292.2116
 127  396.488
 128  555.7331
 129  531.3392
 130  403.9661
 131  620.9062
 132  750.2242
 133  701.0541
 134  632.0333
 135  670.7278
 136  605.6147
 137  649.4719
 138  859.6483
 139  934.4839
 140  990.4666
 141  967.3889
 142  958.3856
 143  969.5577
 144  1096.462
 145  1232.149
 146  1312.672
 147  1289.351
 148  1343.556
 149  1524.332
 150  1736.759
 151  1813.871
 152  1715.06
 153  1738.661
 154  1471.244
 155  1557.5
 156  1563.68
 157  1554.458
 158  1085.204
 159  1028.65
 160  1074.666
 161  1008.919
 162  984.0547
 163  1060.967
 164  1019.841
 165  1028.335
 166  1386.854
 167  1449.808
 168  1416.303
 169  1190.987
 170  1255.481
 171  1252.727
 172  1296.076
 173  1125.408
 174  1039.771
 175  984.2379
 176  1041.955
 177  1048.081
 178  1313.763
 179  1352.122
 180  1057.596
 181  806.6921
 182  932.3861
 183  1041.418
 184  1176.768
 185  1299.084
 186  1259.367
 187  1144.832
 188  945.8548
 189  943.1022
 190  845.88
 191  818.586
 192  970.835
 193  1125.334
 194  998.6364
 195  903.6617
 196  816.5065
 197  808.7094
 198  697.3445
 199  581.5272
 200  720.8971
 201  676.0354
 202  1085.068
 203  1016.954
 204  1339.97
 205  1568.188
 206  1499.781
 207  1354.459
 208  1313.684
 209  1318.946
 210  1254.072
 211  1178.88
 212  923.2134
 213  821.8629
 214  848.4972
 215  1110.438
 216  1280.118
 217  1250.56
 218  930.0576
 219  928.2739
 220  870.5081
 221  895.3727
 222  633.3889
 223  627.8231
 224  645.7974
 225  694.5205
 226  786.6157
 227  834.733
 228  806.5117
 229  802.9461
 230  853.7821
 231  1040.197
 232  1130.835
 233  1134.391
 234  1126.412
 235  940.1323
 236  997.6423
 237  1237.165
 238  1376.494
 239  1306.478
 240  1133.048
 241  976.6654
 242  770.0441
 243  577.7625
 244  547.6911
 245  427.748
 246  473.0317
 247  538.3571
 248  490.6588
 249  366.6461
 250  290.3345
 251  588.8007
 252  720.5343
 253  857.5417
 254  788.6734
 255  907.0856
 256  853.6987
 257  892.4598
 258  1048.095
 259  1060.887
 260  1216.324
 261  1400.003
 262  1287.644
 263  1064.654
 264  1176.329
 265  1298.944
 266  1095.908
 267  624.1338
 268  512.8525
 269  630.4052
 270  717.6749
 271  710.1705
 272  563.9647
 273  527.068
 274  490.5191
 275  772.8391
 276  874.6869
 277  1162.263
 278  1280.883
 279  1300.491
 280  1249.4
 281  1392.665
 282  1345.083
 283  1063.522
 284  911.1287
 285  965.2352
 286  917.4407
 287  665.2538
 288  616.7321
 289  610.897
 290  661.1531
 291  789.5192
 292  817.3733
 293  678.8336
 294  535.7132
 295  960.4233
 296  1144.848
 297  1408.896
 298  1118.947
 299  929.3448
 300  733.5295
 301  1062.007
 302  1106.109
 303  986.7042
 304  938.9279
 305  1022.127
 306  1085.024
 307  1101.469
 308  1000.995
 309  1077.718
 310  948.6292
 311  1144.978
 312  859.7291
 313  987.6743
 314  924.0006
 315  1017.513
 316  882.7559
 317  834.6781
 318  772.2877
 319  916.7256
 320  795.1485
 321  705.4653
 322  728.7861
 323  785.0266
 324  800.7568
 325  828.7371
 326  789.7345
 327  786.5204
 328  780.3818
 329  959.3836
 330  1021.325
 331  1008.001
 332  770.1116
 333  836.7946
 334  944.241
 335  775.6563
 336  808.2104
 337  881.5659
 338  971.7371
 339  1059.626
 340  1089.54
 341  1027
 342  872.6688
 343  796.2244
 344  980.3909
 345  772.4573
 346  871.1301
 347  447.3174
 348  396.5028
 349  24.04377
 350  -27.80529
 351  -10.60899
 352  -3.758293
 353  -89.26479
 354  -94.10069
 355  43.77612
 356  57.51375
 357  -38.20707
 358  238.6166
 359  241.0637
 360  341.1681
 361  363.1324
 362  580.1768
 363  826.5267
 364  929.7735
 365  789.1165
 366  451.9223
 367  394.3531
 368  403.9588
 369  295.3542
 370  332.1196
 371  335.1351
 372  496.3843
 373  695.5076
 374  547.7679
 375  456.6053
 376  475.9259
 377  483.4775
 378  511.1317
 379  350.0234
 380  341.5963
 381  155.1022
 382  360.5422
 383  583.7974
 384  790.5569
 385  754.9684
 386  547.2707
 387  358.073
 388  602.1097
 389  650.7366
 390  735.4407
 391  786.9481
 392  650.7123
 393  335.2266
 394  311.4836
 395  401.2862
 396  464.4962
 397  548.2567
 398  550.2245
 399  441.9109
 400  595.398
 401  788.9547
 402  838.1524
 403  721.3897
 404  426.0619
 405  414.277
 406  492.1045
 407  784.8261
 408  753.2374
 409  707.899
 410  649.9077
 411  564.972
 412  568.3494
 413  748.0331
 414  815.5603
 415  728.0931
 416  751.6235
 417  675.6882
 418  722.8431
 419  663.9677
 420  654.1696
 421  722.9072
 422  680.6952
 423  707.8037
 424  938.9647
 425  831.6168
 426  761.5809
 427  830.2474
 428  945.1524
 429  879.4326
 430  954.4282
 431  1326.488
 432  1408.473
 433  1218.131
 434  1129.5
 435  1118.376
 436  1171.409
 437  1352.759
 438  1578.773
 439  1356.782
 440  1194.105
 441  1191.072
 442  1132.474
 443  939.9846
 444  922.6136
 445  1222.227
 446  1345.295
 447  1197.351
 448  1109.02
 449  1262.86
 450  1762.698
 451  1715.149
 452  1672.088
 453  1723.597
 454  1782.633
 455  1672.125
 456  1366.917
 457  1127.825
 458  780.5492
 459  674.3428
 460  546.9767
 461  578.084
 462  613.51
 463  703.9957
 464  630.8544
 465  661.6308
 466  677.1001
 467  621.2241
 468  663.1146
 469  682.9622
 470  568.9652
 471  677.4604
 472  754.4789
 473  854.447
 474  748.2698
 475  626.0239
 476  574.2283
 477  521.8945
 478  575.4084
 479  879.062
 480  816.5328
 481  619.1649
 482  393.1049
 483  225.8853
 484  415.1319
 485  680.6346
 486  822.803
 487  992.223
 488  854.4461
 489  722.6985
 490  870.3815
 491  1307.174
 492  1468.383
 493  1235.546
 494  688.3856
 495  715.2556
 496  821.559
 497  1188.087
 498  1245.374
 499  979.771
 500  570.6632
 501  637.2333
 502  964.4812
 503  1204.53
 504  1129.611
 505  962.5225
 506  1033.432
 507  768.8323
 508  800.1498
 509  877.0206
 510  844.3047
 511  788.9288
 512  829.0476
 513  706.1385
 514  557.0833
 515  292.0993
 516  290.9272
 517  379.0109
 518  642.8641
 519  883.876
 520  897.6335
 521  707.3438
 522  495.1952
 523  569.0773
 524  931.3846
 525  1041.808
 526  1129.25
 527  1182.056
 528  1328.14
 529  1452.893
 530  1671.831
 531  1690.085
 532  1665.156
 533  1804.428
 534  1675.657
 535  1498.923
 536  1474.926
 537  1500.184
 538  1362.355
 539  1306.779
 540  1387.184
 541  1554.595
 542  1572.897
 543  1559.805
 544  1412.905
 545  1378.345
 546  1331.435
 547  1409.21
 548  1298.696
 549  978.8077
 550  462.6312
 551  378.2404
 552  552.6102
 553  794.6777
 554  800.7137
 555  814.3192
 556  853.3881
 557  713.4698
 558  615.7296
 559  550.787
 560  582.1616
 561  728.5027
 562  920.9724
 563  819.1801
 564  724.1804
 565  826.716
 566  904.6053
 567  897.3991
 568  961.5369
 569  1088.892
 570  1019.981
 571  866.8661
 572  842.8812
 573  773.8125
 574  881.3596
 575  1073.824
 576  1100.758
 577  1077.856
 578  1062.086
 579  1059.017
 580  865.3288
 581  869.3984
 582  935.691
 583  1178.814
 584  1443.837
 585  1594.446
 586  1295.35
 587  1227.86
 588  1158.093
 589  1183.801
 590  1166.691
 591  1405.704
 592  1419.795
 593  1428.473
 594  1448.149
 595  1465.233
 596  1440.356
 597  1445.21
 598  1695.292
 599  1667.959
 600  1710.511
 601  1603.433
 602  1570.619
 603  1641.342
 604  1519.493
 605  1435.858
 606  1560.658
 607  1559.122
 608  1545.095
 609  1575.416
 610  1789.471
 611  2022.006
 612  1902.271
 613  1736.606
 614  1329.333
 615  1445.191
 616  1442.631
 617  1473.049
 618  1368.144
 619  1407.663
 620  1337.891
 621  1419.188
 622  1411.021
 623  1574.333
 624  1490.729
 625  1474.993
 626  1232.862
 627  1504.52
 628  1842.026
 629  1851.836
 630  1795.827
 631  1335.236
 632  1172.998
 633  938.761
 634  1187.883
 635  1034.34
 636  930.2766
 637  942.6094
 638  825.1898
 639  846.9177
 640  948.4232
 641  1169.219
 642  1365.191
 643  1485.012
 644  1431.877
 645  1476.754
 646  1646.596
 647  1640.67
 648  1581.202
 649  1278.438
 650  1288.44
 651  1153.887
 652  1264.702
 653  1196.342
 654  1168.688
 655  828.5745
 656  988.1033
 657  1019.269
 658  1051.603
 659  1086.975
 660  1255.223
 661  1286.977
 662  943.5359
 663  839.9384
 664  921.1426
 665  1113.846
 666  1265.877
 667  1287.46
 668  1247.646
 669  1090.22
 670  1168.309
 671  1348.581
 672  1888.554
 673  1899.039
 674  1756.104
 675  1603.439
 676  1575.899
 677  1877.771
 678  1798.101
 679  1644.816
 680  1099.258
 681  1061.55
 682  1168.642
 683  1474.892
 684  1581.071
 685  1427.403
 686  888.3666
 687  808.411
 688  1063.46
 689  1289.254
 690  1294.888
 691  1316.427
 692  1390.978
 693  1412.283
 694  1483.414
 695  1499.476
 696  1594.569
 697  1197.773
 698  1104.639
 699  1116.262
 700  1175.779
 701  1105.012
 702  1268.145
 703  1239.016
 704  1422.076
 705  1416.078
 706  1342.53
 707  1477.462
 708  1328.416
 709  1329.425
 710  1235.547
 711  1306.746
 712  1450.66
 713  1643.849
 714  1686.691
 715  1541.579
 716  1292.867
 717  1208.632
 718  1354.573
 719  1376.645
 720  1152.63
 721  926.6358
 722  797.0438
 723  900.8015
 724  1038.689
 725  1188.627
 726  1181.18
 727  1170.669
 728  1072.448
 729  1031.608
 730  959.0446
 731  1156.449
 732  1325.06
 733  1386.192
 734  1603.717
 735  1819.567
 736  1934.187
 737  1990.14
 738  1944.786
 739  1959.31
 740  1981.956
 741  2012.84
 742  1812.48
 743  1892.789
 744  1779.053
 745  1750.394
 746  1464.373
 747  1263.638
 748  1512.405
 749  1739.431
 750  1978.924
 751  1858.883
 752  1810.35
 753  1787.423
 754  1856.204
 755  1976.914
 756  2170.064
 757  1972.037
 758  1812.58
 759  1497.195
 760  1324.341
 761  1145.355
 762  1111.458
 763  986.0931
 764  1085.191
 765  906.4204
 766  857.9109
 767  728.1761
 768  732.8793
 769  858.2355
 770  876.2535
 771  1004.384
 772  649.0162
 773  720.3904
 774  768.7369
 775  848.5252
 776  801.7542
 777  838.451
 778  701.4588
 779  676.5219
 780  785.4622
 781  978.4082
 782  1148.837
 783  1509.204
 784  1498.096
 785  1544.015
 786  1242.203
 787  1268.697
 788  1335.548
 789  1410.9
 790  1195.816
 791  956.5645
 792  986.748
 793  1123.745
 794  1104.184
 795  1304.589
 796  1621.209
 797  1699.5
 798  1678.944
 799  1531.507
 800  1188.332
 801  1008.518
 802  891.7136
 803  1109.301
 804  1191.64
 805  1037.962
 806  926.702
 807  1226.718
 808  1639.773
 809  1542.555
 810  1393.87
 811  1334.492
 812  1123.302
 813  1024.962
 814  961.8928
 815  964.8403
 816  1049.664
 817  1151.544
 818  1290.183
 819  1338.237
 820  1494.605
 821  1523.887
 822  1446.468
 823  1099.007
 824  1075.616
 825  1163.301
 826  1368.438
 827  1268.875
 828  1359.46
 829  1296.32
 830  1267.366
 831  1324.942
 832  1333.138
 833  1271.222
 834  1249.744
 835  1210.512
 836  1398.257
 837  1442.636
 838  1535.573
 839  1358.787
 840  1237.493
 841  1154.761
 842  1201.432
 843  1178.847
 844  1247.886
 845  1216.028
 846  1209.036
 847  1182.457
 848  1145.101
 849  1253.758
 850  1240.105
 851  1225.163
 852  1271.983
 853  1381.782
 854  1659.803
 855  1763.146
 856  1636.228
 857  1450.226
 858  1416.675
 859  1429.826
 860  1098.038
 861  818.6392
 862  664.7742
 863  475.8473
 864  431.6115
 865  506.7879
 866  792.7933
 867  810.8636
 868  711.4016
 869  396.9409
 870  379.1519
 871  223.0848
 872  253.5498
 873  386.5366
 874  486.9042
 875  378.2449
 876  311.5631
 877  244.4124
 878  317.2169
 879  332.2481
 880  359.8871
 881  296.8793
 882  188.7013
 883  195.317
 884  178.888
 885  257.0446
 886  370.0666
 887  422.0226
 888  464.4397
 889  598.813
 890  642.8372
 891  578.5804
 892  491.5896
 893  590.8901
 894  898.9857
 895  1065.067
 896  975.9344
 897  802.3751
 898  716.752
 899  785.989
 900  817.219
 901  886.5343
 902  761.4366
 903  1030.107
 904  1397.246
 905  1540.462
 906  1205.006
 907  843.452
 908  858.3652
 909  910.6232
 910  734.9769
 911  417.7555
 912  647.8622
 913  805.8854
 914  961.2941
 915  927.0974
 916  865.3064
 917  887.4771
 918  855.2903
 919  1149.281
 920  1169.475
 921  1269.584
 922  1519.546
 923  1694.869
 924  1569.24
 925  1645.502
 926  1585.292
 927  1653.205
 928  1616.745
 929  1673.565
 930  1735.681
 931  1722.097
 932  1665.037
 933  1563.044
 934  1406.241
 935  1412.011
 936  1221.429
 937  902.11
 938  931.4304
 939  887.0439
 940  764.475
 941  671.8737
 942  514.3764
 943  757.0524
 944  832.5934
 945  899.0276
 946  792.5316
 947  776.877
 948  751.5959
 949  819.1345
 950  578.5092
 951  525.216
 952  502.9452
 953  622.6729
 954  605.2203
 955  534.934
 956  668.1082
 957  674.602
 958  555.8779
 959  767.4213
 960  852.0919
 961  722.2789
 962  705.3387
 963  828.122
 964  1103.466
 965  1214.609
 966  1301.882
 967  1125.736
 968  1024.723
 969  1076.518
 970  1185.721
 971  1322.722
 972  1364.913
 973  1409.082
 974  1589.863
 975  1693.459
 976  1455.37
 977  1196.008
 978  1262.713
 979  1237.718
 980  1189.727
 981  1107.428
 982  1072.203
 983  859.327
 984  791.0924
 985  661.2867
 986  698.1669
 987  708.6275
 988  1025.214
 989  1196.575
 990  985.5922
 991  804.2148
 992  855.2033
 993  915.4036
 994  863.8328
 995  848.407
 996  999.6813
 997  985.0015
 998  959.5458
 999  1012.839
1000  1098.652
1001  1142.994
1002  1242.755
1003  1026.951
1004  946.1223
1005  876.2695
1006  991.2565
1007  1149.054
1008  1419.483
1009  1237.297
1010  1221.795
1011  1485.812
1012  1543.307
1013  1537.699
1014  1409.897
1015  1225.643
1016  1195.532
1017  737.5051
1018  801.6984
1019  879.0703
1020  1013.611
1021  988.9474
1022  1021.47
1023  1192.006
