# Input file       =  1181700809.115506_cleaned.dat
# Candidate        =  PSR_0332+5434
# Telescope        =  AR
# Epoch_topo       =  57921.092918003538
# Epoch_bary       =  N/A
# T_sample         =  0.002
# Data Folded      =  7208960
# Data Avg         =  0.16535883681764 
# Data StdDev      =  6.90606565473542 
# Profile Bins     =  1024
# Profile Avg      =  1164.1259144844  
# Profile StdDev   =  579.45142117844  
# Reduced chi-sqr  =  0.413
# Prob(Noise)      <  1   (~0.0 sigma)
# P_topo (ms)      =  714.501305761773  +/- 4.98e-05
# P'_topo (s/s)    =  -0                +/- 2.68e-11
# P''_topo (s/s^2) =  0                 +/- 1.2e-14
# P_bary (ms)      =  N/A
# P'_bary (s/s)    =  N/A
# P''_bary (s/s^2) =  N/A
# P_orb (s)        =  N/A
# asin(i)/c (s)    =  N/A
# eccentricity     =  N/A
# w (rad)          =  N/A
# T_peri           =  N/A
######################################################
   0  1270.171
   1  1392.684
   2  965.8576
   3  1000.94
   4  904.7336
   5  989.7792
   6  1059.749
   7  1205.826
   8  1405.357
   9  1419.222
  10  1264.712
  11  1161.756
  12  1207.082
  13  1182.064
  14  1195.519
  15  1278.596
  16  1253.78
  17  1335.221
  18  1032.829
  19  967.5053
  20  1092.312
  21  1226.781
  22  1281.301
  23  1216.118
  24  1077.823
  25  996.6752
  26  1008.433
  27  1030.004
  28  1159.644
  29  1037.328
  30  1031.554
  31  825.0437
  32  871.0888
  33  1076.638
  34  1021.09
  35  992.026
  36  1130.777
  37  1264.32
  38  1329.849
  39  1164.611
  40  1083.822
  41  1246.78
  42  1361.114
  43  1129.327
  44  1124.871
  45  1039.789
  46  1121.67
  47  1178.7
  48  1047.066
  49  1314.234
  50  1215.673
  51  1071.684
  52  1001.411
  53  758.6053
  54  969.2089
  55  941.1901
  56  1021.715
  57  1283.14
  58  1326.03
  59  1285.756
  60  1396.037
  61  1308.617
  62  1249.514
  63  992.0386
  64  867.2584
  65  1089.956
  66  1092.653
  67  1193.623
  68  1329.149
  69  1157.212
  70  1106.476
  71  1144.163
  72  921.4188
  73  1053.342
  74  909.9566
  75  1108.307
  76  1222.806
  77  1212.665
  78  1445.452
  79  1491.058
  80  1539.693
  81  1522.276
  82  1352.116
  83  1352.981
  84  1296.408
  85  1239.159
  86  1286.621
  87  1283.391
  88  998.1099
  89  808.0833
  90  881.9237
  91  1044.213
  92  1142.381
  93  1200.529
  94  1269.535
  95  1440.948
  96  1284.131
  97  1271.134
  98  1069.108
  99  1016.973
 100  985.1284
 101  1010.154
 102  1066.213
 103  1124.977
 104  1079.052
 105  1123.938
 106  1325.485
 107  1429.753
 108  1309.459
 109  1048.686
 110  848.8221
 111  875.6252
 112  997.8893
 113  983.4216
 114  1157.975
 115  1122.143
 116  1324.614
 117  1242.634
 118  1051.572
 119  1198.447
 120  1266.212
 121  1305.774
 122  1414.072
 123  1276.851
 124  1236.466
 125  1099.391
 126  979.8899
 127  1055.02
 128  974.9265
 129  955.7671
 130  1057.669
 131  958.6197
 132  1101.078
 133  1131.784
 134  1141.763
 135  1112.187
 136  1035.075
 137  1054.965
 138  1030.639
 139  951.4437
 140  1060.412
 141  1144.991
 142  978.7864
 143  1172.855
 144  1218.123
 145  1023.683
 146  1067.583
 147  986.2424
 148  1314.632
 149  1185.718
 150  1158.466
 151  1357.308
 152  1246.114
 153  1231.077
 154  1155.458
 155  1171.421
 156  1234.649
 157  1299.937
 158  1099.804
 159  1194.218
 160  959.8506
 161  904.8721
 162  890.1519
 163  1020.168
 164  1223.787
 165  1139.085
 166  883.4022
 167  852.308
 168  795.3177
 169  952.4709
 170  1110.48
 171  1194.664
 172  1258.465
 173  1205.172
 174  893.7643
 175  1046.29
 176  1106.366
 177  1244.104
 178  1040.592
 179  870.4037
 180  948.528
 181  1097.674
 182  963.2008
 183  1014.333
 184  1103.034
 185  1162.787
 186  1008.775
 187  1046.214
 188  1100.181
 189  1362.859
 190  1311.172
 191  1306.294
 192  1203.846
 193  1201.489
 194  1178.192
 195  1032.535
 196  671.0292
 197  698.6557
 198  722.4511
 199  980.1035
 200  1144.62
 201  1137.07
 202  1248.785
 203  1184.182
 204  1182.945
 205  1308.005
 206  1385.105
 207  1280.591
 208  1232.502
 209  1203.407
 210  1214.222
 211  1098.04
 212  920.0029
 213  1152.217
 214  1239.474
 215  1074.382
 216  1163.599
 217  970.4129
 218  1068.425
 219  1078.794
 220  1072.167
 221  1476.478
 222  1387.089
 223  1384.386
 224  1303.001
 225  901.9059
 226  991.8192
 227  988.5457
 228  1074.467
 229  1174.299
 230  1159.324
 231  1256.635
 232  1287.269
 233  1128.359
 234  1041.909
 235  949.5513
 236  905.6262
 237  1095.455
 238  958.8561
 239  1001.148
 240  1117.9
 241  1009.067
 242  1200.101
 243  1350.28
 244  1288.515
 245  1281.668
 246  1005.866
 247  1046.312
 248  1105.848
 249  1248.084
 250  1368.248
 251  1144.897
 252  930.8972
 253  805.5627
 254  816.9828
 255  771.663
 256  995.2565
 257  1034.984
 258  1335.687
 259  1249.782
 260  994.2111
 261  827.1048
 262  781.3517
 263  925.233
 264  993.0117
 265  1070.008
 266  1294.966
 267  1253.638
 268  988.3741
 269  988.5358
 270  1089.582
 271  1272.166
 272  1276.166
 273  1240.953
 274  1254.795
 275  1104.937
 276  1027.935
 277  1022.011
 278  1021.69
 279  1060.145
 280  1099.627
 281  1157.385
 282  966.0243
 283  856.5406
 284  861.0802
 285  939.8685
 286  1171.714
 287  1241.864
 288  1326.833
 289  1262.038
 290  1108.185
 291  1298.306
 292  1372.135
 293  1072.154
 294  1141.589
 295  1147.848
 296  1350.915
 297  1132.832
 298  1098.736
 299  1423.541
 300  1385.259
 301  1207.251
 302  1193.176
 303  1079.513
 304  1220.195
 305  1311.915
 306  1440.122
 307  1510.126
 308  1250.784
 309  1107.344
 310  1235.59
 311  1020.821
 312  1016.398
 313  991.1457
 314  992.9169
 315  1323.867
 316  1467.436
 317  1582.459
 318  1522.115
 319  1128.099
 320  1382.02
 321  1409.786
 322  1343.211
 323  1277.767
 324  1087.456
 325  1027.669
 326  888.1194
 327  842.6601
 328  1080.318
 329  1202.977
 330  1212.376
 331  1381.991
 332  1273.994
 333  1063.945
 334  1071.202
 335  1118.899
 336  1430.265
 337  1489.508
 338  1356.974
 339  1397.873
 340  1233.106
 341  1236.255
 342  976.6141
 343  922.6036
 344  1016.995
 345  1105.783
 346  965.2729
 347  1120.658
 348  1031.074
 349  1130.865
 350  1009.173
 351  1137.293
 352  1199.363
 353  1234.145
 354  1158.06
 355  1086.489
 356  1136.504
 357  1295.019
 358  1351.777
 359  1211.355
 360  1059.042
 361  1099.129
 362  1071.116
 363  967.3164
 364  930.4233
 365  949.7932
 366  1055.997
 367  1132.246
 368  1041.392
 369  1086.514
 370  1030.853
 371  1151.363
 372  1321.25
 373  1321.188
 374  1361.936
 375  1225.618
 376  1244.823
 377  1354.18
 378  1259.116
 379  1123.973
 380  1327.949
 381  1186.956
 382  1097.914
 383  932.6204
 384  1030.805
 385  1129.511
 386  1053.41
 387  1044.365
 388  1347.084
 389  1387.068
 390  1482.893
 391  1270.233
 392  1030.248
 393  1155.557
 394  1227.932
 395  1214.107
 396  1274.106
 397  1073.019
 398  1233.036
 399  1205.674
 400  976.7862
 401  896.5333
 402  686.1634
 403  704.5579
 404  825.5104
 405  804.4758
 406  1063.412
 407  1147.353
 408  1175.543
 409  1257.668
 410  1213.313
 411  1076.626
 412  1085.992
 413  920.4655
 414  1082.158
 415  981.6174
 416  764.8576
 417  861.8892
 418  787.343
 419  831.5311
 420  883.3279
 421  823.5923
 422  1044.487
 423  991.7269
 424  923.1948
 425  877.1674
 426  724.3594
 427  757.9136
 428  869.4913
 429  1148.792
 430  1427.909
 431  1378.96
 432  1184.774
 433  1196.578
 434  1156.221
 435  1184.916
 436  1132.469
 437  1188.87
 438  1001.441
 439  983.5797
 440  758.6313
 441  738.2248
 442  686.8316
 443  855.4418
 444  1067.02
 445  1030.309
 446  993.8907
 447  960.552
 448  837.0573
 449  876.7747
 450  989.3956
 451  1241.576
 452  1201.461
 453  1118.011
 454  986.1767
 455  1078.885
 456  1031.598
 457  978.9285
 458  1127.649
 459  1149.485
 460  1053.932
 461  776.7552
 462  582.3358
 463  828.3656
 464  1033.783
 465  1024.992
 466  1197.265
 467  1129.154
 468  1199.95
 469  1176.83
 470  1039.158
 471  1267.318
 472  1163.468
 473  964.4124
 474  812.9718
 475  615.7288
 476  609.1989
 477  808.8325
 478  1054.114
 479  1335.455
 480  1133.136
 481  1002.209
 482  1148.221
 483  959.1659
 484  1042.911
 485  1026.026
 486  924.8088
 487  928.36
 488  812.9913
 489  700.8178
 490  785.4659
 491  759.2968
 492  1075.958
 493  1053.684
 494  874.2741
 495  1077.526
 496  1127.658
 497  1153.267
 498  1126.189
 499  1018.884
 500  1210.996
 501  1153.504
 502  1061.142
 503  1114.742
 504  1083.825
 505  1069.145
 506  1083.196
 507  1220.202
 508  1474.917
 509  1457.569
 510  1207.294
 511  1120.976
 512  984.579
 513  1214.51
 514  1589.01
 515  1750.652
 516  1727.647
 517  1625.795
 518  1446.18
 519  1533.209
 520  1447.062
 521  1377.156
 522  1218.653
 523  1208.117
 524  1355.849
 525  1288.486
 526  1165.742
 527  1091.66
 528  1199.123
 529  1336.882
 530  1206.647
 531  1283.02
 532  1198.512
 533  1330.945
 534  1160.52
 535  1256.415
 536  1531.652
 537  1568.058
 538  1619.023
 539  1479.887
 540  1383.19
 541  1368.153
 542  1320.608
 543  1415.98
 544  1453.8
 545  1257.699
 546  1324.191
 547  1435.454
 548  1447.812
 549  1497.827
 550  1361.729
 551  1244.341
 552  1421.049
 553  1337.962
 554  1351.867
 555  1219.832
 556  1164.896
 557  1277.526
 558  1316.108
 559  1214.788
 560  1404.116
 561  1327.565
 562  1542.132
 563  1545.209
 564  1562.521
 565  1927.871
 566  1867.393
 567  1727.661
 568  1506.993
 569  1186.017
 570  1362.676
 571  1359.916
 572  1292.51
 573  1390.145
 574  1277.212
 575  980.2262
 576  1054.973
 577  994.8116
 578  1260.736
 579  1281.13
 580  1365.08
 581  1582.766
 582  1505.263
 583  1393.279
 584  1509.295
 585  1548.804
 586  1646.245
 587  1531.046
 588  1264.809
 589  1385.258
 590  1248.848
 591  1152.994
 592  1224.365
 593  1108.756
 594  1330.721
 595  1208.758
 596  1086.196
 597  1090.548
 598  1115.256
 599  1202.167
 600  1044.147
 601  1009.985
 602  1341.134
 603  1457.295
 604  1173.239
 605  935.986
 606  1093.972
 607  1214.055
 608  1217.712
 609  1090.886
 610  1334.303
 611  1484.983
 612  1222.478
 613  1109.18
 614  1267.027
 615  1338.25
 616  1397.638
 617  1397.013
 618  1419.333
 619  1183.454
 620  868.2344
 621  792.2535
 622  841.9045
 623  760.269
 624  825.1311
 625  809.4631
 626  909.7369
 627  1121.489
 628  1073.906
 629  1078.104
 630  1188.102
 631  1316.298
 632  1236.219
 633  1065.182
 634  906.5911
 635  1069.226
 636  939.6227
 637  755.3409
 638  893.8349
 639  899.8068
 640  1030.295
 641  1021.581
 642  1135.595
 643  1244.437
 644  1417.366
 645  1451.25
 646  1648.079
 647  1373.094
 648  1546.176
 649  1604.421
 650  1454.612
 651  1501.114
 652  1526.516
 653  1432.722
 654  1474.734
 655  1388.852
 656  1463.844
 657  1348.064
 658  1297.723
 659  1692.382
 660  1560.336
 661  1123.715
 662  1003.684
 663  786.2211
 664  1026.667
 665  932.9233
 666  1025.953
 667  1227.895
 668  1044.466
 669  1176.836
 670  1223.541
 671  1273.101
 672  1216.971
 673  1149.125
 674  1046.546
 675  973.7011
 676  899.1059
 677  892.741
 678  1050.892
 679  1096.681
 680  1254.983
 681  1452.057
 682  1208.927
 683  1163.768
 684  1073.45
 685  1328.815
 686  1394.167
 687  1170.743
 688  1032.364
 689  1045.568
 690  967.1748
 691  1093.76
 692  1094.37
 693  1210.894
 694  1167.977
 695  1242.845
 696  1258.733
 697  1302.366
 698  1110.583
 699  1074.567
 700  1115.4
 701  1214.811
 702  1204.058
 703  1185.476
 704  1119.216
 705  1125.653
 706  968.6077
 707  920.6755
 708  1054.599
 709  1020.45
 710  1117.749
 711  1059.027
 712  1073.762
 713  1102.107
 714  1246.091
 715  1301.345
 716  1609.863
 717  1551.571
 718  1532.949
 719  1500.793
 720  1513.005
 721  1538.793
 722  1281.409
 723  987.9235
 724  1139.258
 725  1135.067
 726  1247.671
 727  1260.995
 728  1187.94
 729  1525.909
 730  1549.912
 731  1466.304
 732  1562.913
 733  1264.07
 734  1189.752
 735  1036.436
 736  1252.471
 737  1421.616
 738  1191.626
 739  1024.731
 740  1189.468
 741  1085.508
 742  1172.879
 743  1290.138
 744  1297.966
 745  1472.611
 746  1351.118
 747  1143.74
 748  1081.588
 749  1029.97
 750  1285.307
 751  1338.313
 752  1210.89
 753  1324.62
 754  1349.168
 755  1316.219
 756  1153.244
 757  1047.148
 758  1230.89
 759  1169.29
 760  1063.043
 761  1158.309
 762  1057.923
 763  1074.533
 764  1332.631
 765  1647.894
 766  1704.801
 767  1372.043
 768  1096.401
 769  1199.702
 770  1244.748
 771  1130.941
 772  882.2075
 773  947.0632
 774  1021.936
 775  1144.586
 776  929.1959
 777  1108.852
 778  1171.33
 779  1245.192
 780  1066.435
 781  1005.466
 782  1130.207
 783  1284.516
 784  1255.134
 785  1236.139
 786  1340.632
 787  1463.084
 788  1506.342
 789  1516.027
 790  1417.376
 791  1230.128
 792  1078.163
 793  1315.619
 794  1484.517
 795  1562.087
 796  1640.613
 797  1659.686
 798  1452.161
 799  1316.221
 800  1308.839
 801  1344.62
 802  1706.366
 803  1692.213
 804  1602.228
 805  1216.962
 806  1003.854
 807  1247.721
 808  1289.709
 809  1350.051
 810  1387.994
 811  1228.996
 812  1127.8
 813  1251.913
 814  1515.398
 815  1840.253
 816  1605.44
 817  1321.299
 818  1488.892
 819  1414.081
 820  1455.083
 821  1173.859
 822  1170.472
 823  1241.877
 824  1167.183
 825  1067.171
 826  1279.734
 827  1010.678
 828  910.037
 829  929.3049
 830  850.3935
 831  1198.706
 832  1103.029
 833  1249.526
 834  1218.38
 835  1010.313
 836  1271.657
 837  1200.259
 838  1178.46
 839  1101.086
 840  997.8202
 841  918.8782
 842  889.6677
 843  921.854
 844  1067.277
 845  1151.435
 846  1101.263
 847  1332.843
 848  1394.422
 849  1284.032
 850  1281.518
 851  1310.028
 852  1637.584
 853  1586.775
 854  1222.226
 855  1152.608
 856  1081.816
 857  1236.43
 858  1241.712
 859  1089.627
 860  1208.962
 861  1194.847
 862  1179.635
 863  1326.61
 864  1352.005
 865  1469.563
 866  1355.937
 867  1548.407
 868  1667.18
 869  1572.889
 870  1306.713
 871  1180.204
 872  1398.902
 873  1485.794
 874  1501.619
 875  1291.029
 876  1099.891
 877  1091.51
 878  1111.696
 879  1125.528
 880  1308.808
 881  1610.693
 882  1590.407
 883  1429.568
 884  1194.51
 885  1367.691
 886  1225.014
 887  1217.538
 888  1407.889
 889  1302.305
 890  1078.922
 891  813.2322
 892  749.5629
 893  981.3475
 894  1090.28
 895  1047.86
 896  1171.614
 897  917.7703
 898  1058.277
 899  1014.759
 900  923.9276
 901  1123.265
 902  1249.191
 903  1293.984
 904  1403.235
 905  883.7164
 906  974.9519
 907  844.4181
 908  1100.755
 909  1307.104
 910  1305.766
 911  1101.675
 912  1042.904
 913  830.5764
 914  942.9583
 915  841.8754
 916  874.4646
 917  1043.275
 918  1015.671
 919  819.4692
 920  918.6398
 921  855.725
 922  915.2112
 923  896.238
 924  743.5177
 925  1009.842
 926  976.8093
 927  974.1323
 928  1120.704
 929  1029.391
 930  1203.646
 931  1047.449
 932  863.3424
 933  910.0739
 934  654.0312
 935  613.2788
 936  710.8829
 937  928.2112
 938  1124.102
 939  1071.428
 940  967.4801
 941  952.8978
 942  1038.523
 943  1038.228
 944  1019.674
 945  1025.759
 946  1157.017
 947  1265.892
 948  1174.374
 949  1167.488
 950  1201.245
 951  1107.025
 952  1013.874
 953  895.6179
 954  973.9227
 955  1252.896
 956  1245.968
 957  1186.264
 958  1080.025
 959  1067.381
 960  1196.585
 961  982.5493
 962  784.5345
 963  793.7403
 964  964.5389
 965  1016.524
 966  1226.069
 967  1161.08
 968  1178.171
 969  1017.888
 970  1046.9
 971  1303.937
 972  1235.134
 973  1092.626
 974  1239.246
 975  1265.664
 976  1236.602
 977  1032.933
 978  771.6834
 979  850.2621
 980  865.8306
 981  1078.39
 982  1419.489
 983  1314.71
 984  1452.626
 985  1228.017
 986  1043.258
 987  1066.774
 988  992.0622
 989  960.0875
 990  958.1199
 991  857.5494
 992  888.5999
 993  938.72
 994  1041.059
 995  1211.211
 996  1305.566
 997  1308.439
 998  1608.753
 999  1527.863
1000  1681.068
1001  1642.757
1002  1377.667
1003  1545.068
1004  1294.561
1005  1105.728
1006  1107.796
1007  1049.07
1008  1386.557
1009  1355.81
1010  1279.939
1011  1333.877
1012  1245.585
1013  1227.184
1014  1347.102
1015  1350.268
1016  1519.438
1017  1540.016
1018  1431.004
1019  1345.052
1020  943.9342
1021  800.0454
1022  773.9907
1023  1094.348
