# Input file       =  1181558042.121278_cleaned.dat
# Candidate        =  PSR_0332+5434
# Telescope        =  AR
# Epoch_topo       =  57919.440522237011
# Epoch_bary       =  N/A
# T_sample         =  0.002
# Data Folded      =  7340032
# Data Avg         =  0.150773626346823
# Data StdDev      =  4.87763243983825 
# Profile Bins     =  1024
# Profile Avg      =  1080.80926980286 
# Profile StdDev   =  412.960077522983 
# Reduced chi-sqr  =  0.990
# Prob(Noise)      <  0.587   (~0.0 sigma)
# P_topo (ms)      =  714.503170223622  +/- 0.0001
# P'_topo (s/s)    =  -0                +/- 5.3e-11
# P''_topo (s/s^2) =  0                 +/- 2.34e-14
# P_bary (ms)      =  N/A
# P'_bary (s/s)    =  N/A
# P''_bary (s/s^2) =  N/A
# P_orb (s)        =  N/A
# asin(i)/c (s)    =  N/A
# eccentricity     =  N/A
# w (rad)          =  N/A
# T_peri           =  N/A
######################################################
   0  986.6544
   1  959.9634
   2  1028.318
   3  1031.501
   4  1067.688
   5  790.5807
   6  796.0629
   7  895.7457
   8  963.3384
   9  937.0875
  10  796.3933
  11  727.2957
  12  586.3
  13  633.2034
  14  718.0261
  15  691.8474
  16  809.771
  17  965.6493
  18  1090.383
  19  1142.408
  20  1072.403
  21  893.6188
  22  678.6838
  23  696.9358
  24  806.2418
  25  930.1595
  26  988.5581
  27  1069.579
  28  1019.792
  29  928.061
  30  869.9258
  31  801.7424
  32  773.0987
  33  805.0405
  34  892.3307
  35  980.5178
  36  1103.777
  37  1163.831
  38  1051.858
  39  825.8721
  40  785.5823
  41  874.1119
  42  886.6022
  43  872.6349
  44  952.0571
  45  988.3124
  46  963.5626
  47  911.0519
  48  852.7085
  49  757.2469
  50  617.5833
  51  704.9396
  52  850.5107
  53  925.4914
  54  803.8207
  55  868.2644
  56  1014.781
  57  1136.916
  58  1170.188
  59  1138.609
  60  1210.524
  61  1243.177
  62  1268.288
  63  1232.874
  64  1081.561
  65  972.4844
  66  1033.411
  67  1074.504
  68  1162.911
  69  1142.582
  70  1175.604
  71  1126.696
  72  1106.227
  73  1245.62
  74  1269.929
  75  1243.751
  76  1153.745
  77  1011.391
  78  1091.987
  79  1205.003
  80  1400.371
  81  1485.748
  82  1509.974
  83  1556.333
  84  1382.464
  85  1343.712
  86  1235.791
  87  1200.646
  88  1148.042
  89  1052.958
  90  1171.952
  91  1210.104
  92  1300.299
  93  1257.833
  94  1277.633
  95  1259.555
  96  1260.681
  97  1306.735
  98  1205.395
  99  1112.624
 100  969.5684
 101  911.4808
 102  884.7048
 103  1017.904
 104  1175.451
 105  1118.255
 106  1145.511
 107  1027.382
 108  1043.423
 109  1065.679
 110  1082.366
 111  1155.214
 112  1147.292
 113  1252.272
 114  1144.599
 115  1096.389
 116  982.9905
 117  1025.873
 118  1046.326
 119  1105.927
 120  1025.501
 121  1042.954
 122  1106.776
 123  1317.35
 124  1343.206
 125  1289.897
 126  1108.227
 127  925.6479
 128  757.1509
 129  793.6606
 130  948.9376
 131  1081.277
 132  1134.688
 133  1148.624
 134  1115.258
 135  1158.552
 136  1107.329
 137  1043.595
 138  948.962
 139  994.728
 140  1081.397
 141  1211.212
 142  1208.618
 143  1301.052
 144  1239.07
 145  1247.917
 146  1247.557
 147  1131.746
 148  1139.245
 149  1266.254
 150  1404.848
 151  1457.794
 152  1388.445
 153  1363.467
 154  1309.892
 155  1223.748
 156  1195.109
 157  1202.647
 158  1135.09
 159  1182.899
 160  1217.396
 161  1300.659
 162  1235.418
 163  1209.504
 164  1090.87
 165  1133.452
 166  1115.47
 167  1268.519
 168  1218.329
 169  1218.038
 170  1220.349
 171  1313.661
 172  1344.11
 173  1258.194
 174  1199.451
 175  974.2215
 176  951.2746
 177  903.9009
 178  975.1018
 179  984.7231
 180  988.3506
 181  955.1064
 182  937.6758
 183  774.7692
 184  739.7448
 185  687.4411
 186  859.1807
 187  866.3372
 188  872.5317
 189  848.8397
 190  742.2319
 191  766.0547
 192  734.0857
 193  728.278
 194  685.6437
 195  753.6852
 196  762.0314
 197  637.0665
 198  687.8731
 199  832.2841
 200  987.0306
 201  967.2493
 202  969.4266
 203  894.6711
 204  861.6566
 205  758.6375
 206  726.034
 207  788.1973
 208  907.5184
 209  850.796
 210  828.8374
 211  783.3791
 212  770.3632
 213  636.4835
 214  681.0535
 215  830.3934
 216  1025.913
 217  1052.881
 218  916.1985
 219  854.4338
 220  929.8777
 221  1054.428
 222  1133.362
 223  1212.88
 224  1299.255
 225  1339.755
 226  1272.097
 227  1253.632
 228  1137.326
 229  1150.688
 230  1107.36
 231  1127.103
 232  1231.622
 233  1244.407
 234  1265.465
 235  1182.636
 236  1134.378
 237  1188.989
 238  1320.951
 239  1571.742
 240  1750.047
 241  1810.584
 242  1688.053
 243  1472.229
 244  1305.68
 245  1293.787
 246  1286.716
 247  1248.247
 248  1147.871
 249  1163.134
 250  1130.492
 251  1003.595
 252  925.2286
 253  1061.08
 254  1355.057
 255  1284.336
 256  1290.323
 257  1275.933
 258  1283.34
 259  1171.752
 260  1089.57
 261  1152.482
 262  1064.543
 263  988.6763
 264  971.2393
 265  1112.03
 266  1156.123
 267  1112.721
 268  978.9617
 269  881.2589
 270  873.5077
 271  796.7959
 272  1009.532
 273  1045.108
 274  1153.504
 275  1076.05
 276  1058.31
 277  1029.74
 278  1051.609
 279  1044.229
 280  941.4642
 281  950.632
 282  986.0142
 283  904.0753
 284  823.9681
 285  854.7725
 286  1033.315
 287  1010.282
 288  922.9086
 289  910.6774
 290  896.9766
 291  997.3126
 292  978.3076
 293  1049.156
 294  1059.534
 295  1050.742
 296  890.1401
 297  864.3088
 298  934.4484
 299  912.895
 300  800.9629
 301  684.3005
 302  809.9597
 303  807.1462
 304  795.6739
 305  875.6926
 306  864.1058
 307  895.9871
 308  826.6647
 309  836.576
 310  927.9802
 311  960.4478
 312  976.6095
 313  926.8647
 314  1008.868
 315  1230.042
 316  1343.696
 317  1214.769
 318  1118.939
 319  1070.142
 320  1083.46
 321  1154.515
 322  1293.911
 323  1412.669
 324  1317.678
 325  1209.127
 326  1071.32
 327  946.8536
 328  948.9954
 329  1026.089
 330  1093.262
 331  1060.359
 332  1031.745
 333  1025.446
 334  1105.812
 335  983.796
 336  914.0854
 337  786.7431
 338  814.0888
 339  695.4351
 340  709.5414
 341  785.5566
 342  890.7355
 343  997.8117
 344  921.2421
 345  790.7111
 346  639.788
 347  623.3077
 348  538.2533
 349  468.5687
 350  479.8965
 351  662.4354
 352  856.9101
 353  847.2864
 354  753.1005
 355  569.4663
 356  511.4015
 357  442.5466
 358  520.2512
 359  612.1725
 360  748.66
 361  790.5862
 362  800.362
 363  737.4993
 364  733.6429
 365  598.6526
 366  640.4683
 367  686.6484
 368  750.6172
 369  797.2657
 370  850.9208
 371  994.4313
 372  939.0514
 373  885.3378
 374  806.4194
 375  887.9494
 376  849.8007
 377  839.2791
 378  841.756
 379  932.0803
 380  1049.608
 381  1101.527
 382  1043.665
 383  905.7504
 384  923.429
 385  852.2541
 386  889.6679
 387  949.1489
 388  1168.444
 389  1221.807
 390  1136.711
 391  1049.352
 392  1118.982
 393  1194.932
 394  1171.661
 395  1087.941
 396  1072.17
 397  1208.892
 398  1239.084
 399  1221.844
 400  1173.33
 401  1332.923
 402  1300.887
 403  1213.77
 404  1210.621
 405  1258.345
 406  1410.242
 407  1470.554
 408  1575.156
 409  1479.447
 410  1496.561
 411  1538.875
 412  1556.638
 413  1512.754
 414  1361.901
 415  1356.707
 416  1368.794
 417  1441.264
 418  1425.173
 419  1459.748
 420  1462.744
 421  1438.716
 422  1349.547
 423  1388.571
 424  1421.771
 425  1457.809
 426  1394.995
 427  1336.963
 428  1280.097
 429  1237.862
 430  1012.118
 431  1108.193
 432  1110.199
 433  1303.078
 434  1197.088
 435  1236.143
 436  1263.132
 437  1330.642
 438  1389.76
 439  1260.484
 440  1191.024
 441  1090.991
 442  1062.247
 443  974.3549
 444  941.2187
 445  952.3707
 446  904.1428
 447  956.232
 448  1013.506
 449  853.4315
 450  704.5421
 451  641.2264
 452  842.9969
 453  970.2531
 454  929.8539
 455  943.4527
 456  948.3042
 457  1054.876
 458  931.2247
 459  794.0866
 460  841.7112
 461  840.061
 462  750.3835
 463  666.9385
 464  788.4948
 465  931.8314
 466  920.3109
 467  969.2184
 468  1065.158
 469  1039.515
 470  970.9577
 471  1052.378
 472  1172.232
 473  1235.953
 474  1304.136
 475  1416.1
 476  1386.022
 477  1370.342
 478  1322.655
 479  1283.159
 480  1083.386
 481  1021.154
 482  1148.885
 483  1411.78
 484  1501.3
 485  1536.384
 486  1529.967
 487  1586.334
 488  1611.409
 489  1469.433
 490  1423.075
 491  1338.504
 492  1336.163
 493  1308.651
 494  1297.732
 495  1291.721
 496  1355.26
 497  1579.3
 498  1601.811
 499  1543.159
 500  1317.76
 501  1417.274
 502  1478.578
 503  1558.984
 504  1584.578
 505  1581.159
 506  1599.289
 507  1532.094
 508  1463.609
 509  1357.883
 510  1251.971
 511  1217.846
 512  1314.731
 513  1265.687
 514  1281.064
 515  1345.261
 516  1256.231
 517  1210.568
 518  996.2314
 519  1002.086
 520  986.5129
 521  1172.285
 522  1259.608
 523  1324.906
 524  1260.251
 525  1365.415
 526  1422.802
 527  1348.836
 528  1270.755
 529  1196.122
 530  1208.12
 531  1271.183
 532  1287.705
 533  1290.599
 534  1101.994
 535  1027.158
 536  1072.844
 537  1024.593
 538  1052.9
 539  1017.939
 540  1072.325
 541  1112.443
 542  1039.795
 543  1092.916
 544  1149.327
 545  1183.411
 546  1020.377
 547  935.8854
 548  1022.709
 549  1063.403
 550  977.0646
 551  1025.857
 552  1028.837
 553  1081.358
 554  1051.442
 555  1223.008
 556  1266.37
 557  1166.495
 558  1064.595
 559  1031.755
 560  1060.127
 561  1048.069
 562  1127.798
 563  1260.122
 564  1304.337
 565  1245.986
 566  1194.22
 567  1170.704
 568  1087.182
 569  1077.69
 570  1274.968
 571  1516.349
 572  1570.865
 573  1481.545
 574  1618.071
 575  1684.828
 576  1733.506
 577  1420.018
 578  1205.229
 579  1108.377
 580  1241.186
 581  1408.593
 582  1499.099
 583  1496.979
 584  1396.552
 585  1296.742
 586  1300.244
 587  1345.013
 588  1431.742
 589  1408.472
 590  1488.93
 591  1445.439
 592  1463.74
 593  1261.616
 594  1244.554
 595  1250.247
 596  1263.825
 597  1232.267
 598  1240.007
 599  1274.956
 600  1285.163
 601  1239.477
 602  1238.381
 603  1294.402
 604  1294.784
 605  1238.518
 606  1313.14
 607  1370.909
 608  1404.305
 609  1272.81
 610  1213.327
 611  1238.246
 612  1298.82
 613  1317.019
 614  1211.06
 615  1034.687
 616  1023.123
 617  1082.374
 618  1195.994
 619  1179.955
 620  1168.42
 621  1163.878
 622  1174.322
 623  1170.415
 624  1197.345
 625  1194.435
 626  1282.888
 627  1215.698
 628  1116.817
 629  1020.897
 630  1078.445
 631  1131.354
 632  1031.448
 633  925.8815
 634  922.8151
 635  934.5817
 636  973.0458
 637  1033.156
 638  1217.684
 639  1337.28
 640  1334.216
 641  1324.218
 642  1170.995
 643  1085.661
 644  946.0026
 645  971.0724
 646  1112.934
 647  1246.719
 648  1343.06
 649  1456.916
 650  1536.422
 651  1626.341
 652  1602.709
 653  1668.523
 654  1747.669
 655  1720.87
 656  1734.209
 657  1752.772
 658  1818.05
 659  1730.329
 660  1674.028
 661  1437.012
 662  1371.439
 663  1181.248
 664  1235.372
 665  1276.995
 666  1366.029
 667  1392.706
 668  1379.99
 669  1334.653
 670  1266.109
 671  1253.909
 672  1185.602
 673  1102.103
 674  1055.526
 675  1139.832
 676  1223.814
 677  1281.036
 678  1315.906
 679  1198.272
 680  1040.906
 681  818.9647
 682  859.0267
 683  906.9961
 684  1065.04
 685  1081.768
 686  1121.083
 687  1011.689
 688  980.5203
 689  1000.199
 690  1047.743
 691  1018.435
 692  948.6829
 693  794.528
 694  769.5073
 695  882.6024
 696  942.2238
 697  1011.437
 698  906.8365
 699  834.4351
 700  765.769
 701  709.0311
 702  813.6849
 703  946.0594
 704  1004.892
 705  1020.937
 706  984.8112
 707  1022.546
 708  1004.948
 709  1022.94
 710  1086.717
 711  1029.477
 712  963.2292
 713  964.1005
 714  935.6594
 715  1003.798
 716  1035.953
 717  1067.467
 718  1067.46
 719  983.3875
 720  911.5933
 721  835.4257
 722  828.7304
 723  847.3384
 724  877.7278
 725  967.3383
 726  863.6411
 727  800.3492
 728  654.5267
 729  751.373
 730  797.0737
 731  945.488
 732  1005.351
 733  1038.865
 734  916.6501
 735  1034.276
 736  1013.012
 737  982.1789
 738  907.3158
 739  1001.766
 740  1110.612
 741  1096.021
 742  1046.602
 743  1110.722
 744  1165.323
 745  1294.187
 746  1249.722
 747  1384.98
 748  1398.828
 749  1487.617
 750  1463.448
 751  1469.934
 752  1487.771
 753  1522.105
 754  1557.919
 755  1454.58
 756  1331.157
 757  1173.743
 758  1057.763
 759  1127.027
 760  1313.188
 761  1345.669
 762  1319.991
 763  1284.316
 764  1311.162
 765  1172.541
 766  1086.008
 767  937.603
 768  913.0333
 769  930.32
 770  1041.083
 771  999.4634
 772  870.321
 773  932.3594
 774  1010.667
 775  1096.107
 776  1051.967
 777  1147.545
 778  1067.006
 779  910.7144
 780  836.2735
 781  810.5732
 782  828.906
 783  981.9476
 784  1066.784
 785  1170.789
 786  1024.056
 787  938.2657
 788  934.6724
 789  971.2231
 790  982.0328
 791  969.6245
 792  953.9869
 793  1038.596
 794  1024.104
 795  881.9105
 796  681.546
 797  672.0805
 798  685.7164
 799  773.1916
 800  774.5925
 801  893.0864
 802  877.2222
 803  789.6152
 804  818.952
 805  866.011
 806  998.369
 807  946.9747
 808  870.2211
 809  840.3995
 810  911.5092
 811  913.997
 812  910.7023
 813  863.4872
 814  911.6573
 815  904.5484
 816  906.3798
 817  816.428
 818  831.186
 819  865.4168
 820  1024.124
 821  1102.451
 822  1219.298
 823  1413.171
 824  1366.238
 825  1225.689
 826  1053.64
 827  978.6573
 828  1011.531
 829  1180.351
 830  1337.478
 831  1364.47
 832  1093.929
 833  906.3472
 834  908.1016
 835  1031.474
 836  1044.91
 837  946.3716
 838  976.6448
 839  1162.675
 840  1225.073
 841  1245.9
 842  1106.926
 843  1092.062
 844  1143.364
 845  1265.763
 846  1225.507
 847  1116.355
 848  1089.677
 849  1265.509
 850  1251.93
 851  1045.623
 852  761.7605
 853  641.9336
 854  701.9462
 855  962.3985
 856  1057.73
 857  1124.522
 858  1109.763
 859  1079.545
 860  978.6555
 861  1023.351
 862  974.0532
 863  943.7812
 864  756.2719
 865  823.145
 866  814.408
 867  797.8332
 868  833.1061
 869  999.9123
 870  1112.335
 871  1090.287
 872  943.0344
 873  771.8157
 874  643.6198
 875  659.5338
 876  715.9723
 877  844.4198
 878  986.3333
 879  1106.948
 880  1139.896
 881  1070.107
 882  1004.203
 883  1028.693
 884  965.5851
 885  962.6561
 886  976.4842
 887  1052.406
 888  1097.831
 889  1021.078
 890  971.3215
 891  797.16
 892  715.2479
 893  778.7847
 894  870.9534
 895  897.3679
 896  932.5009
 897  998.6113
 898  1036.705
 899  1048.146
 900  1015.578
 901  791.6845
 902  792.8238
 903  942.7444
 904  1111.239
 905  1014.171
 906  894.6278
 907  943.6379
 908  1100.012
 909  1211.976
 910  1159.734
 911  1103.19
 912  1046.207
 913  1045.03
 914  1169.465
 915  1275.783
 916  1322.388
 917  1273.003
 918  1219.949
 919  1147.355
 920  1090.361
 921  1009.469
 922  1011.463
 923  994.251
 924  1165.645
 925  1234.391
 926  1363.736
 927  1169.737
 928  1063.896
 929  977.8441
 930  1034.35
 931  1049.563
 932  1087.869
 933  1102.457
 934  1148.704
 935  1121.289
 936  1162.744
 937  1020.421
 938  951.4374
 939  1063.947
 940  1169.431
 941  1120.895
 942  931.0033
 943  866.15
 944  1030.321
 945  1171.041
 946  1097.829
 947  992.0223
 948  905.0792
 949  937.8914
 950  881.8256
 951  1000.379
 952  1038.875
 953  1124.337
 954  1039.309
 955  1035.947
 956  1038.646
 957  982.2305
 958  897.8729
 959  632.9321
 960  637.5508
 961  639.9556
 962  635.0656
 963  559.4224
 964  660.2838
 965  949.3656
 966  1057.051
 967  1079.224
 968  948.1262
 969  981.9871
 970  927.684
 971  890.2025
 972  747.7187
 973  852.6284
 974  863.8319
 975  814.7148
 976  814.1039
 977  752.4733
 978  849.3624
 979  732.3326
 980  770.708
 981  613.9904
 982  837.3098
 983  979.4782
 984  1053.539
 985  987.6969
 986  946.0128
 987  900.7728
 988  756.9574
 989  740.1635
 990  824.5828
 991  991.6977
 992  1066.518
 993  1102.731
 994  1302.701
 995  1324.865
 996  1227.484
 997  1051.339
 998  1239.282
 999  1242.597
1000  1323.583
1001  1272.525
1002  1267.417
1003  1215.156
1004  1237.833
1005  1327.558
1006  1322.444
1007  1310.473
1008  1340.942
1009  1415.522
1010  1315.348
1011  1333.746
1012  1144.219
1013  1189.51
1014  1163.87
1015  1246.054
1016  1167.557
1017  1145.028
1018  1143.91
1019  1120.251
1020  1052.116
1021  1031.561
1022  1047.052
1023  1042.047
