# Input file       =  1181198473.10547_cleaned.dat
# Candidate        =  PSR_0332+5434
# Telescope        =  AR
# Epoch_topo       =  57915.278843813307
# Epoch_bary       =  N/A
# T_sample         =  0.002
# Data Folded      =  7340032
# Data Avg         =  0.0859990921089775
# Data StdDev      =  2.70390791021691 
# Profile Bins     =  512
# Profile Avg      =  1232.77982695397 
# Profile StdDev   =  323.747104173427 
# Reduced chi-sqr  =  1.180
# Prob(Noise)      <  0.00303   (~2.7 sigma)
# P_topo (ms)      =  714.506716789846  +/- 0.00023
# P'_topo (s/s)    =  -0                +/- 1.22e-10
# P''_topo (s/s^2) =  0                 +/- 5.37e-14
# P_bary (ms)      =  N/A
# P'_bary (s/s)    =  N/A
# P''_bary (s/s^2) =  N/A
# P_orb (s)        =  N/A
# asin(i)/c (s)    =  N/A
# eccentricity     =  N/A
# w (rad)          =  N/A
# T_peri           =  N/A
######################################################
   0  1029.629
   1  1040.782
   2  1390.237
   3  1288.786
   4  1103.12
   5  1265.424
   6  1393.979
   7  1326.518
   8  1560.069
   9  1143.957
  10  1080.422
  11  1098.504
  12  1061.022
  13  1140.81
  14  1036.014
  15  1405.999
  16  1361.222
  17  1027.943
  18  1069.218
  19  1401.435
  20  1264.882
  21  1209.611
  22  1411.559
  23  1376.577
  24  1284.139
  25  1166.747
  26  1144.021
  27  1186.773
  28  1452.827
  29  1520.159
  30  1570.872
  31  1377.007
  32  1316.985
  33  1395.484
  34  1297.373
  35  1432.48
  36  1542.93
  37  1354.653
  38  947.4954
  39  948.314
  40  1032.981
  41  892.7033
  42  898.1074
  43  1034.575
  44  1168.777
  45  1243.626
  46  1346.122
  47  993.8578
  48  794.3417
  49  1246.398
  50  863.377
  51  748.3657
  52  1105.834
  53  1125.675
  54  1094.011
  55  1087.641
  56  1209.297
  57  1102.26
  58  1336.743
  59  1609.477
  60  1465.86
  61  1319.714
  62  1522.917
  63  1488.589
  64  1427.766
  65  1608.101
  66  1451.444
  67  1412.273
  68  1371
  69  1233.097
  70  1419.612
  71  1442.824
  72  1126.549
  73  1063.889
  74  1240.351
  75  1341.643
  76  1354.722
  77  1284.428
  78  1373.728
  79  1528.242
  80  1445.546
  81  1296.879
  82  1674.015
  83  1544.444
  84  1173.667
  85  1181.94
  86  1366.56
  87  1593.911
  88  1498.462
  89  1259.374
  90  1354.406
  91  1352.849
  92  1534.595
  93  1495.679
  94  1373.826
  95  1244.475
  96  1131.865
  97  1168.379
  98  1422.677
  99  1544.073
 100  1441.772
 101  1422.014
 102  1323.942
 103  1272.708
 104  1346.443
 105  1113.44
 106  1275.672
 107  1457.418
 108  1479.699
 109  1648.808
 110  1703.369
 111  1684.083
 112  1649.792
 113  1427.458
 114  1415.114
 115  1278.919
 116  1002.596
 117  1023.625
 118  1189.244
 119  1165.642
 120  1123.217
 121  1092.953
 122  1079.452
 123  1048.868
 124  823.26
 125  796.329
 126  806.8757
 127  1175.42
 128  1068.025
 129  1139.37
 130  1370.489
 131  1295.601
 132  1189.432
 133  986.7681
 134  935.9606
 135  1078.591
 136  1012.818
 137  945.0842
 138  660.1506
 139  1119.704
 140  1507.434
 141  1072.372
 142  1178.454
 143  1347.298
 144  1262.115
 145  1211.643
 146  1153.083
 147  1560.037
 148  1722.766
 149  1453.409
 150  1087.137
 151  1239.752
 152  1737.079
 153  1854.413
 154  1724.639
 155  1469.382
 156  1299.347
 157  1169.22
 158  1084.721
 159  1133.555
 160  1587.579
 161  1652.214
 162  1309.474
 163  1232.497
 164  1565.888
 165  1414.774
 166  1286.199
 167  956.4542
 168  1183.658
 169  1648.02
 170  1336.988
 171  1189.048
 172  1349.723
 173  1621.562
 174  1249.801
 175  1333.214
 176  1281.878
 177  1441.8
 178  1472.519
 179  1248.832
 180  1299.318
 181  1624.042
 182  1474.171
 183  1069.259
 184  1302.49
 185  1558.142
 186  1452.953
 187  1787.85
 188  1428.178
 189  1155.683
 190  1195.311
 191  1322.773
 192  1350.507
 193  1443.139
 194  1118.226
 195  1148.42
 196  1348.98
 197  1436.471
 198  1182.503
 199  1229.768
 200  1229.988
 201  1461.646
 202  1706.144
 203  1292.199
 204  1053.474
 205  1307.124
 206  1526.965
 207  1447.674
 208  1168.721
 209  1155.547
 210  895.5937
 211  1228.228
 212  1347.374
 213  1229.988
 214  1018.726
 215  1175.482
 216  1183.542
 217  1463.38
 218  1506.524
 219  1327.801
 220  1327.771
 221  1179.341
 222  1244.775
 223  1035.315
 224  1436.954
 225  1433.23
 226  1176.11
 227  1183.535
 228  1518.221
 229  1531.072
 230  1168.449
 231  1128.637
 232  1136.437
 233  1144.233
 234  1053.091
 235  1337.075
 236  1520.817
 237  1723.912
 238  1521.774
 239  1561.779
 240  1332.716
 241  1182.501
 242  1152.583
 243  1261.317
 244  1281.668
 245  1393.658
 246  945.5602
 247  1053.789
 248  1165.095
 249  1024.875
 250  1064.944
 251  947.3254
 252  1326.092
 253  1521.246
 254  1210.794
 255  1185.231
 256  1086.936
 257  1051.862
 258  1187.729
 259  1284.012
 260  1249.662
 261  1329.151
 262  1331.8
 263  1264.884
 264  1309.106
 265  1033.32
 266  923.9487
 267  1166.563
 268  1673.243
 269  1240.049
 270  1127.31
 271  1177.013
 272  1356.888
 273  1270.404
 274  1519.635
 275  1695.642
 276  1596.625
 277  1347.779
 278  1401.714
 279  1449.203
 280  1242.151
 281  1026.917
 282  1146.906
 283  1263.898
 284  1226.135
 285  1240.072
 286  1037.64
 287  1095.497
 288  1247.524
 289  1466.955
 290  1512.267
 291  1578.219
 292  1595.899
 293  1674.913
 294  1327.467
 295  1245.358
 296  1115.83
 297  1395.608
 298  1016.172
 299  1143.341
 300  1273.089
 301  1228.233
 302  1013.732
 303  1297.632
 304  1164.945
 305  1312.601
 306  1207.916
 307  1420.574
 308  1292.506
 309  1136.884
 310  1366.485
 311  1284.255
 312  1267.805
 313  1512.489
 314  1252.316
 315  932.8143
 316  1194.373
 317  1503.092
 318  1642.118
 319  1664.162
 320  1511.247
 321  1268.284
 322  1312.431
 323  1477.656
 324  1668.73
 325  2024.339
 326  2288.826
 327  2385.405
 328  2606.253
 329  2599.464
 330  2065.619
 331  1454.583
 332  1174.102
 333  1324.093
 334  1152.008
 335  939.5367
 336  994.5342
 337  954.6977
 338  1153.5
 339  1537.39
 340  1347.83
 341  1146.929
 342  1215.773
 343  1338.639
 344  1128.847
 345  1104.399
 346  1292.497
 347  1045.043
 348  904.7017
 349  946.6738
 350  1291.031
 351  1448.156
 352  1185.903
 353  993.4139
 354  979.7512
 355  1115.437
 356  1306.007
 357  1451.252
 358  1422.437
 359  1419.603
 360  1513.329
 361  1490.252
 362  1428.965
 363  1478.198
 364  1321.61
 365  1213.911
 366  1233.544
 367  1130.338
 368  1317.617
 369  1294.737
 370  1294.774
 371  1242.077
 372  1154.566
 373  1180.92
 374  970.3661
 375  1076.534
 376  978.9263
 377  959.643
 378  855.0403
 379  834.7079
 380  737.2483
 381  577.5688
 382  683.0057
 383  650.1091
 384  1109.815
 385  1200.086
 386  1342.672
 387  1175.85
 388  1034.374
 389  1251.679
 390  1087.077
 391  980.955
 392  1075.243
 393  1317.348
 394  1262.821
 395  1173.376
 396  1270.527
 397  1169.903
 398  921.9733
 399  1039.53
 400  1080.434
 401  1204.949
 402  1424.031
 403  1439.713
 404  1304.252
 405  1163.354
 406  1079.468
 407  1028.165
 408  1164.409
 409  1314.165
 410  1118.183
 411  1043.593
 412  1056.472
 413  1007.322
 414  1146.747
 415  1278.25
 416  1144.617
 417  1067.752
 418  1038.307
 419  896.4547
 420  1033.415
 421  816.7336
 422  531.8195
 423  740.5388
 424  743.8115
 425  742.4974
 426  801.8859
 427  1092.65
 428  1009.337
 429  958.1717
 430  1178.629
 431  1000.127
 432  926.4748
 433  730.7667
 434  832.0212
 435  990.0938
 436  728.5822
 437  695.4046
 438  906.9656
 439  920.641
 440  1028.4
 441  1452.359
 442  1262.578
 443  1054.982
 444  1097.24
 445  1169.108
 446  1283.964
 447  1207.06
 448  1191.908
 449  1415.985
 450  1174.281
 451  967.0905
 452  792.5674
 453  1063.783
 454  1251.989
 455  1156
 456  834.7896
 457  925.5518
 458  965.8704
 459  1185.923
 460  1225.057
 461  909.848
 462  811.6534
 463  783.9313
 464  788.8623
 465  817.8052
 466  1042.101
 467  978.201
 468  1079.115
 469  884.726
 470  809.84
 471  813.1725
 472  1020.29
 473  833.174
 474  750.4811
 475  967.5454
 476  1097.032
 477  920.7676
 478  845.1579
 479  982.0751
 480  1081.579
 481  1055.22
 482  1169.164
 483  1191.602
 484  1437.797
 485  1281.546
 486  1191.789
 487  1124.328
 488  1047.646
 489  1024.7
 490  1106.536
 491  1462.096
 492  1383.79
 493  917.171
 494  1139.513
 495  1033.734
 496  1112.163
 497  1138.343
 498  1346.026
 499  1573.069
 500  1353.449
 501  903.3156
 502  1261.764
 503  1495.767
 504  1242.494
 505  1174.998
 506  1142.858
 507  1162.862
 508  1146.508
 509  917.7875
 510  1140.267
 511  1289.571
