# Input file       =  1181097647.101202_cleaned.dat
# Candidate        =  PSR_0332+5434
# Telescope        =  AR
# Epoch_topo       =  57914.111876171322
# Epoch_bary       =  N/A
# T_sample         =  0.002
# Data Folded      =  7208960
# Data Avg         =  0.0371640506162913
# Data StdDev      =  0.999965513968967
# Profile Bins     =  512
# Profile Avg      =  523.429355214058 
# Profile StdDev   =  118.655083709512 
# Reduced chi-sqr  =  0.939
# Prob(Noise)      <  0.835   (~0.0 sigma)
# P_topo (ms)      =  714.507806142044  +/- 0.000589
# P'_topo (s/s)    =  -0                +/- 3.17e-10
# P''_topo (s/s^2) =  0                 +/- 1.42e-13
# P_bary (ms)      =  N/A
# P'_bary (s/s)    =  N/A
# P''_bary (s/s^2) =  N/A
# P_orb (s)        =  N/A
# asin(i)/c (s)    =  N/A
# eccentricity     =  N/A
# w (rad)          =  N/A
# T_peri           =  N/A
######################################################
   0  1044.041
   1  867.3713
   2  906.6547
   3  660.3922
   4  533.2655
   5  463.6842
   6  510.1543
   7  634.0983
   8  479.6868
   9  500.129
  10  563.1055
  11  569.9957
  12  607.0287
  13  527.9149
  14  470.3633
  15  530.2409
  16  463.6518
  17  461.3729
  18  542.0028
  19  513.1042
  20  487.0596
  21  468.2836
  22  467.0364
  23  485.0387
  24  483.6633
  25  566.3282
  26  425.0113
  27  524.9961
  28  621.4666
  29  485.4335
  30  513.6548
  31  560.817
  32  515.4157
  33  471.5511
  34  547.0565
  35  501.7083
  36  522.8957
  37  507.1176
  38  563.6989
  39  566.6125
  40  483.8747
  41  453.7121
  42  473.5638
  43  504.189
  44  481.3043
  45  471.919
  46  499.1185
  47  469.4881
  48  503.9701
  49  541.4145
  50  388.4556
  51  402.6583
  52  464.5537
  53  404.5102
  54  401.593
  55  374.1519
  56  489.5947
  57  498.8983
  58  559.0695
  59  628.5359
  60  512.2329
  61  508.2599
  62  501.9499
  63  597.3444
  64  583.4558
  65  513.3072
  66  500.9218
  67  403.3314
  68  541.4074
  69  631.3052
  70  458.9276
  71  478.6573
  72  580.7952
  73  629.3282
  74  528.4861
  75  623.643
  76  650.0851
  77  649.8788
  78  597.9671
  79  555.383
  80  527.6833
  81  470.0158
  82  500.8834
  83  581.3271
  84  627.306
  85  649.108
  86  625.8884
  87  605.2226
  88  645.3657
  89  614.0927
  90  514.1813
  91  490.3834
  92  490.7317
  93  486.3232
  94  555.1262
  95  546.4991
  96  521.7791
  97  509.3234
  98  528.9809
  99  521.1979
 100  525.7262
 101  576.4039
 102  547.7239
 103  480.4892
 104  470.8378
 105  523.9028
 106  513.493
 107  438.6591
 108  611.3381
 109  660.7245
 110  616.881
 111  512.2571
 112  538.296
 113  529.9065
 114  617.4532
 115  637.1224
 116  644.2811
 117  543.4772
 118  485.6572
 119  650.1392
 120  593.5886
 121  565.4785
 122  506.6132
 123  571.4471
 124  660.8887
 125  576.6249
 126  561.5858
 127  367.8112
 128  487.9648
 129  496.6687
 130  599.5015
 131  591.6534
 132  635.4572
 133  594.5292
 134  462.9341
 135  489.7929
 136  480.9757
 137  469.0472
 138  504.9988
 139  473.8575
 140  498.1571
 141  439.5149
 142  506.7711
 143  470.9868
 144  505.9503
 145  604.5444
 146  513.5615
 147  551.1548
 148  584.456
 149  588.4318
 150  551.3286
 151  632.4516
 152  639.7187
 153  565.6904
 154  556.6172
 155  568.3984
 156  568.5139
 157  565.1531
 158  537.5055
 159  562.6554
 160  580.6204
 161  524.0587
 162  419.8179
 163  654.1838
 164  576.3839
 165  495.1752
 166  558.7134
 167  522.3455
 168  453.3251
 169  484.286
 170  503.1739
 171  484.9278
 172  500.864
 173  591.0806
 174  487.413
 175  512.6083
 176  535.0182
 177  526.1348
 178  492.4191
 179  530.6255
 180  623.6057
 181  632.9628
 182  535.9824
 183  459.3978
 184  398.2515
 185  548.9295
 186  526.1724
 187  511.2599
 188  611.6631
 189  397.9719
 190  430.7034
 191  513.5317
 192  517.8607
 193  565.4263
 194  477.2651
 195  420.0154
 196  525.2836
 197  552.9209
 198  589.1323
 199  553.8525
 200  575.0052
 201  544.9985
 202  480.2659
 203  513.0807
 204  513.6418
 205  511.3008
 206  571.8984
 207  640.9561
 208  451.7352
 209  435.3511
 210  503.3573
 211  605.2619
 212  602.8439
 213  474.1616
 214  524.086
 215  534.4374
 216  513.6998
 217  569.3256
 218  539.6558
 219  466.6111
 220  585.1099
 221  614.2225
 222  586.2857
 223  590.0059
 224  673.7172
 225  631.5042
 226  508.7485
 227  531.988
 228  612.5381
 229  568.9572
 230  453.087
 231  489.7114
 232  605.8419
 233  506.2647
 234  393.104
 235  449.2054
 236  543.9562
 237  443.7867
 238  433.3798
 239  451.7717
 240  450.0453
 241  438.1078
 242  409.696
 243  420.6002
 244  501.5318
 245  382.3962
 246  411.8805
 247  405.5805
 248  495.915
 249  549.0378
 250  464.3824
 251  327.5684
 252  510.0347
 253  459.9091
 254  447.2981
 255  463.7678
 256  462.5237
 257  434.5896
 258  354.5343
 259  473.864
 260  457.6355
 261  395.5781
 262  519.5429
 263  497.0273
 264  518.4422
 265  456.9166
 266  500.9546
 267  398.6633
 268  495.3335
 269  615.5122
 270  588.1931
 271  484.1573
 272  498.2332
 273  564.1459
 274  474.3055
 275  426.8498
 276  392.8897
 277  475.0318
 278  535.3594
 279  591.0927
 280  505.3355
 281  523.1344
 282  523.5908
 283  577.7629
 284  474.4107
 285  519.1833
 286  509.0913
 287  610.4669
 288  514.288
 289  487.0389
 290  527.3186
 291  526.4764
 292  616.9218
 293  622.019
 294  537.1825
 295  504.8745
 296  514.538
 297  534.7211
 298  457.8607
 299  468.1862
 300  488.7761
 301  471.2245
 302  425.299
 303  455.1852
 304  534.6407
 305  445.3194
 306  470.6669
 307  528.3351
 308  475.8698
 309  439.0805
 310  421.0326
 311  503.1959
 312  519.3431
 313  457.676
 314  458.5287
 315  546.6195
 316  564.2142
 317  498.6008
 318  300.0785
 319  333.877
 320  501.8968
 321  509.7493
 322  498.2795
 323  558.4698
 324  539.082
 325  424.2704
 326  347.6668
 327  436.6657
 328  539.256
 329  508.5684
 330  455.2358
 331  542.5513
 332  568.9175
 333  495.8676
 334  456.3316
 335  490.4208
 336  504.4135
 337  462.2668
 338  470.3681
 339  467.8619
 340  520.6431
 341  545.3275
 342  547.1516
 343  610.5739
 344  624.8928
 345  529.8514
 346  440.3853
 347  530.4708
 348  426.021
 349  433.9599
 350  379.5789
 351  418.3313
 352  519.6752
 353  470.264
 354  506.7643
 355  463.6935
 356  506.9721
 357  515.3873
 358  407.9036
 359  507.9861
 360  606.7939
 361  572.2816
 362  501.0338
 363  484.7354
 364  546.7468
 365  587.0758
 366  587.9752
 367  505.0501
 368  547.2285
 369  568.6754
 370  587.2123
 371  463.3457
 372  460.2761
 373  572.8301
 374  592.8068
 375  575.0907
 376  675.8854
 377  564.8455
 378  456.1097
 379  443.4573
 380  500.0093
 381  587.1155
 382  496.4038
 383  464.9487
 384  479.0443
 385  522.5947
 386  560.1093
 387  473.5569
 388  526.4473
 389  550.882
 390  528.7304
 391  485.0196
 392  459.208
 393  545.4921
 394  600.379
 395  499.084
 396  503.6617
 397  504.1148
 398  516.2332
 399  488.7494
 400  458.0877
 401  481.0565
 402  640.0476
 403  622.8194
 404  568.283
 405  466.3758
 406  516.103
 407  548.4446
 408  503.6309
 409  532.1605
 410  608.3058
 411  671.7623
 412  525.6055
 413  542.0656
 414  580.7647
 415  650.6481
 416  549.5476
 417  435.499
 418  420.8422
 419  563.5875
 420  664.3849
 421  652.9885
 422  640.2506
 423  616.1387
 424  556.6548
 425  529.6826
 426  563.0767
 427  565.1059
 428  506.3973
 429  450.8545
 430  465.8902
 431  398.003
 432  460.5054
 433  518.8922
 434  444.3825
 435  492.6725
 436  579.0076
 437  635.0093
 438  521.3064
 439  537.9269
 440  631.6053
 441  697.59
 442  541.7092
 443  488.4692
 444  482.4212
 445  538.065
 446  615.8609
 447  568.7756
 448  488.2419
 449  482.4038
 450  601.17
 451  674.4146
 452  685.6624
 453  480.7784
 454  429.5411
 455  555.3443
 456  594.4939
 457  569.449
 458  623.8546
 459  682.0724
 460  571.4311
 461  454.038
 462  437.9362
 463  417.0704
 464  489.9589
 465  541.248
 466  491.2044
 467  404.2317
 468  434.7497
 469  459.2757
 470  345.3106
 471  370.2017
 472  496.6255
 473  474.6974
 474  390.0451
 475  506.9039
 476  489.308
 477  404.175
 478  378.8117
 479  279.5425
 480  314.8051
 481  384.9268
 482  407.0918
 483  490.3118
 484  478.3602
 485  516.5447
 486  478.5229
 487  531.7191
 488  586.2222
 489  608.2305
 490  482.8104
 491  618.3107
 492  568.1588
 493  610.1233
 494  674.0024
 495  624.169
 496  539.6302
 497  541.4003
 498  485.7829
 499  384.1212
 500  396.9745
 501  488.8489
 502  477.4109
 503  586.658
 504  675.3266
 505  604.3723
 506  607.2164
 507  583.6392
 508  547.7153
 509  686.2002
 510  892.0692
 511  1070.654
