# Input file       =  1181299537.125484_cleaned.dat
# Candidate        =  PSR_0332+5434
# Telescope        =  AR
# Epoch_topo       =  57916.448566267172
# Epoch_bary       =  N/A
# T_sample         =  0.002
# Data Folded      =  7340032
# Data Avg         =  0.0597910963271196
# Data StdDev      =  3.8249598352089  
# Profile Bins     =  512
# Profile Avg      =  857.249770770181 
# Profile StdDev   =  457.974055088737 
# Reduced chi-sqr  =  0.749
# Prob(Noise)      <  1   (~0.0 sigma)
# P_topo (ms)      =  714.505952226507  +/- 0.000507
# P'_topo (s/s)    =  -0                +/- 2.68e-10
# P''_topo (s/s^2) =  0                 +/- 1.18e-13
# P_bary (ms)      =  N/A
# P'_bary (s/s)    =  N/A
# P''_bary (s/s^2) =  N/A
# P_orb (s)        =  N/A
# asin(i)/c (s)    =  N/A
# eccentricity     =  N/A
# w (rad)          =  N/A
# T_peri           =  N/A
######################################################
   0  1050.132
   1  903.586
   2  886.7283
   3  1020.814
   4  910.5621
   5  574.6844
   6  505.2148
   7  714.6061
   8  660.5256
   9  782.6513
  10  601.8382
  11  683.5323
  12  613.166
  13  461.3172
  14  640.0263
  15  322.499
  16  582.3622
  17  836.4498
  18  1120.765
  19  1323.236
  20  890.4977
  21  1268.047
  22  928.3664
  23  852.5406
  24  1165.874
  25  923.3912
  26  781.7418
  27  798.7054
  28  687.1014
  29  549.9757
  30  599.7538
  31  1060.493
  32  590.6662
  33  364.3297
  34  493.6442
  35  795.3017
  36  1002.458
  37  854.4484
  38  582.5526
  39  461.7288
  40  377.8134
  41  445.063
  42  308.4275
  43  873.1706
  44  1045.854
  45  949.2878
  46  904.1024
  47  580.3115
  48  812.8239
  49  397.84
  50  218.6642
  51  854.7001
  52  800.076
  53  1001.047
  54  673.604
  55  558.3066
  56  685.2059
  57  849.9909
  58  856.1451
  59  656.7959
  60  704.1774
  61  689.53
  62  733.2745
  63  987.3461
  64  733.295
  65  898.8452
  66  1192.174
  67  1300.295
  68  1118.836
  69  1162.149
  70  1031.473
  71  971.5961
  72  721.9771
  73  778.7307
  74  1008.63
  75  1127.968
  76  1409.801
  77  1429.691
  78  1089.682
  79  1003.08
  80  1569.961
  81  1242.299
  82  1102.129
  83  1037.416
  84  926.5162
  85  962.2947
  86  870.4855
  87  967.5905
  88  1269.68
  89  625.9053
  90  868.9367
  91  1008.254
  92  1008.143
  93  508.5787
  94  531.3653
  95  900.1993
  96  1149.2
  97  1091.136
  98  1106.793
  99  816.6052
 100  781.2325
 101  855.8939
 102  1075.301
 103  1098.504
 104  1208.141
 105  1099
 106  1154.398
 107  1138.199
 108  763.7076
 109  960.7353
 110  1182.888
 111  916.7604
 112  662.9272
 113  571.9698
 114  297.3588
 115  425.8637
 116  468.5667
 117  549.8641
 118  512.4282
 119  676.6223
 120  791.019
 121  207.4577
 122  203.022
 123  526.0943
 124  691.3141
 125  579.6857
 126  480.9004
 127  830.7551
 128  883.7073
 129  1043.872
 130  641.4981
 131  990.3153
 132  1198.829
 133  1053.116
 134  1072.689
 135  1182.826
 136  1169.279
 137  1237.22
 138  848.8641
 139  807.7152
 140  793.6097
 141  966.8915
 142  1057.859
 143  1134.774
 144  1133.374
 145  813.8426
 146  1017.903
 147  1196.1
 148  1220.19
 149  961.461
 150  641.5182
 151  717.2501
 152  955.282
 153  990.336
 154  864.9382
 155  831.3192
 156  914.1493
 157  789.3068
 158  796.1129
 159  789.0221
 160  1054.579
 161  1303.401
 162  1190.064
 163  1100.676
 164  1286.84
 165  1229.599
 166  1119.378
 167  1121.475
 168  855.2664
 169  845.8791
 170  758.0452
 171  949.2939
 172  767.1353
 173  999.2603
 174  1216.654
 175  874.4934
 176  924.1381
 177  1048.396
 178  986.5346
 179  1181.474
 180  1016.639
 181  926.4984
 182  955.457
 183  1217.931
 184  998.5792
 185  1056.496
 186  684.418
 187  950.0737
 188  792.2707
 189  832.8368
 190  1053.702
 191  1116.57
 192  1116.312
 193  910.3116
 194  973.5319
 195  1326.072
 196  1457.762
 197  1766.436
 198  1780.731
 199  2035.288
 200  2240.478
 201  1848.828
 202  1562.924
 203  1172.363
 204  966.7777
 205  806.6992
 206  679.2028
 207  797.6274
 208  1025.803
 209  970.9443
 210  1056.884
 211  1317.986
 212  1182.426
 213  1189.01
 214  1350.626
 215  1286.578
 216  1375.759
 217  1310.481
 218  1503.94
 219  1316.368
 220  886.0168
 221  647.2607
 222  706.3793
 223  785.5667
 224  372.6191
 225  555.6488
 226  736.6727
 227  625.0328
 228  190.8685
 229  341.6782
 230  674.4003
 231  693.5946
 232  428.9026
 233  508.1491
 234  980.2636
 235  948.0258
 236  1036.93
 237  489.1511
 238  283.6337
 239  513.4178
 240  528.0994
 241  657.0935
 242  377.652
 243  606.1048
 244  1029.964
 245  473.2088
 246  384.8348
 247  690.2219
 248  551.0004
 249  269.2519
 250  252.3258
 251  1010.918
 252  1058.152
 253  826.1184
 254  558.0701
 255  752.7828
 256  400.2015
 257  354.1681
 258  503.6857
 259  848.3046
 260  916.83
 261  970.5445
 262  1212.15
 263  1027.966
 264  889.5856
 265  680.8607
 266  631.8262
 267  1005.888
 268  964.2603
 269  569.0794
 270  833.6955
 271  1030.283
 272  1064.082
 273  1037.196
 274  723.0113
 275  945.0772
 276  1223.949
 277  1042.31
 278  812.6648
 279  465.5724
 280  530.931
 281  486.3731
 282  532.4966
 283  518.6323
 284  457.399
 285  1084.979
 286  976.1713
 287  1036.291
 288  490.1951
 289  587.5794
 290  990.6928
 291  826.5875
 292  444.6457
 293  411.7586
 294  585.8077
 295  856.1429
 296  629.4792
 297  610.951
 298  722.7323
 299  720.1291
 300  654.7405
 301  703.2765
 302  926.1793
 303  669.8788
 304  771.5846
 305  707.0835
 306  696.9747
 307  740.2734
 308  517.4322
 309  927.6251
 310  644.2006
 311  586.7978
 312  663.8446
 313  677.9001
 314  386.9376
 315  403.7941
 316  461.6996
 317  489.4357
 318  635.207
 319  687.1932
 320  487.9035
 321  571.4027
 322  830.3144
 323  960.3375
 324  1240.429
 325  1332.343
 326  1192.11
 327  758.3069
 328  989.633
 329  1221.856
 330  1120.66
 331  1044.159
 332  1084.354
 333  1138.165
 334  881.3933
 335  946.4194
 336  1168.418
 337  697.1315
 338  903.8411
 339  1326.679
 340  1067.042
 341  954.3065
 342  1152.525
 343  1095.52
 344  732.1381
 345  1044.058
 346  1214.411
 347  1051.58
 348  1367.671
 349  1242.257
 350  1113.447
 351  1039.241
 352  1101.421
 353  945.4075
 354  1067.14
 355  1243.185
 356  956.9088
 357  1085.032
 358  984.1911
 359  1081.482
 360  1014.752
 361  997.5236
 362  1069.16
 363  688.58
 364  710.3163
 365  735.0385
 366  532.6702
 367  427.7349
 368  689.3933
 369  814.3439
 370  845.5787
 371  958.3151
 372  1467.558
 373  1483.586
 374  1043.417
 375  1146.077
 376  1365.104
 377  1344.055
 378  1334.196
 379  1198.797
 380  1146.393
 381  643.5833
 382  822.9182
 383  540.962
 384  707.1447
 385  631.234
 386  718.8739
 387  585.4637
 388  734.5068
 389  795.4886
 390  798.3243
 391  646.3885
 392  602.1871
 393  703.6769
 394  577.6401
 395  776.7737
 396  816.5834
 397  703.2493
 398  749.3311
 399  885.9661
 400  879.4708
 401  493.2503
 402  755.7416
 403  893.1887
 404  639.2524
 405  531.4156
 406  549.2222
 407  804.3837
 408  740.8826
 409  749.7225
 410  944.4378
 411  1000.015
 412  594.8536
 413  553.9756
 414  675.6469
 415  694.0193
 416  638.3553
 417  1066.991
 418  1092.825
 419  933.6847
 420  1026.505
 421  715.4174
 422  948.4372
 423  697.1376
 424  535.7203
 425  689.3791
 426  995.9291
 427  875.8051
 428  981.5616
 429  1130.337
 430  979.4098
 431  954.4994
 432  1140.88
 433  1286.536
 434  958.6228
 435  598.0703
 436  619.196
 437  694.7296
 438  612.6384
 439  744.1101
 440  802.707
 441  819.5927
 442  693.8441
 443  340.897
 444  184.08
 445  270.2389
 446  240.2739
 447  239.0735
 448  550.6783
 449  653.6858
 450  762.2327
 451  618.0323
 452  676.7769
 453  780.9297
 454  741.8834
 455  680.8665
 456  561.194
 457  771.0361
 458  736.6437
 459  752.2619
 460  972.5085
 461  1235.253
 462  938.7416
 463  599.264
 464  623.1983
 465  875.7047
 466  582.4225
 467  791.1934
 468  1071.027
 469  863.9529
 470  541.0197
 471  821.8447
 472  829.5788
 473  546.2421
 474  721.2991
 475  843.4998
 476  861.3047
 477  608.0951
 478  433.395
 479  311.2333
 480  639.3004
 481  910.8582
 482  771.2102
 483  585.5471
 484  805.0775
 485  1020.431
 486  723.8168
 487  951.2278
 488  710.8809
 489  589.3655
 490  707.7628
 491  1186.803
 492  1169.548
 493  852.9269
 494  1146.43
 495  1288.177
 496  1118.752
 497  782.9248
 498  859.0012
 499  1196.492
 500  1414.041
 501  1047.692
 502  990.4505
 503  991.0251
 504  1067.028
 505  1013.112
 506  853.6072
 507  855.3119
 508  827.9706
 509  1047.004
 510  967.4491
 511  1014.186
