# Input file       =  1181041046.106092_cleaned.dat
# Candidate        =  PSR_0332+5434
# Telescope        =  AR
# Epoch_topo       =  57913.456772061247
# Epoch_bary       =  N/A
# T_sample         =  0.002
# Data Folded      =  7340032
# Data Avg         =  0.11106101324445 
# Data StdDev      =  3.25362674503015 
# Profile Bins     =  512
# Profile Avg      =  1592.14393648013 
# Profile StdDev   =  389.566609419114 
# Reduced chi-sqr  =  1.129
# Prob(Noise)      <  0.0228   (~2.0 sigma)
# P_topo (ms)      =  714.50877096492   +/- 0.000293
# P'_topo (s/s)    =  -0                +/- 1.55e-10
# P''_topo (s/s^2) =  0                 +/- 6.83e-14
# P_bary (ms)      =  N/A
# P'_bary (s/s)    =  N/A
# P''_bary (s/s^2) =  N/A
# P_orb (s)        =  N/A
# asin(i)/c (s)    =  N/A
# eccentricity     =  N/A
# w (rad)          =  N/A
# T_peri           =  N/A
######################################################
   0  1433.609
   1  1428.57
   2  1388.94
   3  1420.238
   4  1325.135
   5  1410.921
   6  1440.25
   7  1755.698
   8  1705.882
   9  1522.815
  10  1641.187
  11  2145.086
  12  2180.542
  13  1614.891
  14  1459.652
  15  1679.678
  16  1624.88
  17  1549.366
  18  1449.107
  19  1406.96
  20  1570.093
  21  1572.62
  22  1475.347
  23  1663.719
  24  1523.382
  25  1691.539
  26  1684.973
  27  1433.738
  28  1712.367
  29  1557.837
  30  1822.092
  31  1753.606
  32  1862.677
  33  1681.682
  34  1818.334
  35  1947.689
  36  1604.477
  37  1218.47
  38  1152.568
  39  1597.158
  40  1714.977
  41  1782.083
  42  1879.703
  43  1816.24
  44  1823.642
  45  2071.711
  46  1825.718
  47  1983.371
  48  2045.551
  49  1968.735
  50  1873.39
  51  2058.064
  52  2089.762
  53  1981.872
  54  1976.524
  55  1726.649
  56  1849.776
  57  1903.947
  58  1583.11
  59  1358.488
  60  1643.285
  61  1541.985
  62  1397.789
  63  1355.619
  64  1388.433
  65  1188.901
  66  1382.302
  67  1344.406
  68  1105.035
  69  1041.186
  70  1270.832
  71  1386.595
  72  1352.392
  73  1437.675
  74  1439.804
  75  1480.218
  76  1347.774
  77  1675.625
  78  1814.125
  79  1556.882
  80  1509.823
  81  1595.324
  82  1953.426
  83  1699.97
  84  1465.411
  85  1598.238
  86  1585.518
  87  1344.863
  88  1393.937
  89  1198.483
  90  1220.978
  91  1470.175
  92  1540.885
  93  1445.213
  94  1270.239
  95  1100.24
  96  1135.797
  97  1202.758
  98  1520.587
  99  1756.201
 100  1579.32
 101  1488.012
 102  1403.219
 103  1322.098
 104  1509.193
 105  1368.279
 106  1244.439
 107  1488.632
 108  1594.472
 109  1352.613
 110  1456.077
 111  1469.083
 112  1286.688
 113  1435.93
 114  1696.425
 115  1573.338
 116  1414.628
 117  1558.744
 118  1487.29
 119  1138.499
 120  1132.986
 121  1445.948
 122  1564.387
 123  1348.705
 124  1300.085
 125  1110.859
 126  1089.235
 127  1221.946
 128  1362.964
 129  1505.754
 130  1247.413
 131  1572.588
 132  1985.723
 133  1955.167
 134  1773.545
 135  1982.951
 136  1564.022
 137  1472.336
 138  1760.098
 139  1817.754
 140  1785.017
 141  1306
 142  1302.141
 143  1417.467
 144  1171.612
 145  1579.956
 146  1634.987
 147  1354.179
 148  1425.292
 149  1522.505
 150  1450.493
 151  1507.973
 152  1928.785
 153  1935.502
 154  1663.401
 155  1288.657
 156  1677.406
 157  1585.76
 158  1481.383
 159  1997.119
 160  1745.872
 161  1704.92
 162  1377.486
 163  1384.98
 164  1552.71
 165  1404.26
 166  1335.204
 167  1501.477
 168  1748.134
 169  2031.82
 170  1720.859
 171  1890.375
 172  1844.766
 173  1903.18
 174  1670.528
 175  1624.836
 176  1549.009
 177  1437.289
 178  1638.609
 179  1730.942
 180  1503.812
 181  1757.815
 182  1546.593
 183  1509.243
 184  1766.108
 185  1438.376
 186  1394.791
 187  1485.037
 188  1698.526
 189  1747.372
 190  1517.335
 191  1232.401
 192  1284.027
 193  1034.053
 194  1316.911
 195  1269.168
 196  1596.87
 197  1493.249
 198  1533.545
 199  1601.477
 200  1493.32
 201  1559.345
 202  1459.141
 203  1596.668
 204  1669.332
 205  1526.631
 206  1692.476
 207  1825.234
 208  1460.332
 209  1586.756
 210  1562.051
 211  1645.728
 212  1718.804
 213  1832.817
 214  1994.894
 215  1766.325
 216  1575.283
 217  1852.82
 218  1828.801
 219  1704.105
 220  1757.651
 221  1725.327
 222  1441.305
 223  1383.236
 224  1880.073
 225  1763.782
 226  1752.56
 227  1825.639
 228  1615.115
 229  1205.032
 230  1508.716
 231  1668.388
 232  1400.45
 233  1629.855
 234  1510.93
 235  1553.728
 236  1221.403
 237  1378.115
 238  1381.102
 239  1250.45
 240  1394.201
 241  1138.321
 242  1474.442
 243  1514.076
 244  1655.742
 245  1536.853
 246  1171.403
 247  1377.69
 248  1325.252
 249  1380.941
 250  1421.816
 251  1512.288
 252  1456.183
 253  1950.935
 254  1912.886
 255  1512.752
 256  1451.518
 257  1506.005
 258  1722.041
 259  1747.677
 260  1768.136
 261  1823.354
 262  2031.572
 263  2099.311
 264  1844.038
 265  1519.145
 266  1291.704
 267  1352.516
 268  1474.704
 269  1657.723
 270  2016.215
 271  1890.614
 272  1586.547
 273  1587.213
 274  1747.938
 275  1877.122
 276  1520.776
 277  1598.553
 278  1798.453
 279  1593.268
 280  1886.606
 281  1858.719
 282  1442.008
 283  1276.457
 284  1266.658
 285  1524.515
 286  1570.555
 287  1535.363
 288  1946.154
 289  2681.154
 290  2637.962
 291  2896.707
 292  3027.352
 293  3051.242
 294  2713.172
 295  2226.422
 296  2080.997
 297  1947.868
 298  2075.962
 299  2044.17
 300  1793.811
 301  1816.999
 302  1925.402
 303  2170.546
 304  2082.604
 305  2003.817
 306  1919.209
 307  2390.969
 308  2385.861
 309  1996.865
 310  1960.4
 311  2194.176
 312  1951.343
 313  1614.741
 314  1498.823
 315  1290.421
 316  1291.012
 317  1602.097
 318  1599.57
 319  1484.279
 320  1533.555
 321  1752.997
 322  1608.417
 323  1547.23
 324  1530.453
 325  1301.44
 326  1417.243
 327  1366.73
 328  1420.953
 329  1545.755
 330  1442.962
 331  1584.839
 332  1492.31
 333  1514.267
 334  1210.455
 335  1222.177
 336  1487.424
 337  1627.571
 338  1768.224
 339  1732.684
 340  1688.513
 341  1885.545
 342  1712.947
 343  2047.271
 344  2290.45
 345  2230.97
 346  2343.801
 347  1875.544
 348  1760.233
 349  1934.463
 350  2039.715
 351  1976.598
 352  1596.723
 353  1552.357
 354  1687.279
 355  1633.299
 356  1489.37
 357  1479.251
 358  1357.504
 359  1548.587
 360  1678.641
 361  1573.133
 362  1343.578
 363  1227.144
 364  1211.02
 365  1427.323
 366  1390.438
 367  1333.627
 368  1259.198
 369  990.6472
 370  1610.353
 371  1700.265
 372  1731.564
 373  1603.59
 374  1465.915
 375  1822.128
 376  1975.455
 377  1922.282
 378  1656.832
 379  1774.53
 380  1902.481
 381  1753.821
 382  1866.844
 383  1876.469
 384  2101.413
 385  1853.841
 386  1877.489
 387  1801.73
 388  1769.392
 389  2051.078
 390  2041.941
 391  2167.387
 392  2093.401
 393  1511.703
 394  1886.137
 395  1914.184
 396  2046.212
 397  2088.242
 398  1487.659
 399  1605.125
 400  1405.454
 401  1604.782
 402  1448.468
 403  947.8858
 404  1283.137
 405  1471.9
 406  1563.973
 407  1566.995
 408  1188.637
 409  1285.025
 410  1264.622
 411  985.1193
 412  970.4345
 413  1048.757
 414  974.3826
 415  1245.212
 416  1402.332
 417  1264.976
 418  1342.805
 419  1109.991
 420  1043.097
 421  1157.165
 422  1439.613
 423  1154.125
 424  979.0406
 425  1209.286
 426  1586.524
 427  1572.548
 428  1373.4
 429  1547.307
 430  1642.608
 431  1598.288
 432  1323.525
 433  1302.496
 434  1614.314
 435  1476.682
 436  1687.23
 437  1591.814
 438  1518.22
 439  1245.189
 440  1524.428
 441  1487.405
 442  1062.041
 443  1313.679
 444  1634.443
 445  1589.264
 446  1489.099
 447  1385.133
 448  1722.547
 449  1394.04
 450  1280.782
 451  1171.002
 452  1138.356
 453  1359.308
 454  1085.763
 455  1423.044
 456  1448.775
 457  1090.818
 458  957.7158
 459  1480.639
 460  1448.447
 461  1571.055
 462  1774.257
 463  1727.05
 464  1457.451
 465  1400.036
 466  1515.676
 467  1529.694
 468  1575.573
 469  1426.185
 470  1323.674
 471  1466.06
 472  1745.833
 473  1548.19
 474  1631.765
 475  1829.666
 476  1853.682
 477  2086.24
 478  2300.286
 479  2184.877
 480  1821.489
 481  1864.704
 482  1973.449
 483  1715.557
 484  1686.134
 485  1816.1
 486  1421.495
 487  1578.211
 488  1407.53
 489  1562.581
 490  1402.165
 491  1032.701
 492  1118.912
 493  1227.455
 494  1362.016
 495  1401.604
 496  1737.476
 497  1667.499
 498  1577.013
 499  1780.314
 500  1590.575
 501  1554.745
 502  1320.368
 503  1428.298
 504  1568.643
 505  1408.667
 506  1366.744
 507  1455.148
 508  1023.72
 509  1517.645
 510  1579.47
 511  1575.922
