# Input file       =  1181041046.106092_cleaned.dat
# Candidate        =  PSR_0332+5434
# Telescope        =  AR
# Epoch_topo       =  57913.456772061247
# Epoch_bary       =  N/A
# T_sample         =  0.002
# Data Folded      =  7340032
# Data Avg         =  0.11106101324445 
# Data StdDev      =  3.25362674503015 
# Profile Bins     =  512
# Profile Avg      =  1592.1439365798  
# Profile StdDev   =  389.566609419114 
# Reduced chi-sqr  =  1.130
# Prob(Noise)      <  0.0216   (~2.0 sigma)
# P_topo (ms)      =  714.508771051753  +/- 0.000293
# P'_topo (s/s)    =  -0                +/- 1.55e-10
# P''_topo (s/s^2) =  0                 +/- 6.83e-14
# P_bary (ms)      =  N/A
# P'_bary (s/s)    =  N/A
# P''_bary (s/s^2) =  N/A
# P_orb (s)        =  N/A
# asin(i)/c (s)    =  N/A
# eccentricity     =  N/A
# w (rad)          =  N/A
# T_peri           =  N/A
######################################################
   0  1848.098
   1  2139.035
   2  2293.189
   3  2171.072
   4  1784.914
   5  1888.089
   6  1958.404
   7  1688.851
   8  1715.331
   9  1792.878
  10  1397.611
  11  1593.642
  12  1393.335
  13  1567.593
  14  1368.148
  15  1028.413
  16  1127.782
  17  1255.622
  18  1361.92
  19  1407.992
  20  1761.271
  21  1640.033
  22  1589.737
  23  1785.694
  24  1572.676
  25  1542.423
  26  1314.931
  27  1451.764
  28  1574.985
  29  1386.825
  30  1387.043
  31  1421.825
  32  1031.693
  33  1556.489
  34  1574.925
  35  1556.47
  36  1437.069
  37  1429.803
  38  1383.579
  39  1410.936
  40  1333.379
  41  1404.166
  42  1456.326
  43  1787.388
  44  1672.017
  45  1514.999
  46  1684.977
  47  2173.734
  48  2155.239
  49  1556.151
  50  1491.446
  51  1681.327
  52  1617.789
  53  1538.814
  54  1443.848
  55  1410.047
  56  1591.167
  57  1555.08
  58  1486.423
  59  1660.074
  60  1525.081
  61  1715.638
  62  1645.047
  63  1454.459
  64  1706.638
  65  1578.18
  66  1834.954
  67  1739.368
  68  1869.588
  69  1660.023
  70  1861.695
  71  1921.704
  72  1568.702
  73  1186.34
  74  1182.661
  75  1628.55
  76  1712.925
  77  1802.417
  78  1871.54
  79  1806.338
  80  1855.047
  81  2048.016
  82  1829.813
  83  1990.545
  84  2057.123
  85  1960.459
  86  1863.981
  87  2095.214
  88  2058.922
  89  2006.546
  90  1937.949
  91  1717.629
  92  1868.948
  93  1885.419
  94  1565.431
  95  1352.663
  96  1680.734
  97  1491.477
  98  1412.059
  99  1352.132
 100  1370.887
 101  1189.563
 102  1397.927
 103  1316.465
 104  1098.54
 105  1044.866
 106  1305.668
 107  1374.611
 108  1351.694
 109  1450.513
 110  1428.168
 111  1491.397
 112  1344.967
 113  1726.157
 114  1782.488
 115  1553.691
 116  1507.036
 117  1623.08
 118  1947.938
 119  1666.89
 120  1458.992
 121  1621.78
 122  1567.239
 123  1322.083
 124  1416.454
 125  1162.471
 126  1259.265
 127  1493.411
 128  1527.068
 129  1437.86
 130  1227.557
 131  1116.323
 132  1110.999
 133  1250.994
 134  1538.86
 135  1755.977
 136  1568.113
 137  1486.526
 138  1378.848
 139  1347.324
 140  1504.88
 141  1350.54
 142  1260.561
 143  1496.508
 144  1591.145
 145  1325.181
 146  1482.368
 147  1452.268
 148  1292.115
 149  1478.267
 150  1678.251
 151  1557.307
 152  1420.394
 153  1571.335
 154  1462.358
 155  1102.048
 156  1163.961
 157  1456.262
 158  1568.301
 159  1327.942
 160  1289.558
 161  1086.166
 162  1121.205
 163  1224.629
 164  1396.667
 165  1471.253
 166  1258.625
 167  1626.952
 168  1998.074
 169  1924.878
 170  1789.836
 171  1991.426
 172  1502.762
 173  1504.347
 174  1766.201
 175  1835.323
 176  1749.559
 177  1260.187
 178  1344.302
 179  1381.869
 180  1198.357
 181  1604.348
 182  1606.894
 183  1348.054
 184  1431.777
 185  1523.42
 186  1428.185
 187  1568.613
 188  1938.394
 189  1934.967
 190  1617.428
 191  1276.427
 192  1719.013
 193  1541.449
 194  1531.136
 195  2007.623
 196  1726.953
 197  1690.337
 198  1347.378
 199  1416.13
 200  1540.866
 201  1389.362
 202  1341.616
 203  1517.768
 204  1783.327
 205  2034.218
 206  1692.406
 207  1935.864
 208  1813.997
 209  1916.074
 210  1636.387
 211  1639.469
 212  1523.431
 213  1445.805
 214  1667.703
 215  1686.955
 216  1532.803
 217  1759.743
 218  1518.142
 219  1534.88
 220  1768.892
 221  1409.786
 222  1399.573
 223  1501.785
 224  1704.379
 225  1747
 226  1471.666
 227  1236.445
 228  1268.653
 229  1040.584
 230  1330.649
 231  1293.436
 232  1598.127
 233  1488.713
 234  1532.771
 235  1608.072
 236  1482.55
 237  1567.497
 238  1460.754
 239  1613.762
 240  1662.865
 241  1502.402
 242  1730.384
 243  1809.795
 244  1455.175
 245  1595.937
 246  1549.283
 247  1661.93
 248  1719.942
 249  1850.656
 250  2000.808
 251  1720.382
 252  1582.232
 253  1877.184
 254  1818.223
 255  1694.64
 256  1777.599
 257  1712.885
 258  1408.733
 259  1412.971
 260  1895.262
 261  1755.372
 262  1732.88
 263  1841.697
 264  1571.063
 265  1213.863
 266  1552.149
 267  1625.761
 268  1437.218
 269  1604.336
 270  1528.305
 271  1502.321
 272  1248.329
 273  1374.015
 274  1384.702
 275  1238.367
 276  1391.586
 277  1136.218
 278  1504.261
 279  1512.34
 280  1669.002
 281  1502.338
 282  1167.146
 283  1405.933
 284  1309.933
 285  1411.98
 286  1397.488
 287  1515.02
 288  1470.553
 289  2000.316
 290  1861.825
 291  1493.338
 292  1466.047
 293  1509.056
 294  1745.069
 295  1733.223
 296  1772.237
 297  1828.312
 298  2060.389
 299  2080.588
 300  1823.307
 301  1475.543
 302  1303.193
 303  1353.39
 304  1487.215
 305  1694.151
 306  2030.225
 307  1860.754
 308  1572.037
 309  1590.349
 310  1775.803
 311  1844.395
 312  1519.574
 313  1620.883
 314  1804.124
 315  1597.489
 316  1913.949
 317  1810.13
 318  1413.411
 319  1275.796
 320  1268.656
 321  1546.064
 322  1560.129
 323  1549.024
 324  2029.99
 325  2715.169
 326  2629.948
 327  2932.883
 328  3008.3
 329  3053.453
 330  2655.438
 331  2211.038
 332  2055.358
 333  1965.084
 334  2072.529
 335  2026.336
 336  1787.709
 337  1831.92
 338  1942.516
 339  2170.624
 340  2074.681
 341  1986.524
 342  1950.233
 343  2437.106
 344  2327.66
 345  1981.986
 346  1964.67
 347  2218.021
 348  1895.834
 349  1612.901
 350  1487.425
 351  1260.587
 352  1317.907
 353  1613.025
 354  1581.524
 355  1491.911
 356  1555.715
 357  1754.977
 358  1592.091
 359  1536.599
 360  1529.372
 361  1291.221
 362  1434.911
 363  1360.184
 364  1435.775
 365  1543.577
 366  1457.914
 367  1567.348
 368  1491.852
 369  1497.28
 370  1198.969
 371  1232.102
 372  1510.43
 373  1634.022
 374  1798.824
 375  1692.25
 376  1726.738
 377  1854.792
 378  1720.566
 379  2107.142
 380  2281.268
 381  2236.322
 382  2331.84
 383  1831.188
 384  1763.399
 385  1965.901
 386  2043.204
 387  1953.059
 388  1562.274
 389  1580.884
 390  1675.071
 391  1625.282
 392  1469.648
 393  1486.042
 394  1354.403
 395  1583.709
 396  1667.488
 397  1553.741
 398  1326.751
 399  1225.805
 400  1215.156
 401  1441.16
 402  1369.621
 403  1352.164
 404  1216.209
 405  1010.445
 406  1662.732
 407  1683.951
 408  1745.015
 409  1567.609
 410  1480.147
 411  1870.434
 412  1960.85
 413  1911.414
 414  1648.144
 415  1805.892
 416  1888.737
 417  1762.733
 418  1860
 419  1887.538
 420  2104.405
 421  1839.4
 422  1886.949
 423  1788.417
 424  1784.199
 425  2065.268
 426  2043.199
 427  2187.017
 428  2043.317
 429  1500.645
 430  1923.014
 431  1890.466
 432  2087.862
 433  2035.918
 434  1470.839
 435  1605.418
 436  1390.632
 437  1628.925
 438  1383.938
 439  962.9467
 440  1313.716
 441  1477.954
 442  1569.819
 443  1547.748
 444  1165.325
 445  1315.94
 446  1229.853
 447  978.8253
 448  981.2488
 449  1034.371
 450  988.3541
 451  1269.783
 452  1397.59
 453  1260.601
 454  1328.408
 455  1100.746
 456  1036.762
 457  1195.23
 458  1431.675
 459  1132.091
 460  976.9205
 461  1243.918
 462  1632.022
 463  1526.534
 464  1380.92
 465  1545.147
 466  1663.682
 467  1582.624
 468  1308.114
 469  1317.478
 470  1626.75
 471  1465.504
 472  1707.504
 473  1581.56
 474  1496.018
 475  1243.732
 476  1564.663
 477  1445.863
 478  1039.626
 479  1362.261
 480  1642.699
 481  1584.065
 482  1462.068
 483  1401.792
 484  1729.949
 485  1357.993
 486  1288.571
 487  1137.611
 488  1178.216
 489  1335.982
 490  1105.021
 491  1441.78
 492  1442.084
 493  1041.711
 494  992.4139
 495  1500.84
 496  1446.217
 497  1592.284
 498  1786.457
 499  1704.291
 500  1434.311
 501  1417.828
 502  1516.301
 503  1529.558
 504  1564.21
 505  1416.768
 506  1319.659
 507  1504.228
 508  1733.247
 509  1544.812
 510  1628.256
 511  1863.473
