# Input file       =  1181112274.121032_cleaned.dat
# Candidate        =  PSR_0332+5434
# Telescope        =  AR
# Epoch_topo       =  57914.281170382317
# Epoch_bary       =  N/A
# T_sample         =  0.002
# Data Folded      =  7340032
# Data Avg         =  0.0683695721745609
# Data StdDev      =  2.52168925528937 
# Profile Bins     =  512
# Profile Avg      =  979.989809049553 
# Profile StdDev   =  301.929511334462 
# Reduced chi-sqr  =  1.000
# Prob(Noise)      <  0.492   (~0.0 sigma)
# P_topo (ms)      =  714.507657048023  +/- 0.000581
# P'_topo (s/s)    =  -0                +/- 3.06e-10
# P''_topo (s/s^2) =  0                 +/- 1.35e-13
# P_bary (ms)      =  N/A
# P'_bary (s/s)    =  N/A
# P''_bary (s/s^2) =  N/A
# P_orb (s)        =  N/A
# asin(i)/c (s)    =  N/A
# eccentricity     =  N/A
# w (rad)          =  N/A
# T_peri           =  N/A
######################################################
   0  1214.98
   1  1099.1
   2  995.4711
   3  1098.24
   4  973.7041
   5  1020.539
   6  1329.19
   7  1121.912
   8  830.2754
   9  949.4022
  10  834.4854
  11  823.8937
  12  1325.611
  13  1309.467
  14  1341.494
  15  1202.227
  16  1281.785
  17  958.6111
  18  1165.573
  19  1228.322
  20  1177.657
  21  1112.755
  22  786.2129
  23  717.3021
  24  1012.681
  25  1160.295
  26  1117.575
  27  1121.737
  28  947.0902
  29  830.6175
  30  657.1385
  31  833.9996
  32  776.9342
  33  814.6572
  34  664.3661
  35  660.363
  36  910.4272
  37  690.5259
  38  643.394
  39  1024.956
  40  1023.211
  41  915.9039
  42  844.9366
  43  875.7172
  44  752.2197
  45  700.4186
  46  733.6941
  47  790.0156
  48  938.1045
  49  868.2343
  50  832.4254
  51  1009.845
  52  871.5343
  53  942.288
  54  1121.33
  55  957.3118
  56  1152.456
  57  791.601
  58  757.0092
  59  842.5209
  60  747.8619
  61  1170.291
  62  986
  63  1028.305
  64  1177.855
  65  1161.747
  66  949.53
  67  1033.579
  68  1292.56
  69  853.7557
  70  570.675
  71  628.7208
  72  780.1635
  73  972.1411
  74  770.4092
  75  653.6943
  76  778.9445
  77  746.0735
  78  958.9848
  79  766.5356
  80  639.9244
  81  720.5261
  82  658.2408
  83  808.0397
  84  964.7458
  85  883.3455
  86  813.3937
  87  555.9016
  88  551.7213
  89  862.2198
  90  1071.544
  91  946.2095
  92  1005.141
  93  860.4062
  94  1047.26
  95  834.3604
  96  896.3812
  97  1186.554
  98  1250.593
  99  983.1892
 100  1063.177
 101  981.7946
 102  846.8716
 103  1027.46
 104  851.6514
 105  994.9767
 106  1168.464
 107  895.6404
 108  752.4742
 109  813.2748
 110  824.3834
 111  920.5034
 112  885.7721
 113  1030.835
 114  840.2322
 115  1079.682
 116  1042.687
 117  1168.474
 118  1027.765
 119  1268.927
 120  1326.654
 121  1284.499
 122  1257.002
 123  1113.961
 124  1011.689
 125  841.4012
 126  851.3685
 127  878.6105
 128  890.4734
 129  1192.468
 130  1054.596
 131  802.5518
 132  852.4028
 133  829.0671
 134  1050.742
 135  883.3292
 136  894.6591
 137  986.647
 138  1043.375
 139  1016.68
 140  665.2867
 141  783.7016
 142  926.8328
 143  720.2307
 144  534.0533
 145  503.7628
 146  745.5029
 147  597.2847
 148  965.6913
 149  810.7796
 150  448.8846
 151  650.2361
 152  886.7194
 153  828.1201
 154  870.5137
 155  1027.376
 156  1014.434
 157  835.9014
 158  648.9023
 159  811.9612
 160  1102.337
 161  958.9594
 162  893.977
 163  683.4379
 164  685.5078
 165  761.9673
 166  915.9609
 167  1087.686
 168  1010.348
 169  752.486
 170  663.6124
 171  642.2421
 172  698.488
 173  625.2551
 174  512.0888
 175  988.6821
 176  852.0943
 177  818.5081
 178  895.0779
 179  605.4384
 180  1047.308
 181  1059.98
 182  827.6124
 183  779.2178
 184  717.0228
 185  585.1541
 186  614.2382
 187  828.0959
 188  1175.459
 189  1129.879
 190  1119.775
 191  1204.1
 192  939.2071
 193  737.908
 194  1024.031
 195  898.4515
 196  1030.566
 197  975.5328
 198  979.9648
 199  914.8826
 200  951.4581
 201  964.8032
 202  1191.759
 203  1290.405
 204  1339.651
 205  1037.768
 206  705.3879
 207  903.5488
 208  782.5937
 209  917.6033
 210  1119.999
 211  1238.796
 212  944.3341
 213  1014.106
 214  678.7871
 215  623.492
 216  669.2013
 217  632.3378
 218  859.1343
 219  1080.451
 220  884.7961
 221  878.6616
 222  987.3022
 223  640.9421
 224  953.2265
 225  879.9163
 226  927.7117
 227  812.5444
 228  901.5276
 229  863.0365
 230  761.3648
 231  900.8218
 232  1061.377
 233  922.906
 234  1115.851
 235  1144.245
 236  1095.729
 237  1105.037
 238  1249.027
 239  1043.49
 240  1050.689
 241  867.4844
 242  770.8503
 243  1026.169
 244  1183.503
 245  1103.737
 246  1037.558
 247  809.5824
 248  882.2907
 249  1032.883
 250  940.269
 251  1085.168
 252  1230.914
 253  1153.204
 254  1108.547
 255  1046.647
 256  1022.615
 257  1173.089
 258  1072.151
 259  1112.89
 260  830.572
 261  747.8279
 262  853.3382
 263  1077.408
 264  1055.636
 265  752.5539
 266  809.9816
 267  809.9652
 268  833.3242
 269  880.6098
 270  1249.375
 271  1313.176
 272  1076.629
 273  846.0665
 274  958.6569
 275  1060.176
 276  969.4535
 277  1185.171
 278  1237.968
 279  939.5545
 280  652.618
 281  914.5939
 282  994.4421
 283  729.1694
 284  583.8467
 285  686.7927
 286  841.9658
 287  702.5237
 288  624.6791
 289  692.7951
 290  714.0011
 291  830.4498
 292  650
 293  881.2236
 294  839.137
 295  793.475
 296  1121.885
 297  1313.323
 298  1113.806
 299  894.9788
 300  1048.856
 301  1008.187
 302  987.088
 303  978.7587
 304  1059.751
 305  1366.702
 306  1306.615
 307  1030.713
 308  904.1987
 309  1040.979
 310  1400.28
 311  1188.747
 312  1147.951
 313  1093.236
 314  1186.238
 315  1365.19
 316  1277.203
 317  1033.901
 318  1200.598
 319  1516.804
 320  1414.36
 321  1264.61
 322  1045.142
 323  1139.389
 324  1055.883
 325  1442.041
 326  1738.272
 327  1953.144
 328  2170.69
 329  1875.854
 330  1592.209
 331  1586.61
 332  1242.031
 333  757.6041
 334  870.6296
 335  831.599
 336  876.1274
 337  806.2557
 338  701.2948
 339  684.3273
 340  1038.019
 341  1021.563
 342  1052.796
 343  960.4073
 344  1189.392
 345  1142.731
 346  1348.745
 347  1166.081
 348  1180.72
 349  900.0221
 350  781.5464
 351  819.5148
 352  780.019
 353  824.2206
 354  883.5048
 355  1159.438
 356  1143.094
 357  761.7188
 358  694.272
 359  721.327
 360  795.1577
 361  789.8149
 362  893.3724
 363  952.8866
 364  790.3145
 365  898.3268
 366  982.7945
 367  941.0155
 368  897.1381
 369  1000.502
 370  888.0158
 371  686.791
 372  637.6985
 373  820.9235
 374  647.0249
 375  584.3087
 376  674.0817
 377  1155.116
 378  852.1809
 379  1016.654
 380  1023.017
 381  965.3527
 382  1010.815
 383  1051.355
 384  919.9816
 385  1178.992
 386  997.2244
 387  1124.182
 388  945.3447
 389  994.6647
 390  1089.476
 391  955.677
 392  1118.735
 393  1032.735
 394  1157.684
 395  1115.042
 396  1011.397
 397  862.0359
 398  1068.584
 399  1086.805
 400  936.7934
 401  953.6422
 402  934.5181
 403  666.8581
 404  601.7168
 405  831.0554
 406  1157.314
 407  940.0939
 408  949.3735
 409  968.5071
 410  1015.771
 411  1046.182
 412  1002.262
 413  919.1514
 414  1004.972
 415  1098.989
 416  1186.958
 417  1226.041
 418  946.7457
 419  1215.237
 420  1512.347
 421  1035.899
 422  1087.798
 423  1032.875
 424  1179.362
 425  898.2704
 426  985.9791
 427  821.7813
 428  984.8485
 429  1026.503
 430  1060.14
 431  886.3325
 432  840.12
 433  808.4069
 434  927.5056
 435  1058.939
 436  1155.916
 437  922.5074
 438  763.0649
 439  890.7084
 440  1129.928
 441  1398.704
 442  1103.339
 443  937.6227
 444  1025.429
 445  1102.427
 446  1074.281
 447  999.288
 448  1054.369
 449  1151.913
 450  1344.123
 451  1072.444
 452  868.89
 453  1215.888
 454  1012.446
 455  675.4954
 456  647.8647
 457  1014.7
 458  1060.262
 459  1157.474
 460  1169.599
 461  1311.37
 462  1015.095
 463  1135.913
 464  1216.916
 465  1422.665
 466  1147.266
 467  1120.412
 468  1427.316
 469  1534.939
 470  1451.354
 471  1529.824
 472  1498.45
 473  1298.51
 474  1148.719
 475  1107.919
 476  1074.446
 477  1321.356
 478  1439.421
 479  1510.577
 480  1306.074
 481  1231.206
 482  1083.928
 483  1074.116
 484  1037.066
 485  1037.905
 486  939.6569
 487  954.8483
 488  1194.936
 489  1214.83
 490  937.6041
 491  898.3891
 492  894.3109
 493  1048.108
 494  909.3937
 495  926.3341
 496  1240.401
 497  1141.926
 498  1123.746
 499  1200.686
 500  871.6915
 501  793.7333
 502  1041.919
 503  1030.784
 504  1080.888
 505  894.8704
 506  719.2985
 507  984.5322
 508  873.0373
 509  993.2857
 510  855.5325
 511  969.1591
