# Input file       =  1181284629.109167_cleaned.dat
# Candidate        =  PSR_0332+5434
# Telescope        =  AR
# Epoch_topo       =  57916.276019782024
# Epoch_bary       =  N/A
# T_sample         =  0.002
# Data Folded      =  7340032
# Data Avg         =  0.0800868118468703
# Data StdDev      =  2.72614802195961 
# Profile Bins     =  512
# Profile Avg      =  1147.19322272838 
# Profile StdDev   =  326.409980281739 
# Reduced chi-sqr  =  1.078
# Prob(Noise)      <  0.108   (~1.2 sigma)
# P_topo (ms)      =  714.505780504165  +/- 0.00025
# P'_topo (s/s)    =  -0                +/- 1.32e-10
# P''_topo (s/s^2) =  0                 +/- 5.81e-14
# P_bary (ms)      =  N/A
# P'_bary (s/s)    =  N/A
# P''_bary (s/s^2) =  N/A
# P_orb (s)        =  N/A
# asin(i)/c (s)    =  N/A
# eccentricity     =  N/A
# w (rad)          =  N/A
# T_peri           =  N/A
######################################################
   0  974.7449
   1  1015.957
   2  973.873
   3  1134.357
   4  994.1614
   5  1204.211
   6  1349.723
   7  1213.026
   8  1423.428
   9  1373.254
  10  1423.653
  11  1141.44
  12  1190.41
  13  1388.201
  14  1161.67
  15  1392.013
  16  1316.409
  17  1271.736
  18  1315.333
  19  1288.406
  20  1369.701
  21  1150.355
  22  1108.094
  23  1033.465
  24  1097.716
  25  788.2399
  26  770.9691
  27  924.8452
  28  948.9963
  29  702.9922
  30  925.7993
  31  902.9133
  32  900.4008
  33  856.593
  34  867.6104
  35  1085.439
  36  890.3813
  37  1172.493
  38  1096.639
  39  711.5226
  40  680.7963
  41  714.6682
  42  1451.999
  43  1291.161
  44  1145.05
  45  1033.067
  46  793.7856
  47  937.3507
  48  858.665
  49  953.2347
  50  1093.38
  51  1092.403
  52  1562.122
  53  1286.978
  54  1110.856
  55  1029.653
  56  1122.079
  57  1293.934
  58  1377.432
  59  1312.23
  60  1176.937
  61  1171.695
  62  1086.148
  63  1160.005
  64  1079.325
  65  1260.344
  66  993.2277
  67  1107.502
  68  1237.283
  69  1215.821
  70  977.6323
  71  1241.464
  72  1325.758
  73  1360.209
  74  1484.226
  75  1197.587
  76  1087.98
  77  1051.933
  78  1009.167
  79  1032.408
  80  909.1988
  81  1026.338
  82  1340.393
  83  1331.022
  84  1247.225
  85  986.0268
  86  1250.955
  87  1302.249
  88  1206.879
  89  1489.285
  90  1381.904
  91  1392.597
  92  1392.757
  93  1526.18
  94  1311.198
  95  1113.366
  96  988.6347
  97  763.6655
  98  1041.769
  99  1079.151
 100  964.8864
 101  911.7458
 102  1054.533
 103  953.4144
 104  888.1144
 105  1251.206
 106  1477.644
 107  1558.451
 108  1358.593
 109  1015.39
 110  1190.361
 111  1636.085
 112  1665.321
 113  1376.267
 114  1024.611
 115  1112.608
 116  1260.785
 117  1186.965
 118  1245.126
 119  1053.699
 120  1073.085
 121  1086.547
 122  1348.432
 123  1311.976
 124  1111.686
 125  914.0528
 126  1276.216
 127  1196.615
 128  1071.172
 129  1377.707
 130  1395.842
 131  1158.603
 132  1253.407
 133  998.0339
 134  1279.108
 135  1332.459
 136  1044.473
 137  1061.272
 138  1008.26
 139  863.128
 140  948.006
 141  1025.223
 142  1170.956
 143  1334.828
 144  1519.486
 145  1297.794
 146  1327.883
 147  1267.947
 148  1118.489
 149  1458.859
 150  1481.483
 151  1310.686
 152  1132.523
 153  1322.427
 154  1166.021
 155  1398.015
 156  1219.436
 157  1335.774
 158  1379.574
 159  992.1609
 160  1051.29
 161  982.7319
 162  1278.753
 163  1110.414
 164  1081.596
 165  1298.734
 166  1260.788
 167  1145.578
 168  1229.358
 169  1216.129
 170  965.9326
 171  1216.494
 172  1274.162
 173  1268.743
 174  1072.945
 175  927.386
 176  1030.277
 177  977.7255
 178  1088.393
 179  842.8329
 180  948.9271
 181  1031.33
 182  1194.371
 183  1042.688
 184  1300.467
 185  1131.183
 186  968.0369
 187  896.3604
 188  1060.493
 189  1129.817
 190  1337.645
 191  1095.507
 192  783.4944
 193  1081.56
 194  882.4166
 195  616.8117
 196  1107.34
 197  1186.836
 198  1125.96
 199  1185.504
 200  1187.615
 201  1083.74
 202  1096.741
 203  868.621
 204  949.3748
 205  1044.556
 206  1034.322
 207  912.2588
 208  903.7811
 209  954.9413
 210  1142.058
 211  1391.347
 212  1246.035
 213  1172.924
 214  964.3651
 215  1074.014
 216  972.9124
 217  726.8807
 218  1077.884
 219  1345.426
 220  1371.67
 221  1129.63
 222  1068.896
 223  1012.449
 224  789.9708
 225  1117.301
 226  1113.52
 227  924.0591
 228  1110.979
 229  1173.411
 230  1244.94
 231  1185.04
 232  870.6709
 233  499.3181
 234  764.2426
 235  1033.617
 236  1426.611
 237  1731.94
 238  1726.209
 239  1274.871
 240  1179.559
 241  1006.299
 242  1134.663
 243  1177.093
 244  1251.689
 245  1075.917
 246  1047.059
 247  1346.451
 248  1243.777
 249  995.1498
 250  1148.234
 251  1264.314
 252  851.811
 253  1135.047
 254  1077.872
 255  1202.205
 256  1508.03
 257  1503.311
 258  1635.794
 259  1348.598
 260  1001.212
 261  875.1882
 262  1059.801
 263  1337.695
 264  1141.751
 265  1664.551
 266  1642.474
 267  1312.375
 268  1312.091
 269  1220.145
 270  1037.289
 271  1006.459
 272  1635.086
 273  1392.498
 274  1085.581
 275  1188.018
 276  1441.724
 277  1586.3
 278  1331.519
 279  1265.716
 280  1319.644
 281  1688.695
 282  1419.261
 283  1034.683
 284  1104.846
 285  1266.175
 286  1325.754
 287  1079.209
 288  1479.231
 289  1509.885
 290  1249.268
 291  900.9215
 292  855.8109
 293  1038.403
 294  1074.789
 295  1173.366
 296  1128.814
 297  1159.751
 298  1216.224
 299  1071.03
 300  1186.986
 301  873.5572
 302  1136.742
 303  1309.395
 304  1205.648
 305  1568.085
 306  1657.766
 307  1473.093
 308  1367.166
 309  1207.992
 310  1212.951
 311  1295.767
 312  1190.406
 313  1120.594
 314  1362.93
 315  1462.735
 316  1357.776
 317  1214.448
 318  995.1666
 319  1183.312
 320  1127.992
 321  1368.141
 322  1557.4
 323  1417.5
 324  1529.554
 325  1813.176
 326  2402.943
 327  2484.088
 328  2270.142
 329  2307.907
 330  2302.288
 331  2065.913
 332  1344.442
 333  1080.423
 334  1068.659
 335  1188.538
 336  970.6619
 337  988.8696
 338  1188.92
 339  977.9953
 340  1049.895
 341  1542.835
 342  1484.822
 343  1304.907
 344  985.0294
 345  1212.113
 346  1322.529
 347  1235.804
 348  1367.79
 349  928.7833
 350  809.951
 351  1097.568
 352  1214.191
 353  1265.807
 354  1303.528
 355  1160.63
 356  1148.958
 357  1177.698
 358  734.1331
 359  828.4244
 360  865.0963
 361  1268.173
 362  1528.363
 363  1297.368
 364  1322.103
 365  1481.699
 366  1299.287
 367  1215.239
 368  1260.968
 369  1271.987
 370  1039.3
 371  1141.798
 372  1207.067
 373  1307.818
 374  1125.029
 375  915.8998
 376  818.127
 377  979.4465
 378  999.3819
 379  1026.39
 380  1115.991
 381  1250.338
 382  1163.759
 383  1019.11
 384  842.7454
 385  710.2374
 386  731.2121
 387  857.9455
 388  1036.681
 389  1137.633
 390  1095.188
 391  1234.433
 392  1311.27
 393  1262.276
 394  1187.444
 395  1135.307
 396  1040.352
 397  836.0454
 398  1030.59
 399  757.9323
 400  798.3446
 401  905.2966
 402  1150.08
 403  1131.874
 404  1112.769
 405  1201.449
 406  1288.272
 407  1457.308
 408  1272.897
 409  1217.032
 410  1209.428
 411  1091.009
 412  974.5981
 413  1135.152
 414  1163.558
 415  1256.99
 416  1267.914
 417  1455.982
 418  1423.82
 419  1173.292
 420  878.4398
 421  776.2882
 422  1093.185
 423  1322.528
 424  1210.762
 425  986.0739
 426  961.6178
 427  1080.791
 428  1088.613
 429  1302.946
 430  1417.311
 431  1324.326
 432  1042.209
 433  966.882
 434  983.0738
 435  1334.388
 436  1021.393
 437  1035.34
 438  1042.629
 439  1186.592
 440  946.1558
 441  752.5558
 442  1027.566
 443  938.9187
 444  875.7376
 445  998.8394
 446  624.1805
 447  877.8582
 448  874.1254
 449  627.8534
 450  795.8458
 451  908.6242
 452  1107.527
 453  882.4778
 454  1047.793
 455  1109.995
 456  1270.292
 457  987.6226
 458  1215.297
 459  1053.837
 460  834.8484
 461  1076.967
 462  1094.085
 463  910.3987
 464  870.7518
 465  989.9984
 466  1046.095
 467  1017.071
 468  1048.439
 469  1485.729
 470  1254.09
 471  1141.342
 472  1190.311
 473  1123.705
 474  1207.072
 475  1176.099
 476  1045.328
 477  976.0569
 478  797.967
 479  690.9164
 480  945.8326
 481  1031.274
 482  1046.904
 483  1132.17
 484  955.3512
 485  865.3199
 486  767.3159
 487  945.4772
 488  1024.074
 489  720.8415
 490  764.5322
 491  1029.362
 492  1068.804
 493  1329.243
 494  1397.056
 495  1242.988
 496  904.3235
 497  956.2408
 498  916.0478
 499  787.8229
 500  748.9067
 501  989.7643
 502  1324.85
 503  1091.066
 504  1133.721
 505  794.4626
 506  647.1449
 507  791.3098
 508  763.0141
 509  822.9243
 510  826.368
 511  1017.923
