# Input file       =  1181644201.115532_cleaned.dat
# Candidate        =  PSR_0332+5434
# Telescope        =  AR
# Epoch_topo       =  57920.437732818653
# Epoch_bary       =  N/A
# T_sample         =  0.002
# Data Folded      =  7340032
# Data Avg         =  0.21899715715907 
# Data StdDev      =  4.4796880505325  
# Profile Bins     =  1024
# Profile Avg      =  1569.87835425491 
# Profile StdDev   =  379.268497051416 
# Reduced chi-sqr  =  0.911
# Prob(Noise)      <  0.98   (~0.0 sigma)
# P_topo (ms)      =  714.502251257085  +/- 0.000419
# P'_topo (s/s)    =  -0                +/- 2.21e-10
# P''_topo (s/s^2) =  0                 +/- 9.77e-14
# P_bary (ms)      =  N/A
# P'_bary (s/s)    =  N/A
# P''_bary (s/s^2) =  N/A
# P_orb (s)        =  N/A
# asin(i)/c (s)    =  N/A
# eccentricity     =  N/A
# w (rad)          =  N/A
# T_peri           =  N/A
######################################################
   0  1461.943
   1  1417.491
   2  1341.784
   3  1287.375
   4  1397.096
   5  1568.285
   6  1621.621
   7  1651.229
   8  1550.978
   9  1525.842
  10  1411.336
  11  1454.406
  12  1466.234
  13  1479.54
  14  1640.034
  15  1727.151
  16  1771.271
  17  1594.529
  18  1582.348
  19  1530.767
  20  1553.553
  21  1520.893
  22  1649.003
  23  1809.542
  24  1942.245
  25  2009.449
  26  1926.476
  27  1795.375
  28  1682.614
  29  1641.864
  30  1622.79
  31  1539.847
  32  1472.219
  33  1434.22
  34  1471.174
  35  1572.596
  36  1633.233
  37  1633.168
  38  1600.029
  39  1562.797
  40  1481.042
  41  1445.846
  42  1473.746
  43  1461.395
  44  1449.021
  45  1398.754
  46  1483.405
  47  1438.366
  48  1387.947
  49  1424.891
  50  1556.571
  51  1521.933
  52  1554.121
  53  1602.707
  54  1766.595
  55  1766.317
  56  1597.77
  57  1512.566
  58  1476.791
  59  1434.97
  60  1438.171
  61  1467.387
  62  1538.667
  63  1534.866
  64  1542.65
  65  1436.727
  66  1438.021
  67  1312.673
  68  1391.09
  69  1445.803
  70  1541.897
  71  1592.176
  72  1546.793
  73  1575.451
  74  1558.289
  75  1438.098
  76  1473.656
  77  1518.901
  78  1744.553
  79  1670.96
  80  1586.356
  81  1525.19
  82  1590.505
  83  1561.031
  84  1546.996
  85  1563.014
  86  1590.311
  87  1374.511
  88  1426.451
  89  1410.71
  90  1479.378
  91  1502.288
  92  1672.842
  93  1740.097
  94  1673.342
  95  1590.594
  96  1586.32
  97  1575.247
  98  1632.82
  99  1711.292
 100  1816.824
 101  1897.648
 102  1894.807
 103  1844.855
 104  1752.634
 105  1711.268
 106  1708.402
 107  1867.813
 108  2008.026
 109  1932.718
 110  1892.277
 111  1805.384
 112  1814.449
 113  1706.678
 114  1603.712
 115  1521.564
 116  1518.292
 117  1476.726
 118  1523.336
 119  1529.825
 120  1590.855
 121  1692.859
 122  1773.556
 123  1740.547
 124  1680.385
 125  1678.118
 126  1670.689
 127  1764.185
 128  1716.232
 129  1843.44
 130  1898.305
 131  1968.221
 132  1933.886
 133  1809.077
 134  1663.308
 135  1491.55
 136  1387.611
 137  1313.246
 138  1422.17
 139  1588.319
 140  1711.358
 141  1741.087
 142  1666.429
 143  1585.774
 144  1603.135
 145  1668.715
 146  1656.083
 147  1558.471
 148  1535.213
 149  1473.888
 150  1491.956
 151  1437.96
 152  1451.355
 153  1484.247
 154  1566.941
 155  1498.025
 156  1387.96
 157  1412.923
 158  1441.55
 159  1509.864
 160  1503.44
 161  1466.067
 162  1414.07
 163  1283.476
 164  1391.665
 165  1485.393
 166  1559.758
 167  1557.469
 168  1498.579
 169  1472.137
 170  1375.971
 171  1311.729
 172  1290.757
 173  1366.46
 174  1359.862
 175  1436.892
 176  1408.01
 177  1445.792
 178  1349.808
 179  1314.843
 180  1316.559
 181  1378.194
 182  1381.77
 183  1439.321
 184  1503.348
 185  1532.669
 186  1524.902
 187  1446.081
 188  1445.696
 189  1519.593
 190  1631.542
 191  1778.921
 192  1785.133
 193  1823.181
 194  1692.371
 195  1676.178
 196  1735.663
 197  1698.573
 198  1559.441
 199  1408.066
 200  1491.062
 201  1534.333
 202  1607.032
 203  1587.417
 204  1621.119
 205  1576.505
 206  1543.635
 207  1603.566
 208  1696.663
 209  1821.72
 210  1766.362
 211  1789.28
 212  1590.626
 213  1544.529
 214  1461.942
 215  1528.02
 216  1630.345
 217  1625.267
 218  1517.583
 219  1406.269
 220  1505.569
 221  1652.941
 222  1633.957
 223  1603.229
 224  1554.229
 225  1570.786
 226  1494.155
 227  1500.003
 228  1404.331
 229  1373.521
 230  1400.795
 231  1420.866
 232  1528
 233  1585.779
 234  1725.527
 235  1569.998
 236  1466.157
 237  1361.662
 238  1376.692
 239  1339.332
 240  1402.939
 241  1429.121
 242  1324.409
 243  1291.402
 244  1470.718
 245  1667.306
 246  1697.684
 247  1650.281
 248  1640.355
 249  1555.351
 250  1473.642
 251  1424.758
 252  1508.128
 253  1573.566
 254  1573.512
 255  1546.177
 256  1488.064
 257  1453.289
 258  1523.496
 259  1612.349
 260  1644.398
 261  1521.498
 262  1505.401
 263  1531.354
 264  1593.198
 265  1576.874
 266  1553.916
 267  1617.724
 268  1569.86
 269  1591.568
 270  1547.531
 271  1592.236
 272  1742.154
 273  1771.759
 274  1772.19
 275  1691.95
 276  1702.468
 277  1934.897
 278  2010.171
 279  1928.182
 280  1787.862
 281  1754.022
 282  1832.696
 283  1838.945
 284  1773.71
 285  1747.286
 286  1779.734
 287  1809.265
 288  1781.115
 289  1713.844
 290  1637.35
 291  1653.889
 292  1631.016
 293  1601.536
 294  1542.135
 295  1625.597
 296  1681.663
 297  1746.179
 298  1658.373
 299  1730.614
 300  1762.363
 301  1789.235
 302  1713.969
 303  1536.579
 304  1512.747
 305  1598.262
 306  1691.196
 307  1659.454
 308  1650.514
 309  1626.77
 310  1606.008
 311  1629.641
 312  1650.305
 313  1483.006
 314  1454.484
 315  1552.248
 316  1637.209
 317  1583.037
 318  1491.379
 319  1589.769
 320  1619.291
 321  1551.34
 322  1432.727
 323  1423.032
 324  1337.873
 325  1306.144
 326  1274.305
 327  1492.326
 328  1598.694
 329  1722.904
 330  1644.279
 331  1538.992
 332  1451.362
 333  1438.307
 334  1444.894
 335  1435.182
 336  1320.59
 337  1220.364
 338  1348.953
 339  1498.409
 340  1518.845
 341  1535.423
 342  1636.417
 343  1650.882
 344  1513.129
 345  1391.356
 346  1425.601
 347  1455.584
 348  1444.58
 349  1526.349
 350  1646.011
 351  1697.981
 352  1631
 353  1487.474
 354  1457.202
 355  1458.831
 356  1632.473
 357  1637.35
 358  1611.46
 359  1498.113
 360  1380.676
 361  1479.554
 362  1500.074
 363  1458.078
 364  1482.935
 365  1465.114
 366  1515.095
 367  1361.153
 368  1333.928
 369  1358.33
 370  1464.494
 371  1533.497
 372  1426.533
 373  1313.877
 374  1304.461
 375  1377.667
 376  1418.144
 377  1493.604
 378  1540.168
 379  1627.122
 380  1515.607
 381  1557.608
 382  1625.436
 383  1804.572
 384  1868.901
 385  1769.688
 386  1617.181
 387  1572.12
 388  1631.519
 389  1645.821
 390  1703.35
 391  1512.203
 392  1446.869
 393  1372.395
 394  1411.827
 395  1403.861
 396  1368.491
 397  1630.746
 398  1722.316
 399  1682.753
 400  1449.364
 401  1279.278
 402  1215.253
 403  1249.965
 404  1275.79
 405  1359.311
 406  1481.297
 407  1451.141
 408  1432.114
 409  1454.604
 410  1414.721
 411  1163.78
 412  1166.478
 413  1197.604
 414  1210.948
 415  1025.908
 416  1155.937
 417  1362.709
 418  1446.397
 419  1354.702
 420  1260.552
 421  1206.056
 422  1171.719
 423  1225.873
 424  1317.666
 425  1401.044
 426  1359.823
 427  1372.925
 428  1403.429
 429  1400.909
 430  1354.736
 431  1184.304
 432  1139.972
 433  1041.121
 434  1032.229
 435  1044.248
 436  1135.158
 437  1387.101
 438  1461.932
 439  1436.768
 440  1430.994
 441  1388.411
 442  1257.865
 443  1081.726
 444  1159.828
 445  1344.055
 446  1408.759
 447  1371.824
 448  1354.171
 449  1397.679
 450  1388.223
 451  1434.471
 452  1423.607
 453  1544.457
 454  1645.283
 455  1638.498
 456  1451.365
 457  1389.392
 458  1330.2
 459  1309.445
 460  1287.276
 461  1320.167
 462  1376.987
 463  1471.725
 464  1521.336
 465  1584.979
 466  1453.369
 467  1412.271
 468  1378.29
 469  1452.21
 470  1411.815
 471  1463.621
 472  1492.482
 473  1547.226
 474  1542.74
 475  1631.396
 476  1728.471
 477  1587.399
 478  1452.567
 479  1325.932
 480  1395.539
 481  1331.223
 482  1324.017
 483  1266.854
 484  1295.337
 485  1325.751
 486  1364.526
 487  1404.271
 488  1393.847
 489  1393.298
 490  1310.616
 491  1322.858
 492  1378.655
 493  1466.196
 494  1435.957
 495  1433.311
 496  1430.625
 497  1501.342
 498  1496.845
 499  1409.602
 500  1283.557
 501  1275.886
 502  1364.019
 503  1271.897
 504  1248.323
 505  1182.93
 506  1263.027
 507  1268.895
 508  1279.629
 509  1182.912
 510  1030.84
 511  1112.443
 512  1168.702
 513  1337.711
 514  1284.353
 515  1270.144
 516  1203.547
 517  1201.086
 518  1207.13
 519  1231.947
 520  1292.177
 521  1391.424
 522  1452.267
 523  1524.499
 524  1623.733
 525  1687.704
 526  1605.6
 527  1510.346
 528  1475.985
 529  1510.763
 530  1453.261
 531  1580.053
 532  1611.529
 533  1777.764
 534  1739.068
 535  1678.938
 536  1559.343
 537  1525.851
 538  1600.717
 539  1497.162
 540  1551.286
 541  1461.762
 542  1418.391
 543  1335.7
 544  1376.828
 545  1537.251
 546  1443.34
 547  1331.011
 548  1341.221
 549  1470.445
 550  1611.825
 551  1739.694
 552  1872.547
 553  1859.975
 554  1734.865
 555  1494.768
 556  1347.36
 557  1273.647
 558  1363.051
 559  1459.163
 560  1533.507
 561  1506.636
 562  1411.608
 563  1416.472
 564  1420.033
 565  1470.074
 566  1483.437
 567  1493.284
 568  1423.386
 569  1305.451
 570  1462.443
 571  1530.029
 572  1700.636
 573  1594.337
 574  1518.01
 575  1395.325
 576  1393.25
 577  1359.793
 578  1319.592
 579  1298.645
 580  1413.453
 581  1358.924
 582  1371.551
 583  1368.525
 584  1370.848
 585  1436.966
 586  1414.624
 587  1412.329
 588  1283.456
 589  1257.752
 590  1290
 591  1288.79
 592  1201.967
 593  1201.48
 594  1217.537
 595  1238.497
 596  1132.776
 597  1223.857
 598  1361.924
 599  1405.391
 600  1289.074
 601  1321.416
 602  1416.747
 603  1502.719
 604  1430.223
 605  1394.228
 606  1496.32
 607  1614.85
 608  1744.046
 609  1736.272
 610  1754.656
 611  1725.409
 612  1717.956
 613  1729.896
 614  1610.893
 615  1553.839
 616  1550.412
 617  1732.124
 618  1791.233
 619  1838.304
 620  1803.286
 621  1814.29
 622  1821.214
 623  1650.304
 624  1669.944
 625  1640.107
 626  1753.295
 627  1636.888
 628  1642.97
 629  1622.304
 630  1590.112
 631  1615.585
 632  1683.348
 633  1662.041
 634  1721.185
 635  1778.668
 636  1782.427
 637  1772.536
 638  1793.109
 639  1775.161
 640  1702.675
 641  1609.235
 642  1644.322
 643  1805.796
 644  1881.987
 645  1901.416
 646  1856.711
 647  1874.911
 648  1879.588
 649  1986.4
 650  2051.776
 651  2147.88
 652  2142.954
 653  2297.874
 654  2222.207
 655  2206.759
 656  2104.859
 657  2219.713
 658  2156.562
 659  2141.048
 660  2067.176
 661  1936.722
 662  1801.016
 663  1774.034
 664  1809.466
 665  1698.872
 666  1567.284
 667  1597.799
 668  1735.195
 669  1819.127
 670  1745.817
 671  1642.641
 672  1545.613
 673  1575.782
 674  1602.628
 675  1732.823
 676  1876.903
 677  1913.13
 678  1853.557
 679  1944.605
 680  1992.333
 681  2087.516
 682  1831.073
 683  1760.886
 684  1638.005
 685  1736.046
 686  1747.49
 687  1738.279
 688  1797.281
 689  1754.139
 690  1726.678
 691  1650.219
 692  1731.62
 693  1751.037
 694  1778.677
 695  1665.146
 696  1637.109
 697  1711.178
 698  1691.919
 699  1790.475
 700  1775.835
 701  1880.583
 702  1813.573
 703  1898.587
 704  1776.981
 705  1686.925
 706  1616.89
 707  1642.875
 708  1684.713
 709  1655.043
 710  1741.264
 711  1876.234
 712  1874.902
 713  1882.291
 714  1777.82
 715  1784.456
 716  1717.452
 717  1689.133
 718  1686.22
 719  1681.37
 720  1629.683
 721  1616.629
 722  1636.699
 723  1751.278
 724  1790.345
 725  1791.153
 726  1721.38
 727  1729.642
 728  1798.284
 729  1758.056
 730  1723.216
 731  1671.889
 732  1768.342
 733  1615.647
 734  1447.692
 735  1350.472
 736  1337.21
 737  1339.539
 738  1416.972
 739  1513.602
 740  1459.326
 741  1423.908
 742  1480.797
 743  1685.964
 744  1801.702
 745  1636.066
 746  1568.25
 747  1469.778
 748  1524.446
 749  1514.485
 750  1609.552
 751  1608.953
 752  1559.712
 753  1606.805
 754  1553.824
 755  1530.305
 756  1503.776
 757  1510.548
 758  1579.255
 759  1655.255
 760  1888.574
 761  2000.077
 762  1934.868
 763  1835.097
 764  1832.604
 765  1817.891
 766  1899.15
 767  1960.603
 768  2034.66
 769  1879.247
 770  1760.063
 771  1774.494
 772  1890.873
 773  2016.493
 774  1994.61
 775  1866.997
 776  1717.668
 777  1630.921
 778  1547.674
 779  1545.63
 780  1668.492
 781  1835.222
 782  1935.569
 783  1884.612
 784  1847.511
 785  1717.961
 786  1660.218
 787  1607.638
 788  1707.26
 789  1705.746
 790  1711.443
 791  1726.946
 792  1686.495
 793  1612.383
 794  1505.563
 795  1487.809
 796  1612.932
 797  1677.986
 798  1749.818
 799  1644.616
 800  1686.296
 801  1609.961
 802  1685.365
 803  1654.336
 804  1644.304
 805  1752.515
 806  1684.763
 807  1664.694
 808  1610.982
 809  1694.997
 810  1695.337
 811  1721.532
 812  1767.687
 813  1789.829
 814  1809.981
 815  1710.14
 816  1798.315
 817  1814.043
 818  1850.325
 819  1654.703
 820  1792.776
 821  1824.581
 822  1901.539
 823  1749.14
 824  1775.755
 825  1716.776
 826  1739.108
 827  1662.344
 828  1654.778
 829  1639.446
 830  1538.109
 831  1432.411
 832  1277.587
 833  1350.726
 834  1463.362
 835  1531.889
 836  1614.387
 837  1619.377
 838  1710.922
 839  1680.119
 840  1699.897
 841  1647.496
 842  1599.246
 843  1657.01
 844  1696.085
 845  1608.406
 846  1627.648
 847  1614.724
 848  1633.47
 849  1502.047
 850  1452.995
 851  1460.604
 852  1612.781
 853  1599.835
 854  1370.131
 855  1291.551
 856  1312.748
 857  1445.675
 858  1450.381
 859  1464.242
 860  1539.707
 861  1622.564
 862  1765.831
 863  1959.663
 864  1864.543
 865  1784.681
 866  1774.278
 867  1817.359
 868  1683.68
 869  1534.879
 870  1527.366
 871  1433.1
 872  1413.589
 873  1444.533
 874  1661.804
 875  1727.878
 876  1776.4
 877  1759.494
 878  1842.476
 879  1962.204
 880  1986.1
 881  2035.046
 882  2018.582
 883  2068.972
 884  2137.178
 885  2064.383
 886  1966.113
 887  2006.779
 888  2086.246
 889  2099.097
 890  2020.882
 891  1953.345
 892  1898.944
 893  1832.984
 894  1788.277
 895  1866.41
 896  2001.051
 897  2041.764
 898  1860.46
 899  1707.495
 900  1788.258
 901  1790.26
 902  1930.824
 903  1897.78
 904  1878.543
 905  1759.18
 906  1728.398
 907  1773.443
 908  1716.917
 909  1697.853
 910  1591.44
 911  1625.394
 912  1536.231
 913  1466.566
 914  1511.147
 915  1583.255
 916  1675.519
 917  1671.3
 918  1739.78
 919  1607.084
 920  1605.563
 921  1512.86
 922  1652.714
 923  1757.537
 924  1771.314
 925  1627.533
 926  1440.848
 927  1412.663
 928  1414.927
 929  1414.789
 930  1414.381
 931  1424.606
 932  1450.952
 933  1455.052
 934  1468.858
 935  1574.251
 936  1509.905
 937  1428.63
 938  1264.317
 939  1304.88
 940  1398.303
 941  1443.779
 942  1509.721
 943  1457.778
 944  1419.081
 945  1373.347
 946  1311.283
 947  1408.634
 948  1541.205
 949  1626.731
 950  1485.818
 951  1496.902
 952  1597.375
 953  1643.378
 954  1681.83
 955  1670.687
 956  1656.53
 957  1581.924
 958  1509.944
 959  1549.356
 960  1485.417
 961  1574.643
 962  1713.86
 963  1743.222
 964  1770.676
 965  1658.493
 966  1664.266
 967  1593.254
 968  1627.067
 969  1631.665
 970  1704.341
 971  1640.655
 972  1514.847
 973  1423.767
 974  1443.039
 975  1501.096
 976  1524.941
 977  1552.322
 978  1511.117
 979  1388.872
 980  1395.572
 981  1386.553
 982  1419.562
 983  1331.215
 984  1376.559
 985  1463.666
 986  1501
 987  1435.376
 988  1475.215
 989  1413.228
 990  1336.895
 991  1314.813
 992  1334.168
 993  1292.115
 994  1197.371
 995  1180.585
 996  1200.374
 997  1208.718
 998  1220.376
 999  1176.772
1000  1057.918
1001  1162.812
1002  1303.718
1003  1423.909
1004  1399.4
1005  1436.851
1006  1393.981
1007  1322.462
1008  1235.693
1009  1250.454
1010  1362.663
1011  1374.625
1012  1412.588
1013  1420.371
1014  1471.099
1015  1570.369
1016  1566.962
1017  1594.522
1018  1573.289
1019  1537.854
1020  1383.59
1021  1244.683
1022  1327.763
1023  1390.342
