# Input file       =  1181528503.117767_cleaned.dat
# Candidate        =  PSR_0332+5434
# Telescope        =  AR
# Epoch_topo       =  57919.098635622307
# Epoch_bary       =  N/A
# T_sample         =  0.002
# Data Folded      =  7208960
# Data Avg         =  0.0957063912075357
# Data StdDev      =  3.84316384500303 
# Profile Bins     =  512
# Profile Avg      =  1347.65135675664 
# Profile StdDev   =  456.026654287555 
# Reduced chi-sqr  =  0.819
# Prob(Noise)      <  0.999   (~0.0 sigma)
# P_topo (ms)      =  714.50314123853   +/- 5.32e-05
# P'_topo (s/s)    =  -0                +/- 2.86e-11
# P''_topo (s/s^2) =  0                 +/- 1.28e-14
# P_bary (ms)      =  N/A
# P'_bary (s/s)    =  N/A
# P''_bary (s/s^2) =  N/A
# P_orb (s)        =  N/A
# asin(i)/c (s)    =  N/A
# eccentricity     =  N/A
# w (rad)          =  N/A
# T_peri           =  N/A
######################################################
   0  1451.506
   1  1426.432
   2  1052.971
   3  1266.75
   4  1268.386
   5  1242.236
   6  1636.794
   7  1893.034
   8  1559.638
   9  1065.424
  10  1159.48
  11  1288.492
  12  1223.444
  13  1251.801
  14  1478.913
  15  1592.384
  16  1650.496
  17  1286.669
  18  1035.386
  19  1089.374
  20  1107.162
  21  1173.272
  22  1142.142
  23  1286.933
  24  1830.755
  25  1422.375
  26  1280.529
  27  1448.718
  28  1488.057
  29  1379.942
  30  1557.253
  31  1541.94
  32  1601.183
  33  1549.406
  34  1326.105
  35  876.5979
  36  958.801
  37  1123.755
  38  1124.737
  39  1275.251
  40  1220.974
  41  1095.103
  42  1492.648
  43  1493.853
  44  1354.86
  45  1312.374
  46  876.8993
  47  1096.353
  48  1282.814
  49  1569.806
  50  1175.972
  51  1358.11
  52  1272.051
  53  1179.529
  54  1272.468
  55  1442.824
  56  1416.932
  57  1331.161
  58  1330.962
  59  1147.946
  60  1484.306
  61  1287.802
  62  1328.848
  63  1460.577
  64  1819.504
  65  1920.339
  66  1136.576
  67  786.3038
  68  763.0888
  69  922.4437
  70  1131.918
  71  1521.208
  72  1742.886
  73  1695.268
  74  1644.402
  75  1496.506
  76  1415.916
  77  1137.484
  78  1191.457
  79  1295.956
  80  1421.315
  81  1461.85
  82  1110.032
  83  1142.145
  84  829.9955
  85  1270.801
  86  1466.252
  87  982.5511
  88  1090.793
  89  1475.471
  90  2020.396
  91  1403.203
  92  1113.27
  93  1180.67
  94  1199.291
  95  1124.804
  96  1288.69
  97  1736.465
  98  1649.895
  99  1914.849
 100  1732.036
 101  1551.534
 102  1014.448
 103  1311.357
 104  1404.831
 105  1502.221
 106  1805.038
 107  1454.199
 108  1270.514
 109  1290.787
 110  1614.375
 111  1412.992
 112  1186.475
 113  1369.753
 114  1385.358
 115  1559.23
 116  1647.205
 117  1341.546
 118  1484.047
 119  1721.795
 120  1586.57
 121  1116.637
 122  1248.196
 123  1678.67
 124  1155.662
 125  1218.725
 126  1443.411
 127  1528.685
 128  785.3853
 129  1461.312
 130  1719.573
 131  1468.642
 132  1490.129
 133  1454.82
 134  1426.879
 135  1428.205
 136  2006.976
 137  1896.997
 138  1533.688
 139  1509.468
 140  1307.977
 141  1387.794
 142  1260.838
 143  1551.868
 144  1394.981
 145  1266.066
 146  1505.728
 147  1606.189
 148  1612.464
 149  1097.287
 150  950.172
 151  1169.837
 152  1052.016
 153  1425.779
 154  1770.868
 155  1889.402
 156  1954.349
 157  1413.301
 158  979.4199
 159  756.8045
 160  1090.845
 161  1044.997
 162  1184.991
 163  1740.491
 164  1592.289
 165  1282.557
 166  980.0527
 167  902.6703
 168  900.0423
 169  742.2839
 170  872.0778
 171  1243.959
 172  1437.956
 173  1563.142
 174  1332.706
 175  840.5067
 176  634.7043
 177  929.1077
 178  1038.057
 179  1222.879
 180  1168.568
 181  1592.138
 182  1588.944
 183  1542.732
 184  1326.438
 185  1159.97
 186  1114.345
 187  1207.697
 188  1625.916
 189  1586.145
 190  1267.775
 191  1034.069
 192  1102.506
 193  1199.601
 194  913.3069
 195  1270.915
 196  1767.411
 197  1336.144
 198  1442.595
 199  1426.096
 200  1420.397
 201  1529.333
 202  1650.587
 203  1462.424
 204  1360.837
 205  1766.123
 206  1445.485
 207  1132.466
 208  1405.721
 209  1586.391
 210  1454.902
 211  1147.053
 212  1391.363
 213  1466.53
 214  1387.088
 215  1376.099
 216  1305.201
 217  1503.152
 218  1773.881
 219  1843.954
 220  1628.595
 221  1423.222
 222  1450.355
 223  1308.089
 224  1317.862
 225  881.1886
 226  973.4805
 227  1417.744
 228  1502.443
 229  1664.049
 230  1482.442
 231  1317.137
 232  901.131
 233  621.4985
 234  814.8047
 235  914.564
 236  1654.519
 237  1676.762
 238  1674.411
 239  1423.694
 240  1166.992
 241  689.0532
 242  979.1254
 243  943.4745
 244  595.994
 245  1159.696
 246  1246.656
 247  1386.805
 248  1445.924
 249  1216.678
 250  1041.756
 251  1181.765
 252  1215.53
 253  1333.099
 254  1205.387
 255  1341.382
 256  1253.799
 257  1221.401
 258  1263.967
 259  1327.444
 260  919.3417
 261  1081.606
 262  1557.245
 263  1741.547
 264  1778.454
 265  1890.906
 266  1710.508
 267  1543.079
 268  1141.098
 269  876.3121
 270  1362.423
 271  1229.433
 272  1567.558
 273  1393.098
 274  1154.224
 275  1300.21
 276  898.9659
 277  756.6955
 278  991.631
 279  1635.579
 280  1724.052
 281  1715.518
 282  1604.798
 283  1645.321
 284  1334.958
 285  1570.328
 286  1688.903
 287  1553.642
 288  1761.729
 289  1790.134
 290  1461.763
 291  1399.102
 292  1637.732
 293  1452.005
 294  1068.127
 295  1317.609
 296  1717.755
 297  1472.903
 298  1020.196
 299  1059.052
 300  1260.025
 301  1523.788
 302  1565.815
 303  1702.498
 304  1300.155
 305  1255.643
 306  782.7828
 307  862.7973
 308  1170.006
 309  1492.789
 310  1590.901
 311  1843.277
 312  1841.791
 313  1859.711
 314  1674.678
 315  1003.288
 316  1096.857
 317  1247.623
 318  1594.534
 319  1666.155
 320  1665.594
 321  1895.608
 322  1012.416
 323  895.6112
 324  859.0916
 325  1559.701
 326  1794.067
 327  2012.929
 328  2602.936
 329  2812.233
 330  2284.634
 331  1859.334
 332  1599.918
 333  1041.355
 334  1142.901
 335  1400.077
 336  1443.999
 337  1523.704
 338  1491.435
 339  1230.258
 340  910.0378
 341  1035.881
 342  946.8931
 343  489.5831
 344  1078.692
 345  1630.581
 346  1742.164
 347  1423.203
 348  1336.656
 349  1279.08
 350  1112.192
 351  1074.593
 352  860.0726
 353  1541.605
 354  1375.018
 355  1329.835
 356  1276.34
 357  1042.356
 358  959.8629
 359  713.3275
 360  1075.28
 361  1479.633
 362  1709.859
 363  1797.882
 364  1618.139
 365  1671.457
 366  1301.102
 367  828.3725
 368  941.0726
 369  1042.801
 370  1251.183
 371  1244.095
 372  1250.313
 373  971.5628
 374  1475.972
 375  1259.221
 376  1230.195
 377  1283.706
 378  1403.783
 379  1639.239
 380  1770.177
 381  1515.025
 382  1254.917
 383  1544.242
 384  1432.943
 385  1531.626
 386  1578.52
 387  1403.564
 388  1355.302
 389  1077.839
 390  1187.792
 391  1036.153
 392  1119.082
 393  1187.776
 394  1441.078
 395  1733.146
 396  1608.28
 397  1418.302
 398  1025.884
 399  834.4597
 400  1272.154
 401  1589.743
 402  1447.452
 403  1402.042
 404  1453.888
 405  1053.578
 406  1138.378
 407  1449.484
 408  1450.5
 409  1299.84
 410  1298.513
 411  1581.975
 412  1666.253
 413  1031.751
 414  816.091
 415  876.0046
 416  1155.922
 417  1024.252
 418  867.7986
 419  1081.054
 420  1526.657
 421  1275.558
 422  1250.21
 423  998.5785
 424  1066.554
 425  1113.354
 426  1098.766
 427  1427.717
 428  1723.523
 429  1664.906
 430  1320.246
 431  1140.281
 432  1200.863
 433  1142.402
 434  843.9628
 435  973.0156
 436  1593.363
 437  1864.676
 438  1369.033
 439  1212.354
 440  1184.875
 441  1319.119
 442  1348.766
 443  1280.58
 444  1382.692
 445  1840.854
 446  2117.776
 447  1872.631
 448  1406.919
 449  1185.013
 450  947.5343
 451  1022.437
 452  1151.774
 453  1633.105
 454  1787.079
 455  1309.019
 456  1126.278
 457  1311.259
 458  1012.618
 459  1422.117
 460  1642.695
 461  1663.231
 462  1553.312
 463  1318.692
 464  1331.151
 465  1003.186
 466  1178.34
 467  1173.987
 468  1224.772
 469  1423.501
 470  1600.992
 471  1260.996
 472  1162.207
 473  1313.488
 474  1230.337
 475  1354.348
 476  1676.998
 477  1563.279
 478  1463.449
 479  1389.206
 480  1234.047
 481  1306.73
 482  1146.272
 483  1243.823
 484  1148.881
 485  1211.217
 486  1318.571
 487  961.631
 488  838.6359
 489  1421.731
 490  1453.773
 491  1220.824
 492  1279.062
 493  1628.214
 494  1823.105
 495  1657.5
 496  1184.298
 497  729.8062
 498  921.1651
 499  1109.815
 500  1038.22
 501  1338.99
 502  1665.884
 503  1769.792
 504  1349.212
 505  1121.711
 506  1330.588
 507  1726.98
 508  1557.557
 509  1964.559
 510  2005.355
 511  1961.098
