# Input file       =  1181097647.101202_cleaned.dat
# Candidate        =  PSR_0332+5434
# Telescope        =  AR
# Epoch_topo       =  57914.111876171322
# Epoch_bary       =  N/A
# T_sample         =  0.002
# Data Folded      =  7208960
# Data Avg         =  0.295967586652841
# Data StdDev      =  5.4639267430251  
# Profile Bins     =  256
# Profile Avg      =  8335.31656180178 
# Profile StdDev   =  916.898354214118 
# Reduced chi-sqr  =  0.501
# Prob(Noise)      <  1   (~0.0 sigma)
# P_topo (ms)      =  714.507806655237  +/- 0.000157
# P'_topo (s/s)    =  -0                +/- 8.45e-11
# P''_topo (s/s^2) =  0                 +/- 3.8e-14
# P_bary (ms)      =  N/A
# P'_bary (s/s)    =  N/A
# P''_bary (s/s^2) =  N/A
# P_orb (s)        =  N/A
# asin(i)/c (s)    =  N/A
# eccentricity     =  N/A
# w (rad)          =  N/A
# T_peri           =  N/A
######################################################
   0  7547.779
   1  7991.822
   2  8492.375
   3  8346.391
   4  8099.274
   5  7925.521
   6  8618.588
   7  8470.135
   8  8355.447
   9  7778.528
  10  8655.992
  11  9148.57
  12  8343.958
  13  8292.457
  14  8960.13
  15  8374.621
  16  8261.972
  17  8627.458
  18  8648.139
  19  8507.875
  20  9438.297
  21  8920.522
  22  8930.092
  23  7653.473
  24  8104.895
  25  7462.297
  26  8780.625
  27  8344.521
  28  7985.169
  29  7823.87
  30  7824.963
  31  7938.367
  32  8343.509
  33  7356.827
  34  7791.267
  35  7627.625
  36  8163.281
  37  7982.766
  38  7958.066
  39  8391.772
  40  7870.205
  41  7237.936
  42  8089.426
  43  8797.994
  44  8244.231
  45  8611.735
  46  7503.701
  47  8492.879
  48  7937.333
  49  8433.609
  50  7828.021
  51  8350.623
  52  8302.155
  53  8703.614
  54  9110.911
  55  8472.993
  56  7764.938
  57  7344.182
  58  7873.411
  59  8419.788
  60  8217.199
  61  7764.908
  62  8195.706
  63  8177.329
  64  8034.992
  65  7836.017
  66  7890.865
  67  7079.426
  68  8592.438
  69  9202.396
  70  7968.871
  71  7213.541
  72  8035.815
  73  7868.333
  74  8170.646
  75  7759.286
  76  8088.504
  77  8092.736
  78  8682.681
  79  8538.903
  80  8977.507
  81  8166.128
  82  7724.947
  83  7269.279
  84  7781.53
  85  8504.03
  86  8622.947
  87  7570.791
  88  8218.97
  89  8149.776
  90  8100.694
  91  8220.01
  92  8495.906
  93  8680.09
  94  8327.028
  95  9157.884
  96  9783.462
  97  8617.318
  98  8187.142
  99  7687.163
 100  8143.945
 101  8865.654
 102  8273.873
 103  8486.59
 104  8597.236
 105  8590.119
 106  7971.417
 107  8275.327
 108  7708.951
 109  8627.963
 110  8531.059
 111  8902.097
 112  8258.973
 113  9141.581
 114  8631.79
 115  8681.825
 116  7545
 117  8327.271
 118  9301.535
 119  8823.377
 120  8086.587
 121  8717.342
 122  8144.088
 123  8213.83
 124  7919.614
 125  7572.481
 126  8537.511
 127  8906.348
 128  9701.315
 129  8389.726
 130  7679.449
 131  8489.052
 132  8085.68
 133  9031.132
 134  8984.371
 135  8061.945
 136  8627.709
 137  9606.868
 138  8546.449
 139  7341.998
 140  7924.695
 141  7433.566
 142  8076.394
 143  7876.757
 144  9008.115
 145  7815.159
 146  8063.517
 147  7174.164
 148  7306.952
 149  7594.672
 150  8374.657
 151  8562.912
 152  9123.57
 153  8137.138
 154  8679.954
 155  9610.972
 156  8428.675
 157  7281.472
 158  7503.884
 159  8913.401
 160  9914.814
 161  8979.972
 162  8494.408
 163  10330.59
 164  10919.95
 165  9759.073
 166  7998.37
 167  7791.43
 168  8008.842
 169  8668.564
 170  8926.969
 171  8149.423
 172  7420.708
 173  7763.349
 174  7687.919
 175  8322.717
 176  8249.558
 177  8414.706
 178  8703.18
 179  8411.955
 180  7892.952
 181  7993.829
 182  8363.922
 183  8433.209
 184  7713.921
 185  8252.732
 186  8390.915
 187  8625.432
 188  8381.905
 189  7688.628
 190  7034.591
 191  7305.981
 192  8844.905
 193  8721.856
 194  8022.775
 195  7918.485
 196  8461.768
 197  8196.186
 198  8481.343
 199  7387.42
 200  8322.865
 201  8873.01
 202  9612.849
 203  8757.97
 204  8433.423
 205  8166.554
 206  8518.763
 207  8621.289
 208  8701.892
 209  7916.98
 210  8215.268
 211  8233.937
 212  8382.568
 213  8210
 214  8134.435
 215  7793.796
 216  7892.973
 217  8248.431
 218  9075.853
 219  8861.529
 220  8202.343
 221  8386.332
 222  8562.518
 223  8176.645
 224  8859.578
 225  8665.008
 226  9208.486
 227  8482.873
 228  8170.568
 229  8835.193
 230  8845.037
 231  8119.066
 232  7617.346
 233  8611.968
 234  8676.468
 235  8969.465
 236  8414.21
 237  8263.229
 238  8578.967
 239  8882.688
 240  9214.892
 241  8704.559
 242  8464.6
 243  8730.528
 244  8878.78
 245  8512.79
 246  8318.459
 247  8454.244
 248  7930.217
 249  8327.112
 250  8680.426
 251  8591.485
 252  8514.88
 253  8409.44
 254  8817.556
 255  8227.628
