# Input file       =  1181456923.122051_cleaned.dat
# Candidate        =  PSR_0332+5434
# Telescope        =  AR
# Epoch_topo       =  57918.270163449663
# Epoch_bary       =  N/A
# T_sample         =  0.002
# Data Folded      =  7340032
# Data Avg         =  0.0785321462265399
# Data StdDev      =  3.59326143741398 
# Profile Bins     =  512
# Profile Avg      =  1125.27168568865 
# Profile StdDev   =  430.232102397119 
# Reduced chi-sqr  =  1.117
# Prob(Noise)      <  0.0341   (~1.8 sigma)
# P_topo (ms)      =  714.503919992878  +/- 0.000122
# P'_topo (s/s)    =  -0                +/- 6.44e-11
# P''_topo (s/s^2) =  0                 +/- 2.84e-14
# P_bary (ms)      =  N/A
# P'_bary (s/s)    =  N/A
# P''_bary (s/s^2) =  N/A
# P_orb (s)        =  N/A
# asin(i)/c (s)    =  N/A
# eccentricity     =  N/A
# w (rad)          =  N/A
# T_peri           =  N/A
######################################################
   0  1401.836
   1  1238.658
   2  784.476
   3  886.5779
   4  672.6647
   5  663.0714
   6  1121.572
   7  1104.711
   8  758.7743
   9  747.5531
  10  829.4248
  11  440.8981
  12  662.7206
  13  893.0969
  14  1059.854
  15  702.1644
  16  685.097
  17  721.3962
  18  831.1514
  19  1284.483
  20  1118.687
  21  1196.224
  22  1185.477
  23  770.2375
  24  1180.567
  25  1293.904
  26  1485.643
  27  1296.23
  28  924.5881
  29  787.1187
  30  810.2469
  31  1304.604
  32  1710.882
  33  1615.811
  34  1036.566
  35  713.0216
  36  586.4239
  37  894.0729
  38  1475.292
  39  1218.416
  40  1131.291
  41  1296.294
  42  1211.481
  43  1361.531
  44  969.0944
  45  594.8825
  46  573.0919
  47  548.3286
  48  1166.483
  49  1199.521
  50  1115.911
  51  1164.811
  52  1116.967
  53  1062.501
  54  935.3947
  55  777.2469
  56  1209.637
  57  1362.574
  58  1098.925
  59  892.7173
  60  867.7873
  61  1170.281
  62  1365.173
  63  1513.073
  64  1199.125
  65  1049.947
  66  1148.661
  67  1396.164
  68  1310.172
  69  1611.544
  70  989.2265
  71  1007.872
  72  813.9445
  73  1071.016
  74  1217.598
  75  1701.957
  76  1300.874
  77  1000.121
  78  886.4353
  79  1475.468
  80  1500.602
  81  1293.678
  82  1132.322
  83  1173.158
  84  1177.822
  85  1112.396
  86  1487.886
  87  1396.18
  88  1593.987
  89  1387.365
  90  1476.081
  91  960.1447
  92  959.2384
  93  1159.489
  94  1287.973
  95  927.3356
  96  1216.195
  97  1359.855
  98  1416.746
  99  1192.745
 100  1272.961
 101  1070.14
 102  771.6707
 103  1158.782
 104  1165.256
 105  1152.623
 106  804.1388
 107  675.6716
 108  646.46
 109  1164.518
 110  1241.176
 111  1180.944
 112  1056.088
 113  1350.622
 114  1076.211
 115  1010.369
 116  1203.558
 117  1539.006
 118  1636.215
 119  1626.802
 120  1319.121
 121  1001.277
 122  678.2119
 123  755.1384
 124  1109.659
 125  1320.93
 126  1428.375
 127  1040.185
 128  1080.151
 129  1071.418
 130  1218.699
 131  1314.613
 132  1012.694
 133  1223.102
 134  1642.057
 135  1378.293
 136  1264.558
 137  773.5723
 138  1035.251
 139  1101.985
 140  979.4137
 141  668.6772
 142  433.7712
 143  1512.018
 144  1775.087
 145  1652.544
 146  1586.038
 147  1456.517
 148  1476.997
 149  1650.157
 150  1384.155
 151  1651.887
 152  1456.322
 153  900.7983
 154  949.2061
 155  985.2114
 156  1497.001
 157  1730.987
 158  1263.567
 159  927.6989
 160  1039.84
 161  1267.569
 162  1210.628
 163  1382.752
 164  1537.73
 165  1502.386
 166  819.873
 167  641.4623
 168  592.2306
 169  766.8172
 170  1141.207
 171  1242.035
 172  1095.556
 173  583.884
 174  507.2177
 175  291.0788
 176  802.0183
 177  1211.035
 178  1115.763
 179  1095.442
 180  1089.053
 181  1462.402
 182  1108.421
 183  1115.335
 184  838.2817
 185  1133.594
 186  598.9598
 187  371.963
 188  435.8305
 189  810.9279
 190  1091.831
 191  1192.621
 192  1166.92
 193  716.0662
 194  896.6852
 195  1139.095
 196  1043.541
 197  625.3093
 198  1024.49
 199  911.1788
 200  992.955
 201  903.7508
 202  605.7035
 203  503.0965
 204  548.7662
 205  849.3825
 206  934.7775
 207  880.4509
 208  812.2366
 209  808.4183
 210  1046.339
 211  1312.778
 212  1057.635
 213  1260.971
 214  1424.548
 215  692.3586
 216  624.992
 217  902.1529
 218  1028.984
 219  1395.731
 220  1444.615
 221  1161.373
 222  702.2191
 223  763.7111
 224  780.4069
 225  626.3882
 226  688.8821
 227  827.8846
 228  645.393
 229  736.0573
 230  1236.39
 231  838.5645
 232  578.4526
 233  1207.33
 234  1041.661
 235  1151.986
 236  791.8345
 237  958.0643
 238  812.5062
 239  903.7448
 240  781.5955
 241  786.2537
 242  952.7968
 243  1068.24
 244  818.7162
 245  1103.193
 246  1162.818
 247  801.795
 248  617.1881
 249  867.4409
 250  956.9997
 251  746.5655
 252  1180.09
 253  1403.79
 254  1163.777
 255  1124.502
 256  877.9411
 257  985.3164
 258  1137.656
 259  1013.691
 260  849.0214
 261  813.0602
 262  878.3488
 263  1289.388
 264  1269.805
 265  1606.535
 266  1511.624
 267  818.9091
 268  711.5163
 269  992.3318
 270  1021.117
 271  1057.034
 272  919.4785
 273  465.7231
 274  185.8579
 275  743.4632
 276  1164.676
 277  1018.458
 278  1166.292
 279  1056.189
 280  709.6822
 281  857.5427
 282  1003.405
 283  706.9208
 284  1261.444
 285  1310.3
 286  1027.405
 287  989.2686
 288  1196.167
 289  1421.78
 290  1331.656
 291  1326.458
 292  1015.578
 293  900.7943
 294  1169.826
 295  1192.129
 296  1182.979
 297  921.1316
 298  1370.552
 299  1538.898
 300  962.8582
 301  1011.822
 302  1297.654
 303  1638.547
 304  1737.547
 305  1289.614
 306  1231.996
 307  952.93
 308  1028.046
 309  893.106
 310  938.4413
 311  1943.275
 312  1819.635
 313  1321.703
 314  682.2516
 315  572.9457
 316  460.1703
 317  637.0616
 318  1212.812
 319  1876.739
 320  1762.77
 321  1627.976
 322  1269.909
 323  1206.39
 324  1329.289
 325  2072.684
 326  2235.493
 327  2452.941
 328  2603.493
 329  2347.018
 330  1846.552
 331  1615.455
 332  2067.464
 333  1742.09
 334  1459.06
 335  1459.616
 336  1311.006
 337  1517.822
 338  1374.885
 339  1341.272
 340  1724.052
 341  1326.979
 342  1643.731
 343  1784.779
 344  1588.351
 345  1492.022
 346  1140.54
 347  948.166
 348  1186.556
 349  1416.5
 350  1121.544
 351  743.9351
 352  1094.281
 353  1343.088
 354  1151.644
 355  941.0509
 356  793.4399
 357  1025.318
 358  1107.234
 359  1419.594
 360  1127.969
 361  974.569
 362  939.9691
 363  1215.231
 364  1117.664
 365  1344.853
 366  801.6336
 367  518.0775
 368  866.5651
 369  1127.703
 370  1317.536
 371  1373.309
 372  1628.731
 373  1013.99
 374  1096.077
 375  752.9381
 376  974.3904
 377  1099.108
 378  1459.842
 379  1398.357
 380  1499.081
 381  1190.775
 382  1015.508
 383  1108.282
 384  780.6316
 385  669.6082
 386  882.7098
 387  1131.308
 388  917.9238
 389  1160.622
 390  1173.506
 391  518.4562
 392  858.0215
 393  904.924
 394  1179.323
 395  1419.935
 396  1092.525
 397  1131.074
 398  992.98
 399  871.6142
 400  932.2666
 401  1176.756
 402  1198.815
 403  1025.234
 404  1034.194
 405  1173.879
 406  1125.901
 407  1132.521
 408  1286.852
 409  1167.189
 410  1017.194
 411  1180.193
 412  1074.367
 413  1415.049
 414  1382.534
 415  927.8774
 416  754.8983
 417  638.8797
 418  818.2966
 419  1211.266
 420  1421.829
 421  1669.648
 422  1372.027
 423  1319.019
 424  900.6722
 425  981.4453
 426  906.1056
 427  1034.036
 428  1170.054
 429  1044.138
 430  1015.995
 431  1085.319
 432  1095.856
 433  1088.879
 434  1212.539
 435  1054.001
 436  529.6909
 437  777.0229
 438  1606.74
 439  1565.134
 440  1530.25
 441  1187.883
 442  986.2283
 443  761.2398
 444  494.1906
 445  975.2589
 446  591.6215
 447  854.8154
 448  1555.041
 449  1333.224
 450  1089.788
 451  1050.37
 452  1173.441
 453  890.7716
 454  1081.416
 455  1577.568
 456  1598.893
 457  1335.595
 458  1322.533
 459  1346.243
 460  1497.158
 461  1621.857
 462  1477.977
 463  1214.911
 464  1349.225
 465  1245.574
 466  1000.565
 467  1096.699
 468  1428.792
 469  1422.414
 470  829.0814
 471  837.9781
 472  1398.851
 473  1519.202
 474  1243.202
 475  1098.698
 476  1024.715
 477  980.7328
 478  1206.912
 479  1607.787
 480  1699.649
 481  1436.199
 482  1339.337
 483  1280.011
 484  1084.027
 485  1161.552
 486  1507.315
 487  1395.758
 488  1144.929
 489  1059.322
 490  666.9907
 491  793.3227
 492  1279.095
 493  1374.824
 494  801.7419
 495  671.1907
 496  789.1973
 497  1380.994
 498  1102.82
 499  1309.272
 500  1820.504
 501  1628.154
 502  1266.613
 503  767.6847
 504  1580.268
 505  1719.839
 506  1224.141
 507  1176.016
 508  1434.141
 509  1322.165
 510  1007.975
 511  1431.858
