# Input file       =  1181299537.125484_cleaned.dat
# Candidate        =  PSR_0332+5434
# Telescope        =  AR
# Epoch_topo       =  57916.448566267172
# Epoch_bary       =  N/A
# T_sample         =  0.002
# Data Folded      =  7340032
# Data Avg         =  0.0597910963271196
# Data StdDev      =  3.8249598352089  
# Profile Bins     =  512
# Profile Avg      =  857.249770723885 
# Profile StdDev   =  457.974055088737 
# Reduced chi-sqr  =  0.747
# Prob(Noise)      <  1   (~0.0 sigma)
# P_topo (ms)      =  714.505952341281  +/- 0.000509
# P'_topo (s/s)    =  -0                +/- 2.68e-10
# P''_topo (s/s^2) =  0                 +/- 1.18e-13
# P_bary (ms)      =  N/A
# P'_bary (s/s)    =  N/A
# P''_bary (s/s^2) =  N/A
# P_orb (s)        =  N/A
# asin(i)/c (s)    =  N/A
# eccentricity     =  N/A
# w (rad)          =  N/A
# T_peri           =  N/A
######################################################
   0  581.6529
   1  677.3051
   2  655.1303
   3  706.489
   4  581.2551
   5  724.2273
   6  787.056
   7  818.9689
   8  659.825
   9  594.6515
  10  702.9313
  11  580.7661
  12  758.6994
  13  821.8691
  14  703.6423
  15  733.1113
  16  885.4106
  17  915.1177
  18  496.4928
  19  717.8508
  20  899.8081
  21  672.837
  22  519.6501
  23  549.1375
  24  763.8159
  25  795.7713
  26  698.52
  27  931.1405
  28  1016.486
  29  635.0126
  30  553.3438
  31  655.4762
  32  705.5162
  33  622.2488
  34  1038.039
  35  1095.581
  36  947.7378
  37  1012.604
  38  731.681
  39  929.8686
  40  737.4987
  41  542.9675
  42  648.9622
  43  1001.056
  44  864.9751
  45  957.7548
  46  1150.886
  47  1005.358
  48  949.1927
  49  1098.672
  50  1304.139
  51  987.9174
  52  626.8766
  53  594.3276
  54  701.0446
  55  605.955
  56  745.0163
  57  791.7685
  58  831.9345
  59  712.4545
  60  381.2954
  61  180.7585
  62  241.4634
  63  271.6215
  64  220.1923
  65  540.4232
  66  630.5694
  67  743.2886
  68  652.284
  69  642.9286
  70  781.3123
  71  745.3053
  72  707.9848
  73  560.5564
  74  755.0197
  75  751.3696
  76  725.6454
  77  945.6543
  78  1232.77
  79  981.183
  80  606.5225
  81  599.9382
  82  890.5504
  83  600.6685
  84  763.4639
  85  1040.892
  86  921.77
  87  528.781
  88  798.4446
  89  850.6194
  90  557.9772
  91  691.3433
  92  836.9312
  93  858.2937
  94  669.6058
  95  427.4693
  96  317.2709
  97  589.2783
  98  898.8847
  99  818.9527
 100  569.9781
 101  770.0149
 102  1023.147
 103  747.1407
 104  928.25
 105  741.9943
 106  584.8723
 107  697.9858
 108  1148.84
 109  1198.41
 110  849.7933
 111  1119.103
 112  1285.799
 113  1145.561
 114  822.2219
 115  804.0154
 116  1170.225
 117  1416.76
 118  1103.967
 119  957.657
 120  1000.845
 121  1059.309
 122  1040.655
 123  842.4957
 124  871.6366
 125  813.6168
 126  1030.797
 127  975.3981
 128  1015.052
 129  1051.887
 130  915.4924
 131  871.2746
 132  1002.719
 133  950.8107
 134  622.5983
 135  464.0429
 136  715.6703
 137  668.6604
 138  776.2957
 139  608.6008
 140  655.5333
 141  653.8519
 142  452.096
 143  658.2434
 144  337.5541
 145  528.6619
 146  834.9819
 147  1046.704
 148  1386.906
 149  879.1901
 150  1230.067
 151  1002.58
 152  799.1846
 153  1176.434
 154  946.3934
 155  805.5797
 156  769.826
 157  723.7215
 158  547.7935
 159  586.3878
 160  1026.335
 161  659.4717
 162  349.5564
 163  471.6522
 164  771.4789
 165  996.3383
 166  901.3669
 167  585.7361
 168  477.0438
 169  371.6763
 170  445.0938
 171  311.6016
 172  802.961
 173  1068.008
 174  924.5392
 175  946.3088
 176  580.113
 177  810.1036
 178  462.6619
 179  171.9131
 180  815.9086
 181  807.6537
 182  997.5972
 183  706.4753
 184  550.9281
 185  670.9808
 186  823.7638
 187  880.5745
 188  668.4179
 189  700.293
 190  700.7668
 191  709.4711
 192  983.7666
 193  757.8943
 194  847.4841
 195  1179.819
 196  1295.225
 197  1138.221
 198  1170.086
 199  1023.564
 200  1001.091
 201  733.0052
 202  778.0792
 203  967.3423
 204  1132.388
 205  1358.879
 206  1463.188
 207  1121.545
 208  978.5549
 209  1521.92
 210  1306.948
 211  1074.99
 212  1080.636
 213  915.1975
 214  969.3694
 215  890.4167
 216  913.433
 217  1294.505
 218  665.2896
 219  832.7676
 220  1008.582
 221  1013.836
 222  567.7536
 223  489.1976
 224  872.2366
 225  1138.839
 226  1094.403
 227  1103.97
 228  857.386
 229  770.9429
 230  839.0369
 231  1065.377
 232  1088.779
 233  1210.756
 234  1106.52
 235  1149.35
 236  1151.363
 237  786.9847
 238  911.9893
 239  1191.224
 240  956.5288
 241  671.0858
 242  578.105
 243  336.8204
 244  384.2436
 245  489.1361
 246  533.4835
 247  513.1118
 248  660.6702
 249  790.342
 250  295.2326
 251  146.8923
 252  517.9172
 253  673.2341
 254  602.4333
 255  478.5027
 256  784.4167
 257  885.6353
 258  1057.368
 259  679.095
 260  908.8383
 261  1189.415
 262  1085.444
 263  1053.913
 264  1200.117
 265  1128.849
 266  1276.171
 267  869.2328
 268  814.1328
 269  786.6891
 270  947.8044
 271  1065.684
 272  1111.341
 273  1152.668
 274  820.1039
 275  990.1552
 276  1199.893
 277  1223.118
 278  1003.673
 279  657.4955
 280  692.5875
 281  925.6943
 282  1014.18
 283  862.2589
 284  846.1276
 285  891.9698
 286  819.8829
 287  787.2612
 288  793.0761
 289  1003.813
 290  1304.286
 291  1205.4
 292  1096.753
 293  1267.617
 294  1254.422
 295  1103.888
 296  1138.79
 297  873.2842
 298  860.2554
 299  756.1143
 300  939.0299
 301  770.4249
 302  965.1492
 303  1201.984
 304  921.3737
 305  908.6183
 306  1054.752
 307  972.7859
 308  1168.59
 309  1046.717
 310  921.9194
 311  932.5212
 312  1202.239
 313  1028.771
 314  1064.752
 315  711.5261
 316  919.5272
 317  819.6523
 318  805.7231
 319  1048.859
 320  1100.85
 321  1120.051
 322  938.2551
 323  934.3417
 324  1324.733
 325  1429.429
 326  1733.082
 327  1785.823
 328  1985.122
 329  2264.298
 330  1891.576
 331  1600.453
 332  1197.332
 333  976.4324
 334  813.5859
 335  676.1362
 336  789.725
 337  1027.534
 338  981.2301
 339  1012.497
 340  1321.173
 341  1196.398
 342  1174.827
 343  1344.485
 344  1304.259
 345  1360.781
 346  1304.147
 347  1486.305
 348  1355.406
 349  938.0919
 350  634.5873
 351  687.8435
 352  818.0109
 353  405.8452
 354  521.6585
 355  715.3298
 356  672.6397
 357  220.4359
 358  310.179
 359  630.1652
 360  729.0822
 361  447.4042
 362  474.1017
 363  933.8361
 364  961.5338
 365  1034.333
 366  570.3175
 367  267.7586
 368  505.6239
 369  507.4389
 370  675.6281
 371  387.7701
 372  551.0178
 373  1036.533
 374  528.9902
 375  351.2373
 376  680.9277
 377  573.4705
 378  302.8303
 379  212.2584
 380  948.1854
 381  1068.998
 382  880.1129
 383  547.4209
 384  745.1537
 385  441.2934
 386  327.0863
 387  495.6588
 388  813.2888
 389  916.2158
 390  951.9897
 391  1196.447
 392  1065.643
 393  898.7252
 394  709.7056
 395  608.3528
 396  976.0821
 397  1013.299
 398  571.3312
 399  798.4047
 400  1023.765
 401  1057.365
 402  1056.567
 403  737.3315
 404  919.2158
 405  1207.762
 406  1049.513
 407  855.5746
 408  487.5699
 409  507.2605
 410  506.1825
 411  505.2928
 412  555.2722
 413  410.8647
 414  1059.89
 415  984.7275
 416  1043.514
 417  551.2543
 418  534.94
 419  971.9932
 420  859.3343
 421  488.034
 422  389.9227
 423  572.129
 424  839.5031
 425  658.5338
 426  584.8397
 427  738.6442
 428  724.3295
 429  654.7603
 430  677.71
 431  939.1489
 432  684.7422
 433  741.9716
 434  720.459
 435  697.2151
 436  760.725
 437  504.188
 438  904.0963
 439  686.3323
 440  577.0389
 441  647.2346
 442  698.2168
 443  412.6317
 444  394.308
 445  452.8525
 446  489.6039
 447  611.6106
 448  704.9449
 449  499.7449
 450  538.7253
 451  818.3591
 452  946.7342
 453  1205.825
 454  1318.418
 455  1226.199
 456  802.7361
 457  941.1673
 458  1225.987
 459  1120.1
 460  1056.217
 461  1064.881
 462  1145.166
 463  891.0055
 464  919.2951
 465  1193.462
 466  736.313
 467  854.1719
 468  1302.459
 469  1143.494
 470  920.2158
 471  1139.973
 472  1105.295
 473  755.4306
 474  995.1202
 475  1222.783
 476  1052.761
 477  1338.421
 478  1270.363
 479  1126.885
 480  1036.204
 481  1102.219
 482  954.3011
 483  1044.18
 484  1256.298
 485  971.7682
 486  1073.875
 487  973.9139
 488  1076.581
 489  1046.019
 490  982.363
 491  1090.069
 492  716.6724
 493  678.0026
 494  755.9582
 495  560.079
 496  407.7282
 497  667.619
 498  800.5388
 499  851.7379
 500  933.5952
 501  1417.113
 502  1537.791
 503  1044.038
 504  1131.173
 505  1347.869
 506  1338.76
 507  1350.138
 508  1195.097
 509  1176.059
 510  669.725
 511  812.6934
