# Input file       =  1181614677.117078_cleaned.dat
# Candidate        =  PSR_0332+5434
# Telescope        =  AR
# Epoch_topo       =  57920.096019873592
# Epoch_bary       =  N/A
# T_sample         =  0.002
# Data Folded      =  7208960
# Data Avg         =  0.208521666248667
# Data StdDev      =  4.95091817836139 
# Profile Bins     =  1024
# Profile Avg      =  1467.92912670565 
# Profile StdDev   =  415.40534336255  
# Reduced chi-sqr  =  0.557
# Prob(Noise)      <  1   (~0.0 sigma)
# P_topo (ms)      =  714.502220797123  +/- 4.72e-05
# P'_topo (s/s)    =  -0                +/- 2.53e-11
# P''_topo (s/s^2) =  0                 +/- 1.14e-14
# P_bary (ms)      =  N/A
# P'_bary (s/s)    =  N/A
# P''_bary (s/s^2) =  N/A
# P_orb (s)        =  N/A
# asin(i)/c (s)    =  N/A
# eccentricity     =  N/A
# w (rad)          =  N/A
# T_peri           =  N/A
######################################################
   0  1299.773
   1  1374.729
   2  1343.763
   3  1410.541
   4  1462.119
   5  1428.372
   6  1376.804
   7  1417.95
   8  1363.63
   9  1264.116
  10  1290.782
  11  1340.916
  12  1337.268
  13  1283.536
  14  1480.639
  15  1569.615
  16  1533.141
  17  1457.046
  18  1502.659
  19  1471.391
  20  1308.222
  21  1294.315
  22  1358.749
  23  1429.056
  24  1513.368
  25  1674.727
  26  1622.775
  27  1458.909
  28  1343.039
  29  1485.322
  30  1497.083
  31  1394.278
  32  1221.063
  33  1290.32
  34  1240.362
  35  1438.178
  36  1303.719
  37  1374.415
  38  1089.963
  39  1295.133
  40  1241.271
  41  1243.131
  42  1219.995
  43  1550.447
  44  1669.527
  45  1449.792
  46  1221.497
  47  1248.06
  48  1403.978
  49  1463.213
  50  1360.61
  51  1351.418
  52  1288.242
  53  1362.694
  54  1459.781
  55  1450.279
  56  1441.787
  57  1468.413
  58  1564.886
  59  1395.161
  60  1296.249
  61  1420.482
  62  1518.73
  63  1427.561
  64  1374.13
  65  1429.53
  66  1406.031
  67  1298.96
  68  1236.091
  69  1242.128
  70  1113.005
  71  1115.721
  72  1276.469
  73  1469.299
  74  1572.528
  75  1605.253
  76  1791.821
  77  1808.529
  78  1679.478
  79  1647.292
  80  1616.619
  81  1515.28
  82  1352.622
  83  1420.797
  84  1562.715
  85  1504.48
  86  1507.9
  87  1623.969
  88  1572.629
  89  1561.658
  90  1553.833
  91  1716.487
  92  1693.368
  93  1736.979
  94  1690.822
  95  1634.581
  96  1568.901
  97  1620.181
  98  1711.223
  99  1611.154
 100  1567.221
 101  1452.753
 102  1501.216
 103  1252.398
 104  1263.3
 105  1239.502
 106  1426.211
 107  1485.46
 108  1628.644
 109  1798.539
 110  1922.096
 111  1946.436
 112  1816.402
 113  1693.643
 114  1526.514
 115  1531.375
 116  1592.667
 117  1576.894
 118  1358.046
 119  1247.935
 120  1231.166
 121  1318.829
 122  1218.322
 123  1238.813
 124  1189.812
 125  1342.479
 126  1445.114
 127  1587.071
 128  1534.512
 129  1495.321
 130  1510.908
 131  1611.65
 132  1519.152
 133  1420.647
 134  1403.413
 135  1350.299
 136  1293.232
 137  1254.505
 138  1320.657
 139  1355.325
 140  1453.936
 141  1576.627
 142  1659.389
 143  1695.626
 144  1791.978
 145  1776.511
 146  1643.668
 147  1507.151
 148  1507.44
 149  1604.735
 150  1640.166
 151  1631.77
 152  1533.72
 153  1431.531
 154  1323.593
 155  1276.796
 156  1396.99
 157  1493.937
 158  1474.212
 159  1312.621
 160  1232.314
 161  1185.781
 162  1233.672
 163  1451.656
 164  1528.708
 165  1537.189
 166  1425.005
 167  1486.741
 168  1365.617
 169  1327.716
 170  1327.644
 171  1384.051
 172  1303.061
 173  1301.659
 174  1446.161
 175  1539.027
 176  1543.832
 177  1563.736
 178  1619.728
 179  1489.089
 180  1415.999
 181  1543.884
 182  1738.116
 183  1571.76
 184  1306.097
 185  1252.578
 186  1273.46
 187  1316.477
 188  1288.842
 189  1301.711
 190  1418.256
 191  1485.505
 192  1569.15
 193  1507.137
 194  1450.014
 195  1608.861
 196  1659.572
 197  1594.679
 198  1433.426
 199  1358.494
 200  1386.042
 201  1257.63
 202  1295.415
 203  1349.694
 204  1451.819
 205  1426.203
 206  1482.845
 207  1527.991
 208  1554.702
 209  1539.344
 210  1631.259
 211  1731.027
 212  1693.117
 213  1758.987
 214  1862.86
 215  1794.846
 216  1497.541
 217  1295.198
 218  1414.824
 219  1424.846
 220  1458.241
 221  1512.68
 222  1577.25
 223  1634.746
 224  1768.571
 225  1865.872
 226  1649.638
 227  1549.207
 228  1539.971
 229  1553.124
 230  1449.271
 231  1421.567
 232  1350.207
 233  1324.435
 234  1172.746
 235  1265.806
 236  1290.044
 237  1417.722
 238  1586.578
 239  1672.816
 240  1733.377
 241  1592.521
 242  1703.675
 243  1847.713
 244  1994.656
 245  1832.351
 246  1702.858
 247  1560.32
 248  1596.596
 249  1467.685
 250  1571.645
 251  1524.661
 252  1420.954
 253  1345.419
 254  1496.414
 255  1549.476
 256  1609.179
 257  1665.487
 258  1801.212
 259  1703.505
 260  1680.548
 261  1509.574
 262  1493.708
 263  1383.643
 264  1337.723
 265  1240.467
 266  1195.017
 267  1189.388
 268  1208.593
 269  1355.7
 270  1358.729
 271  1467.951
 272  1556.425
 273  1648.385
 274  1682.806
 275  1776.923
 276  1824.2
 277  1718.186
 278  1503.919
 279  1460.051
 280  1424.503
 281  1327.207
 282  1292.792
 283  1407.365
 284  1440.777
 285  1194.838
 286  1110.136
 287  1207.963
 288  1205.885
 289  1231.01
 290  1365.185
 291  1561.491
 292  1512.304
 293  1466.276
 294  1561.665
 295  1641.839
 296  1518.711
 297  1535.092
 298  1543.518
 299  1436.536
 300  1295.425
 301  1305.904
 302  1370.828
 303  1399.647
 304  1424.388
 305  1607.411
 306  1579.359
 307  1791.239
 308  1928.083
 309  1924.08
 310  1722.294
 311  1632.356
 312  1834.037
 313  1782.057
 314  1620.184
 315  1598.97
 316  1527.474
 317  1383.019
 318  1277.171
 319  1351.809
 320  1537.31
 321  1455.872
 322  1384.354
 323  1262.745
 324  1136.591
 325  1126.358
 326  1307.13
 327  1559.984
 328  1565.163
 329  1464.515
 330  1540.412
 331  1544.667
 332  1345.173
 333  1224.017
 334  1218.589
 335  1259.158
 336  1185.591
 337  1384.363
 338  1505.547
 339  1542.433
 340  1448.743
 341  1571.879
 342  1519.78
 343  1492.881
 344  1374.217
 345  1505.5
 346  1472.736
 347  1400.023
 348  1404.421
 349  1484.475
 350  1384.007
 351  1322.438
 352  1306.298
 353  1370.247
 354  1378.362
 355  1360.094
 356  1366.837
 357  1372.432
 358  1518.201
 359  1551.783
 360  1468.31
 361  1385.612
 362  1487.484
 363  1461.111
 364  1445.084
 365  1216.211
 366  1330.961
 367  1318.665
 368  1424.155
 369  1332.439
 370  1381.959
 371  1340.083
 372  1447.318
 373  1563.551
 374  1662.068
 375  1610.092
 376  1572.783
 377  1652.927
 378  1667.664
 379  1608.102
 380  1598.312
 381  1605.683
 382  1462.116
 383  1163.68
 384  1098.344
 385  1140.881
 386  1248.949
 387  1469.038
 388  1602.313
 389  1700.339
 390  1518.833
 391  1574.391
 392  1557.394
 393  1460.678
 394  1335.034
 395  1418.727
 396  1456.143
 397  1298.854
 398  1141.935
 399  1253.451
 400  1333.428
 401  1295.501
 402  1318.995
 403  1401.872
 404  1417.704
 405  1385.837
 406  1561.053
 407  1683.359
 408  1665.77
 409  1565.954
 410  1694.609
 411  1697.186
 412  1478.802
 413  1398.336
 414  1562.632
 415  1502.61
 416  1362.32
 417  1237.233
 418  1305.895
 419  1218.449
 420  1150.179
 421  1291.308
 422  1431.761
 423  1420.648
 424  1497.475
 425  1646.685
 426  1599.694
 427  1494.42
 428  1519.332
 429  1578.578
 430  1440.113
 431  1542.471
 432  1652.069
 433  1643.778
 434  1463.208
 435  1469.04
 436  1589.039
 437  1407.468
 438  1458.551
 439  1578.485
 440  1836.521
 441  1743.631
 442  1694.134
 443  1691.738
 444  1624.585
 445  1682.521
 446  1749.54
 447  1719.045
 448  1449.385
 449  1203.227
 450  1146.024
 451  1168.193
 452  1228.634
 453  1312.725
 454  1426.632
 455  1429.334
 456  1310.644
 457  1401.439
 458  1465.521
 459  1530.746
 460  1560.553
 461  1694.552
 462  1668.125
 463  1545.272
 464  1532.42
 465  1433.972
 466  1280.909
 467  1174.647
 468  1274.304
 469  1335.126
 470  1426.359
 471  1492.184
 472  1724.57
 473  1702.371
 474  1756.018
 475  1768.937
 476  1916.472
 477  1826.16
 478  1656.078
 479  1424.446
 480  1400.147
 481  1495.795
 482  1522.279
 483  1384.326
 484  1254.091
 485  1226.005
 486  1255.248
 487  1299.062
 488  1354.696
 489  1429.133
 490  1454.383
 491  1383.184
 492  1346.802
 493  1410.061
 494  1587.994
 495  1469.068
 496  1331.567
 497  1305.116
 498  1365.609
 499  1446.795
 500  1345.033
 501  1495.719
 502  1493.11
 503  1440.414
 504  1440.099
 505  1554.03
 506  1635.846
 507  1561.603
 508  1476.292
 509  1525.105
 510  1566.848
 511  1526.988
 512  1449.323
 513  1442.243
 514  1364.552
 515  1235.989
 516  1089.957
 517  1067.948
 518  1059.37
 519  1076.074
 520  1201.606
 521  1263.576
 522  1377.215
 523  1463.1
 524  1607.051
 525  1640.3
 526  1725.615
 527  1764.423
 528  1764.409
 529  1642.343
 530  1656.841
 531  1580.527
 532  1371.469
 533  1138.168
 534  1250.296
 535  1346.789
 536  1538.772
 537  1657.261
 538  1773.146
 539  1761.706
 540  1742.546
 541  1642.138
 542  1582.106
 543  1540.906
 544  1539.526
 545  1468.709
 546  1351.534
 547  1250.432
 548  1242.706
 549  1243.233
 550  1289.753
 551  1399.123
 552  1347.732
 553  1342.757
 554  1351.047
 555  1496.46
 556  1529.771
 557  1431.91
 558  1419.053
 559  1433.187
 560  1530.164
 561  1508.517
 562  1536.355
 563  1484.246
 564  1438.445
 565  1339.645
 566  1397.375
 567  1339.387
 568  1204.736
 569  1134.3
 570  1254.945
 571  1475.24
 572  1583.494
 573  1678.408
 574  1650.574
 575  1612.876
 576  1505.284
 577  1467.722
 578  1475.86
 579  1313.941
 580  1244.56
 581  1191.555
 582  1166.959
 583  1201.947
 584  1299.241
 585  1371.052
 586  1328.852
 587  1437.082
 588  1542.443
 589  1514.286
 590  1330.839
 591  1338.722
 592  1533.646
 593  1618.839
 594  1578.846
 595  1544.689
 596  1510.995
 597  1389.511
 598  1366.303
 599  1291.944
 600  1264.54
 601  1384.735
 602  1500.453
 603  1678.607
 604  1662.378
 605  1749.637
 606  1667.551
 607  1688.832
 608  1691.239
 609  1743.707
 610  1769.42
 611  1585.464
 612  1380.513
 613  1266.008
 614  1392.72
 615  1387.971
 616  1384.143
 617  1331.576
 618  1404.612
 619  1447.911
 620  1449.746
 621  1468.575
 622  1565.964
 623  1612.244
 624  1678.949
 625  1713.166
 626  1632.043
 627  1579.576
 628  1682.567
 629  1662.407
 630  1543.925
 631  1336.879
 632  1261.584
 633  1197.866
 634  1257.735
 635  1353.189
 636  1449.758
 637  1495.356
 638  1478.43
 639  1496.791
 640  1629.198
 641  1719.368
 642  1713.944
 643  1720.716
 644  1615.718
 645  1606.678
 646  1529.165
 647  1645.563
 648  1658.183
 649  1601.073
 650  1677.966
 651  1833.535
 652  1783.059
 653  1750.286
 654  1835.593
 655  2122.225
 656  2022.44
 657  2067.308
 658  2084.456
 659  2103.163
 660  2027.654
 661  1971.336
 662  1908.161
 663  1642.352
 664  1487.178
 665  1384.046
 666  1395.798
 667  1282.595
 668  1403.339
 669  1463.119
 670  1614.659
 671  1605.909
 672  1572.251
 673  1528.737
 674  1447.778
 675  1619.825
 676  1609.974
 677  1615.247
 678  1581.458
 679  1573.682
 680  1437.014
 681  1323.744
 682  1231.701
 683  1322.108
 684  1392.351
 685  1350.147
 686  1407.468
 687  1525.229
 688  1708.225
 689  1614.964
 690  1568.397
 691  1448.603
 692  1437.212
 693  1445.348
 694  1589.056
 695  1542.132
 696  1434.021
 697  1371.119
 698  1436.374
 699  1440.743
 700  1421.144
 701  1433.654
 702  1406.397
 703  1328.048
 704  1402.732
 705  1516.465
 706  1558.983
 707  1524.874
 708  1598.741
 709  1562.738
 710  1541.577
 711  1538.674
 712  1623.826
 713  1419.059
 714  1217.927
 715  1179.416
 716  1312.256
 717  1317.769
 718  1440.614
 719  1540.982
 720  1672.953
 721  1557.872
 722  1448.33
 723  1441.749
 724  1424.682
 725  1421.683
 726  1282.843
 727  1353.035
 728  1374.666
 729  1493.136
 730  1446.556
 731  1452.941
 732  1404.743
 733  1425.93
 734  1424.629
 735  1307.01
 736  1347.527
 737  1446.911
 738  1636.553
 739  1451.036
 740  1475.843
 741  1371.57
 742  1466.074
 743  1509.501
 744  1591.465
 745  1596.857
 746  1440.738
 747  1362.517
 748  1449.406
 749  1436.808
 750  1286.267
 751  1367.076
 752  1523.939
 753  1697.637
 754  1681.257
 755  1705.083
 756  1724.711
 757  1636.975
 758  1569.483
 759  1561.621
 760  1459.098
 761  1258.409
 762  1181.222
 763  1219.71
 764  1225.958
 765  1156.124
 766  1184.995
 767  1262.573
 768  1377.517
 769  1434.98
 770  1665.216
 771  1814.285
 772  1797.126
 773  1661.418
 774  1419.685
 775  1239.319
 776  1180.599
 777  1374.171
 778  1495.75
 779  1264.348
 780  1127.262
 781  1109.069
 782  1157.797
 783  1131.185
 784  1374.933
 785  1554.907
 786  1489.866
 787  1364.912
 788  1494.536
 789  1557.928
 790  1557.767
 791  1517.11
 792  1589.367
 793  1494.98
 794  1414.225
 795  1402.272
 796  1347.633
 797  1143.339
 798  1080.33
 799  1186.127
 800  1280.372
 801  1314.043
 802  1405.915
 803  1573.844
 804  1575.495
 805  1506.228
 806  1483.126
 807  1442.987
 808  1425.193
 809  1372.157
 810  1457.157
 811  1473.362
 812  1460.921
 813  1464.508
 814  1476.686
 815  1395.899
 816  1339.94
 817  1376.11
 818  1443.076
 819  1418.514
 820  1458.905
 821  1542.769
 822  1643.702
 823  1518.142
 824  1488.774
 825  1450.389
 826  1507.934
 827  1516.683
 828  1489.382
 829  1368.929
 830  1210.536
 831  1359.41
 832  1431.923
 833  1459.355
 834  1371.771
 835  1439.284
 836  1528.255
 837  1585.171
 838  1546.223
 839  1606.378
 840  1573.74
 841  1544.62
 842  1592.695
 843  1561.799
 844  1536.525
 845  1437.024
 846  1461.942
 847  1306.181
 848  1141.01
 849  1162.404
 850  1315.375
 851  1445.13
 852  1408.056
 853  1443.497
 854  1516.159
 855  1437.775
 856  1225.831
 857  1220.087
 858  1370.837
 859  1347.329
 860  1376.988
 861  1389.733
 862  1386.443
 863  1194.534
 864  1241.885
 865  1293.704
 866  1378.745
 867  1350.254
 868  1431.61
 869  1432.297
 870  1384.676
 871  1366.189
 872  1341.85
 873  1322.737
 874  1231.805
 875  1439.492
 876  1589.061
 877  1546.637
 878  1506.888
 879  1512.016
 880  1485.776
 881  1463.164
 882  1508.398
 883  1599.416
 884  1496.778
 885  1475.649
 886  1508.888
 887  1612.599
 888  1508.573
 889  1454.843
 890  1439.366
 891  1509.425
 892  1373.875
 893  1282.253
 894  1217.837
 895  1160.591
 896  1197.896
 897  1342.288
 898  1366.779
 899  1290.633
 900  1362.723
 901  1557.172
 902  1596.993
 903  1463.686
 904  1506.541
 905  1547.099
 906  1580.959
 907  1574.402
 908  1621.51
 909  1498.334
 910  1397.413
 911  1347.321
 912  1348.467
 913  1224.213
 914  1307.862
 915  1488.187
 916  1469.843
 917  1385.444
 918  1492.148
 919  1597.174
 920  1507.334
 921  1266.805
 922  1194.568
 923  1144.817
 924  1048.886
 925  1047.478
 926  1210.83
 927  1179.218
 928  1148.55
 929  1100.366
 930  1290.802
 931  1232.192
 932  1352.231
 933  1551.639
 934  1678.165
 935  1570.262
 936  1613.638
 937  1823.025
 938  1761.299
 939  1550.578
 940  1426.878
 941  1496.526
 942  1508.876
 943  1493.946
 944  1348.814
 945  1223.484
 946  1127.511
 947  1255.642
 948  1483.71
 949  1501.786
 950  1538.792
 951  1656.297
 952  1738.948
 953  1755.71
 954  1685.499
 955  1807.474
 956  1732.842
 957  1662.453
 958  1597.679
 959  1615.928
 960  1409.63
 961  1334.044
 962  1362.329
 963  1337.987
 964  1259.335
 965  1213.5
 966  1534.066
 967  1523.682
 968  1634.417
 969  1656.876
 970  1881.344
 971  1824.295
 972  1798.026
 973  1595.991
 974  1632.827
 975  1563.69
 976  1679.399
 977  1653.36
 978  1608.729
 979  1354.878
 980  1334.347
 981  1427.188
 982  1515.506
 983  1564.791
 984  1628.23
 985  1513.998
 986  1339.651
 987  1376.876
 988  1544.905
 989  1575.229
 990  1516.752
 991  1589.316
 992  1597.689
 993  1498.587
 994  1365.288
 995  1294.638
 996  1192.629
 997  1217.121
 998  1417.445
 999  1497.993
1000  1508.37
1001  1572.28
1002  1688.897
1003  1686.921
1004  1477.568
1005  1374.509
1006  1531.965
1007  1653.304
1008  1760.699
1009  1665.917
1010  1639.014
1011  1344.998
1012  1259.615
1013  1385.314
1014  1544.775
1015  1505.007
1016  1432.332
1017  1450.131
1018  1533.199
1019  1469.651
1020  1524.464
1021  1532.272
1022  1427.312
1023  1296.928
