# Input file       =  1181543118.119314_cleaned.dat
# Candidate        =  PSR_0332+5434
# Telescope        =  AR
# Epoch_topo       =  57919.267790732803
# Epoch_bary       =  N/A
# T_sample         =  0.002
# Data Folded      =  7340032
# Data Avg         =  0.0660455333969104
# Data StdDev      =  2.78714605151482 
# Profile Bins     =  512
# Profile Avg      =  947.315262654955 
# Profile StdDev   =  333.713459573384 
# Reduced chi-sqr  =  0.984
# Prob(Noise)      <  0.593   (~0.0 sigma)
# P_topo (ms)      =  714.502996036316  +/- 0.000359
# P'_topo (s/s)    =  -0                +/- 1.89e-10
# P''_topo (s/s^2) =  0                 +/- 8.37e-14
# P_bary (ms)      =  N/A
# P'_bary (s/s)    =  N/A
# P''_bary (s/s^2) =  N/A
# P_orb (s)        =  N/A
# asin(i)/c (s)    =  N/A
# eccentricity     =  N/A
# w (rad)          =  N/A
# T_peri           =  N/A
######################################################
   0  1086.101
   1  955.2746
   2  815.9662
   3  1001.607
   4  885.8185
   5  725.62
   6  598.8472
   7  619.9262
   8  597.3027
   9  748.0029
  10  990.6528
  11  1118.388
  12  1000.118
  13  748.2871
  14  1363.543
  15  1557.347
  16  1603.451
  17  1274.866
  18  1141.203
  19  1333.577
  20  1202.365
  21  979.7458
  22  782.3345
  23  871.4746
  24  1010.141
  25  1059.18
  26  789.2717
  27  929.6581
  28  1019.624
  29  1351.737
  30  1160.633
  31  989.9318
  32  976.4305
  33  1069.656
  34  1204.336
  35  1391.42
  36  1346.995
  37  956.8522
  38  1110.527
  39  952.9138
  40  944.479
  41  977.9578
  42  1084.335
  43  1226.376
  44  1295.263
  45  1192.103
  46  1415.794
  47  1345.143
  48  1463.714
  49  1207.027
  50  1081.617
  51  1375.982
  52  970.6127
  53  1032.49
  54  1318.068
  55  998.2655
  56  852.5856
  57  944.3334
  58  1031.365
  59  1025.839
  60  1000.928
  61  879.045
  62  947.371
  63  1012.481
  64  1054.34
  65  947.1404
  66  1026.162
  67  976.2385
  68  1259.972
  69  1144.172
  70  830.0676
  71  775.8105
  72  721.7422
  73  929.5331
  74  1161.271
  75  745.6013
  76  933.8653
  77  908.8694
  78  899.5764
  79  788.166
  80  532.14
  81  871.4305
  82  686.0316
  83  616.4945
  84  788.6312
  85  914.8685
  86  753.192
  87  1015.519
  88  1006.755
  89  768.0111
  90  375.9935
  91  972.896
  92  1177.114
  93  1013.279
  94  835.1263
  95  1027.583
  96  1155.322
  97  1203.833
  98  1191.778
  99  836.3496
 100  814.22
 101  788.0554
 102  907.6157
 103  775.4899
 104  677.6475
 105  553.3183
 106  790.371
 107  958.3652
 108  940.9213
 109  812.3521
 110  888.6058
 111  985.4395
 112  1041.633
 113  994.5282
 114  605.8594
 115  573.6743
 116  781.4321
 117  1130.352
 118  1118.129
 119  1059.248
 120  821.7831
 121  1035.062
 122  1177.322
 123  1369.24
 124  1310.032
 125  1011.104
 126  906.7697
 127  780.6883
 128  660.8492
 129  749.5993
 130  875.6853
 131  1026.166
 132  818.8174
 133  672.0234
 134  797.5853
 135  732.2398
 136  981.6898
 137  1098.775
 138  723.8434
 139  704.3855
 140  906.8812
 141  776.9395
 142  1036.994
 143  1172.6
 144  867.0322
 145  897.7655
 146  939.895
 147  1249.564
 148  1078.424
 149  1058.556
 150  1141.9
 151  962.1598
 152  824.3351
 153  874.6878
 154  417.9177
 155  499.3447
 156  654.1907
 157  804.8181
 158  788.6315
 159  613.5475
 160  755.3769
 161  636.0508
 162  1218.631
 163  999.9254
 164  788.9978
 165  861.4349
 166  938.5445
 167  1380.311
 168  1179.166
 169  797.1245
 170  1290.298
 171  1337.086
 172  944.2892
 173  1049.169
 174  1242.902
 175  1350.664
 176  869.1629
 177  834.1059
 178  887.8186
 179  1143.01
 180  978.5793
 181  1107.404
 182  968.6649
 183  980.3751
 184  959.2924
 185  984.0128
 186  927.6003
 187  1104.155
 188  1227.823
 189  981.9187
 190  612.3112
 191  675.1817
 192  704.9459
 193  834.0042
 194  887.1147
 195  1098.081
 196  1147.554
 197  921.0769
 198  1055.445
 199  761.4587
 200  993.3286
 201  1007.638
 202  980.8661
 203  901.6595
 204  750.4494
 205  887.5312
 206  740.4377
 207  869.1027
 208  815.8636
 209  909.7226
 210  561.366
 211  887.973
 212  782.2944
 213  1063.944
 214  937.2178
 215  665.9045
 216  669.3763
 217  756.6519
 218  675.0019
 219  632.2559
 220  802.7825
 221  837.1041
 222  1002.958
 223  1141.486
 224  1112.036
 225  1053.815
 226  950.691
 227  1050.015
 228  1210.205
 229  1330.767
 230  1235.311
 231  1071.058
 232  1119.109
 233  1053.78
 234  1065.765
 235  1275.236
 236  1505.339
 237  1247.463
 238  1313.407
 239  1635.756
 240  1800.664
 241  2093.517
 242  2356.19
 243  2128.772
 244  1687.881
 245  1644.496
 246  1515.434
 247  1042.681
 248  898.5198
 249  895.3517
 250  1147.51
 251  1236.193
 252  1020.51
 253  1175.744
 254  1216.524
 255  927.4954
 256  870.1307
 257  1195.701
 258  1305.591
 259  1452.184
 260  1226.211
 261  989.02
 262  1053.001
 263  918.8711
 264  998.8387
 265  814.2959
 266  761.3654
 267  966.5402
 268  729.2294
 269  815.1663
 270  1054.795
 271  1230.235
 272  1237.177
 273  706.9802
 274  1031.916
 275  853.9598
 276  837.7328
 277  835.6896
 278  1184.404
 279  1341.351
 280  749.0264
 281  1078.387
 282  1184.459
 283  1089.781
 284  1093.163
 285  800.6676
 286  997.5607
 287  1147.689
 288  1202.361
 289  1308.944
 290  1046.955
 291  848.5349
 292  746.2014
 293  1053.389
 294  1018.675
 295  1023.111
 296  939.8854
 297  1245.054
 298  1387.016
 299  1382.032
 300  1142.235
 301  721.1228
 302  945.9874
 303  988.1197
 304  882.8375
 305  1097.383
 306  1197.422
 307  914.1301
 308  789.7572
 309  930.91
 310  985.7628
 311  1257.215
 312  1482.706
 313  939.1349
 314  745.4626
 315  732.6766
 316  900.7355
 317  1021.842
 318  1235.405
 319  1000.969
 320  647.4326
 321  1024.787
 322  1091.835
 323  841.0189
 324  643.9248
 325  621.1746
 326  1156.023
 327  1017.916
 328  997.7559
 329  964.4802
 330  912.2792
 331  866.8309
 332  946.9329
 333  974.8531
 334  619.5633
 335  562.9555
 336  1005.856
 337  1172.928
 338  1047.269
 339  940.7104
 340  667.2907
 341  678.8951
 342  421.9718
 343  461.4879
 344  488.552
 345  682.4037
 346  812.2683
 347  895.2839
 348  769.7703
 349  765.9716
 350  886.1174
 351  925.8802
 352  925.2869
 353  951.4732
 354  1001.766
 355  1170.722
 356  1020.327
 357  911.754
 358  467.7458
 359  776.5195
 360  724.569
 361  666.43
 362  653.2141
 363  578.3463
 364  726.0742
 365  855.3648
 366  910.7176
 367  836.1348
 368  591.2567
 369  855.1097
 370  964.4969
 371  1217.222
 372  998.063
 373  874.1126
 374  823.0891
 375  1053.583
 376  1088.469
 377  843.6295
 378  869.0976
 379  1126.136
 380  1159.425
 381  850.4528
 382  1053.921
 383  922.5057
 384  989.6958
 385  824.3488
 386  773.8024
 387  864.4434
 388  646.4288
 389  767.2867
 390  1375.456
 391  1179.65
 392  1013.875
 393  920.5024
 394  922.8123
 395  985.3804
 396  861.8688
 397  829.7512
 398  1065.724
 399  982.4149
 400  972.9007
 401  805.7816
 402  848.1424
 403  1066.758
 404  1029.382
 405  688.0392
 406  883.6606
 407  992.1492
 408  949.1823
 409  1017.185
 410  617.4324
 411  677.8725
 412  1041.406
 413  1242.403
 414  1128.843
 415  857.6193
 416  904.9786
 417  875.9807
 418  895.1083
 419  954.9531
 420  615.4661
 421  749.6583
 422  965.6523
 423  918.4955
 424  696.379
 425  663.4664
 426  893.9841
 427  706.0331
 428  793.5123
 429  757.3945
 430  609.1945
 431  615.4916
 432  784.7507
 433  760.1125
 434  772.238
 435  824.6661
 436  748.537
 437  762.1506
 438  543.0324
 439  761.2344
 440  702.4901
 441  882.2418
 442  812.4106
 443  629.8066
 444  735.6656
 445  741.7362
 446  632.0785
 447  842.5237
 448  926.8555
 449  974.5881
 450  721.6862
 451  739.3341
 452  567.6058
 453  828.792
 454  988.931
 455  675.9283
 456  546.6238
 457  693.4674
 458  649.9282
 459  888.1874
 460  953.3079
 461  1045.304
 462  931.5693
 463  903.9617
 464  1173.664
 465  934.2542
 466  983.1356
 467  1051.346
 468  1026.604
 469  905.8527
 470  1055.642
 471  1067.663
 472  1001.48
 473  965.2299
 474  956.7148
 475  782.9388
 476  819.9332
 477  929.2485
 478  902.491
 479  930.7891
 480  1122.815
 481  984.4705
 482  918.5901
 483  764.3784
 484  686.8773
 485  527.5981
 486  766.0375
 487  888.5548
 488  947.3253
 489  843.5917
 490  876.4302
 491  680.1748
 492  222.3876
 493  677.565
 494  930.6995
 495  1185.564
 496  1018.496
 497  829.2226
 498  853.9651
 499  748.377
 500  722.4326
 501  806.1906
 502  629.4544
 503  395.8099
 504  524.498
 505  728.8329
 506  972.4252
 507  1047.335
 508  763.9845
 509  860.428
 510  990.5015
 511  1051.701
