# Input file       =  1181284629.109167_cleaned.dat
# Candidate        =  PSR_0332+5434
# Telescope        =  AR
# Epoch_topo       =  57916.276019782024
# Epoch_bary       =  N/A
# T_sample         =  0.002
# Data Folded      =  7340032
# Data Avg         =  0.0800868118468703
# Data StdDev      =  2.72614802195961 
# Profile Bins     =  512
# Profile Avg      =  1147.1932225008  
# Profile StdDev   =  326.409980281739 
# Reduced chi-sqr  =  1.075
# Prob(Noise)      <  0.116   (~1.2 sigma)
# P_topo (ms)      =  714.505780521016  +/- 0.000243
# P'_topo (s/s)    =  -0                +/- 1.28e-10
# P''_topo (s/s^2) =  0                 +/- 5.66e-14
# P_bary (ms)      =  N/A
# P'_bary (s/s)    =  N/A
# P''_bary (s/s^2) =  N/A
# P_orb (s)        =  N/A
# asin(i)/c (s)    =  N/A
# eccentricity     =  N/A
# w (rad)          =  N/A
# T_peri           =  N/A
######################################################
   0  1160.524
   1  1517.873
   2  1836.074
   3  1570.072
   4  1218.91
   5  1164.457
   6  975.6864
   7  1185.372
   8  1170.204
   9  1260.376
  10  991.0478
  11  1153.827
  12  1395.818
  13  1117.672
  14  1025.083
  15  1216.165
  16  1129.61
  17  874.7288
  18  1171.667
  19  1045.638
  20  1344.815
  21  1489.474
  22  1573.48
  23  1584.638
  24  1194.564
  25  937.9622
  26  905.8972
  27  1197.203
  28  1259.802
  29  1227.401
  30  1842.374
  31  1444.201
  32  1330.408
  33  1288.036
  34  1152.33
  35  984.0902
  36  1184.069
  37  1676.117
  38  1230.418
  39  1111.724
  40  1271.984
  41  1512.198
  42  1531.283
  43  1268.894
  44  1265.449
  45  1421.556
  46  1709.148
  47  1221.339
  48  1058.839
  49  1112.196
  50  1362.35
  51  1205.645
  52  1149.771
  53  1592.341
  54  1385.394
  55  1173.255
  56  800.4118
  57  957.3527
  58  1062.886
  59  1101.148
  60  1174.916
  61  1100.656
  62  1203.945
  63  1168.858
  64  1100.189
  65  1130.809
  66  840.8271
  67  1284.812
  68  1257.19
  69  1278.791
  70  1702.786
  71  1558.443
  72  1439.66
  73  1331.601
  74  1160.961
  75  1267.812
  76  1270.847
  77  1137.768
  78  1204.62
  79  1390.861
  80  1470.011
  81  1269.48
  82  1163.821
  83  1013.982
  84  1205.437
  85  1177.064
  86  1448.523
  87  1521.224
  88  1416.488
  89  1619.775
  90  2009.726
  91  2507.916
  92  2377.844
  93  2291.268
  94  2292.946
  95  2291.226
  96  1805.479
  97  1241.071
  98  1022.479
  99  1139.924
 100  1122.562
 101  916.6254
 102  1076.821
 103  1165.777
 104  906.6228
 105  1247.318
 106  1570.849
 107  1453.346
 108  1196.253
 109  978.5256
 110  1320.877
 111  1236.873
 112  1355.929
 113  1249.976
 114  802.9237
 115  888.1752
 116  1158.018
 117  1222.814
 118  1303.298
 119  1250.546
 120  1115.993
 121  1208.75
 122  1060.576
 123  700.7618
 124  886.4207
 125  890.1605
 126  1468.749
 127  1440.927
 128  1256.68
 129  1415.906
 130  1400.222
 131  1282.481
 132  1208.173
 133  1282.477
 134  1223.681
 135  1004.927
 136  1207.427
 137  1200.073
 138  1315.395
 139  1009.963
 140  903.9549
 141  806.6864
 142  1076.31
 143  975.1809
 144  1047.784
 145  1156.738
 146  1219.155
 147  1143.657
 148  956.3627
 149  808.1534
 150  680.7736
 151  789.8009
 152  920.8318
 153  1065.348
 154  1118.943
 155  1115.028
 156  1296.585
 157  1283.49
 158  1234.106
 159  1169.179
 160  1119.406
 161  984.4374
 162  894.7962
 163  967.734
 164  723.3865
 165  798.9616
 166  1037.474
 167  1145.155
 168  1129.619
 169  1115.832
 170  1249.716
 171  1322.865
 172  1442.144
 173  1193.89
 174  1261.305
 175  1164.537
 176  1049.076
 177  1022.657
 178  1142.683
 179  1181.845
 180  1284.279
 181  1286.26
 182  1482.24
 183  1372.854
 184  1040.629
 185  871.5556
 186  789.2001
 187  1234.281
 188  1277.95
 189  1152.487
 190  952.2546
 191  1012.958
 192  1088.692
 193  1116.021
 194  1355.282
 195  1420.066
 196  1226.218
 197  1047.197
 198  886.4241
 199  1145.969
 200  1254.345
 201  1021.862
 202  1023.308
 203  1089.474
 204  1166.636
 205  803.3194
 206  833.257
 207  1042.899
 208  896.0637
 209  941.1823
 210  896.3145
 211  601.9935
 212  976.1321
 213  746.0036
 214  694.4333
 215  768.4714
 216  1055.923
 217  1012.705
 218  963.9211
 219  1004.107
 220  1248.049
 221  1137.54
 222  1085.188
 223  1174.675
 224  985.4658
 225  832.8402
 226  1154.647
 227  1034.886
 228  903.5993
 229  859.3052
 230  1043.887
 231  994.6331
 232  1013.209
 233  1200.907
 234  1490.049
 235  1191.317
 236  1152.078
 237  1154.802
 238  1138.695
 239  1227.153
 240  1116.592
 241  1029.341
 242  902.6102
 243  746.592
 244  761.557
 245  1013.538
 246  1054.037
 247  1077.302
 248  1101.451
 249  879.741
 250  836.9542
 251  765.0332
 252  1044.939
 253  915.0867
 254  693.299
 255  864.8791
 256  1030.192
 257  1133.791
 258  1386.85
 259  1405.994
 260  1095.402
 261  886.3973
 262  980.134
 263  849.0422
 264  787.8201
 265  761.301
 266  1144.24
 267  1284.451
 268  1066.739
 269  1103.18
 270  672.2941
 271  695.8041
 272  800.0009
 273  759.6841
 274  839.462
 275  871.0026
 276  1014.101
 277  958.0563
 278  1060.608
 279  991.7332
 280  1138.908
 281  969.8408
 282  1311.27
 283  1283.739
 284  1295.139
 285  1425
 286  1409.084
 287  1325.878
 288  1126.604
 289  1258.464
 290  1330.688
 291  1204.727
 292  1401.555
 293  1276.38
 294  1275.054
 295  1301.888
 296  1361.678
 297  1300.034
 298  1102.73
 299  1081.95
 300  1085.968
 301  1024.38
 302  712.9063
 303  814.0424
 304  995.3762
 305  830.53
 306  750.9864
 307  949.8931
 308  883.4619
 309  926.0215
 310  795.3686
 311  969.6977
 312  1033.266
 313  908.2256
 314  1275.677
 315  909.996
 316  738.5707
 317  591.5297
 318  979.5601
 319  1488.033
 320  1168.491
 321  1157.586
 322  952.6924
 323  787.5253
 324  968.183
 325  813.9286
 326  1069.688
 327  1090.249
 328  1212.282
 329  1578.193
 330  1111.601
 331  1123.195
 332  1033.357
 333  1191.056
 334  1330.172
 335  1385.688
 336  1271.55
 337  1140.565
 338  1155.682
 339  1101.103
 340  1135.517
 341  1136.16
 342  1226.681
 343  917.1501
 344  1237.137
 345  1193.111
 346  1159.972
 347  984.3776
 348  1358.514
 349  1296.86
 350  1433.123
 351  1441.211
 352  1082.112
 353  1107.437
 354  1011.107
 355  1030.456
 356  1000.302
 357  892.217
 358  1173.12
 359  1322.047
 360  1376.597
 361  1076.919
 362  1059.62
 363  1343.602
 364  1182.075
 365  1361.35
 366  1444.093
 367  1422.58
 368  1352.487
 369  1454.034
 370  1473.052
 371  1233.852
 372  1063.263
 373  881.0073
 374  828.9503
 375  1106.178
 376  1070.914
 377  896.2855
 378  963.0252
 379  1073.77
 380  866.7004
 381  1010.282
 382  1333.497
 383  1512.392
 384  1539.792
 385  1214.788
 386  1061.39
 387  1306.996
 388  1695.05
 389  1598.791
 390  1221.678
 391  995.2625
 392  1224.031
 393  1191.731
 394  1261.304
 395  1145.292
 396  1104.861
 397  1018.571
 398  1195.361
 399  1359.805
 400  1265.831
 401  1028.245
 402  976.2175
 403  1314.915
 404  1100.402
 405  1164.9
 406  1463.179
 407  1268.673
 408  1200.996
 409  1180.919
 410  1019.188
 411  1377.092
 412  1239.719
 413  1018.515
 414  1059.781
 415  955.6557
 416  867.1774
 417  982.1881
 418  1079.285
 419  1197.649
 420  1439.277
 421  1492.326
 422  1228.358
 423  1384.157
 424  1139.481
 425  1200.753
 426  1546.404
 427  1402.052
 428  1245.005
 429  1167.444
 430  1318.636
 431  1221.816
 432  1393.973
 433  1195.97
 434  1391.172
 435  1257.664
 436  939.7023
 437  1070.417
 438  1032.956
 439  1309.498
 440  1049.626
 441  1182.561
 442  1280.088
 443  1216.644
 444  1104.221
 445  1310.815
 446  1095.335
 447  1027
 448  1271.367
 449  1278.11
 450  1232.56
 451  979.3348
 452  988.3683
 453  992.9214
 454  1009.165
 455  1026.334
 456  852.4617
 457  968.7281
 458  1131.774
 459  1103.788
 460  1156.99
 461  1266.455
 462  1057.632
 463  930.9064
 464  924.2726
 465  1101.191
 466  1200.331
 467  1304.741
 468  921.5408
 469  850.0189
 470  1149.253
 471  705.5144
 472  745.9869
 473  1219.696
 474  1119.637
 475  1162.256
 476  1195.025
 477  1166.871
 478  1045.148
 479  1069.607
 480  836.9305
 481  988.9879
 482  1062.223
 483  974.8268
 484  903.566
 485  943.8823
 486  988.0703
 487  1273.599
 488  1338.461
 489  1228.06
 490  1090.383
 491  995.6548
 492  1082.82
 493  821.5217
 494  840.561
 495  1129.768
 496  1431.238
 497  1257.503
 498  1116.255
 499  1066.377
 500  922.2773
 501  866.7726
 502  1180.288
 503  1036.714
 504  940.7762
 505  1186.664
 506  1167.652
 507  1267.241
 508  1112.953
 509  686.4348
 510  535.9351
 511  855.8741
