# Input file       =  1181127197.108836_cleaned.dat
# Candidate        =  PSR_0332+5434
# Telescope        =  AR
# Epoch_topo       =  57914.453890148565
# Epoch_bary       =  N/A
# T_sample         =  0.002
# Data Folded      =  7340032
# Data Avg         =  0.112774332820014
# Data StdDev      =  3.57186059583356 
# Profile Bins     =  1024
# Profile Avg      =  808.256952035883 
# Profile StdDev   =  302.408155339731 
# Reduced chi-sqr  =  0.775
# Prob(Noise)      <  1   (~0.0 sigma)
# P_topo (ms)      =  714.507827466641  +/- 0.000703
# P'_topo (s/s)    =  -0                +/- 3.71e-10
# P''_topo (s/s^2) =  0                 +/- 1.64e-13
# P_bary (ms)      =  N/A
# P'_bary (s/s)    =  N/A
# P''_bary (s/s^2) =  N/A
# P_orb (s)        =  N/A
# asin(i)/c (s)    =  N/A
# eccentricity     =  N/A
# w (rad)          =  N/A
# T_peri           =  N/A
######################################################
   0  1002.951
   1  919.8624
   2  896.2964
   3  761.1121
   4  748.9443
   5  738.0555
   6  762.7324
   7  695.9433
   8  675.2076
   9  681.573
  10  618.3152
  11  588.4719
  12  624.3763
  13  726.531
  14  766.2615
  15  735.8041
  16  725.3743
  17  721.7454
  18  797.4867
  19  918.1238
  20  804.4882
  21  715.1155
  22  636.0344
  23  715.6692
  24  662.4255
  25  574.3041
  26  484.01
  27  583.3534
  28  800.9641
  29  1003.232
  30  1035.414
  31  1071.18
  32  1010.918
  33  900.4813
  34  699.88
  35  577.0174
  36  546.6107
  37  627.0328
  38  700.8058
  39  725.6862
  40  729.861
  41  731.2119
  42  724.7363
  43  719.4058
  44  746.0643
  45  796.6414
  46  914.48
  47  867.9754
  48  949.0624
  49  863.2246
  50  856.1463
  51  770.6197
  52  763.5261
  53  802.0616
  54  844.5577
  55  938.5421
  56  934.2031
  57  794.7315
  58  679.6149
  59  687.379
  60  788.1103
  61  801.5475
  62  790.5013
  63  817.6553
  64  839.2832
  65  823.3016
  66  771.6389
  67  727.2271
  68  695.0093
  69  601.8652
  70  606.1437
  71  629.5199
  72  620.6719
  73  651.2921
  74  595.3812
  75  526.9234
  76  548.2903
  77  763.8516
  78  946.8748
  79  848.7946
  80  702.3089
  81  550.5156
  82  484.8288
  83  547.7916
  84  685.3396
  85  777.3231
  86  719.259
  87  634.1695
  88  663.5649
  89  660.3487
  90  635.2332
  91  553.0148
  92  548.7625
  93  610.7905
  94  788.4115
  95  805.8034
  96  765.142
  97  684.3788
  98  763.0385
  99  903.8128
 100  861.6371
 101  766.9818
 102  707.3791
 103  702.0814
 104  814.0139
 105  732.8998
 106  732.4051
 107  735.994
 108  740.3667
 109  797.7692
 110  714.2982
 111  852.8524
 112  869.3102
 113  988.3263
 114  954.4037
 115  915.8062
 116  854.1509
 117  785.6375
 118  806.0039
 119  725.2029
 120  701.0209
 121  614.7523
 122  664.7258
 123  686.6953
 124  682.1115
 125  541.4912
 126  536.8533
 127  629.4526
 128  716.7201
 129  836.1004
 130  774.1929
 131  905.9167
 132  920.3217
 133  824.8141
 134  678.5892
 135  725.1896
 136  787.6801
 137  702.6575
 138  595.5353
 139  728.5707
 140  748.7561
 141  658.3583
 142  611.2667
 143  769.7315
 144  851.6515
 145  790.6544
 146  709.4706
 147  632.9476
 148  656.2314
 149  723.432
 150  834.7685
 151  834.6888
 152  836.063
 153  845.6179
 154  758.1586
 155  686.5616
 156  661.373
 157  760.0936
 158  884.7126
 159  879.8424
 160  787.4242
 161  684.5594
 162  596.659
 163  587.6126
 164  863.5312
 165  1093.968
 166  1155.079
 167  913.0372
 168  834.4345
 169  723.9299
 170  710.7966
 171  715.4307
 172  826.8218
 173  820.3921
 174  792.0316
 175  745.9231
 176  954.2758
 177  1006.58
 178  1110.786
 179  1046.055
 180  1006.837
 181  873.8648
 182  808.4131
 183  845.4684
 184  937.5905
 185  928.4205
 186  854.7181
 187  815.355
 188  757.9711
 189  744.6829
 190  830.9438
 191  943.8093
 192  917.6432
 193  859.9279
 194  797.9343
 195  734.0617
 196  748.0324
 197  822.2928
 198  810.2252
 199  796.174
 200  808.5573
 201  933.8864
 202  877.4125
 203  892.2512
 204  876.0591
 205  998.1819
 206  1026.308
 207  986.9586
 208  917.9882
 209  913.9481
 210  915.7274
 211  878.4604
 212  887.5443
 213  834.9095
 214  910.931
 215  927.5629
 216  1009.796
 217  931.0482
 218  867.5598
 219  816.8757
 220  772.9518
 221  748.4756
 222  747.137
 223  756.5396
 224  824.612
 225  870.683
 226  991.2006
 227  1097.463
 228  1013.253
 229  1002.687
 230  952.6063
 231  1051.245
 232  1000.917
 233  1007.758
 234  1079.689
 235  1172.232
 236  1143.126
 237  1003.061
 238  956.0208
 239  959.8026
 240  1002.993
 241  943.9098
 242  927.5408
 243  1000.583
 244  1020.101
 245  986.4541
 246  947.4495
 247  984.0814
 248  1015.355
 249  1027.041
 250  998.5331
 251  1011.6
 252  1050.515
 253  1077.032
 254  1042.755
 255  1064.185
 256  1031.759
 257  959.1093
 258  987.175
 259  926.0568
 260  848.7469
 261  849.7371
 262  1027.248
 263  1111.9
 264  936.5797
 265  1013.143
 266  1035.573
 267  1048.209
 268  894.556
 269  896.0446
 270  871.756
 271  783.6621
 272  744.2689
 273  682.0388
 274  643.1685
 275  649.6085
 276  781.9182
 277  917.6661
 278  857.0068
 279  780.7179
 280  799.3206
 281  895.364
 282  1012.584
 283  1021.916
 284  1053.542
 285  940.5297
 286  946.5467
 287  1020.433
 288  892.5313
 289  718.9385
 290  675.3987
 291  802.5399
 292  807.6118
 293  605.1904
 294  568.7694
 295  598.1586
 296  780.9078
 297  837.6014
 298  783.9185
 299  787.3756
 300  772.6409
 301  825.6739
 302  765.4408
 303  861.507
 304  961.0128
 305  990.7131
 306  918.4275
 307  813.6223
 308  806.379
 309  826.1047
 310  914.361
 311  891.755
 312  837.8636
 313  836.1783
 314  816.5812
 315  820.6074
 316  883.9444
 317  896.6588
 318  869.2109
 319  759.359
 320  724.563
 321  674.8042
 322  602.7826
 323  706.1626
 324  670.3218
 325  797.0986
 326  852.3903
 327  843.4105
 328  788.0916
 329  743.5126
 330  735.1799
 331  784.9915
 332  799.4424
 333  881.0602
 334  879.4296
 335  928.5123
 336  831.0278
 337  677.8636
 338  736.749
 339  801.7755
 340  921.6674
 341  963.7808
 342  985.1053
 343  962.4628
 344  889.4766
 345  777.252
 346  701.7598
 347  728.0488
 348  726.1487
 349  730.1603
 350  674.8013
 351  782.9669
 352  692.6196
 353  686.3734
 354  504.3947
 355  473.0038
 356  574.1503
 357  729.3622
 358  892.2041
 359  932.5621
 360  1090.417
 361  1137.679
 362  1113.879
 363  1005.916
 364  995.5499
 365  993.8587
 366  899.1539
 367  846.1227
 368  898.3993
 369  1019.384
 370  1001.765
 371  956.0885
 372  957.9329
 373  1030.37
 374  1070.152
 375  1043.127
 376  959.1305
 377  935.2574
 378  1046.796
 379  1059.169
 380  1036.936
 381  1075.376
 382  1219.892
 383  1289.378
 384  1212.201
 385  1111.561
 386  968.3274
 387  946.9073
 388  985.2419
 389  1057.789
 390  1023.667
 391  1014.488
 392  920.9678
 393  1002.651
 394  1045.874
 395  1103.553
 396  1092.046
 397  1023.24
 398  926.6349
 399  856.3656
 400  901.2269
 401  945.989
 402  894.2299
 403  800.3921
 404  821.8499
 405  924.7
 406  936.9062
 407  930.1364
 408  902.5468
 409  924.157
 410  918.8563
 411  914.7503
 412  914.8095
 413  879.301
 414  836.6746
 415  787.3848
 416  729.0736
 417  635.8179
 418  670.5087
 419  672.7033
 420  744.7119
 421  687.8012
 422  630.6266
 423  665.6506
 424  759.426
 425  869.4386
 426  870.47
 427  835.0238
 428  723.0611
 429  799.0958
 430  822.31
 431  827.0751
 432  725.8037
 433  673.9189
 434  722.7732
 435  758.6378
 436  828.5634
 437  667.3683
 438  538.6436
 439  484.3858
 440  619.3062
 441  757.1823
 442  908.6447
 443  1015.58
 444  1105.48
 445  1087.996
 446  1046.843
 447  905.9211
 448  777.7903
 449  729.9656
 450  754.6026
 451  886.0018
 452  814.3271
 453  742.829
 454  813.0077
 455  1011.242
 456  1018.085
 457  829.3101
 458  772.5444
 459  899.7643
 460  922.5035
 461  941.4607
 462  888.3379
 463  929.11
 464  884.2786
 465  884.8544
 466  867.2232
 467  831.366
 468  797.1636
 469  828.1898
 470  799.7632
 471  908.0648
 472  855.3324
 473  982.9905
 474  1004.676
 475  1117.59
 476  954.6254
 477  917.9601
 478  869.5474
 479  866.6413
 480  752.0267
 481  730.2992
 482  823.8721
 483  868.5119
 484  759.4792
 485  668.7313
 486  676.4536
 487  743.27
 488  799.5089
 489  797.55
 490  796.7708
 491  745.8978
 492  820.49
 493  801.9927
 494  801.5779
 495  786.2854
 496  751.4487
 497  631.8673
 498  589.2056
 499  622.6543
 500  775.4025
 501  828.3558
 502  900.9825
 503  854.4706
 504  737.7258
 505  777.1157
 506  745.1252
 507  864.0317
 508  854.5563
 509  874.973
 510  832.5602
 511  650.1765
 512  550.0916
 513  679.8909
 514  822.2561
 515  832.9344
 516  787.271
 517  945.2141
 518  1079.355
 519  997.698
 520  853.3375
 521  741.861
 522  745.3763
 523  775.9233
 524  834.206
 525  891.1613
 526  746.3028
 527  742.44
 528  759.2538
 529  827.6165
 530  844.2619
 531  814.2574
 532  880.3365
 533  945.4957
 534  1001.862
 535  936.5414
 536  933.6807
 537  904.0112
 538  954.8542
 539  1014.595
 540  981.3622
 541  846.3747
 542  821.0579
 543  853.6847
 544  862.019
 545  795.3941
 546  806.389
 547  754.4868
 548  730.8206
 549  760.8265
 550  871.1386
 551  819.2385
 552  756.2755
 553  759.0321
 554  864.3171
 555  867.6624
 556  786.2603
 557  772.5221
 558  829.8923
 559  895.1066
 560  873.7847
 561  869.2471
 562  868.4865
 563  903.3809
 564  916.7167
 565  911.0184
 566  811.6992
 567  872.6488
 568  915.374
 569  849.5744
 570  759.8569
 571  711.557
 572  773.4552
 573  742.6022
 574  747.5903
 575  719.4791
 576  737.1346
 577  822.3472
 578  808.9828
 579  726.4387
 580  739.8846
 581  754.806
 582  770.082
 583  777.1752
 584  829.9012
 585  818.424
 586  699.8783
 587  545.7235
 588  591.8963
 589  701.3522
 590  791.0922
 591  678.258
 592  775.8195
 593  793.4006
 594  847.1071
 595  793.5908
 596  855.3896
 597  856.1321
 598  869.5037
 599  814.5784
 600  767.7911
 601  792.8929
 602  823.2256
 603  832.2904
 604  866.9324
 605  735.3619
 606  690.7982
 607  672.3487
 608  800.4357
 609  702.9199
 610  642.0045
 611  603.8938
 612  598.904
 613  544.1641
 614  480.0745
 615  573.1047
 616  653.1873
 617  674.1589
 618  582.9622
 619  582.2358
 620  689.0515
 621  678.2045
 622  642.6652
 623  663.4606
 624  594.4161
 625  511.4201
 626  479.8006
 627  503.0164
 628  577.3635
 629  545.3707
 630  529.9767
 631  543.6865
 632  602.6666
 633  673.0983
 634  600.069
 635  580.7213
 636  663.327
 637  734.1703
 638  872.476
 639  897.0215
 640  871.7678
 641  686.2733
 642  611.5972
 643  556.8698
 644  598.6219
 645  554.0864
 646  610.2213
 647  544.0026
 648  643.4355
 649  680.3431
 650  747.1966
 651  775.0377
 652  744.194
 653  691.8564
 654  787.726
 655  852.4024
 656  988.3323
 657  893.1929
 658  953.7847
 659  930.1074
 660  819.8512
 661  728.9966
 662  661.426
 663  736.9827
 664  762.7364
 665  863.1958
 666  927.9094
 667  835.4539
 668  751.3608
 669  777.6442
 670  825.0659
 671  771.9302
 672  700.3075
 673  718.468
 674  679.8782
 675  690.323
 676  672.6226
 677  722.7845
 678  771.1337
 679  841.808
 680  837.3979
 681  920.0267
 682  854.8494
 683  954.6776
 684  942.537
 685  989.1462
 686  914.8503
 687  921.6694
 688  858.673
 689  898.5059
 690  906.1121
 691  1014.488
 692  1034.01
 693  960.3622
 694  799.5709
 695  758.729
 696  815.2819
 697  923.4891
 698  966.562
 699  1042.222
 700  1123.788
 701  1128.505
 702  1029.383
 703  898.6606
 704  762.5776
 705  691.5425
 706  688.3972
 707  708.4017
 708  739.447
 709  868.1164
 710  863.5164
 711  946.3488
 712  878.1334
 713  985.5316
 714  909.1788
 715  961.0413
 716  878.4501
 717  826.8552
 718  731.9677
 719  686.5154
 720  714.2223
 721  781.4269
 722  807.7319
 723  711.437
 724  686.7621
 725  743.7508
 726  860.8347
 727  839.8297
 728  922.0892
 729  808.0921
 730  798.5133
 731  815.9085
 732  922.667
 733  953.6148
 734  888.1434
 735  858.7037
 736  773.1545
 737  807.7144
 738  917.463
 739  968.399
 740  958.7673
 741  805.6372
 742  740.8795
 743  694.2933
 744  798.5624
 745  859.0057
 746  877.1709
 747  769.0338
 748  724.2148
 749  859.2651
 750  974.7477
 751  1088.023
 752  1254.657
 753  1434.158
 754  1401.786
 755  1307.316
 756  1317.067
 757  1308.067
 758  1423.892
 759  1381.809
 760  1397.469
 761  1144.201
 762  1030.251
 763  878.368
 764  772.6299
 765  728.2659
 766  762.3235
 767  731.4467
 768  688.8007
 769  756.0093
 770  837.0452
 771  969.7981
 772  938.3796
 773  1040.068
 774  1046.299
 775  1012.103
 776  885.9941
 777  835.7865
 778  831.2068
 779  854.3122
 780  753.777
 781  711.0698
 782  739.8681
 783  634.2019
 784  650.4541
 785  629.8507
 786  806.8823
 787  673.4523
 788  645.3503
 789  591.7457
 790  629.8398
 791  577.4644
 792  617.8428
 793  687.2488
 794  825.0556
 795  839.0878
 796  703.6366
 797  604.1413
 798  568.1725
 799  587.1126
 800  537.156
 801  561.3914
 802  523.3536
 803  521.6189
 804  692.3262
 805  714.9472
 806  682.0941
 807  566.0098
 808  630.451
 809  684.9319
 810  761.7466
 811  732.8691
 812  691.3787
 813  576.0238
 814  573.0478
 815  635.1492
 816  691.027
 817  830.0059
 818  841.6898
 819  864.6481
 820  786.1306
 821  856.5312
 822  884.0229
 823  847.2934
 824  714.7134
 825  758.35
 826  801.7231
 827  795.3386
 828  744.9338
 829  772.3259
 830  805.8067
 831  876.5113
 832  861.5988
 833  805.8731
 834  702.8456
 835  681.3007
 836  748.3781
 837  764.1119
 838  762.7497
 839  759.7321
 840  768.798
 841  793.9725
 842  713.7938
 843  747.5561
 844  622.4871
 845  532.7631
 846  526.0715
 847  537.0645
 848  537.7316
 849  611.6017
 850  695.4781
 851  768.5938
 852  761.8583
 853  855.3636
 854  1009.325
 855  987.1649
 856  812.7322
 857  677.6667
 858  534.5749
 859  583.6892
 860  540.1661
 861  648.3871
 862  651.954
 863  658.3866
 864  725.8671
 865  815.1407
 866  921.8713
 867  880.7368
 868  818.4178
 869  712.0591
 870  652.4059
 871  609.2556
 872  618.3587
 873  652.5172
 874  585.8472
 875  518.3987
 876  686.9242
 877  797.3734
 878  827.713
 879  701.3931
 880  608.3055
 881  660.7277
 882  683.0718
 883  727.2418
 884  710.1876
 885  634.0347
 886  621.6727
 887  616.5863
 888  630.6235
 889  667.8969
 890  766.0464
 891  830.7396
 892  733.2734
 893  660.9645
 894  703.131
 895  744.7474
 896  640.4126
 897  636.9468
 898  633.224
 899  794.1615
 900  695.8958
 901  676.2269
 902  608.2299
 903  651.3371
 904  712.729
 905  726.0026
 906  782.6624
 907  818.7927
 908  840.675
 909  844.1308
 910  853.6437
 911  787.0626
 912  762.7003
 913  787.045
 914  764.8913
 915  725.0234
 916  666.033
 917  587.3464
 918  558.7189
 919  543.5641
 920  677.319
 921  705.7761
 922  819.7062
 923  849.043
 924  844.3188
 925  810.5816
 926  795.5711
 927  770.2432
 928  643.1765
 929  693.6488
 930  755.1612
 931  934.6426
 932  896.0087
 933  834.1625
 934  772.3908
 935  745.0938
 936  838.6891
 937  777.5603
 938  856.6282
 939  859.5721
 940  911.3809
 941  1011.04
 942  1049.317
 943  955.4349
 944  867.2121
 945  831.3898
 946  858.6605
 947  672.9259
 948  635.9719
 949  618.4241
 950  678.9297
 951  724.3389
 952  769.0592
 953  820.9504
 954  692.8189
 955  635.0922
 956  647.1692
 957  713.4295
 958  684.011
 959  671.0526
 960  729.8838
 961  811.4401
 962  893.9511
 963  793.693
 964  726.0201
 965  680.9972
 966  752.4796
 967  829.9704
 968  756.3631
 969  683.4033
 970  684.1125
 971  771.2733
 972  719.4219
 973  644.7519
 974  570.7688
 975  677.5925
 976  721.2501
 977  714.5396
 978  502.1008
 979  547.3104
 980  697.459
 981  872.623
 982  938.1978
 983  935.7031
 984  756.2013
 985  665.8239
 986  650.4532
 987  751.5355
 988  875.4073
 989  981.8133
 990  960.2363
 991  906.1837
 992  960.2636
 993  979.7517
 994  942.1849
 995  807.658
 996  791.0457
 997  763.5117
 998  671.2275
 999  596.1169
1000  729.4051
1001  857.5228
1002  1035.245
1003  1034.716
1004  1032.252
1005  900.4564
1006  867.3386
1007  828.8976
1008  799.161
1009  734.1661
1010  746.218
1011  891.7641
1012  934.1343
1013  808.3132
1014  775.6636
1015  906.5552
1016  1057.834
1017  1023.701
1018  1007.221
1019  1068.188
1020  1111.771
1021  1097.604
1022  1086.851
1023  1010.005
