# Input file       =  1181629295.118561_cleaned.dat
# Candidate        =  PSR_0332+5434
# Telescope        =  AR
# Epoch_topo       =  57920.265209705569
# Epoch_bary       =  N/A
# T_sample         =  0.002
# Data Folded      =  7340032
# Data Avg         =  0.177763830496197
# Data StdDev      =  4.01909273703362 
# Profile Bins     =  1024
# Profile Avg      =  1275.13637679906 
# Profile StdDev   =  340.2726361055   
# Reduced chi-sqr  =  0.968
# Prob(Noise)      <  0.761   (~0.0 sigma)
# P_topo (ms)      =  714.502076423764  +/- 0.000197
# P'_topo (s/s)    =  -0                +/- 1.04e-10
# P''_topo (s/s^2) =  0                 +/- 4.59e-14
# P_bary (ms)      =  N/A
# P'_bary (s/s)    =  N/A
# P''_bary (s/s^2) =  N/A
# P_orb (s)        =  N/A
# asin(i)/c (s)    =  N/A
# eccentricity     =  N/A
# w (rad)          =  N/A
# T_peri           =  N/A
######################################################
   0  1149.981
   1  1180.519
   2  1165.723
   3  1149.669
   4  1187.219
   5  1277.602
   6  1337.637
   7  1214.838
   8  1213.623
   9  1231.145
  10  1389.982
  11  1427.558
  12  1473.219
  13  1388.739
  14  1239.282
  15  1183.43
  16  1348.823
  17  1414.726
  18  1507.026
  19  1473.196
  20  1541.791
  21  1559.398
  22  1590.504
  23  1596.914
  24  1506.065
  25  1429.356
  26  1469.616
  27  1622.195
  28  1609.294
  29  1453.05
  30  1446.031
  31  1434.516
  32  1435.141
  33  1390.916
  34  1515.851
  35  1549.171
  36  1557.838
  37  1420.093
  38  1373.718
  39  1328.118
  40  1201.379
  41  1112.714
  42  1155.857
  43  1295.752
  44  1275.138
  45  1128.286
  46  1047.767
  47  1070.504
  48  1167.477
  49  1244.989
  50  1232.56
  51  1118.214
  52  1039.826
  53  980.3462
  54  1109.658
  55  1084.762
  56  1129.148
  57  1036.425
  58  1039.244
  59  984.8337
  60  997.2485
  61  921.7353
  62  1075.95
  63  1185.314
  64  1220.438
  65  1165.372
  66  1116.065
  67  1154.74
  68  1128.702
  69  1070.244
  70  1068.482
  71  1064.686
  72  1172.282
  73  1211.821
  74  1306.005
  75  1282.92
  76  1224.728
  77  1156.677
  78  1141.344
  79  1158.786
  80  1181.168
  81  1186.577
  82  1243.418
  83  1208.977
  84  1248.319
  85  1220.446
  86  1103.863
  87  1072.186
  88  958.4153
  89  979.5146
  90  945.3239
  91  1030.111
  92  1110.786
  93  1113.658
  94  1114.941
  95  1142.369
  96  1214.459
  97  1185.579
  98  1106.232
  99  1020.687
 100  995.4244
 101  984.3162
 102  998.7892
 103  996.9607
 104  972.4168
 105  1076.041
 106  1205.654
 107  1351.202
 108  1384.083
 109  1427.97
 110  1412.964
 111  1337.689
 112  1382.977
 113  1421.318
 114  1473.199
 115  1433.763
 116  1451.847
 117  1491.084
 118  1452.565
 119  1507.403
 120  1517.673
 121  1514.006
 122  1403.69
 123  1246.94
 124  1284.232
 125  1276.303
 126  1270.288
 127  1147.148
 128  1152.343
 129  1166.74
 130  1132.508
 131  1198.568
 132  1264.354
 133  1322.674
 134  1245.6
 135  1203.849
 136  1110.707
 137  1182.767
 138  1194.137
 139  1169.92
 140  1180.809
 141  1221.842
 142  1255.923
 143  1164.781
 144  1122.264
 145  1166.457
 146  1131.578
 147  1032.374
 148  1064.954
 149  1131.649
 150  1086.456
 151  1037.81
 152  1158.524
 153  1268.034
 154  1245.189
 155  1100.058
 156  1094.63
 157  994.7849
 158  1024.873
 159  1114.013
 160  1227.155
 161  1235.17
 162  1156.306
 163  1063.723
 164  1042.198
 165  1102.566
 166  1274.058
 167  1347.012
 168  1403.125
 169  1407.117
 170  1295.512
 171  1192.804
 172  1295.776
 173  1353.904
 174  1246.039
 175  1145.612
 176  1152.34
 177  1202.982
 178  1155.87
 179  1154.055
 180  1273.355
 181  1370.177
 182  1310.119
 183  1180.609
 184  1186.751
 185  1340.907
 186  1392.101
 187  1390.492
 188  1376.428
 189  1278.6
 190  1171.381
 191  1149.988
 192  1309.299
 193  1467.138
 194  1425.823
 195  1380.969
 196  1418.437
 197  1467.842
 198  1444.812
 199  1395.686
 200  1442.092
 201  1505.49
 202  1519.768
 203  1453.438
 204  1401.429
 205  1420.585
 206  1388.016
 207  1258.622
 208  1181.317
 209  1158.522
 210  1255.085
 211  1249.2
 212  1193.951
 213  1199.528
 214  1215.586
 215  1227.018
 216  1200.958
 217  1203.881
 218  1258.023
 219  1227.863
 220  1160.628
 221  1138.714
 222  1077.375
 223  1064.827
 224  1059.54
 225  1127.868
 226  1244.416
 227  1344.152
 228  1303.286
 229  1181.477
 230  1118.442
 231  1127.911
 232  1160.349
 233  1125.194
 234  1171.124
 235  1174.481
 236  1052.787
 237  979.893
 238  967.8465
 239  902.5099
 240  933.2893
 241  960.2332
 242  1095.088
 243  1039.769
 244  925.0646
 245  1006.686
 246  1029.956
 247  1030.967
 248  1123.289
 249  1281.163
 250  1350.217
 251  1276.56
 252  1278.768
 253  1274.882
 254  1283.108
 255  1315.476
 256  1373.299
 257  1436.954
 258  1404.903
 259  1392.63
 260  1380.055
 261  1515.864
 262  1471.233
 263  1524.086
 264  1511.328
 265  1611.289
 266  1521.102
 267  1409.127
 268  1345.461
 269  1346.172
 270  1365.927
 271  1309.571
 272  1306.079
 273  1381.075
 274  1441.315
 275  1492.724
 276  1530.914
 277  1589.733
 278  1561.369
 279  1477.228
 280  1379.986
 281  1339.96
 282  1462.099
 283  1568.763
 284  1656.167
 285  1739.574
 286  1767.748
 287  1741.953
 288  1633.017
 289  1476.655
 290  1459.93
 291  1404.375
 292  1348.217
 293  1379.815
 294  1370.575
 295  1389.468
 296  1417.996
 297  1575.798
 298  1592.558
 299  1476.255
 300  1268.834
 301  1238.245
 302  1190.775
 303  1263.592
 304  1250.463
 305  1242.831
 306  1196.004
 307  1253.937
 308  1226.308
 309  1193.53
 310  1232.687
 311  1137.711
 312  947.431
 313  778.8678
 314  828.9211
 315  1010.286
 316  1163.38
 317  1202.808
 318  1138.377
 319  1068.023
 320  1039.867
 321  1020.205
 322  1002.213
 323  979.8076
 324  995.9071
 325  893.8585
 326  804.4444
 327  838.009
 328  876.6891
 329  1107.72
 330  1119.935
 331  1245.036
 332  1178.861
 333  1128.951
 334  977.6017
 335  964.2482
 336  1022.613
 337  1010.185
 338  966.0817
 339  949.473
 340  1049.005
 341  1064.409
 342  1082.953
 343  1119.921
 344  1214.027
 345  1167.864
 346  1165.759
 347  1138.083
 348  1117.761
 349  1028.491
 350  967.2205
 351  1102.135
 352  1201.577
 353  1316.47
 354  1153.389
 355  976.687
 356  878.5048
 357  995.3771
 358  1107.885
 359  1223.954
 360  1321.371
 361  1380.008
 362  1374.263
 363  1326.249
 364  1232.698
 365  1167.917
 366  1228.166
 367  1280.529
 368  1327.029
 369  1160.943
 370  1202.06
 371  1210.784
 372  1209.934
 373  1148.419
 374  1126.395
 375  1320.243
 376  1369.884
 377  1238.695
 378  1173.385
 379  1151.041
 380  1280.196
 381  1195.655
 382  1177.631
 383  1195.221
 384  1244.196
 385  1250.973
 386  1183.53
 387  1137.333
 388  1140.209
 389  1119.548
 390  1155.264
 391  1143.226
 392  1218.248
 393  1134.074
 394  1006.231
 395  917.0799
 396  971.1
 397  1014.866
 398  1044.046
 399  918.2519
 400  944.6248
 401  877.3785
 402  860.7198
 403  837.863
 404  979.8668
 405  1046.874
 406  994.6757
 407  843.4101
 408  963.5156
 409  1103.099
 410  1043.838
 411  999.8336
 412  980.9333
 413  1085.688
 414  1019.269
 415  1046.123
 416  1054.656
 417  973.9304
 418  922.8607
 419  973.1047
 420  1048.122
 421  1049.987
 422  1160.17
 423  1213.909
 424  1373.386
 425  1289.891
 426  1261.312
 427  1104.528
 428  1105.094
 429  1176.046
 430  1191.837
 431  1220.827
 432  1134.552
 433  1192.545
 434  1299.74
 435  1360.767
 436  1261.532
 437  1301.881
 438  1299.283
 439  1277.93
 440  1231.908
 441  1294.156
 442  1324.52
 443  1266.78
 444  1287.969
 445  1281.896
 446  1335.903
 447  1423.437
 448  1596.13
 449  1673.579
 450  1605.336
 451  1504.262
 452  1396.745
 453  1442.01
 454  1446.819
 455  1453.97
 456  1393.955
 457  1472.661
 458  1527.274
 459  1585.931
 460  1516.653
 461  1579.855
 462  1553.374
 463  1471.219
 464  1271.425
 465  1205.812
 466  1266.696
 467  1253.204
 468  1263.831
 469  1243.112
 470  1270.773
 471  1342.174
 472  1436.634
 473  1572.813
 474  1364.37
 475  1290.931
 476  1231.52
 477  1268.442
 478  1192.736
 479  1168.616
 480  1137.725
 481  1170.117
 482  1171.018
 483  1235.557
 484  1170.724
 485  1210.592
 486  1287.035
 487  1417.706
 488  1408.945
 489  1264.914
 490  1196.944
 491  1178.347
 492  1180.022
 493  1163.948
 494  1250.317
 495  1330.272
 496  1329.157
 497  1352.833
 498  1328.17
 499  1364.094
 500  1365.325
 501  1258.742
 502  1262.42
 503  1242.955
 504  1347.911
 505  1178.491
 506  1159.366
 507  1180.327
 508  1307.56
 509  1302.647
 510  1262.221
 511  1231.217
 512  1263.465
 513  1323.004
 514  1347.529
 515  1345.523
 516  1348.909
 517  1405.41
 518  1452.608
 519  1503.496
 520  1298.538
 521  1239.196
 522  1293.915
 523  1518.539
 524  1550.572
 525  1531.944
 526  1532.045
 527  1617.023
 528  1535.919
 529  1473.266
 530  1450.46
 531  1565.554
 532  1569.936
 533  1557.084
 534  1564.451
 535  1595.178
 536  1507.669
 537  1404.744
 538  1404.223
 539  1490.707
 540  1495.308
 541  1468.253
 542  1415.548
 543  1495
 544  1553.168
 545  1504.009
 546  1448.231
 547  1433.496
 548  1500.954
 549  1451.641
 550  1321.111
 551  1278.632
 552  1306.296
 553  1334.728
 554  1315.149
 555  1307.992
 556  1359.177
 557  1316.996
 558  1251.804
 559  1262.363
 560  1278.243
 561  1290.42
 562  1355.093
 563  1434.844
 564  1574.786
 565  1567.857
 566  1487.939
 567  1355.901
 568  1367.344
 569  1472.436
 570  1465.563
 571  1389.936
 572  1377.964
 573  1390.761
 574  1413.941
 575  1386.909
 576  1422.315
 577  1361.116
 578  1391.551
 579  1449.731
 580  1592.087
 581  1461.489
 582  1286.398
 583  1263.017
 584  1459.325
 585  1556.139
 586  1474.283
 587  1405.984
 588  1441.034
 589  1449.776
 590  1473.194
 591  1497.845
 592  1496.696
 593  1331.171
 594  1261.792
 595  1226.521
 596  1234.094
 597  1232.427
 598  1273.516
 599  1339.197
 600  1321.936
 601  1314.943
 602  1310.811
 603  1321.186
 604  1264.782
 605  1188.594
 606  1146.357
 607  1215.94
 608  1413.739
 609  1490.54
 610  1530.705
 611  1471.119
 612  1531.473
 613  1430.883
 614  1447.84
 615  1462.229
 616  1527.274
 617  1559.756
 618  1603.708
 619  1620.594
 620  1615.443
 621  1656.387
 622  1647.652
 623  1582.198
 624  1571.85
 625  1625.587
 626  1642.12
 627  1410.321
 628  1326.598
 629  1289.951
 630  1227.76
 631  1137.29
 632  1197.996
 633  1251.795
 634  1182.227
 635  1052.756
 636  1091.724
 637  1144.331
 638  1190.375
 639  1228.351
 640  1227.995
 641  1105.706
 642  1104.356
 643  1197.713
 644  1303.413
 645  1247.316
 646  1015.914
 647  994.0736
 648  1040.378
 649  1109.74
 650  1135.245
 651  1289.981
 652  1547.204
 653  1791.547
 654  1891.129
 655  1928.813
 656  1930.861
 657  1916.056
 658  1803.023
 659  1758.517
 660  1573.821
 661  1473.859
 662  1319.904
 663  1245.426
 664  1221.599
 665  1214.804
 666  1269.8
 667  1318.167
 668  1318.459
 669  1296.045
 670  1269.414
 671  1254.318
 672  1219.656
 673  1297.844
 674  1359.424
 675  1356.581
 676  1247.396
 677  1191.607
 678  1090.176
 679  1069.3
 680  1096.842
 681  1169.584
 682  1284.09
 683  1340.07
 684  1329.408
 685  1301.662
 686  1365.72
 687  1421.828
 688  1378.519
 689  1351.387
 690  1424.488
 691  1525.761
 692  1593.11
 693  1487.807
 694  1376.493
 695  1364.404
 696  1424.157
 697  1434.459
 698  1617.38
 699  1650.252
 700  1635.558
 701  1560.751
 702  1648.715
 703  1660.209
 704  1550.399
 705  1378.613
 706  1420.558
 707  1499.967
 708  1518.68
 709  1347.213
 710  1280.814
 711  1336.025
 712  1446.446
 713  1488.148
 714  1423.516
 715  1449.67
 716  1427.435
 717  1552.865
 718  1458.417
 719  1410.596
 720  1421.951
 721  1487.508
 722  1520.792
 723  1434.16
 724  1387.778
 725  1354.318
 726  1427.433
 727  1448.113
 728  1451.254
 729  1380.2
 730  1270.256
 731  1233.728
 732  1198.745
 733  1249.363
 734  1260.715
 735  1219.193
 736  1140.739
 737  1058.693
 738  1082.3
 739  1180.772
 740  1218.31
 741  1207.137
 742  1222.804
 743  1226.739
 744  1232.953
 745  1177.911
 746  1231.274
 747  1273.478
 748  1286.873
 749  1224.162
 750  1227.49
 751  1240.619
 752  1241.144
 753  1137.932
 754  1046.652
 755  1068.247
 756  1218.759
 757  1359.559
 758  1469.052
 759  1453.291
 760  1465.187
 761  1379.202
 762  1311.302
 763  1105.055
 764  1062.446
 765  1129.17
 766  1204.844
 767  1219.45
 768  1129.713
 769  1151.136
 770  1171.482
 771  1209.31
 772  1148.318
 773  1038.786
 774  964.9622
 775  979.538
 776  1105.175
 777  1241.075
 778  1271.76
 779  1190.373
 780  1183.004
 781  1129.959
 782  1181.225
 783  1256.784
 784  1333.431
 785  1267.204
 786  1221.029
 787  1281.428
 788  1372.969
 789  1373.357
 790  1280.382
 791  1379.276
 792  1389.89
 793  1505.761
 794  1468.931
 795  1559.333
 796  1502.449
 797  1423.042
 798  1360.858
 799  1356.967
 800  1435.803
 801  1501.296
 802  1590.447
 803  1593.693
 804  1673.133
 805  1508.517
 806  1442.347
 807  1378.657
 808  1386.369
 809  1403.479
 810  1376.32
 811  1280.6
 812  1164.818
 813  1171.794
 814  1300.893
 815  1370.651
 816  1341.213
 817  1332.411
 818  1216.425
 819  1100.477
 820  1101.244
 821  1192.744
 822  1248.812
 823  1227.58
 824  1261.131
 825  1156.032
 826  1002.413
 827  941.7238
 828  970.4083
 829  1105.376
 830  1220.256
 831  1345.022
 832  1334.88
 833  1348.777
 834  1388.073
 835  1365.142
 836  1330.658
 837  1229.249
 838  1150.068
 839  1182.202
 840  1133.181
 841  1202.152
 842  1236.164
 843  1282.351
 844  1346.126
 845  1222.212
 846  1138.585
 847  1128.125
 848  1274.753
 849  1499.024
 850  1455.016
 851  1246.352
 852  1046.958
 853  1019.592
 854  1132.71
 855  1278.236
 856  1382.89
 857  1440.591
 858  1355.307
 859  1232.113
 860  1050.162
 861  951.5102
 862  1049.92
 863  1143.127
 864  1263.427
 865  1358.812
 866  1414.802
 867  1399.151
 868  1381.413
 869  1435.989
 870  1462.277
 871  1519.912
 872  1499.353
 873  1385.589
 874  1346.031
 875  1390.158
 876  1604.278
 877  1637.07
 878  1653.144
 879  1562.882
 880  1693.42
 881  1708.642
 882  1657.383
 883  1544.283
 884  1550.847
 885  1447.22
 886  1411.046
 887  1380.091
 888  1377.17
 889  1406.329
 890  1468.694
 891  1574.876
 892  1634.717
 893  1593.496
 894  1522.317
 895  1376.871
 896  1381.3
 897  1373.713
 898  1410.596
 899  1460.777
 900  1470.441
 901  1539.065
 902  1470.327
 903  1424.133
 904  1343.659
 905  1363.169
 906  1274.557
 907  1184.082
 908  1130.076
 909  1141.934
 910  1131.198
 911  1107.281
 912  1140.314
 913  1144.999
 914  1218.195
 915  1205.363
 916  1270.242
 917  1286.019
 918  1261.575
 919  1186.606
 920  1226.409
 921  1214.712
 922  1284.427
 923  1275.072
 924  1253.341
 925  1281.498
 926  1225.921
 927  1133.072
 928  939.0031
 929  866.7189
 930  888.5918
 931  951.9847
 932  983.864
 933  976.5823
 934  988.8534
 935  1028.072
 936  961.3351
 937  874.3478
 938  882.4253
 939  1002.877
 940  1091.431
 941  1060.118
 942  1083.655
 943  1106.463
 944  1225.239
 945  1213.104
 946  1268.287
 947  1343.746
 948  1330.734
 949  1275.41
 950  1122.37
 951  1252.785
 952  1351.372
 953  1371.132
 954  1361.889
 955  1322.786
 956  1455.123
 957  1328.057
 958  1361.553
 959  1313.186
 960  1349.565
 961  1298.782
 962  1264.957
 963  1354.676
 964  1461.099
 965  1602.433
 966  1598.163
 967  1561.755
 968  1371.086
 969  1349.388
 970  1444.376
 971  1498.284
 972  1431.636
 973  1346.883
 974  1397.064
 975  1530.584
 976  1522.756
 977  1454.562
 978  1253.606
 979  1182.531
 980  1147.084
 981  1092.846
 982  1110.311
 983  1107.071
 984  1213.033
 985  1201.469
 986  1105.31
 987  973.2464
 988  957.2366
 989  1024.417
 990  1048.696
 991  1001.139
 992  994.504
 993  1017.533
 994  926.0555
 995  910.1357
 996  1038.945
 997  1160.109
 998  1123.366
 999  1027.893
1000  1060.235
1001  1092.366
1002  1110.928
1003  1121.651
1004  1201.335
1005  1308.711
1006  1254.071
1007  1252.846
1008  1087.281
1009  1114.547
1010  1100.234
1011  1195.164
1012  1140.544
1013  1136.265
1014  1077.155
1015  989.6953
1016  946.4851
1017  958.0941
1018  990.1693
1019  952.8578
1020  996.9237
1021  1117.35
1022  1148.219
1023  1173.601
