# Input file       =  1182907142.112401_cleaned.dat
# Candidate        =  PSR_0332+5434
# Telescope        =  AR
# Epoch_topo       =  57935.055105467603
# Epoch_bary       =  N/A
# T_sample         =  0.002
# Data Folded      =  7143424
# Data Avg         =  0.219866349352225
# Data StdDev      =  4.98971882585725 
# Profile Bins     =  1024
# Profile Avg      =  1533.88953229188 
# Profile StdDev   =  416.753551481848 
# Reduced chi-sqr  =  0.527
# Prob(Noise)      <  1   (~0.0 sigma)
# P_topo (ms)      =  714.489176943894  +/- 7.75e-05
# P'_topo (s/s)    =  -0                +/- 4.2e-11
# P''_topo (s/s^2) =  0                 +/- 1.91e-14
# P_bary (ms)      =  N/A
# P'_bary (s/s)    =  N/A
# P''_bary (s/s^2) =  N/A
# P_orb (s)        =  N/A
# asin(i)/c (s)    =  N/A
# eccentricity     =  N/A
# w (rad)          =  N/A
# T_peri           =  N/A
######################################################
   0  1313.571
   1  1312.386
   2  1410.75
   3  1604.207
   4  1553.577
   5  1630.029
   6  1532.768
   7  1687.027
   8  1532.423
   9  1521.534
  10  1424.12
  11  1436.855
  12  1431.363
  13  1313.226
  14  1360.409
  15  1344.695
  16  1415.423
  17  1524.822
  18  1728.107
  19  1913.045
  20  1759.936
  21  1656.204
  22  1513.809
  23  1390.785
  24  1278.804
  25  1386.144
  26  1598.111
  27  1615.3
  28  1513.623
  29  1436.432
  30  1410.206
  31  1309.442
  32  1494.393
  33  1680.125
  34  1815.162
  35  1626.003
  36  1558.323
  37  1640.409
  38  1580.586
  39  1483.292
  40  1459.437
  41  1495.671
  42  1336.453
  43  1320.223
  44  1368.325
  45  1347.766
  46  1310.25
  47  1547.794
  48  1784.291
  49  1784.817
  50  1722.909
  51  1767.934
  52  1769.526
  53  1676.087
  54  1475.129
  55  1506.476
  56  1544.381
  57  1615.101
  58  1470.465
  59  1381.785
  60  1305.977
  61  1421.647
  62  1561.082
  63  1724.68
  64  1621.068
  65  1646.926
  66  1699.421
  67  1747.492
  68  1634.674
  69  1457.199
  70  1602.056
  71  1551.386
  72  1489.119
  73  1453.463
  74  1390.057
  75  1393.309
  76  1394.135
  77  1539.337
  78  1704.686
  79  1615.818
  80  1781.403
  81  1838.797
  82  1802.418
  83  1601.843
  84  1472.184
  85  1427.161
  86  1521.015
  87  1604.659
  88  1624.99
  89  1527.075
  90  1432.447
  91  1505.188
  92  1609.114
  93  1609.062
  94  1653.945
  95  1628.438
  96  1758.321
  97  1679.533
  98  1514.689
  99  1443.772
 100  1496.822
 101  1504.067
 102  1424.818
 103  1496.138
 104  1591.465
 105  1555.304
 106  1372.948
 107  1466.943
 108  1562.163
 109  1676.448
 110  1558.408
 111  1556.919
 112  1509.351
 113  1489.353
 114  1449.392
 115  1646.053
 116  1720.505
 117  1680.506
 118  1652.532
 119  1698.351
 120  1604.635
 121  1487.48
 122  1496.316
 123  1497.299
 124  1442.453
 125  1550.123
 126  1570.905
 127  1414.898
 128  1306.944
 129  1330.446
 130  1449.122
 131  1287.242
 132  1204.327
 133  1147.667
 134  1347.385
 135  1557.793
 136  1688.519
 137  1649.631
 138  1504.673
 139  1425.226
 140  1445.239
 141  1471.857
 142  1352.951
 143  1253.85
 144  1316.859
 145  1404.054
 146  1517.912
 147  1566.681
 148  1604.016
 149  1560.054
 150  1535.671
 151  1610.121
 152  1670.201
 153  1563.989
 154  1333.96
 155  1326.47
 156  1353.777
 157  1430.587
 158  1383.731
 159  1375.937
 160  1303.7
 161  1263.468
 162  1194.435
 163  1327.963
 164  1414.204
 165  1502.741
 166  1396.918
 167  1506.666
 168  1598.968
 169  1758.247
 170  1739.344
 171  1637.825
 172  1568.022
 173  1474.531
 174  1546.077
 175  1485.901
 176  1456.457
 177  1395.38
 178  1514.63
 179  1523.401
 180  1550.304
 181  1604.877
 182  1712.005
 183  1679.298
 184  1774.221
 185  1768.973
 186  1777.732
 187  1609.003
 188  1570.41
 189  1513.364
 190  1472.561
 191  1444.888
 192  1438.515
 193  1533.202
 194  1512.655
 195  1558.253
 196  1552.197
 197  1474.358
 198  1440.692
 199  1569.889
 200  1847.067
 201  1877.919
 202  1742.81
 203  1678.365
 204  1618.144
 205  1545.149
 206  1468.232
 207  1429.035
 208  1476.359
 209  1524.811
 210  1622.747
 211  1749.661
 212  1628.109
 213  1579.746
 214  1611.392
 215  1856.279
 216  1874.621
 217  1704.84
 218  1610.781
 219  1608.897
 220  1495.471
 221  1394.194
 222  1442.669
 223  1463.101
 224  1461.787
 225  1489.6
 226  1576.736
 227  1506.428
 228  1386.013
 229  1520.319
 230  1600.01
 231  1592.693
 232  1467.686
 233  1500.036
 234  1619.482
 235  1587.915
 236  1514.489
 237  1556.392
 238  1463.696
 239  1499.792
 240  1595.851
 241  1677.014
 242  1660.597
 243  1578.378
 244  1613.152
 245  1683.741
 246  1693.669
 247  1772.531
 248  1792.832
 249  1800.872
 250  1688.995
 251  1577.244
 252  1721.613
 253  1698.903
 254  1666.389
 255  1641.819
 256  1766.529
 257  1664.086
 258  1548.03
 259  1656.683
 260  1718.433
 261  1597.22
 262  1510.037
 263  1523.753
 264  1449.472
 265  1146.491
 266  1113.092
 267  1301.773
 268  1380.883
 269  1511.779
 270  1517.414
 271  1568.684
 272  1308.114
 273  1265.189
 274  1420.261
 275  1486.166
 276  1492.601
 277  1498.419
 278  1443.018
 279  1467.283
 280  1402.251
 281  1528.122
 282  1646.112
 283  1805.396
 284  1804.678
 285  1679.772
 286  1514.376
 287  1482.454
 288  1494.583
 289  1655.059
 290  1555.242
 291  1517.137
 292  1558.782
 293  1550.117
 294  1395.956
 295  1317.91
 296  1470.385
 297  1541.98
 298  1559.513
 299  1602.992
 300  1715.298
 301  1661.345
 302  1527.612
 303  1415.596
 304  1415.913
 305  1435.511
 306  1384.771
 307  1355.818
 308  1325.971
 309  1357.29
 310  1460.024
 311  1518.07
 312  1491.832
 313  1589.399
 314  1825.821
 315  2112.507
 316  1997.275
 317  1896.315
 318  1745.628
 319  1798.928
 320  1723.954
 321  1700.004
 322  1615.783
 323  1517.832
 324  1368.561
 325  1266.775
 326  1279.112
 327  1509.733
 328  1626.685
 329  1770.078
 330  1713.891
 331  1541.463
 332  1513.158
 333  1617.708
 334  1828.37
 335  1664.739
 336  1599.662
 337  1587.842
 338  1684.81
 339  1655.529
 340  1568.724
 341  1561.733
 342  1565.607
 343  1651.331
 344  1667.351
 345  1590.299
 346  1623.225
 347  1723.579
 348  1988.794
 349  1980.541
 350  1897.423
 351  1752.999
 352  1844.254
 353  1747.243
 354  1613.597
 355  1543.596
 356  1621.471
 357  1586.308
 358  1530.932
 359  1559.359
 360  1511.407
 361  1518.666
 362  1572.194
 363  1735.961
 364  1871.836
 365  1779.388
 366  1917.212
 367  1905.576
 368  1871.283
 369  1582.967
 370  1448.44
 371  1508.728
 372  1483.423
 373  1448.034
 374  1332.717
 375  1290.046
 376  1370.861
 377  1532.991
 378  1623.027
 379  1576.28
 380  1590.426
 381  1763.654
 382  1953.549
 383  1898.708
 384  1655.433
 385  1600.15
 386  1502.334
 387  1417.917
 388  1277.859
 389  1369.677
 390  1354.062
 391  1223.521
 392  1337.065
 393  1544.838
 394  1637.533
 395  1558.731
 396  1556.215
 397  1621.044
 398  1584.415
 399  1438.011
 400  1437.829
 401  1480.537
 402  1456.211
 403  1354.744
 404  1377.394
 405  1329.905
 406  1334.694
 407  1410.364
 408  1468.67
 409  1260.842
 410  1182.295
 411  1339.489
 412  1614.401
 413  1636.874
 414  1610.374
 415  1505.056
 416  1382.267
 417  1361.545
 418  1313.78
 419  1359.127
 420  1257.277
 421  1296.279
 422  1424.873
 423  1662.968
 424  1630.826
 425  1636.633
 426  1603.755
 427  1464.788
 428  1178.137
 429  1181.82
 430  1318.855
 431  1367.11
 432  1246.335
 433  1334.286
 434  1359.315
 435  1372.329
 436  1389.753
 437  1476.827
 438  1518.005
 439  1536.272
 440  1711.842
 441  1847.362
 442  1771.891
 443  1576.05
 444  1502.871
 445  1546.464
 446  1535.322
 447  1456.87
 448  1576.795
 449  1669.536
 450  1700.366
 451  1600.736
 452  1565.133
 453  1517.49
 454  1452.502
 455  1525.345
 456  1625.75
 457  1647.359
 458  1424.315
 459  1351.952
 460  1428.812
 461  1313.015
 462  1296.803
 463  1215.349
 464  1356.871
 465  1410.126
 466  1588.411
 467  1727.395
 468  1596.888
 469  1316.959
 470  1336.799
 471  1382.168
 472  1481.498
 473  1318.501
 474  1264.367
 475  1335.333
 476  1313.837
 477  1351.498
 478  1288.631
 479  1473.038
 480  1540.268
 481  1672.407
 482  1644.349
 483  1650.406
 484  1429.716
 485  1470.774
 486  1484.955
 487  1470.537
 488  1510.01
 489  1643.327
 490  1633.598
 491  1338.387
 492  1193.838
 493  1300.201
 494  1369.976
 495  1407.271
 496  1525.699
 497  1642.495
 498  1507.295
 499  1351.32
 500  1436.444
 501  1491.224
 502  1458.838
 503  1414.201
 504  1565.911
 505  1640.953
 506  1539.947
 507  1370.098
 508  1407.499
 509  1489.595
 510  1554.134
 511  1499.827
 512  1641.714
 513  1657.779
 514  1758.01
 515  1738.409
 516  1680.268
 517  1521.236
 518  1478.441
 519  1561.901
 520  1538.645
 521  1321.697
 522  1207.713
 523  1248.856
 524  1352.177
 525  1404.195
 526  1544.736
 527  1634.636
 528  1575.729
 529  1425.824
 530  1508.327
 531  1578.597
 532  1646.953
 533  1633.679
 534  1624.044
 535  1555.458
 536  1333.602
 537  1372.59
 538  1432.911
 539  1473.134
 540  1417.044
 541  1488.48
 542  1454.921
 543  1380.926
 544  1394.276
 545  1654.003
 546  1694.277
 547  1652.504
 548  1553.686
 549  1614.729
 550  1598.146
 551  1495.304
 552  1485.837
 553  1459.854
 554  1484.683
 555  1334.059
 556  1420.853
 557  1411.468
 558  1362.346
 559  1312.868
 560  1417.939
 561  1391.35
 562  1433.083
 563  1500.731
 564  1704.799
 565  1593.814
 566  1415.562
 567  1327.001
 568  1319.931
 569  1365.965
 570  1439.098
 571  1513.256
 572  1531.033
 573  1550.419
 574  1598.994
 575  1537.681
 576  1441.755
 577  1451.263
 578  1646.686
 579  1682.465
 580  1578.625
 581  1475.347
 582  1420.869
 583  1425.029
 584  1410.139
 585  1416.386
 586  1453.732
 587  1428.74
 588  1430.368
 589  1587.112
 590  1669.068
 591  1697.967
 592  1718.442
 593  1794.601
 594  1734.929
 595  1491.722
 596  1313.843
 597  1274.296
 598  1262.603
 599  1333.621
 600  1417.207
 601  1423.479
 602  1416.396
 603  1494.281
 604  1541.339
 605  1623.29
 606  1674.475
 607  1669.733
 608  1697.521
 609  1507.868
 610  1625.369
 611  1540.242
 612  1590.096
 613  1489.974
 614  1426.867
 615  1482.547
 616  1563.927
 617  1565.879
 618  1605.74
 619  1577.922
 620  1552.974
 621  1408.449
 622  1502.729
 623  1609.954
 624  1529.572
 625  1323.92
 626  1191.077
 627  1240.854
 628  1320.709
 629  1473.862
 630  1621.383
 631  1684.342
 632  1667.671
 633  1606.194
 634  1693.335
 635  1632.702
 636  1677.131
 637  1740.494
 638  1720.261
 639  1588.557
 640  1363.245
 641  1434.638
 642  1476.153
 643  1583.017
 644  1643.038
 645  1854.558
 646  1964.066
 647  1986.398
 648  1946.515
 649  1897.618
 650  1836.966
 651  1965.175
 652  2219.272
 653  2401.074
 654  2294.459
 655  2155.205
 656  2089.158
 657  1968.71
 658  1836.738
 659  1717.574
 660  1759.334
 661  1714.551
 662  1719.747
 663  1614.792
 664  1615.03
 665  1488.062
 666  1523.677
 667  1531.085
 668  1471.982
 669  1199.765
 670  1225.768
 671  1312.317
 672  1415.623
 673  1354.64
 674  1474.467
 675  1563.191
 676  1545.414
 677  1535.188
 678  1703.083
 679  1832.61
 680  1866.664
 681  1661.751
 682  1696.763
 683  1658.138
 684  1639.683
 685  1462.249
 686  1456.269
 687  1342.412
 688  1258.871
 689  1285.84
 690  1425.576
 691  1451.304
 692  1295.618
 693  1270.434
 694  1348.106
 695  1493.08
 696  1588.994
 697  1746.091
 698  1699.465
 699  1624.644
 700  1443.869
 701  1361.057
 702  1330.428
 703  1279.6
 704  1280.859
 705  1171.946
 706  1195.571
 707  1312.896
 708  1491.334
 709  1553.362
 710  1420.914
 711  1540.86
 712  1724.857
 713  1756.875
 714  1624.672
 715  1514.966
 716  1545.275
 717  1435.672
 718  1406.2
 719  1438.075
 720  1495.35
 721  1466.981
 722  1373.521
 723  1503.832
 724  1497.364
 725  1419.438
 726  1540.881
 727  1611.816
 728  1565.892
 729  1512.085
 730  1538.707
 731  1580.065
 732  1465.299
 733  1353.001
 734  1472.767
 735  1390.535
 736  1497.176
 737  1529.941
 738  1612.788
 739  1663.062
 740  1587.214
 741  1752.162
 742  1742.253
 743  1734.755
 744  1757.576
 745  1809.095
 746  1812.065
 747  1679.295
 748  1501.383
 749  1542.183
 750  1582.324
 751  1703.178
 752  1620.896
 753  1699.617
 754  1627.426
 755  1713.633
 756  1726.295
 757  1781.866
 758  1510.351
 759  1401.599
 760  1381.966
 761  1557.389
 762  1457.226
 763  1433.189
 764  1419.293
 765  1331.889
 766  1305.57
 767  1342.467
 768  1553.661
 769  1355.131
 770  1429.369
 771  1530.983
 772  1698.094
 773  1600.131
 774  1532.006
 775  1535.766
 776  1597.017
 777  1622.975
 778  1673.803
 779  1680.047
 780  1682.485
 781  1530.819
 782  1512.09
 783  1475.032
 784  1473.819
 785  1432.303
 786  1594.733
 787  1578.73
 788  1487.436
 789  1458.724
 790  1593.332
 791  1566.121
 792  1463.042
 793  1379.504
 794  1457.243
 795  1400.902
 796  1516.298
 797  1555.463
 798  1524.834
 799  1457.032
 800  1514.833
 801  1709.098
 802  1606.987
 803  1556.363
 804  1547.294
 805  1676.402
 806  1443.892
 807  1480.307
 808  1556.853
 809  1718.611
 810  1570.615
 811  1679.803
 812  1752.055
 813  1634.372
 814  1459.514
 815  1351.638
 816  1403.573
 817  1391.383
 818  1375.037
 819  1376.401
 820  1380.364
 821  1484.944
 822  1467.19
 823  1475.055
 824  1415.42
 825  1464.219
 826  1606.216
 827  1637.948
 828  1585.042
 829  1416.567
 830  1495.766
 831  1488.61
 832  1435.642
 833  1365.502
 834  1424.464
 835  1454.553
 836  1428.403
 837  1231.847
 838  1347.823
 839  1257.223
 840  1348.586
 841  1281.582
 842  1429.783
 843  1578.239
 844  1647.611
 845  1680.37
 846  1585.227
 847  1432.245
 848  1296.468
 849  1256.104
 850  1267.026
 851  1154.293
 852  1152.042
 853  1123.424
 854  1245.913
 855  1247.338
 856  1343.075
 857  1345.747
 858  1397.895
 859  1508.549
 860  1561.317
 861  1654.576
 862  1650.131
 863  1734.441
 864  1651.787
 865  1454.418
 866  1242.573
 867  1231.23
 868  1292.568
 869  1375.315
 870  1403.509
 871  1306.39
 872  1319.783
 873  1273.456
 874  1482.385
 875  1589.837
 876  1717.303
 877  1686.995
 878  1628.747
 879  1713.056
 880  1685.784
 881  1618.741
 882  1481.979
 883  1453.541
 884  1389.716
 885  1422.131
 886  1458.583
 887  1460.918
 888  1420.645
 889  1464.944
 890  1759.573
 891  1793.889
 892  1814.926
 893  1703.102
 894  1701.722
 895  1621.216
 896  1424.434
 897  1334.52
 898  1423.951
 899  1430.135
 900  1453.159
 901  1513.473
 902  1548.089
 903  1546.161
 904  1517.878
 905  1711.349
 906  1739.94
 907  1683.089
 908  1722.189
 909  1915.855
 910  1835.859
 911  1661.234
 912  1510.332
 913  1551.911
 914  1458.545
 915  1369.411
 916  1438.495
 917  1619.397
 918  1625.704
 919  1708.184
 920  1757.105
 921  1662.882
 922  1588.48
 923  1719.566
 924  1834.067
 925  1688.499
 926  1449.466
 927  1605.033
 928  1683.503
 929  1594.501
 930  1533.392
 931  1596.509
 932  1712.723
 933  1636.25
 934  1688.135
 935  1721.925
 936  1629.332
 937  1658.998
 938  1812.766
 939  1873.298
 940  1766.186
 941  1775.876
 942  1881.687
 943  1803.97
 944  1724.146
 945  1655.635
 946  1687.737
 947  1626.253
 948  1553.261
 949  1660.78
 950  1813.656
 951  1842.983
 952  1832.385
 953  1868.333
 954  1750.427
 955  1562.604
 956  1578.236
 957  1698.816
 958  1664.382
 959  1611.177
 960  1692.144
 961  1713.337
 962  1638.058
 963  1429.189
 964  1388.138
 965  1385.177
 966  1449.777
 967  1651.26
 968  1703.568
 969  1692.812
 970  1620.922
 971  1485.606
 972  1415.795
 973  1320.462
 974  1313.139
 975  1579.699
 976  1682.299
 977  1869.908
 978  1727.527
 979  1794.032
 980  1521.047
 981  1441.517
 982  1389.196
 983  1497.13
 984  1346.605
 985  1322.99
 986  1424.777
 987  1457.546
 988  1281.567
 989  1182.043
 990  1268.7
 991  1539.828
 992  1698.632
 993  1785.075
 994  1619.002
 995  1358.903
 996  1314.073
 997  1396.4
 998  1493.211
 999  1444.483
1000  1443.377
1001  1273.706
1002  1221.251
1003  1122.226
1004  1149.27
1005  1295.26
1006  1549.085
1007  1668.794
1008  1673.345
1009  1608.559
1010  1483.623
1011  1398.181
1012  1425.673
1013  1486.787
1014  1498.665
1015  1378.353
1016  1408.564
1017  1299.547
1018  1181.466
1019  1178.354
1020  1273.398
1021  1374.92
1022  1381.754
1023  1368.836
