# Input file       =  1182490991.128987_cleaned.dat
# Candidate        =  PSR_0332+5434
# Telescope        =  AR
# Epoch_topo       =  57930.238543159576
# Epoch_bary       =  N/A
# T_sample         =  0.002
# Data Folded      =  7340032
# Data Avg         =  0.153204673877293
# Data StdDev      =  3.64299531960723 
# Profile Bins     =  1024
# Profile Avg      =  1098.19083491245 
# Profile StdDev   =  308.430708577696 
# Reduced chi-sqr  =  0.917
# Prob(Noise)      <  0.973   (~0.0 sigma)
# P_topo (ms)      =  714.493188543695  +/- 6.34e-05
# P'_topo (s/s)    =  -0                +/- 3.34e-11
# P''_topo (s/s^2) =  0                 +/- 1.48e-14
# P_bary (ms)      =  N/A
# P'_bary (s/s)    =  N/A
# P''_bary (s/s^2) =  N/A
# P_orb (s)        =  N/A
# asin(i)/c (s)    =  N/A
# eccentricity     =  N/A
# w (rad)          =  N/A
# T_peri           =  N/A
######################################################
   0  1144.661
   1  1134.867
   2  1162.215
   3  1063.906
   4  966.2753
   5  929.4991
   6  1023.782
   7  1098.446
   8  1143.149
   9  1131.487
  10  1178.988
  11  1114.206
  12  1077.92
  13  1102.175
  14  1131.835
  15  1046.082
  16  970.4708
  17  944.0183
  18  1052.777
  19  1209.013
  20  1238.426
  21  1156.537
  22  1082.654
  23  1112.242
  24  1232.345
  25  1137.176
  26  1118.031
  27  1096.575
  28  1090.829
  29  1193.942
  30  1116.333
  31  1198.119
  32  1080.188
  33  1069.222
  34  967.4728
  35  898.0731
  36  864.1174
  37  995.6765
  38  1075.508
  39  1202.225
  40  1183.686
  41  1106.728
  42  1042.371
  43  977.6664
  44  1017.918
  45  1062.011
  46  1150.476
  47  1242.698
  48  1174.967
  49  1219.818
  50  1237.718
  51  1298.901
  52  1189.54
  53  1019.503
  54  894.9571
  55  909.9345
  56  975.0175
  57  1104.751
  58  1187.875
  59  1173.986
  60  1023.163
  61  1004.397
  62  1060.582
  63  1057.22
  64  930.3807
  65  875.0306
  66  967.7361
  67  1091.518
  68  1169.506
  69  1161.257
  70  1079.738
  71  1094.221
  72  1035.689
  73  1115.765
  74  1229.574
  75  1322.202
  76  1274.615
  77  1112.194
  78  1107.79
  79  1086.381
  80  1068.923
  81  924.5623
  82  988.6072
  83  1007.869
  84  1100.231
  85  1081.74
  86  1167.968
  87  1167.572
  88  1077.03
  89  1074.18
  90  1020.416
  91  1153.601
  92  1210.491
  93  1266.454
  94  1326.171
  95  1376.568
  96  1410.559
  97  1313.476
  98  1222.84
  99  1239.659
 100  1211.943
 101  1222.044
 102  1249.199
 103  1298.429
 104  1314.71
 105  1247.889
 106  1317.619
 107  1299.241
 108  1273.12
 109  1119.852
 110  1059.543
 111  1030.924
 112  1042.875
 113  1066.217
 114  1021.748
 115  979.4135
 116  956.2248
 117  944.9675
 118  1021.248
 119  1043.157
 120  1033.298
 121  947.8293
 122  989.2248
 123  1114.151
 124  1185.847
 125  1068.515
 126  979.619
 127  856.3666
 128  883.8044
 129  940.021
 130  953.6346
 131  968.7994
 132  921.662
 133  1078.698
 134  990.1194
 135  917.3183
 136  853.599
 137  887.0326
 138  828.0958
 139  829.972
 140  940.7675
 141  1074.87
 142  1122.868
 143  1174.755
 144  1247.534
 145  1212.157
 146  1149.192
 147  1104.084
 148  1109.094
 149  1001.189
 150  959.5078
 151  1009.172
 152  1114.685
 153  1105.002
 154  1174.59
 155  1158.779
 156  1157.696
 157  1051.377
 158  1064.232
 159  1076.508
 160  1042.861
 161  972.9396
 162  995.5309
 163  1050.2
 164  1134.462
 165  1115.576
 166  1169.427
 167  1041.385
 168  957.5821
 169  838.8727
 170  967.4631
 171  1006.801
 172  1060.7
 173  967.9987
 174  975.245
 175  1077.001
 176  1099.483
 177  1020.491
 178  963.6873
 179  959.6488
 180  983.3661
 181  946.9472
 182  930.8485
 183  906.9267
 184  820.6551
 185  802.847
 186  907.1427
 187  1049.202
 188  1053.481
 189  1031.267
 190  1005.529
 191  986.1052
 192  857.0461
 193  818.4293
 194  795.9291
 195  683.4941
 196  636.4221
 197  678.3132
 198  773.8738
 199  766.439
 200  832.5393
 201  981.7127
 202  989.3024
 203  872.8617
 204  784.0891
 205  825.2238
 206  931.4283
 207  871.3795
 208  852.847
 209  852.6105
 210  930.9307
 211  923.7847
 212  953.2838
 213  985.8166
 214  1075.116
 215  997.1095
 216  918.5822
 217  830.0364
 218  971.5503
 219  1032.353
 220  1121.405
 221  1070.82
 222  1044.827
 223  1038.691
 224  895.7573
 225  965.2191
 226  998.7071
 227  1097.71
 228  1078.175
 229  1127.233
 230  1220.336
 231  1281.893
 232  1110.665
 233  995.9249
 234  909.9384
 235  902.5837
 236  871.0258
 237  847.7939
 238  1015
 239  1035.804
 240  1080.446
 241  910.6182
 242  899.2996
 243  907.0915
 244  923.3712
 245  954.6887
 246  945.9581
 247  989.9599
 248  1032.486
 249  1017.432
 250  1001.95
 251  1094.649
 252  1066.165
 253  1013.11
 254  918.4982
 255  1014.359
 256  1056.728
 257  1049.672
 258  1042.124
 259  982.9064
 260  922.334
 261  799.7207
 262  789.4559
 263  867.0716
 264  851.9442
 265  945.8207
 266  982.017
 267  1058.917
 268  1048.64
 269  1091.875
 270  1147.681
 271  1035.743
 272  985.0325
 273  921.2448
 274  974.2368
 275  909.8641
 276  925.5828
 277  942.6727
 278  899.8149
 279  900.3821
 280  953.9635
 281  1127.445
 282  1218.332
 283  1222.676
 284  1235.022
 285  1235.816
 286  1201.873
 287  1171.45
 288  1129.045
 289  1038.497
 290  1136.308
 291  1267.269
 292  1226.242
 293  1052.188
 294  921.3953
 295  1064.177
 296  1103.155
 297  1140.064
 298  1169.444
 299  1224.06
 300  1193.064
 301  1066.978
 302  937.6798
 303  887.0107
 304  963.6755
 305  1042.605
 306  1098.426
 307  957.1725
 308  1071.739
 309  1164.163
 310  1099.966
 311  963.0746
 312  996.8106
 313  1141.877
 314  1206.767
 315  1298.14
 316  1411.11
 317  1461.456
 318  1400.687
 319  1336.958
 320  1238.681
 321  1138.533
 322  1095.7
 323  1080.21
 324  1045.907
 325  993.6323
 326  1071.388
 327  1108.977
 328  985.3198
 329  870.8862
 330  802.5772
 331  861.5543
 332  957.3152
 333  1081.034
 334  1133.745
 335  1095.256
 336  1039.67
 337  969.1778
 338  940.621
 339  880.6174
 340  1039.491
 341  1058.29
 342  1191.474
 343  1164.194
 344  1230.277
 345  1227.055
 346  1109.442
 347  946.8002
 348  957.5171
 349  1140.24
 350  1184.889
 351  1148.383
 352  1175.322
 353  1247.787
 354  1244.894
 355  1156.291
 356  1170.868
 357  1158.45
 358  1181.085
 359  1178.968
 360  1254.79
 361  1254.124
 362  1373.985
 363  1390.898
 364  1339.822
 365  1190.655
 366  1026.897
 367  995.4473
 368  1021.678
 369  1124.488
 370  1154.206
 371  1042.409
 372  1032.154
 373  1109.655
 374  1209.938
 375  1143.969
 376  1034.397
 377  987.714
 378  969.8661
 379  975.6133
 380  1037.73
 381  1220.336
 382  1249.829
 383  1194.568
 384  1120.052
 385  1148.946
 386  1143.255
 387  1163.241
 388  1118.413
 389  1103.392
 390  1003.672
 391  1099.458
 392  1227.043
 393  1324.027
 394  1307.334
 395  1192.726
 396  1158.675
 397  1026.984
 398  1039.738
 399  1065.531
 400  1140.241
 401  1165.499
 402  1186.956
 403  1135.174
 404  1139.928
 405  1099.849
 406  1079.484
 407  1045.818
 408  1022.501
 409  974.6719
 410  885.2688
 411  967.7465
 412  1061.228
 413  1182.589
 414  1241.54
 415  1165.97
 416  1074.333
 417  1046.786
 418  1010.838
 419  935.4822
 420  888.0212
 421  958.5361
 422  1116.134
 423  1204.739
 424  1246.53
 425  1109.923
 426  989.9098
 427  897.2036
 428  1115.801
 429  1228.837
 430  1229.198
 431  1179.287
 432  1178.895
 433  1095.025
 434  1025.427
 435  999.5697
 436  976.2909
 437  956.8457
 438  1051.482
 439  1184.145
 440  1110.721
 441  1086.719
 442  1091.722
 443  1192.216
 444  1092.474
 445  915.8999
 446  853.1141
 447  1009.033
 448  1151.707
 449  1229.323
 450  1134.599
 451  1119.869
 452  1051.837
 453  1054.833
 454  913.6567
 455  886.3342
 456  953.4374
 457  1019.256
 458  1057.242
 459  1074.383
 460  1066.969
 461  1022.39
 462  1105.665
 463  1183.476
 464  1190.288
 465  1062.348
 466  1071.802
 467  1104.115
 468  1087.762
 469  1099.065
 470  1143.689
 471  1194.185
 472  1133.997
 473  1049.613
 474  1012.937
 475  971.71
 476  1004.142
 477  1076.106
 478  1248.112
 479  1239.904
 480  1273.452
 481  1296.207
 482  1326.052
 483  1276.802
 484  1242.159
 485  1148.238
 486  1126.265
 487  1125.529
 488  1138.673
 489  1123.265
 490  1020.494
 491  963.9698
 492  861.1623
 493  914.1326
 494  869.0613
 495  823.6141
 496  716.0027
 497  768.366
 498  921.5023
 499  1119.528
 500  1102.595
 501  1017.945
 502  958.7214
 503  1074.998
 504  1037.451
 505  1037.958
 506  1086.294
 507  1192.995
 508  1181.483
 509  1126.44
 510  1122.239
 511  1262.431
 512  1214.669
 513  1053.26
 514  950.0414
 515  1053.545
 516  1194.557
 517  1164.609
 518  1088.546
 519  1029.749
 520  1145.118
 521  1144.375
 522  1201.909
 523  1163.804
 524  1139.047
 525  1014.717
 526  1038.074
 527  1139.016
 528  1252.54
 529  1164.116
 530  1131.267
 531  1163.053
 532  1225.046
 533  1147.85
 534  1075.189
 535  1120.733
 536  1181.323
 537  1198.036
 538  1047.856
 539  996.9704
 540  988.4027
 541  1011.933
 542  1079.33
 543  1150.133
 544  1199.336
 545  1221.32
 546  1119.899
 547  1114.204
 548  964.691
 549  888.9752
 550  814.265
 551  770.6702
 552  856.0967
 553  954.1273
 554  1081.783
 555  976.7226
 556  984.3007
 557  934.0354
 558  1012.735
 559  1022.39
 560  1018.758
 561  1048.681
 562  984.2185
 563  1040.632
 564  1041.341
 565  1109.197
 566  1095.04
 567  1012.198
 568  1000.248
 569  1094.743
 570  1116.559
 571  1083.801
 572  1129.794
 573  1178.984
 574  1234.114
 575  1137.882
 576  1109.004
 577  949.6198
 578  892.8805
 579  932.0441
 580  1042.99
 581  1181.63
 582  1146.83
 583  1144.548
 584  1117.029
 585  1093.86
 586  954.919
 587  904.8137
 588  863.9143
 589  925.5638
 590  958.3984
 591  1014.822
 592  1032.209
 593  1058.687
 594  1225.57
 595  1209.262
 596  1132.89
 597  1009.244
 598  999.7382
 599  1114.278
 600  1259.826
 601  1362.043
 602  1298.429
 603  1272.195
 604  1202.93
 605  1113.847
 606  989.381
 607  953.6699
 608  1058.674
 609  1184.833
 610  1256.164
 611  1273.849
 612  1334.859
 613  1364.814
 614  1357.597
 615  1304.349
 616  1213.103
 617  1204.102
 618  1120.113
 619  1184.197
 620  1160.153
 621  1242.261
 622  1125.492
 623  1152.51
 624  1082.264
 625  1078.942
 626  968.2327
 627  1024.885
 628  1053.877
 629  1114.272
 630  1013.405
 631  1050.273
 632  1160.502
 633  1333.171
 634  1268.85
 635  1158.481
 636  1029.759
 637  1075.743
 638  1103.142
 639  1230.2
 640  1361.746
 641  1380.814
 642  1389.648
 643  1294.516
 644  1295.656
 645  1389.452
 646  1491.256
 647  1625.167
 648  1629.79
 649  1831.147
 650  2021.789
 651  1980.529
 652  1861.387
 653  1861.521
 654  1945.186
 655  1973.194
 656  1821.716
 657  1804.919
 658  1808.563
 659  1754.572
 660  1577.14
 661  1367.235
 662  1333.806
 663  1273.163
 664  1232.354
 665  1218.852
 666  1272.083
 667  1290.473
 668  1335.067
 669  1385.888
 670  1380.774
 671  1327.487
 672  1178.881
 673  1155.146
 674  1117.114
 675  1206.005
 676  1271.935
 677  1338.741
 678  1357.659
 679  1379.784
 680  1470.584
 681  1457.366
 682  1437.676
 683  1344.823
 684  1345.116
 685  1345.097
 686  1273.851
 687  1222.65
 688  1313.153
 689  1351.738
 690  1329.715
 691  1317.027
 692  1281.218
 693  1327.316
 694  1242.615
 695  1237.532
 696  1164.282
 697  1186.766
 698  1142.214
 699  1201.147
 700  1185.173
 701  1169.161
 702  1128.097
 703  1258.322
 704  1284.052
 705  1321.836
 706  1316.127
 707  1253.109
 708  1180.126
 709  1063.67
 710  1060.74
 711  1053.938
 712  1054.706
 713  1026.959
 714  996.5081
 715  1033.261
 716  1034.83
 717  1106.017
 718  1046.124
 719  1190.885
 720  1112.52
 721  1145.638
 722  1087.922
 723  1184.515
 724  1246.766
 725  1167.734
 726  1155.772
 727  1153.287
 728  1324.264
 729  1315.32
 730  1403.6
 731  1361.713
 732  1422.019
 733  1413.432
 734  1305.895
 735  1293.673
 736  1332.722
 737  1410.834
 738  1383.469
 739  1261.627
 740  1155.26
 741  1072.728
 742  1091.666
 743  1076.453
 744  1125.131
 745  1234.645
 746  1307.623
 747  1302.4
 748  1242.582
 749  1388.11
 750  1459.401
 751  1388.195
 752  1247.395
 753  1230.342
 754  1254.568
 755  1280.503
 756  1224.829
 757  1168.358
 758  1024.851
 759  1002.129
 760  955.1837
 761  1009.737
 762  903.8001
 763  903.9553
 764  951.7414
 765  1126.273
 766  1181.41
 767  1241.142
 768  1329.518
 769  1283.201
 770  1298.622
 771  1212.884
 772  1081.696
 773  1068.165
 774  964.2222
 775  998.0845
 776  926.6954
 777  947.1047
 778  967.3444
 779  1024.42
 780  1068.906
 781  1132.71
 782  1158.834
 783  1140.076
 784  1216.859
 785  1297.18
 786  1389.064
 787  1285.932
 788  1193.81
 789  1077.97
 790  1089.275
 791  1022.004
 792  1109.577
 793  1090.729
 794  1133.002
 795  1124.019
 796  1100.011
 797  1071.591
 798  968.9492
 799  980.8603
 800  1066.754
 801  1217.98
 802  1274.708
 803  1289.991
 804  1280.845
 805  1186.228
 806  1154.784
 807  1058.851
 808  1049.091
 809  982.5612
 810  1000.675
 811  1020.845
 812  1055.415
 813  1089.835
 814  1046.553
 815  1152.388
 816  1150.109
 817  1126.685
 818  978.2332
 819  875.0036
 820  799.0699
 821  764.3241
 822  851.9452
 823  954.5557
 824  961.1602
 825  851.0381
 826  825.4097
 827  782.647
 828  820.1776
 829  846.5034
 830  984.6995
 831  1082.01
 832  1083.755
 833  1087.352
 834  1048.913
 835  1078.008
 836  1029.689
 837  976.9426
 838  868.0693
 839  847.9645
 840  946.4375
 841  1006.809
 842  1039.224
 843  1131.247
 844  1162.039
 845  1108.187
 846  1041.993
 847  964.5099
 848  894.3748
 849  884.6636
 850  942.7713
 851  1027.755
 852  1002.429
 853  986.5076
 854  1064.593
 855  1069.44
 856  1133.331
 857  1114.304
 858  1014.264
 859  1019.183
 860  976.4426
 861  1097.299
 862  1150.046
 863  1227.028
 864  1230.329
 865  1202.075
 866  1197.899
 867  1222.536
 868  1282.607
 869  1258.17
 870  1239.424
 871  1325.136
 872  1321.035
 873  1267.314
 874  1128.295
 875  1014.022
 876  918.8156
 877  886.4396
 878  1032.234
 879  1084.997
 880  1116.422
 881  1120.206
 882  1141.336
 883  1140.146
 884  1111.185
 885  1036.046
 886  1029.202
 887  1076.866
 888  1161.021
 889  1209.036
 890  1117.822
 891  1105.168
 892  1001.585
 893  938.294
 894  893.5326
 895  883.2615
 896  993.6037
 897  955.0671
 898  1015.557
 899  1140.72
 900  1282.739
 901  1442.359
 902  1336.3
 903  1236.926
 904  1168.969
 905  1120.369
 906  951.894
 907  879.6467
 908  868.8137
 909  971.8345
 910  1064.454
 911  1223.596
 912  1384.324
 913  1319.86
 914  1287.1
 915  1080.012
 916  1007.064
 917  934.7891
 918  946.4494
 919  1035.92
 920  1022.918
 921  1024.746
 922  884.3184
 923  856.037
 924  863.7484
 925  986.0303
 926  1020.342
 927  1056.069
 928  1153.595
 929  1167.379
 930  1180.828
 931  1125.599
 932  1119.424
 933  1052.802
 934  990.3436
 935  910.8826
 936  1002.351
 937  1089.831
 938  1161.312
 939  1116.239
 940  1146.209
 941  1155.82
 942  1032.319
 943  847.4306
 944  845.8893
 945  890.2526
 946  1060.661
 947  1037.929
 948  1014.99
 949  968.7802
 950  1030.041
 951  1000.489
 952  985.4968
 953  1063.49
 954  1179.153
 955  1185.011
 956  1203.318
 957  1202.115
 958  1111.663
 959  948.1562
 960  878.1973
 961  916.8712
 962  904.2863
 963  824.3629
 964  811.0198
 965  811.9187
 966  933.0501
 967  969.4901
 968  989.2245
 969  929.0165
 970  942.7454
 971  886.5638
 972  922.4037
 973  893.4664
 974  978.9131
 975  1021.314
 976  978.868
 977  976.9023
 978  951.248
 979  892.2916
 980  819.5182
 981  890.1545
 982  964.3339
 983  986.6384
 984  952.1622
 985  1051.381
 986  1139.097
 987  1176.969
 988  1152.498
 989  1155.688
 990  1036.422
 991  932.5466
 992  971.5127
 993  1169.943
 994  1307.844
 995  1339.92
 996  1374.785
 997  1312.898
 998  1287.503
 999  1240.77
1000  1119.134
1001  1096.35
1002  1095.019
1003  1113.15
1004  1031.559
1005  1100.229
1006  1077.575
1007  1065.899
1008  1003.994
1009  1023.402
1010  1018.995
1011  1045.09
1012  1055.067
1013  1204.228
1014  1263.683
1015  1349.239
1016  1208.797
1017  1137.18
1018  1009.022
1019  1059.532
1020  1024.375
1021  987.301
1022  998.7148
1023  1013.355
