# Input file       =  1182678199.116364_cleaned.dat
# Candidate        =  PSR_0332+5434
# Telescope        =  AR
# Epoch_topo       =  57932.405302272731
# Epoch_bary       =  N/A
# T_sample         =  0.002
# Data Folded      =  7340032
# Data Avg         =  0.0412620924697945
# Data StdDev      =  1.00008180633131 
# Profile Bins     =  512
# Profile Avg      =  591.477388409071 
# Profile StdDev   =  119.742831297208 
# Reduced chi-sqr  =  1.141
# Prob(Noise)      <  0.0149   (~2.2 sigma)
# P_topo (ms)      =  714.491693915268  +/- 6.8e-05
# P'_topo (s/s)    =  -0                +/- 3.59e-11
# P''_topo (s/s^2) =  0                 +/- 1.58e-14
# P_bary (ms)      =  N/A
# P'_bary (s/s)    =  N/A
# P''_bary (s/s^2) =  N/A
# P_orb (s)        =  N/A
# asin(i)/c (s)    =  N/A
# eccentricity     =  N/A
# w (rad)          =  N/A
# T_peri           =  N/A
######################################################
   0  1119.314
   1  1083.749
   2  940.4739
   3  798.7886
   4  869.3075
   5  753.6592
   6  608.3218
   7  608.3906
   8  587.3968
   9  570.3201
  10  554.0902
  11  498.1048
  12  561.8743
  13  483.5591
  14  514.7894
  15  576.5358
  16  596.8294
  17  589.2165
  18  545.6384
  19  645.6602
  20  644.7448
  21  524.0991
  22  534.0751
  23  496.1262
  24  470.6833
  25  609.2412
  26  618.4797
  27  500.0466
  28  522.1105
  29  638.8798
  30  610.4261
  31  606.765
  32  587.7156
  33  629.2209
  34  653.3848
  35  629.0635
  36  621.6266
  37  507.6959
  38  536.5278
  39  604.5894
  40  566.4891
  41  516.1696
  42  598.495
  43  580.8212
  44  639.326
  45  737.8346
  46  629.3672
  47  558.3427
  48  451.5989
  49  465.6341
  50  542.3254
  51  628.9762
  52  582.6791
  53  606.486
  54  560.9045
  55  393.4981
  56  471.347
  57  521.4399
  58  444.5473
  59  368.0085
  60  371.1739
  61  463.0027
  62  490.6112
  63  384.9482
  64  407.3915
  65  442.9002
  66  525.6528
  67  582.6891
  68  500.8281
  69  527.0238
  70  503.212
  71  494.5129
  72  561.8679
  73  512.1459
  74  465.6777
  75  534.8412
  76  523.915
  77  468.1136
  78  444.5632
  79  429.0061
  80  428.916
  81  537.614
  82  616.9548
  83  575.6139
  84  478.836
  85  541.9326
  86  656.1038
  87  667.1624
  88  638.9008
  89  622.8647
  90  603.3519
  91  557.0804
  92  606.9005
  93  647.0002
  94  550.3672
  95  504.7825
  96  512.3969
  97  517.8269
  98  538.4167
  99  502.8228
 100  492.6188
 101  501.2533
 102  486.2734
 103  447.6797
 104  456.4194
 105  584.3913
 106  528.975
 107  504.4337
 108  543.6547
 109  532.6398
 110  559.7704
 111  595.0801
 112  631.6978
 113  669.6326
 114  588.2455
 115  470.4108
 116  436.6125
 117  515.6269
 118  568.2519
 119  627.5766
 120  675.2219
 121  524.4134
 122  432.1268
 123  556.1332
 124  626.802
 125  644.8438
 126  578.094
 127  518.8349
 128  505.6068
 129  580.0096
 130  517.0032
 131  510.2499
 132  567.4056
 133  566.8281
 134  619.4772
 135  666.6535
 136  540.1601
 137  565.7195
 138  676.6817
 139  755.7986
 140  679.1974
 141  504.2645
 142  564.514
 143  556.8973
 144  633.1769
 145  558.8096
 146  566.326
 147  562.178
 148  570.2375
 149  576.3367
 150  561.4599
 151  561.6147
 152  596.5374
 153  682.6014
 154  612.2738
 155  486.3308
 156  470.6232
 157  566.6633
 158  556.7308
 159  483.3854
 160  468.3988
 161  482.3624
 162  666.6571
 163  694.4271
 164  595.9644
 165  579.2056
 166  642.3135
 167  642.5417
 168  600.8948
 169  629.2703
 170  673.523
 171  635.2413
 172  628.0867
 173  645.8497
 174  636.1316
 175  536.001
 176  603.8993
 177  653.3774
 178  590.6374
 179  526.4575
 180  551.8953
 181  561.3276
 182  601.8142
 183  599.5365
 184  565.8041
 185  508.3824
 186  530.0638
 187  524.8381
 188  437.8701
 189  374.7179
 190  497.765
 191  589.3026
 192  548.0687
 193  494.3664
 194  450.3053
 195  540.8511
 196  538.1064
 197  623.431
 198  525.8975
 199  533.5173
 200  596.8217
 201  581.6905
 202  524.5838
 203  547.3716
 204  603.3483
 205  574.8199
 206  551.3505
 207  576.4302
 208  587.59
 209  575.272
 210  648.7447
 211  748.7173
 212  675.6661
 213  604.2348
 214  623.5679
 215  596.2073
 216  595.2001
 217  570.4329
 218  602.5307
 219  654.9424
 220  610.1039
 221  540.3984
 222  515.7865
 223  586.0858
 224  568.717
 225  515.3544
 226  507.9836
 227  553.4305
 228  542.8553
 229  597.99
 230  594.6678
 231  576.204
 232  603.2786
 233  577.444
 234  731.0612
 235  782.7095
 236  643.002
 237  604.1027
 238  608.0316
 239  716.8733
 240  720.2934
 241  607.3768
 242  576.9866
 243  632.6449
 244  612.1322
 245  590.7051
 246  535.7268
 247  567.9382
 248  622.3191
 249  562.5883
 250  556.3332
 251  658.7955
 252  596.8094
 253  527.6849
 254  555.6746
 255  640.4915
 256  561.005
 257  602.5855
 258  610.8434
 259  532.4442
 260  573.7502
 261  626.3857
 262  646.8439
 263  683.2479
 264  606.3839
 265  526.0405
 266  547.2975
 267  599.0558
 268  710.0046
 269  707.7326
 270  618.0201
 271  535.3148
 272  614.5621
 273  614.805
 274  677.1948
 275  546.7618
 276  509.7792
 277  590.3665
 278  604.2538
 279  568.2535
 280  575.7736
 281  613.8788
 282  620.5538
 283  719.5659
 284  695.4742
 285  716.9418
 286  718.0535
 287  711.8333
 288  580.3544
 289  466.1542
 290  542.6656
 291  657.4319
 292  655.8604
 293  718.0208
 294  640.348
 295  635.5582
 296  661.1105
 297  691.8163
 298  679.6201
 299  595.2549
 300  624.561
 301  699.6479
 302  695.2471
 303  709.832
 304  668.0504
 305  687.2092
 306  651.6865
 307  682.1528
 308  700.9226
 309  512.7324
 310  558.7369
 311  629.5917
 312  525.5329
 313  584.7977
 314  706.3008
 315  673.608
 316  601.5496
 317  614.418
 318  634.783
 319  742.7825
 320  675.9695
 321  623.7816
 322  530.2406
 323  603.3727
 324  668.9036
 325  635.6366
 326  607.8515
 327  532.9393
 328  439.4268
 329  493.8875
 330  599.4219
 331  521.549
 332  573.9225
 333  624.0773
 334  591.7227
 335  623.0633
 336  606.1782
 337  567.5522
 338  672.8758
 339  684.2279
 340  695.4202
 341  589.5483
 342  515.3133
 343  600.8084
 344  626.3585
 345  691.5406
 346  645.4989
 347  549.9946
 348  524.6284
 349  518.9631
 350  594.9543
 351  608.9114
 352  556.2013
 353  586.9559
 354  606.7417
 355  525.3929
 356  535.5649
 357  532.8207
 358  523.7146
 359  570.9998
 360  617.4685
 361  573.8768
 362  564.5297
 363  581.2094
 364  665.1407
 365  609.4112
 366  546.3815
 367  561.9103
 368  594.4458
 369  579.176
 370  578.0743
 371  513.1008
 372  600.6537
 373  656.3363
 374  607.1943
 375  559.7507
 376  533.9142
 377  537.2549
 378  678.9086
 379  743.8353
 380  649.0569
 381  607.16
 382  704.8434
 383  748.6057
 384  673.1746
 385  613.3734
 386  588.5493
 387  633.1985
 388  594.9966
 389  585.2129
 390  579.5703
 391  638.3856
 392  660.5232
 393  602.2145
 394  583.0418
 395  557.22
 396  541.4916
 397  520.8908
 398  443.4981
 399  443.5359
 400  501.9436
 401  562.358
 402  615.1563
 403  493.4007
 404  443.8704
 405  461.7886
 406  556.0668
 407  567.1707
 408  482.1142
 409  497.7251
 410  529.3793
 411  632.1441
 412  640.5499
 413  580.033
 414  523.4392
 415  664.845
 416  822.8039
 417  763.5427
 418  631.5377
 419  626.7007
 420  686.6257
 421  663.9259
 422  715.3469
 423  617.7791
 424  546.6592
 425  653.3093
 426  590.1064
 427  590.2575
 428  627.5812
 429  637.2559
 430  610.9678
 431  685.0517
 432  748.179
 433  632.3237
 434  510.8403
 435  535.8024
 436  656.0513
 437  646.7715
 438  508.6641
 439  527.265
 440  661.2172
 441  579.7054
 442  465.6422
 443  490.1449
 444  636.8378
 445  710.1194
 446  610.5723
 447  529.6041
 448  452.9943
 449  525.2267
 450  646.449
 451  610.0463
 452  594.2742
 453  532.4933
 454  608.6733
 455  506.8415
 456  454.5076
 457  422.6953
 458  465.7444
 459  505.9845
 460  638.846
 461  516.4744
 462  489.5949
 463  475.5621
 464  610.9102
 465  615.9266
 466  649.2262
 467  682.3282
 468  624.4543
 469  668.8772
 470  682.7073
 471  625.5131
 472  670.5693
 473  646.7643
 474  589.8971
 475  541.3848
 476  495.5561
 477  538.4448
 478  570.4009
 479  582.3233
 480  562.3022
 481  444.1573
 482  506.2621
 483  608.6653
 484  567.0751
 485  579.4943
 486  502.8141
 487  613.1071
 488  669.8857
 489  569.9295
 490  600.7497
 491  595.0153
 492  635.6488
 493  623.1744
 494  648.5385
 495  600.5508
 496  647.2806
 497  640.7393
 498  616.7199
 499  577.5739
 500  563.5059
 501  643.8041
 502  712.3918
 503  701.6296
 504  664.3262
 505  633.8845
 506  741.7609
 507  961.983
 508  899.1402
 509  904.8395
 510  1059.457
 511  1181.348
