# Input file       =  1182749466.114012_cleaned.dat
# Candidate        =  PSR_0332+5434
# Telescope        =  AR
# Epoch_topo       =  57933.230151782547
# Epoch_bary       =  N/A
# T_sample         =  0.002
# Data Folded      =  7340032
# Data Avg         =  0.100345832946394
# Data StdDev      =  3.30892217151675 
# Profile Bins     =  512
# Profile Avg      =  1438.35258366595 
# Profile StdDev   =  396.187298730103 
# Reduced chi-sqr  =  0.963
# Prob(Noise)      <  0.719   (~0.0 sigma)
# P_topo (ms)      =  714.490677237552  +/- 3.12e-05
# P'_topo (s/s)    =  -0                +/- 1.65e-11
# P''_topo (s/s^2) =  0                 +/- 7.28e-15
# P_bary (ms)      =  N/A
# P'_bary (s/s)    =  N/A
# P''_bary (s/s^2) =  N/A
# P_orb (s)        =  N/A
# asin(i)/c (s)    =  N/A
# eccentricity     =  N/A
# w (rad)          =  N/A
# T_peri           =  N/A
######################################################
   0  1060.656
   1  1026.029
   2  1254.558
   3  1455.45
   4  1329.671
   5  1210.325
   6  1473.702
   7  1181.901
   8  1125.214
   9  1153.483
  10  1318.911
  11  1290.586
  12  1104.347
  13  1045.243
  14  924.9711
  15  839.7111
  16  1096.333
  17  1308.865
  18  883.6465
  19  891.9234
  20  1142.009
  21  1384.243
  22  1490.626
  23  1086.984
  24  1077.77
  25  1314.359
  26  1533.367
  27  1501.842
  28  1534.045
  29  1443.813
  30  1266.884
  31  1505.571
  32  1259.71
  33  1269.347
  34  1436.867
  35  1710.296
  36  1599.381
  37  1526.551
  38  1315.635
  39  1501.458
  40  1704.054
  41  1249.141
  42  1152.6
  43  1267.212
  44  1326.737
  45  1454.846
  46  1048.955
  47  1213.604
  48  1308.836
  49  1397.897
  50  1177.241
  51  932.5665
  52  1356.79
  53  1493.162
  54  1336.119
  55  1551.647
  56  1248.015
  57  1263.481
  58  1425.889
  59  1578.816
  60  1508.289
  61  1372.425
  62  1522.166
  63  1789.644
  64  1752.217
  65  1173.777
  66  1227.501
  67  1299.313
  68  1563.649
  69  1591.524
  70  1714.606
  71  1623.277
  72  1544.203
  73  1885.366
  74  1580.652
  75  1312.013
  76  1312.803
  77  1555.727
  78  1511.99
  79  1685.673
  80  1500.007
  81  1025.1
  82  803.4692
  83  1210.102
  84  1248.386
  85  1178.749
  86  1322.517
  87  1698.036
  88  1880.959
  89  1439.27
  90  1021.715
  91  1167.728
  92  1595.536
  93  1500.345
  94  1353.079
  95  1529.776
  96  1024.976
  97  1273.621
  98  1578.545
  99  1427.823
 100  1611.799
 101  1720.111
 102  1805.126
 103  1450.127
 104  988.414
 105  938.8138
 106  1301.972
 107  1691.146
 108  1626.53
 109  1464.76
 110  1413.209
 111  1699.566
 112  1860.911
 113  1609.519
 114  1234.619
 115  1650.333
 116  1751.803
 117  1279.054
 118  1168.772
 119  1457.78
 120  1624.407
 121  1712.848
 122  1737.649
 123  1395.348
 124  1138.662
 125  1475.203
 126  1428.613
 127  1301.95
 128  1318.927
 129  1253.259
 130  1567.844
 131  1357.786
 132  1141.382
 133  1209.084
 134  940.9814
 135  1173.175
 136  1277.538
 137  1378.621
 138  1306.737
 139  1250.727
 140  1213.525
 141  1364.866
 142  1321.657
 143  1365.241
 144  1318.469
 145  1168.113
 146  1508.463
 147  1291.689
 148  1337.566
 149  1448.456
 150  1446.346
 151  1660.14
 152  983.296
 153  1102.965
 154  1285.589
 155  1646.038
 156  1361.171
 157  652.8198
 158  1092.649
 159  1487.591
 160  1577.813
 161  1285.482
 162  1229.414
 163  1677.57
 164  1568.957
 165  1494.726
 166  1513.874
 167  1304.134
 168  1438.875
 169  1694.213
 170  1622.021
 171  1172.351
 172  1256.562
 173  1537.465
 174  1582.354
 175  1449.626
 176  1354.38
 177  1200.151
 178  1384.262
 179  1407.647
 180  1360.002
 181  1231.05
 182  1675.344
 183  1729.5
 184  1210.537
 185  1090.039
 186  1286.717
 187  1293.047
 188  1548.832
 189  1419.755
 190  883.1748
 191  1147.377
 192  1694.605
 193  1840.075
 194  1624.507
 195  1277.86
 196  1299.76
 197  1583.355
 198  1701.975
 199  2256.92
 200  1805.943
 201  1820.012
 202  1992.315
 203  1919.644
 204  1709.446
 205  1792.339
 206  1988.216
 207  1984.539
 208  1798.095
 209  1523.972
 210  1489.676
 211  1709.683
 212  1595.247
 213  1639.804
 214  1565.343
 215  1357.907
 216  1771.764
 217  1872.196
 218  1891.441
 219  1668.525
 220  1551.019
 221  1654.544
 222  1629.036
 223  1618.277
 224  1271.661
 225  1333.349
 226  1588.748
 227  1763.964
 228  1462.169
 229  1415.101
 230  1202.791
 231  1484.204
 232  1671.496
 233  1508.021
 234  1283.406
 235  1602.638
 236  1853.949
 237  1732.968
 238  1460.241
 239  1361.534
 240  1742.576
 241  1990.481
 242  1804.31
 243  1399.265
 244  1399.549
 245  1615.922
 246  1790.209
 247  1607.782
 248  1623.726
 249  1893.826
 250  1966.054
 251  1776.104
 252  1240.94
 253  1333.643
 254  1711.355
 255  1560.819
 256  1730.749
 257  1233.035
 258  1400.78
 259  1410.827
 260  1493.779
 261  1556.615
 262  1594.811
 263  1675.649
 264  1769.943
 265  1632.4
 266  1773.229
 267  1564.37
 268  1620.663
 269  1753.294
 270  1786.75
 271  1671.866
 272  1532.063
 273  1781.382
 274  1996.792
 275  1732.93
 276  1606.445
 277  1555.984
 278  1590.329
 279  1329.589
 280  1508.094
 281  1500.847
 282  1415.589
 283  1607.757
 284  1742.116
 285  1764.508
 286  1236.863
 287  1324.449
 288  1725.383
 289  1603.845
 290  1451.935
 291  1347.988
 292  1490.92
 293  1484.058
 294  1875.696
 295  1269.845
 296  1089.26
 297  1224.512
 298  1295.842
 299  1284.956
 300  1056.529
 301  1234.834
 302  1664.305
 303  1526.745
 304  1563.921
 305  1508.431
 306  1380.396
 307  1565.698
 308  1558.889
 309  1529.799
 310  1487.606
 311  1142.388
 312  1227.607
 313  1420.988
 314  1552.692
 315  1480.599
 316  1182.761
 317  1439.53
 318  1463.151
 319  1164.661
 320  1434.413
 321  1587.365
 322  1639.872
 323  1615.582
 324  1679.597
 325  1394.623
 326  1409.982
 327  1617.951
 328  1464.349
 329  1370.106
 330  929.9813
 331  1064.69
 332  1519.197
 333  1684.539
 334  1394.463
 335  1495.579
 336  1520.865
 337  1358.832
 338  1403.345
 339  1555.424
 340  1767.453
 341  1662.758
 342  1693.386
 343  1703.5
 344  1286.722
 345  1164.207
 346  1206.916
 347  1520.486
 348  1038.416
 349  1117.453
 350  1212.264
 351  1619.177
 352  1405.626
 353  995.5504
 354  1079.896
 355  1142.999
 356  1140.297
 357  1106.275
 358  909.1285
 359  846.9681
 360  1145.136
 361  1335.19
 362  847.1893
 363  837.1761
 364  1026.378
 365  1425.572
 366  1430.094
 367  1245.421
 368  1303.576
 369  1588.62
 370  1563.884
 371  1712.985
 372  1770.184
 373  1295.687
 374  998.1281
 375  1581.02
 376  1655.767
 377  1469.154
 378  1497.47
 379  1590.193
 380  1592.297
 381  1295.722
 382  1200.865
 383  1459.569
 384  1572.541
 385  1575.011
 386  1600.059
 387  1540.962
 388  1863.879
 389  2507.886
 390  2778.385
 391  2593.265
 392  2753.938
 393  2917.142
 394  2278.585
 395  1945.708
 396  1712.742
 397  1259.782
 398  1455.371
 399  1710.889
 400  1674.353
 401  1330.573
 402  1351.908
 403  1635.681
 404  1710.802
 405  1199.509
 406  951.7715
 407  1420.657
 408  1971.533
 409  1636.242
 410  1225.222
 411  1083.001
 412  1362.315
 413  1641.86
 414  1708.229
 415  1527.341
 416  1708.013
 417  1405.823
 418  1635.654
 419  1624.092
 420  1288.972
 421  1134.987
 422  1240.813
 423  1703.61
 424  1716.324
 425  1305.493
 426  1410.113
 427  1450.542
 428  1456.914
 429  1417.311
 430  1246.946
 431  1407.655
 432  1520.171
 433  1414.374
 434  1020.122
 435  1225.431
 436  1168.435
 437  1504.994
 438  1543.04
 439  1092.807
 440  813.4236
 441  1462.164
 442  1542.432
 443  1471.797
 444  1579.384
 445  1650.291
 446  1399.766
 447  1354.813
 448  1519.765
 449  1575.807
 450  1451.239
 451  1557.268
 452  1654.036
 453  1586.519
 454  1230.487
 455  1256.414
 456  1451.23
 457  1570.01
 458  1213.748
 459  1131.675
 460  1438.399
 461  1372.986
 462  1074.705
 463  943.7341
 464  1206.647
 465  1275.582
 466  1586.429
 467  1316.799
 468  797.3061
 469  708.619
 470  1112.737
 471  1666.394
 472  1370.371
 473  1098.987
 474  1233.06
 475  1553.828
 476  1603.184
 477  1131.383
 478  859.1177
 479  1073.649
 480  1446.721
 481  1333.279
 482  1070.244
 483  1157.893
 484  1280.999
 485  1335.735
 486  1054.01
 487  953.1705
 488  1088.812
 489  1551.27
 490  1624.15
 491  1643.978
 492  1482.393
 493  1047
 494  1165.648
 495  1429.693
 496  1476.414
 497  1478.667
 498  1423.763
 499  1667.463
 500  1881.367
 501  1672.547
 502  1391.517
 503  1301.982
 504  1529.161
 505  1363.227
 506  1104.138
 507  1292.911
 508  1277.933
 509  1742.839
 510  1216.271
 511  947.295
