# Input file       =  1182936363.103926_cleaned.dat
# Candidate        =  PSR_0332+5434
# Telescope        =  AR
# Epoch_topo       =  57935.393311388034
# Epoch_bary       =  N/A
# T_sample         =  0.002
# Data Folded      =  7340032
# Data Avg         =  0.110700938574155
# Data StdDev      =  3.25134318637724 
# Profile Bins     =  1024
# Profile Avg      =  793.403239676412 
# Profile StdDev   =  275.271855938512 
# Reduced chi-sqr  =  1.037
# Prob(Noise)      <  0.199   (~0.8 sigma)
# P_topo (ms)      =  714.489241778468  +/- 0.000411
# P'_topo (s/s)    =  -0                +/- 2.17e-10
# P''_topo (s/s^2) =  0                 +/- 9.57e-14
# P_bary (ms)      =  N/A
# P'_bary (s/s)    =  N/A
# P''_bary (s/s^2) =  N/A
# P_orb (s)        =  N/A
# asin(i)/c (s)    =  N/A
# eccentricity     =  N/A
# w (rad)          =  N/A
# T_peri           =  N/A
######################################################
   0  833.0352
   1  756.0864
   2  693.7066
   3  758.1872
   4  629.9386
   5  666.0333
   6  694.002
   7  741.2047
   8  730.1472
   9  765.7078
  10  923.6075
  11  954.4574
  12  922.7968
  13  726.1672
  14  630.8977
  15  695.5815
  16  790.1376
  17  811.6899
  18  740.9313
  19  765.1534
  20  879.0338
  21  795.4924
  22  716.469
  23  667.6161
  24  749.454
  25  846.9694
  26  826.1968
  27  799.2876
  28  799.3114
  29  951.319
  30  1002.846
  31  934.3115
  32  831.6006
  33  865.4057
  34  892.0573
  35  854.7699
  36  889.668
  37  931.6688
  38  1013.816
  39  968.8823
  40  830.0656
  41  639.3313
  42  657.3316
  43  630.3372
  44  643.1588
  45  573.6049
  46  563.2281
  47  626.4474
  48  632.7624
  49  625.9879
  50  589.6353
  51  611.3178
  52  650.9993
  53  730.6143
  54  669.7026
  55  668.1216
  56  623.8184
  57  656.6818
  58  721.6006
  59  714.1524
  60  780.4365
  61  713.6553
  62  756.6586
  63  711.921
  64  764.5284
  65  816.8693
  66  858.1093
  67  818.8112
  68  754.7239
  69  771.7679
  70  803.5289
  71  819.0091
  72  708.9164
  73  692.3054
  74  781.1495
  75  815.1031
  76  736.8757
  77  688.4384
  78  763.9127
  79  798.5583
  80  768.6258
  81  784.7437
  82  761.9407
  83  707.0419
  84  749.3914
  85  749.1057
  86  826.7477
  87  719.5735
  88  659.7697
  89  567.6124
  90  584.7869
  91  579.827
  92  693.9396
  93  743.7075
  94  729.9225
  95  592.1892
  96  559.7723
  97  625.9786
  98  631.1157
  99  659.7348
 100  700.9416
 101  752.8623
 102  708.8154
 103  579.9051
 104  504.437
 105  594.427
 106  621.5978
 107  568.221
 108  483.2699
 109  500.2764
 110  480.3511
 111  494.3551
 112  509.8151
 113  561.567
 114  563.2077
 115  572.3517
 116  576.1846
 117  639.4214
 118  744.5222
 119  762.0291
 120  708.6487
 121  669.0882
 122  708.2614
 123  741.8787
 124  796.2488
 125  781.2307
 126  645.5231
 127  553.283
 128  431.947
 129  459.1982
 130  539.7649
 131  557.7465
 132  566.9186
 133  603.1909
 134  795.8028
 135  834.3282
 136  750.8463
 137  660.3092
 138  631.2314
 139  671.5657
 140  749.8271
 141  788.1816
 142  781.3301
 143  803.783
 144  846.4401
 145  875.8591
 146  839.0684
 147  912.7274
 148  912.7644
 149  871.4774
 150  779.302
 151  827.8784
 152  833.9706
 153  811.859
 154  683.0294
 155  641.8314
 156  677.0117
 157  670.5732
 158  638.1559
 159  619.9162
 160  599.4923
 161  705.4914
 162  742.7546
 163  764.2124
 164  762.2289
 165  790.2307
 166  763.039
 167  702.5884
 168  817.9055
 169  919.6237
 170  937.7752
 171  965.3441
 172  1034.023
 173  934.1698
 174  916.266
 175  857.3925
 176  900.5229
 177  758.0041
 178  744.1317
 179  731.831
 180  834.9121
 181  826.7247
 182  905.293
 183  929.5676
 184  974.1052
 185  922.3004
 186  887.2709
 187  828.1729
 188  855.0827
 189  869.0036
 190  955.386
 191  959.6331
 192  892.6217
 193  907.7998
 194  953.2367
 195  895.0936
 196  911.3805
 197  789.0782
 198  833.3006
 199  604.5204
 200  558.8386
 201  502.0109
 202  621.7687
 203  754.1907
 204  783.7013
 205  789.4272
 206  834.2084
 207  896.8069
 208  973.2405
 209  1002.344
 210  901.8774
 211  786.6616
 212  681.4112
 213  761.9214
 214  823.0426
 215  767.9923
 216  759.0562
 217  815.4149
 218  931.4111
 219  841.1206
 220  691.2657
 221  671.9952
 222  744.4158
 223  820.6245
 224  817.9257
 225  644.4843
 226  567.8422
 227  576.7091
 228  748.5012
 229  861.8173
 230  774.9026
 231  659.325
 232  639.7719
 233  771.7334
 234  774.2899
 235  745.44
 236  704.4724
 237  744.083
 238  737.2945
 239  826.1138
 240  907.7172
 241  1071.218
 242  936.7579
 243  849.5036
 244  708.7104
 245  700.7101
 246  701.7546
 247  795.6398
 248  905.3619
 249  814.8533
 250  728.2229
 251  728.0875
 252  792.7674
 253  840.0871
 254  875.5849
 255  984.5983
 256  943.4022
 257  921.4255
 258  916.937
 259  993.8607
 260  964.951
 261  946.0573
 262  917.7517
 263  929.1722
 264  855.922
 265  907.2529
 266  910.4828
 267  861.8581
 268  781.364
 269  799.5724
 270  861.5786
 271  851.9357
 272  812.3228
 273  882.5289
 274  954.2738
 275  945.0323
 276  929.8821
 277  891.9061
 278  889.8522
 279  976.6969
 280  979.2285
 281  1005.753
 282  884.1236
 283  890.287
 284  828.2047
 285  813.7696
 286  871.6313
 287  841.8021
 288  820.8405
 289  775.4014
 290  860.3167
 291  878.1708
 292  863.5784
 293  805.6125
 294  705.2738
 295  670.5264
 296  724.8149
 297  753.7123
 298  678.1747
 299  583.1021
 300  585.9896
 301  648.5272
 302  694.9012
 303  776.8314
 304  862.5884
 305  937.9327
 306  917.7399
 307  792.7551
 308  696.756
 309  753.6926
 310  811.1748
 311  783.628
 312  739.3231
 313  699.7822
 314  661.2246
 315  610.7148
 316  705.4357
 317  792.6961
 318  915.1504
 319  953.1516
 320  913.2772
 321  790.0193
 322  722.6713
 323  786.7442
 324  951.7343
 325  1066.864
 326  914.5084
 327  844.9094
 328  758.236
 329  757.8338
 330  743.9571
 331  739.9993
 332  835.2021
 333  792.4443
 334  965.929
 335  913.0386
 336  839.0543
 337  767.6425
 338  864.0358
 339  1047.722
 340  1077.533
 341  1084.768
 342  981.1962
 343  1003.528
 344  1086.561
 345  1102.95
 346  982.2267
 347  867.7563
 348  799.3124
 349  852.6699
 350  892.5826
 351  953.7026
 352  933.278
 353  863.3234
 354  894.9032
 355  855.8144
 356  921.5021
 357  888.924
 358  954.1967
 359  857.4603
 360  913.3041
 361  948.4023
 362  993.6729
 363  977.9396
 364  954.6072
 365  1054.149
 366  1015.417
 367  961.0259
 368  907.84
 369  1043.533
 370  1141.324
 371  1144.499
 372  1113.122
 373  1007.539
 374  951.728
 375  927.4774
 376  1023.186
 377  1113.641
 378  1128.438
 379  1065.846
 380  1061.262
 381  1149.342
 382  1121.73
 383  989.0363
 384  983.1965
 385  1000.609
 386  1014.643
 387  992.4271
 388  976.9313
 389  950.4221
 390  898.1984
 391  889.8183
 392  869.1182
 393  764.6811
 394  728.3566
 395  811.953
 396  893.4024
 397  787.86
 398  736.0253
 399  770.8918
 400  751.5008
 401  792.4124
 402  839.5635
 403  1041.858
 404  1080.019
 405  1017.305
 406  892.6814
 407  886.152
 408  903.4031
 409  911.7144
 410  850.3632
 411  814.6833
 412  862.3542
 413  826.7648
 414  756.2836
 415  728.9304
 416  714.3981
 417  738.1544
 418  732.4251
 419  774.5643
 420  793.8402
 421  733.3539
 422  815.4852
 423  871.3894
 424  958.0699
 425  937.2097
 426  979.4501
 427  1000.31
 428  947.1636
 429  842.2891
 430  751.8003
 431  743.035
 432  683.8398
 433  703.9059
 434  768.0337
 435  805.7642
 436  854.5969
 437  837.5422
 438  924.4745
 439  962.0766
 440  959.4378
 441  879.6074
 442  798.4237
 443  798.7963
 444  838.838
 445  903.5659
 446  870.6761
 447  782.2907
 448  722.9992
 449  769.9849
 450  825.3555
 451  899.7776
 452  998.0917
 453  1057.31
 454  1034.348
 455  988.1161
 456  985.4901
 457  996.3306
 458  1011.097
 459  1027.639
 460  980.8376
 461  862.3079
 462  751.1323
 463  729.8152
 464  740.7559
 465  744.5214
 466  794.2609
 467  851.4949
 468  914.8762
 469  745.72
 470  690.7083
 471  681.624
 472  774.2728
 473  668.2693
 474  614.6284
 475  576.723
 476  595.2164
 477  630.421
 478  701.6845
 479  802.5396
 480  816.8945
 481  856.0778
 482  792.7881
 483  786.6992
 484  721.126
 485  712.5361
 486  756.8625
 487  764.9405
 488  689.796
 489  590.33
 490  592.6005
 491  644.4698
 492  690.8842
 493  620.821
 494  624.8177
 495  523.471
 496  594.3752
 497  539.4899
 498  577.3823
 499  693.1767
 500  769.0614
 501  848.7425
 502  813.9886
 503  727.2067
 504  659.239
 505  619.454
 506  662.3683
 507  794.7436
 508  776.7233
 509  727.8539
 510  650.0048
 511  615.4168
 512  643.1976
 513  711.1334
 514  822.409
 515  825.9682
 516  765.4858
 517  646.2717
 518  552.3567
 519  584.5826
 520  651.7327
 521  694.3969
 522  771.6685
 523  775.4192
 524  874.6109
 525  874.7272
 526  914.7541
 527  790.3532
 528  724.2285
 529  739.5472
 530  771.9272
 531  837.5059
 532  922.9931
 533  1003.608
 534  1010.862
 535  958.2496
 536  1016.237
 537  1038.058
 538  956.8022
 539  924.0745
 540  1008.387
 541  1068.949
 542  1130.54
 543  1143.208
 544  1118.064
 545  1072.595
 546  982.9482
 547  870.1178
 548  809.3297
 549  805.4636
 550  756.8408
 551  670.0092
 552  775.5594
 553  841.0115
 554  844.3564
 555  790.8262
 556  745.6974
 557  715.4479
 558  678.8719
 559  692.98
 560  786.758
 561  831.6575
 562  827.8409
 563  905.0505
 564  1020.872
 565  1069.48
 566  1038.063
 567  1042.291
 568  926.0955
 569  745.4282
 570  568.5604
 571  633.5618
 572  711.4915
 573  759.9866
 574  827.123
 575  836.9946
 576  937.1437
 577  885.0306
 578  877.2902
 579  809.1611
 580  829.1736
 581  880.3557
 582  732.6581
 583  706.512
 584  709.4208
 585  710.79
 586  686.2451
 587  704.6499
 588  788.1296
 589  769.7863
 590  766.7431
 591  658.5483
 592  760.311
 593  750.0826
 594  775.149
 595  784.8342
 596  838.291
 597  905.1298
 598  785.98
 599  756.0576
 600  859.152
 601  991.7769
 602  1045.032
 603  947.6779
 604  864.141
 605  1009.983
 606  1030.453
 607  983.368
 608  827.3007
 609  884.5202
 610  967.0352
 611  961.3203
 612  962.255
 613  973.1995
 614  942.4619
 615  915.8639
 616  958.9063
 617  1098.71
 618  1114.745
 619  986.478
 620  857.045
 621  888.5497
 622  892.3635
 623  891.4434
 624  858.6205
 625  791.3898
 626  811.64
 627  801.4913
 628  738.3177
 629  606.3682
 630  690.5217
 631  806.9878
 632  865.2045
 633  899.5443
 634  928.0126
 635  951.787
 636  960.7673
 637  1010.238
 638  1013.096
 639  1058.207
 640  967.5447
 641  1001.8
 642  948.4171
 643  1018.613
 644  1008.168
 645  1038.866
 646  1107.53
 647  1163.569
 648  1291.682
 649  1420.262
 650  1524.333
 651  1539.533
 652  1548.68
 653  1506.18
 654  1514.074
 655  1531.39
 656  1562.955
 657  1506.455
 658  1416.137
 659  1110.658
 660  955.5088
 661  816.1436
 662  864.019
 663  715.9595
 664  732.0143
 665  753.1218
 666  828.1201
 667  869.3787
 668  837.7178
 669  784.5089
 670  710.0013
 671  710.5305
 672  649.0762
 673  630.1982
 674  635.2496
 675  754.3007
 676  844.0699
 677  901.0011
 678  882.8841
 679  868.6749
 680  893.7219
 681  826.4485
 682  861.732
 683  925.2814
 684  1014.627
 685  996.1284
 686  980.3666
 687  957.6131
 688  964.0016
 689  906.5398
 690  846.6977
 691  828.3066
 692  895.028
 693  908.5969
 694  891.8429
 695  899.0861
 696  847.4616
 697  876.4708
 698  915.7011
 699  988.7355
 700  1024.71
 701  955.5632
 702  917.2828
 703  880.1932
 704  881.2958
 705  899.8268
 706  909.4347
 707  936.9739
 708  878.6688
 709  772.3549
 710  752.9393
 711  714.4329
 712  716.1578
 713  710.4622
 714  679.6985
 715  702.6339
 716  667.1352
 717  773.2043
 718  892.1113
 719  916.1071
 720  865.6927
 721  701.2178
 722  711.6197
 723  708.8682
 724  757.9182
 725  803.6113
 726  831.9962
 727  808.8987
 728  836.7236
 729  844.8409
 730  693.4655
 731  601.6059
 732  613.7934
 733  760.4105
 734  754.0054
 735  822.8463
 736  763.0535
 737  844.3273
 738  789.7554
 739  779.5384
 740  796.7449
 741  812.4255
 742  739.1743
 743  646.1174
 744  632.9318
 745  622.0395
 746  526.241
 747  500.8348
 748  519.1505
 749  619.527
 750  697.4299
 751  736.3681
 752  725.9834
 753  651.4748
 754  683.0571
 755  756.0305
 756  815.2922
 757  634.0572
 758  582.6962
 759  602.7891
 760  710.9341
 761  604.2115
 762  592.5936
 763  667.2619
 764  738.0992
 765  783.4371
 766  757.6891
 767  778.2654
 768  774.9653
 769  946.2224
 770  980.8256
 771  877.0269
 772  723.4045
 773  641.9139
 774  582.2673
 775  555.8796
 776  686.3251
 777  787.0189
 778  834.7479
 779  851.8804
 780  860.7587
 781  846.2712
 782  898.309
 783  1047.977
 784  1017.442
 785  856.1698
 786  708.3139
 787  759.3123
 788  738.9913
 789  768.6506
 790  804.7712
 791  752.4717
 792  670.9992
 793  597.1093
 794  675.8099
 795  824.3726
 796  951.5609
 797  897.9151
 798  874.7466
 799  839.3644
 800  815.5562
 801  809.7996
 802  874.8058
 803  996.8837
 804  976.4344
 805  930.1108
 806  841.5634
 807  804.1776
 808  744.7407
 809  730.6024
 810  755.0364
 811  722.908
 812  698.0953
 813  665.6959
 814  709.7767
 815  703.779
 816  788.8481
 817  837.9531
 818  823.3586
 819  652.4733
 820  608.6923
 821  564.595
 822  675.032
 823  710.2136
 824  688.3292
 825  570.3385
 826  468.2538
 827  551.8377
 828  613.4406
 829  613.2291
 830  524.4282
 831  557.752
 832  642.8647
 833  641.6171
 834  617.8624
 835  640.0955
 836  787.264
 837  872.395
 838  827.2578
 839  659.873
 840  657.7311
 841  683.3964
 842  850.1274
 843  758.1345
 844  800.2689
 845  714.5211
 846  740.236
 847  727.6804
 848  775.3775
 849  840.2238
 850  843.962
 851  787.4714
 852  833.2077
 853  774.204
 854  698.2334
 855  601.312
 856  646.7991
 857  740.1664
 858  733.5749
 859  752.5405
 860  779.9744
 861  856.9131
 862  824.7885
 863  804.6636
 864  703.6652
 865  775.9765
 866  856.13
 867  923.6097
 868  866.5624
 869  804.0797
 870  823.8972
 871  839.887
 872  858.9704
 873  817.4004
 874  778.3545
 875  796.7838
 876  756.0328
 877  765.4063
 878  775.3218
 879  833.4285
 880  898.2441
 881  817.8627
 882  760.499
 883  698.4697
 884  700.7081
 885  690.6392
 886  780.4267
 887  901.5844
 888  962.7542
 889  985.7917
 890  909.032
 891  868.9116
 892  776.4833
 893  666.8236
 894  692.4555
 895  640.0693
 896  732.0429
 897  638.1602
 898  626.3479
 899  559.4915
 900  583.6681
 901  619.2827
 902  583.7384
 903  543.8315
 904  642.6814
 905  679.5582
 906  692.9821
 907  624.0332
 908  608.5898
 909  550.2855
 910  578.7611
 911  604.5355
 912  628.8386
 913  542.3611
 914  528.0779
 915  450.7552
 916  497.3268
 917  530.0591
 918  554.7299
 919  550.414
 920  529.2178
 921  521.0446
 922  469.6044
 923  512.8602
 924  588.9521
 925  648.1138
 926  656.7604
 927  656.5762
 928  783.3915
 929  779.3237
 930  693.9958
 931  546.0626
 932  548.5385
 933  564.1938
 934  570.5341
 935  705.1703
 936  870.0191
 937  954.1098
 938  945.1571
 939  788.4177
 940  653.8053
 941  577.5925
 942  544.7211
 943  621.9468
 944  731.5957
 945  781.6929
 946  732.4651
 947  641.7675
 948  664.5513
 949  688.1177
 950  752.4997
 951  768.78
 952  754.9303
 953  798.6074
 954  804.4775
 955  762.5026
 956  764.0892
 957  739.415
 958  741.5468
 959  706.7302
 960  671.541
 961  595.7366
 962  558.6546
 963  682.8723
 964  808.5275
 965  759.951
 966  675.0427
 967  539.3986
 968  552.1008
 969  583.2184
 970  695.6669
 971  667.3386
 972  656.9058
 973  709.2988
 974  707.7655
 975  696.2075
 976  722.0621
 977  765.4835
 978  798.4552
 979  683.5867
 980  603.8445
 981  509.2613
 982  543.1578
 983  602.0732
 984  712.7253
 985  761.9264
 986  694.5669
 987  684.8787
 988  759.7419
 989  772.675
 990  774.2318
 991  719.0594
 992  785.7886
 993  677.9185
 994  678.7961
 995  685.8082
 996  659.6664
 997  664.869
 998  725.6652
 999  759.6611
1000  669.6083
1001  621.0669
1002  602.4043
1003  597.7028
1004  549.4056
1005  554.2231
1006  542.174
1007  563.2512
1008  612.027
1009  632.8274
1010  627.7026
1011  527.2991
1012  497.4936
1013  464.7581
1014  516.2075
1015  610.694
1016  778.7646
1017  871.0941
1018  849.8321
1019  728.0823
1020  751.7952
1021  733.374
1022  878.9186
1023  900.2231
