# Input file       =  1182243875.12681_cleaned.dat
# Candidate        =  PSR_0332+5434
# Telescope        =  AR
# Epoch_topo       =  57927.378404245486
# Epoch_bary       =  N/A
# T_sample         =  0.002
# Data Folded      =  7340032
# Data Avg         =  0.695360355132182
# Data StdDev      =  13.340318844968  
# Profile Bins     =  512
# Profile Avg      =  9968.66834276478 
# Profile StdDev   =  1597.27688154221 
# Reduced chi-sqr  =  0.649
# Prob(Noise)      <  1   (~0.0 sigma)
# P_topo (ms)      =  714.495908566829  +/- 0.000934
# P'_topo (s/s)    =  -0                +/- 4.93e-10
# P''_topo (s/s^2) =  0                 +/- 2.17e-13
# P_bary (ms)      =  N/A
# P'_bary (s/s)    =  N/A
# P''_bary (s/s^2) =  N/A
# P_orb (s)        =  N/A
# asin(i)/c (s)    =  N/A
# eccentricity     =  N/A
# w (rad)          =  N/A
# T_peri           =  N/A
######################################################
   0  9613.534
   1  9210.79
   2  8797.142
   3  8380.029
   4  8988.517
   5  9437.976
   6  8976.02
   7  9148.78
   8  9587.277
   9  9398.614
  10  10254.12
  11  9374.16
  12  9410.727
  13  9341.857
  14  9574.433
  15  10249.79
  16  9610.122
  17  9501.868
  18  10218.48
  19  11079.6
  20  11380.66
  21  11144.09
  22  11039.96
  23  10553.18
  24  10466.99
  25  10336.3
  26  10185.17
  27  10194.74
  28  10397.91
  29  10638.04
  30  10705.88
  31  10494.46
  32  10217.22
  33  11211.59
  34  10858.75
  35  11312.64
  36  10625.09
  37  10409.62
  38  10635.08
  39  10383.32
  40  10215.23
  41  10106.96
  42  10269.88
  43  10758.45
  44  10092.86
  45  9471.355
  46  9257.111
  47  9648.476
  48  10168.4
  49  9738.308
  50  9394.317
  51  9367.873
  52  10205.32
  53  10545.71
  54  10564.62
  55  10412.88
  56  9628.281
  57  10029.18
  58  10837.13
  59  10368.86
  60  10120.22
  61  9945.781
  62  9799.919
  63  10214.29
  64  10521.12
  65  10769.13
  66  11078.75
  67  11956.38
  68  12131.06
  69  12062
  70  12374.54
  71  13106.76
  72  12748.67
  73  12160.94
  74  11556.06
  75  11318.53
  76  11989.95
  77  11695.59
  78  11433.78
  79  11252.82
  80  10959.43
  81  10429.69
  82  11202.17
  83  11426.49
  84  11663.73
  85  10819.39
  86  11233.25
  87  10706.99
  88  10454.46
  89  9816.479
  90  10583.85
  91  10746.04
  92  10440.27
  93  9773.469
  94  9561.46
  95  9946.424
  96  10841.52
  97  10270.71
  98  10078.79
  99  9820.625
 100  10299.1
 101  10236.7
 102  9399.708
 103  9111.062
 104  9299.746
 105  9842.814
 106  10020.92
 107  9839.188
 108  9546.304
 109  9381.304
 110  8682.259
 111  8899.694
 112  8931.864
 113  8602.784
 114  9547.12
 115  10196.29
 116  10245.24
 117  9264.095
 118  8764.894
 119  9188.4
 120  9879.791
 121  8798.896
 122  8608.027
 123  8464.266
 124  9161.224
 125  9372.913
 126  8641.102
 127  8276.346
 128  8942.913
 129  8498.305
 130  8399.03
 131  8773.649
 132  8301.012
 133  8108.278
 134  8643.936
 135  9328.816
 136  9136.617
 137  8733.787
 138  8586.358
 139  8588.982
 140  9338.434
 141  9447.825
 142  9583.226
 143  9489.051
 144  9971.959
 145  9400.545
 146  9365.678
 147  8656.241
 148  9179.92
 149  8992.571
 150  9022.184
 151  8732.002
 152  9218.953
 153  10125.85
 154  10621.39
 155  10544.84
 156  9998.416
 157  10119.92
 158  10561.99
 159  10504.53
 160  9738.876
 161  8868.539
 162  8638.817
 163  8877.427
 164  9521.644
 165  10259.41
 166  10126.25
 167  10194.36
 168  9840.789
 169  9319.366
 170  8857.685
 171  9757.278
 172  10143.1
 173  10009.47
 174  10084.28
 175  9794.231
 176  9830.392
 177  10378.2
 178  10388.95
 179  9889.746
 180  9973.248
 181  10409.9
 182  10314.97
 183  10186.34
 184  9394.011
 185  9606.19
 186  10425.4
 187  9768.029
 188  8873.54
 189  8598.711
 190  8096.507
 191  8151.869
 192  7860.619
 193  8808.326
 194  8368.858
 195  8806.092
 196  9720.057
 197  9248.142
 198  8784.304
 199  8218.082
 200  8833.631
 201  9962.048
 202  10051.45
 203  9409.452
 204  9046.581
 205  8901.846
 206  9317.519
 207  9296.771
 208  9016.286
 209  9104.509
 210  9255.118
 211  9513.555
 212  9547.899
 213  9472.697
 214  9287.291
 215  9447.896
 216  9606.246
 217  9842.239
 218  9733.528
 219  10279.24
 220  10855.98
 221  11261.36
 222  11217.09
 223  11247.49
 224  11700.99
 225  11516.02
 226  11165.65
 227  10960.4
 228  11077.5
 229  11618.58
 230  11768.78
 231  12814.41
 232  12709.23
 233  12505.11
 234  11813.96
 235  11473.52
 236  12177.57
 237  11869.41
 238  11279.07
 239  11436.82
 240  11828.99
 241  11938.34
 242  11360.45
 243  10807.67
 244  10420.92
 245  10488.83
 246  10546.92
 247  10571.29
 248  10929.7
 249  10615.28
 250  10667.34
 251  10556.45
 252  10391.6
 253  10949.23
 254  12016.6
 255  11714.85
 256  10974.78
 257  11121.4
 258  11667.79
 259  11530.14
 260  10902.18
 261  10575.85
 262  10450.18
 263  10388.62
 264  10675.16
 265  11103.94
 266  11074.28
 267  10672.15
 268  10159
 269  10469.89
 270  11195.67
 271  11979.89
 272  11941.2
 273  11784.56
 274  11125.23
 275  11466.62
 276  11790.54
 277  11792.43
 278  11592.29
 279  11338.13
 280  10566.04
 281  9701.578
 282  10120.76
 283  10451.51
 284  10535.5
 285  9839.382
 286  9370.837
 287  9879.117
 288  10200.45
 289  9591.504
 290  9506.829
 291  9134.807
 292  9254.992
 293  9259.515
 294  9858.808
 295  10865.84
 296  9924.386
 297  9244.308
 298  10104.55
 299  9801.207
 300  9124.811
 301  9444.592
 302  8459.542
 303  8507.909
 304  8799.592
 305  8865.925
 306  9362.135
 307  9609.137
 308  9648.797
 309  9451.161
 310  9631.328
 311  10257.35
 312  10560.25
 313  10386.32
 314  10499.32
 315  10649.88
 316  10894.66
 317  10174.87
 318  10312.31
 319  9947.236
 320  9825.608
 321  9694.133
 322  9285.915
 323  9868.095
 324  9900.96
 325  9930.488
 326  10319.3
 327  11456.37
 328  11129.98
 329  10675.96
 330  11025.57
 331  11024.16
 332  10282.12
 333  9471.463
 334  9371.121
 335  10242.59
 336  10638.73
 337  10084.55
 338  9803.284
 339  9936.605
 340  9890.577
 341  9963.137
 342  9793.554
 343  10009.7
 344  10752.11
 345  11028.76
 346  10602.65
 347  10749.93
 348  10731.94
 349  10936.97
 350  10881.5
 351  9917.919
 352  9968.801
 353  10153.58
 354  10736.14
 355  10811.21
 356  10280.17
 357  10030.16
 358  10090.85
 359  9981.748
 360  9598.89
 361  8760.118
 362  8842.245
 363  9277.064
 364  9551.285
 365  9531.333
 366  9343.039
 367  9058.232
 368  9106.635
 369  8740.773
 370  9235.936
 371  8965.009
 372  8967.355
 373  8667.547
 374  8811.839
 375  8382.225
 376  8348.982
 377  8704.364
 378  9150.592
 379  9637.699
 380  9038.731
 381  9269.141
 382  8693.39
 383  9070.27
 384  9168.652
 385  8821.177
 386  8763.314
 387  9474.381
 388  10012.61
 389  10569.8
 390  9897.269
 391  9302.987
 392  9628.421
 393  10075.68
 394  9790.437
 395  9352.229
 396  9584.564
 397  9485.801
 398  9357.376
 399  8751.803
 400  8284.484
 401  8653.477
 402  9358.509
 403  9389.753
 404  9574.696
 405  9156.862
 406  9471.052
 407  9803.188
 408  10411.31
 409  9727.524
 410  9021.797
 411  8877.998
 412  9771.239
 413  9780.336
 414  9485.946
 415  9365.104
 416  9625.977
 417  9129.479
 418  8965.888
 419  9339.112
 420  9521.617
 421  9510.196
 422  9708.051
 423  9436.381
 424  8391.397
 425  8461.072
 426  8904.231
 427  8936.925
 428  8681.425
 429  8982.359
 430  9352.735
 431  9501.67
 432  9018.249
 433  8783.416
 434  9035.606
 435  9396.04
 436  9551.323
 437  9514.033
 438  9261.768
 439  9197.55
 440  8815.086
 441  9274.847
 442  10314.27
 443  10280.97
 444  10298.46
 445  9831.201
 446  9869.725
 447  9313.964
 448  9294.8
 449  9956.599
 450  10327.73
 451  10332.52
 452  9595.771
 453  9357.157
 454  8999.314
 455  9742.863
 456  10337.06
 457  9535.929
 458  9310.666
 459  9346.461
 460  9510.315
 461  8686.219
 462  8454.531
 463  8918.437
 464  9458.765
 465  9610.884
 466  9954.611
 467  9696.064
 468  10350.05
 469  11110.41
 470  11109.09
 471  10943.45
 472  9738.25
 473  10146.66
 474  10524.79
 475  11001.64
 476  11430.86
 477  11279.58
 478  11406.95
 479  11066.2
 480  10854.42
 481  10843.47
 482  11017.63
 483  10662.39
 484  10221.83
 485  9969.48
 486  9671.344
 487  9879.639
 488  10128.21
 489  10394.73
 490  10449.88
 491  10581.74
 492  11352.06
 493  11036.83
 494  9977.137
 495  9440.469
 496  10049.6
 497  10199.34
 498  10835.3
 499  11030.04
 500  10254.34
 501  9518.245
 502  9058.153
 503  9471.211
 504  10131.62
 505  9292.951
 506  8688.474
 507  9051.831
 508  8861.143
 509  8822.233
 510  8461.497
 511  9051.751
