# Input file       =  1182592049.117098_cleaned.dat
# Candidate        =  PSR_0332+5434
# Telescope        =  AR
# Epoch_topo       =  57931.408195799748
# Epoch_bary       =  N/A
# T_sample         =  0.002
# Data Folded      =  7340032
# Data Avg         =  0.159843564308955
# Data StdDev      =  4.43793027813532 
# Profile Bins     =  1024
# Profile Avg      =  1145.84465633891 
# Profile StdDev   =  375.733115257273 
# Reduced chi-sqr  =  0.870
# Prob(Noise)      <  0.999   (~0.0 sigma)
# P_topo (ms)      =  714.49253025075   +/- 3.2e-05
# P'_topo (s/s)    =  -0                +/- 1.69e-11
# P''_topo (s/s^2) =  0                 +/- 7.44e-15
# P_bary (ms)      =  N/A
# P'_bary (s/s)    =  N/A
# P''_bary (s/s^2) =  N/A
# P_orb (s)        =  N/A
# asin(i)/c (s)    =  N/A
# eccentricity     =  N/A
# w (rad)          =  N/A
# T_peri           =  N/A
######################################################
   0  1071.43
   1  1223.865
   2  1242.118
   3  1328.308
   4  1206.003
   5  1035.86
   6  909.3749
   7  858.1564
   8  858.9611
   9  781.6783
  10  878.1058
  11  970.2449
  12  1075.78
  13  1083.599
  14  1158.848
  15  1087.073
  16  976.1588
  17  920.1378
  18  995.7505
  19  1145.949
  20  1167.916
  21  1171.809
  22  1065.987
  23  1000.753
  24  860.742
  25  917.2422
  26  1036.415
  27  1089.192
  28  1072.959
  29  1105.901
  30  1146.941
  31  1168.799
  32  1043.217
  33  1019.012
  34  897.7485
  35  853.4182
  36  815.1624
  37  905.5237
  38  908.705
  39  951.2222
  40  992.373
  41  1142.525
  42  1162.927
  43  1059.571
  44  809.4956
  45  737.0169
  46  876.5928
  47  898.6837
  48  980.7431
  49  864.8181
  50  924.5063
  51  1073.523
  52  1209.145
  53  1152.317
  54  939.9032
  55  904.4509
  56  1030.711
  57  1111.392
  58  1201.74
  59  1193.234
  60  1114.641
  61  991.5536
  62  894.5179
  63  818.8948
  64  835.6935
  65  929.9322
  66  1025.391
  67  1082.219
  68  1183.657
  69  1223.6
  70  1245.982
  71  1198.296
  72  1157.151
  73  954.7756
  74  937.8929
  75  867.9336
  76  898.0273
  77  752.2576
  78  870.7172
  79  1030.858
  80  1087.203
  81  852.9529
  82  726.8645
  83  719.6045
  84  753.9536
  85  922.2997
  86  1096.865
  87  1203.764
  88  1194.411
  89  1086.631
  90  986.6221
  91  901.061
  92  780.0108
  93  837.0983
  94  954.3127
  95  1129.394
  96  1171.508
  97  1137.946
  98  1154.573
  99  1099.854
 100  1044.204
 101  858.166
 102  795.1819
 103  889.4755
 104  958.9156
 105  872.818
 106  823.798
 107  934.729
 108  994.4254
 109  975.3926
 110  1010.481
 111  1017.948
 112  1037.518
 113  1004.449
 114  1075.64
 115  1086.667
 116  1142.673
 117  1135
 118  1188.354
 119  1310.17
 120  1301.982
 121  1145.412
 122  1011.713
 123  1091.995
 124  1195.36
 125  1200.919
 126  1143.197
 127  1244.477
 128  1233.567
 129  1189.81
 130  1176.406
 131  1131.148
 132  1175.998
 133  1092.283
 134  1217.463
 135  1220.24
 136  1270.868
 137  1269.707
 138  1249.892
 139  1289.002
 140  1189.032
 141  1157.663
 142  1189.232
 143  1215.105
 144  1348.3
 145  1390.396
 146  1417.832
 147  1389.941
 148  1519.059
 149  1530.137
 150  1452.301
 151  1457.703
 152  1472.546
 153  1531.945
 154  1545.436
 155  1508.867
 156  1461.26
 157  1283.545
 158  1251.331
 159  1225.613
 160  1208.954
 161  1211.446
 162  1272.478
 163  1440.743
 164  1580.676
 165  1557.901
 166  1405.647
 167  1153.306
 168  1070.339
 169  1173.016
 170  1310.211
 171  1267.077
 172  1194.179
 173  1209.285
 174  1233.325
 175  1148.431
 176  1135.978
 177  1158.31
 178  1078.872
 179  929.6926
 180  953.6146
 181  855.8998
 182  964.3029
 183  1101.477
 184  1277.617
 185  1215.583
 186  1151.73
 187  1078.647
 188  882.4642
 189  870.5842
 190  935.9105
 191  1018.684
 192  1077.534
 193  1098.734
 194  1211.651
 195  1248.474
 196  1249.921
 197  1245.623
 198  1155.622
 199  1181.478
 200  1148.526
 201  1142.748
 202  1285.195
 203  1442.991
 204  1489.953
 205  1371.014
 206  1207.934
 207  1161.454
 208  1059.642
 209  1002.247
 210  1043.395
 211  1145.606
 212  1315.724
 213  1481.3
 214  1422.705
 215  1387.445
 216  1085.377
 217  1086.917
 218  951.0914
 219  992.3702
 220  1070.732
 221  1248.266
 222  1453.373
 223  1444.174
 224  1251.622
 225  1161.171
 226  1079.192
 227  1051.028
 228  895.9088
 229  1059.063
 230  1275.511
 231  1475.844
 232  1289.133
 233  1272.66
 234  1324.552
 235  1511.022
 236  1336.788
 237  1221.868
 238  1125.63
 239  1254.865
 240  1223.835
 241  1320.105
 242  1383.847
 243  1456.031
 244  1385.547
 245  1277.353
 246  1223.265
 247  1291.674
 248  1337.855
 249  1380.395
 250  1408.022
 251  1421.928
 252  1387.746
 253  1281.64
 254  1184.451
 255  999.1368
 256  889.6693
 257  980.267
 258  1061.905
 259  1208.242
 260  1092.363
 261  1193.771
 262  1230.563
 263  1292.431
 264  1129.833
 265  1019.297
 266  1075.578
 267  1122.667
 268  1182.477
 269  1056.615
 270  1034.594
 271  1053.687
 272  1263.293
 273  1205.243
 274  1009.818
 275  880.7425
 276  867.4148
 277  871.5076
 278  861.2776
 279  1010.074
 280  1106.991
 281  1110.98
 282  1041.213
 283  1086.579
 284  989.8565
 285  872.9009
 286  787.6461
 287  970.2591
 288  1157.378
 289  1311.716
 290  1308.117
 291  1137.73
 292  949.2269
 293  761.0343
 294  585.2307
 295  512.6641
 296  682.7339
 297  1060.726
 298  1289.439
 299  1404.82
 300  1331.037
 301  1280.94
 302  1090.806
 303  1116.803
 304  1120.839
 305  1193.463
 306  1153.829
 307  1106.196
 308  1197.892
 309  1282.452
 310  1314.104
 311  1076.355
 312  943.0885
 313  908.9996
 314  878.9409
 315  874.3943
 316  977.7342
 317  1211.315
 318  1387.347
 319  1399.53
 320  1284.766
 321  1183.991
 322  948.9481
 323  1058.228
 324  1083.054
 325  1313.319
 326  1360.006
 327  1440.783
 328  1409.576
 329  1227.906
 330  1163.289
 331  1073.588
 332  1096.877
 333  1081.934
 334  1159.319
 335  1296.154
 336  1478.52
 337  1415.838
 338  1293.99
 339  1120.874
 340  1042.508
 341  1096.403
 342  1103.499
 343  1139.797
 344  1097.119
 345  1127.578
 346  1257.148
 347  1258.631
 348  1265.383
 349  1172.042
 350  1161.165
 351  1094.067
 352  1050.734
 353  993.0287
 354  1054.294
 355  1175.006
 356  1235.526
 357  1136.05
 358  1018.259
 359  828.9176
 360  796.6153
 361  898.4122
 362  961.671
 363  987.2418
 364  1041.733
 365  1264.969
 366  1194.048
 367  1144.219
 368  1115.294
 369  1089.984
 370  1066.008
 371  957.8811
 372  960.2856
 373  947.7557
 374  1005.246
 375  1089.452
 376  1198.137
 377  1148.72
 378  1018.685
 379  850.988
 380  807.1626
 381  836.4513
 382  958.9674
 383  1102.358
 384  1129.486
 385  1171.432
 386  1172.58
 387  1223.406
 388  1244.741
 389  1104.58
 390  1027.725
 391  960.0638
 392  1057.432
 393  1030.627
 394  1193.41
 395  1279.225
 396  1207.434
 397  972.3432
 398  818.2679
 399  806.887
 400  842.5485
 401  950.675
 402  979.1163
 403  1124.41
 404  1170.378
 405  1339.804
 406  1347.886
 407  1310.159
 408  1277.447
 409  1186.5
 410  1069.969
 411  1078.938
 412  1114.016
 413  1272.73
 414  1298.419
 415  1256.271
 416  1202.391
 417  1094.481
 418  1082.354
 419  1032.591
 420  1061.933
 421  1150.694
 422  1268.614
 423  1270.165
 424  1340.761
 425  1320.025
 426  1286.508
 427  1274.78
 428  1233.145
 429  1231.019
 430  1183.037
 431  1162.405
 432  1055.376
 433  1036.13
 434  1153.331
 435  1298.937
 436  1244.421
 437  1039.063
 438  1020.601
 439  1060.49
 440  1083.038
 441  1125.534
 442  1279.735
 443  1321.179
 444  1183.574
 445  1139.708
 446  1043.72
 447  1007.137
 448  1020.107
 449  1179.851
 450  1235.906
 451  1181.335
 452  1118.07
 453  1068.356
 454  1058.658
 455  1059.166
 456  1058.892
 457  1026.009
 458  1019.782
 459  997.2129
 460  1016.431
 461  1086.97
 462  1169.704
 463  1153.34
 464  1123.073
 465  1156.492
 466  1206.998
 467  1177.082
 468  1138.16
 469  1244.759
 470  1384.569
 471  1448.772
 472  1376.383
 473  1302.935
 474  1303.745
 475  1259.233
 476  1204.713
 477  1155.521
 478  1152.158
 479  1228.934
 480  1333.911
 481  1420.38
 482  1499.361
 483  1527.354
 484  1389.06
 485  1223.104
 486  1140.731
 487  1229.715
 488  1338.62
 489  1437.58
 490  1485.631
 491  1570.672
 492  1496.566
 493  1465.907
 494  1484.266
 495  1482.839
 496  1388.516
 497  1240.081
 498  1123.316
 499  1261.654
 500  1408.507
 501  1542.817
 502  1415.368
 503  1265.756
 504  1217.931
 505  1303.543
 506  1484.389
 507  1522.745
 508  1545.676
 509  1530.848
 510  1493.108
 511  1400.818
 512  1348.407
 513  1302.971
 514  1172.916
 515  1160.153
 516  1219.636
 517  1359.912
 518  1329.772
 519  1402.315
 520  1436.48
 521  1452.43
 522  1335.628
 523  1345.262
 524  1352.803
 525  1461.666
 526  1418.983
 527  1296.257
 528  1321.287
 529  1337.481
 530  1378.814
 531  1246.073
 532  1218.107
 533  1282.317
 534  1231.486
 535  1332.661
 536  1391.004
 537  1530.762
 538  1490.072
 539  1405.661
 540  1326.263
 541  1379.455
 542  1311.641
 543  1333.71
 544  1294.482
 545  1462.82
 546  1441.66
 547  1407.065
 548  1290.417
 549  1291.901
 550  1166.012
 551  1056.881
 552  1009.584
 553  1053.759
 554  1108.21
 555  1250.474
 556  1301.211
 557  1368.552
 558  1206.676
 559  1167.139
 560  1077.764
 561  1099.771
 562  1159.602
 563  1181.85
 564  1227.198
 565  1171.571
 566  1179.022
 567  1194.345
 568  1274.865
 569  1337.057
 570  1290.161
 571  1103.815
 572  963.2566
 573  972.4199
 574  1106.935
 575  1188.27
 576  1303.474
 577  1262.282
 578  1167.205
 579  1031.297
 580  1044.615
 581  1113.293
 582  1109.937
 583  1135.06
 584  1161.546
 585  1211.092
 586  1198.002
 587  1241.975
 588  1294.569
 589  1264.607
 590  1123.167
 591  1018.793
 592  1014.487
 593  1126.116
 594  1284.164
 595  1375.063
 596  1442.329
 597  1438.579
 598  1480.234
 599  1352.409
 600  1297.089
 601  1152.917
 602  1195.445
 603  1191.111
 604  1278.213
 605  1376.858
 606  1401.573
 607  1393.216
 608  1306.579
 609  1170.512
 610  1168.78
 611  1180.294
 612  1372.837
 613  1405.433
 614  1388.476
 615  1349.704
 616  1430.491
 617  1466.746
 618  1320.389
 619  1143.811
 620  1004.274
 621  1024.288
 622  1061.847
 623  1149.141
 624  1251.227
 625  1430.34
 626  1446.721
 627  1311.515
 628  1118.346
 629  914.1081
 630  929.4771
 631  1012.828
 632  1165.495
 633  1204.502
 634  1147.658
 635  1191.582
 636  1295.495
 637  1268.967
 638  1160.983
 639  1058.166
 640  1053.025
 641  1246.215
 642  1337.817
 643  1476.918
 644  1406.264
 645  1340.035
 646  1155.984
 647  1171.403
 648  1345.166
 649  1541.589
 650  1621.458
 651  1768.395
 652  1857.918
 653  1819.504
 654  1796.041
 655  1673.076
 656  1589.1
 657  1453.881
 658  1467.025
 659  1517.568
 660  1349.244
 661  1250.363
 662  1188.018
 663  1232.529
 664  1087.919
 665  987.7671
 666  999.9596
 667  1099.55
 668  1196.499
 669  1214.545
 670  1276.129
 671  1221.449
 672  1230.073
 673  1005.472
 674  908.8375
 675  718.2822
 676  776.1315
 677  894.6335
 678  972.6011
 679  930.2856
 680  941.4662
 681  1123.854
 682  1220.148
 683  1214.645
 684  1092.782
 685  935.1356
 686  795.9276
 687  911.3588
 688  1049.549
 689  1128.321
 690  1022.878
 691  1067.995
 692  1124.24
 693  1127.311
 694  1039.35
 695  948.9901
 696  928.6621
 697  945.5942
 698  983.0297
 699  917.7335
 700  951.368
 701  814.5424
 702  901.093
 703  872.9084
 704  928.5044
 705  910.6261
 706  676.9483
 707  605.8643
 708  612.0397
 709  824.0746
 710  937.2705
 711  748.4172
 712  581.5494
 713  533.0108
 714  572.7569
 715  646.354
 716  586.2093
 717  638.2333
 718  699.4462
 719  912.6568
 720  1055.949
 721  994.6185
 722  847.6827
 723  832.2618
 724  781.3903
 725  746.3097
 726  763.453
 727  825.3259
 728  814.1381
 729  801.6154
 730  822.42
 731  858.4415
 732  726.1832
 733  670.3123
 734  655.2477
 735  732.2399
 736  870.5949
 737  1017.492
 738  1205.983
 739  1248.725
 740  1230.687
 741  1138.342
 742  1072.746
 743  1082.537
 744  1010.902
 745  966.737
 746  936.2131
 747  1031.012
 748  1114.982
 749  1227.685
 750  1256.155
 751  1327.183
 752  1267.993
 753  1192.205
 754  1113.729
 755  1122.135
 756  1099.192
 757  1195.8
 758  1250.378
 759  1238.639
 760  1209.943
 761  1069.951
 762  1026.943
 763  909.8899
 764  932.1192
 765  962.243
 766  1098.351
 767  1161.021
 768  1195.065
 769  1225.197
 770  1263.952
 771  1170.081
 772  938.1145
 773  768.2567
 774  800.9953
 775  921.6036
 776  1060.977
 777  1090.592
 778  1113.616
 779  1132.888
 780  1109.261
 781  1044.247
 782  957.8037
 783  977.2018
 784  1008.455
 785  1096.568
 786  1151.96
 787  1215.197
 788  1141.442
 789  1082.176
 790  1113.522
 791  1165.831
 792  1129.003
 793  1042.055
 794  1120.86
 795  1290.948
 796  1270.28
 797  1215.496
 798  1186.251
 799  1291.962
 800  1247.981
 801  1104.888
 802  1073.66
 803  1056.693
 804  1103.797
 805  1180.051
 806  1233.767
 807  1203.405
 808  1105.11
 809  1055.348
 810  1082.197
 811  1096.429
 812  1215.672
 813  1290.576
 814  1321.2
 815  1294.697
 816  1183.323
 817  1210.328
 818  1216.066
 819  1301.533
 820  1342.861
 821  1325.577
 822  1365.753
 823  1360.772
 824  1424.688
 825  1490.98
 826  1518.695
 827  1333.547
 828  1233.274
 829  1140.996
 830  1091.505
 831  1070.012
 832  1192.419
 833  1440.93
 834  1614.001
 835  1577.294
 836  1492.263
 837  1375.846
 838  1373.155
 839  1370.081
 840  1335.45
 841  1336.252
 842  1380.329
 843  1400.67
 844  1444.95
 845  1387.577
 846  1434.705
 847  1461.085
 848  1446.68
 849  1334.834
 850  1347.241
 851  1433.273
 852  1496.564
 853  1454.278
 854  1373.022
 855  1348.623
 856  1449.284
 857  1435.724
 858  1289.623
 859  1085.306
 860  1126.904
 861  1306.429
 862  1491.511
 863  1395.565
 864  1350.557
 865  1268.846
 866  1248.477
 867  1165.304
 868  1168.584
 869  1112.608
 870  1077.248
 871  1102.625
 872  1268.285
 873  1313.568
 874  1222.31
 875  1119.564
 876  1054.53
 877  1103.357
 878  1196.245
 879  1322.889
 880  1335.7
 881  1319.191
 882  1355.101
 883  1344.358
 884  1226.9
 885  1089.936
 886  1050.764
 887  1010.027
 888  928.3131
 889  920.5263
 890  992.4525
 891  1130.714
 892  1153.882
 893  1199.517
 894  1211.746
 895  1095.631
 896  865.8171
 897  804.1556
 898  934.4016
 899  1009.557
 900  991.2548
 901  998.4835
 902  1016.857
 903  1032.088
 904  989.7539
 905  936.8078
 906  844.7064
 907  833.0664
 908  908.7013
 909  990.3287
 910  1081.46
 911  1112.393
 912  983.6179
 913  978.9163
 914  988.4672
 915  1043.215
 916  1028.896
 917  1019.055
 918  1053.334
 919  1132.475
 920  1207.547
 921  1322.424
 922  1375.216
 923  1408.691
 924  1341.126
 925  1200.196
 926  1093.809
 927  1055.792
 928  1097.108
 929  1105.578
 930  1264.609
 931  1207.732
 932  1212.335
 933  1064.757
 934  1188.356
 935  1282.462
 936  1251.036
 937  1158.523
 938  1151.231
 939  1280.351
 940  1311.529
 941  1295.105
 942  1219.669
 943  1215.248
 944  1116.398
 945  994.275
 946  886.2656
 947  851.5628
 948  990.1462
 949  1113.917
 950  1191.361
 951  1056.319
 952  930.9969
 953  755.0476
 954  769.2517
 955  849.2031
 956  985.8348
 957  976.1788
 958  974.3484
 959  1048.382
 960  1073.584
 961  1120.628
 962  927.1834
 963  971.9061
 964  954.9531
 965  1024.533
 966  885.1907
 967  817.4026
 968  930.0833
 969  1021.948
 970  1038.062
 971  990.3699
 972  829.699
 973  740.5678
 974  727.3722
 975  889.2319
 976  959.4622
 977  1044.299
 978  1128.744
 979  1117.544
 980  1063.899
 981  1025.012
 982  1060.745
 983  1105.383
 984  1080.656
 985  1151.74
 986  1181.722
 987  1237.313
 988  1209.033
 989  1247.698
 990  1200.705
 991  1133.403
 992  1020.917
 993  951.7861
 994  1062.281
 995  1096.14
 996  1126.039
 997  1079.511
 998  1108.604
 999  1204.419
1000  1114.205
1001  1191.929
1002  1221.835
1003  1334.537
1004  1291.512
1005  1499.507
1006  1338.192
1007  1298.331
1008  1181.732
1009  1301.361
1010  1250.84
1011  1150.816
1012  1109.154
1013  1075.261
1014  1049.078
1015  995.1069
1016  1040.095
1017  1107.94
1018  1099.004
1019  1029.193
1020  977.6253
1021  1085.206
1022  1080.098
1023  1101.011
