# Input file       =  1182505911.106921_cleaned.dat
# Candidate        =  PSR_0332+5434
# Telescope        =  AR
# Epoch_topo       =  57930.411228089361
# Epoch_bary       =  N/A
# T_sample         =  0.002
# Data Folded      =  7340032
# Data Avg         =  0.046950646079737
# Data StdDev      =  1.00010899225741 
# Profile Bins     =  512
# Profile Avg      =  673.033359815223 
# Profile StdDev   =  119.746086350687 
# Reduced chi-sqr  =  0.966
# Prob(Noise)      <  0.7   (~0.0 sigma)
# P_topo (ms)      =  714.493374936598  +/- 7.51e-05
# P'_topo (s/s)    =  -0                +/- 3.96e-11
# P''_topo (s/s^2) =  0                 +/- 1.75e-14
# P_bary (ms)      =  N/A
# P'_bary (s/s)    =  N/A
# P''_bary (s/s^2) =  N/A
# P_orb (s)        =  N/A
# asin(i)/c (s)    =  N/A
# eccentricity     =  N/A
# w (rad)          =  N/A
# T_peri           =  N/A
######################################################
   0  1167.881
   1  1180.673
   2  1062.743
   3  751.6053
   4  602.941
   5  604.1964
   6  604.8079
   7  668.859
   8  663.2411
   9  694.2402
  10  746.4344
  11  631.0267
  12  654.3535
  13  570.8513
  14  701.4854
  15  686.4243
  16  700.6267
  17  601.7355
  18  636.0831
  19  640.4527
  20  667.5328
  21  749.2242
  22  656.1139
  23  623.0262
  24  715.6616
  25  743.9068
  26  692.4937
  27  600.1973
  28  640.1447
  29  705.7119
  30  642.2526
  31  688.5723
  32  672.5369
  33  708.119
  34  709.9097
  35  716.9329
  36  732.5748
  37  819.6993
  38  827.093
  39  771.7561
  40  697.5081
  41  692.4979
  42  530.5246
  43  608.4283
  44  649.1835
  45  661.3046
  46  692.9117
  47  726.5389
  48  717.9122
  49  752.4666
  50  641.871
  51  447.6795
  52  520.8653
  53  658.2921
  54  670.773
  55  707.2588
  56  719.9785
  57  798.5085
  58  771.6458
  59  762.5769
  60  724.3105
  61  659.085
  62  564.5234
  63  676.6137
  64  606.7106
  65  604.9673
  66  664.8162
  67  794.8756
  68  671.8132
  69  664.4584
  70  685.1147
  71  802.5922
  72  736.4686
  73  830.8033
  74  833.476
  75  757.1418
  76  789.2869
  77  764.9563
  78  769.0736
  79  858.2703
  80  723.7053
  81  584.644
  82  756.3902
  83  813.4628
  84  744.7719
  85  613.694
  86  629.2062
  87  581.1476
  88  707.0986
  89  854.6521
  90  748.0214
  91  715.9034
  92  790.5381
  93  705.6492
  94  593.3468
  95  630.1332
  96  669.1587
  97  646.8195
  98  668.2367
  99  656.2622
 100  654.5308
 101  659.3487
 102  650.2766
 103  587.4606
 104  540.2798
 105  506.5071
 106  641.2762
 107  619.1659
 108  602.0744
 109  608.6405
 110  714.6375
 111  751.1198
 112  689.642
 113  502.9526
 114  487.89
 115  604.504
 116  731.2516
 117  729.7962
 118  569.7965
 119  672.3177
 120  706.0012
 121  659.4503
 122  748.0879
 123  756.3539
 124  794.7629
 125  725.915
 126  635.867
 127  641.0891
 128  551.3111
 129  603.7787
 130  710.4601
 131  686.3047
 132  671.2767
 133  550.4868
 134  529.8632
 135  530.7662
 136  504.0776
 137  517.6942
 138  586.8241
 139  608.69
 140  574.0777
 141  642.459
 142  723.0145
 143  654.8967
 144  597.2882
 145  681.0704
 146  532.7228
 147  517.3158
 148  610.7288
 149  700.8572
 150  661.7809
 151  645.9966
 152  536.2842
 153  599.9549
 154  550.3333
 155  751.1616
 156  660.2134
 157  645.9504
 158  703.8959
 159  709.671
 160  742.8819
 161  737.1575
 162  645.7172
 163  559.4833
 164  636.6107
 165  716.8599
 166  701.5442
 167  734.2129
 168  746.525
 169  737.8551
 170  698.1057
 171  801.1484
 172  833.4941
 173  764.1188
 174  708.1918
 175  705.2698
 176  589.2175
 177  561.1136
 178  744.064
 179  710.7816
 180  680.8425
 181  687.7805
 182  664.6439
 183  635.9138
 184  684.0372
 185  656.2604
 186  602.1218
 187  596.2302
 188  590.9996
 189  603.1443
 190  640.5745
 191  735.358
 192  644.5956
 193  647.3572
 194  601.3599
 195  581.6671
 196  605.6373
 197  624.6987
 198  617.4081
 199  610.3539
 200  646.8906
 201  671.0276
 202  655.9929
 203  678.2749
 204  670.0167
 205  605.8975
 206  672.6075
 207  796.4406
 208  735.875
 209  672.9913
 210  693.9385
 211  657.3295
 212  647.587
 213  699.4144
 214  740.7119
 215  662.8759
 216  706.9038
 217  562.1363
 218  587.6773
 219  665.973
 220  637.7241
 221  713.6563
 222  741.5728
 223  692.0195
 224  621.9725
 225  622.2228
 226  700.2501
 227  732.0889
 228  610.7666
 229  602.5344
 230  604.707
 231  622.6646
 232  706.4797
 233  694.7156
 234  616.5682
 235  754.2505
 236  766.6183
 237  703.0203
 238  708.442
 239  655.89
 240  714.614
 241  791.336
 242  755.93
 243  719.9772
 244  672.4806
 245  669.0884
 246  724.8627
 247  679.0292
 248  716.0206
 249  732.3151
 250  753.7411
 251  721.6557
 252  608.4706
 253  559.0222
 254  603.6075
 255  701.4255
 256  671.0819
 257  585.4054
 258  512.2032
 259  568.4083
 260  624.3522
 261  599.4207
 262  577.7319
 263  616.4361
 264  661.2073
 265  652.5127
 266  563.2192
 267  625.7802
 268  740.5606
 269  730.7943
 270  716.3804
 271  593.1688
 272  588.3824
 273  643.1949
 274  623.6851
 275  583.7104
 276  620.0878
 277  585.2175
 278  610.5784
 279  676.8879
 280  689.256
 281  700.1495
 282  750.0738
 283  825.2353
 284  738.6105
 285  672.2161
 286  687.1175
 287  671.0876
 288  528.9909
 289  719.5882
 290  666.3588
 291  551.6957
 292  733.0284
 293  870.0095
 294  783.803
 295  659.6349
 296  618.1612
 297  692.8524
 298  728.5356
 299  579.6115
 300  615.2928
 301  706.8773
 302  738.8696
 303  658.994
 304  675.6912
 305  694.7472
 306  692.144
 307  800.3511
 308  773.5246
 309  685.8199
 310  749.9349
 311  887.2163
 312  866.5504
 313  745.9772
 314  684.1313
 315  712.9766
 316  665.254
 317  746.8961
 318  901.4401
 319  674.8851
 320  615.5505
 321  744.8407
 322  763.0853
 323  693.2966
 324  678.2256
 325  766.4014
 326  732.0894
 327  616.7758
 328  691.96
 329  674.5276
 330  604.737
 331  672.0192
 332  697.6177
 333  678.0532
 334  751.7381
 335  818.5219
 336  786.5029
 337  709.9203
 338  609.4102
 339  678.3205
 340  704.7365
 341  644.6481
 342  548.7389
 343  688.2554
 344  702.6086
 345  646.6968
 346  661.4254
 347  692.1447
 348  645.9749
 349  556.9681
 350  645.7897
 351  598.6699
 352  517.6312
 353  563.3785
 354  651.3798
 355  651.7153
 356  745.4094
 357  684.6489
 358  652.3896
 359  707.0161
 360  735.8974
 361  734.6658
 362  670.5783
 363  687.7061
 364  650.7634
 365  705.012
 366  647.2816
 367  623.9576
 368  605.252
 369  652.115
 370  680.2953
 371  692.0355
 372  677.8004
 373  664.2101
 374  709.3655
 375  648.4624
 376  683.577
 377  579.5803
 378  644.2381
 379  721.4094
 380  765.333
 381  672.0103
 382  630.5045
 383  656.8013
 384  643.8391
 385  587.1951
 386  591.4968
 387  613.9752
 388  703.7169
 389  704.6198
 390  690.36
 391  635.132
 392  606.2979
 393  701.351
 394  749.501
 395  719.511
 396  582.5524
 397  604.4141
 398  698.7796
 399  646.884
 400  587.0247
 401  540.1171
 402  559.399
 403  646.502
 404  583.256
 405  683.9909
 406  681.6496
 407  600.7879
 408  671.8435
 409  615.8846
 410  608.336
 411  708.0387
 412  734.1097
 413  722.8458
 414  718.127
 415  686.3012
 416  638.6821
 417  642.0849
 418  688.2211
 419  588.7071
 420  582.8255
 421  649.3898
 422  692.3366
 423  635.5756
 424  658.9006
 425  568.769
 426  601.5364
 427  670.0786
 428  626.1556
 429  449.1943
 430  544.4138
 431  591.7818
 432  506.7518
 433  553.9138
 434  511.9388
 435  620.6111
 436  671.0668
 437  653.8201
 438  595.8834
 439  572.9744
 440  672.3948
 441  649.1999
 442  673.9766
 443  690.8354
 444  596.4254
 445  597.9404
 446  725.0426
 447  740.2318
 448  664.4829
 449  590.3417
 450  647.9732
 451  614.9662
 452  658.304
 453  604.4611
 454  653.0853
 455  620.096
 456  622.777
 457  620.2649
 458  575.6105
 459  524.4628
 460  519.7487
 461  601.1697
 462  601.3766
 463  596.1782
 464  652.8091
 465  689.9005
 466  652.0033
 467  606.4702
 468  659.6064
 469  645.5723
 470  679.1828
 471  652.8884
 472  656.2339
 473  622.3352
 474  659.9834
 475  628.6633
 476  637.932
 477  768.8946
 478  768.7758
 479  792.6258
 480  820.9052
 481  738.1615
 482  693.7555
 483  677.232
 484  658.7194
 485  636.759
 486  650.6908
 487  718.4121
 488  695.364
 489  701.7863
 490  712.9644
 491  634.0291
 492  774.0859
 493  699.6487
 494  671.7524
 495  734.1563
 496  654.9741
 497  711.1749
 498  723.4417
 499  720.3895
 500  765.7899
 501  768.0763
 502  599.0556
 503  730.4181
 504  888.1534
 505  771.2564
 506  646.5084
 507  683.047
 508  780.3132
 509  824.039
 510  1048.908
 511  1168.879
