# Input file       =  1182993473.111839_cleaned.dat
# Candidate        =  PSR_0332+5434
# Telescope        =  AR
# Epoch_topo       =  57936.054306849990
# Epoch_bary       =  N/A
# T_sample         =  0.002
# Data Folded      =  7405568
# Data Avg         =  0.128675344446468
# Data StdDev      =  4.55220936575635 
# Profile Bins     =  1024
# Profile Avg      =  930.569571141994 
# Profile StdDev   =  387.125194624691 
# Reduced chi-sqr  =  0.602
# Prob(Noise)      <  1   (~0.0 sigma)
# P_topo (ms)      =  714.48837403477   +/- 7.18e-05
# P'_topo (s/s)    =  -0                +/- 3.76e-11
# P''_topo (s/s^2) =  0                 +/- 1.64e-14
# P_bary (ms)      =  N/A
# P'_bary (s/s)    =  N/A
# P''_bary (s/s^2) =  N/A
# P_orb (s)        =  N/A
# asin(i)/c (s)    =  N/A
# eccentricity     =  N/A
# w (rad)          =  N/A
# T_peri           =  N/A
######################################################
   0  827.9269
   1  789.879
   2  759.0432
   3  732.0988
   4  674.2748
   5  788.2795
   6  887.1437
   7  951.1183
   8  858.9761
   9  789.5856
  10  648.8173
  11  635.9349
  12  708.2526
  13  913.1756
  14  921.3414
  15  921.4735
  16  958.4977
  17  1023.478
  18  950.3367
  19  825.1484
  20  788.915
  21  748.0118
  22  844.3483
  23  767.189
  24  745.1115
  25  611.9935
  26  583.3453
  27  630.8614
  28  813.3762
  29  959.0248
  30  1160.383
  31  1188.155
  32  1119.422
  33  875.7712
  34  869.4398
  35  893.9977
  36  928.8065
  37  753.3344
  38  744.4451
  39  779.4442
  40  922.6857
  41  982.0472
  42  1070.657
  43  1050.941
  44  1068.035
  45  1095.553
  46  1190.055
  47  1027.714
  48  1062.651
  49  1101.055
  50  1289.532
  51  1059.418
  52  958.073
  53  929.4805
  54  832.564
  55  759.1558
  56  849.2819
  57  1130.947
  58  1081.019
  59  1066.609
  60  1097.786
  61  1266.121
  62  1088.268
  63  1058.555
  64  987.9187
  65  1059.192
  66  1055.397
  67  1042.163
  68  1033.198
  69  903.1752
  70  796.3311
  71  784.7609
  72  837.0606
  73  978.4692
  74  838.5148
  75  834.4452
  76  710.1207
  77  892.8676
  78  894.7248
  79  1032.255
  80  1027.678
  81  1021.955
  82  1003.13
  83  942.7353
  84  898.2062
  85  694.8965
  86  651.4759
  87  607.2032
  88  759.4367
  89  732.2313
  90  864.3324
  91  849.4893
  92  1004.311
  93  906.7724
  94  1014.979
  95  994.4908
  96  963.2184
  97  786.943
  98  736.8135
  99  897.2634
 100  889.1988
 101  849.5446
 102  782.5829
 103  923.5206
 104  982.4635
 105  1043.458
 106  1159.146
 107  1100.89
 108  1003.816
 109  1057.818
 110  1093.56
 111  1003.896
 112  632.1578
 113  646.9932
 114  737.6553
 115  827.955
 116  693.2307
 117  645.7427
 118  765.1362
 119  848.3046
 120  877.6008
 121  931.4159
 122  926.0767
 123  840.6396
 124  889.4872
 125  1031.562
 126  1014.84
 127  834.3421
 128  764.5475
 129  732.0431
 130  762.3636
 131  933.0331
 132  1034.301
 133  1024.202
 134  955.4473
 135  966.9507
 136  941.9713
 137  797.0389
 138  812.9721
 139  877.2698
 140  1060.827
 141  970.7612
 142  936.9626
 143  949.7744
 144  919.9235
 145  828.7622
 146  822.2468
 147  962.2006
 148  983.4806
 149  1010.368
 150  1002.717
 151  993.2962
 152  960.4261
 153  987.6815
 154  984.2266
 155  979.9309
 156  838.7538
 157  815.999
 158  729.6489
 159  650.1147
 160  641.4371
 161  733.2828
 162  853.5417
 163  758.7837
 164  831.7224
 165  1061.042
 166  1042.176
 167  893.1884
 168  872.3071
 169  1068.228
 170  1046.579
 171  927.475
 172  902.4152
 173  952.7095
 174  878.2986
 175  802.018
 176  773.9676
 177  940.4593
 178  1041.952
 179  1156.285
 180  1048.917
 181  1002.024
 182  886.7554
 183  1016.007
 184  1118.969
 185  1110.943
 186  992.5503
 187  818.935
 188  731.8947
 189  596.689
 190  732.8766
 191  827.1719
 192  926.4531
 193  898.576
 194  988.1371
 195  968.145
 196  1126.199
 197  1076.991
 198  1099.8
 199  987.0488
 200  1096.28
 201  1178.32
 202  1121.156
 203  1066.377
 204  956.6335
 205  992.9067
 206  1123.197
 207  1262.523
 208  1217.859
 209  1042.19
 210  981.7562
 211  972.2747
 212  1005.289
 213  1079.87
 214  1122.26
 215  1185.809
 216  1199.312
 217  1202.686
 218  1058.8
 219  1005.991
 220  932.6293
 221  929.4125
 222  750.1008
 223  855.379
 224  884.1952
 225  1008.674
 226  880.3883
 227  1047.997
 228  1117.618
 229  1010.083
 230  941.2791
 231  940.2504
 232  1061.259
 233  1135.713
 234  1053.452
 235  984.2305
 236  1005.449
 237  1061.647
 238  1154.496
 239  1106.322
 240  1089.64
 241  966.5958
 242  806.0214
 243  811.766
 244  808.3655
 245  773.1526
 246  953.6084
 247  1010.44
 248  1221.027
 249  1127.673
 250  1057.398
 251  933.2812
 252  856.442
 253  838.4257
 254  894.5226
 255  953.6151
 256  784.4246
 257  689.1637
 258  713.1629
 259  860.9454
 260  870.0482
 261  865.9324
 262  975.4891
 263  1039.658
 264  1125.625
 265  1099.246
 266  1086.896
 267  891.8727
 268  890.577
 269  795.3165
 270  862.9316
 271  934.3964
 272  1002.061
 273  1030.26
 274  906.3752
 275  951.5845
 276  1087.948
 277  1162.592
 278  1040.851
 279  849.7356
 280  809.4871
 281  879.6475
 282  733.3521
 283  836.7388
 284  800.1856
 285  901.0186
 286  858.2502
 287  925.4949
 288  910.4846
 289  855.6001
 290  940.8198
 291  1100.806
 292  1219.318
 293  1157.019
 294  974.5323
 295  908.1628
 296  808.5204
 297  786.6521
 298  926.6634
 299  1170.664
 300  1195.174
 301  1011.93
 302  955.5778
 303  1050.503
 304  1138.264
 305  1044.037
 306  955.2994
 307  885.9158
 308  879.9509
 309  918.2184
 310  937.9129
 311  845.6516
 312  848.2645
 313  961.1637
 314  1081.74
 315  923.2716
 316  833.3762
 317  922.2357
 318  1028.242
 319  1051.531
 320  1044.289
 321  1043.915
 322  908.4402
 323  819.6316
 324  743.8726
 325  807.9719
 326  850.2198
 327  860.028
 328  838.1462
 329  958.4899
 330  1005.133
 331  1088.536
 332  978.6166
 333  1078.986
 334  1012.115
 335  1099.4
 336  1149.834
 337  1080.479
 338  929.4348
 339  918.6713
 340  1030.272
 341  1170.243
 342  1059.268
 343  1090.692
 344  1060.787
 345  1110.527
 346  1217.797
 347  1171.671
 348  1041.333
 349  847.8257
 350  879.2659
 351  974.8206
 352  993.351
 353  961.074
 354  1034.535
 355  1021.952
 356  859.8947
 357  725.1976
 358  915.8158
 359  1097.449
 360  1251.389
 361  1212.922
 362  1143.653
 363  940.5654
 364  917.9881
 365  927.7153
 366  1054.508
 367  990.6792
 368  1102.924
 369  985.0056
 370  913.4335
 371  796.5445
 372  851.2295
 373  919.8508
 374  928.9987
 375  845.4149
 376  895.4845
 377  938.1059
 378  944.4426
 379  1010.797
 380  989.0756
 381  1018.187
 382  865.7143
 383  911.3695
 384  903.3096
 385  921.6627
 386  779.5871
 387  709.2559
 388  610.4694
 389  642.0955
 390  703.9159
 391  886.3863
 392  974.9658
 393  861.769
 394  801.5186
 395  997.1603
 396  1039.967
 397  987.8063
 398  909.3612
 399  1014.692
 400  1001.514
 401  824.3849
 402  798.5745
 403  717.6562
 404  853.1154
 405  938.8854
 406  1028.191
 407  834.834
 408  637.6512
 409  690.6083
 410  942.1909
 411  1047.216
 412  1061.361
 413  1043.95
 414  998.6796
 415  810.7245
 416  626.1919
 417  429.9787
 418  517.5073
 419  585.315
 420  748.9702
 421  639.5223
 422  606.593
 423  756.3827
 424  1013.712
 425  1071.085
 426  965.1611
 427  887.9432
 428  947.082
 429  1066.306
 430  962.6096
 431  893.1483
 432  768.3954
 433  803.8951
 434  690.9872
 435  688.0442
 436  683.3594
 437  725.5483
 438  787.7172
 439  921.1322
 440  951.2175
 441  927.2829
 442  843.2357
 443  960.7501
 444  923.2438
 445  927.8872
 446  700.6381
 447  732.6522
 448  608.1742
 449  651.1108
 450  629.6777
 451  623.1681
 452  523.2708
 453  550.0347
 454  754.9469
 455  851.2179
 456  823.8629
 457  818.2474
 458  885.0102
 459  880.3157
 460  860.1299
 461  679.1232
 462  684.8281
 463  731.9503
 464  941.7502
 465  1058.719
 466  1029.068
 467  938.8412
 468  967.3193
 469  1093.966
 470  1201.948
 471  1081.279
 472  980.5003
 473  951.8373
 474  939.3958
 475  817.1962
 476  649.9484
 477  541.0467
 478  673.6981
 479  809.0484
 480  857.1769
 481  851.046
 482  875.9989
 483  1120.036
 484  1264.961
 485  1322.532
 486  1066.446
 487  1009.379
 488  950.3871
 489  1007.186
 490  832.8771
 491  819.6926
 492  784.5182
 493  863.4597
 494  782.0109
 495  899.9879
 496  859.7199
 497  934.1656
 498  938.4669
 499  1040.321
 500  1017.74
 501  1027.635
 502  1088.339
 503  1192.42
 504  1014.399
 505  876.6088
 506  835.2275
 507  939.4753
 508  956.4804
 509  835.2413
 510  903.4136
 511  1015.451
 512  1033.246
 513  926.1798
 514  858.272
 515  801.8739
 516  833.6071
 517  858.0499
 518  1007.696
 519  934.098
 520  784.5203
 521  778.7284
 522  995.7144
 523  1009.422
 524  1017.436
 525  1004.469
 526  1115.345
 527  1030.453
 528  1155.503
 529  1228.154
 530  1149.514
 531  927.8374
 532  805.1867
 533  908.8317
 534  878.1106
 535  888.5551
 536  702.1658
 537  753.1188
 538  772.082
 539  981.7241
 540  924.7283
 541  849.6893
 542  807.0297
 543  952.441
 544  1079.083
 545  1045.761
 546  1048.361
 547  1101.235
 548  1039.825
 549  904.4259
 550  812.0233
 551  780.7195
 552  759.8917
 553  776.3369
 554  743.1678
 555  550.3765
 556  440.7312
 557  667.3342
 558  842.6024
 559  954.9925
 560  878.7685
 561  1065.454
 562  1105.503
 563  1020.539
 564  874.9684
 565  817.1018
 566  912.6068
 567  902.9189
 568  820.3276
 569  741.0927
 570  792.5462
 571  989.2825
 572  987.5357
 573  918.0984
 574  827.3809
 575  867.8967
 576  980.1382
 577  944.9836
 578  964.7476
 579  890.3051
 580  966.6324
 581  908.0943
 582  828.8348
 583  735.7836
 584  642.6001
 585  689.9318
 586  847.2874
 587  972.2953
 588  923.3104
 589  833.4933
 590  852.076
 591  910.8117
 592  897.7387
 593  994.5145
 594  866.8797
 595  795.1279
 596  787.2981
 597  1016.478
 598  1028.508
 599  933.788
 600  795.8011
 601  754.2407
 602  645.7267
 603  654.402
 604  691.5818
 605  780.5933
 606  935.9344
 607  1158.913
 608  1204.822
 609  1051.199
 610  828.0078
 611  880.1331
 612  1079.378
 613  1113.77
 614  974.9283
 615  923.1855
 616  935.6469
 617  984.782
 618  959.397
 619  988.7991
 620  878.917
 621  901.3503
 622  996.349
 623  1137.704
 624  1004.427
 625  929.7629
 626  913.425
 627  860.575
 628  777.032
 629  794.7334
 630  1015.02
 631  1119.44
 632  1149.335
 633  1044.911
 634  1036.329
 635  1090.426
 636  1246.807
 637  1195.139
 638  1071.243
 639  1039.28
 640  1100.937
 641  1163.494
 642  1083.906
 643  1118.132
 644  1144.317
 645  1300.296
 646  1247.708
 647  1368.639
 648  1401.433
 649  1590.719
 650  1610.436
 651  1788.807
 652  1880.35
 653  1905.541
 654  1886.503
 655  1894.685
 656  1786.052
 657  1477.298
 658  1238.457
 659  1174.263
 660  980.8998
 661  898.3599
 662  937.8315
 663  1114.772
 664  1019.986
 665  995.4132
 666  1140.029
 667  1172.888
 668  1035.246
 669  906.0128
 670  943.9832
 671  1018.045
 672  1076.881
 673  1126.672
 674  1083.748
 675  903.9084
 676  932.0229
 677  1146.711
 678  1162.372
 679  1017.795
 680  1087.99
 681  1110.391
 682  1113.883
 683  884.3998
 684  1021.533
 685  1030.198
 686  1099.721
 687  930.3035
 688  963.5946
 689  934.9936
 690  1032.826
 691  990.1935
 692  950.283
 693  832.3904
 694  875.3235
 695  1094.407
 696  1224.124
 697  1215.849
 698  1058.372
 699  1118.457
 700  1058.801
 701  1025.068
 702  959.2979
 703  925.973
 704  926.9025
 705  859.5633
 706  847.5636
 707  801.6165
 708  771.4126
 709  960.541
 710  1125.873
 711  1189.363
 712  976.8815
 713  938.1819
 714  966.2529
 715  947.7023
 716  761.8635
 717  753.5566
 718  674.9357
 719  835.7243
 720  880.8771
 721  945.4034
 722  860.4166
 723  775.3217
 724  870.9622
 725  956.3755
 726  1009.755
 727  1042.949
 728  1036.927
 729  964.3736
 730  928.4423
 731  943.4828
 732  939.0347
 733  904.912
 734  988.3055
 735  997.2773
 736  984.6389
 737  834.2423
 738  917.7262
 739  968.9865
 740  1196.574
 741  1050.176
 742  1030.568
 743  931.9844
 744  1117.095
 745  1093.88
 746  1022.409
 747  738.5374
 748  827.4911
 749  858.5164
 750  881.0688
 751  763.5964
 752  756.1046
 753  836.1686
 754  888.53
 755  1044.785
 756  1036.598
 757  936.9668
 758  925.0936
 759  939.4907
 760  844.9808
 761  739.5031
 762  629.8098
 763  770.0983
 764  718.8666
 765  860.2008
 766  836.4347
 767  1056.377
 768  1053.858
 769  1070.346
 770  956.4211
 771  909.0095
 772  889.6202
 773  991.8749
 774  1010.908
 775  938.9714
 776  807.5223
 777  913.5209
 778  951.7195
 779  1073.688
 780  1006.329
 781  1015.408
 782  896.5077
 783  930.1375
 784  932.9392
 785  1028.347
 786  949.0414
 787  1019.921
 788  1120.416
 789  1276.17
 790  1161.619
 791  968.5665
 792  830.237
 793  750.8389
 794  889.4168
 795  1041.513
 796  1242.994
 797  1109.227
 798  969.3207
 799  894.3875
 800  947.7468
 801  1172.812
 802  1311.352
 803  1380.879
 804  1266.174
 805  1117.854
 806  989.5167
 807  995.8853
 808  1064.872
 809  1183.459
 810  1002.009
 811  948.9222
 812  863.6718
 813  948.4668
 814  874.1133
 815  919.7477
 816  973.8674
 817  1054.487
 818  1050.008
 819  979.6177
 820  786.9213
 821  825.4796
 822  860.3254
 823  956.4429
 824  819.4018
 825  785.7762
 826  789.9918
 827  916.1755
 828  909.1966
 829  1102.095
 830  1230.706
 831  1171.213
 832  1096.161
 833  1134.396
 834  1054.289
 835  767.2423
 836  559.5675
 837  568.0536
 838  734.3757
 839  728.92
 840  862.09
 841  922.5427
 842  1034.442
 843  1015.978
 844  1105.416
 845  1064.303
 846  908.5964
 847  883.1229
 848  946.7313
 849  888.2653
 850  716.7235
 851  621.7328
 852  636.843
 853  556.3172
 854  657.7308
 855  760.4579
 856  824.5689
 857  825.4354
 858  877.1527
 859  839.4035
 860  726.9622
 861  757.7484
 862  919.5934
 863  1056.016
 864  837.509
 865  799.7951
 866  849.9467
 867  920.5729
 868  831.014
 869  864.3676
 870  868.6518
 871  994.2554
 872  879.4456
 873  967.1938
 874  885.3088
 875  922.2319
 876  909.0922
 877  985.9848
 878  1047.452
 879  1038.853
 880  1023.324
 881  966.9951
 882  899.9901
 883  822.4767
 884  832.2132
 885  861.2754
 886  858.1451
 887  867.787
 888  929.4868
 889  918.3622
 890  829.7488
 891  845.2941
 892  946.4971
 893  979.2123
 894  810.3504
 895  723.1066
 896  767.613
 897  731.375
 898  776.9946
 899  761.5875
 900  885.6121
 901  781.6897
 902  872.3569
 903  936.445
 904  968.8397
 905  913.6961
 906  1011.391
 907  1101.482
 908  1021.863
 909  889.3293
 910  825.1277
 911  805.9293
 912  808.1815
 913  815.9748
 914  906.1466
 915  859.5576
 916  808.3312
 917  770.2422
 918  867.0373
 919  998.2252
 920  1007.754
 921  1036.962
 922  1138.841
 923  1145.178
 924  1030.272
 925  1024.262
 926  1000.25
 927  1049.461
 928  882.6616
 929  936.1212
 930  832.9471
 931  744.4706
 932  660.6165
 933  855.0454
 934  906.8781
 935  962.1573
 936  972.0149
 937  1115.72
 938  962.8077
 939  920.5958
 940  1088.554
 941  1156.786
 942  1059.98
 943  845.6545
 944  793.0991
 945  815.8624
 946  869.6486
 947  963.6812
 948  837.0052
 949  768.0441
 950  757.4219
 951  896.5076
 952  886.8109
 953  782.4074
 954  777.6934
 955  776.5418
 956  895.0453
 957  976.2382
 958  851.7217
 959  637.9967
 960  706.9458
 961  924.6928
 962  1028.331
 963  1017.995
 964  1093.353
 965  1019.887
 966  986.811
 967  971.6351
 968  1060.798
 969  860.9156
 970  741.1315
 971  787.5864
 972  877.2792
 973  816.4966
 974  776.7224
 975  794.1851
 976  816.8697
 977  792.658
 978  840.8147
 979  830.5648
 980  718.4739
 981  779.6839
 982  898.7418
 983  866.5154
 984  763.2838
 985  810.2214
 986  905.1599
 987  847.3905
 988  719.5652
 989  730.6433
 990  795.0825
 991  823.5772
 992  943.6404
 993  833.9696
 994  797.4796
 995  810.0703
 996  1010.053
 997  1061.448
 998  821.6714
 999  809.2202
1000  825.5319
1001  744.0018
1002  543.2191
1003  498.624
1004  681.7166
1005  807.5522
1006  929.1162
1007  956.6082
1008  836.452
1009  709.3259
1010  697.3928
1011  766.9274
1012  924.3308
1013  923.7246
1014  954.198
1015  933.5712
1016  860.7055
1017  635.3923
1018  445.0522
1019  524.8724
1020  625.3656
1021  844.8974
1022  957.1279
1023  978.254
