# Input file       =  1182304229.116146_cleaned.dat
# Candidate        =  PSR_0332+5434
# Telescope        =  AR
# Epoch_topo       =  57928.076945788729
# Epoch_bary       =  N/A
# T_sample         =  0.002
# Data Folded      =  7405568
# Data Avg         =  0.115334230215512
# Data StdDev      =  4.0773005051232  
# Profile Bins     =  1024
# Profile Avg      =  834.226616244295 
# Profile StdDev   =  346.73839113437  
# Reduced chi-sqr  =  0.766
# Prob(Noise)      <  1   (~0.0 sigma)
# P_topo (ms)      =  714.495039942779  +/- 4.91e-05
# P'_topo (s/s)    =  -0                +/- 2.57e-11
# P''_topo (s/s^2) =  0                 +/- 1.12e-14
# P_bary (ms)      =  N/A
# P'_bary (s/s)    =  N/A
# P''_bary (s/s^2) =  N/A
# P_orb (s)        =  N/A
# asin(i)/c (s)    =  N/A
# eccentricity     =  N/A
# w (rad)          =  N/A
# T_peri           =  N/A
######################################################
   0  695.8849
   1  779.847
   2  957.6536
   3  970.6188
   4  1017.607
   5  844.2866
   6  775.1042
   7  796.5944
   8  1022.262
   9  1044.896
  10  984.3024
  11  777.4078
  12  776.2033
  13  909.5698
  14  1031.795
  15  989.5749
  16  898.3544
  17  896.843
  18  1181.224
  19  1124.626
  20  892.9065
  21  727.5599
  22  799.9004
  23  867.6495
  24  803.9678
  25  805.2889
  26  954.8364
  27  1030.198
  28  1124.191
  29  1057.007
  30  1060.058
  31  974.9352
  32  910.1485
  33  830.7884
  34  877.9395
  35  777.3727
  36  956.2426
  37  929.4416
  38  970.4907
  39  705.1835
  40  684.9081
  41  785.2512
  42  847.4454
  43  819.965
  44  851.832
  45  946.3939
  46  988.9757
  47  1002.363
  48  1089.278
  49  1017.647
  50  970.0438
  51  979.0849
  52  814.1926
  53  705.2247
  54  719.354
  55  822.4167
  56  630.552
  57  497.1418
  58  618.2355
  59  844.1898
  60  767.3669
  61  707.6914
  62  673.3437
  63  760.8225
  64  766.619
  65  785.4929
  66  852.7202
  67  905.7323
  68  1013.759
  69  1045.211
  70  902.7878
  71  741.5184
  72  661.2209
  73  713.1332
  74  635.8084
  75  605.0145
  76  715.421
  77  890.071
  78  905.8608
  79  776.1086
  80  812.6033
  81  948.8566
  82  1065.776
  83  1095.788
  84  1114.964
  85  1112.737
  86  1159.343
  87  1158.092
  88  1107.635
  89  969.1782
  90  851.1827
  91  942.4071
  92  1046.945
  93  865.7926
  94  674.4428
  95  651.1412
  96  790.498
  97  827.2101
  98  724.4924
  99  777.5541
 100  790.1154
 101  935.7406
 102  952.0678
 103  833.0026
 104  766.7495
 105  728.8634
 106  939.6991
 107  813.8417
 108  758.007
 109  704.3583
 110  855.2299
 111  835.4938
 112  671.884
 113  531.4959
 114  530.126
 115  621.4183
 116  691.9541
 117  656.8438
 118  715.8741
 119  811.9514
 120  905.1943
 121  871.5311
 122  634.5141
 123  683.2776
 124  792.886
 125  1083.04
 126  1066.642
 127  975.2192
 128  942.0082
 129  846.8125
 130  715.7783
 131  781.2788
 132  760.6324
 133  820.4582
 134  637.699
 135  722.3074
 136  609.4174
 137  643.0231
 138  656.7397
 139  697.1873
 140  740.5438
 141  867.175
 142  963.676
 143  883.433
 144  697.8499
 145  627.2979
 146  699.1799
 147  677.8375
 148  644.521
 149  795.1267
 150  948.4036
 151  1007.827
 152  1006.141
 153  915.2692
 154  720.5605
 155  699.3817
 156  866.7889
 157  1050.312
 158  950.1462
 159  854.3499
 160  1012.353
 161  1023.409
 162  1020.42
 163  835.3006
 164  786.0883
 165  776.3638
 166  865.804
 167  910.0549
 168  800.4868
 169  805.707
 170  980.5682
 171  1075.254
 172  825.6779
 173  690.4268
 174  792.2786
 175  951.5595
 176  854.7863
 177  705.8147
 178  723.3885
 179  730.9803
 180  793.3655
 181  753.4354
 182  790.3175
 183  761.9125
 184  891.7824
 185  940.215
 186  827.4985
 187  730.1605
 188  843.2421
 189  1035.85
 190  1045.245
 191  1056.41
 192  1054.26
 193  1066.242
 194  981.6707
 195  846.3825
 196  809.7711
 197  773.7257
 198  824.6661
 199  792.7286
 200  725.4979
 201  702.9954
 202  637.2963
 203  697.0767
 204  576.5287
 205  535.5281
 206  556.964
 207  711.4551
 208  788.7591
 209  811.9072
 210  717.6789
 211  756.3752
 212  725.0939
 213  771.1423
 214  751.5585
 215  766.0117
 216  814.2988
 217  762.2517
 218  757.1736
 219  713.1191
 220  805.9603
 221  814.0484
 222  682.744
 223  595.0369
 224  552.303
 225  735.4672
 226  720.316
 227  809.6458
 228  733.2432
 229  793.5131
 230  767.3535
 231  766.4307
 232  769.3895
 233  667.822
 234  630.1642
 235  627.7264
 236  639.5471
 237  647.1195
 238  707.8735
 239  851.2623
 240  849.0449
 241  894.7286
 242  772.9975
 243  795.3837
 244  813.8521
 245  783.5464
 246  559.6768
 247  561.2238
 248  624.9405
 249  818.1411
 250  836.7598
 251  758.4216
 252  693.2916
 253  715.0817
 254  764.1758
 255  785.8401
 256  736.4572
 257  784.5245
 258  864.4048
 259  854.5986
 260  653.7863
 261  513.8217
 262  594.5977
 263  714.6283
 264  794.5499
 265  724.2323
 266  754.2299
 267  772.986
 268  829.7803
 269  656.9742
 270  531.2983
 271  482.7623
 272  632.4843
 273  851.741
 274  943.8932
 275  994.2901
 276  825.653
 277  813.1618
 278  672.5286
 279  637.6929
 280  639.4277
 281  767.5839
 282  699.0106
 283  705.7199
 284  681.6656
 285  788.2609
 286  794.6941
 287  748.0935
 288  758.2042
 289  834.0241
 290  1069.449
 291  1158.579
 292  991.9733
 293  703.8499
 294  531.3046
 295  550.2203
 296  553.38
 297  690.6549
 298  694.5437
 299  742.553
 300  733.6802
 301  698.3708
 302  744.8734
 303  691.566
 304  900.9072
 305  894.7336
 306  931.2771
 307  876.8094
 308  804.8658
 309  843.8711
 310  849.7775
 311  826.8091
 312  786.0262
 313  647.0113
 314  657.2052
 315  672.5938
 316  828.0236
 317  886.9044
 318  941.3352
 319  956.8423
 320  956.0418
 321  974.1702
 322  1123.7
 323  1154.249
 324  1158.542
 325  938.5682
 326  798.613
 327  735.8447
 328  655.0065
 329  619.4232
 330  595.9565
 331  796.4602
 332  956.1271
 333  991.9109
 334  797.0325
 335  651.6191
 336  632.1558
 337  671.0613
 338  726.6409
 339  771.7269
 340  741.1697
 341  770.6517
 342  766.9265
 343  776.8323
 344  618.3383
 345  598.3298
 346  573.7751
 347  704.5196
 348  678.2206
 349  785.1063
 350  873.4624
 351  995.8691
 352  861.2825
 353  761.4955
 354  742.7068
 355  956.3952
 356  1071.471
 357  968.717
 358  885.555
 359  796.3588
 360  812.8683
 361  805.4628
 362  800.2263
 363  837.9962
 364  934.5247
 365  919.5016
 366  792.5394
 367  723.9141
 368  852.4505
 369  787.3192
 370  631.4284
 371  537.2974
 372  641.3352
 373  697.3099
 374  771.6049
 375  763.5505
 376  838.9742
 377  769.8416
 378  803.6591
 379  750.0656
 380  642.7545
 381  534.535
 382  661.4943
 383  948.7191
 384  935.8629
 385  815.4791
 386  816.024
 387  956.0689
 388  975.7469
 389  929.1673
 390  917.8362
 391  904.1079
 392  844.5044
 393  794.8635
 394  731.0971
 395  585.518
 396  511.5574
 397  647.4882
 398  723.1854
 399  844.3545
 400  786.3367
 401  822.4514
 402  806.0649
 403  819.2955
 404  701.5497
 405  656.3508
 406  640.0818
 407  779.1931
 408  718.9643
 409  659.8887
 410  664.3532
 411  782.5434
 412  711.1627
 413  611.0901
 414  697.5853
 415  876.9776
 416  937.4548
 417  754.7097
 418  687.202
 419  669.8049
 420  670.7475
 421  685.3641
 422  730.4705
 423  767.582
 424  770.0187
 425  748.1382
 426  717.0302
 427  787.1545
 428  722.3516
 429  898.4778
 430  852.176
 431  876.8205
 432  939.0634
 433  1048.455
 434  903.3188
 435  599.4116
 436  573.8367
 437  662.1315
 438  922.7963
 439  998.7501
 440  1073.876
 441  870.9706
 442  821.3956
 443  824.937
 444  855.0219
 445  815.6698
 446  887.2958
 447  1015.962
 448  1043.615
 449  878.152
 450  748.6545
 451  710.3628
 452  706.3597
 453  845.2283
 454  930.9199
 455  1070.001
 456  1119.289
 457  1094.566
 458  929.7582
 459  846.8154
 460  790.1605
 461  829.0341
 462  805.4387
 463  834.8612
 464  807.0908
 465  771.8768
 466  718.644
 467  688.1614
 468  659.3952
 469  738.3464
 470  956.3936
 471  1137.356
 472  1057.78
 473  948.1919
 474  1030.247
 475  984.9601
 476  809.2382
 477  499.3877
 478  433.0001
 479  570.9295
 480  733.8748
 481  962.9561
 482  903.5412
 483  801.2911
 484  722.2974
 485  767.2893
 486  942.0809
 487  942.1317
 488  1014.611
 489  1089.346
 490  1081.361
 491  918.7812
 492  785.9694
 493  675.6105
 494  720.8196
 495  632.0269
 496  680.3439
 497  677.8954
 498  797.1809
 499  788.2886
 500  836.6573
 501  891.3048
 502  835.6359
 503  858.5075
 504  746.4677
 505  846.6705
 506  893.4039
 507  911.7888
 508  844.9808
 509  757.8609
 510  723.9116
 511  661.6088
 512  709.2608
 513  808.8457
 514  770.5044
 515  714.3665
 516  763.857
 517  791.3477
 518  750.8256
 519  677.5512
 520  906.9174
 521  1024.981
 522  1096.014
 523  1054.316
 524  1071.534
 525  1016.309
 526  905.118
 527  686.9333
 528  607.0339
 529  574.6928
 530  731.9294
 531  695.9834
 532  649.4875
 533  547.2076
 534  858.5223
 535  1024.397
 536  994.7208
 537  841.7565
 538  946.2911
 539  1060.117
 540  956.0467
 541  747.2259
 542  740.0583
 543  718.9207
 544  733.5304
 545  757.8002
 546  778.3012
 547  675.6639
 548  655.7049
 549  828.595
 550  874.4373
 551  692.7223
 552  540.0636
 553  761.2027
 554  942.7866
 555  999.8635
 556  975.2983
 557  986.1838
 558  757.2402
 559  701.9322
 560  583.7416
 561  625.4041
 562  573.1974
 563  748.2415
 564  913.0848
 565  918.7209
 566  884.5496
 567  839.7083
 568  783.5686
 569  706.8723
 570  643.2639
 571  697.9677
 572  703.796
 573  678.4597
 574  666.004
 575  672.3312
 576  612.3188
 577  585.3951
 578  674.722
 579  802.3167
 580  920.7184
 581  1048.369
 582  1126.201
 583  1063.454
 584  894.4786
 585  844.6154
 586  863.137
 587  786.3322
 588  873.1728
 589  882.2335
 590  925.1614
 591  883.0544
 592  857.2149
 593  807.7642
 594  784.346
 595  858.2277
 596  990.5093
 597  957.0423
 598  1025.774
 599  1017.812
 600  1044.724
 601  855.4249
 602  735.0245
 603  809.5683
 604  924.4889
 605  960.0262
 606  849.7845
 607  810.1891
 608  737.0591
 609  639.7502
 610  563.0189
 611  610.6093
 612  748.2985
 613  851.6487
 614  994.2417
 615  1096.161
 616  1007.765
 617  1003.546
 618  1046.59
 619  1128.318
 620  1156.722
 621  1143.928
 622  1241.738
 623  1158.676
 624  960.2449
 625  783.8259
 626  651.0437
 627  609.8856
 628  705.593
 629  860.2256
 630  844.9457
 631  733.8093
 632  774.8228
 633  869.5067
 634  1019.605
 635  999.7457
 636  1021.015
 637  1028.96
 638  1068.065
 639  1032.346
 640  1073.181
 641  980.3162
 642  846.7347
 643  753.7362
 644  919.9369
 645  1077.614
 646  1202.749
 647  1227.013
 648  1308.977
 649  1435.277
 650  1542.432
 651  1558.909
 652  1546.237
 653  1626.087
 654  1766.554
 655  1889.331
 656  1759.808
 657  1582.095
 658  1447.207
 659  1437.18
 660  1217.582
 661  1076.084
 662  912.501
 663  1027.051
 664  953.2742
 665  893.8807
 666  672.6006
 667  677.8807
 668  791.9921
 669  860.1351
 670  924.1661
 671  875.4313
 672  1074.254
 673  1204.644
 674  1174.84
 675  1068.16
 676  939.714
 677  964.7557
 678  938.5239
 679  861.8839
 680  856.1169
 681  866.5853
 682  896.1116
 683  882.657
 684  780.9601
 685  807.3884
 686  916.8916
 687  844.9268
 688  929.5569
 689  902.1456
 690  1010.458
 691  854.6826
 692  864.5269
 693  874.0603
 694  1018.095
 695  912.7994
 696  805.3353
 697  696.8809
 698  604.6918
 699  570.2524
 700  594.2256
 701  676.9431
 702  693.4014
 703  722.1534
 704  780.8481
 705  868.22
 706  912.5378
 707  911.912
 708  729.0983
 709  715.7997
 710  759.1592
 711  909.4502
 712  945.5142
 713  952.0882
 714  842.7144
 715  805.3152
 716  709.7892
 717  735.4015
 718  762.2368
 719  970.3566
 720  1003.269
 721  1039.98
 722  889.5475
 723  852.0904
 724  755.3655
 725  668.9225
 726  755.9367
 727  789.015
 728  962.8624
 729  989.6273
 730  1098.935
 731  1004.749
 732  781.1835
 733  732.9519
 734  596.1924
 735  632.33
 736  679.9016
 737  881.4865
 738  1008.861
 739  797.6902
 740  688.9529
 741  664.1111
 742  901.5608
 743  956.7154
 744  996.8701
 745  1077.596
 746  1101.277
 747  990.9786
 748  827.4993
 749  850.4573
 750  1053.938
 751  1140.655
 752  1078.963
 753  1014.086
 754  896.7745
 755  839.4426
 756  825.6592
 757  798.4324
 758  777.3595
 759  683.9467
 760  721.8695
 761  696.7549
 762  838.4123
 763  989.1246
 764  1045.333
 765  949.0784
 766  857.3016
 767  933.8954
 768  1000.612
 769  1154.408
 770  1270.033
 771  1289.686
 772  1109.9
 773  872.5543
 774  845.8693
 775  788.4254
 776  692.3032
 777  642.2146
 778  713.5571
 779  854.2436
 780  788.9819
 781  673.1215
 782  838.3247
 783  1006.475
 784  1198.947
 785  1084.589
 786  970.3909
 787  894.8555
 788  887.0854
 789  1009.225
 790  915.399
 791  654.8687
 792  502.7141
 793  539.5525
 794  744.8569
 795  796.5975
 796  845.6389
 797  795.9265
 798  793.0372
 799  738.6143
 800  807.4439
 801  810.222
 802  937.2219
 803  1040.4
 804  1109.141
 805  1014.104
 806  901.0549
 807  831.0311
 808  752.568
 809  572.3072
 810  534.658
 811  579.7608
 812  595.3821
 813  656.5052
 814  668.6973
 815  777.6926
 816  820.8641
 817  944.9808
 818  955.5744
 819  1025.172
 820  953.7708
 821  1018.313
 822  762.2093
 823  716.0687
 824  657.4759
 825  847.9635
 826  683.4673
 827  559.3145
 828  508.0176
 829  517.5396
 830  598.0304
 831  619.1326
 832  601.9839
 833  667.0397
 834  777.2979
 835  909.8427
 836  898.6943
 837  904.3751
 838  973.257
 839  1040.3
 840  960.0887
 841  807.5193
 842  674.1019
 843  684.7535
 844  760.2707
 845  718.0542
 846  652.9991
 847  518.9685
 848  624.6163
 849  747.8228
 850  778.7487
 851  813.5185
 852  867.0636
 853  941.858
 854  834.5219
 855  765.5882
 856  771.951
 857  822.1301
 858  748.7794
 859  810.1169
 860  749.955
 861  731.0026
 862  626.72
 863  746.73
 864  735.0628
 865  646.973
 866  521.9759
 867  597.0193
 868  715.9058
 869  727.631
 870  757.9897
 871  928.781
 872  1033.167
 873  1045.253
 874  979.034
 875  946.6407
 876  1035.428
 877  1062.64
 878  1031.678
 879  857.0522
 880  676.4564
 881  637.1587
 882  578.2333
 883  691.0408
 884  758.2296
 885  909.1172
 886  981.2584
 887  894.3081
 888  751.6629
 889  803.0745
 890  935.5307
 891  1067.308
 892  967.5245
 893  898.6455
 894  726.8996
 895  772.4968
 896  803.7104
 897  818.6642
 898  743.3068
 899  710.2175
 900  767.2166
 901  737.4625
 902  924.0927
 903  949.5872
 904  1082.878
 905  1019.862
 906  1025.988
 907  846.3353
 908  791.7802
 909  744.3194
 910  721.3741
 911  776.0107
 912  868.7048
 913  1043.109
 914  1016.65
 915  881.771
 916  825.8564
 917  1013.291
 918  1074.565
 919  1087.228
 920  885.4093
 921  728.4906
 922  636.4871
 923  695.9633
 924  581.0978
 925  468.9129
 926  508.0556
 927  831.369
 928  847.9493
 929  808.4987
 930  707.2612
 931  834.0436
 932  817.4932
 933  881.418
 934  934.1987
 935  988.8231
 936  932.504
 937  874.5468
 938  786.8665
 939  674.1672
 940  601.1288
 941  737.0809
 942  896.6697
 943  874.1614
 944  945.2695
 945  867.7222
 946  856.7852
 947  764.0899
 948  907.8975
 949  1013.292
 950  968.4066
 951  891.9822
 952  911.3688
 953  890.73
 954  871.062
 955  837.1572
 956  986.7432
 957  893.8259
 958  888.636
 959  835.8898
 960  868.0525
 961  807.5059
 962  672.3688
 963  739.5923
 964  780.6659
 965  823.4771
 966  863.5482
 967  1004.176
 968  1064.036
 969  995.6926
 970  816.7439
 971  741.6071
 972  713.3744
 973  769.7269
 974  812.2002
 975  737.5147
 976  697.6309
 977  733.3402
 978  889.2029
 979  859.5382
 980  843.1672
 981  800.9368
 982  969.6935
 983  981.4041
 984  860.6272
 985  903.686
 986  919.8821
 987  966.2327
 988  864.2528
 989  789.5839
 990  678.3666
 991  573.3491
 992  660.2935
 993  679.8684
 994  732.6922
 995  706.2534
 996  776.033
 997  831.8215
 998  761.1154
 999  761.5966
1000  916.4759
1001  941.3732
1002  940.725
1003  951.4061
1004  1117.067
1005  1063.99
1006  1029.112
1007  794.4316
1008  700.5988
1009  700.413
1010  829.0991
1011  806.8516
1012  708.8695
1013  573.8786
1014  594.4957
1015  598.5884
1016  645.8804
1017  676.1567
1018  818.9328
1019  929.7306
1020  980.4857
1021  899.6606
1022  786.1847
1023  653.6581
