# Input file       =  1182404838.106733_cleaned.dat
# Candidate        =  PSR_0332+5434
# Telescope        =  AR
# Epoch_topo       =  57929.241401698302
# Epoch_bary       =  N/A
# T_sample         =  0.002
# Data Folded      =  7340032
# Data Avg         =  0.0469556174057087
# Data StdDev      =  1.00014711564416 
# Profile Bins     =  512
# Profile Avg      =  673.146907833765 
# Profile StdDev   =  119.75065097954  
# Reduced chi-sqr  =  1.066
# Prob(Noise)      <  0.145   (~1.1 sigma)
# P_topo (ms)      =  714.494043783497  +/- 0.000233
# P'_topo (s/s)    =  -0                +/- 1.23e-10
# P''_topo (s/s^2) =  0                 +/- 5.43e-14
# P_bary (ms)      =  N/A
# P'_bary (s/s)    =  N/A
# P''_bary (s/s^2) =  N/A
# P_orb (s)        =  N/A
# asin(i)/c (s)    =  N/A
# eccentricity     =  N/A
# w (rad)          =  N/A
# T_peri           =  N/A
######################################################
   0  1094.879
   1  1059.24
   2  1064.338
   3  854.5476
   4  602.0123
   5  660.5237
   6  678.6882
   7  633.03
   8  611.2166
   9  652.791
  10  795.3002
  11  782.3262
  12  731.7687
  13  737.0027
  14  835.2521
  15  759.4507
  16  733.3484
  17  688.8897
  18  675.8724
  19  630.2758
  20  622.2811
  21  638.4437
  22  726.6455
  23  716.0519
  24  612.1166
  25  601.0426
  26  606.638
  27  632.7117
  28  556.5959
  29  631.6867
  30  662.9543
  31  507.7292
  32  516.1271
  33  593.8081
  34  575.4583
  35  660.792
  36  633.4365
  37  622.6804
  38  581.3166
  39  625.7453
  40  685.2064
  41  618.1876
  42  623.3427
  43  553.4774
  44  571.967
  45  678.0162
  46  655.5917
  47  683.9954
  48  749.3793
  49  696.9432
  50  676.3475
  51  682.9388
  52  768.9099
  53  814.9942
  54  804.9479
  55  643.0188
  56  672.362
  57  619.0046
  58  664.5228
  59  592.2313
  60  595.0801
  61  641.3417
  62  671.0462
  63  718.7651
  64  692.6134
  65  533.7939
  66  653.4759
  67  617.8916
  68  608.753
  69  638.2392
  70  680.1935
  71  674.5983
  72  742.2144
  73  721.3267
  74  607.7108
  75  587.4049
  76  642.8887
  77  589.0984
  78  645.5912
  79  607.2816
  80  630.839
  81  562.4367
  82  590.4583
  83  619.3066
  84  616.9335
  85  635.4794
  86  643.5901
  87  585.4461
  88  569.6769
  89  600.6483
  90  578.1464
  91  573.449
  92  583.5433
  93  708.8167
  94  769.3217
  95  719.3078
  96  707.2967
  97  736.4036
  98  627.4401
  99  731.1561
 100  751.5322
 101  724.8587
 102  713.8011
 103  674.3986
 104  705.2723
 105  744.0664
 106  666.9849
 107  600.2363
 108  522.1235
 109  572.8806
 110  577.0035
 111  527.9159
 112  564.2263
 113  631.2213
 114  635.1233
 115  691.8351
 116  644.6362
 117  747.9056
 118  739.1688
 119  716.8065
 120  687.3955
 121  713.0555
 122  708.7515
 123  668.7513
 124  597.0013
 125  612.8952
 126  594.6952
 127  593.7151
 128  597.6216
 129  624.2549
 130  717.7399
 131  669.7202
 132  638.5422
 133  719.8248
 134  796.9348
 135  777.7162
 136  743.989
 137  685.3581
 138  744.7273
 139  768.9842
 140  722.3452
 141  677.1036
 142  608.3837
 143  652.1935
 144  725.7974
 145  713.3724
 146  781.4121
 147  655.5721
 148  630.1073
 149  672.8701
 150  659.345
 151  702.4977
 152  728.5303
 153  772.6094
 154  796.1123
 155  720.2527
 156  732.9708
 157  725.808
 158  618.3037
 159  659.0266
 160  606.0353
 161  561.1539
 162  607.0279
 163  555.8683
 164  578.3994
 165  621.5527
 166  719.7279
 167  615.6239
 168  660.5281
 169  612.7674
 170  633.307
 171  710.462
 172  653.834
 173  703.6044
 174  651.3501
 175  682.963
 176  705.1556
 177  679.9457
 178  656.4733
 179  817.5948
 180  769.8264
 181  779.4475
 182  836.3747
 183  825.756
 184  684.5869
 185  720.8892
 186  838.5493
 187  835.7275
 188  835.8033
 189  808.3789
 190  791.077
 191  782.4432
 192  786.9518
 193  660.3892
 194  664.7029
 195  637.5338
 196  641.1169
 197  761.1614
 198  642.2354
 199  608.3766
 200  599.0579
 201  659.7777
 202  692.1606
 203  710.3071
 204  673.5511
 205  673.4505
 206  669.3046
 207  790.8528
 208  692.1307
 209  650.1854
 210  643.1164
 211  680.7463
 212  694.7737
 213  666.4005
 214  689.0343
 215  597.3076
 216  535.9983
 217  595.4794
 218  646.7729
 219  764.3776
 220  687.9186
 221  783.5712
 222  845.719
 223  730.0186
 224  685.268
 225  694.9576
 226  766.6008
 227  681.7515
 228  696.639
 229  730.4522
 230  704.975
 231  709.3455
 232  675.0826
 233  775.1156
 234  872.6575
 235  778.8436
 236  607.0532
 237  697.8602
 238  611.6185
 239  614.2124
 240  567.4482
 241  602.2281
 242  656.7549
 243  697.3552
 244  712.8651
 245  608.0248
 246  498.8751
 247  520.7354
 248  561.809
 249  609.9357
 250  657.4916
 251  723.2518
 252  663.0996
 253  614.5767
 254  656.3965
 255  718.3677
 256  677.174
 257  663.296
 258  709.4927
 259  703.2643
 260  648.9856
 261  617.3995
 262  602.4865
 263  632.0292
 264  750.3539
 265  732.9509
 266  776.8521
 267  752.1403
 268  691.0737
 269  779.7908
 270  758.8044
 271  755.786
 272  780.7464
 273  761.4535
 274  732.0412
 275  705.9032
 276  725.9272
 277  729.9315
 278  784.2434
 279  820.6173
 280  738.6108
 281  687.9081
 282  731.5375
 283  606.3923
 284  577.5827
 285  657.8423
 286  716.5029
 287  739.4084
 288  595.4899
 289  671.8434
 290  664.0135
 291  624.6854
 292  622.0547
 293  590.9637
 294  535.3063
 295  534.5698
 296  626.0502
 297  681.0367
 298  728.7515
 299  524.3028
 300  508.6843
 301  567.7132
 302  687.1888
 303  684.7625
 304  722.5688
 305  806.829
 306  722.735
 307  635.4714
 308  604.6712
 309  689.5063
 310  684.4336
 311  635.5944
 312  650.8168
 313  671.2037
 314  640.2834
 315  615.6297
 316  635.0448
 317  572.8535
 318  639.8148
 319  580.6169
 320  603.038
 321  689.5311
 322  639.5466
 323  703.5682
 324  656.6193
 325  564.1431
 326  554.6777
 327  708.271
 328  649.568
 329  626.3881
 330  617.6089
 331  617.2983
 332  638.1323
 333  683.8614
 334  635.2791
 335  650.5483
 336  627.2277
 337  643.2997
 338  715.8203
 339  678.1892
 340  661.3083
 341  739.7838
 342  765.8068
 343  837.2614
 344  765.541
 345  732.559
 346  781.227
 347  775.6081
 348  780.723
 349  735.384
 350  763.0519
 351  804.8972
 352  759.6655
 353  739.265
 354  843.4446
 355  847.2757
 356  851.2217
 357  820.4826
 358  669.8306
 359  715.5977
 360  713.8358
 361  696.479
 362  694.937
 363  725.4243
 364  745.8978
 365  802.2551
 366  747.3392
 367  780.915
 368  714.6899
 369  610.0111
 370  600.4708
 371  691.3798
 372  728.6713
 373  716.9631
 374  636.5695
 375  653.4762
 376  626.7308
 377  631.2928
 378  635.7651
 379  703.7735
 380  628.8683
 381  581.6456
 382  605.0726
 383  673.2418
 384  666.8002
 385  761.6405
 386  791.0074
 387  744.3347
 388  715.6073
 389  661.3954
 390  706.2597
 391  682.1431
 392  804.6472
 393  976.6916
 394  991.936
 395  890.0288
 396  851.3593
 397  800.046
 398  754.8624
 399  665.4401
 400  751.0613
 401  794.1943
 402  723.1147
 403  612.0758
 404  687.0738
 405  636.3715
 406  671.7087
 407  694.8247
 408  577.1998
 409  574.7747
 410  647.8876
 411  773.4586
 412  742.1356
 413  674.3578
 414  605.6288
 415  577.0057
 416  536.2586
 417  591.7712
 418  630.2152
 419  650.3155
 420  671.0841
 421  689.6884
 422  744.4138
 423  704.8479
 424  697.4855
 425  652.5962
 426  638.9567
 427  687.1259
 428  683.8558
 429  681.9113
 430  617.9877
 431  643.1143
 432  706.3898
 433  765.5627
 434  706.3123
 435  700.7313
 436  652.0328
 437  662.1614
 438  758.7823
 439  639.8792
 440  641.3471
 441  638.6085
 442  673.0966
 443  651.6331
 444  622.9633
 445  713.1577
 446  715.1489
 447  695.9338
 448  676.665
 449  547.8166
 450  520.6481
 451  485.2826
 452  428.477
 453  567.3828
 454  600.1183
 455  561.0069
 456  464.413
 457  549.9335
 458  546.1376
 459  564.0201
 460  513.6074
 461  526.4484
 462  508.2487
 463  545.6978
 464  598.955
 465  615.7272
 466  482.3315
 467  554.9233
 468  571.6627
 469  538.3966
 470  476.0141
 471  509.2635
 472  542.0995
 473  653.8687
 474  728.1223
 475  658.7517
 476  623.5487
 477  578.0986
 478  695.0555
 479  691.2094
 480  684.5156
 481  690.7242
 482  687.6024
 483  563.1926
 484  593.157
 485  693.8857
 486  649.9655
 487  611.2478
 488  592.0259
 489  552.1142
 490  636.1368
 491  663.5497
 492  672.6157
 493  567.8789
 494  573.7303
 495  644.9683
 496  582.4342
 497  625.1107
 498  625.5337
 499  593.1174
 500  566.8726
 501  528.9863
 502  608.8952
 503  570.6486
 504  592.5096
 505  539.0859
 506  582.2906
 507  664.7733
 508  759.1093
 509  848.2484
 510  1005.283
 511  1166.304
