# Input file       =  1182419751.099498_cleaned.dat
# Candidate        =  PSR_0332+5434
# Telescope        =  AR
# Epoch_topo       =  57929.414005781226
# Epoch_bary       =  N/A
# T_sample         =  0.002
# Data Folded      =  7340032
# Data Avg         =  0.0730136333679961
# Data StdDev      =  3.27421945695347 
# Profile Bins     =  512
# Profile Avg      =  1046.8100294167  
# Profile StdDev   =  392.032237344926 
# Reduced chi-sqr  =  0.975
# Prob(Noise)      <  0.651   (~0.0 sigma)
# P_topo (ms)      =  714.494230044565  +/- 0.000365
# P'_topo (s/s)    =  -0                +/- 1.93e-10
# P''_topo (s/s^2) =  0                 +/- 8.51e-14
# P_bary (ms)      =  N/A
# P'_bary (s/s)    =  N/A
# P''_bary (s/s^2) =  N/A
# P_orb (s)        =  N/A
# asin(i)/c (s)    =  N/A
# eccentricity     =  N/A
# w (rad)          =  N/A
# T_peri           =  N/A
######################################################
   0  741.3329
   1  908.4814
   2  949.4067
   3  1025.124
   4  805.8563
   5  964.5594
   6  856.1367
   7  620.7816
   8  552.2563
   9  751.721
  10  835.0181
  11  702.322
  12  966.9083
  13  1587.377
  14  1455.338
  15  1161.546
  16  1173.403
  17  1011.365
  18  1056.894
  19  969.3581
  20  1108.396
  21  1360.282
  22  818.8262
  23  1199.666
  24  1282.84
  25  809.9659
  26  640.882
  27  711.6876
  28  678.9496
  29  1165.079
  30  1182.506
  31  1004.97
  32  676.5986
  33  1139.945
  34  1261.908
  35  1174.595
  36  1029.137
  37  865.9628
  38  1258.851
  39  1273.923
  40  1151.337
  41  1054.859
  42  856.3805
  43  902.4269
  44  896.2469
  45  844.1261
  46  695.3143
  47  888.6981
  48  1225.581
  49  1352.842
  50  933.2984
  51  820.3221
  52  881.5991
  53  886.5984
  54  1025.048
  55  1146.955
  56  1266.279
  57  921.7518
  58  854.6086
  59  1280.075
  60  1288.645
  61  1187.054
  62  1492.615
  63  1402.393
  64  1006.033
  65  1520.912
  66  1898.025
  67  2139.357
  68  2385.301
  69  2746.144
  70  2971.65
  71  2442.525
  72  1534.653
  73  931.2169
  74  902.5356
  75  812.5317
  76  835.8975
  77  802.4623
  78  659.058
  79  963.669
  80  872.8572
  81  1017.208
  82  1076.391
  83  1113.525
  84  1154.543
  85  773.3455
  86  766.5924
  87  834.9484
  88  1027.099
  89  916.0528
  90  568.3078
  91  729.5057
  92  964.2712
  93  891.1929
  94  855.1179
  95  969.5724
  96  1048.566
  97  971.7394
  98  1204.315
  99  841.7858
 100  859.9853
 101  1091.897
 102  860.9704
 103  1319.894
 104  1396.816
 105  1045.82
 106  1085.175
 107  1300.147
 108  1060.448
 109  876.7071
 110  1072.685
 111  1176.289
 112  1008.416
 113  985.6957
 114  1046.291
 115  1275.297
 116  944.7261
 117  1033.26
 118  1174.046
 119  1401.053
 120  1024.758
 121  806.4303
 122  1047.841
 123  1139.809
 124  1076.7
 125  1388.938
 126  1489.305
 127  1333.318
 128  1042.868
 129  1037.463
 130  898.7114
 131  814.366
 132  1096.034
 133  1221.756
 134  989.3743
 135  1164.584
 136  930.4466
 137  736.777
 138  643.2485
 139  640.049
 140  620.8902
 141  706.2683
 142  693.4277
 143  1058.348
 144  1061.054
 145  1180.114
 146  1356.052
 147  964.7022
 148  987.3701
 149  939.9731
 150  1023.483
 151  1152.832
 152  1123.489
 153  876.5187
 154  1032.831
 155  1225.502
 156  624.0717
 157  739.2014
 158  873.9755
 159  811.9755
 160  1062.172
 161  1183.634
 162  1494.362
 163  826.1005
 164  483.5958
 165  622.3894
 166  895.0591
 167  762.5247
 168  814.0637
 169  940.946
 170  1388.111
 171  1365.227
 172  1169.939
 173  1007.58
 174  1081.826
 175  1014.918
 176  1116.273
 177  1086.852
 178  1287.303
 179  1387.746
 180  1369.68
 181  1415.452
 182  1459.399
 183  1000.803
 184  1176.168
 185  1019.789
 186  1241.673
 187  1540.702
 188  1247.394
 189  1343.883
 190  1361.641
 191  1232.611
 192  1365.024
 193  1280.21
 194  1227.721
 195  1496.06
 196  1511.175
 197  1535.336
 198  1424.213
 199  1110.867
 200  1126.114
 201  1281.33
 202  1308.532
 203  1040.888
 204  1217.953
 205  1596.422
 206  1177.681
 207  943.8507
 208  701.2742
 209  856.3938
 210  957.5562
 211  659.5532
 212  910.1288
 213  983.716
 214  1124.4
 215  1028.449
 216  1167.95
 217  992.8752
 218  1024.435
 219  876.5899
 220  1074.821
 221  1067.965
 222  745.1263
 223  735.6429
 224  855.1498
 225  806.043
 226  1076.453
 227  794.4729
 228  709.0388
 229  956.9848
 230  845.6374
 231  874.4177
 232  871.251
 233  1029.331
 234  946.4858
 235  1152.803
 236  1054.516
 237  901.7097
 238  1000.424
 239  824.2488
 240  646.2481
 241  438.2325
 242  494.0071
 243  858.6876
 244  777.1009
 245  1236.188
 246  1025.887
 247  318.2055
 248  394.456
 249  848.9107
 250  869.8196
 251  1118.649
 252  1170.317
 253  1341.286
 254  1080.326
 255  741.1708
 256  767.1792
 257  1086.271
 258  1110.059
 259  838.6567
 260  1034.531
 261  1274.315
 262  1193.45
 263  1263.163
 264  1367.159
 265  1500.561
 266  1117.107
 267  1146.427
 268  976.3734
 269  823.876
 270  1005.843
 271  1016.728
 272  918.5903
 273  1037.6
 274  885.9413
 275  939.5195
 276  929.4728
 277  810.2714
 278  996.6931
 279  912.2509
 280  1239.669
 281  1089.217
 282  1030.42
 283  722.1868
 284  688.7825
 285  634.0645
 286  934.7831
 287  668.1994
 288  607.3889
 289  998.8422
 290  704.1136
 291  598.7344
 292  670.3444
 293  896.235
 294  900.1697
 295  1374.403
 296  976.9426
 297  797.5499
 298  813.6198
 299  804.0312
 300  785.9958
 301  867.3946
 302  1087.211
 303  964.8467
 304  1049.247
 305  996.6316
 306  1000.905
 307  861.3325
 308  862.1967
 309  855.6173
 310  1130.66
 311  982.2642
 312  1276.393
 313  1535.421
 314  1489.303
 315  1508.009
 316  1237.346
 317  1386.413
 318  1440.176
 319  1408.532
 320  1258.618
 321  1273.236
 322  1413.81
 323  1258.111
 324  1387.954
 325  1050.815
 326  1227.6
 327  1181.492
 328  1293.36
 329  971.2529
 330  793.9662
 331  1029.918
 332  1370.101
 333  1236.866
 334  936.9989
 335  1340.653
 336  1458.601
 337  935.4854
 338  912.8572
 339  1043.732
 340  975.6796
 341  972.6709
 342  1173.93
 343  1265.995
 344  1486.77
 345  1422.899
 346  1295.651
 347  1203.307
 348  1298.498
 349  1197.252
 350  1443.71
 351  1203.451
 352  969.3115
 353  710.9131
 354  766.2343
 355  922.3682
 356  1042.027
 357  990.2008
 358  682.2368
 359  928.9217
 360  1086.003
 361  1079.791
 362  889.3875
 363  669.0307
 364  1028.904
 365  1079.07
 366  1264.665
 367  1626.583
 368  1460.79
 369  1113.351
 370  960.1945
 371  964.3964
 372  1211.544
 373  1361.794
 374  1439.884
 375  992.1683
 376  995.2675
 377  1318.679
 378  1184.752
 379  906.0546
 380  950.5547
 381  951.9844
 382  1090.393
 383  1096.422
 384  959.4713
 385  1044.168
 386  1406.445
 387  1175.584
 388  1095.727
 389  1135.385
 390  1296.09
 391  1049.657
 392  875.7125
 393  1396.744
 394  1445.838
 395  1204.253
 396  1641.55
 397  1621.563
 398  1024.677
 399  925.4592
 400  1014.693
 401  1059.732
 402  996.1603
 403  1134.008
 404  957.4887
 405  690.8139
 406  633.7091
 407  851.1555
 408  1085.585
 409  920.306
 410  824.6023
 411  521.4508
 412  778.2461
 413  683.1306
 414  1022.486
 415  1056.429
 416  650.6623
 417  868.4957
 418  977.7121
 419  775.6236
 420  709.1545
 421  834.4479
 422  949.5232
 423  1106.764
 424  1096.885
 425  684.3483
 426  1017.648
 427  980.514
 428  987.6948
 429  876.5306
 430  1077.806
 431  850.9317
 432  682.7448
 433  645.1943
 434  929.4262
 435  913.9749
 436  776.85
 437  608.3314
 438  650.1345
 439  712.6016
 440  885.8394
 441  651.3861
 442  558.0229
 443  625.8599
 444  968.3102
 445  933.8289
 446  1203.376
 447  965.9031
 448  1116.915
 449  914.2479
 450  977.78
 451  1407.76
 452  1324.301
 453  1016.179
 454  1168.436
 455  1334.84
 456  1230.725
 457  1077.317
 458  1155.099
 459  1047.958
 460  899.1176
 461  1283.492
 462  1092.094
 463  1035.693
 464  1234.77
 465  938.6655
 466  879.0419
 467  1368.495
 468  1344.047
 469  1013.213
 470  943.7914
 471  924.5837
 472  1291.363
 473  1206.359
 474  1267.12
 475  1124.503
 476  1088.951
 477  1180.959
 478  1241.21
 479  1049.231
 480  1145.605
 481  1402.403
 482  1420.015
 483  838.6423
 484  817.9763
 485  948.5446
 486  1243.669
 487  1180.104
 488  1094.271
 489  936.7421
 490  932.644
 491  892.1512
 492  1048.104
 493  1147.508
 494  847.2303
 495  493.2879
 496  651.9493
 497  1016.116
 498  1050.866
 499  953.1733
 500  1064.659
 501  991.5831
 502  1167.271
 503  1288.111
 504  1005.308
 505  988.0289
 506  790.8272
 507  1080.501
 508  1169.441
 509  1075.798
 510  1060.794
 511  740.437
