# Input file       =  1182334205.111209_cleaned.dat
# Candidate        =  PSR_0332+5434
# Telescope        =  AR
# Epoch_topo       =  57928.423890176033
# Epoch_bary       =  N/A
# T_sample         =  0.002
# Data Folded      =  7340032
# Data Avg         =  0.079476538574714
# Data StdDev      =  3.18251219860452 
# Profile Bins     =  512
# Profile Avg      =  1139.44420382606 
# Profile StdDev   =  381.051848845017 
# Reduced chi-sqr  =  1.246
# Prob(Noise)      <  0.00012   (~3.7 sigma)
# P_topo (ms)      =  714.49510349084   +/- 0.000222
# P'_topo (s/s)    =  -0                +/- 1.17e-10
# P''_topo (s/s^2) =  0                 +/- 5.18e-14
# P_bary (ms)      =  N/A
# P'_bary (s/s)    =  N/A
# P''_bary (s/s^2) =  N/A
# P_orb (s)        =  N/A
# asin(i)/c (s)    =  N/A
# eccentricity     =  N/A
# w (rad)          =  N/A
# T_peri           =  N/A
######################################################
   0  976.0799
   1  729.1036
   2  507.8527
   3  860.2661
   4  1237.87
   5  1360.602
   6  1239.044
   7  1328.912
   8  1091.771
   9  1094.181
  10  1243.854
  11  1421.741
  12  961.3018
  13  601.8711
  14  913.0008
  15  1252.896
  16  1413.684
  17  1310.09
  18  1124.025
  19  759.2038
  20  983.8638
  21  1125.135
  22  1378.847
  23  1396.593
  24  1658.499
  25  1563.437
  26  993.1885
  27  939.0078
  28  1285.03
  29  1377.635
  30  1069.877
  31  1484.561
  32  1335.72
  33  1461.096
  34  1230.377
  35  1009.926
  36  949.4823
  37  1155.974
  38  942.0438
  39  619.2742
  40  625.241
  41  990.5687
  42  1301.932
  43  1179.07
  44  1321.68
  45  1042.419
  46  1404.109
  47  1616.488
  48  1311.817
  49  1345.678
  50  1382.645
  51  1462.635
  52  1530.989
  53  1625.522
  54  1628.523
  55  1314.14
  56  1512.273
  57  1710.999
  58  1349.983
  59  1134.731
  60  1321.735
  61  1285.378
  62  1305.026
  63  1275.833
  64  1029.221
  65  912.2136
  66  1056.622
  67  1324.483
  68  1305.337
  69  1308.24
  70  1342.006
  71  1178.966
  72  999.9785
  73  1232.854
  74  1357.686
  75  1154.571
  76  1492.277
  77  1483.782
  78  1164.959
  79  1054.692
  80  1225.029
  81  1391.06
  82  1324.521
  83  1259.023
  84  1085.792
  85  1206.568
  86  1008.271
  87  1126.309
  88  1364.995
  89  1130.823
  90  1279.92
  91  1484.666
  92  1407.523
  93  1125.25
  94  710.4473
  95  766.955
  96  850.1467
  97  1021.293
  98  1222.881
  99  1107.284
 100  1016.884
 101  546.7294
 102  887.4523
 103  930.3677
 104  628.4268
 105  864.1506
 106  1075.705
 107  1034.463
 108  876.8087
 109  344.8418
 110  698.28
 111  1067.49
 112  1002.833
 113  766.8161
 114  893.0435
 115  930.8743
 116  846.3228
 117  1258.507
 118  1189.881
 119  956.8837
 120  1013.819
 121  1224.374
 122  876.3185
 123  1062.174
 124  816.1019
 125  782.0084
 126  896.5143
 127  745.4329
 128  513.8366
 129  853.6789
 130  1092.22
 131  1314.834
 132  978.2615
 133  970.6275
 134  1110.248
 135  1118.083
 136  1148.566
 137  977.2775
 138  819.5011
 139  642.4116
 140  571.5939
 141  790.7959
 142  653.6612
 143  1027.557
 144  1075.766
 145  961.7064
 146  635.3767
 147  1011.877
 148  991.0607
 149  1079.448
 150  880.3784
 151  731.22
 152  896.3848
 153  908.4723
 154  788.4225
 155  940.5893
 156  926.5911
 157  1191.53
 158  874.2722
 159  678.8882
 160  826.9886
 161  592.1483
 162  722.8773
 163  972.2543
 164  688.2466
 165  856.0629
 166  1112.379
 167  686.7096
 168  802.3727
 169  807.4491
 170  984.0191
 171  832.6627
 172  881.7881
 173  747.694
 174  879.8723
 175  1350.922
 176  1012.11
 177  566.437
 178  649.218
 179  960.0426
 180  864.3636
 181  858.8292
 182  1050.292
 183  1301.145
 184  1139.182
 185  1165.88
 186  1016.477
 187  1150.882
 188  1135.951
 189  1328.424
 190  1182.302
 191  1124.359
 192  1551.908
 193  1589.297
 194  1397.324
 195  1434.051
 196  1245.039
 197  998.761
 198  819.7419
 199  575.0484
 200  493.2555
 201  904.7805
 202  1111.995
 203  1120.136
 204  1219.955
 205  1015.916
 206  1019.579
 207  1166.276
 208  1008.397
 209  1007.016
 210  1139.139
 211  1438.415
 212  1331.812
 213  1004.013
 214  1129.89
 215  1048.651
 216  951.1391
 217  1359.851
 218  1304.625
 219  1270.486
 220  898.8636
 221  666.8719
 222  1245.818
 223  1125.332
 224  747.999
 225  947.9219
 226  1211.378
 227  1237.999
 228  1032.251
 229  1130.364
 230  943.4016
 231  994.0852
 232  1220.179
 233  1215.274
 234  1352.499
 235  1227.843
 236  885.5246
 237  1091.203
 238  1077.016
 239  1346.803
 240  1021.359
 241  1146.004
 242  1195.146
 243  1008.042
 244  1158.623
 245  1153.248
 246  1215.938
 247  1586.27
 248  1436.08
 249  1246.381
 250  1258.449
 251  1200.356
 252  999.8745
 253  930.0133
 254  960.8638
 255  857.1561
 256  699.5416
 257  859.3276
 258  898.8256
 259  719.8557
 260  902.7818
 261  931.4377
 262  994.2971
 263  957.1362
 264  756.8257
 265  932.0308
 266  1258.607
 267  1191.123
 268  942.4755
 269  1071.33
 270  969.2617
 271  1248.047
 272  1372.409
 273  1419.859
 274  1275.595
 275  1077.089
 276  976.1267
 277  795.7944
 278  1012.545
 279  1207.221
 280  1285.125
 281  1339.271
 282  898.5306
 283  976.5336
 284  1188.159
 285  1189.736
 286  1209.343
 287  1158.624
 288  1142.925
 289  1502.266
 290  1383.486
 291  1428.244
 292  1091.922
 293  1238.284
 294  1577.865
 295  1309.381
 296  946.9807
 297  1219.833
 298  1617.542
 299  1736.914
 300  1660.049
 301  1373.516
 302  1191.405
 303  1022.296
 304  1024.989
 305  1620.37
 306  1580.375
 307  1676.81
 308  1034.243
 309  1228.162
 310  1427.659
 311  1359.734
 312  1427.947
 313  1593.316
 314  1527.267
 315  1353.584
 316  1257.135
 317  1143.893
 318  1236.73
 319  1697.43
 320  1736.927
 321  1447.318
 322  1158.092
 323  1495.205
 324  1940.597
 325  2382.599
 326  2577.442
 327  2941.398
 328  2974.891
 329  2762.84
 330  2267.976
 331  1592.326
 332  1366.799
 333  1381.939
 334  1278.222
 335  1394.812
 336  1407.904
 337  1036.455
 338  1301.161
 339  1710.57
 340  1599.371
 341  1459.349
 342  1302.853
 343  1281.131
 344  1459.339
 345  1515.149
 346  1451.179
 347  1037.69
 348  1089.227
 349  1082.613
 350  926.1942
 351  1266.43
 352  1510.952
 353  1408.765
 354  1632.07
 355  1549.431
 356  1242.59
 357  1348.775
 358  1254.819
 359  1120.431
 360  1063.37
 361  1322.603
 362  1440.569
 363  1440.204
 364  1355.113
 365  1279.201
 366  1049.977
 367  1034.955
 368  1017.695
 369  932.0994
 370  837.6159
 371  1142.736
 372  1186.51
 373  744.7202
 374  747.212
 375  1134.912
 376  1326.208
 377  1056.875
 378  938.5594
 379  1262.117
 380  1678.039
 381  1486.535
 382  1731.961
 383  1530.032
 384  1142.43
 385  1137.972
 386  1475.203
 387  1304.81
 388  1364.537
 389  1313.99
 390  1076.76
 391  1214.781
 392  1344.538
 393  1646.1
 394  1386.398
 395  1299.427
 396  1178.867
 397  1156.897
 398  1365.597
 399  1343.209
 400  1411.797
 401  1196.278
 402  959.6609
 403  1022.362
 404  1202.623
 405  1203.783
 406  1284.847
 407  1192.783
 408  1156.224
 409  987.3122
 410  1135.295
 411  1219.425
 412  1047.964
 413  1647.156
 414  1477.788
 415  1053.245
 416  967.2233
 417  906.99
 418  902.8342
 419  984.5897
 420  1130.842
 421  1228.95
 422  1323.736
 423  1123.176
 424  836.1667
 425  1116.194
 426  745.7552
 427  778.0928
 428  1231.655
 429  1229.431
 430  878.6646
 431  1010.959
 432  1142.792
 433  1441.362
 434  1511.455
 435  1134.627
 436  605.8434
 437  838.7361
 438  1314.683
 439  1338.11
 440  1302.224
 441  1406.168
 442  1060.678
 443  764.1724
 444  1118.598
 445  1272.151
 446  1050.991
 447  1080.262
 448  1389.917
 449  1392.654
 450  942.1916
 451  989.3723
 452  1116.99
 453  1220.505
 454  984.7744
 455  687.2634
 456  996.7878
 457  1364.211
 458  1417.324
 459  1164.381
 460  944.299
 461  967.5009
 462  1063.564
 463  681.4564
 464  805.7021
 465  1371.17
 466  1397.573
 467  1334.966
 468  1296.272
 469  1116.529
 470  1293.185
 471  1189.993
 472  1200.427
 473  1102.84
 474  1139.116
 475  1098.974
 476  879.8616
 477  795.6073
 478  613.8557
 479  800.3129
 480  859.0398
 481  1035.823
 482  1359.782
 483  1220.282
 484  1190.683
 485  1016.85
 486  827.2
 487  941.2965
 488  1036.935
 489  1035.224
 490  980.8616
 491  1101.97
 492  997.9551
 493  966.7614
 494  765.9448
 495  787.4724
 496  754.5337
 497  690.0226
 498  740.9882
 499  921.1604
 500  983.6146
 501  882.736
 502  748.0928
 503  703.6913
 504  547.6841
 505  817.0906
 506  915.5007
 507  1000.435
 508  1088.228
 509  757.0739
 510  627.0579
 511  693.7469
