# Input file       =  1182476385.100278_cleaned.dat
# Candidate        =  PSR_0332+5434
# Telescope        =  AR
# Epoch_topo       =  57930.069491901362
# Epoch_bary       =  N/A
# T_sample         =  0.002
# Data Folded      =  7143424
# Data Avg         =  0.104778329570513
# Data StdDev      =  4.0736739941685  
# Profile Bins     =  512
# Profile Avg      =  1461.82404775384 
# Profile StdDev   =  481.176605831778 
# Reduced chi-sqr  =  0.836
# Prob(Noise)      <  0.997   (~0.0 sigma)
# P_topo (ms)      =  714.493319788953  +/- 4.94e-05
# P'_topo (s/s)    =  -0                +/- 2.68e-11
# P''_topo (s/s^2) =  0                 +/- 1.22e-14
# P_bary (ms)      =  N/A
# P'_bary (s/s)    =  N/A
# P''_bary (s/s^2) =  N/A
# P_orb (s)        =  N/A
# asin(i)/c (s)    =  N/A
# eccentricity     =  N/A
# w (rad)          =  N/A
# T_peri           =  N/A
######################################################
   0  1339.108
   1  1672.522
   2  1995.653
   3  962.8788
   4  1154.673
   5  1414.922
   6  1155.098
   7  1377.729
   8  1698.584
   9  1142.662
  10  1321.547
  11  1222.126
  12  873.8632
  13  1166.397
  14  1274.78
  15  1633.593
  16  1509.127
  17  1718.263
  18  1458.702
  19  1220.664
  20  826.012
  21  1216.431
  22  1264.583
  23  1290.941
  24  1413.543
  25  1638.51
  26  1718.786
  27  1198.721
  28  1047.291
  29  1116.245
  30  1113.772
  31  1173.933
  32  1852.406
  33  1730.594
  34  1683.952
  35  1489.938
  36  1452.234
  37  1229.436
  38  1098.722
  39  1574.448
  40  1689.588
  41  1877.823
  42  1961.555
  43  1839.844
  44  1634.035
  45  1685.883
  46  1376.26
  47  1278.792
  48  1703.242
  49  1814.676
  50  1796.802
  51  1792.711
  52  1543.378
  53  1038.408
  54  1767.13
  55  1684.335
  56  1783.606
  57  1579.488
  58  1789.681
  59  1906.3
  60  1281.7
  61  1225.271
  62  1383.829
  63  1534.892
  64  1515.469
  65  1595.536
  66  1876.332
  67  1993.543
  68  1668.75
  69  1613.919
  70  1381.089
  71  1238.394
  72  1241.954
  73  1603.086
  74  1793.187
  75  1765.295
  76  1788.001
  77  1419.801
  78  1453.996
  79  1060.161
  80  1390.721
  81  1217.49
  82  848.3027
  83  1308.934
  84  1735.028
  85  1407.542
  86  1012.087
  87  1105.763
  88  1127.437
  89  1238.096
  90  1483.965
  91  1384.928
  92  1178.627
  93  1091.424
  94  876.4001
  95  1218.167
  96  1597.808
  97  1873.549
  98  1693.893
  99  1470.128
 100  1464.444
 101  1096.31
 102  1025.18
 103  1334.762
 104  1531.449
 105  1166.874
 106  1538.185
 107  1846.4
 108  2048.817
 109  1746.781
 110  1499.414
 111  1271.646
 112  1064.457
 113  965.8246
 114  1306.456
 115  1762.139
 116  1641.649
 117  1647.421
 118  1055.768
 119  929.7363
 120  1149.885
 121  1195.542
 122  1095.789
 123  1414.584
 124  1795.383
 125  1768.725
 126  1639.242
 127  1423.255
 128  1326.168
 129  1082.195
 130  1136.733
 131  1130.648
 132  1596.7
 133  1730.974
 134  1599.141
 135  1365.065
 136  1161.341
 137  1248.459
 138  1259.821
 139  1322.209
 140  1576.764
 141  1810.039
 142  1555.597
 143  1363.499
 144  1105.948
 145  1372.986
 146  889.8339
 147  1304.725
 148  1270.704
 149  1359.588
 150  1485.903
 151  1488.729
 152  1536.359
 153  1148.618
 154  1172.691
 155  1434.255
 156  1489.792
 157  1360.7
 158  1571.36
 159  1463.729
 160  1248.314
 161  1074.58
 162  1178.911
 163  885.4673
 164  716.3775
 165  715.7297
 166  1011.617
 167  1430.079
 168  1371.751
 169  1497.328
 170  1467.29
 171  1760.678
 172  1473.018
 173  1589.354
 174  1574.65
 175  1370.141
 176  1288.735
 177  1450.677
 178  1274.087
 179  1092.716
 180  1312.942
 181  1700.46
 182  1570.231
 183  1172.759
 184  1408.262
 185  1064.128
 186  1457.54
 187  1532.31
 188  1290.61
 189  1852.342
 190  1955.962
 191  1978.896
 192  1844.677
 193  1337.81
 194  1098.257
 195  1366.699
 196  1326.092
 197  1546.839
 198  1677.919
 199  1911.91
 200  1989.654
 201  1226.16
 202  1097.337
 203  1250.43
 204  1462.944
 205  1708.625
 206  1794.768
 207  2120.614
 208  1568.594
 209  1124.337
 210  1317.489
 211  1135.508
 212  1197.891
 213  1223.652
 214  1698.095
 215  1703.259
 216  1638.915
 217  1495.307
 218  1057.604
 219  1431.07
 220  1007.917
 221  1048.632
 222  1245.307
 223  1595.012
 224  1722.368
 225  1469.833
 226  1215.36
 227  1065.764
 228  1073.745
 229  1083.795
 230  1539.586
 231  1753.56
 232  1764.515
 233  1436.19
 234  1767.841
 235  1457.902
 236  1455.042
 237  1097.433
 238  1207.48
 239  1376.045
 240  1669.858
 241  1427.962
 242  1151.225
 243  1534.56
 244  1753.918
 245  1618.588
 246  1317.3
 247  1206.257
 248  1226.077
 249  1394.302
 250  1136.48
 251  1151.096
 252  976.6426
 253  1207.307
 254  1640.038
 255  1754.207
 256  1746.051
 257  1514.212
 258  1689.945
 259  1480.712
 260  1688.338
 261  1295.073
 262  1492.122
 263  1580.157
 264  1817.283
 265  1784.461
 266  1434.563
 267  1440.347
 268  991.5349
 269  1387.078
 270  1229.599
 271  1515.111
 272  1563.969
 273  1489.667
 274  1279.676
 275  1113.204
 276  843.8502
 277  407.9205
 278  857.4388
 279  1279.631
 280  1460.705
 281  1504.771
 282  1471.368
 283  1402.163
 284  1410.734
 285  837.8121
 286  1277.327
 287  1163.022
 288  1368.866
 289  1376.41
 290  1527.791
 291  1485.246
 292  902.9218
 293  1336.038
 294  1176.865
 295  1167.057
 296  1123.523
 297  1615.84
 298  1519.305
 299  1473.134
 300  1101.449
 301  983.573
 302  1202.927
 303  1343.17
 304  1359.548
 305  1524.045
 306  1862.667
 307  1994.627
 308  1600.107
 309  1415.707
 310  1440.29
 311  1361.353
 312  1606.715
 313  1719.026
 314  1479.041
 315  1413.206
 316  1459.823
 317  1104.711
 318  954.8623
 319  1066.381
 320  1588.447
 321  1770.551
 322  1933.859
 323  2170.549
 324  1873.246
 325  2308.22
 326  2523.293
 327  3082.696
 328  3050.82
 329  2952.133
 330  2211.193
 331  1850.992
 332  1655.552
 333  1104.344
 334  1520.548
 335  1507.16
 336  1523.563
 337  1768.983
 338  2077.155
 339  1861.186
 340  1629.324
 341  1698.146
 342  1961.734
 343  1506.588
 344  1259.798
 345  1443.9
 346  1675.654
 347  1631.677
 348  1361.474
 349  1655.822
 350  1321.008
 351  1450.958
 352  1488.049
 353  1509.392
 354  1368.141
 355  1677.92
 356  1774.001
 357  1252.757
 358  1195.98
 359  708.2589
 360  1047.317
 361  1328.821
 362  1610.075
 363  1586.068
 364  1726.402
 365  1189.105
 366  871.5863
 367  926.2563
 368  859.9984
 369  1450.424
 370  1240.808
 371  1210.105
 372  1547.538
 373  1612.151
 374  850.4872
 375  826.0455
 376  1219.643
 377  1380.631
 378  1540.322
 379  1624.607
 380  1744.545
 381  1680.786
 382  1417.829
 383  1349.813
 384  1190.193
 385  1443.382
 386  1643.818
 387  1776.222
 388  1662.172
 389  1560.926
 390  1602.746
 391  1437.09
 392  1414.623
 393  1234.429
 394  1294.803
 395  1642.547
 396  1839.284
 397  1870.391
 398  1344.329
 399  1304.417
 400  1342.832
 401  1717.407
 402  1556.443
 403  1848.01
 404  1677.014
 405  1670.792
 406  1796.463
 407  1641.362
 408  1951.296
 409  1763.921
 410  1760.188
 411  1420.719
 412  1625.099
 413  1944.881
 414  1819.823
 415  1589.098
 416  1591.786
 417  1753.348
 418  1841.268
 419  1256.526
 420  1501.056
 421  1640.454
 422  1458.187
 423  1327.391
 424  1021.646
 425  1315.383
 426  1322.292
 427  1729.809
 428  1728.024
 429  1638.255
 430  1358.424
 431  1702.411
 432  1542.9
 433  1383.121
 434  1286.157
 435  1050.29
 436  1602.137
 437  1570.571
 438  1767.282
 439  1491.615
 440  1236.157
 441  996.6077
 442  728.8922
 443  939.1224
 444  1690.476
 445  1905.152
 446  1658.041
 447  1516.375
 448  1453.282
 449  1385.605
 450  896.8318
 451  915.2014
 452  1291.859
 453  1716.11
 454  1950.517
 455  2014.735
 456  1727.179
 457  1330.653
 458  1346.448
 459  1377.481
 460  1393.359
 461  1407.026
 462  1870.184
 463  2034.756
 464  1998.548
 465  1592.826
 466  1257.445
 467  1536.476
 468  1842.025
 469  1485.5
 470  1589.789
 471  1780.52
 472  1947.538
 473  1820.385
 474  1157.626
 475  1170.949
 476  1192.034
 477  1627.271
 478  1941.161
 479  1952.611
 480  1943.22
 481  1579.102
 482  1542.867
 483  1476.204
 484  1647.798
 485  1428.44
 486  1769.657
 487  1926.313
 488  1706.445
 489  1439.156
 490  1518.493
 491  1337.402
 492  1721.344
 493  1704.437
 494  1905.139
 495  1646.198
 496  1555.429
 497  1512.503
 498  1106.674
 499  1466.058
 500  1615.676
 501  1482.281
 502  1536.174
 503  1640.354
 504  1778.509
 505  1923.614
 506  1556.747
 507  977.9962
 508  1004.262
 509  995.2081
 510  1087.479
 511  1220.063
