# Input file       =  1182850506.116156_cleaned.dat
# Candidate        =  PSR_0332+5434
# Telescope        =  AR
# Epoch_topo       =  57934.399596251809
# Epoch_bary       =  N/A
# T_sample         =  0.002
# Data Folded      =  7340032
# Data Avg         =  0.960655223559504
# Data StdDev      =  15.0031010789758 
# Profile Bins     =  1024
# Profile Avg      =  6886.00952155816 
# Profile StdDev   =  1270.22317919151 
# Reduced chi-sqr  =  0.563
# Prob(Noise)      <  1   (~0.0 sigma)
# P_topo (ms)      =  714.490052933282  +/- 7.28e-05
# P'_topo (s/s)    =  -0                +/- 3.84e-11
# P''_topo (s/s^2) =  0                 +/- 1.7e-14
# P_bary (ms)      =  N/A
# P'_bary (s/s)    =  N/A
# P''_bary (s/s^2) =  N/A
# P_orb (s)        =  N/A
# asin(i)/c (s)    =  N/A
# eccentricity     =  N/A
# w (rad)          =  N/A
# T_peri           =  N/A
######################################################
   0  5607.812
   1  5885.76
   2  5914.827
   3  6132.443
   4  5994.808
   5  5941.396
   6  5817.251
   7  5694.328
   8  5828.167
   9  5907.709
  10  6152.118
  11  6216.801
  12  6119.28
  13  6122.526
  14  6093.892
  15  6066.942
  16  6220.467
  17  6233.045
  18  6582.756
  19  6758.095
  20  6889.878
  21  7063.75
  22  6953.634
  23  6687.791
  24  6422.323
  25  6487.88
  26  6609.582
  27  6599.08
  28  6591.944
  29  6677.335
  30  6871.205
  31  7150.913
  32  7246.298
  33  7459.073
  34  7331.174
  35  7351.158
  36  7198.272
  37  7256.99
  38  7211.724
  39  7289.204
  40  7414.938
  41  7204.109
  42  7163.616
  43  7154.909
  44  6779.206
  45  6500.865
  46  6503.368
  47  6588.28
  48  6801.694
  49  6696.692
  50  6636.957
  51  6464.642
  52  6434.608
  53  6435
  54  6449.536
  55  6620.745
  56  6774.362
  57  6931.325
  58  6854.009
  59  6711.03
  60  6587.346
  61  6413.509
  62  6235.455
  63  6238.505
  64  6244.918
  65  6669.103
  66  7106.418
  67  7284.886
  68  7216.787
  69  7064.551
  70  7054.92
  71  6785.884
  72  6654.828
  73  6575.242
  74  6791.86
  75  7088.725
  76  7433.899
  77  7587.311
  78  7774.558
  79  7664.379
  80  7495.375
  81  7398.228
  82  7237.836
  83  6919.356
  84  6808.601
  85  7090.194
  86  7468.315
  87  7844.355
  88  7752.716
  89  7730.638
  90  7534.875
  91  7232.765
  92  6959.034
  93  7027.865
  94  7283.482
  95  7299.76
  96  7669.44
  97  7625.321
  98  7635.439
  99  7693.851
 100  7591.566
 101  7310.515
 102  7017.801
 103  7030.183
 104  7148.99
 105  7394.684
 106  7296.196
 107  7183.492
 108  6983.171
 109  6779.166
 110  6769.413
 111  6603.285
 112  6359.562
 113  6509.493
 114  6476.734
 115  6631.022
 116  6769.649
 117  6822.949
 118  6876.723
 119  6595.627
 120  6526.075
 121  6176.886
 122  6241.283
 123  6481.973
 124  6516.971
 125  6574.672
 126  6481.945
 127  6507.316
 128  6531.146
 129  6568.514
 130  6573.338
 131  6417.378
 132  6295.479
 133  6614.989
 134  7064.466
 135  7193.552
 136  7271.914
 137  7186.124
 138  7166.352
 139  6849.958
 140  6567.756
 141  6476.342
 142  6376.191
 143  6524.335
 144  6547.438
 145  6420.271
 146  6314.087
 147  6367.622
 148  6315.781
 149  6535.171
 150  6844.158
 151  7086.72
 152  7047.491
 153  6985.279
 154  6954.795
 155  7042.454
 156  7031.589
 157  6729.245
 158  6665.312
 159  6488.633
 160  6461.72
 161  6479.529
 162  6567.704
 163  6740.334
 164  6857.585
 165  6821.48
 166  6602.747
 167  6433.031
 168  6300.659
 169  6326.228
 170  6241.41
 171  6377.751
 172  6445.479
 173  6585.584
 174  6459.73
 175  6382.612
 176  6227.178
 177  6131.18
 178  6135.667
 179  6066.553
 180  6263.949
 181  6240.88
 182  6570.785
 183  6522.952
 184  6464.766
 185  6273.436
 186  6006.079
 187  5809.484
 188  5576.758
 189  5623.057
 190  5890.575
 191  5933.694
 192  6049.406
 193  5986.822
 194  6151.088
 195  6066.092
 196  6228.443
 197  6237.487
 198  6253.698
 199  6028.145
 200  5997.373
 201  6066.672
 202  6292.445
 203  6296.813
 204  6140.849
 205  5925.758
 206  5798.483
 207  5822.807
 208  6032.405
 209  6286.002
 210  6660.909
 211  6662.19
 212  6756.182
 213  6582.425
 214  6539.454
 215  6497.237
 216  6398.353
 217  6478.534
 218  6465.257
 219  6711.932
 220  6740.186
 221  6712.304
 222  6701.197
 223  6660.414
 224  6822.042
 225  6614.535
 226  6500.192
 227  6661.438
 228  6707.211
 229  6913.221
 230  6794.665
 231  6917.966
 232  7007.234
 233  7026.285
 234  7038.532
 235  6946.012
 236  6992.177
 237  6996.132
 238  7053.591
 239  6828.76
 240  6852.084
 241  7058.747
 242  7277.626
 243  6863.401
 244  6783.511
 245  6798.926
 246  7047.9
 247  7163.916
 248  7450.516
 249  7624.066
 250  7530.37
 251  7495.738
 252  7272.762
 253  7073.086
 254  6934.332
 255  6686.854
 256  6763.762
 257  6808.635
 258  7011.774
 259  7122.632
 260  7355.404
 261  7535.641
 262  7672.609
 263  7682.606
 264  7649.984
 265  7624.421
 266  7678.738
 267  8005.701
 268  8140.44
 269  8165.012
 270  8144.435
 271  7932.303
 272  7745.58
 273  7430.904
 274  7147.875
 275  7137.1
 276  7141.918
 277  7320.503
 278  7518.884
 279  7866.918
 280  7692.175
 281  7509.027
 282  7358.703
 283  7138.199
 284  6921.094
 285  6988.789
 286  7327.865
 287  7512.5
 288  7690.846
 289  7744.57
 290  7680.886
 291  7568.817
 292  7585.343
 293  7500.977
 294  7627.95
 295  7668.4
 296  7751.897
 297  7805.482
 298  7818.999
 299  7971.968
 300  7985.307
 301  7848.108
 302  7526.702
 303  7583.124
 304  7712.349
 305  7910.049
 306  8188.025
 307  8383.759
 308  8301.561
 309  8028.202
 310  7654.625
 311  7437.303
 312  7373.109
 313  7489.257
 314  7685.562
 315  7773.404
 316  7912.216
 317  7893.312
 318  7806.057
 319  7829
 320  7686.566
 321  7408.393
 322  7235.588
 323  7287.638
 324  7379.413
 325  7479.252
 326  7301.499
 327  7349.468
 328  7252.493
 329  7200.885
 330  7066.347
 331  7111.139
 332  7094.559
 333  7052.149
 334  7063.753
 335  7048.154
 336  7131.859
 337  7243.723
 338  7193.196
 339  7086.84
 340  6735.797
 341  6584.842
 342  6549.936
 343  6745.8
 344  7279.149
 345  7625.186
 346  7665.786
 347  7434.753
 348  7199.387
 349  7096.353
 350  6931.332
 351  6769.948
 352  6713.067
 353  6858.024
 354  6919.017
 355  7164.759
 356  7386.306
 357  7427.69
 358  7165.181
 359  6905.333
 360  6880.184
 361  6918.129
 362  7062.396
 363  7278.235
 364  7335.935
 365  7128.284
 366  7049.041
 367  6978.882
 368  6529.092
 369  6193.438
 370  6108.362
 371  6092.083
 372  6429.68
 373  6415.745
 374  6454.694
 375  6358.687
 376  6126.473
 377  6030.844
 378  5842.472
 379  5820.307
 380  5855.878
 381  6141.273
 382  6330.272
 383  6271.485
 384  6341.844
 385  6446.789
 386  6262.206
 387  6045.414
 388  5962.076
 389  6065.574
 390  6074.533
 391  6190.398
 392  6383.739
 393  6454.666
 394  6643.341
 395  6551.828
 396  6605.244
 397  6374.57
 398  6258.555
 399  6034.593
 400  5968.929
 401  6034.643
 402  6059.518
 403  6127.019
 404  6091.034
 405  6020.31
 406  5795.799
 407  5638.667
 408  5614.398
 409  5576.405
 410  5699.321
 411  5956.116
 412  6046.368
 413  6289.283
 414  6173.554
 415  6132.186
 416  5982.768
 417  5830.429
 418  5835.537
 419  5635.19
 420  5433.207
 421  5641.229
 422  5936.323
 423  6172.606
 424  6275.622
 425  6321.416
 426  6460.77
 427  6508.312
 428  6652.314
 429  6712.331
 430  6944.187
 431  6800.224
 432  6796.96
 433  6568.17
 434  6421.062
 435  6495.685
 436  6507.229
 437  6411.938
 438  6526.949
 439  6861.079
 440  7136.312
 441  7217.208
 442  7300.381
 443  7475.095
 444  7440.1
 445  7354.144
 446  7385.372
 447  7414.522
 448  7381.288
 449  7374.366
 450  7431.383
 451  7446.328
 452  7503.986
 453  7583.143
 454  7516.769
 455  7561.248
 456  7679.533
 457  7838.26
 458  7802.208
 459  7838.405
 460  7905.06
 461  8074.115
 462  7745.69
 463  7557.408
 464  7364.627
 465  7322.345
 466  7467.172
 467  7595.209
 468  7773.405
 469  7813.537
 470  7909.385
 471  7964.432
 472  7788.159
 473  7758.336
 474  7515.044
 475  7378.086
 476  7294.943
 477  7337.36
 478  7577.04
 479  7533.229
 480  7474.337
 481  7288.234
 482  7071.872
 483  7080.437
 484  6989.438
 485  7205.682
 486  7753.716
 487  7933.716
 488  8071.018
 489  7905.413
 490  7656.821
 491  7454.924
 492  7196.258
 493  7131.786
 494  6962.768
 495  6792.268
 496  6869.598
 497  6994.234
 498  7183.635
 499  7115.514
 500  6930.588
 501  6648.687
 502  6481.518
 503  6431.171
 504  6513.059
 505  6557.184
 506  6849.937
 507  7033.813
 508  7010.305
 509  6820.208
 510  6612.842
 511  6463.844
 512  6365.983
 513  6304.892
 514  6437.714
 515  6489.19
 516  6398.28
 517  6717.309
 518  6783.158
 519  6843.918
 520  6825.69
 521  6712.023
 522  6473.611
 523  6071.305
 524  6039.513
 525  6172.052
 526  6360.723
 527  6356.646
 528  6403.483
 529  6381.523
 530  6291.956
 531  6330.879
 532  6467.847
 533  6497.782
 534  6470.047
 535  6479.14
 536  6547.601
 537  6436.449
 538  6295.399
 539  6282.651
 540  6115.58
 541  6038.111
 542  5763.809
 543  5783.435
 544  5883.236
 545  6211.02
 546  6625.257
 547  6939.085
 548  6845.979
 549  6842.852
 550  6823.099
 551  6803.377
 552  6735.964
 553  6862.156
 554  6933.042
 555  7020.588
 556  7102.819
 557  7218.551
 558  7048.622
 559  6962.604
 560  6798.687
 561  6785.73
 562  6908.316
 563  7159.061
 564  7206.342
 565  7222.235
 566  7072.893
 567  7000.736
 568  6945.891
 569  6945.236
 570  6832.255
 571  6580.238
 572  6493.458
 573  6558.526
 574  6378.315
 575  6543.026
 576  6540.907
 577  6560.277
 578  6469.572
 579  6368.714
 580  6251.455
 581  6211.843
 582  6168.964
 583  6224.679
 584  6449.928
 585  6632.055
 586  6937.956
 587  6956.902
 588  6738.708
 589  6530.697
 590  6453.662
 591  6506.426
 592  6841.708
 593  7012.471
 594  7250.989
 595  7305.835
 596  7294.409
 597  7140.545
 598  6990.937
 599  7032.179
 600  7093.529
 601  7373.517
 602  7200.115
 603  7177.106
 604  7004.888
 605  7003.977
 606  7048.97
 607  7079.413
 608  6921.984
 609  7063.193
 610  7156.736
 611  6997.736
 612  6909.057
 613  7007.094
 614  7124.643
 615  7122.45
 616  7042.929
 617  7004.168
 618  6830.291
 619  6678
 620  6667.666
 621  6947.895
 622  7005.223
 623  7002.161
 624  6970.447
 625  7057.255
 626  7134.478
 627  7060.162
 628  7036.669
 629  6949.091
 630  6964.567
 631  6817.33
 632  6939.329
 633  6940.578
 634  6894.776
 635  6656.744
 636  6647.413
 637  6707.901
 638  6503.803
 639  6487.842
 640  6701.407
 641  6658.327
 642  6809.242
 643  6720.529
 644  6648.712
 645  6612.734
 646  6558.574
 647  6565.097
 648  6386.844
 649  6367.526
 650  6524.705
 651  6878.694
 652  7157.569
 653  7354.28
 654  7368.776
 655  7457.501
 656  7113.084
 657  6983.123
 658  6819.323
 659  6710.511
 660  6805.734
 661  6835.254
 662  6943.747
 663  7128.409
 664  6973.963
 665  6796.047
 666  6831.773
 667  6747.199
 668  6737.901
 669  6806.415
 670  7213.519
 671  7406.361
 672  7458.844
 673  7248.887
 674  7176.752
 675  7069.291
 676  6975.396
 677  7029.564
 678  7020.43
 679  7288.229
 680  7478.486
 681  7645.213
 682  7823.735
 683  7940.106
 684  7811.34
 685  7553.818
 686  7143.209
 687  7023.175
 688  7003.5
 689  7237.432
 690  7301.084
 691  7458.894
 692  7535.836
 693  7451.801
 694  7221.101
 695  7037.698
 696  6999.406
 697  6975.771
 698  7225.347
 699  7251.967
 700  7340.121
 701  7077.292
 702  6687.466
 703  6348.694
 704  6329.68
 705  6104.531
 706  6235.658
 707  6557.819
 708  6773.335
 709  6847.709
 710  6842.072
 711  6811.536
 712  6740.663
 713  6666.49
 714  6727.104
 715  6552.388
 716  6660.533
 717  6585.314
 718  6937.353
 719  7011.951
 720  7166.062
 721  7052.041
 722  6993.99
 723  6844.966
 724  6634.792
 725  6963.008
 726  7192.263
 727  7454.184
 728  7625.151
 729  7474.517
 730  7440.337
 731  7323.08
 732  7308.826
 733  7178.958
 734  7067.664
 735  7210.612
 736  7162.912
 737  7146.871
 738  7318.682
 739  7526.881
 740  7645.169
 741  7286.733
 742  7037.637
 743  7052.924
 744  7081.087
 745  7229.002
 746  7448.259
 747  7551.313
 748  7543.097
 749  7230.416
 750  7124.66
 751  7172.816
 752  7070.477
 753  6990.683
 754  7184.886
 755  7474.919
 756  7632.396
 757  7824.506
 758  8079.444
 759  7944.71
 760  7697.379
 761  7520.479
 762  7303.022
 763  7332.282
 764  7297.54
 765  7524.266
 766  7494.255
 767  7188.745
 768  7231.996
 769  7237.108
 770  7121.629
 771  6876.411
 772  6893.307
 773  7210.896
 774  7466.643
 775  7718.151
 776  7838.548
 777  7748.188
 778  7642.459
 779  7356.64
 780  7251.026
 781  7179.848
 782  6969.326
 783  6866.484
 784  6765.295
 785  7134.405
 786  7146.429
 787  7282.387
 788  7112.019
 789  7097.471
 790  6977.824
 791  6922.97
 792  6603.89
 793  6518.614
 794  6672.406
 795  6946.467
 796  7065.584
 797  6869.288
 798  6865.828
 799  6661.335
 800  6317.815
 801  6221.599
 802  6577.108
 803  6861.894
 804  6991.581
 805  6975.272
 806  7256.212
 807  7144.042
 808  7066.083
 809  7119.605
 810  6895.771
 811  6929.139
 812  6782.944
 813  6962.708
 814  7180.868
 815  7302.355
 816  7530.56
 817  7371.088
 818  7186.956
 819  7035.94
 820  7020.92
 821  6908.193
 822  6990.624
 823  7185.743
 824  7230.113
 825  7363.645
 826  7392.853
 827  7150.919
 828  6925.392
 829  6819.236
 830  6979.366
 831  7010.465
 832  7077.512
 833  7050.522
 834  7092.979
 835  7056.74
 836  7042.195
 837  6928.695
 838  6927.679
 839  6929.309
 840  7098.606
 841  7148.845
 842  7029.736
 843  7119.949
 844  7086.747
 845  6973.672
 846  6840.642
 847  6822.105
 848  6733.89
 849  6554.847
 850  6649.854
 851  7024.127
 852  7252.731
 853  7460.868
 854  7635.122
 855  7598.65
 856  7540.161
 857  7424.846
 858  7357.75
 859  7244.84
 860  7178.558
 861  7457.444
 862  7664.524
 863  7572.875
 864  7762.759
 865  7611.004
 866  7503.107
 867  7339.858
 868  7376.909
 869  7506.79
 870  7539.608
 871  7515.998
 872  7783.597
 873  8058.585
 874  8190.618
 875  7986.922
 876  7888.528
 877  7849.779
 878  7747.455
 879  7725.841
 880  7617.283
 881  7345.146
 882  7236.405
 883  7215.093
 884  6959.377
 885  6701.707
 886  6822.088
 887  6777.788
 888  6705.735
 889  6764.295
 890  7046.321
 891  7252.36
 892  7169.714
 893  7141.794
 894  7016.548
 895  6792.671
 896  6770.483
 897  6711.889
 898  6688.229
 899  6691.004
 900  6843.332
 901  6994.587
 902  6852.759
 903  6801.02
 904  6744.253
 905  6625.425
 906  6712.994
 907  6731.877
 908  6815.562
 909  6710.266
 910  6875.312
 911  6823.662
 912  6756.777
 913  6552.524
 914  6450.793
 915  6495.969
 916  6483.503
 917  6702.913
 918  6805.9
 919  6972.271
 920  7018.32
 921  7293.157
 922  7103.36
 923  6888.517
 924  6734.083
 925  6661.158
 926  6639.489
 927  6791.428
 928  6787.935
 929  7173.829
 930  7339.129
 931  7261.465
 932  7103.848
 933  6890.793
 934  6755.284
 935  6725.274
 936  6874.157
 937  7110.908
 938  7090.366
 939  7142.183
 940  7184.574
 941  7150.064
 942  7056.989
 943  6848.966
 944  6914.231
 945  6958.546
 946  7018.304
 947  6898.89
 948  7029.72
 949  6995.977
 950  7048.735
 951  6987.796
 952  6753.327
 953  6661.387
 954  6735.992
 955  6849.761
 956  6904.436
 957  6960.18
 958  7103.838
 959  7092.574
 960  7064.774
 961  6819.472
 962  6763.381
 963  6627.899
 964  6565.163
 965  6827.733
 966  6989.784
 967  7021.856
 968  6943.532
 969  6870.241
 970  6696.358
 971  6297.942
 972  6230.459
 973  6085.47
 974  6119.504
 975  6453.069
 976  6896.254
 977  7306.615
 978  7143.167
 979  6974.655
 980  6828.678
 981  6468.04
 982  6266.093
 983  6267.589
 984  6064.733
 985  6064.734
 986  6344.907
 987  6624.731
 988  6560.287
 989  6296.471
 990  6212.499
 991  6199.071
 992  6350.784
 993  6272.262
 994  6360.963
 995  6192.376
 996  6315.489
 997  6429.465
 998  6407.086
 999  6375.638
1000  6012.53
1001  5834.461
1002  5653.035
1003  5621.72
1004  5788.771
1005  6022.573
1006  6017.948
1007  6254.872
1008  6283.924
1009  6227.238
1010  6196.376
1011  6308.317
1012  6173.696
1013  6045.744
1014  6024.63
1015  6213.727
1016  6114.085
1017  5922.417
1018  5766.665
1019  5690.366
1020  5731.505
1021  5531.276
1022  5610.877
1023  5608.583
