# Input file       =  1182419751.099498_cleaned.dat
# Candidate        =  PSR_0332+5434
# Telescope        =  AR
# Epoch_topo       =  57929.414005781226
# Epoch_bary       =  N/A
# T_sample         =  0.002
# Data Folded      =  7340032
# Data Avg         =  0.0730136333679961
# Data StdDev      =  3.27421945695347 
# Profile Bins     =  512
# Profile Avg      =  1046.81002947039 
# Profile StdDev   =  392.032237344926 
# Reduced chi-sqr  =  0.977
# Prob(Noise)      <  0.635   (~0.0 sigma)
# P_topo (ms)      =  714.494230064488  +/- 0.000365
# P'_topo (s/s)    =  -0                +/- 1.93e-10
# P''_topo (s/s^2) =  0                 +/- 8.51e-14
# P_bary (ms)      =  N/A
# P'_bary (s/s)    =  N/A
# P''_bary (s/s^2) =  N/A
# P_orb (s)        =  N/A
# asin(i)/c (s)    =  N/A
# eccentricity     =  N/A
# w (rad)          =  N/A
# T_peri           =  N/A
######################################################
   0  990.3768
   1  711.9174
   2  828.1938
   3  1113.861
   4  1074.92
   5  827.6203
   6  1086.354
   7  1286.863
   8  1190.991
   9  1259.655
  10  1411.827
  11  1445.041
  12  1107.629
  13  1147.436
  14  926.1816
  15  844.2413
  16  997.3997
  17  1024.151
  18  915.1235
  19  1052.6
  20  860.5316
  21  966.8685
  22  903.1128
  23  836.4371
  24  980.3625
  25  933.0515
  26  1272.34
  27  1062.505
  28  1017.93
  29  667.6135
  30  696.4497
  31  663.4255
  32  945.8072
  33  602.3254
  34  654.2313
  35  1019.888
  36  637.3749
  37  623.0463
  38  699.1205
  39  866.804
  40  973.8783
  41  1393.975
  42  895.4225
  43  793.054
  44  811.7341
  45  812.9561
  46  757.787
  47  951.8285
  48  1055.531
  49  991.8564
  50  1037.845
  51  982.5066
  52  996.2255
  53  851.2423
  54  889.6492
  55  845.3898
  56  1166.636
  57  915.5041
  58  1406.875
  59  1519.293
  60  1511.231
  61  1465.349
  62  1218.002
  63  1430.125
  64  1407.041
  65  1396.21
  66  1242.844
  67  1318.395
  68  1395.995
  69  1278.851
  70  1339.474
  71  1069.196
  72  1212.74
  73  1185.276
  74  1285.869
  75  922.2314
  76  826.0714
  77  1069.961
  78  1394.903
  79  1124.127
  80  1005.725
  81  1418.738
  82  1406.077
  83  849.645
  84  938.2406
  85  1028.885
  86  981.9083
  87  1009.297
  88  1191.847
  89  1286.685
  90  1487.599
  91  1433.411
  92  1264.591
  93  1232.093
  94  1283.621
  95  1212.767
  96  1460.11
  97  1119.677
  98  957.2043
  99  648.0422
 100  823.5436
 101  927.4935
 102  1086.078
 103  949.3278
 104  642.404
 105  1007.517
 106  1065.929
 107  1085.064
 108  825.518
 109  710.5906
 110  1061.825
 111  1091.103
 112  1329.181
 113  1641.96
 114  1367.663
 115  1097.536
 116  927.8716
 117  1026.931
 118  1226.776
 119  1387.053
 120  1399.567
 121  910.7741
 122  1093.167
 123  1308.327
 124  1118.009
 125  912.8062
 126  964.7092
 127  954.8583
 128  1097.082
 129  1093.498
 130  938.6757
 131  1136.658
 132  1380.833
 133  1137.605
 134  1088.158
 135  1163.709
 136  1294.685
 137  997.5855
 138  929.1615
 139  1461.632
 140  1384.416
 141  1234.445
 142  1717.324
 143  1527.814
 144  979.465
 145  900.7917
 146  1064.63
 147  1000.965
 148  1050.003
 149  1114.14
 150  911.6057
 151  662.7118
 152  645.3035
 153  925.2748
 154  1065.707
 155  928.2966
 156  740.7573
 157  556.6168
 158  771.9863
 159  700.5506
 160  1071.093
 161  997.7592
 162  636.8856
 163  912.8029
 164  970.0206
 165  759.5828
 166  714.8114
 167  878.7166
 168  941.4858
 169  1150.857
 170  1004.584
 171  702.5999
 172  1055.747
 173  939.1812
 174  994.1735
 175  879.4164
 176  1091.216
 177  816.464
 178  660.9045
 179  671.6051
 180  952.551
 181  899.3081
 182  742.1261
 183  628.9999
 184  625.9186
 185  765.6559
 186  858.5648
 187  619.3956
 188  530.9692
 189  686.7391
 190  1001.314
 191  962.725
 192  1195.044
 193  938.8544
 194  1165.812
 195  845.4857
 196  1058.183
 197  1429.534
 198  1287.268
 199  994.1328
 200  1244.185
 201  1303.444
 202  1180.263
 203  1095.065
 204  1162.34
 205  1000.153
 206  935.7694
 207  1319.911
 208  1036.871
 209  1081.286
 210  1220.244
 211  856.572
 212  957.3596
 213  1422.248
 214  1278.266
 215  1009.338
 216  894.7321
 217  986.3985
 218  1338.166
 219  1170.749
 220  1261.479
 221  1088.91
 222  1089.402
 223  1216.234
 224  1231.238
 225  1039.797
 226  1189.233
 227  1428.15
 228  1339.771
 229  770.8516
 230  855.0714
 231  982.971
 232  1289.651
 233  1113.418
 234  1143.796
 235  880.9544
 236  940.9985
 237  898.9415
 238  1074.684
 239  1123.873
 240  789.5361
 241  486.436
 242  710.463
 243  1063.972
 244  993.5503
 245  969.4235
 246  1056.971
 247  1005.952
 248  1221.289
 249  1240.724
 250  1000.57
 251  962.5936
 252  807.819
 253  1147.079
 254  1112.233
 255  1101.372
 256  1009.015
 257  713.3995
 258  761.331
 259  933.21
 260  954.1121
 261  991.5489
 262  799.0848
 263  990.0637
 264  823.7869
 265  589.7199
 266  587.0745
 267  753.8331
 268  825.2372
 269  690.8129
 270  1117.453
 271  1617.103
 272  1382.552
 273  1141.714
 274  1154.05
 275  1034.22
 276  1059.228
 277  922.3823
 278  1221.359
 279  1257.517
 280  823.4972
 281  1271.083
 282  1222.459
 283  722.9369
 284  654.288
 285  704.4012
 286  727.566
 287  1226.462
 288  1154.861
 289  929.9055
 290  711.8732
 291  1214.551
 292  1256.421
 293  1185.96
 294  946.8113
 295  919.4606
 296  1266.109
 297  1271.741
 298  1124.073
 299  1031.11
 300  864.5294
 301  905.9125
 302  895.033
 303  808.1196
 304  691.764
 305  947.1619
 306  1302.268
 307  1281.348
 308  901.558
 309  819.4382
 310  849.8915
 311  932.6776
 312  1021.252
 313  1200.686
 314  1237.788
 315  860.8322
 316  902.6229
 317  1345.987
 318  1257.138
 319  1195.316
 320  1552.396
 321  1284.833
 322  1044.634
 323  1626.99
 324  1940.386
 325  2189.022
 326  2439.238
 327  2802.58
 328  2955.863
 329  2274.449
 330  1389.46
 331  911.1304
 332  886.4821
 333  803.7706
 334  855.6936
 335  750.6461
 336  720.7994
 337  957.7933
 338  872.7645
 339  1040.058
 340  1091.128
 341  1133.855
 342  1129.069
 343  710.5406
 344  779.0905
 345  845.0186
 346  1066.218
 347  835.5483
 348  552.0455
 349  779.0648
 350  975.4155
 351  901.4264
 352  840.3116
 353  1008.918
 354  1010.194
 355  1021.315
 356  1191.035
 357  778.5625
 358  934.5876
 359  1054.05
 360  884.5626
 361  1380.221
 362  1340.063
 363  1025.587
 364  1135.839
 365  1300.03
 366  1001.697
 367  889.8
 368  1121.194
 369  1145.536
 370  995.847
 371  981.3984
 372  1091.819
 373  1247.61
 374  898.7185
 375  1083.289
 376  1188.771
 377  1414.947
 378  917.1226
 379  862.1239
 380  1070.636
 381  1109.19
 382  1125.986
 383  1433.488
 384  1473.306
 385  1270.886
 386  1039.677
 387  1037.367
 388  853.6982
 389  844.9734
 390  1140.875
 391  1218.959
 392  969.0195
 393  1165.669
 394  854.9787
 395  747.3224
 396  638.8155
 397  625.7964
 398  616.8264
 399  717.059
 400  735.252
 401  1127.805
 402  1001.564
 403  1272.101
 404  1280.512
 405  942.6199
 406  996.7788
 407  951.2012
 408  1027.21
 409  1168.861
 410  1096.354
 411  849.0477
 412  1140.972
 413  1093.031
 414  592.7988
 415  789.6248
 416  873.985
 417  837.2877
 418  1116.059
 419  1225.671
 420  1434.577
 421  713.3501
 422  467.0022
 423  707.3726
 424  855.2486
 425  799.9791
 426  802.582
 427  1033.417
 428  1401.474
 429  1364.054
 430  1089.761
 431  1035.601
 432  1073.772
 433  1015.822
 434  1121.254
 435  1089.988
 436  1327.038
 437  1371.532
 438  1373.854
 439  1450.735
 440  1398.192
 441  988.3547
 442  1188.33
 443  985.8947
 444  1356.885
 445  1487.374
 446  1239.687
 447  1375.685
 448  1333.872
 449  1239.248
 450  1384.772
 451  1216.284
 452  1306.022
 453  1474.158
 454  1534.242
 455  1528.542
 456  1384.723
 457  1080.376
 458  1170.632
 459  1288.348
 460  1271.656
 461  994.3639
 462  1350.979
 463  1528.417
 464  1128.927
 465  918.8461
 466  693.9052
 467  924.0066
 468  887.6711
 469  666.0105
 470  952.0777
 471  986.7137
 472  1121.479
 473  1040.955
 474  1164.859
 475  998.0725
 476  1000.525
 477  882.7238
 478  1101.084
 479  1038.122
 480  673.5003
 481  797.1973
 482  799.5954
 483  885.3374
 484  1063.73
 485  725.3098
 486  768.4302
 487  941.0424
 488  842.151
 489  879.1448
 490  888.8093
 491  1032.633
 492  945.3452
 493  1197.577
 494  989.5479
 495  932.52
 496  981.8788
 497  812.6232
 498  575.6402
 499  409.2083
 500  578.5648
 501  826.2415
 502  846.4172
 503  1261.809
 504  930.4387
 505  229.2646
 506  505.2173
 507  879.0417
 508  872.5482
 509  1179.658
 510  1185.519
 511  1339.064
