# Input file       =  1182404838.106733_cleaned.dat
# Candidate        =  PSR_0332+5434
# Telescope        =  AR
# Epoch_topo       =  57929.241401698302
# Epoch_bary       =  N/A
# T_sample         =  0.002
# Data Folded      =  7340032
# Data Avg         =  0.0469556174057087
# Data StdDev      =  1.00014711564416 
# Profile Bins     =  512
# Profile Avg      =  673.146920772724 
# Profile StdDev   =  119.75065097954  
# Reduced chi-sqr  =  1.063
# Prob(Noise)      <  0.157   (~1.0 sigma)
# P_topo (ms)      =  714.494044424056  +/- 0.000233
# P'_topo (s/s)    =  -0                +/- 1.23e-10
# P''_topo (s/s^2) =  0                 +/- 5.42e-14
# P_bary (ms)      =  N/A
# P'_bary (s/s)    =  N/A
# P''_bary (s/s^2) =  N/A
# P_orb (s)        =  N/A
# asin(i)/c (s)    =  N/A
# eccentricity     =  N/A
# w (rad)          =  N/A
# T_peri           =  N/A
######################################################
   0  677.2885
   1  847.2753
   2  984.3556
   3  984.9036
   4  872.8474
   5  853.976
   6  787.5877
   7  744.2852
   8  665.3176
   9  762.6227
  10  795.8665
  11  693.2997
  12  626.4297
  13  683.7627
  14  633.4184
  15  679.118
  16  686.1747
  17  565.5304
  18  589.6929
  19  658.5227
  20  781.4933
  21  724.2713
  22  668.6486
  23  600.1502
  24  568.5305
  25  539.7198
  26  598.8558
  27  633.7067
  28  659.2399
  29  670.2498
  30  699.9919
  31  736.6097
  32  708.6785
  33  692.3654
  34  639.4319
  35  648.3206
  36  687.219
  37  688.5444
  38  669.3108
  39  624.8998
  40  643.6093
  41  721.6906
  42  757.2859
  43  702.4647
  44  699.9111
  45  643.5668
  46  677.303
  47  754.5446
  48  624.0856
  49  653.9799
  50  644.7916
  51  678.9869
  52  636.1871
  53  626.2207
  54  722.263
  55  708.582
  56  702.2247
  57  660.532
  58  532.1613
  59  520.2132
  60  469.2015
  61  442.2314
  62  580.715
  63  602.9614
  64  540.45
  65  474.7021
  66  554.1583
  67  547.982
  68  560.4825
  69  506.4617
  70  525.5323
  71  505.65
  72  557.0565
  73  610.928
  74  599.4001
  75  481.95
  76  561.8788
  77  568.9222
  78  526.153
  79  477.46
  80  512.4318
  81  555.8936
  82  673.3058
  83  721.8726
  84  649.1276
  85  619.2672
  86  586.0777
  87  707.4076
  88  683.9397
  89  683.893
  90  698.4123
  91  669.9803
  92  550.2651
  93  617.6623
  94  691.8432
  95  638.4011
  96  614.4847
  97  573.2023
  98  572.9957
  99  641.0889
 100  667.9952
 101  659.2388
 102  555.7514
 103  589.8817
 104  633.8711
 105  589.4813
 106  630.1623
 107  621.9952
 108  595.9393
 109  550.0003
 110  542.8027
 111  607.3844
 112  565.1014
 113  594.8387
 114  530.0813
 115  602.7136
 116  677.1205
 117  774.0143
 118  864.9758
 119  1035.715
 120  1169.678
 121  1086.68
 122  1052.672
 123  1052.767
 124  801.2068
 125  594.5463
 126  674.2811
 127  666.728
 128  634.0277
 129  619.0707
 130  671.9006
 131  800.3762
 132  774.2456
 133  722.7394
 134  764.1067
 135  820.223
 136  759.0537
 137  720.7977
 138  692.3558
 139  661.8817
 140  630.3926
 141  620.3823
 142  647.2034
 143  739.7833
 144  696.2523
 145  606.1041
 146  598.173
 147  617.0296
 148  620.9371
 149  553.6335
 150  650.3048
 151  647.0865
 152  493.8683
 153  532.7256
 154  596.4103
 155  579.5405
 156  662.5482
 157  629.3885
 158  616.7571
 159  577.2896
 160  643.1992
 161  675.8242
 162  623.423
 163  613.4559
 164  550.9622
 165  579.7731
 166  688.3776
 167  651.403
 168  697.508
 169  742.718
 170  697.4521
 171  666.081
 172  700.0639
 173  770.2842
 174  827.5046
 175  776.532
 176  642.957
 177  670.703
 178  622.5782
 179  658.2538
 180  591.1169
 181  596.9122
 182  648.0658
 183  671.3913
 184  730.2709
 185  663.218
 186  542.3636
 187  662.3451
 188  608.3925
 189  613.1471
 190  643.7934
 191  679.6273
 192  681.0284
 193  751.1609
 194  708.1322
 195  589.2703
 196  609.7897
 197  623.6902
 198  601.0382
 199  630.5129
 200  616.0922
 201  624.997
 202  557.7341
 203  596.9196
 204  616.2576
 205  627.4789
 206  635.1532
 207  643.8854
 208  572.6773
 209  577.8488
 210  597.5585
 211  577.3162
 212  570.2244
 213  593.6548
 214  734.1063
 215  756.1175
 216  724.655
 217  705.2091
 218  730.4789
 219  626.4431
 220  750.7361
 221  740.9394
 222  722.704
 223  705.8496
 224  675.129
 225  714.9764
 226  738.1957
 227  663.2072
 228  575.4855
 229  531.1504
 230  574.5803
 231  576.8974
 232  520.3401
 233  581.3243
 234  625.9841
 235  642.4261
 236  689.2325
 237  650.5446
 238  758.97
 239  728.7878
 240  718.9691
 241  690.3287
 242  708.4095
 243  713.2469
 244  654.0979
 245  595.8593
 246  618.2932
 247  585.7303
 248  597.9569
 249  586.1039
 250  648.1847
 251  715.5467
 252  662.3779
 253  644.4824
 254  737.0944
 255  793.9301
 256  776.0311
 257  735.6517
 258  687.5027
 259  755.7611
 260  765.567
 261  716.5916
 262  665.6974
 263  599.838
 264  667.1547
 265  733.6216
 266  719.7083
 267  770.993
 268  640.7557
 269  642.1498
 270  672.2206
 271  653.6633
 272  713.919
 273  729.6649
 274  785.7118
 275  785.9875
 276  712.9767
 277  739.9139
 278  705.2667
 279  614.9548
 280  668.4653
 281  589.5537
 282  564.6721
 283  607.0589
 284  548.8352
 285  585.5533
 286  635.6326
 287  721.2876
 288  605.6085
 289  664.6868
 290  602.2405
 291  653.4478
 292  704.7839
 293  653.6954
 294  702.8145
 295  652.4454
 296  689.7356
 297  706.5793
 298  657.8369
 299  681.6104
 300  819.4578
 301  770.9233
 302  785.1863
 303  847.7929
 304  801.7664
 305  681.5112
 306  737.0828
 307  849.0417
 308  827.3979
 309  837.7056
 310  809.4904
 311  780.4982
 312  792.0143
 313  765.0092
 314  660.804
 315  658.139
 316  633.5142
 317  652.2234
 318  762.0762
 319  631.4015
 320  605.0024
 321  599.4315
 322  666.6604
 323  703.1201
 324  703.684
 325  671.2786
 326  670.8976
 327  680.5135
 328  795.3619
 329  675.8212
 330  650.8132
 331  637.71
 332  691.9373
 333  683.2865
 334  674.7822
 335  685.752
 336  572.3536
 337  541.4822
 338  602.923
 339  673.1658
 340  762.662
 341  683.6392
 342  805.8853
 343  831.6573
 344  721.1571
 345  677.0981
 346  708.7449
 347  766.415
 348  674.4459
 349  706.5076
 350  724.7951
 351  701.109
 352  710.9502
 353  676.3102
 354  797.7686
 355  873.261
 356  741.042
 357  617.6464
 358  694.863
 359  601.2511
 360  614.949
 361  563.1735
 362  613.9403
 363  663.7357
 364  696.4485
 365  705.9492
 366  586.0795
 367  502.2361
 368  517.575
 369  575.0593
 370  612.8317
 371  672.5221
 372  721.92
 373  649.623
 374  613.2141
 375  670.6176
 376  719.1163
 377  672.286
 378  669.5119
 379  705.0918
 380  698.0583
 381  644.7881
 382  614.1368
 383  608.478
 384  640.7575
 385  759.3854
 386  729.4062
 387  783.5538
 388  747.2734
 389  691.4254
 390  789.1371
 391  740.5349
 392  768.9226
 393  777.8964
 394  759.315
 395  728.4048
 396  703.5024
 397  728.8768
 398  740.3106
 399  794.2982
 400  816.9739
 401  717.6105
 402  691.698
 403  725.58
 404  584.8173
 405  588.7318
 406  661.8174
 407  729.7753
 408  723.5689
 409  588.7543
 410  686.9826
 411  655.4952
 412  627.2795
 413  621.3946
 414  579.0804
 415  534.7311
 416  535.0251
 417  642.8427
 418  696.3587
 419  705.707
 420  506.476
 421  511.5126
 422  591.1716
 423  688.6785
 424  685.4966
 425  737.4438
 426  805.7402
 427  709.3177
 428  627.3006
 429  609.134
 430  700.8085
 431  660.9904
 432  646.5231
 433  649.7398
 434  681.7017
 435  616.299
 436  631.6416
 437  622.4109
 438  585.5131
 439  636.925
 440  565.876
 441  623.5396
 442  684.2831
 443  645.0432
 444  709.4539
 445  634.5707
 446  551.9103
 447  580.5077
 448  703.2181
 449  650.143
 450  618.2021
 451  629.7364
 452  603.4659
 453  654.6609
 454  674.3266
 455  630.5223
 456  663.6447
 457  615.2883
 458  663.1147
 459  708.1081
 460  682.1218
 461  660.0031
 462  749.6026
 463  771.1406
 464  840.4258
 465  745.9958
 466  746.4785
 467  775.0972
 468  784.9714
 469  769.284
 470  737.2314
 471  771.0609
 472  813.9796
 473  739.4881
 474  750.7272
 475  853.7873
 476  841.2899
 477  859.8917
 478  795.0116
 479  662.4655
 480  726.1669
 481  708.5164
 482  693.9786
 483  701.5398
 484  725.3383
 485  760.6966
 486  795.4482
 487  750.2349
 488  774.8491
 489  707.6705
 490  589.3163
 491  619.1151
 492  688.9877
 493  737.2293
 494  698.0253
 495  645.5981
 496  637.822
 497  637.5997
 498  618.895
 499  656.636
 500  700.3355
 501  615.9237
 502  580.661
 503  616.7136
 504  666.5986
 505  678.314
 506  776.5637
 507  791.5626
 508  738.4604
 509  705.9044
 510  662.4909
 511  706.5419
