# Input file       =  1182243875.12681_cleaned.dat
# Candidate        =  PSR_0332+5434
# Telescope        =  AR
# Epoch_topo       =  57927.378404245486
# Epoch_bary       =  N/A
# T_sample         =  0.002
# Data Folded      =  7340032
# Data Avg         =  0.695360355132182
# Data StdDev      =  13.340318844968  
# Profile Bins     =  512
# Profile Avg      =  9968.66834280873 
# Profile StdDev   =  1597.27688154221 
# Reduced chi-sqr  =  0.649
# Prob(Noise)      <  1   (~0.0 sigma)
# P_topo (ms)      =  714.495908519743  +/- 0.000934
# P'_topo (s/s)    =  -0                +/- 4.93e-10
# P''_topo (s/s^2) =  0                 +/- 2.17e-13
# P_bary (ms)      =  N/A
# P'_bary (s/s)    =  N/A
# P''_bary (s/s^2) =  N/A
# P_orb (s)        =  N/A
# asin(i)/c (s)    =  N/A
# eccentricity     =  N/A
# w (rad)          =  N/A
# T_peri           =  N/A
######################################################
   0  8970.097
   1  8759.51
   2  9265.604
   3  10206.67
   4  10666.26
   5  10488.35
   6  9960.703
   7  10178.09
   8  10573.42
   9  10494.26
  10  9585.12
  11  8857.521
  12  8603.734
  13  8908.908
  14  9663.361
  15  10240.69
  16  10120.58
  17  10203.08
  18  9791.458
  19  9253.053
  20  8879.248
  21  9862.898
  22  10098.57
  23  10069.58
  24  10051.08
  25  9780.173
  26  9824.9
  27  10457.53
  28  10324.24
  29  9875.142
  30  9968.104
  31  10485.05
  32  10283.79
  33  10130.26
  34  9332.731
  35  9721.603
  36  10404.94
  37  9672.116
  38  8829.996
  39  8574.341
  40  8082.667
  41  8090.137
  42  8005.613
  43  8765.478
  44  8331.545
  45  8913.116
  46  9769.507
  47  9181.439
  48  8696.241
  49  8212.408
  50  8950.701
  51  10060.54
  52  9977.118
  53  9364.099
  54  9005.503
  55  8947.042
  56  9366.7
  57  9235.977
  58  9028.639
  59  9110.383
  60  9282.557
  61  9501.271
  62  9559.626
  63  9445.416
  64  9271.656
  65  9522.117
  66  9603.28
  67  9834.743
  68  9744.801
  69  10362.29
  70  10902.32
  71  11304.43
  72  11149.32
  73  11308.85
  74  11742.75
  75  11458.65
  76  11124.54
  77  10959.19
  78  11136.08
  79  11612.61
  80  11879.3
  81  12857.69
  82  12708.31
  83  12403.12
  84  11753.93
  85  11515.37
  86  12227.9
  87  11855.87
  88  11182.3
  89  11499.12
  90  11871.95
  91  11872.66
  92  11320.93
  93  10739.41
  94  10426.96
  95  10524.6
  96  10488.41
  97  10634.02
  98  10920.83
  99  10577.69
 100  10683.5
 101  10545.17
 102  10374.98
 103  11086.52
 104  12045.3
 105  11654.39
 106  10942
 107  11171.37
 108  11712.63
 109  11417.21
 110  10908.18
 111  10520.58
 112  10493.59
 113  10350.27
 114  10761.67
 115  11068.06
 116  11063.38
 117  10614.4
 118  10172.53
 119  10516.62
 120  11261.14
 121  12026.48
 122  11943.29
 123  11726.98
 124  11081.49
 125  11547.31
 126  11760.22
 127  11785.73
 128  11547.37
 129  11351.93
 130  10434.33
 131  9683.043
 132  10213.67
 133  10470.46
 134  10496.93
 135  9734.292
 136  9387.54
 137  9976.208
 138  10139.35
 139  9553.254
 140  9470.501
 141  9143.03
 142  9241.892
 143  9296.851
 144  9943.535
 145  10929.78
 146  9737.78
 147  9338.17
 148  10101.42
 149  9728.025
 150  9130.964
 151  9428.963
 152  8359.652
 153  8531.704
 154  8818.178
 155  8883.3
 156  9459.667
 157  9583.873
 158  9655.615
 159  9414.413
 160  9707.34
 161  10303.5
 162  10576.45
 163  10360.37
 164  10524.39
 165  10696.07
 166  10840.28
 167  10144.69
 168  10291.8
 169  9908.163
 170  9851.91
 171  9656.488
 172  9275.84
 173  9931.795
 174  9880.86
 175  9954.938
 176  10445.97
 177  11453.89
 178  11071.29
 179  10663.19
 180  11061.57
 181  11032.86
 182  10154.26
 183  9453.561
 184  9409.964
 185  10357.24
 186  10564.99
 187  10040.6
 188  9780.144
 189  9977.21
 190  9843.982
 191  9992.669
 192  9759.375
 193  10077.45
 194  10843.55
 195  10958.07
 196  10623.93
 197  10745.01
 198  10786.17
 199  10905.49
 200  10840.83
 201  9846.357
 202  10015.62
 203  10183.18
 204  10772.43
 205  10787.25
 206  10201.44
 207  10064.55
 208  10063.06
 209  9983.842
 210  9505.657
 211  8702.516
 212  8912.453
 213  9320.17
 214  9554.401
 215  9533.714
 216  9289.211
 217  9060.17
 218  9055.448
 219  8805.538
 220  9231.941
 221  8936.231
 222  8948.093
 223  8673.647
 224  8794.527
 225  8326.815
 226  8427.839
 227  8689.073
 228  9282.364
 229  9575.175
 230  9004.7
 231  9268.715
 232  8631.976
 233  9138.431
 234  9147.662
 235  8765.062
 236  8842.222
 237  9506.458
 238  10106.46
 239  10569.65
 240  9787.878
 241  9333.037
 242  9684.018
 243  10067.15
 244  9736.702
 245  9330.844
 246  9627.54
 247  9433.527
 248  9361.189
 249  8674.877
 250  8284.771
 251  8723.526
 252  9385.952
 253  9378.467
 254  9550.094
 255  9167.276
 256  9474.448
 257  9947.985
 258  10372.43
 259  9631.317
 260  8950.063
 261  8942.667
 262  9850.052
 263  9765.36
 264  9419.513
 265  9392.011
 266  9571
 267  9117.709
 268  8998.723
 269  9383.865
 270  9519.546
 271  9489.31
 272  9744.817
 273  9327.812
 274  8333.126
 275  8539.132
 276  8918.517
 277  8917.343
 278  8674.132
 279  9034.595
 280  9367.84
 281  9484.663
 282  8987.065
 283  8747.443
 284  9121.959
 285  9394.025
 286  9597.252
 287  9431.505
 288  9301.788
 289  9119.017
 290  8847.026
 291  9391.015
 292  10336.96
 293  10280.21
 294  10238.26
 295  9863.307
 296  9792.32
 297  9328.987
 298  9281.826
 299  10054.46
 300  10338.33
 301  10294.32
 302  9543.39
 303  9294.391
 304  9048.345
 305  9826.52
 306  10301.06
 307  9478.139
 308  9300.601
 309  9414.254
 310  9439.831
 311  8592.845
 312  8490.728
 313  8993.511
 314  9464.844
 315  9683.837
 316  9922.185
 317  9722.366
 318  10441.15
 319  11127.38
 320  11144.93
 321  10803.37
 322  9664.152
 323  10246.26
 324  10540.61
 325  11107.52
 326  11412.94
 327  11283.55
 328  11407.51
 329  11016.76
 330  10798.8
 331  10909.03
 332  10985.81
 333  10623.29
 334  10191.78
 335  9967.175
 336  9642.158
 337  9933.993
 338  10113.05
 339  10449.94
 340  10435.97
 341  10631.8
 342  11374.88
 343  10952.03
 344  9870.824
 345  9488.809
 346  10098.94
 347  10222.6
 348  10912.13
 349  10987.73
 350  10140.11
 351  9481.592
 352  9002.823
 353  9599.607
 354  10095.45
 355  9180.595
 356  8740.899
 357  9017.771
 358  8856.856
 359  8817.015
 360  8447.42
 361  9142.621
 362  9568.37
 363  9223.622
 364  8686.576
 365  8433.861
 366  9058.916
 367  9414.432
 368  8965.504
 369  9209.148
 370  9584.853
 371  9436.053
 372  10208.01
 373  9339.02
 374  9445.647
 375  9333.762
 376  9658.896
 377  10249.24
 378  9534.444
 379  9540.571
 380  10309.49
 381  11139.71
 382  11371.33
 383  11137.94
 384  11001.79
 385  10516.11
 386  10482.16
 387  10298.2
 388  10161.29
 389  10228.47
 390  10417.76
 391  10660.48
 392  10692.78
 393  10455.75
 394  10320.19
 395  11224.22
 396  10825.94
 397  11345.99
 398  10496.8
 399  10492.88
 400  10600.44
 401  10371.42
 402  10187.48
 403  10090.22
 404  10337.47
 405  10712.36
 406  10090.93
 407  9331.936
 408  9323.104
 409  9697.698
 410  10162.41
 411  9723.124
 412  9331.19
 413  9431.977
 414  10311.08
 415  10531.05
 416  10569.92
 417  10349.1
 418  9582.246
 419  10127.05
 420  10831.88
 421  10326.73
 422  10131.19
 423  9917.347
 424  9783.56
 425  10310.32
 426  10498.86
 427  10831.48
 428  11136.92
 429  12030.69
 430  12105.28
 431  12051.04
 432  12465.19
 433  13138.2
 434  12682.68
 435  12092
 436  11508.25
 437  11358.87
 438  12015.93
 439  11653.59
 440  11402.38
 441  11240.12
 442  10886.25
 443  10490.05
 444  11198.49
 445  11496.07
 446  11551.17
 447  10875.05
 448  11190.09
 449  10710.38
 450  10351.63
 451  9848.79
 452  10632.8
 453  10760.62
 454  10346.49
 455  9764.786
 456  9532.363
 457  10106.24
 458  10774.12
 459  10248.29
 460  10071.24
 461  9802.691
 462  10390.2
 463  10129.81
 464  9346.889
 465  9098.556
 466  9311.281
 467  9927.755
 468  9992.164
 469  9826.556
 470  9519.264
 471  9324.335
 472  8688.548
 473  8917.094
 474  8877.102
 475  8656.099
 476  9666.865
 477  10199.93
 478  10182.04
 479  9167.793
 480  8787.181
 481  9283.264
 482  9791.322
 483  8722.69
 484  8604.237
 485  8499.454
 486  9226.826
 487  9378.826
 488  8533.521
 489  8349.457
 490  8929.997
 491  8450.671
 492  8411.308
 493  8825.717
 494  8191.272
 495  8153.862
 496  8708.804
 497  9366.272
 498  9080.86
 499  8716.54
 500  8560.421
 501  8664.735
 502  9352.267
 503  9476.915
 504  9566.87
 505  9566.454
 506  9895.278
 507  9398.464
 508  9353.945
 509  8622.229
 510  9172.186
 511  9051.757
