# Input file       =  1182663277.113445_cleaned.dat
# Candidate        =  PSR_0332+5434
# Telescope        =  AR
# Epoch_topo       =  57932.232593905617
# Epoch_bary       =  N/A
# T_sample         =  0.002
# Data Folded      =  7340032
# Data Avg         =  0.115435850414672
# Data StdDev      =  3.09406831938147 
# Profile Bins     =  512
# Profile Avg      =  1654.89602161503 
# Profile StdDev   =  370.462194636702 
# Reduced chi-sqr  =  1.175
# Prob(Noise)      <  0.00373   (~2.7 sigma)
# P_topo (ms)      =  714.491504407578  +/- 6.95e-05
# P'_topo (s/s)    =  -0                +/- 3.67e-11
# P''_topo (s/s^2) =  0                 +/- 1.62e-14
# P_bary (ms)      =  N/A
# P'_bary (s/s)    =  N/A
# P''_bary (s/s^2) =  N/A
# P_orb (s)        =  N/A
# asin(i)/c (s)    =  N/A
# eccentricity     =  N/A
# w (rad)          =  N/A
# T_peri           =  N/A
######################################################
   0  961.2662
   1  1186.388
   2  1267.46
   3  1161.861
   4  1296.178
   5  1315.988
   6  1225.002
   7  1106.517
   8  1293.784
   9  1487.932
  10  1579.941
  11  1497.248
  12  1593.892
  13  1478.808
  14  1178.905
  15  1310.087
  16  1369.527
  17  1531.872
  18  1306.445
  19  1213.324
  20  1326.6
  21  1630.881
  22  1492.253
  23  1320.156
  24  1520.79
  25  1448.715
  26  1283.677
  27  1407.449
  28  1251.684
  29  936.5986
  30  1098.638
  31  1238.259
  32  1524.587
  33  1562.048
  34  1274.839
  35  1435.222
  36  1320.08
  37  1189.517
  38  1461.031
  39  1330.467
  40  1380.096
  41  1702.69
  42  1446.266
  43  1545.645
  44  1425.961
  45  1634.328
  46  1828.797
  47  1395.703
  48  1215.825
  49  1373.836
  50  1675.721
  51  1650.329
  52  1606.406
  53  1569
  54  1814.063
  55  1750.482
  56  1711.202
  57  1617.24
  58  1520.097
  59  1745.733
  60  1852.781
  61  1710.257
  62  1416.533
  63  1439.159
  64  1504.811
  65  1529.846
  66  1627.915
  67  1592.785
  68  1391.025
  69  1485.039
  70  1285.666
  71  1541.924
  72  1199.016
  73  1378.191
  74  1604.636
  75  1606.165
  76  1637.769
  77  1720.564
  78  2064.815
  79  1918.759
  80  1870.675
  81  1978.031
  82  1850.917
  83  1963.471
  84  2129.011
  85  2077.024
  86  1793.156
  87  1826.15
  88  1835.746
  89  1766.823
  90  1694.224
  91  1398.091
  92  1255.736
  93  1340.932
  94  1756.358
  95  1687.31
  96  1413.311
  97  1274.921
  98  1224.303
  99  1340.168
 100  1399.215
 101  1463.914
 102  1462.6
 103  1654.882
 104  2024.286
 105  1833.518
 106  1883.432
 107  1773.996
 108  1928.269
 109  1878.391
 110  1556.357
 111  1415.591
 112  1357.612
 113  1550.82
 114  1664.146
 115  1484.29
 116  1599.092
 117  1856.977
 118  1627.808
 119  1467.344
 120  1541.765
 121  1442.428
 122  1597.335
 123  1665.268
 124  1762.599
 125  1498.661
 126  1363.357
 127  1554.704
 128  1824.772
 129  1479.903
 130  1378.824
 131  1398.074
 132  1707.076
 133  1605.284
 134  1292.101
 135  1451.785
 136  1781.581
 137  1660.776
 138  1646.32
 139  1457.707
 140  1390.035
 141  1676.647
 142  1918.323
 143  1642.536
 144  1546.305
 145  1907.718
 146  1630.627
 147  1718.973
 148  1563.203
 149  1699.637
 150  1883.153
 151  2173.233
 152  2091.448
 153  1857.348
 154  1554.795
 155  1628.955
 156  1547.845
 157  1796.3
 158  1672.556
 159  1518.82
 160  1726.758
 161  1886.454
 162  2031.562
 163  1953.766
 164  1829.904
 165  1704.899
 166  1810.304
 167  2058.918
 168  1936.296
 169  1754.604
 170  1518.862
 171  1400.613
 172  1803.107
 173  1548.832
 174  1574.824
 175  2003.616
 176  1620.91
 177  1410.554
 178  1699.871
 179  1515.109
 180  1660.081
 181  1759.87
 182  1708.262
 183  1721.345
 184  1708.415
 185  1913.002
 186  1900.776
 187  1789.463
 188  1847.954
 189  1894.206
 190  1780.423
 191  1787.069
 192  1752.134
 193  1899.58
 194  1970.021
 195  2158.855
 196  2139.371
 197  1654.736
 198  1435.373
 199  1579.404
 200  1727.163
 201  1694.133
 202  1738.244
 203  2054.607
 204  2116.742
 205  1987.507
 206  1966.501
 207  1869.026
 208  2080.034
 209  2198.653
 210  2269.468
 211  1695.423
 212  1457.62
 213  1862.72
 214  1987.507
 215  1565.897
 216  1659.995
 217  1692.501
 218  2000.231
 219  1905.783
 220  1518.256
 221  1362.872
 222  1449.89
 223  1404.063
 224  1615.183
 225  1440.067
 226  1476.63
 227  1382.956
 228  1492.776
 229  1610.219
 230  1792.296
 231  1888.637
 232  1954.951
 233  1910.035
 234  1718.507
 235  1538.974
 236  1744.702
 237  1738.072
 238  1835.004
 239  1417.309
 240  1418.212
 241  1702.586
 242  1911.871
 243  1818.025
 244  1582.88
 245  1876.301
 246  1901.793
 247  1748.972
 248  1704.855
 249  1868.798
 250  1847.862
 251  1801.391
 252  1531.844
 253  1418.551
 254  1426.264
 255  1323.82
 256  1567.916
 257  1617.824
 258  1498.76
 259  1319.891
 260  1372.793
 261  1553.173
 262  1872.662
 263  1830.578
 264  1596.323
 265  1695.705
 266  1841.465
 267  1962.826
 268  1528.671
 269  1582.056
 270  1815.731
 271  2115.374
 272  1728.779
 273  1599.768
 274  1385.991
 275  1289.266
 276  1385.484
 277  1486.264
 278  1874.623
 279  1561.405
 280  1649.39
 281  1821.268
 282  1799.15
 283  1530.495
 284  1640.332
 285  1945.541
 286  1890.319
 287  2011.403
 288  1888.971
 289  1591.883
 290  1711.088
 291  1916.419
 292  1853.263
 293  1699.327
 294  1984.499
 295  2063.729
 296  1846.459
 297  1553.903
 298  1584.645
 299  1764.481
 300  1962.869
 301  1546.317
 302  1760.602
 303  2068.442
 304  1797.923
 305  1750.456
 306  1702.682
 307  2011.475
 308  2064.926
 309  2456.284
 310  2372.897
 311  1762.582
 312  1778.344
 313  1875.926
 314  1948.488
 315  2083.472
 316  2184.238
 317  1982.771
 318  2287.137
 319  2592.981
 320  2612.067
 321  2767.08
 322  3291.712
 323  3813.81
 324  3379.07
 325  2729.504
 326  2093.761
 327  1719.108
 328  2120.025
 329  2084.355
 330  1626.684
 331  1812.17
 332  1961.823
 333  1907.857
 334  1719.042
 335  1848.142
 336  1880.272
 337  1653.97
 338  1781.744
 339  1743.34
 340  1801.39
 341  1393.849
 342  1375.68
 343  1595.617
 344  1538.528
 345  1471.069
 346  1514.901
 347  1515.002
 348  1580.933
 349  1243.424
 350  1433.68
 351  1461.567
 352  1465.036
 353  1643.699
 354  1561.044
 355  1312.4
 356  1495.456
 357  1726.93
 358  1854.372
 359  1641.288
 360  1570.232
 361  1679.683
 362  1636.759
 363  1258.877
 364  1416.269
 365  1323.717
 366  1477.972
 367  1566.184
 368  1288.75
 369  1370.51
 370  1523.449
 371  1712.123
 372  1500.136
 373  1399.058
 374  1547.196
 375  1726.077
 376  1687.415
 377  1623.48
 378  1407.755
 379  1546.573
 380  1743.102
 381  1632.818
 382  1913.52
 383  1858.99
 384  1636.309
 385  1832.01
 386  1983.456
 387  1608.743
 388  1684.513
 389  1851.279
 390  1674.707
 391  1809.813
 392  1748.059
 393  1862.208
 394  1598.241
 395  1539.481
 396  1557.304
 397  1257.156
 398  1349.398
 399  1954.23
 400  1979.249
 401  1761.033
 402  1751.48
 403  1947.333
 404  1809.973
 405  1836.807
 406  1763.76
 407  1677.292
 408  1571.361
 409  1841.357
 410  1673.412
 411  1448.79
 412  1582.281
 413  1571.987
 414  1408.975
 415  1593.936
 416  1777.485
 417  1568.828
 418  1628.167
 419  1584.27
 420  1927.659
 421  1727.115
 422  1815.708
 423  2061.013
 424  1970.395
 425  1711.494
 426  1638.721
 427  1500.806
 428  1655.734
 429  1611.981
 430  1671.17
 431  1623.992
 432  1556.512
 433  1782.055
 434  1761.979
 435  2027.977
 436  1665.287
 437  1615.563
 438  1644.693
 439  1453.911
 440  1422.368
 441  1202.861
 442  1131.817
 443  1440.583
 444  1415.667
 445  1448.854
 446  1438.523
 447  1381.057
 448  1551.434
 449  1666.324
 450  1242.952
 451  1295.296
 452  1526.954
 453  1593.689
 454  1321.638
 455  1571.525
 456  1549.063
 457  1509.884
 458  1781.897
 459  1686.997
 460  1503.468
 461  1536.901
 462  1772.785
 463  1864.429
 464  1577.346
 465  1500.643
 466  1484.368
 467  1648.326
 468  1922.656
 469  1594.407
 470  1296.648
 471  1496.002
 472  1470.838
 473  1413.031
 474  1154.791
 475  1203.294
 476  1227.894
 477  1381.325
 478  1398.565
 479  1471.34
 480  1487.16
 481  1552.032
 482  1478.273
 483  1358.857
 484  1177.779
 485  1331.896
 486  1662.974
 487  1757.689
 488  1502.398
 489  1351.532
 490  1327.256
 491  1718.276
 492  1708.481
 493  1511.583
 494  1453.448
 495  1901.806
 496  1838.78
 497  1765.86
 498  1815.09
 499  1790.402
 500  1800.143
 501  1698.869
 502  1349.818
 503  1200.551
 504  1523.66
 505  1873.927
 506  1787.698
 507  1654.214
 508  1343.463
 509  1424.985
 510  1294.969
 511  1237.313
