# Input file       =  1182562564.1136_cleaned.dat
# Candidate        =  PSR_0332+5434
# Telescope        =  AR
# Epoch_topo       =  57931.066934185183
# Epoch_bary       =  N/A
# T_sample         =  0.002
# Data Folded      =  7143424
# Data Avg         =  0.207073993670088
# Data StdDev      =  4.79136399655704 
# Profile Bins     =  1024
# Profile Avg      =  1444.53319734688 
# Profile StdDev   =  400.186469758513 
# Reduced chi-sqr  =  0.490
# Prob(Noise)      <  1   (~0.0 sigma)
# P_topo (ms)      =  714.4924712908    +/- 8.79e-05
# P'_topo (s/s)    =  -0                +/- 4.76e-11
# P''_topo (s/s^2) =  0                 +/- 2.16e-14
# P_bary (ms)      =  N/A
# P'_bary (s/s)    =  N/A
# P''_bary (s/s^2) =  N/A
# P_orb (s)        =  N/A
# asin(i)/c (s)    =  N/A
# eccentricity     =  N/A
# w (rad)          =  N/A
# T_peri           =  N/A
######################################################
   0  1597.906
   1  1425.518
   2  1352.736
   3  1383.571
   4  1342.336
   5  1262.724
   6  1137.862
   7  1078.287
   8  1128.341
   9  1241.373
  10  1418.411
  11  1478.071
  12  1572.46
  13  1616.104
  14  1649.272
  15  1671.873
  16  1636.153
  17  1607.207
  18  1568.826
  19  1525.204
  20  1413.655
  21  1361.794
  22  1195.09
  23  1351.475
  24  1395.524
  25  1591.672
  26  1524.548
  27  1600.552
  28  1666.501
  29  1662.123
  30  1488.683
  31  1434.856
  32  1516.375
  33  1531.542
  34  1452.389
  35  1305.958
  36  1294.162
  37  1337.192
  38  1456.291
  39  1510.836
  40  1477.928
  41  1359.651
  42  1371.04
  43  1278.437
  44  1258.882
  45  1117.509
  46  1168.693
  47  1230.485
  48  1280.467
  49  1395.34
  50  1470.038
  51  1496.761
  52  1422.196
  53  1377.937
  54  1325.116
  55  1381.111
  56  1419.925
  57  1515.559
  58  1516.636
  59  1479.06
  60  1505.453
  61  1708.976
  62  1761.234
  63  1668.953
  64  1598.895
  65  1566.026
  66  1476.583
  67  1378.322
  68  1377.427
  69  1233.683
  70  1154.688
  71  1106.692
  72  1137.238
  73  1088.608
  74  1087.22
  75  1165.328
  76  1288.721
  77  1376.55
  78  1436.297
  79  1455.11
  80  1385.075
  81  1531.102
  82  1562.245
  83  1721.166
  84  1589.362
  85  1505.229
  86  1334.027
  87  1219.053
  88  1271.943
  89  1333.619
  90  1272.35
  91  1276.622
  92  1421.463
  93  1667.358
  94  1695.252
  95  1634.87
  96  1757.254
  97  1780.11
  98  1749.303
  99  1629.903
 100  1585.625
 101  1536.891
 102  1460.339
 103  1469.09
 104  1498.522
 105  1423.4
 106  1342.291
 107  1369.652
 108  1372.574
 109  1105.675
 110  1181.505
 111  1264.565
 112  1448.129
 113  1435.017
 114  1509.869
 115  1638.853
 116  1642.533
 117  1681.748
 118  1669.948
 119  1630.897
 120  1567.847
 121  1599.806
 122  1602.849
 123  1425.521
 124  1192.389
 125  1194.694
 126  1290.606
 127  1373.309
 128  1486.315
 129  1591.903
 130  1594.82
 131  1523.786
 132  1501.026
 133  1463.924
 134  1296.312
 135  1317.816
 136  1334.617
 137  1408.942
 138  1347.83
 139  1425.688
 140  1405.643
 141  1420.109
 142  1446.152
 143  1474.514
 144  1545.594
 145  1488.563
 146  1517.795
 147  1486.309
 148  1519.886
 149  1489.047
 150  1568.707
 151  1615.226
 152  1623.343
 153  1470.517
 154  1359.1
 155  1378.682
 156  1426.957
 157  1502.377
 158  1560.492
 159  1639.779
 160  1534.835
 161  1597.826
 162  1715.951
 163  1693.815
 164  1561.848
 165  1513.214
 166  1574.328
 167  1466.433
 168  1451.119
 169  1448.936
 170  1516.945
 171  1474.791
 172  1441.172
 173  1438.035
 174  1287.573
 175  1276.584
 176  1284.146
 177  1417.386
 178  1345.407
 179  1381.564
 180  1422.208
 181  1621.824
 182  1448.592
 183  1312.153
 184  1109.547
 185  1255.301
 186  1283.993
 187  1337.736
 188  1214.654
 189  1133.399
 190  1213.711
 191  1500.044
 192  1402.874
 193  1386.009
 194  1346.625
 195  1673.07
 196  1634.323
 197  1542.574
 198  1449.714
 199  1539.559
 200  1558.88
 201  1441.5
 202  1306.854
 203  1248.162
 204  1327.707
 205  1437.686
 206  1491.124
 207  1466.553
 208  1415.371
 209  1539.707
 210  1594.448
 211  1653.6
 212  1613.296
 213  1556.302
 214  1624.558
 215  1509.599
 216  1484.14
 217  1336.266
 218  1335.943
 219  1272.025
 220  1191.615
 221  1061.515
 222  1265.723
 223  1449.057
 224  1651.184
 225  1608.192
 226  1581.081
 227  1508.017
 228  1552.173
 229  1707.731
 230  1774.136
 231  1724.329
 232  1602.084
 233  1571.628
 234  1452.279
 235  1229.723
 236  1060.441
 237  1143.906
 238  1325.468
 239  1397.866
 240  1424.531
 241  1360.378
 242  1285.526
 243  1288.043
 244  1482.13
 245  1652.242
 246  1673.617
 247  1671.839
 248  1640.407
 249  1527.903
 250  1405.576
 251  1420.424
 252  1441.853
 253  1379.698
 254  1414.121
 255  1463.823
 256  1419.368
 257  1343.848
 258  1405.429
 259  1478.955
 260  1398.109
 261  1312.366
 262  1391.372
 263  1520.377
 264  1509.634
 265  1472.023
 266  1581.286
 267  1521.992
 268  1555.687
 269  1499.842
 270  1550.409
 271  1387.995
 272  1410.035
 273  1413.632
 274  1563.417
 275  1475.138
 276  1433.674
 277  1354.711
 278  1395.135
 279  1434.294
 280  1542.641
 281  1624.109
 282  1580.952
 283  1587.841
 284  1493.552
 285  1490.444
 286  1335.423
 287  1366.832
 288  1491.143
 289  1398.809
 290  1224.069
 291  1182.267
 292  1454.74
 293  1513.523
 294  1597.007
 295  1545.018
 296  1638.249
 297  1613.932
 298  1594.232
 299  1682.574
 300  1724.117
 301  1643.917
 302  1396.674
 303  1308.614
 304  1270.635
 305  1316.808
 306  1368.477
 307  1396.657
 308  1419.882
 309  1315.868
 310  1322.819
 311  1381.234
 312  1429.433
 313  1459.315
 314  1601.034
 315  1599.977
 316  1527.057
 317  1486.349
 318  1612.71
 319  1594.334
 320  1448.346
 321  1378.726
 322  1390.619
 323  1350.278
 324  1390.089
 325  1425.367
 326  1434.374
 327  1385.722
 328  1548.749
 329  1636.919
 330  1447.096
 331  1307.323
 332  1357.624
 333  1563.048
 334  1546.977
 335  1534.979
 336  1531.244
 337  1608.925
 338  1552.082
 339  1616.795
 340  1495.321
 341  1569.002
 342  1542.018
 343  1727.031
 344  1721.698
 345  1659.486
 346  1593.747
 347  1697.41
 348  1611.85
 349  1473.212
 350  1292.468
 351  1204.404
 352  1249.27
 353  1251.653
 354  1252.255
 355  1253.511
 356  1361.551
 357  1652.142
 358  1748.995
 359  1750.589
 360  1600.887
 361  1656.361
 362  1717.405
 363  1668.112
 364  1598.825
 365  1517.057
 366  1455.867
 367  1335.602
 368  1373.967
 369  1353.918
 370  1408.057
 371  1449.116
 372  1590.049
 373  1503.2
 374  1508.584
 375  1496.427
 376  1579.08
 377  1625.107
 378  1649.358
 379  1670.099
 380  1648.572
 381  1700.282
 382  1670.251
 383  1505.811
 384  1476.248
 385  1407.019
 386  1440.283
 387  1429.441
 388  1381.088
 389  1403.932
 390  1419.604
 391  1415.414
 392  1523.642
 393  1595.048
 394  1636.704
 395  1533.655
 396  1617.635
 397  1729.375
 398  1675.266
 399  1601.508
 400  1543.303
 401  1642.842
 402  1675.938
 403  1656.997
 404  1424.49
 405  1254.968
 406  1255.778
 407  1423.284
 408  1386.231
 409  1447.071
 410  1521.072
 411  1711.245
 412  1826.987
 413  1780.926
 414  1636.886
 415  1509.801
 416  1448.945
 417  1546.861
 418  1581.997
 419  1524.428
 420  1423.266
 421  1431.034
 422  1376.119
 423  1311.091
 424  1176.027
 425  1208.112
 426  1401.731
 427  1489.759
 428  1600.105
 429  1488.387
 430  1486.568
 431  1327.594
 432  1393.315
 433  1406.018
 434  1379.743
 435  1313.283
 436  1329.819
 437  1281.291
 438  1242.925
 439  1408.145
 440  1485.769
 441  1446.601
 442  1275.69
 443  1383.95
 444  1579.5
 445  1615.475
 446  1479.49
 447  1435.383
 448  1478.804
 449  1537.206
 450  1516.427
 451  1601.474
 452  1613.781
 453  1487.021
 454  1456.008
 455  1461.936
 456  1367.815
 457  1332.692
 458  1352.542
 459  1529.138
 460  1530.641
 461  1625.13
 462  1621.78
 463  1546.488
 464  1446.964
 465  1494.199
 466  1673.302
 467  1624.417
 468  1454.988
 469  1349.544
 470  1408.641
 471  1354.088
 472  1349.199
 473  1379.51
 474  1350.139
 475  1312.678
 476  1364.735
 477  1534.498
 478  1497.27
 479  1381.824
 480  1526.829
 481  1711.413
 482  1605.307
 483  1378.364
 484  1424.977
 485  1559.846
 486  1510.933
 487  1352.331
 488  1447.252
 489  1522.922
 490  1545.073
 491  1504.53
 492  1438.84
 493  1320.549
 494  1318.102
 495  1542.482
 496  1563.164
 497  1485.867
 498  1362.384
 499  1467.121
 500  1387.002
 501  1304.721
 502  1265.935
 503  1348.323
 504  1426.031
 505  1524.81
 506  1528.418
 507  1623.554
 508  1511.264
 509  1598.295
 510  1610.193
 511  1695.62
 512  1640.354
 513  1650.616
 514  1494.446
 515  1457.556
 516  1356.721
 517  1360.277
 518  1272.947
 519  1403.029
 520  1470.354
 521  1389.039
 522  1295.807
 523  1249.251
 524  1287.56
 525  1395.549
 526  1511.416
 527  1594.873
 528  1552.563
 529  1555.045
 530  1568.582
 531  1573.021
 532  1590.285
 533  1607.687
 534  1602.042
 535  1507.824
 536  1413.375
 537  1231.383
 538  1255.149
 539  1197.072
 540  1346.695
 541  1400.475
 542  1512.255
 543  1363.94
 544  1282.018
 545  1355.66
 546  1433.174
 547  1343.716
 548  1294.238
 549  1382.809
 550  1423.468
 551  1462.794
 552  1348.054
 553  1329.42
 554  1386.552
 555  1563.812
 556  1614.496
 557  1460.843
 558  1494.923
 559  1586.492
 560  1573.176
 561  1450.874
 562  1371.677
 563  1477.19
 564  1507.608
 565  1403.015
 566  1347.573
 567  1361.496
 568  1383.795
 569  1447.543
 570  1374.717
 571  1349.355
 572  1373.344
 573  1502.916
 574  1509.813
 575  1393.792
 576  1326.451
 577  1431.159
 578  1522.825
 579  1478.809
 580  1336.501
 581  1236.082
 582  1300.31
 583  1247.476
 584  1214.866
 585  1218.976
 586  1208.721
 587  1256.645
 588  1427.811
 589  1455.748
 590  1413.649
 591  1370.06
 592  1531.468
 593  1618.086
 594  1642.695
 595  1596.17
 596  1644.381
 597  1576.79
 598  1467.405
 599  1331.249
 600  1386.576
 601  1439.759
 602  1446.513
 603  1323.471
 604  1294.173
 605  1277.809
 606  1298.147
 607  1255.743
 608  1317.892
 609  1400.532
 610  1515.526
 611  1575.2
 612  1551.565
 613  1569.146
 614  1682.967
 615  1738.741
 616  1603.749
 617  1468.786
 618  1479.243
 619  1467.619
 620  1300.391
 621  1263.959
 622  1381.925
 623  1492.729
 624  1440.238
 625  1417.787
 626  1461.938
 627  1536.96
 628  1396.009
 629  1523.434
 630  1394.533
 631  1477.631
 632  1441.515
 633  1571.54
 634  1525.004
 635  1406.253
 636  1400.589
 637  1602.212
 638  1576.486
 639  1600.367
 640  1615.767
 641  1512.526
 642  1482.63
 643  1424.667
 644  1539.181
 645  1528.316
 646  1513.307
 647  1637.767
 648  1754.619
 649  1783.168
 650  1826.087
 651  1918.543
 652  2046.002
 653  2162.829
 654  2103.683
 655  2118.533
 656  2182.698
 657  2210.363
 658  2048.41
 659  1886.315
 660  1742.42
 661  1723.039
 662  1611.019
 663  1561.292
 664  1297.489
 665  1190.265
 666  1117.552
 667  1225.355
 668  1210.785
 669  1191.841
 670  1101.415
 671  1262.133
 672  1254.601
 673  1333.264
 674  1408.556
 675  1478.721
 676  1408.037
 677  1236.037
 678  1241.436
 679  1301.399
 680  1287.729
 681  1352.272
 682  1398.962
 683  1333.267
 684  1236.986
 685  1346.903
 686  1455.408
 687  1529.954
 688  1505.134
 689  1575.775
 690  1491.737
 691  1390.116
 692  1387.563
 693  1414.723
 694  1351.791
 695  1235.154
 696  1273
 697  1334.97
 698  1293.162
 699  1210.667
 700  1239.917
 701  1233.665
 702  1251.045
 703  1256.854
 704  1259.759
 705  1280.023
 706  1294.513
 707  1273.696
 708  1196.397
 709  1126.063
 710  1192.54
 711  1349.079
 712  1400.373
 713  1293.9
 714  1356.811
 715  1428.398
 716  1343.668
 717  1211.271
 718  1022.77
 719  1148.66
 720  1159.031
 721  1404.563
 722  1427.646
 723  1404.986
 724  1323.695
 725  1419.689
 726  1504.437
 727  1439.937
 728  1355.078
 729  1523.164
 730  1491.018
 731  1351.608
 732  1123.047
 733  1028.96
 734  1220.657
 735  1412.448
 736  1600.729
 737  1384.992
 738  1273.048
 739  1315.246
 740  1425.909
 741  1449.615
 742  1319.119
 743  1344.943
 744  1313.052
 745  1322.505
 746  1206.479
 747  1176.855
 748  1254.641
 749  1429.507
 750  1512.744
 751  1360.816
 752  1296.237
 753  1306.339
 754  1401.833
 755  1346.278
 756  1349.516
 757  1429.011
 758  1474.244
 759  1477.798
 760  1431.506
 761  1433.623
 762  1435.196
 763  1447.072
 764  1393.67
 765  1387.583
 766  1386.74
 767  1427.637
 768  1308.144
 769  1353.743
 770  1388.001
 771  1482.24
 772  1352.938
 773  1337.096
 774  1251.085
 775  1255.487
 776  1172.315
 777  1181.026
 778  1166.494
 779  1176.138
 780  1156.082
 781  1290.35
 782  1294.221
 783  1220.991
 784  1122.135
 785  1238.352
 786  1392.748
 787  1414.045
 788  1405.076
 789  1280.675
 790  1252.041
 791  1269.809
 792  1319.583
 793  1209.754
 794  1045.341
 795  1116.188
 796  1201.772
 797  1233.928
 798  1309.57
 799  1435.785
 800  1489.989
 801  1389.92
 802  1346.921
 803  1367.835
 804  1444.324
 805  1333.268
 806  1315.183
 807  1264.147
 808  1358.374
 809  1382.013
 810  1351.065
 811  1355.301
 812  1416.459
 813  1358.732
 814  1330.739
 815  1415.951
 816  1484.15
 817  1438.139
 818  1392.454
 819  1395.245
 820  1367.4
 821  1380.506
 822  1492.964
 823  1459.597
 824  1445.718
 825  1541.238
 826  1731.095
 827  1847.09
 828  1568.328
 829  1456.562
 830  1363.15
 831  1400.947
 832  1356.947
 833  1327.536
 834  1290.241
 835  1204.504
 836  1137.226
 837  1213.099
 838  1295.523
 839  1277.25
 840  1414.28
 841  1509.399
 842  1499.189
 843  1347.308
 844  1328.087
 845  1451.611
 846  1420.565
 847  1236.453
 848  1192.734
 849  1219.279
 850  1291.969
 851  1323.774
 852  1280.698
 853  1133.809
 854  1097.552
 855  1221.438
 856  1367.551
 857  1257.19
 858  1213.14
 859  1247.149
 860  1338.579
 861  1271.571
 862  1271.281
 863  1298.656
 864  1458.75
 865  1503.762
 866  1459.072
 867  1310.127
 868  1342.82
 869  1399.878
 870  1531.182
 871  1571.276
 872  1643.523
 873  1660.534
 874  1677.568
 875  1554.572
 876  1362.304
 877  1413.292
 878  1500.442
 879  1495.553
 880  1388.518
 881  1367.248
 882  1319.181
 883  1258.414
 884  1315.512
 885  1419.751
 886  1360.639
 887  1388.061
 888  1461.523
 889  1641.705
 890  1691.986
 891  1702.639
 892  1726.67
 893  1670.502
 894  1548.042
 895  1554.245
 896  1465.699
 897  1368.473
 898  1256.446
 899  1372.79
 900  1517.607
 901  1542.877
 902  1416.76
 903  1330.121
 904  1412.221
 905  1442.945
 906  1470.919
 907  1392.885
 908  1484.122
 909  1481.652
 910  1536.055
 911  1466.937
 912  1489.849
 913  1349.068
 914  1300.76
 915  1390.448
 916  1529.953
 917  1551.119
 918  1619.7
 919  1633.721
 920  1532.19
 921  1425.203
 922  1481.553
 923  1622.879
 924  1651.122
 925  1492.256
 926  1343.209
 927  1434.881
 928  1528.696
 929  1502.05
 930  1351.204
 931  1221.194
 932  1309.251
 933  1535.09
 934  1600.16
 935  1482.734
 936  1349.3
 937  1406.363
 938  1583.977
 939  1596.392
 940  1476.615
 941  1318.122
 942  1359.764
 943  1442.109
 944  1397.591
 945  1468.589
 946  1511.847
 947  1621.267
 948  1513.302
 949  1354.222
 950  1134.039
 951  1184.339
 952  1344.274
 953  1552.647
 954  1533.272
 955  1542.946
 956  1496.656
 957  1426.295
 958  1445.711
 959  1469.217
 960  1546.193
 961  1484.444
 962  1429.869
 963  1388.11
 964  1384.977
 965  1289.599
 966  1356.223
 967  1390.828
 968  1555.69
 969  1535.686
 970  1480.395
 971  1527.597
 972  1545.362
 973  1596.502
 974  1573.565
 975  1600.955
 976  1582.136
 977  1558.166
 978  1546.867
 979  1600.497
 980  1497.841
 981  1435.115
 982  1478.49
 983  1527.083
 984  1449.354
 985  1378.428
 986  1284.083
 987  1314.773
 988  1396.734
 989  1549.836
 990  1611.695
 991  1567.846
 992  1529.364
 993  1513.019
 994  1519.642
 995  1502.521
 996  1542.595
 997  1563.648
 998  1585.417
 999  1476.441
1000  1504.472
1001  1491.39
1002  1561.608
1003  1593.111
1004  1559.652
1005  1472.293
1006  1513.112
1007  1569.356
1008  1602.274
1009  1429.234
1010  1401.853
1011  1556.214
1012  1636.779
1013  1557.448
1014  1473.432
1015  1327.377
1016  1480.497
1017  1455.017
1018  1560.928
1019  1477.373
1020  1491.317
1021  1599.447
1022  1711.705
1023  1788.745
