# Input file       =  1182490991.128987_cleaned.dat
# Candidate        =  PSR_0332+5434
# Telescope        =  AR
# Epoch_topo       =  57930.238543159576
# Epoch_bary       =  N/A
# T_sample         =  0.002
# Data Folded      =  7340032
# Data Avg         =  0.153204673877293
# Data StdDev      =  3.64299531960723 
# Profile Bins     =  512
# Profile Avg      =  2196.3816698249  
# Profile StdDev   =  436.186891122921 
# Reduced chi-sqr  =  1.015
# Prob(Noise)      <  0.398   (~0.3 sigma)
# P_topo (ms)      =  714.493188543695  +/- 6.95e-05
# P'_topo (s/s)    =  -0                +/- 3.67e-11
# P''_topo (s/s^2) =  0                 +/- 1.62e-14
# P_bary (ms)      =  N/A
# P'_bary (s/s)    =  N/A
# P''_bary (s/s^2) =  N/A
# P_orb (s)        =  N/A
# asin(i)/c (s)    =  N/A
# eccentricity     =  N/A
# w (rad)          =  N/A
# T_peri           =  N/A
######################################################
   0  2216.244
   1  2010.792
   2  2089.885
   3  2083.817
   4  2359.013
   5  2247.688
   6  2478.086
   7  2084.138
   8  2165.723
   9  2297.955
  10  2134.2
  11  2344.542
  12  2338.151
  13  2062.748
  14  2334.058
  15  2323.237
  16  2345.94
  17  2276.597
  18  2258.195
  19  2322.961
  20  1977.41
  21  2052.156
  22  2301.59
  23  2377.725
  24  2161.679
  25  1762.948
  26  1593.934
  27  1953.081
  28  1983.785
  29  1952.322
  30  2041.988
  31  2033.626
  32  2054.172
  33  2213.044
  34  2023.226
  35  2163.729
  36  2216.3
  37  2377.758
  38  2302.551
  39  1914.07
  40  1902.263
  41  2309.808
  42  2282.073
  43  2115.854
  44  1779.627
  45  1842.627
  46  2034.738
  47  2194.894
  48  2409.121
  49  2018.038
  50  2297.37
  51  2657.269
  52  2504.109
  53  2188.927
  54  1965.679
  55  2376.305
  56  2582.643
  57  2716.087
  58  2567.191
  59  2351.456
  60  2334.325
  61  2377.705
  62  2261.559
  63  2077.011
  64  2050.578
  65  2154.275
  66  2118.163
  67  2599.902
  68  2263.93
  69  2152.233
  70  2504.539
  71  2778.985
  72  2617.267
  73  2798.733
  74  3202.054
  75  3701.98
  76  3917.352
  77  3764.341
  78  3872.109
  79  3608.707
  80  3439.894
  81  2753.021
  82  2528.375
  83  2487.947
  84  2592.646
  85  2760.224
  86  2589.264
  87  2287.991
  88  2422.482
  89  2677.796
  90  2806.606
  91  2908.085
  92  2722.298
  93  2647.815
  94  2499.879
  95  2681.358
  96  2609.598
  97  2594.194
  98  2438.481
  99  2317.115
 100  2391.256
 101  2280.752
 102  2498.986
 103  2643.974
 104  2481.575
 105  2172.494
 106  2089.918
 107  2040.245
 108  2072.562
 109  2137.664
 110  2275.944
 111  2246.59
 112  2374.058
 113  2369.017
 114  2406.154
 115  2707.745
 116  2770.385
 117  2755.599
 118  2600.312
 119  2799.161
 120  2499.263
 121  2164.513
 122  2173.59
 123  2490.445
 124  2566.944
 125  2779.112
 126  2717.388
 127  2477.722
 128  2530.621
 129  2269.122
 130  1984.641
 131  1912.794
 132  1805.338
 133  2254.377
 134  2527.723
 135  2599.563
 136  2368.08
 137  2068.37
 138  1942.802
 139  1885.837
 140  2055.483
 141  2269.365
 142  2326.384
 143  2636.249
 144  2548.604
 145  2197.572
 146  2126.362
 147  2219.663
 148  2232.815
 149  2089.999
 150  1985.672
 151  2438.472
 152  2577.905
 153  2378.595
 154  2144.882
 155  1997.114
 156  2069.527
 157  2142.409
 158  2267.783
 159  2165.964
 160  1730.113
 161  1585.705
 162  1896.151
 163  1720.396
 164  1595.797
 165  1748.993
 166  2159.884
 167  2138.938
 168  2127.426
 169  1911.723
 170  1729.394
 171  2013.662
 172  2269.9
 173  2193.433
 174  1930.769
 175  1785.753
 176  2010.148
 177  2025.015
 178  2181.799
 179  2179.216
 180  1993.387
 181  2196.351
 182  2443.464
 183  2407.392
 184  2470.733
 185  2494.814
 186  2646.976
 187  2456.729
 188  1998.946
 189  1863.05
 190  2190.572
 191  2258.106
 192  2265.728
 193  2083.711
 194  2179.932
 195  2362.348
 196  2158.831
 197  1855.144
 198  1833.026
 199  1955.418
 200  2313.93
 201  2796.808
 202  2452.379
 203  2172.688
 204  1751.485
 205  1958.52
 206  2511.531
 207  2640.828
 208  2196.02
 209  1890.176
 210  2035.294
 211  1971.701
 212  1698.875
 213  1955.391
 214  2160.98
 215  2349.872
 216  2260.541
 217  2104.399
 218  1874.854
 219  2213.767
 220  2267.625
 221  2244.109
 222  1738.172
 223  1874.415
 224  2085.682
 225  1995.845
 226  1987.501
 227  2171.821
 228  2374.829
 229  2379.003
 230  1892.897
 231  1818.986
 232  1666.411
 233  1695.631
 234  1950.568
 235  1881.939
 236  1802.231
 237  1867.277
 238  1990.763
 239  1947.796
 240  1761.335
 241  1772.075
 242  1948.089
 243  2115.327
 244  2344.635
 245  2249.158
 246  1883.956
 247  2377.673
 248  2707.624
 249  2644.739
 250  2415.284
 251  2174.588
 252  2178.594
 253  2160.187
 254  2088.029
 255  2040.593
 256  2071.557
 257  2401.439
 258  2601.558
 259  2202.252
 260  2065.674
 261  2005.488
 262  2104.962
 263  2293.161
 264  2115.329
 265  1904.586
 266  2209.491
 267  2312.286
 268  2224.209
 269  2199.852
 270  2083.179
 271  1951.373
 272  2404.649
 273  2287.206
 274  2292.333
 275  2297.631
 276  2182.342
 277  2294.291
 278  2321.173
 279  2081.026
 280  1776.594
 281  1994.664
 282  2355.783
 283  2210.025
 284  1979.942
 285  2175.063
 286  2422.381
 287  2430.484
 288  2528.325
 289  2001.352
 290  1833.003
 291  2216.488
 292  2283.626
 293  2021.518
 294  2071.094
 295  1786.023
 296  2226.776
 297  2273.919
 298  2147.093
 299  2242.298
 300  2600.85
 301  2268.071
 302  2203.067
 303  1912.69
 304  2078.473
 305  2209.363
 306  2291.349
 307  2108.38
 308  2286.751
 309  2559.928
 310  2765.223
 311  2607.12
 312  2440.266
 313  2451.44
 314  2605.373
 315  2560.352
 316  2596.097
 317  2236.787
 318  2084.44
 319  2092.844
 320  1984.977
 321  1922.072
 322  2095.699
 323  1937.2
 324  2239.151
 325  2121.686
 326  1767.819
 327  1861.84
 328  1890.995
 329  2053.29
 330  1807.686
 331  1739.837
 332  1722.618
 333  2135.784
 334  2382.43
 335  2406.071
 336  2229.444
 337  2005.687
 338  2062.318
 339  2267.677
 340  2323.601
 341  2139.736
 342  2136.152
 343  1953.19
 344  2147.997
 345  2282.161
 346  2093.069
 347  1777.506
 348  2057.645
 349  1960.76
 350  2138.445
 351  2039.295
 352  1929.198
 353  1887.046
 354  1796.129
 355  1634.344
 356  2066.531
 357  2057.253
 358  1912.848
 359  1626.371
 360  1353.327
 361  1422.638
 362  1556.039
 363  1932.07
 364  1726.326
 365  1708.516
 366  1759.25
 367  1745.926
 368  1858.936
 369  2037.453
 370  1966.167
 371  1760.275
 372  2108.3
 373  2149.962
 374  1975.627
 375  1919.522
 376  2175.197
 377  2284.78
 378  2459.028
 379  1951.718
 380  1811.267
 381  1781.886
 382  2126.753
 383  1850.762
 384  1818.457
 385  1906.757
 386  1990.409
 387  2015.024
 388  2154.483
 389  1975.276
 390  2018.703
 391  2116.807
 392  1948.726
 393  1599.514
 394  1705.114
 395  1886.442
 396  2092.543
 397  2223.356
 398  2062.288
 399  1892.808
 400  1862.65
 401  1855.496
 402  1802.472
 403  2277.801
 404  2437.859
 405  2460.415
 406  2312.902
 407  2170.582
 408  2511.283
 409  2037.744
 410  2097.656
 411  2300.564
 412  2437.671
 413  2065.211
 414  1818.683
 415  2119.77
 416  2008.382
 417  2299.77
 418  1953.882
 419  2292.92
 420  2638.96
 421  2870.62
 422  2623.697
 423  2272.627
 424  2165.056
 425  2047.456
 426  2148.898
 427  1722.694
 428  1753.414
 429  2180.781
 430  2150.979
 431  1961.707
 432  1863.391
 433  2210.089
 434  2368.347
 435  2392.901
 436  1925.01
 437  2252.219
 438  2316.748
 439  2490.595
 440  2355.438
 441  2336.042
 442  2404.843
 443  2570.853
 444  2778.498
 445  2317.108
 446  1978.186
 447  2262.533
 448  2113.44
 449  2256.399
 450  2245.526
 451  1980.616
 452  1977.421
 453  2402.964
 454  2366.864
 455  2276.509
 456  2290.114
 457  2152.315
 458  2229.218
 459  2646.366
 460  2394.574
 461  2089.229
 462  2182.88
 463  2331.223
 464  2293.777
 465  2199.252
 466  2105.761
 467  1897.188
 468  1936.066
 469  2392.43
 470  2300.43
 471  2077.172
 472  1856.039
 473  1981.624
 474  2432.157
 475  2198.322
 476  1931.035
 477  2437.707
 478  2381.146
 479  2173.917
 480  1989.263
 481  1965.364
 482  2284.284
 483  2174.428
 484  2306.976
 485  1838.74
 486  2032.169
 487  2399.82
 488  2208.727
 489  2031.791
 490  1809.009
 491  2043.394
 492  2127.192
 493  2098.593
 494  2372.644
 495  2169.178
 496  2190.448
 497  2203.318
 498  2351.007
 499  2079.035
 500  1985.89
 501  2242.346
 502  2509.667
 503  2595.636
 504  2557.6
 505  2310.69
 506  2258.383
 507  2182.364
 508  1883.216
 509  1784.987
 510  1596.186
 511  1581.927
