# Input file       =  1182921607.112785_cleaned.dat
# Candidate        =  PSR_0332+5434
# Telescope        =  AR
# Epoch_topo       =  57935.222524453529
# Epoch_bary       =  N/A
# T_sample         =  0.002
# Data Folded      =  7340032
# Data Avg         =  0.152663607451749
# Data StdDev      =  3.15315566304942 
# Profile Bins     =  1024
# Profile Avg      =  1094.33030098428 
# Profile StdDev   =  266.958903344119 
# Reduced chi-sqr  =  0.913
# Prob(Noise)      <  0.978   (~0.0 sigma)
# P_topo (ms)      =  714.489051426533  +/- 0.000873
# P'_topo (s/s)    =  -0                +/- 4.61e-10
# P''_topo (s/s^2) =  0                 +/- 2.03e-13
# P_bary (ms)      =  N/A
# P'_bary (s/s)    =  N/A
# P''_bary (s/s^2) =  N/A
# P_orb (s)        =  N/A
# asin(i)/c (s)    =  N/A
# eccentricity     =  N/A
# w (rad)          =  N/A
# T_peri           =  N/A
######################################################
   0  1040.348
   1  1145.815
   2  1184.343
   3  1143.389
   4  1142.207
   5  1209.458
   6  1192.59
   7  1120.285
   8  1213.456
   9  1228.677
  10  1176.365
  11  1021.404
  12  1028.543
  13  1084.777
  14  1010.815
  15  917.3192
  16  933.4019
  17  1026.88
  18  1072.608
  19  1000.184
  20  1024.994
  21  1090.179
  22  1177.691
  23  1157.249
  24  1056.186
  25  952.4988
  26  973.9981
  27  991.6653
  28  964.1671
  29  913.6426
  30  883.2928
  31  940.0161
  32  1035.997
  33  1144.062
  34  1252.114
  35  1307.031
  36  1315.199
  37  1251.899
  38  1109.687
  39  1015.169
  40  949.2878
  41  978.351
  42  1035.485
  43  1078.363
  44  1100.953
  45  1084.536
  46  1166.236
  47  1202.498
  48  1156.544
  49  1069.377
  50  1088.055
  51  1090.45
  52  1156.153
  53  1129.007
  54  1099.606
  55  979.7538
  56  884.9153
  57  916.7762
  58  911.5779
  59  975.5562
  60  966.5803
  61  1027.676
  62  1079.183
  63  1095.906
  64  993.0961
  65  919.2613
  66  919.7294
  67  961.461
  68  1052.562
  69  1096.164
  70  1111.392
  71  1055.725
  72  1031.353
  73  1120.51
  74  1276.339
  75  1309.302
  76  1295.068
  77  1298.995
  78  1222.151
  79  1207.967
  80  1187.08
  81  1183.384
  82  1109.688
  83  1126.82
  84  1225.223
  85  1366.782
  86  1382.397
  87  1380.084
  88  1289.852
  89  1237.009
  90  1206.869
  91  1251.739
  92  1257.926
  93  1271.067
  94  1186.116
  95  1208.301
  96  1183.858
  97  1147.286
  98  1022.202
  99  982.3997
 100  1002.278
 101  1052.442
 102  1062.776
 103  1057.221
 104  1105.459
 105  1154.637
 106  1202.509
 107  1173.312
 108  1163.796
 109  1072.154
 110  1015.499
 111  991.4205
 112  1075.669
 113  1135.996
 114  1171.86
 115  1132.42
 116  1107.384
 117  1085.295
 118  1033.77
 119  1007.95
 120  1042.432
 121  1087.681
 122  1159.688
 123  1214.635
 124  1158.174
 125  1088.417
 126  1025.698
 127  998.9078
 128  1007.819
 129  956.8038
 130  985.4708
 131  998.6074
 132  1036.569
 133  1112.661
 134  1120.877
 135  1095.257
 136  958.3484
 137  916.9993
 138  996.3351
 139  1050.699
 140  1045.972
 141  989.522
 142  963.9857
 143  979.6321
 144  1032.261
 145  1111.611
 146  1198.403
 147  1229.82
 148  1152.983
 149  1172.599
 150  1152.412
 151  1204.562
 152  1235.518
 153  1320.407
 154  1301.776
 155  1254.045
 156  1277.801
 157  1273.072
 158  1227.161
 159  1058.431
 160  1099.49
 161  1094.451
 162  1221.615
 163  1175.774
 164  1141.054
 165  1107.836
 166  1086.573
 167  1108.146
 168  1149.075
 169  1197.535
 170  1266.864
 171  1232.832
 172  1208.623
 173  1088.423
 174  1081.807
 175  1173.605
 176  1224.977
 177  1187.097
 178  1163.547
 179  1163.493
 180  1190.809
 181  1105.664
 182  1114.015
 183  1125.854
 184  1164.164
 185  1220.348
 186  1252.958
 187  1228.258
 188  1212.209
 189  1238.308
 190  1317.701
 191  1262.34
 192  1267.504
 193  1176.07
 194  1184.762
 195  1185.81
 196  1301.354
 197  1289.042
 198  1274.594
 199  1335.131
 200  1393.859
 201  1289.153
 202  1097.313
 203  1067.906
 204  1057.515
 205  1095.615
 206  1169.134
 207  1240.786
 208  1306.536
 209  1251.918
 210  1255.672
 211  1163.781
 212  1122.829
 213  1209.434
 214  1271.717
 215  1256.382
 216  1126.284
 217  1091.381
 218  1117.613
 219  1124.187
 220  1098.938
 221  1056.579
 222  1088.741
 223  1028.938
 224  1081.998
 225  1107.07
 226  1195.665
 227  1206.39
 228  1192.843
 229  1172.315
 230  1024.526
 231  1002.533
 232  986.4338
 233  1212.653
 234  1258.444
 235  1296.511
 236  1268.463
 237  1253.983
 238  1218.873
 239  1115.516
 240  1123.904
 241  1160.068
 242  1149.98
 243  1114.071
 244  1050.926
 245  1014.289
 246  1109.177
 247  1116.944
 248  1133.08
 249  1115.527
 250  1093.047
 251  1100.235
 252  1121.682
 253  1206.624
 254  1230.92
 255  1161.062
 256  1085.215
 257  1062.236
 258  1182.983
 259  1232.728
 260  1204.694
 261  1205.786
 262  1281.03
 263  1292.874
 264  1172.335
 265  1240.841
 266  1349.752
 267  1347.13
 268  1172.208
 269  1012.107
 270  909.3634
 271  1010.053
 272  1092.462
 273  1278.179
 274  1346.486
 275  1397.169
 276  1406.917
 277  1376.415
 278  1367.841
 279  1295.695
 280  1253.976
 281  1179.282
 282  1089.434
 283  1075.395
 284  1063.021
 285  1079.335
 286  1173.451
 287  1339.427
 288  1314.472
 289  1258.239
 290  1154.188
 291  1264.847
 292  1346.154
 293  1308.115
 294  1312.174
 295  1293.227
 296  1317.555
 297  1207.697
 298  1245.777
 299  1178.319
 300  1027.661
 301  994.4218
 302  1051.584
 303  1119.373
 304  1032.158
 305  1004.833
 306  1047.268
 307  1218.879
 308  1268.917
 309  1215.66
 310  1083.496
 311  1157.355
 312  1251.897
 313  1333.353
 314  1344.318
 315  1357.672
 316  1359.471
 317  1346.657
 318  1383.449
 319  1379.469
 320  1398.369
 321  1272.097
 322  1196.434
 323  1247.261
 324  1363.938
 325  1331.269
 326  1313.615
 327  1209.158
 328  1245.719
 329  1280.62
 330  1282.677
 331  1323.372
 332  1199.786
 333  1198.334
 334  1110.122
 335  1172.141
 336  1180.141
 337  1297.08
 338  1271.508
 339  1271.37
 340  1171.582
 341  1183.64
 342  1197.763
 343  1149.023
 344  1101.353
 345  1112.287
 346  1163.205
 347  1122.852
 348  1136.12
 349  1082.873
 350  1110.525
 351  1166.814
 352  1299.58
 353  1283.566
 354  1197.051
 355  1125.091
 356  1184.193
 357  1212.263
 358  1054.953
 359  961.2049
 360  1015.584
 361  1133.838
 362  1094.217
 363  1042.951
 364  1109.081
 365  1082.029
 366  1002.819
 367  987.0417
 368  1059.317
 369  1110.539
 370  1026.989
 371  941.3779
 372  819.3351
 373  888.8719
 374  965.1878
 375  1107.243
 376  1129.486
 377  1101.748
 378  1076.958
 379  1105.35
 380  1007.777
 381  1027.983
 382  1052.931
 383  1035.342
 384  986.9608
 385  969.1414
 386  1006.083
 387  1047.347
 388  1156.883
 389  1196.333
 390  1117.253
 391  1105.445
 392  1089.514
 393  1136.922
 394  1044.989
 395  1110.078
 396  1083.025
 397  1081.754
 398  951.6181
 399  937.6385
 400  945.8709
 401  980.4186
 402  985.4636
 403  1082.357
 404  1146.58
 405  1123.766
 406  1149.098
 407  1155.825
 408  1090.737
 409  943.5114
 410  869.4485
 411  936.8051
 412  974.3618
 413  1045.178
 414  1016.814
 415  1100.357
 416  1131.035
 417  1215.901
 418  1169.879
 419  1154.827
 420  1090.173
 421  1072.998
 422  963.3757
 423  947.8789
 424  978.9742
 425  1090.743
 426  1087.147
 427  1028.338
 428  1041.134
 429  1092.447
 430  1122.538
 431  1153.677
 432  1049.918
 433  1005.658
 434  919.0273
 435  960.6005
 436  1034.849
 437  973.2867
 438  871.0848
 439  760.3706
 440  771.1619
 441  767.5963
 442  821.1299
 443  879.8876
 444  996.8469
 445  1059.299
 446  1072.989
 447  1087.842
 448  1058.123
 449  1026.558
 450  995.748
 451  1005.967
 452  946.1965
 453  849.5388
 454  819.7607
 455  918.5337
 456  935.4826
 457  974.3654
 458  923.6287
 459  959.66
 460  903.1279
 461  854.5356
 462  864.7532
 463  824.1929
 464  815.7854
 465  820.3311
 466  933.8522
 467  898.5815
 468  904.4099
 469  974.0842
 470  1054.938
 471  1104.943
 472  1007.696
 473  982.3888
 474  889.8741
 475  912.4045
 476  872.34
 477  835.3926
 478  798.7815
 479  870.8749
 480  1001.619
 481  1078.596
 482  1127.045
 483  1037.085
 484  988.0226
 485  823.0988
 486  826.2369
 487  820.9143
 488  934.5052
 489  950.6666
 490  953.1206
 491  1034.407
 492  1108.916
 493  1229.771
 494  1089.777
 495  1024.646
 496  981.999
 497  1034.594
 498  978.4385
 499  902.4841
 500  933.8831
 501  983.8964
 502  1036.439
 503  1016.55
 504  1014.202
 505  961.2244
 506  1004.55
 507  1028.169
 508  1068.426
 509  1014.981
 510  1009.854
 511  1031.293
 512  1013.6
 513  956.3021
 514  918.6337
 515  981.2861
 516  1026.264
 517  1141.574
 518  1156.301
 519  1066.304
 520  914.1153
 521  790.495
 522  784.4877
 523  874.978
 524  949.8823
 525  1085.357
 526  1050.767
 527  1103.19
 528  940.3809
 529  855.3933
 530  756.6341
 531  900.4265
 532  978.8123
 533  994.8537
 534  898.5472
 535  948.7977
 536  926.8967
 537  967.788
 538  826.2712
 539  773.9576
 540  779.9282
 541  950.0232
 542  1010.993
 543  1042.822
 544  978.7714
 545  939.9235
 546  851.8772
 547  879.5673
 548  886.4553
 549  901.6191
 550  926.3458
 551  934.4255
 552  930.2309
 553  864.9858
 554  744.8007
 555  867.8306
 556  892.0776
 557  976.8267
 558  961.655
 559  1021.789
 560  1009.332
 561  942.3426
 562  936.1328
 563  1033.679
 564  1127.719
 565  1014.596
 566  995.4911
 567  998.821
 568  1202.447
 569  1173.296
 570  1067.957
 571  974.2443
 572  930.5234
 573  1041.196
 574  1075.145
 575  1061.881
 576  1046.151
 577  1041.258
 578  1072.964
 579  1079.823
 580  1001.33
 581  903.1115
 582  911.1868
 583  1054.423
 584  1091.423
 585  1089.861
 586  1065.258
 587  1172.202
 588  1126.915
 589  1055.278
 590  938.2454
 591  870.2744
 592  865.8871
 593  846.8095
 594  885.8405
 595  853.185
 596  817.4954
 597  892.1575
 598  991.6677
 599  1056.302
 600  1047.276
 601  970.1521
 602  901.3171
 603  887.3494
 604  952.3376
 605  1066.081
 606  1002.062
 607  968.5709
 608  888.9534
 609  877.3652
 610  946.798
 611  933.0398
 612  870.3505
 613  966.6675
 614  1074.635
 615  1121.88
 616  1103.102
 617  1153.606
 618  1185.302
 619  1089.023
 620  1013.416
 621  1049.797
 622  1141.725
 623  1131.647
 624  1107.2
 625  1192.532
 626  1201.512
 627  1242.276
 628  1239.49
 629  1324.611
 630  1269.901
 631  1227.74
 632  1076.575
 633  1049.867
 634  1060.36
 635  1160.61
 636  1137.304
 637  1121.682
 638  1094.405
 639  1061.573
 640  1102.852
 641  1101.423
 642  1137.046
 643  1117.038
 644  1180.422
 645  1150.473
 646  1213.495
 647  1234.378
 648  1393.338
 649  1492.243
 650  1629.828
 651  1650.01
 652  1699.756
 653  1741.616
 654  1767.495
 655  1830.628
 656  1792.284
 657  1725.734
 658  1513.927
 659  1408.509
 660  1336.362
 661  1280.995
 662  1224.853
 663  1133.045
 664  1084.287
 665  974.5913
 666  930.3728
 667  999.9584
 668  1074.226
 669  1049.366
 670  1035.083
 671  985.7893
 672  1049.997
 673  1061.888
 674  1175.993
 675  1170.609
 676  1111.283
 677  1110.683
 678  1041.722
 679  958.563
 680  910.6615
 681  1044.964
 682  1171.9
 683  1143.13
 684  1068.047
 685  1059.118
 686  1045.443
 687  1087.161
 688  1083.292
 689  1071.848
 690  1034.029
 691  955.5537
 692  1012.589
 693  991.2977
 694  1037.484
 695  1037.209
 696  1026.516
 697  1088.519
 698  1118.871
 699  1170.666
 700  1122.858
 701  1107.214
 702  1128.909
 703  1108.445
 704  1113.725
 705  1155.213
 706  1176.016
 707  1099.199
 708  1095.834
 709  1239.411
 710  1238.846
 711  1213.045
 712  1206.234
 713  1265.646
 714  1171.488
 715  1056.241
 716  1043.988
 717  1085.995
 718  1208.141
 719  1165.383
 720  1057.782
 721  1019.707
 722  1120.353
 723  1179.845
 724  1152.448
 725  1175.907
 726  1201.187
 727  1186.465
 728  1111.974
 729  1112.224
 730  1019.77
 731  972.3102
 732  937.4438
 733  995.3353
 734  1084.995
 735  1201.704
 736  1177.11
 737  1159.378
 738  1098.808
 739  1108.99
 740  1115.822
 741  1117.94
 742  1197.084
 743  1204.685
 744  1085.09
 745  934.8149
 746  886.1252
 747  948.5197
 748  912.6583
 749  941.2137
 750  849.5577
 751  840.5613
 752  853.8873
 753  992.8801
 754  1104.84
 755  1034.354
 756  962.0805
 757  899.8478
 758  973.0987
 759  975.4921
 760  875.5131
 761  829.2121
 762  812.8016
 763  909.5973
 764  957.4149
 765  988.3492
 766  1028.038
 767  1062.271
 768  1093.918
 769  974.7678
 770  904.8066
 771  892.9476
 772  891.9839
 773  851.7258
 774  787.5589
 775  827.8737
 776  779.5736
 777  638.1779
 778  625.6754
 779  750.3969
 780  936.0573
 781  972.0729
 782  1036.148
 783  1064.178
 784  1048.746
 785  999.0223
 786  953.2233
 787  974.9819
 788  952.619
 789  979.2484
 790  931.1368
 791  928.8859
 792  892.4288
 793  918.2808
 794  987.4677
 795  1032.446
 796  1006.431
 797  991.7198
 798  942.9545
 799  909.3716
 800  869.1964
 801  888.7204
 802  920.8682
 803  958.3421
 804  1023
 805  1079.378
 806  1112.77
 807  1117.467
 808  1061.69
 809  989.4156
 810  945.7957
 811  980.553
 812  1044.844
 813  1137.636
 814  1124.63
 815  1185.137
 816  1119.041
 817  1122.309
 818  985.3771
 819  988.8328
 820  978.6128
 821  997.001
 822  1118.225
 823  1113.49
 824  1125.322
 825  1162.325
 826  1091.602
 827  1051.894
 828  1024.824
 829  1101.486
 830  1034.084
 831  950.2759
 832  935.8264
 833  1025.529
 834  1031.578
 835  1075.727
 836  1150.85
 837  1215.367
 838  1192.738
 839  1137.725
 840  1143.711
 841  1151.5
 842  1099.949
 843  1138.353
 844  1224.85
 845  1349.671
 846  1294.535
 847  1250.358
 848  1211.323
 849  1211.046
 850  1175.359
 851  1084.065
 852  1131.699
 853  1200.599
 854  1192.256
 855  1222.332
 856  1185.354
 857  1255.177
 858  1180.614
 859  1229.929
 860  1255.186
 861  1244.939
 862  1116.118
 863  957.3541
 864  916.7277
 865  1066.006
 866  1287.948
 867  1281.751
 868  1139.234
 869  982.8586
 870  1021.433
 871  1123.379
 872  1203.699
 873  1244.829
 874  1236.602
 875  1200.522
 876  1094.679
 877  1013.909
 878  1058.486
 879  1053.658
 880  1034.784
 881  1008.632
 882  1091.035
 883  1122.754
 884  1111.961
 885  973.8654
 886  1041.281
 887  1182.655
 888  1254.926
 889  1166.417
 890  1019.387
 891  976.9307
 892  1008.433
 893  1068.939
 894  1163.752
 895  1176.528
 896  1210.16
 897  1158.16
 898  1194.45
 899  1189.277
 900  1191.64
 901  1170.042
 902  1175.049
 903  1281.726
 904  1310.384
 905  1330.418
 906  1295.909
 907  1187.098
 908  1017.791
 909  959.5375
 910  1057.383
 911  1186.943
 912  1209.545
 913  1144.281
 914  1087.035
 915  1087.993
 916  1119.179
 917  1080.438
 918  1085.315
 919  1056.373
 920  1060.433
 921  1075.771
 922  1103.103
 923  1096.455
 924  1094.51
 925  1111.736
 926  1165.375
 927  1208.177
 928  1115.01
 929  1046.775
 930  1096.955
 931  1151.265
 932  1226.217
 933  1219.364
 934  1294.293
 935  1214.895
 936  1097.297
 937  1038.484
 938  1076.699
 939  1176.997
 940  1162.809
 941  1101.039
 942  1075.819
 943  1176.042
 944  1179.936
 945  1221.814
 946  1166.401
 947  1201.505
 948  1179.322
 949  1135.904
 950  1009.026
 951  955.2502
 952  949.9943
 953  969.4551
 954  1061.624
 955  1213.156
 956  1333.238
 957  1294.399
 958  1248.915
 959  1093.896
 960  990.2001
 961  969.7339
 962  1059.391
 963  1184.984
 964  1238.945
 965  1275.959
 966  1236.851
 967  1150.914
 968  1112.127
 969  1139.109
 970  1109.947
 971  1033.45
 972  954.9663
 973  974.4922
 974  895.452
 975  958.0136
 976  1003.692
 977  1115.952
 978  1063.3
 979  1034.674
 980  961.7284
 981  919.6439
 982  956.4901
 983  1028.342
 984  1101.34
 985  1105.247
 986  1128.849
 987  1079.68
 988  1083.472
 989  1112.375
 990  1148.491
 991  1108.741
 992  1087.278
 993  1070.351
 994  1093.533
 995  1157.902
 996  1229.064
 997  1303.32
 998  1240.773
 999  1229.03
1000  1164.942
1001  1161.931
1002  1165.966
1003  1195.367
1004  1216.176
1005  1210.855
1006  1102.901
1007  1167.496
1008  1233.208
1009  1396.202
1010  1395.378
1011  1293.513
1012  1247.597
1013  1260.169
1014  1278.525
1015  1216.057
1016  1144.375
1017  1207.361
1018  1226.393
1019  1090.773
1020  1037.523
1021  1055.477
1022  1114.27
1023  1037.888
