# Input file       =  1182648610.116692_cleaned.dat
# Candidate        =  PSR_0332+5434
# Telescope        =  AR
# Epoch_topo       =  57932.062836998753
# Epoch_bary       =  N/A
# T_sample         =  0.002
# Data Folded      =  7208960
# Data Avg         =  0.247439938713797
# Data StdDev      =  5.20424165019286 
# Profile Bins     =  1024
# Profile Avg      =  1741.98161131299 
# Profile StdDev   =  436.660375259032 
# Reduced chi-sqr  =  0.469
# Prob(Noise)      <  1   (~0.0 sigma)
# P_topo (ms)      =  714.491635252635  +/- 7.39e-05
# P'_topo (s/s)    =  -0                +/- 3.97e-11
# P''_topo (s/s^2) =  0                 +/- 1.79e-14
# P_bary (ms)      =  N/A
# P'_bary (s/s)    =  N/A
# P''_bary (s/s^2) =  N/A
# P_orb (s)        =  N/A
# asin(i)/c (s)    =  N/A
# eccentricity     =  N/A
# w (rad)          =  N/A
# T_peri           =  N/A
######################################################
   0  1711.344
   1  1778.939
   2  1837.902
   3  1912.834
   4  2042.893
   5  1841.931
   6  1766.706
   7  1548.845
   8  1558.33
   9  1547.315
  10  1491.945
  11  1662.359
  12  1660.377
  13  1674.617
  14  1545.902
  15  1606.641
  16  1718.733
  17  1785.557
  18  1689.361
  19  1672.175
  20  1663.338
  21  1724.636
  22  1781.654
  23  1665.468
  24  1563.09
  25  1465.588
  26  1624.817
  27  1702.616
  28  1742.397
  29  1676.657
  30  1714.124
  31  1796.766
  32  1876.914
  33  1899.8
  34  1935.103
  35  2025.945
  36  1891.484
  37  1699.769
  38  1727.312
  39  1672.096
  40  1690.486
  41  1552.812
  42  1667.076
  43  1576.688
  44  1523.377
  45  1567.051
  46  1602.68
  47  1568.786
  48  1688.134
  49  1743.672
  50  1779.695
  51  1658.502
  52  1680.554
  53  1726.897
  54  1683.982
  55  1575.863
  56  1471.622
  57  1516.92
  58  1644.042
  59  1756.56
  60  1769.02
  61  1561.732
  62  1416.26
  63  1481.165
  64  1761.904
  65  1878.524
  66  1786.278
  67  1836.294
  68  1775.839
  69  1869.334
  70  1710.281
  71  1771.075
  72  1758.025
  73  1678.063
  74  1694.915
  75  1641.566
  76  1648.41
  77  1602.558
  78  1700.589
  79  1747.113
  80  1535.085
  81  1443.247
  82  1619.845
  83  1789.647
  84  1712.345
  85  1612.089
  86  1730.708
  87  1815.213
  88  1826.748
  89  1606.376
  90  1686.739
  91  1867.027
  92  1988.783
  93  1916.111
  94  1751.355
  95  1669.519
  96  1717.213
  97  1699.599
  98  1713.216
  99  1630.144
 100  1744.175
 101  1933.554
 102  1973.423
 103  1946.362
 104  1833.377
 105  1777.821
 106  1733.976
 107  1686.311
 108  1890.219
 109  1872.516
 110  1774.252
 111  1604.722
 112  1643.563
 113  1694.604
 114  1577.089
 115  1603.639
 116  1545.9
 117  1709.298
 118  1797.806
 119  2036.994
 120  1843.152
 121  1696.216
 122  1649.07
 123  1834.192
 124  1792.002
 125  1682.323
 126  1649.683
 127  1598.34
 128  1605.844
 129  1638.834
 130  1785.937
 131  1781.323
 132  1797.293
 133  1776.711
 134  1777.066
 135  1831.066
 136  1920.461
 137  2172.266
 138  2067.992
 139  1865.302
 140  1670.693
 141  1749.621
 142  1784.813
 143  1705.103
 144  1627.404
 145  1595.396
 146  1634.529
 147  1640.148
 148  1602.955
 149  1568.215
 150  1705.707
 151  1939.24
 152  2007.034
 153  1909.532
 154  1784.735
 155  1721.283
 156  1764.466
 157  1562.647
 158  1376.674
 159  1398.322
 160  1580.669
 161  1746.814
 162  1701.301
 163  1678.797
 164  1641.951
 165  1829.283
 166  1854.639
 167  1800.255
 168  1734.349
 169  1871.74
 170  1747.843
 171  1730.481
 172  1712.043
 173  1785.279
 174  1510.073
 175  1453.574
 176  1414.401
 177  1536.091
 178  1442.44
 179  1559.73
 180  1736.338
 181  1853.171
 182  1877.822
 183  1898.612
 184  1831.138
 185  1705.866
 186  1542.178
 187  1617.926
 188  1597.79
 189  1685.981
 190  1805.767
 191  1776.171
 192  1608.953
 193  1438.317
 194  1460.902
 195  1571.125
 196  1625.49
 197  1821.557
 198  1832.93
 199  1788.406
 200  1703.36
 201  1731.863
 202  1831.47
 203  1746.51
 204  1607.891
 205  1564.343
 206  1444.756
 207  1459.937
 208  1415.478
 209  1520.542
 210  1534.626
 211  1472.1
 212  1612.713
 213  1584.845
 214  1589.259
 215  1563.197
 216  1735.727
 217  1876.308
 218  1864.695
 219  1888.48
 220  1975.865
 221  1782.603
 222  1585.732
 223  1421.883
 224  1569.892
 225  1563.194
 226  1540.803
 227  1571.628
 228  1592.122
 229  1684.497
 230  1770.47
 231  1942.133
 232  1935.627
 233  1873.49
 234  1895.823
 235  1771.783
 236  1703.566
 237  1664.746
 238  1788.035
 239  1781.462
 240  1600.332
 241  1606.578
 242  1696.342
 243  1760.33
 244  1612.469
 245  1552.623
 246  1690.239
 247  1842.074
 248  1805.692
 249  1819.143
 250  1859.52
 251  1781.399
 252  1719.114
 253  1736.991
 254  1900.587
 255  1850.077
 256  1874.221
 257  1837.774
 258  1780.757
 259  1640.723
 260  1758.801
 261  1750.559
 262  1719.183
 263  1796.608
 264  1985.522
 265  2099.545
 266  1939.568
 267  1724.317
 268  1781.589
 269  1816.015
 270  2053.196
 271  2065.163
 272  1990.747
 273  1873.731
 274  1850.098
 275  2143.178
 276  2091.73
 277  2008.815
 278  1842.379
 279  1816.834
 280  1711.798
 281  1641.435
 282  1689.144
 283  1733.952
 284  1752.872
 285  1934.916
 286  2036.23
 287  2027.595
 288  1804.114
 289  1746.541
 290  1689.87
 291  1600.386
 292  1705.708
 293  1904.942
 294  2011.859
 295  1845.073
 296  1805.286
 297  1885.469
 298  1871.694
 299  1960.256
 300  1920.065
 301  1925.742
 302  1900.846
 303  1935.776
 304  1975.884
 305  1774.822
 306  1698.471
 307  1746.35
 308  1881.207
 309  1784.23
 310  1620.268
 311  1524.914
 312  1703.599
 313  1813.131
 314  1895.139
 315  1855.372
 316  1844.807
 317  1865.908
 318  1816.365
 319  1672.66
 320  1670.815
 321  1662.5
 322  1704.959
 323  1603.252
 324  1599.714
 325  1480.495
 326  1498.888
 327  1530.884
 328  1793.969
 329  1899.561
 330  2013.436
 331  2140.327
 332  2064.737
 333  1841.526
 334  1480.025
 335  1569.939
 336  1652.389
 337  1613.773
 338  1417.57
 339  1326.444
 340  1314.047
 341  1395.516
 342  1563.769
 343  1730.839
 344  1681.011
 345  1748.649
 346  1766.891
 347  1888.443
 348  1855.777
 349  1916.421
 350  1893.711
 351  1876.232
 352  1884.663
 353  1896.322
 354  1744.783
 355  1460.017
 356  1287.734
 357  1372.555
 358  1588.796
 359  1647.042
 360  1774.409
 361  1917.652
 362  2050.046
 363  1965.266
 364  2032.005
 365  2107.607
 366  2119.659
 367  2126.722
 368  2026.073
 369  1853.882
 370  1690.96
 371  1519.377
 372  1529.503
 373  1505.289
 374  1613.731
 375  1462.529
 376  1498.01
 377  1637.184
 378  1750.671
 379  1820.625
 380  1877.433
 381  1930.997
 382  1937.418
 383  1913.18
 384  1954.223
 385  1889.165
 386  1884.071
 387  1882.081
 388  1882.312
 389  1771.963
 390  1784.722
 391  1900.58
 392  1862.188
 393  1671.147
 394  1664.266
 395  1892.002
 396  1931.305
 397  1869.593
 398  1771.61
 399  1719.178
 400  1609.017
 401  1701.507
 402  1803.782
 403  1890.886
 404  1720.998
 405  1715.802
 406  1753.154
 407  1737.966
 408  1763.825
 409  1774.65
 410  1781.304
 411  1687.06
 412  1691.198
 413  1784.028
 414  1876.924
 415  1727.822
 416  1704.384
 417  1724.966
 418  1811.9
 419  1879.411
 420  2052.359
 421  1937.716
 422  1707.965
 423  1741.822
 424  1918.824
 425  1890.537
 426  1764.705
 427  1775.475
 428  1664.136
 429  1461.03
 430  1519.571
 431  1724.86
 432  1843.688
 433  1632.061
 434  1589.237
 435  1573.139
 436  1684.739
 437  1735.556
 438  1898.719
 439  1958.373
 440  1851.038
 441  1796.839
 442  1828.204
 443  1666.623
 444  1438.002
 445  1547.741
 446  1596.048
 447  1799.317
 448  1684.623
 449  1798.242
 450  1742.313
 451  1607.714
 452  1602.952
 453  1739.926
 454  1781.189
 455  1800.507
 456  1782.143
 457  1830.49
 458  1712.549
 459  1569.145
 460  1566.214
 461  1667.117
 462  1814.251
 463  1866.092
 464  1957.033
 465  1797.51
 466  1915.85
 467  1923.352
 468  1910.804
 469  1805.556
 470  1645.686
 471  1786.8
 472  1757.029
 473  1782.299
 474  1711.766
 475  1639.116
 476  1685.739
 477  1581.693
 478  1676.509
 479  1722.628
 480  1770.552
 481  1720.531
 482  1683.793
 483  1706.936
 484  1737.378
 485  1692.478
 486  1719.276
 487  1608.004
 488  1584.899
 489  1449.161
 490  1633.159
 491  1728.031
 492  1788.279
 493  1755.917
 494  1782.937
 495  1942.667
 496  1894.944
 497  1915.035
 498  1933.153
 499  1945.445
 500  2023.522
 501  1919.706
 502  1722.121
 503  1632.228
 504  1602.342
 505  1720.679
 506  1555.566
 507  1430.736
 508  1415.804
 509  1547.006
 510  1662.836
 511  1696.023
 512  1626.419
 513  1715.156
 514  1734.087
 515  1910.519
 516  1816.39
 517  1702.941
 518  1645.229
 519  1738.934
 520  1728.798
 521  1657.871
 522  1593.557
 523  1606.522
 524  1675.393
 525  1776.577
 526  1820.765
 527  1834.546
 528  1897.212
 529  2073.747
 530  2053.305
 531  1901.787
 532  1907.707
 533  1848.491
 534  1955.019
 535  1816.192
 536  1800.312
 537  1589.237
 538  1603.718
 539  1610.991
 540  1667.74
 541  1516.134
 542  1458.759
 543  1533.101
 544  1650.056
 545  1628.598
 546  1746.269
 547  1929.625
 548  1937.693
 549  1766.003
 550  1759.983
 551  1932.5
 552  1904.699
 553  1807.553
 554  1717.2
 555  1658.558
 556  1687.343
 557  1680.959
 558  1821.68
 559  1699.851
 560  1696.61
 561  1766.122
 562  1714.19
 563  1731.704
 564  1735.001
 565  1975.849
 566  1914.079
 567  1773.078
 568  1760.63
 569  1719.48
 570  1718.342
 571  1708.973
 572  1775.208
 573  1758.894
 574  1534.861
 575  1644.008
 576  1705.722
 577  1584.643
 578  1562.695
 579  1607.174
 580  1723.235
 581  1549.044
 582  1521.679
 583  1647.978
 584  1620.255
 585  1644.277
 586  1734.371
 587  1890.284
 588  1824.252
 589  1700.244
 590  1840.036
 591  1873.865
 592  1811.281
 593  1668.971
 594  1822.696
 595  1881.108
 596  1752.223
 597  1803.611
 598  1770.05
 599  1802.672
 600  1727.083
 601  1705.566
 602  1775.96
 603  1797.6
 604  1884.119
 605  1784.659
 606  1723.205
 607  1724.858
 608  1742.599
 609  1757.182
 610  1660.735
 611  1610.386
 612  1677.118
 613  1640.843
 614  1649.286
 615  1731.182
 616  1800.923
 617  1813.149
 618  1736.139
 619  1820.857
 620  1754.568
 621  1772.942
 622  1768.617
 623  1896.956
 624  1764.26
 625  1679.686
 626  1530.652
 627  1473.165
 628  1533.814
 629  1500.89
 630  1624.671
 631  1690.07
 632  1797.661
 633  1824.011
 634  1872.94
 635  1765.006
 636  1723.726
 637  1649.099
 638  1820.674
 639  1705.307
 640  1529.638
 641  1368.147
 642  1401.62
 643  1627.39
 644  1836.802
 645  1967.103
 646  2039.487
 647  2011.765
 648  2268.204
 649  2448.767
 650  2490.703
 651  2296.593
 652  2302.324
 653  2431.363
 654  2378.671
 655  2327.945
 656  2281.472
 657  2402.637
 658  2415.157
 659  2433.665
 660  2292.827
 661  2175.407
 662  2194.354
 663  2138.392
 664  2074.185
 665  2014.114
 666  1979.853
 667  2039.187
 668  1992.556
 669  1840.664
 670  1669.859
 671  1570.529
 672  1592.752
 673  1558.488
 674  1569.551
 675  1583.203
 676  1656.016
 677  1918.305
 678  2023.882
 679  1943.648
 680  1787.77
 681  1811.902
 682  1890.274
 683  1925.791
 684  2003.708
 685  1918.071
 686  1742.521
 687  1622.871
 688  1577.428
 689  1529.957
 690  1443.38
 691  1693.309
 692  1892.296
 693  1916.803
 694  1836.407
 695  1793.43
 696  1935.871
 697  1880.813
 698  1927.937
 699  1895.205
 700  1615.504
 701  1473.336
 702  1545.708
 703  1651.964
 704  1647.781
 705  1599.226
 706  1869.726
 707  1931.951
 708  1830.698
 709  1919.408
 710  1941.773
 711  1977.019
 712  1792.978
 713  1854.189
 714  1852.584
 715  1555.738
 716  1468.34
 717  1532.257
 718  1622.664
 719  1515.031
 720  1565.166
 721  1831.117
 722  1747.153
 723  1699.782
 724  1660.986
 725  1903.015
 726  1892.63
 727  2058.557
 728  2078.573
 729  1990.178
 730  1706.396
 731  1725.611
 732  1765.839
 733  1869.607
 734  1672.372
 735  1716.524
 736  1692.278
 737  1807.417
 738  1726.851
 739  1825.208
 740  1822.831
 741  1817.806
 742  1787.302
 743  1815.845
 744  1598.459
 745  1501.269
 746  1714.714
 747  1913.578
 748  1860.184
 749  1789.267
 750  1812.622
 751  1834.752
 752  1741.909
 753  1753.348
 754  1767.733
 755  1739.792
 756  1620.312
 757  1686.885
 758  1637.288
 759  1635.568
 760  1474.143
 761  1593.798
 762  1722.457
 763  1733.662
 764  1801.939
 765  1741.5
 766  1756.218
 767  1697.547
 768  1700.356
 769  1749.381
 770  1577.214
 771  1624.845
 772  1679.223
 773  1744.286
 774  1637.63
 775  1556.991
 776  1665.188
 777  1683.929
 778  1643.043
 779  1732.787
 780  1784.305
 781  1846.049
 782  1672.488
 783  1613.096
 784  1587.23
 785  1583.125
 786  1745.064
 787  1907.232
 788  1910.868
 789  1696.652
 790  1615.828
 791  1734.646
 792  1736.821
 793  1695.308
 794  1652.866
 795  1674.737
 796  1773.769
 797  1817.723
 798  1832.357
 799  1790.939
 800  1805.572
 801  1861.813
 802  1896.242
 803  1844.967
 804  1659.871
 805  1655.698
 806  1636.781
 807  1707.841
 808  1721.219
 809  1692.897
 810  1656.85
 811  1695.681
 812  1705.654
 813  1622.549
 814  1605.213
 815  1818.62
 816  1988.627
 817  1980.036
 818  1860.286
 819  1800.451
 820  1729.579
 821  1655.27
 822  1581.015
 823  1547.471
 824  1638.228
 825  1640.904
 826  1644.765
 827  1667.821
 828  1577.969
 829  1803.028
 830  1854.552
 831  1957.45
 832  1793.533
 833  1731.928
 834  1733.187
 835  1703.611
 836  1657.613
 837  1599.498
 838  1524.748
 839  1577.766
 840  1585.901
 841  1651.626
 842  1738.938
 843  1721.792
 844  1823.947
 845  1795.101
 846  1881.278
 847  1847.761
 848  1786.764
 849  1706.804
 850  1710.079
 851  1734.11
 852  1662.558
 853  1564.274
 854  1639.358
 855  1708.648
 856  1638.56
 857  1529.152
 858  1641.353
 859  1822.815
 860  1981.71
 861  1937.164
 862  1788.422
 863  1597.428
 864  1593.707
 865  1642.268
 866  1684.329
 867  1501.151
 868  1416.759
 869  1405.101
 870  1467.414
 871  1281.585
 872  1350.095
 873  1500.375
 874  1698.706
 875  1725.385
 876  1778.338
 877  1782.227
 878  1743.693
 879  1698.06
 880  1752.366
 881  1679.99
 882  1686.439
 883  1635.19
 884  1653.847
 885  1600.425
 886  1407.904
 887  1493.691
 888  1649.871
 889  1835.621
 890  1860.224
 891  1926.301
 892  1873.585
 893  1732.88
 894  1656.876
 895  1795.252
 896  1681.825
 897  1630.488
 898  1542.544
 899  1588.659
 900  1549.74
 901  1534.389
 902  1572.85
 903  1547.152
 904  1541.012
 905  1522.316
 906  1477.756
 907  1574.162
 908  1688.629
 909  1868.152
 910  1872.708
 911  1770.326
 912  1703.814
 913  1763.708
 914  1854.392
 915  1654.774
 916  1625.625
 917  1621.733
 918  1708.4
 919  1678.912
 920  1656.243
 921  1680.612
 922  1650.2
 923  1620.358
 924  1837.925
 925  1854.72
 926  1919.929
 927  1830.111
 928  1828.097
 929  1790.522
 930  1731.512
 931  1786.122
 932  1746.014
 933  1657.605
 934  1593.261
 935  1723.973
 936  1785.387
 937  1718.751
 938  1513.404
 939  1606.1
 940  1568.864
 941  1534.329
 942  1552.907
 943  1716.584
 944  1793.013
 945  1667.788
 946  1597.845
 947  1573.416
 948  1674.633
 949  1768.055
 950  1844.03
 951  1680.026
 952  1485.835
 953  1439.565
 954  1559.175
 955  1691.017
 956  1612.225
 957  1580.789
 958  1505.396
 959  1495.474
 960  1607.065
 961  1648.683
 962  1853.682
 963  2001.885
 964  2072.1
 965  1986.624
 966  1822.581
 967  1775.794
 968  1851.3
 969  1840.909
 970  1878.318
 971  1794.226
 972  1924.382
 973  1821.482
 974  1716.172
 975  1612.515
 976  1614.305
 977  1793.674
 978  1829.015
 979  1987.063
 980  1899.352
 981  1968.772
 982  1893.726
 983  1883.443
 984  1769.807
 985  1735.8
 986  1714.341
 987  1710.938
 988  1558.902
 989  1470.526
 990  1583.79
 991  1859.274
 992  2022.869
 993  2006.245
 994  2006.14
 995  1977.892
 996  1975.106
 997  1925.888
 998  1899.822
 999  1859.27
1000  1650.78
1001  1565.959
1002  1552.051
1003  1610.552
1004  1584.325
1005  1627.274
1006  1785.124
1007  1833.019
1008  1822.636
1009  1812.06
1010  1826.792
1011  1795.574
1012  1812.71
1013  1981.359
1014  1884.404
1015  1737.799
1016  1514.985
1017  1433.226
1018  1458.431
1019  1279.424
1020  1449.92
1021  1541.027
1022  1761.626
1023  1766.785
