# Input file       =  1182577136.109246_cleaned.dat
# Candidate        =  PSR_0332+5434
# Telescope        =  AR
# Epoch_topo       =  57931.235591542201
# Epoch_bary       =  N/A
# T_sample         =  0.002
# Data Folded      =  7340032
# Data Avg         =  0.0741595080876971
# Data StdDev      =  2.60229924733563 
# Profile Bins     =  512
# Profile Avg      =  1062.85367211852 
# Profile StdDev   =  311.581190444468 
# Reduced chi-sqr  =  1.148
# Prob(Noise)      <  0.0114   (~2.3 sigma)
# P_topo (ms)      =  714.492341557464  +/- 0.000255
# P'_topo (s/s)    =  -0                +/- 1.34e-10
# P''_topo (s/s^2) =  0                 +/- 5.93e-14
# P_bary (ms)      =  N/A
# P'_bary (s/s)    =  N/A
# P''_bary (s/s^2) =  N/A
# P_orb (s)        =  N/A
# asin(i)/c (s)    =  N/A
# eccentricity     =  N/A
# w (rad)          =  N/A
# T_peri           =  N/A
######################################################
   0  1246.954
   1  1107.004
   2  1129.498
   3  1004.369
   4  1006.385
   5  1008.057
   6  888.7051
   7  1377.117
   8  1234.41
   9  922.5934
  10  1202.821
  11  1174.099
  12  971.7947
  13  983.3724
  14  803.853
  15  572.3663
  16  596.3636
  17  930.1677
  18  1179.708
  19  1261.296
  20  1198.603
  21  931.8072
  22  1154.124
  23  1247.484
  24  960.3523
  25  849.7437
  26  966.4666
  27  1146.793
  28  868.6701
  29  723.1493
  30  982.8436
  31  936.605
  32  1244.43
  33  980.1578
  34  1046.102
  35  1156.748
  36  914.7749
  37  955.5944
  38  1137.614
  39  854.3075
  40  890.1139
  41  1055.985
  42  1154.134
  43  1412.859
  44  1309.996
  45  1090.115
  46  980.3975
  47  1222.089
  48  916.3549
  49  1007.482
  50  974.2872
  51  901.6721
  52  1050.838
  53  1246.607
  54  1043.114
  55  1012.443
  56  1146.946
  57  1240.432
  58  1056.61
  59  1037.734
  60  1040.918
  61  1128.647
  62  854.1182
  63  1198.443
  64  1044.014
  65  937.5443
  66  992.2741
  67  1024.125
  68  1023.303
  69  916.8722
  70  970.9866
  71  1266.589
  72  1118.161
  73  1002.519
  74  1213.134
  75  1136.344
  76  1121.707
  77  871.8604
  78  1069.849
  79  1099.363
  80  1108.931
  81  796.2275
  82  792.2174
  83  1067.957
  84  1385.158
  85  1216.75
  86  1235.187
  87  1764.463
  88  1887.231
  89  1774.387
  90  2033.145
  91  2277.082
  92  2378.776
  93  2562.186
  94  2137.401
  95  1729.067
  96  1390.84
  97  1225.739
  98  1390.43
  99  1131.165
 100  1058.441
 101  1247.01
 102  1036.634
 103  940.7562
 104  1309.392
 105  1059.256
 106  1101.643
 107  1302.862
 108  1483.702
 109  1305.587
 110  1406.248
 111  1182.827
 112  1141.652
 113  968.1559
 114  858.3724
 115  1095.957
 116  822.5332
 117  849.5102
 118  989.48
 119  1243.085
 120  1072.787
 121  1175.619
 122  1114.052
 123  1014.255
 124  1356.278
 125  1441.938
 126  1008.522
 127  880.6969
 128  862.2615
 129  671.5321
 130  932.6785
 131  1170.605
 132  1140.851
 133  1072.878
 134  965.5483
 135  845.3267
 136  829.548
 137  942.5949
 138  1017.694
 139  1080.092
 140  1170.345
 141  1155.508
 142  1434.047
 143  1353.356
 144  1192.719
 145  1240.822
 146  1417.803
 147  1227.62
 148  884.1231
 149  1007.639
 150  1128.997
 151  847.5994
 152  772.8547
 153  764.6619
 154  948.5325
 155  1327.066
 156  1027.369
 157  1025.604
 158  1270.299
 159  1229.685
 160  1101.552
 161  855.5389
 162  1234.587
 163  1415.583
 164  1451.022
 165  1239.562
 166  1109.475
 167  1417.619
 168  1349.033
 169  1020.23
 170  818.2258
 171  868.1824
 172  1056.13
 173  913.4464
 174  982.525
 175  1031
 176  981.3743
 177  1388.739
 178  1311.335
 179  1237.916
 180  1120.798
 181  1071.979
 182  999.8022
 183  1272.889
 184  1164.74
 185  1339.539
 186  1527.663
 187  1273.271
 188  1084.351
 189  1130.403
 190  1027.16
 191  1015.459
 192  1021.614
 193  1060.752
 194  1131.414
 195  1177.778
 196  1217.958
 197  1212.395
 198  1079.339
 199  1025.366
 200  1074.036
 201  1464.965
 202  1171.088
 203  969.7778
 204  1263.712
 205  1417.798
 206  1472.186
 207  1276.255
 208  1045.242
 209  722.5412
 210  1152.261
 211  1284.676
 212  1266.019
 213  1503.494
 214  1580.749
 215  1060.49
 216  1114.461
 217  1211.956
 218  938.9134
 219  1144.872
 220  1445.012
 221  1006.121
 222  1035.531
 223  1067.99
 224  1021.163
 225  1243.654
 226  1326.52
 227  1079.096
 228  819.6445
 229  1159.037
 230  1171.574
 231  1378.126
 232  1196.863
 233  1272.75
 234  1098.588
 235  931.4504
 236  752.3599
 237  708.771
 238  840.2177
 239  642.3863
 240  803.4357
 241  1005.152
 242  974.3977
 243  883.1607
 244  695.9459
 245  783.252
 246  867.6713
 247  993.3618
 248  748.5276
 249  745.5729
 250  807.8848
 251  566.6093
 252  811.2466
 253  827.2941
 254  757.9769
 255  882.1933
 256  968.9051
 257  768.7952
 258  842.9059
 259  858.3771
 260  804.0847
 261  1246.345
 262  1087.621
 263  1066.797
 264  839.3861
 265  1033.219
 266  1105.007
 267  1262.023
 268  1237.21
 269  1130.96
 270  1040.603
 271  1086.6
 272  868.6464
 273  1010.214
 274  1142.121
 275  1304.746
 276  1032.031
 277  1069.849
 278  890.6303
 279  1075.84
 280  1211.645
 281  1044.146
 282  1099.064
 283  1097.769
 284  711.8457
 285  714.9673
 286  722.7189
 287  750.4688
 288  918.0569
 289  873.1161
 290  772.4224
 291  773.8121
 292  823.8188
 293  813.9581
 294  706.3323
 295  893.9952
 296  1313.448
 297  1250.049
 298  1113.796
 299  1072.299
 300  1072.59
 301  1143.762
 302  978.6351
 303  1201.193
 304  1113.685
 305  1331.36
 306  1384.861
 307  1223.362
 308  1016.146
 309  1165.688
 310  1237.406
 311  809.4653
 312  786.9626
 313  979.199
 314  895.6785
 315  768.8188
 316  788.2079
 317  809.0037
 318  911.8337
 319  977.2471
 320  879.6705
 321  1104.234
 322  1273.345
 323  1423.63
 324  1167.094
 325  1154.817
 326  938.2452
 327  746.3278
 328  749.251
 329  736.6077
 330  936.1415
 331  909.459
 332  999.9343
 333  1249.295
 334  1387.837
 335  1355.144
 336  996.0999
 337  813.572
 338  842.0233
 339  1177.251
 340  1377.598
 341  1517.86
 342  1361.958
 343  1038.854
 344  1046.889
 345  1182.649
 346  1256.022
 347  876.8184
 348  1212.721
 349  1224.24
 350  941.4367
 351  718.6854
 352  731.7033
 353  905.8311
 354  1040.006
 355  970.6997
 356  1142.38
 357  1005.574
 358  904.6875
 359  707.8208
 360  723.1436
 361  820.3791
 362  1250.904
 363  1033.052
 364  868.4469
 365  677.4889
 366  774.026
 367  1182.83
 368  911.8148
 369  953.3763
 370  873.9726
 371  896.5251
 372  1365.291
 373  1119.285
 374  918.9525
 375  1153.039
 376  1070.058
 377  1004.558
 378  1030.305
 379  672.9258
 380  687.0946
 381  982.1195
 382  1257.205
 383  758.6155
 384  464.8285
 385  766.8915
 386  912.6063
 387  1040.973
 388  926.5764
 389  983.5583
 390  1103.585
 391  974.2932
 392  1135.619
 393  981.6081
 394  1215.091
 395  990.0773
 396  968.8544
 397  799.6126
 398  900.7347
 399  1044.669
 400  1063.28
 401  1038.519
 402  992.4606
 403  935.6331
 404  899.2319
 405  1091.375
 406  1099.04
 407  969.1238
 408  980.3556
 409  546.4901
 410  946.7902
 411  963.0368
 412  1072.011
 413  1498.948
 414  1161.449
 415  944.5172
 416  771.7862
 417  687.3873
 418  829.4852
 419  969.3038
 420  1137.216
 421  1166.328
 422  1115.383
 423  1035.566
 424  1014.603
 425  1279.121
 426  1218.645
 427  1392.375
 428  1284.614
 429  1373.634
 430  1218.177
 431  994.5955
 432  1180.134
 433  1221.828
 434  1345.278
 435  1219.86
 436  984.0856
 437  1182.768
 438  1117.21
 439  1360.753
 440  1290.562
 441  1018.78
 442  1071.216
 443  1408.984
 444  1478.333
 445  1485.902
 446  1297.953
 447  1226.163
 448  1063.864
 449  969.9813
 450  1033.626
 451  1001.588
 452  952.5632
 453  1100.54
 454  916.4764
 455  843.9388
 456  848.7833
 457  805.592
 458  835.3661
 459  837.879
 460  603.1424
 461  670.1996
 462  742.5466
 463  641.6469
 464  665.0318
 465  893.7215
 466  881.123
 467  930.5673
 468  1130.602
 469  984.4222
 470  970.9576
 471  1023.994
 472  989.665
 473  670.2357
 474  666.8467
 475  523.8476
 476  890.7745
 477  1002.568
 478  977.8558
 479  981.0296
 480  930.3513
 481  921.9421
 482  690.5121
 483  753.7286
 484  1131.062
 485  930.6844
 486  1130.738
 487  1059.409
 488  1277.214
 489  1443.68
 490  1436.027
 491  1076.08
 492  769.7789
 493  1092.506
 494  1136.413
 495  1126.659
 496  1109.589
 497  1238.695
 498  1178.077
 499  870.1718
 500  1035.146
 501  1056.343
 502  842.832
 503  843.6468
 504  983.7438
 505  1168.541
 506  1050.641
 507  1029.484
 508  967.6536
 509  957.5376
 510  1200.139
 511  1293.726
