# Input file       =  1182850506.116156_cleaned.dat
# Candidate        =  PSR_0332+5434
# Telescope        =  AR
# Epoch_topo       =  57934.399596251809
# Epoch_bary       =  N/A
# T_sample         =  0.002
# Data Folded      =  7340032
# Data Avg         =  0.0499791531687535
# Data StdDev      =  1.00012967130739 
# Profile Bins     =  512
# Profile Avg      =  716.531559933405 
# Profile StdDev   =  119.748562316131 
# Reduced chi-sqr  =  0.850
# Prob(Noise)      <  0.994   (~0.0 sigma)
# P_topo (ms)      =  714.490052933282  +/- 3.93e-05
# P'_topo (s/s)    =  -0                +/- 2.08e-11
# P''_topo (s/s^2) =  0                 +/- 9.16e-15
# P_bary (ms)      =  N/A
# P'_bary (s/s)    =  N/A
# P''_bary (s/s^2) =  N/A
# P_orb (s)        =  N/A
# asin(i)/c (s)    =  N/A
# eccentricity     =  N/A
# w (rad)          =  N/A
# T_peri           =  N/A
######################################################
   0  802.3569
   1  687.66
   2  632.9123
   3  673.9659
   4  733.9684
   5  769.2064
   6  786.4441
   7  739.3001
   8  762.1015
   9  754.8475
  10  770.8339
  11  716.9361
  12  578.6862
  13  699.1324
  14  833.6805
  15  755.3235
  16  637.7413
  17  657.9765
  18  706.4262
  19  670.5837
  20  764.828
  21  709.1357
  22  682.4479
  23  696.408
  24  790.9998
  25  777.7615
  26  786.1378
  27  656.0227
  28  591.269
  29  675.2335
  30  625.5803
  31  575.174
  32  573.5458
  33  668.032
  34  771.73
  35  715.5693
  36  603.2476
  37  640.4914
  38  590.2757
  39  708.0374
  40  777.1547
  41  833.4715
  42  860.9127
  43  774.8359
  44  662.4681
  45  688.815
  46  711.6472
  47  771.0002
  48  717.6251
  49  725.4958
  50  700.5723
  51  706.2177
  52  721.4881
  53  760.9551
  54  789.1621
  55  795.291
  56  839.7708
  57  895.7505
  58  844.0325
  59  666.032
  60  681.272
  61  811.0178
  62  883.9353
  63  855.1425
  64  823.3137
  65  733.0333
  66  750.0175
  67  812.6649
  68  745.4196
  69  697.7936
  70  728.204
  71  814.3589
  72  758.0883
  73  724.3044
  74  637.6263
  75  682.3552
  76  700.3969
  77  671.071
  78  533.9756
  79  585.6059
  80  709.4798
  81  762.5934
  82  735.7736
  83  635.6487
  84  698.5722
  85  742.2798
  86  740.4167
  87  816.4984
  88  780.3998
  89  624.7358
  90  640.8538
  91  816.7546
  92  901.806
  93  827.4424
  94  789.8508
  95  700.1201
  96  625.9919
  97  641.5487
  98  706.2261
  99  695.1107
 100  767.9506
 101  846.4893
 102  747.0594
 103  667.081
 104  676.7476
 105  702.7949
 106  784.1024
 107  710.1058
 108  649.472
 109  655.5621
 110  674.1234
 111  690.9109
 112  721.7085
 113  676.0775
 114  708.4858
 115  747.4346
 116  822.6316
 117  691.7203
 118  587.15
 119  599.782
 120  653.6809
 121  731.9837
 122  599.5752
 123  535.3902
 124  685.3455
 125  691.8072
 126  751.4336
 127  764.2911
 128  839.0137
 129  751.2173
 130  685.3043
 131  710.38
 132  778.5634
 133  772.3341
 134  788.6024
 135  810.7151
 136  772.4258
 137  749.3043
 138  796.5023
 139  783.6694
 140  801.2971
 141  733.3469
 142  618.9426
 143  683.6238
 144  767.1619
 145  666.1482
 146  696.9113
 147  651.3253
 148  678.7704
 149  664.1546
 150  777.1433
 151  874.6313
 152  839.3648
 153  924.1975
 154  1095.615
 155  1096.704
 156  1039.591
 157  861.5245
 158  818.7635
 159  842.8463
 160  743.919
 161  718.7433
 162  646.1731
 163  753.6683
 164  734.9268
 165  677.0616
 166  620.3964
 167  723.6629
 168  816.168
 169  903.3771
 170  806.7383
 171  727.1344
 172  738.5082
 173  745.152
 174  745.9952
 175  628.0554
 176  692.7293
 177  804.5464
 178  853.8394
 179  738.0089
 180  650.4855
 181  700.8328
 182  714.6084
 183  666.0281
 184  658.1136
 185  713.6649
 186  676.9417
 187  734.8141
 188  720.6093
 189  670.7131
 190  677.2117
 191  802.8474
 192  798.3782
 193  713.8751
 194  644.8193
 195  708.1927
 196  742.1177
 197  802.6321
 198  645.5638
 199  592.2243
 200  706.5173
 201  796.4936
 202  662.7117
 203  658.7122
 204  664.2404
 205  731.4363
 206  874.7998
 207  836.03
 208  746.468
 209  768.3715
 210  775.5685
 211  715.4532
 212  721.65
 213  685.9291
 214  717.9705
 215  840.2958
 216  859.9044
 217  727.1813
 218  728.3655
 219  689.0706
 220  738.3395
 221  742.3358
 222  691.7106
 223  638.7277
 224  588.0897
 225  759.7546
 226  787.0556
 227  675.5266
 228  599.7736
 229  732.3747
 230  857.4213
 231  832.6765
 232  707.3592
 233  709.8365
 234  681.4203
 235  709.1994
 236  676.8033
 237  619.5872
 238  581.129
 239  636.6539
 240  800.7113
 241  657.5916
 242  573.2675
 243  668.7789
 244  656.4296
 245  637.2002
 246  575.7584
 247  636.0001
 248  621.7615
 249  644.5091
 250  709.5469
 251  596.2879
 252  530.1835
 253  704.1335
 254  775.8463
 255  760.1005
 256  751.749
 257  676.116
 258  677.617
 259  716.8876
 260  774.3653
 261  755.5307
 262  753.4103
 263  714.4846
 264  829.7924
 265  840.2302
 266  827.4843
 267  782.5781
 268  765.1298
 269  752.5641
 270  678.6499
 271  694.7859
 272  707.8902
 273  734.7714
 274  673.5223
 275  744.4122
 276  724.5577
 277  681.4129
 278  685.427
 279  618.2741
 280  661.2808
 281  653.4472
 282  650.618
 283  703.6995
 284  752.7469
 285  744.986
 286  704.304
 287  757.6734
 288  838.5143
 289  744.0812
 290  637.5265
 291  635.521
 292  764.3124
 293  864.4405
 294  777.4369
 295  695.2889
 296  736.0639
 297  738.4684
 298  824.7577
 299  786.2767
 300  766.7695
 301  699.662
 302  726.7477
 303  762.9598
 304  738.2863
 305  734.2219
 306  724.3712
 307  826.6021
 308  781.0784
 309  710.038
 310  801.8608
 311  900.7521
 312  823.7635
 313  678.0867
 314  595.5702
 315  695.9979
 316  850.3616
 317  826.2194
 318  665.8235
 319  644.0176
 320  685.1171
 321  795.7169
 322  690.9459
 323  621.0208
 324  600.702
 325  653.0919
 326  738.5621
 327  689.2581
 328  652.9819
 329  650.3
 330  647.4872
 331  704.3055
 332  649.0397
 333  629.3618
 334  642.4622
 335  732.3772
 336  647.5559
 337  650.8567
 338  601.1584
 339  539.7482
 340  558.6169
 341  639.8109
 342  668.8459
 343  550.8124
 344  748.6118
 345  783.7988
 346  746.1519
 347  739.1304
 348  742.1083
 349  748.1194
 350  709.095
 351  568.9801
 352  725.2602
 353  743.5129
 354  680.8099
 355  821.4885
 356  904.5695
 357  808.9194
 358  709.3586
 359  714.439
 360  678.8824
 361  678.9461
 362  570.9572
 363  696.7626
 364  687.3062
 365  627.5375
 366  611.8292
 367  680.6471
 368  770.0959
 369  676.9239
 370  581.389
 371  460.4628
 372  620.8732
 373  723.2448
 374  612.7894
 375  678.8024
 376  659.3145
 377  800.0427
 378  882.283
 379  873.3404
 380  736.6311
 381  633.04
 382  597.3688
 383  755.3401
 384  785.1345
 385  699.4175
 386  723.9428
 387  830.0375
 388  829.4422
 389  823.3311
 390  723.2113
 391  723.699
 392  680.9513
 393  672.662
 394  734.2754
 395  759.2812
 396  695.4526
 397  699.387
 398  750.8629
 399  665.4147
 400  526.9244
 401  575.4314
 402  656.2942
 403  668.0364
 404  727.0135
 405  674.0193
 406  669.7202
 407  763.9859
 408  841.4317
 409  728.6141
 410  636.5594
 411  720.3198
 412  642.274
 413  656.4284
 414  684.5076
 415  666.0851
 416  666.5446
 417  771.1494
 418  747.5259
 419  712.6079
 420  660.48
 421  767.322
 422  820.2134
 423  709.4627
 424  691.5776
 425  809.3839
 426  839.2083
 427  682.0139
 428  622.6365
 429  679.3354
 430  781.6923
 431  765.9202
 432  716.5663
 433  601.4558
 434  620.6947
 435  756.0376
 436  744.6426
 437  737.088
 438  749.2089
 439  656.5781
 440  642.8148
 441  703.2928
 442  618.2579
 443  626.7032
 444  720.1682
 445  693.4633
 446  631.5259
 447  650.6781
 448  704.2094
 449  646.7211
 450  673.3854
 451  628.9098
 452  558.6724
 453  560.8696
 454  735.9095
 455  662.0833
 456  665.667
 457  686.4534
 458  627.9738
 459  495.2013
 460  723.9653
 461  709.1028
 462  547.5784
 463  586.58
 464  695.5175
 465  635.155
 466  616.5214
 467  641.2
 468  710.919
 469  689.5513
 470  690.738
 471  720.6481
 472  693.4163
 473  737.4429
 474  792.9188
 475  802.8589
 476  753.6025
 477  696.5441
 478  702.0478
 479  764.052
 480  805.6255
 481  682.681
 482  577.0482
 483  709.2609
 484  762.4731
 485  665.3766
 486  610.1749
 487  700.3262
 488  728.4475
 489  785.1436
 490  766.2316
 491  642.0961
 492  715.462
 493  845.298
 494  780.362
 495  772.8954
 496  825.5044
 497  786.7515
 498  765.277
 499  775.2212
 500  760.5432
 501  731.338
 502  727.7966
 503  699.9112
 504  792.4604
 505  747.5651
 506  739.0841
 507  714.2895
 508  728.3818
 509  697.9635
 510  662.4871
 511  736.3587
