# Input file       =  1182921607.112785_cleaned.dat
# Candidate        =  PSR_0332+5434
# Telescope        =  AR
# Epoch_topo       =  57935.222524453529
# Epoch_bary       =  N/A
# T_sample         =  0.002
# Data Folded      =  7340032
# Data Avg         =  0.0443238558111983
# Data StdDev      =  1.0001291799854  
# Profile Bins     =  512
# Profile Avg      =  635.446571622368 
# Profile StdDev   =  119.748503488658 
# Reduced chi-sqr  =  1.111
# Prob(Noise)      <  0.0417   (~1.7 sigma)
# P_topo (ms)      =  714.48905067603   +/- 0.000422
# P'_topo (s/s)    =  -0                +/- 2.23e-10
# P''_topo (s/s^2) =  0                 +/- 9.83e-14
# P_bary (ms)      =  N/A
# P'_bary (s/s)    =  N/A
# P''_bary (s/s^2) =  N/A
# P_orb (s)        =  N/A
# asin(i)/c (s)    =  N/A
# eccentricity     =  N/A
# w (rad)          =  N/A
# T_peri           =  N/A
######################################################
   0  1136.608
   1  1100.419
   2  922.8768
   3  785.7782
   4  723.9632
   5  620.769
   6  520.8732
   7  597.4573
   8  570.9666
   9  580.5043
  10  679.365
  11  653.2489
  12  582.4088
  13  538.6396
  14  686.4835
  15  597.3744
  16  591.18
  17  608.1153
  18  579.0186
  19  596.4879
  20  611.5838
  21  619.9868
  22  664.9893
  23  637.5282
  24  661.5721
  25  673.3784
  26  692.4119
  27  703.2767
  28  749.7648
  29  721.3035
  30  651.7327
  31  615.8711
  32  704.4328
  33  607.3808
  34  688.9019
  35  706.6097
  36  688.6667
  37  624.4744
  38  584.5347
  39  538.1031
  40  645.0288
  41  681.2098
  42  653.2044
  43  683.384
  44  725.8741
  45  630.0483
  46  555.0408
  47  554.9568
  48  482.0083
  49  490.7405
  50  618.2877
  51  526.8035
  52  561.5268
  53  508.1441
  54  507.7772
  55  569.9008
  56  627.4062
  57  645.1666
  58  516.9389
  59  501.0236
  60  468.7821
  61  403.4576
  62  340.3621
  63  523.6912
  64  621.637
  65  630.9732
  66  563.2581
  67  534.0259
  68  507.239
  69  501.0623
  70  574.6042
  71  580.4695
  72  537.4018
  73  472.1894
  74  518.7542
  75  573.1871
  76  639.7139
  77  605.8815
  78  539.7243
  79  610.2775
  80  640.7137
  81  653.1405
  82  539.2217
  83  487.3688
  84  592.9335
  85  656.4108
  86  633.2078
  87  603.208
  88  575.0345
  89  524.601
  90  549.5741
  91  641.5981
  92  666.2667
  93  678.2726
  94  634.0385
  95  740.7209
  96  750.4248
  97  691.9534
  98  657.1375
  99  666.9114
 100  737.9804
 101  727.3493
 102  726.6904
 103  762.3369
 104  612.8729
 105  490.6382
 106  708.9775
 107  622.1001
 108  573.6018
 109  741.0381
 110  743.0342
 111  613.6448
 112  584.8794
 113  545.0349
 114  634.668
 115  584.7226
 116  608.0409
 117  716.2051
 118  562.5331
 119  548.3605
 120  672.092
 121  697.4189
 122  672.5947
 123  678.125
 124  718.6091
 125  782.6708
 126  747.6528
 127  569.1287
 128  633.9977
 129  678.1006
 130  589.0012
 131  620.1957
 132  615.7576
 133  612.9375
 134  636.189
 135  613.5977
 136  696.9033
 137  622.4341
 138  629.355
 139  690.2958
 140  738.3028
 141  612.4186
 142  622.2253
 143  635.6304
 144  596.6722
 145  637.8219
 146  640.0012
 147  639.3138
 148  534.5667
 149  487.5437
 150  606.8032
 151  740.8409
 152  661.9648
 153  519.711
 154  575.5891
 155  683.2642
 156  689.911
 157  625.2589
 158  590.4099
 159  531.1443
 160  502.6764
 161  606.2874
 162  612.4465
 163  528.8398
 164  540.1993
 165  629.0839
 166  678.0446
 167  657.0722
 168  670.3183
 169  647.5507
 170  676.2874
 171  739.5989
 172  717.9108
 173  694.5839
 174  685.4307
 175  711.4453
 176  662.1371
 177  767.7152
 178  819.7169
 179  707.9404
 180  742.1483
 181  676.1191
 182  678.2759
 183  588.0825
 184  582.5041
 185  580.6358
 186  681.7367
 187  663.0093
 188  645.4429
 189  686.9128
 190  629.7872
 191  597.5028
 192  535.9434
 193  519.6716
 194  568.6434
 195  606.1041
 196  666.2239
 197  586.9701
 198  525.5578
 199  506.6681
 200  462.8562
 201  595.2475
 202  749.2326
 203  746.3252
 204  589.8509
 205  503.2951
 206  548.9568
 207  610.918
 208  703.9348
 209  663.6957
 210  624.4566
 211  648.1539
 212  570.2424
 213  494.9598
 214  538.5632
 215  577.7706
 216  637.7695
 217  554.5547
 218  539.0292
 219  586.6787
 220  600.6569
 221  617.8285
 222  765.8717
 223  797.5771
 224  743.2233
 225  733.7372
 226  626.703
 227  726.9891
 228  834.6783
 229  765.2606
 230  730.4545
 231  748.9133
 232  702.6111
 233  681.9807
 234  592.0638
 235  601.2854
 236  591.5226
 237  629.5594
 238  693.6494
 239  660.9548
 240  601.5434
 241  689.5952
 242  728.9683
 243  631.4558
 244  578.8388
 245  592.9514
 246  719.6978
 247  687.426
 248  597.7894
 249  586.4822
 250  554.0635
 251  607.836
 252  677.947
 253  551.2695
 254  587.5314
 255  582.8418
 256  562.7246
 257  632.9751
 258  737.2074
 259  680.0807
 260  682.6758
 261  769.6852
 262  799.64
 263  764.4602
 264  692.4058
 265  640.704
 266  735.8156
 267  653.5649
 268  640.9955
 269  679.4782
 270  723.9665
 271  652.2278
 272  633.279
 273  703.3107
 274  660.6218
 275  638.0618
 276  621.321
 277  697.4442
 278  765.3554
 279  749.4603
 280  775.4878
 281  685.9848
 282  669.4062
 283  770.6113
 284  779.9492
 285  771.1469
 286  597.0758
 287  595.269
 288  699.0306
 289  740.8748
 290  701.22
 291  664.0997
 292  748.5179
 293  668.1227
 294  649.3977
 295  635.6978
 296  629.7643
 297  612.5437
 298  721.7257
 299  707.8881
 300  575.846
 301  619.7155
 302  775.7452
 303  725.1964
 304  681.7166
 305  647.5696
 306  684.4225
 307  618.4345
 308  633.3354
 309  678.1907
 310  653.8492
 311  681.7617
 312  709.1717
 313  613.2194
 314  700.9605
 315  711.9025
 316  783.7387
 317  712.8734
 318  818.6581
 319  663.149
 320  503.6043
 321  680.114
 322  831.6227
 323  850.3784
 324  815.1851
 325  727.0387
 326  634.4774
 327  606.3499
 328  685.8032
 329  782.612
 330  699.4338
 331  771.2088
 332  757.7875
 333  744.8012
 334  711.9866
 335  576.259
 336  601.9526
 337  575.0026
 338  611.2662
 339  722.0701
 340  621.7559
 341  731.3361
 342  785.4767
 343  781.7419
 344  795.5823
 345  785.3349
 346  679.5182
 347  744.7197
 348  710.2408
 349  707.4517
 350  759.5305
 351  684.1965
 352  656.4039
 353  711.4816
 354  717.6644
 355  680.9228
 356  667.7524
 357  600.3768
 358  678.2566
 359  665.6367
 360  663.4194
 361  764.8876
 362  698.7164
 363  745.9974
 364  599.4935
 365  603.6338
 366  603.3895
 367  634.1915
 368  588.8067
 369  649.8427
 370  611.8837
 371  492.2275
 372  571.0693
 373  659.4574
 374  648.9386
 375  606.2947
 376  618.7118
 377  585.5027
 378  605.5645
 379  691.7663
 380  646.9254
 381  659.4631
 382  655.3948
 383  686.423
 384  577.077
 385  587.6904
 386  630.2516
 387  721.2508
 388  699.1738
 389  604.1439
 390  523.5453
 391  580.6114
 392  605.6579
 393  683.1495
 394  678.0668
 395  642.1422
 396  551.4293
 397  597.4519
 398  624.7719
 399  633.7151
 400  664.4
 401  614.9442
 402  544.179
 403  622.8505
 404  498.2846
 405  431.9383
 406  462.8235
 407  601.8798
 408  621.9138
 409  617.7156
 410  574.4286
 411  533.7379
 412  457.0042
 413  523.6323
 414  528.2343
 415  494.6009
 416  468.4558
 417  468.6452
 418  524.541
 419  532.4253
 420  616.6951
 421  583.96
 422  530.9738
 423  526.4583
 424  492.9776
 425  615.1158
 426  666.5051
 427  546.6713
 428  460.7668
 429  536.3956
 430  592.9715
 431  710.1534
 432  641.4904
 433  588.7439
 434  542.1752
 435  533.1814
 436  579.7426
 437  539.9295
 438  572.5611
 439  618.842
 440  595.6209
 441  576.6732
 442  545.979
 443  644.2274
 444  699.0992
 445  515.5507
 446  465.2065
 447  617.7063
 448  656.3847
 449  533.4578
 450  464.9527
 451  581.6279
 452  545.7917
 453  572.2532
 454  465.4744
 455  497.1503
 456  655.3203
 457  632.5313
 458  513.0657
 459  523.8008
 460  556.7377
 461  562.6228
 462  480.2477
 463  551.418
 464  595.2396
 465  584.854
 466  568.5052
 467  679.5649
 468  601.8676
 469  740.5336
 470  645.1382
 471  585.1869
 472  623.9626
 473  609.6141
 474  649.4053
 475  605.1424
 476  561.0776
 477  623.5746
 478  665.8871
 479  678.2977
 480  548.9374
 481  489.7234
 482  503.0928
 483  505.0703
 484  618.0684
 485  586.9646
 486  505.1107
 487  585.2928
 488  575.9771
 489  510.5204
 490  534.8712
 491  478.7437
 492  618.0994
 493  657.0065
 494  698.9976
 495  607.9757
 496  653.6172
 497  662.7711
 498  714.6878
 499  756.7259
 500  782.1202
 501  610.07
 502  642.2725
 503  661.5869
 504  611.8679
 505  631.2805
 506  665.4813
 507  690.2249
 508  693.7287
 509  854.6517
 510  1015.471
 511  1091.165
