# Input file       =  1182577136.109246_cleaned.dat
# Candidate        =  PSR_0332+5434
# Telescope        =  AR
# Epoch_topo       =  57931.235591542201
# Epoch_bary       =  N/A
# T_sample         =  0.002
# Data Folded      =  7340032
# Data Avg         =  0.0741595080876971
# Data StdDev      =  2.60229924733563 
# Profile Bins     =  512
# Profile Avg      =  1062.85367288553 
# Profile StdDev   =  311.581190444468 
# Reduced chi-sqr  =  1.147
# Prob(Noise)      <  0.0117   (~2.3 sigma)
# P_topo (ms)      =  714.492341561761  +/- 0.000256
# P'_topo (s/s)    =  -0                +/- 1.35e-10
# P''_topo (s/s^2) =  0                 +/- 5.95e-14
# P_bary (ms)      =  N/A
# P'_bary (s/s)    =  N/A
# P''_bary (s/s^2) =  N/A
# P_orb (s)        =  N/A
# asin(i)/c (s)    =  N/A
# eccentricity     =  N/A
# w (rad)          =  N/A
# T_peri           =  N/A
######################################################
   0  1061.807
   1  913.4041
   2  1025.862
   3  1193.262
   4  1113.372
   5  1048.327
   6  1159.516
   7  731.3268
   8  730.14
   9  704.7471
  10  751.1091
  11  865.8991
  12  928.2988
  13  775.1321
  14  778.7562
  15  802.0724
  16  811.9021
  17  763.3071
  18  770.0319
  19  1281.012
  20  1268.81
  21  1153.11
  22  1052.405
  23  1087.781
  24  1128.407
  25  1019.293
  26  1113.316
  27  1176.137
  28  1217.018
  29  1453.029
  30  1272.978
  31  1050.148
  32  1085.754
  33  1235.786
  34  941.9786
  35  709.0553
  36  983.2171
  37  923.522
  38  791.1987
  39  775.6415
  40  819.4487
  41  878.5739
  42  987.0367
  43  879.3472
  44  1044.483
  45  1243.699
  46  1408.326
  47  1211.513
  48  1181.814
  49  1003.063
  50  765.7018
  51  772.7436
  52  670.975
  53  935.8196
  54  898.5749
  55  966.6179
  56  1190.094
  57  1343.159
  58  1404.403
  59  1083.127
  60  854.2964
  61  794.1698
  62  1094.365
  63  1346.458
  64  1485.645
  65  1435.977
  66  1105.579
  67  1010.135
  68  1156.465
  69  1284.367
  70  934.884
  71  1069.327
  72  1311.585
  73  992.5202
  74  768.2667
  75  704.6819
  76  868.5726
  77  1023.523
  78  971.3728
  79  1128.56
  80  1035.31
  81  934.1174
  82  729.1859
  83  746.9818
  84  755.4343
  85  1173.52
  86  1111.515
  87  905.1538
  88  724.2122
  89  672.0499
  90  1140.224
  91  981.7708
  92  934.738
  93  907.4036
  94  836.2007
  95  1276.863
  96  1237.314
  97  891.7815
  98  1114.29
  99  1131.577
 100  982.2638
 101  1076.396
 102  730.714
 103  645.6976
 104  908.6713
 105  1247.906
 106  906.4614
 107  476.1729
 108  669.7017
 109  890.0806
 110  1028.157
 111  951.949
 112  964.5945
 113  1039.616
 114  1038.834
 115  1087.42
 116  1017.563
 117  1170.68
 118  1053.816
 119  991.0925
 120  813.3111
 121  862.4852
 122  1005.705
 123  1055.351
 124  1075.596
 125  1000.659
 126  984.105
 127  854.5469
 128  1057.113
 129  1096.745
 130  988.6232
 131  1019.406
 132  608.9115
 133  818.3384
 134  1026.245
 135  983.5889
 136  1442.997
 137  1294.552
 138  931.2489
 139  855.8701
 140  643.4305
 141  811.5694
 142  924.2035
 143  1113.028
 144  1171.532
 145  1117.326
 146  1091.788
 147  970.1549
 148  1230.781
 149  1230.274
 150  1362.318
 151  1328.331
 152  1309.851
 153  1309.775
 154  1008.311
 155  1133.648
 156  1231.547
 157  1275.904
 158  1323.709
 159  977.5434
 160  1148.283
 161  1097.277
 162  1310.507
 163  1354.577
 164  1071.811
 165  1031.567
 166  1303.867
 167  1500.528
 168  1491.314
 169  1363.938
 170  1226.221
 171  1134.241
 172  934.4609
 173  1030.674
 174  1009.951
 175  982.7789
 176  1050.684
 177  1027.062
 178  816.0231
 179  861.5002
 180  793.431
 181  815.9863
 182  868.1235
 183  623.3625
 184  658.3314
 185  731.1735
 186  688.5798
 187  603.0433
 188  856.5309
 189  932.5076
 190  847.4843
 191  1133.874
 192  982.328
 193  1010.681
 194  987.1398
 195  1053.596
 196  716.464
 197  666.9504
 198  546.8294
 199  770.32
 200  1035.651
 201  952.3823
 202  999.2256
 203  920.9934
 204  921.4744
 205  816.3458
 206  611.8461
 207  1135.8
 208  926.6719
 209  1102.091
 210  1104.745
 211  1190.033
 212  1428.799
 213  1453.224
 214  1182.241
 215  778.7134
 216  996.2463
 217  1180.573
 218  1099.004
 219  1147.557
 220  1165.786
 221  1244.576
 222  927.4734
 223  934.5803
 224  1113.531
 225  880.2914
 226  831.3889
 227  934.251
 228  1148.021
 229  1098.593
 230  1000.122
 231  1012.885
 232  921.4991
 233  1136.861
 234  1270.986
 235  1310.12
 236  1099.148
 237  1138.28
 238  1008.351
 239  1011.689
 240  1041.439
 241  879.5214
 242  1270.717
 243  1328.309
 244  960.9975
 245  1115.634
 246  1208.807
 247  1014.057
 248  959.761
 249  889.6133
 250  584.119
 251  598.6473
 252  824.6237
 253  1135.148
 254  1259.323
 255  1231.748
 256  980.9094
 257  1045.372
 258  1322.684
 259  987.2274
 260  902.4111
 261  864.7307
 262  1152.488
 263  954.4847
 264  708.5563
 265  943.4462
 266  942.7885
 267  1173.616
 268  1059.361
 269  984.7063
 270  1170.44
 271  1006.704
 272  871.7228
 273  1168.602
 274  877.9801
 275  895.1367
 276  989.946
 277  1136.607
 278  1324.248
 279  1386.319
 280  1152.691
 281  998.689
 282  1182.749
 283  971.5549
 284  958.0248
 285  1008.27
 286  929.8896
 287  975.035
 288  1225.508
 289  1087.287
 290  980.9705
 291  1124.936
 292  1244.555
 293  1104.837
 294  1034.935
 295  1022.431
 296  1170.611
 297  840.2261
 298  1142.634
 299  1086.071
 300  965.7977
 301  972.7466
 302  1017.175
 303  1047.979
 304  933.8804
 305  952.2561
 306  1181.711
 307  1212.294
 308  954.8369
 309  1201.974
 310  1146.709
 311  1152.014
 312  894.5147
 313  1023.705
 314  1083.005
 315  1161.46
 316  837.798
 317  774.2614
 318  964.3304
 319  1346.139
 320  1282.53
 321  1170.841
 322  1646.265
 323  1906.913
 324  1762.801
 325  1963.37
 326  2224.111
 327  2334.723
 328  2574.955
 329  2284.217
 330  1833.189
 331  1444.235
 332  1234.961
 333  1342.904
 334  1222.622
 335  1000.032
 336  1263.178
 337  1087.484
 338  904.8804
 339  1244.727
 340  1172.088
 341  1023.506
 342  1284.695
 343  1461.156
 344  1334.437
 345  1391.319
 346  1253.256
 347  1143.589
 348  1034.371
 349  799.6655
 350  1086.13
 351  887.7219
 352  812.6091
 353  958.2886
 354  1204.391
 355  1130.613
 356  1112.602
 357  1200.009
 358  959.4499
 359  1282.203
 360  1435.041
 361  1164.981
 362  840.0786
 363  922.9122
 364  672.4612
 365  845.6345
 366  1132.55
 367  1162.014
 368  1086.029
 369  1029.47
 370  840.5598
 371  826.9078
 372  902.2137
 373  1004.834
 374  1068.183
 375  1178.723
 376  1111.165
 377  1391.192
 378  1405.553
 379  1222.165
 380  1205.99
 381  1393.693
 382  1297.461
 383  938.5816
 384  925.4918
 385  1168.896
 386  897.1732
 387  788.7557
 388  748.4257
 389  900.3621
 390  1248.983
 391  1138.828
 392  944.6179
 393  1252.546
 394  1243.576
 395  1166.768
 396  855.6237
 397  1130.919
 398  1380.857
 399  1497.698
 400  1289.094
 401  1117.031
 402  1321.814
 403  1447.107
 404  1067.469
 405  871.8576
 406  773.7268
 407  1065.836
 408  951.7103
 409  936.5584
 410  1056.829
 411  933.5078
 412  1336.274
 413  1337.997
 414  1253.276
 415  1150.471
 416  1095.757
 417  970.0838
 418  1228.379
 419  1192.692
 420  1286.062
 421  1527.755
 422  1336.317
 423  1117.107
 424  1095.401
 425  1057.518
 426  1010.06
 427  1039.374
 428  1051.981
 429  1111.337
 430  1160.041
 431  1212.586
 432  1236.539
 433  1089.661
 434  1054.893
 435  985.7946
 436  1447.598
 437  1249.797
 438  967.8466
 439  1197.017
 440  1374.621
 441  1516.886
 442  1274.975
 443  1150.092
 444  731.1727
 445  1031.891
 446  1317.81
 447  1244.244
 448  1414.768
 449  1616.853
 450  1211.214
 451  1028.735
 452  1268.419
 453  955.0159
 454  1051.303
 455  1449.386
 456  1102.178
 457  1003.497
 458  1082.135
 459  1002.067
 460  1176.741
 461  1335.599
 462  1183.737
 463  810.0497
 464  1120.169
 465  1120.224
 466  1356.876
 467  1247.801
 468  1237.956
 469  1204.962
 470  913.342
 471  809.2563
 472  666.6138
 473  858.2897
 474  689.3011
 475  715.3176
 476  1004.722
 477  986.2927
 478  937.7108
 479  710.2486
 480  739.9474
 481  847.7682
 482  995.6295
 483  820.8152
 484  685.2424
 485  847.3138
 486  581.7709
 487  739.9395
 488  865.9088
 489  747.7773
 490  851.503
 491  968.6705
 492  826.5229
 493  811.1675
 494  868.6669
 495  775.5467
 496  1136.775
 497  1148.779
 498  1120.003
 499  846.4704
 500  986.1699
 501  1090.455
 502  1191.92
 503  1294.217
 504  1151.459
 505  1046.945
 506  1100.213
 507  901.2879
 508  973.1426
 509  1099.725
 510  1304.743
 511  1080.521
