# Input file       =  1182749466.114012_cleaned.dat
# Candidate        =  PSR_0332+5434
# Telescope        =  AR
# Epoch_topo       =  57933.230151782547
# Epoch_bary       =  N/A
# T_sample         =  0.002
# Data Folded      =  7340032
# Data Avg         =  0.100345832946394
# Data StdDev      =  3.30892217151675 
# Profile Bins     =  512
# Profile Avg      =  1438.35258362504 
# Profile StdDev   =  396.187298730103 
# Reduced chi-sqr  =  0.953
# Prob(Noise)      <  0.77   (~0.0 sigma)
# P_topo (ms)      =  714.490677384456  +/- 3.13e-05
# P'_topo (s/s)    =  -0                +/- 1.65e-11
# P''_topo (s/s^2) =  0                 +/- 7.3e-15
# P_bary (ms)      =  N/A
# P'_bary (s/s)    =  N/A
# P''_bary (s/s^2) =  N/A
# P_orb (s)        =  N/A
# asin(i)/c (s)    =  N/A
# eccentricity     =  N/A
# w (rad)          =  N/A
# T_peri           =  N/A
######################################################
   0  1416.17
   1  1142.738
   2  1283.721
   3  1437.157
   4  1608.164
   5  1626.911
   6  1736.605
   7  1447.477
   8  1866.337
   9  1679.067
  10  1449.175
  11  1241.134
  12  1535.152
  13  1461.708
  14  1620.84
  15  1605.551
  16  1217.656
  17  780.5159
  18  1091.325
  19  1293.318
  20  1190.267
  21  1217.863
  22  1571.238
  23  1841.571
  24  1688.927
  25  1106.869
  26  1036.512
  27  1489.518
  28  1554.109
  29  1349.63
  30  1503.68
  31  1245.717
  32  1083.501
  33  1578.438
  34  1458.696
  35  1502.807
  36  1695.684
  37  1820.55
  38  1611.505
  39  1141.437
  40  846.4691
  41  1173.14
  42  1591.38
  43  1694.214
  44  1540.463
  45  1366.468
  46  1585.76
  47  1830.034
  48  1766.825
  49  1286.308
  50  1439.841
  51  1832.764
  52  1444.008
  53  1129.026
  54  1365.387
  55  1592.792
  56  1705.024
  57  1736.41
  58  1558.615
  59  1146.836
  60  1364.201
  61  1494.573
  62  1319.54
  63  1326.687
  64  1218.992
  65  1469.297
  66  1512.327
  67  1179.013
  68  1169.314
  69  1073.477
  70  1017.442
  71  1287.353
  72  1317.188
  73  1352.561
  74  1281.118
  75  1214.074
  76  1313.214
  77  1350.502
  78  1291.134
  79  1397.145
  80  1150.141
  81  1415.012
  82  1419.954
  83  1247.3
  84  1487.947
  85  1385.711
  86  1676.496
  87  1205.749
  88  951.0984
  89  1258.13
  90  1487.058
  91  1624.639
  92  789.2321
  93  878.3678
  94  1379.884
  95  1608.975
  96  1401.056
  97  1211.216
  98  1450.721
  99  1736.21
 100  1385.221
 101  1647.862
 102  1275.588
 103  1397.432
 104  1576.434
 105  1778.418
 106  1293.79
 107  1195.47
 108  1437.733
 109  1582.789
 110  1500.17
 111  1356.9
 112  1255.11
 113  1291.167
 114  1386.232
 115  1439.315
 116  1226.788
 117  1507.106
 118  1771.815
 119  1409.187
 120  1092.361
 121  1230.165
 122  1253.985
 123  1430.761
 124  1554.044
 125  1067.511
 126  935.0944
 127  1502.185
 128  1857.8
 129  1735.036
 130  1442.239
 131  1188.981
 132  1522.008
 133  1582.903
 134  2106.952
 135  2055.448
 136  1696.642
 137  1996.731
 138  1959.27
 139  1793.872
 140  1749.865
 141  1882.905
 142  2022.692
 143  1837.967
 144  1665.693
 145  1424.458
 146  1674.72
 147  1621.846
 148  1629.361
 149  1633.582
 150  1360.011
 151  1620.5
 152  1863.411
 153  1910.898
 154  1762.203
 155  1559.246
 156  1611.961
 157  1630.251
 158  1643.866
 159  1433.14
 160  1250.384
 161  1504.693
 162  1748.452
 163  1577.467
 164  1424.595
 165  1285.704
 166  1279.284
 167  1670.413
 168  1568.668
 169  1355.056
 170  1452.455
 171  1793.626
 172  1831.051
 173  1541.332
 174  1412.391
 175  1530.898
 176  1929.18
 177  1914.985
 178  1531.262
 179  1381.496
 180  1510.578
 181  1748.922
 182  1723.183
 183  1547.263
 184  1806.849
 185  1952.62
 186  1914.057
 187  1429.105
 188  1194.131
 189  1601.973
 190  1597.893
 191  1734.443
 192  1399.361
 193  1301.86
 194  1446.028
 195  1445.222
 196  1507.411
 197  1584.092
 198  1627.717
 199  1796.088
 200  1625.148
 201  1763.529
 202  1642.779
 203  1612.038
 204  1673.135
 205  1787.312
 206  1731.087
 207  1582.143
 208  1608.835
 209  1999.891
 210  1841.891
 211  1619.881
 212  1557.428
 213  1610.817
 214  1422.894
 215  1395.921
 216  1564.122
 217  1395.743
 218  1552.224
 219  1656.928
 220  1866.815
 221  1406.919
 222  1239.325
 223  1564.095
 224  1709.587
 225  1481.331
 226  1388.3
 227  1440.819
 228  1433.22
 229  1773.342
 230  1574.559
 231  1046.491
 232  1225.419
 233  1225.14
 234  1379.604
 235  1051.256
 236  1154.861
 237  1537.56
 238  1650.11
 239  1483.199
 240  1550.323
 241  1422.104
 242  1466.267
 243  1626.599
 244  1463.202
 245  1560.453
 246  1262.472
 247  1159.785
 248  1365.425
 249  1477.31
 250  1547.141
 251  1247.133
 252  1315.855
 253  1544.295
 254  1231.289
 255  1311.278
 256  1555.062
 257  1640.634
 258  1633.123
 259  1640.353
 260  1560.629
 261  1293.969
 262  1609.199
 263  1505.426
 264  1444.25
 265  1081.216
 266  942.7552
 267  1329.582
 268  1701.462
 269  1499.818
 270  1443.902
 271  1531.597
 272  1421.811
 273  1334.394
 274  1468.539
 275  1724.533
 276  1748.923
 277  1612.893
 278  1833.105
 279  1349.926
 280  1285.307
 281  1066.957
 282  1499.568
 283  1224.194
 284  998.1257
 285  1240.104
 286  1364.959
 287  1641.608
 288  1008.736
 289  1067.618
 290  1137.111
 291  1165.839
 292  1136.488
 293  991.3635
 294  802.5437
 295  986.9265
 296  1398.827
 297  1012.249
 298  814.9777
 299  916.4263
 300  1275.663
 301  1487.142
 302  1255.525
 303  1285.074
 304  1492.625
 305  1624.19
 306  1575.214
 307  1825.224
 308  1487.623
 309  1041.002
 310  1323.569
 311  1764.925
 312  1503.153
 313  1449.921
 314  1501.689
 315  1657.032
 316  1409.435
 317  1204.446
 318  1338.147
 319  1550.84
 320  1571.414
 321  1648.086
 322  1490.097
 323  1767.204
 324  2197.908
 325  2801.22
 326  2611.488
 327  2668
 328  2935.532
 329  2577.657
 330  1981.582
 331  1830.273
 332  1413.141
 333  1298.96
 334  1703.358
 335  1724.545
 336  1459.45
 337  1283.783
 338  1513.048
 339  1755.837
 340  1391.296
 341  996.6151
 342  1145.777
 343  1837.731
 344  1850.924
 345  1294.758
 346  1127.464
 347  1232.65
 348  1585.291
 349  1714.76
 350  1541.714
 351  1688.658
 352  1495.335
 353  1514.286
 354  1683.895
 355  1433.201
 356  1163.273
 357  1158.686
 358  1527.423
 359  1830.006
 360  1371.852
 361  1341.77
 362  1417.399
 363  1517.356
 364  1418.131
 365  1331.504
 366  1293.942
 367  1525.467
 368  1441.053
 369  1162.488
 370  1094.716
 371  1230.314
 372  1338.094
 373  1600.957
 374  1336.162
 375  758.3206
 376  1262.107
 377  1565.417
 378  1495.208
 379  1478.267
 380  1665.315
 381  1494.204
 382  1342.326
 383  1458.789
 384  1590.334
 385  1459.783
 386  1528.875
 387  1605.551
 388  1694.504
 389  1321.411
 390  1199.459
 391  1361.678
 392  1567.195
 393  1375.316
 394  1099.956
 395  1336.964
 396  1406.912
 397  1230.995
 398  903.2083
 399  1172.993
 400  1222.565
 401  1483.809
 402  1488.442
 403  961.2779
 404  688.9072
 405  897.9568
 406  1574.218
 407  1511.14
 408  1195.616
 409  1108.15
 410  1450.864
 411  1605.51
 412  1309.814
 413  917.4896
 414  936.076
 415  1390.605
 416  1418.231
 417  1158.203
 418  1073.16
 419  1257.19
 420  1346.797
 421  1164.381
 422  978.5625
 423  941.8088
 424  1415.092
 425  1621.6
 426  1679.903
 427  1556.378
 428  1172.889
 429  1024.391
 430  1429.573
 431  1419.186
 432  1536.754
 433  1380.815
 434  1571.272
 435  1824.953
 436  1796.904
 437  1483.123
 438  1289.448
 439  1433.314
 440  1505.855
 441  1143.916
 442  1224.391
 443  1242.591
 444  1589.43
 445  1515.981
 446  919.3825
 447  1035.334
 448  1077.229
 449  1124.692
 450  1446.68
 451  1359.004
 452  1235.663
 453  1364.815
 454  1355.365
 455  1101.093
 456  1128.883
 457  1269.674
 458  1335.82
 459  1145.894
 460  1096.385
 461  976.3185
 462  855.3777
 463  942.6841
 464  1279.307
 465  1106.738
 466  788.8171
 467  1066.176
 468  1298.082
 469  1510.229
 470  1247.196
 471  1004.313
 472  1193.869
 473  1473.572
 474  1537.745
 475  1510.84
 476  1499.931
 477  1321.167
 478  1406.283
 479  1382.621
 480  1230.893
 481  1387.425
 482  1609.49
 483  1675.391
 484  1525.939
 485  1391.852
 486  1371.425
 487  1690.577
 488  1461.296
 489  1133.581
 490  1240.195
 491  1265.801
 492  1477.671
 493  1175.426
 494  1109.732
 495  1274.991
 496  1402.311
 497  1268.826
 498  969.5334
 499  1149.437
 500  1530.424
 501  1403.657
 502  1460.932
 503  1407.433
 504  1151.72
 505  1390.793
 506  1540.86
 507  1563.766
 508  1422
 509  1421.523
 510  1678.186
 511  1844.667
