# Input file       =  1182936363.103926_cleaned.dat
# Candidate        =  PSR_0332+5434
# Telescope        =  AR
# Epoch_topo       =  57935.393311388034
# Epoch_bary       =  N/A
# T_sample         =  0.002
# Data Folded      =  7340032
# Data Avg         =  0.110700938574155
# Data StdDev      =  3.25134318637724 
# Profile Bins     =  512
# Profile Avg      =  1586.80647935752 
# Profile StdDev   =  389.293192007857 
# Reduced chi-sqr  =  1.154
# Prob(Noise)      <  0.00901   (~2.4 sigma)
# P_topo (ms)      =  714.489241888388  +/- 0.000411
# P'_topo (s/s)    =  -0                +/- 2.17e-10
# P''_topo (s/s^2) =  0                 +/- 9.58e-14
# P_bary (ms)      =  N/A
# P'_bary (s/s)    =  N/A
# P''_bary (s/s^2) =  N/A
# P_orb (s)        =  N/A
# asin(i)/c (s)    =  N/A
# eccentricity     =  N/A
# w (rad)          =  N/A
# T_peri           =  N/A
######################################################
   0  1679.772
   1  1435.829
   2  1341.201
   3  1387.344
   4  1470.786
   5  1793.964
   6  1795.51
   7  1299.713
   8  1560.439
   9  1514.59
  10  1676.402
  11  1438.132
  12  1509.578
  13  1666.451
  14  1655.149
  15  1962.408
  16  1706.792
  17  1760.924
  18  1762.687
  19  2006.449
  20  1612.769
  21  1273.601
  22  1253.452
  23  1164.574
  24  1269.619
  25  1196.853
  26  1327.503
  27  1375.702
  28  1255.124
  29  1428.119
  30  1514.149
  31  1462.513
  32  1526.399
  33  1673.757
  34  1531.89
  35  1623.04
  36  1453.056
  37  1533.957
  38  1482.666
  39  1524.567
  40  1555.662
  41  1520.198
  42  1466.851
  43  1578.434
  44  1273.997
  45  1160.769
  46  1360.438
  47  1428.162
  48  1138.193
  49  1265.393
  50  1400.851
  51  1404.528
  52  1071.347
  53  1231.914
  54  1012.676
  55  961.4786
  56  1039.976
  57  1135.536
  58  1149.11
  59  1464.772
  60  1419.381
  61  1405.592
  62  1585.604
  63  1305.801
  64  929.5388
  65  1052.393
  66  1125.215
  67  1540.406
  68  1496.02
  69  1280.599
  70  1503.082
  71  1550.301
  72  1721.265
  73  1713.494
  74  1837.133
  75  1588.595
  76  1669.155
  77  1413.715
  78  1325.059
  79  1293.47
  80  1242.668
  81  1498.478
  82  1524.002
  83  1528.468
  84  1611.324
  85  1887.223
  86  1999.995
  87  1797.345
  88  1727.733
  89  1468.624
  90  1611.994
  91  1777.566
  92  1907.573
  93  1753.343
  94  1707.411
  95  1874.776
  96  1828.264
  97  1859.754
  98  1757.555
  99  1547.392
 100  1082.904
 101  1239.601
 102  1560.539
 103  1683.973
 104  1934.52
 105  1799.289
 106  1421.184
 107  1613.086
 108  1535.957
 109  1788.385
 110  1426.351
 111  1490.368
 112  1568.643
 113  1149.929
 114  1486.486
 115  1527.182
 116  1319.271
 117  1550.694
 118  1458.026
 119  1525.181
 120  1854.723
 121  1896.87
 122  1492.847
 123  1429.321
 124  1752.851
 125  1456.086
 126  1593.759
 127  1773.158
 128  1920.062
 129  1857.271
 130  1958.048
 131  1835.039
 132  1766.965
 133  1817.328
 134  1607.22
 135  1695.206
 136  1650.502
 137  1893.79
 138  1848.901
 139  1815.568
 140  1983.387
 141  1818.391
 142  1679.959
 143  1712.084
 144  1626.6
 145  1676.338
 146  1717.007
 147  1438.165
 148  1446.237
 149  1339.52
 150  1186.414
 151  1414.182
 152  1716.413
 153  1795.746
 154  1456.415
 155  1599.889
 156  1487.675
 157  1304.611
 158  1389.704
 159  1813.311
 160  1796.854
 161  1472.867
 162  1894.605
 163  1875.506
 164  1555.804
 165  1487.504
 166  1580.042
 167  1850.65
 168  1665.6
 169  1758.619
 170  2159.152
 171  2021.014
 172  2155.962
 173  1967.245
 174  1642.384
 175  1796.535
 176  1855.251
 177  1749.069
 178  1794.892
 179  1832.025
 180  1813.682
 181  1944.162
 182  1962.976
 183  2048.569
 184  1883.93
 185  2254.59
 186  2214.572
 187  1905.014
 188  2024.672
 189  2237.636
 190  2145.874
 191  2219.504
 192  1935.624
 193  2034.881
 194  1954.353
 195  1819.848
 196  1697.182
 197  1496.985
 198  1736.198
 199  1481.773
 200  1528.027
 201  1741.329
 202  2135.873
 203  1831.881
 204  1819.168
 205  1698.764
 206  1696.093
 207  1536.801
 208  1446.896
 209  1480.605
 210  1538.606
 211  1606.124
 212  1893.206
 213  1944.042
 214  1862.143
 215  1546.167
 216  1405.64
 217  1510.721
 218  1688.953
 219  1828.042
 220  1895.363
 221  1611.675
 222  1678.106
 223  1752.922
 224  1473.73
 225  1639.005
 226  1982.012
 227  2069.069
 228  1987.094
 229  2018.533
 230  1946.057
 231  1538.806
 232  1467.139
 233  1574.747
 234  1749.448
 235  1365.877
 236  1489.799
 237  1235.566
 238  1184.402
 239  1414.462
 240  1653.636
 241  1605.823
 242  1469.908
 243  1513.029
 244  1363.916
 245  1202.19
 246  1348.028
 247  1174.207
 248  1118.917
 249  1175.672
 250  1561.848
 251  1626.456
 252  1301.256
 253  1371.018
 254  1547.077
 255  1308.786
 256  1294.084
 257  1603.25
 258  1517.469
 259  1161.907
 260  1282.88
 261  1506.664
 262  1686.29
 263  1765.172
 264  1485.162
 265  1574.913
 266  1828.145
 267  1975.133
 268  2040.885
 269  1926.65
 270  1999.901
 271  2247.164
 272  2234.933
 273  1962.871
 274  1620.016
 275  1496.159
 276  1526.523
 277  1674.233
 278  1500.43
 279  1375.284
 280  1566.824
 281  1691.083
 282  1990.81
 283  2096.918
 284  1842.764
 285  1245.784
 286  1407.245
 287  1637.875
 288  1793.821
 289  1720.8
 290  1681.324
 291  1532.506
 292  1409.66
 293  1373.294
 294  1550.548
 295  1474.242
 296  1480.267
 297  1515.096
 298  1692.464
 299  1603.891
 300  1728.358
 301  2038.486
 302  1814.417
 303  2054.252
 304  1729.935
 305  1920.949
 306  1913.805
 307  1895.884
 308  1947.5
 309  2191.749
 310  1766.165
 311  1792.427
 312  1696.602
 313  1618.68
 314  1449.53
 315  1374.097
 316  1731.034
 317  1849.377
 318  1952.483
 319  2052.295
 320  2001.699
 321  1930.877
 322  2023.258
 323  2206.465
 324  2579.725
 325  3014.493
 326  3081.645
 327  3030.089
 328  3104.725
 329  2766.47
 330  1882.517
 331  1632.354
 332  1438.363
 333  1644.391
 334  1669.895
 335  1458.966
 336  1309.541
 337  1320.763
 338  1686.882
 339  1768.742
 340  1741.851
 341  1715.36
 342  2001.417
 343  1959.714
 344  1906.073
 345  1692.811
 346  1796.247
 347  1766.248
 348  1738.641
 349  1848.543
 350  2019.791
 351  1827.953
 352  1762.427
 353  1811.88
 354  1742.135
 355  1487.389
 356  1442.471
 357  1387.916
 358  1387.774
 359  1744.531
 360  1675.488
 361  1422.464
 362  1491.491
 363  1639.902
 364  1682.003
 365  1416.839
 366  1280.265
 367  1556.817
 368  1588.311
 369  1613.852
 370  1586.729
 371  1469.685
 372  1279.819
 373  1069.817
 374  1071.287
 375  1381.106
 376  1435.491
 377  1364.357
 378  1532.188
 379  1171.625
 380  1345.576
 381  1205.375
 382  1477.323
 383  1545.672
 384  1610.843
 385  1936.229
 386  1475.588
 387  1160.939
 388  1352.873
 389  1650.183
 390  1718.714
 391  1836.157
 392  1989.068
 393  1499.455
 394  1505.438
 395  1583.895
 396  1320.785
 397  1363.654
 398  1849.678
 399  1744.818
 400  1632.721
 401  1780.002
 402  1944.823
 403  1694.403
 404  1511.227
 405  1508.303
 406  1386.966
 407  1384.633
 408  1554.107
 409  1583.093
 410  1212.431
 411  1298.039
 412  1362.256
 413  1004.456
 414  1213.834
 415  1085.161
 416  1247.634
 417  1228.597
 418  1561.383
 419  1606.381
 420  1304.32
 421  1589.667
 422  1545.907
 423  1467.257
 424  1547.499
 425  1654.537
 426  1620.404
 427  1376.176
 428  1313.842
 429  1465.787
 430  1605.616
 431  1676.203
 432  1470.059
 433  1702.848
 434  1744.089
 435  1627.385
 436  1706.446
 437  1572.285
 438  1554.52
 439  1565.875
 440  1738.391
 441  1509.949
 442  1388.62
 443  1580.52
 444  1918.841
 445  1826.348
 446  1550.18
 447  1336.682
 448  1377.743
 449  1233.422
 450  1159.663
 451  1169.546
 452  1239.88
 453  1362.83
 454  1197.722
 455  1142.027
 456  1209.271
 457  1009.733
 458  987.5107
 459  1114.92
 460  1069.637
 461  965.2303
 462  1182.318
 463  1297.742
 464  1520.721
 465  1355.36
 466  1091.574
 467  1187.014
 468  1709.73
 469  1847.228
 470  1317.833
 471  1128.984
 472  1443.221
 473  1450.806
 474  1339.058
 475  1479.351
 476  1516.17
 477  1587.072
 478  1506.693
 479  1493.292
 480  1318.663
 481  1167.62
 482  1552.188
 483  1340.656
 484  1087.258
 485  1335.866
 486  1330.26
 487  1421.301
 488  1449.056
 489  1539.074
 490  1194.601
 491  1084.906
 492  1398.134
 493  1413.394
 494  1499.621
 495  1511.477
 496  1518.565
 497  1330.79
 498  1342.643
 499  1452.105
 500  1350.589
 501  1202.322
 502  1126.846
 503  1091.554
 504  1219.618
 505  1233.1
 506  961.7717
 507  1031.091
 508  1548.992
 509  1675.394
 510  1468.627
 511  1694.208
