# Input file       =  1182850506.116156_cleaned.dat
# Candidate        =  PSR_0332+5434
# Telescope        =  AR
# Epoch_topo       =  57934.399596251809
# Epoch_bary       =  N/A
# T_sample         =  0.002
# Data Folded      =  7340032
# Data Avg         =  0.0499791531687535
# Data StdDev      =  1.00012967130739 
# Profile Bins     =  512
# Profile Avg      =  716.531568680213 
# Profile StdDev   =  119.748562316131 
# Reduced chi-sqr  =  0.854
# Prob(Noise)      <  0.993   (~0.0 sigma)
# P_topo (ms)      =  714.490052399411  +/- 3.9e-05
# P'_topo (s/s)    =  -0                +/- 2.06e-11
# P''_topo (s/s^2) =  0                 +/- 9.08e-15
# P_bary (ms)      =  N/A
# P'_bary (s/s)    =  N/A
# P''_bary (s/s^2) =  N/A
# P_orb (s)        =  N/A
# asin(i)/c (s)    =  N/A
# eccentricity     =  N/A
# w (rad)          =  N/A
# T_peri           =  N/A
######################################################
   0  1096.448
   1  1068.224
   2  946.335
   3  809.4392
   4  865.4408
   5  767.9349
   6  745.9482
   7  647.2836
   8  716.9415
   9  754.8983
  10  709.2934
  11  632.8873
  12  664.0073
  13  776.7753
  14  885.8775
  15  862.8887
  16  735.9822
  17  741.2917
  18  722.6558
  19  780.9
  20  662.3057
  21  642.4087
  22  763.0552
  23  850.1901
  24  794.3887
  25  672.5621
  26  671.4861
  27  724.9405
  28  688.6481
  29  638.8945
  30  694.8584
  31  697.6617
  32  703.1454
  33  744.3716
  34  689.577
  35  668.4595
  36  739.5535
  37  827.6196
  38  746.8995
  39  674.669
  40  651.2971
  41  734.7429
  42  772.6866
  43  756.2056
  44  571.7629
  45  658.9786
  46  773.4432
  47  736.3228
  48  635.5011
  49  667.0192
  50  677.3994
  51  820.0684
  52  878.9216
  53  770.9777
  54  760.5717
  55  779.7486
  56  735.8293
  57  716.1844
  58  709.2574
  59  689.7206
  60  789.3024
  61  872.0176
  62  791.0814
  63  706.6627
  64  724.931
  65  694.748
  66  764.6472
  67  704.5256
  68  674.8995
  69  583.848
  70  670.363
  71  796.1539
  72  746.4773
  73  595.9254
  74  669.1285
  75  821.8905
  76  868.9323
  77  760.9234
  78  688.6242
  79  690.1556
  80  682.8748
  81  708.1555
  82  640.7614
  83  599.1119
  84  595.2844
  85  734.2894
  86  764.5909
  87  556.3674
  88  642.7967
  89  667.3102
  90  644.6841
  91  604.2597
  92  602.6693
  93  655.5721
  94  604.5089
  95  707.0745
  96  643.8261
  97  537.3111
  98  602.8786
  99  778.7601
 100  756.4426
 101  782.6502
 102  696.9824
 103  671.8575
 104  671.7064
 105  776.1853
 106  766.0282
 107  761.8618
 108  712.2479
 109  770.7695
 110  853.1048
 111  834.6724
 112  791.1932
 113  786.9744
 114  755.7305
 115  707.6736
 116  682.634
 117  691.7357
 118  750.7595
 119  684.6938
 120  702.462
 121  761.132
 122  675.519
 123  705.0286
 124  632.1852
 125  641.1062
 126  666.4422
 127  632.9728
 128  692.8792
 129  719.2803
 130  778.7006
 131  700.1313
 132  740.4777
 133  808.9063
 134  805.8929
 135  659.6533
 136  631.86
 137  687.9427
 138  855.4162
 139  828.4114
 140  704.5636
 141  731.1128
 142  718.0764
 143  799.7477
 144  807.3931
 145  771.1147
 146  728.7755
 147  699.1967
 148  762.1541
 149  750.3162
 150  732.9564
 151  717.0316
 152  789.4453
 153  812.9752
 154  734.6166
 155  730.1819
 156  896.5331
 157  859.5458
 158  747.806
 159  610.8154
 160  627.84
 161  808.9111
 162  850.5565
 163  749.4546
 164  625.9711
 165  659.7075
 166  741.4525
 167  771.2593
 168  635.9284
 169  606.9625
 170  610.5466
 171  717.7489
 172  730.176
 173  659.7306
 174  642.1862
 175  656.9111
 176  665.5908
 177  696.173
 178  618.6835
 179  634.3966
 180  697.6467
 181  689.3795
 182  630.1237
 183  645.2432
 184  554.7488
 185  556.7839
 186  577.273
 187  702.8837
 188  560.553
 189  656.6988
 190  800.1378
 191  747.9351
 192  749.7197
 193  735.5137
 194  763.0708
 195  743.0141
 196  612.2644
 197  624.8452
 198  764.4742
 199  697.8392
 200  753.2125
 201  894.7448
 202  852.7547
 203  733.0135
 204  712.6907
 205  686.9772
 206  702.0627
 207  596.953
 208  631.0322
 209  723.9035
 210  630.7006
 211  631.0186
 212  623.8405
 213  758.9415
 214  726.5591
 215  627.3596
 216  497.145
 217  502.7067
 218  733.7133
 219  641.4434
 220  655.7957
 221  663.0673
 222  722.4779
 223  863.1669
 224  903.51
 225  787.5516
 226  683.3467
 227  581.6301
 228  689.474
 229  793.4106
 230  744.4734
 231  681.4194
 232  798.7585
 233  838.5034
 234  829.8126
 235  779.049
 236  701.0693
 237  715.1656
 238  655.7633
 239  703.9005
 240  759.9794
 241  719.2508
 242  684.969
 243  740.0652
 244  718.5355
 245  581.0186
 246  538.6334
 247  634.1179
 248  661.3361
 249  690.0455
 250  720.9799
 251  635.1315
 252  729.7757
 253  812.7463
 254  801.6885
 255  647.7657
 256  686.0142
 257  700.561
 258  624.8685
 259  683.5667
 260  671.9607
 261  651.4686
 262  725.7287
 263  779.8791
 264  721.5972
 265  694.681
 266  684.548
 267  840.0708
 268  749.6773
 269  675.7947
 270  755.5087
 271  845.7984
 272  761.251
 273  623.1075
 274  646.7835
 275  742.1462
 276  793.2365
 277  740.2473
 278  657.4998
 279  574.7294
 280  702.2499
 281  765.6943
 282  733.2704
 283  750.2596
 284  716.3754
 285  616.7437
 286  699.8149
 287  651.9492
 288  604.4974
 289  680.8586
 290  721.5434
 291  662.2034
 292  618.0141
 293  714.4377
 294  652.4443
 295  667.045
 296  644.673
 297  607.1722
 298  525.2138
 299  688.3387
 300  692.0691
 301  653.8839
 302  668.0211
 303  687.5978
 304  514.002
 305  607.6767
 306  776.2947
 307  601.1771
 308  545.2797
 309  662.0603
 310  667.216
 311  602.5709
 312  632.6828
 313  692.4304
 314  703.9619
 315  682.5861
 316  712.5653
 317  710.9279
 318  703.8175
 319  770.7694
 320  805.1212
 321  785.7269
 322  718.2437
 323  679.7635
 324  751.4662
 325  787.8242
 326  759.8785
 327  579.8051
 328  639.4883
 329  777.4478
 330  708.6126
 331  624.0252
 332  645.1533
 333  729.0472
 334  748.6494
 335  808.7603
 336  684.4501
 337  657.4977
 338  802.0978
 339  824.319
 340  758.0222
 341  812.6901
 342  797.7856
 343  775.2407
 344  770.3866
 345  780.0635
 346  737.0963
 347  745.5329
 348  694.3725
 349  750.0768
 350  770.806
 351  734.8777
 352  738.2034
 353  707.5499
 354  740.4564
 355  642.7572
 356  709.8209
 357  782.2838
 358  744.1779
 359  648.8608
 360  640.9099
 361  729.5104
 362  735.0695
 363  801.0888
 364  743.7366
 365  760.6438
 366  746.4833
 367  768.3577
 368  764.4958
 369  619.7244
 370  612.8861
 371  806.2578
 372  802.0556
 373  686.614
 374  630.7559
 375  706.3449
 376  687.9246
 377  709.6674
 378  751.8032
 379  683.4033
 380  670.7723
 381  764.89
 382  775.1716
 383  799.429
 384  718.7123
 385  597.3093
 386  641.2066
 387  660.1959
 388  594.8833
 389  559.9014
 390  633.709
 391  729.3811
 392  760.7763
 393  623.6463
 394  634.1904
 395  605.1229
 396  636.2469
 397  757.7916
 398  805.5776
 399  863.2723
 400  819.9881
 401  699.1144
 402  673.6108
 403  693.5162
 404  761.0239
 405  737.9446
 406  734.6682
 407  707.4077
 408  693.4556
 409  718.9879
 410  746.4883
 411  782.3276
 412  793.5929
 413  807.2027
 414  870.3641
 415  896.2954
 416  732.7622
 417  645.7537
 418  759.9238
 419  860.782
 420  883.8352
 421  826.1384
 422  784.3992
 423  708.5937
 424  808.2739
 425  781.0272
 426  710.1331
 427  697.9813
 428  788.1278
 429  791.8084
 430  740.7009
 431  659.6002
 432  663.9063
 433  694.9921
 434  708.5551
 435  581.7842
 436  527.4229
 437  680.5252
 438  736.3122
 439  767.7537
 440  661.9399
 441  654.4443
 442  763.7126
 443  711.8578
 444  788.4738
 445  802.4128
 446  709.3221
 447  589.5795
 448  748.8405
 449  882.3001
 450  873.9324
 451  800.7748
 452  750.848
 453  643.7816
 454  628.6906
 455  684.9424
 456  686.025
 457  735.3333
 458  820.497
 459  805.0426
 460  687.6068
 461  671.006
 462  687.1766
 463  757.0286
 464  759.7994
 465  672.0044
 466  629.839
 467  670.8068
 468  674.9058
 469  720.0217
 470  692.2811
 471  695.143
 472  718.4962
 473  802.5876
 474  760.9762
 475  618.5076
 476  579.0665
 477  630.1541
 478  720.0062
 479  676.1644
 480  515.509
 481  632.2531
 482  694.1756
 483  726.4639
 484  761.263
 485  814.0112
 486  798.5333
 487  690.957
 488  701.8649
 489  760.6617
 490  777.875
 491  773.3504
 492  800.3002
 493  797.5434
 494  745.7581
 495  778.2029
 496  799.1527
 497  776.5256
 498  798.5516
 499  639.962
 500  654.1774
 501  739.7115
 502  715.0332
 503  678.8405
 504  664.7953
 505  664.6022
 506  673.9319
 507  719.514
 508  845.0635
 509  864.8186
 510  838.767
 511  1061.844
