# Input file       =  1182820940.11059_cleaned.dat
# Candidate        =  PSR_0332+5434
# Telescope        =  AR
# Epoch_topo       =  57934.057397113313
# Epoch_bary       =  N/A
# T_sample         =  0.002
# Data Folded      =  7208960
# Data Avg         =  0.209224012812641
# Data StdDev      =  4.31890204227825 
# Profile Bins     =  1024
# Profile Avg      =  1472.78090859978 
# Profile StdDev   =  362.376214105726 
# Reduced chi-sqr  =  0.658
# Prob(Noise)      <  1   (~0.0 sigma)
# P_topo (ms)      =  714.489987016854  +/- 4.85e-05
# P'_topo (s/s)    =  -0                +/- 2.61e-11
# P''_topo (s/s^2) =  0                 +/- 1.17e-14
# P_bary (ms)      =  N/A
# P'_bary (s/s)    =  N/A
# P''_bary (s/s^2) =  N/A
# P_orb (s)        =  N/A
# asin(i)/c (s)    =  N/A
# eccentricity     =  N/A
# w (rad)          =  N/A
# T_peri           =  N/A
######################################################
   0  1465.401
   1  1515.577
   2  1531.025
   3  1498.86
   4  1344.206
   5  1474.456
   6  1496.863
   7  1438.039
   8  1190.647
   9  1203.458
  10  1268.606
  11  1213.707
  12  1242.811
  13  1310.791
  14  1401.399
  15  1477.941
  16  1579.864
  17  1746.838
  18  1582.434
  19  1549.218
  20  1488.732
  21  1544.827
  22  1326.133
  23  1148.755
  24  1008.498
  25  1003.618
  26  1055.048
  27  1261.677
  28  1445.212
  29  1404.292
  30  1512.222
  31  1516.548
  32  1704.325
  33  1614.229
  34  1644.917
  35  1746.221
  36  1832.892
  37  1845.358
  38  1573.1
  39  1325.713
  40  1132.64
  41  1081.005
  42  1139.913
  43  1253.871
  44  1321.484
  45  1288.185
  46  1400.826
  47  1439.972
  48  1622.443
  49  1699.127
  50  1797.113
  51  1755.341
  52  1647.918
  53  1558.791
  54  1381.11
  55  1344.198
  56  1312.675
  57  1322.663
  58  1127.501
  59  1154.221
  60  1165.775
  61  1384.533
  62  1384.409
  63  1469.94
  64  1611.866
  65  1574.304
  66  1607.096
  67  1707.494
  68  1665.162
  69  1584.161
  70  1414.421
  71  1453.292
  72  1465.523
  73  1464.415
  74  1440.79
  75  1334.448
  76  1227.807
  77  1364.952
  78  1480.228
  79  1550.006
  80  1527.508
  81  1547.356
  82  1677.6
  83  1631.153
  84  1507.225
  85  1451.609
  86  1370.068
  87  1409.992
  88  1387.696
  89  1411.189
  90  1297.086
  91  1232.156
  92  1333.731
  93  1400.749
  94  1296.341
  95  1400.497
  96  1508.727
  97  1627.79
  98  1611.927
  99  1572.928
 100  1560.976
 101  1361.397
 102  1340.269
 103  1413.666
 104  1486.237
 105  1463.796
 106  1416.117
 107  1335.002
 108  1347.029
 109  1465.373
 110  1653.068
 111  1693.601
 112  1555.56
 113  1621.422
 114  1612.856
 115  1513.597
 116  1315.062
 117  1318.82
 118  1390.361
 119  1409.292
 120  1417.719
 121  1505.953
 122  1401.402
 123  1386.232
 124  1510.218
 125  1742.171
 126  1585.41
 127  1542.609
 128  1471.331
 129  1584.534
 130  1428.597
 131  1526.843
 132  1602.815
 133  1633.035
 134  1653.108
 135  1645.76
 136  1582.832
 137  1342.226
 138  1364.088
 139  1513.673
 140  1591.102
 141  1509.79
 142  1551.571
 143  1650.362
 144  1548.796
 145  1561.553
 146  1416.873
 147  1548.818
 148  1530.785
 149  1542.594
 150  1565.532
 151  1495.342
 152  1500.322
 153  1555.535
 154  1662.199
 155  1657.985
 156  1532.016
 157  1473.008
 158  1502.91
 159  1377.859
 160  1254.472
 161  1245.433
 162  1264.346
 163  1370.755
 164  1299.567
 165  1433.765
 166  1532.206
 167  1482.243
 168  1353.58
 169  1308.288
 170  1357.426
 171  1381.578
 172  1419.496
 173  1522.843
 174  1331.265
 175  1108.913
 176  1113.844
 177  1176.476
 178  1108.467
 179  1033.765
 180  1234.704
 181  1388.175
 182  1454.872
 183  1597.574
 184  1705.318
 185  1601.674
 186  1358.028
 187  1366.635
 188  1441.435
 189  1420.396
 190  1290.899
 191  1235.635
 192  1221.606
 193  1201.238
 194  1231.986
 195  1292.865
 196  1349.386
 197  1587.555
 198  1728.551
 199  1791.711
 200  1720.819
 201  1649.796
 202  1667.703
 203  1665.797
 204  1545.491
 205  1388.233
 206  1213.827
 207  1122.97
 208  1186.921
 209  1318.271
 210  1534.62
 211  1530.255
 212  1548.469
 213  1558.522
 214  1522.795
 215  1594.087
 216  1691.259
 217  1745.06
 218  1598.947
 219  1403.572
 220  1374.932
 221  1478.644
 222  1319.903
 223  1323.121
 224  1221.9
 225  1275.333
 226  1359.42
 227  1357.494
 228  1434.185
 229  1428.264
 230  1619.946
 231  1817.977
 232  1733.312
 233  1747.286
 234  1564.957
 235  1568.445
 236  1470.635
 237  1448.94
 238  1291.059
 239  1218.166
 240  1229.392
 241  1352.493
 242  1366.352
 243  1394.789
 244  1599.912
 245  1815.001
 246  1909.226
 247  1756.639
 248  1620.364
 249  1530.833
 250  1408.058
 251  1335.694
 252  1382.032
 253  1417.763
 254  1402.182
 255  1347.289
 256  1411.033
 257  1422.982
 258  1585.953
 259  1550.271
 260  1592.037
 261  1512.514
 262  1558.51
 263  1518.929
 264  1501.795
 265  1555.894
 266  1584.526
 267  1499.958
 268  1497.374
 269  1376.379
 270  1314.145
 271  1361.745
 272  1431.775
 273  1396.882
 274  1260.989
 275  1282.432
 276  1421.798
 277  1431.831
 278  1385.966
 279  1350.955
 280  1540.851
 281  1641.973
 282  1459.235
 283  1370.962
 284  1393.74
 285  1478.876
 286  1457.774
 287  1463.777
 288  1403.342
 289  1384.415
 290  1468.545
 291  1551.493
 292  1470.091
 293  1357.568
 294  1460.323
 295  1433.616
 296  1518.902
 297  1426.284
 298  1382.033
 299  1363.634
 300  1366.82
 301  1433.853
 302  1410.406
 303  1339.646
 304  1359.182
 305  1367.936
 306  1542.494
 307  1610.329
 308  1572.384
 309  1463.816
 310  1352.38
 311  1274.184
 312  1247.641
 313  1395.004
 314  1482.759
 315  1509.446
 316  1416.873
 317  1439.514
 318  1314.28
 319  1164.952
 320  1124.923
 321  1286.839
 322  1377.617
 323  1309.115
 324  1273.555
 325  1358.173
 326  1329.15
 327  1237.376
 328  1308.174
 329  1421.724
 330  1488.144
 331  1502.667
 332  1525.047
 333  1510.191
 334  1396.405
 335  1449.384
 336  1505.83
 337  1553.539
 338  1424.314
 339  1458.439
 340  1445.051
 341  1410.38
 342  1287.063
 343  1271.981
 344  1340.576
 345  1413.367
 346  1627.162
 347  1696.069
 348  1574.143
 349  1423.615
 350  1513.545
 351  1703.868
 352  1635.209
 353  1438.122
 354  1432.202
 355  1335.025
 356  1363.951
 357  1187.661
 358  1111.142
 359  1270.478
 360  1578.797
 361  1747.205
 362  1703.882
 363  1553.35
 364  1700.256
 365  1673.404
 366  1556.95
 367  1453.693
 368  1426.019
 369  1476.433
 370  1277.368
 371  1188.524
 372  1361.161
 373  1448.649
 374  1485.02
 375  1459.501
 376  1485.316
 377  1525.977
 378  1584.683
 379  1645.339
 380  1591.065
 381  1648.636
 382  1700.64
 383  1704.973
 384  1652.412
 385  1648.013
 386  1584.569
 387  1527.311
 388  1466.963
 389  1524.122
 390  1507.926
 391  1559.146
 392  1470.875
 393  1555.206
 394  1501.356
 395  1658.851
 396  1752.714
 397  1845.26
 398  1751.532
 399  1494.518
 400  1313.667
 401  1326.273
 402  1439.607
 403  1415.463
 404  1467.581
 405  1442.2
 406  1649.493
 407  1685.835
 408  1626.477
 409  1568.768
 410  1597.815
 411  1654.228
 412  1664.508
 413  1611.775
 414  1662.608
 415  1514.124
 416  1480.452
 417  1458.293
 418  1416.607
 419  1374.244
 420  1362.088
 421  1376.769
 422  1382.27
 423  1350.754
 424  1503.284
 425  1598.594
 426  1628.61
 427  1722.222
 428  1809.926
 429  1913.495
 430  1766.894
 431  1498.697
 432  1432.632
 433  1406.926
 434  1433.143
 435  1416.546
 436  1315.693
 437  1312.278
 438  1238.64
 439  1405.811
 440  1470.418
 441  1412.995
 442  1622.585
 443  1723.547
 444  1787.104
 445  1549.034
 446  1492.651
 447  1363.451
 448  1296.128
 449  1184.552
 450  1282.39
 451  1370.425
 452  1463.335
 453  1428.012
 454  1394.176
 455  1406.217
 456  1366.656
 457  1351.651
 458  1297.33
 459  1297.926
 460  1367.841
 461  1504.326
 462  1581.877
 463  1510.091
 464  1483.67
 465  1394.31
 466  1449.36
 467  1423.2
 468  1427.529
 469  1349.719
 470  1269.41
 471  1247.964
 472  1369.292
 473  1408.375
 474  1462.633
 475  1377.115
 476  1476.603
 477  1601.517
 478  1576.117
 479  1568.409
 480  1695.723
 481  1653.641
 482  1668.188
 483  1534.553
 484  1644.359
 485  1525.636
 486  1291.03
 487  1232.175
 488  1371.35
 489  1520.948
 490  1529.121
 491  1377.884
 492  1445.661
 493  1342.124
 494  1372.914
 495  1487.504
 496  1524.305
 497  1668.589
 498  1698.196
 499  1653.921
 500  1509.063
 501  1364.767
 502  1502.804
 503  1491.33
 504  1488.475
 505  1386.232
 506  1285.468
 507  1205.064
 508  1277.777
 509  1454.346
 510  1686.891
 511  1698.332
 512  1706.973
 513  1720.365
 514  1803.451
 515  1736.649
 516  1721.467
 517  1657.479
 518  1643.562
 519  1529.96
 520  1424.66
 521  1408.37
 522  1265.588
 523  1182.733
 524  1202.944
 525  1297.004
 526  1469.71
 527  1506.106
 528  1613.922
 529  1608.56
 530  1647.371
 531  1701.344
 532  1699.146
 533  1517.682
 534  1504.587
 535  1597.438
 536  1689.075
 537  1601.391
 538  1436.291
 539  1388.012
 540  1385.924
 541  1351.634
 542  1375.488
 543  1470.558
 544  1605.92
 545  1685.942
 546  1719.437
 547  1805.453
 548  1688.141
 549  1535.497
 550  1450.893
 551  1416.63
 552  1354.79
 553  1266.191
 554  1228.816
 555  1234.352
 556  1270.319
 557  1413.111
 558  1520.424
 559  1478.492
 560  1581.776
 561  1587.806
 562  1628.674
 563  1613.816
 564  1479.047
 565  1601.649
 566  1424.739
 567  1491.463
 568  1433.231
 569  1517.391
 570  1507.428
 571  1518.134
 572  1592.405
 573  1618.078
 574  1487.007
 575  1384.503
 576  1537.797
 577  1622.471
 578  1685.468
 579  1547.508
 580  1482.415
 581  1546.645
 582  1467.816
 583  1394.086
 584  1203.582
 585  1264.796
 586  1300.079
 587  1379.955
 588  1335.414
 589  1455.311
 590  1522.249
 591  1701.523
 592  1681.915
 593  1563.356
 594  1560.016
 595  1611.52
 596  1611.572
 597  1526.53
 598  1343.09
 599  1229.14
 600  1097.295
 601  1116.397
 602  1211.839
 603  1323.801
 604  1378.253
 605  1470.735
 606  1405.051
 607  1429.374
 608  1523.995
 609  1552.78
 610  1582.513
 611  1467.007
 612  1417.348
 613  1462.988
 614  1430.142
 615  1521.682
 616  1471.497
 617  1535.824
 618  1584.633
 619  1592.367
 620  1581.952
 621  1471.412
 622  1430.78
 623  1370.204
 624  1274.161
 625  1266.846
 626  1403.799
 627  1344.306
 628  1366.7
 629  1262.603
 630  1283.988
 631  1227.2
 632  1225.22
 633  1298.927
 634  1291.874
 635  1320.399
 636  1469.431
 637  1581.098
 638  1572.316
 639  1511.114
 640  1501.688
 641  1527.968
 642  1405.904
 643  1440.176
 644  1497.041
 645  1601.736
 646  1672.669
 647  1755.544
 648  1872.775
 649  1900.396
 650  1960.549
 651  1990.599
 652  1924.172
 653  1953.001
 654  2034.192
 655  2109.48
 656  1853.844
 657  1763.278
 658  1728.978
 659  1876.768
 660  1792.866
 661  1693.476
 662  1579.908
 663  1502.309
 664  1433.617
 665  1361.007
 666  1418.892
 667  1399.428
 668  1411.079
 669  1425.043
 670  1512.261
 671  1434.302
 672  1233.236
 673  1324.045
 674  1381.448
 675  1559.95
 676  1629.317
 677  1747.496
 678  1791.796
 679  1636.9
 680  1556.28
 681  1582.766
 682  1558.968
 683  1617.804
 684  1686.046
 685  1643.788
 686  1558.794
 687  1326.779
 688  1397.38
 689  1332.959
 690  1396.328
 691  1562.698
 692  1645.865
 693  1647.368
 694  1531.019
 695  1525.087
 696  1589.416
 697  1629.523
 698  1718.247
 699  1685.162
 700  1544.958
 701  1367.531
 702  1140.232
 703  1054.606
 704  1076.149
 705  1077.936
 706  1228.25
 707  1298.135
 708  1258.144
 709  1336.605
 710  1514.293
 711  1743.014
 712  1731.667
 713  1590.506
 714  1548.647
 715  1486.291
 716  1413.914
 717  1298.217
 718  1175.515
 719  1289.353
 720  1409.988
 721  1474.248
 722  1459.17
 723  1485.076
 724  1591.788
 725  1673.222
 726  1663.455
 727  1765.186
 728  1742.087
 729  1594.752
 730  1309.702
 731  1190.984
 732  1265.257
 733  1308.935
 734  1371.881
 735  1452.369
 736  1450.824
 737  1387.661
 738  1381.483
 739  1374.433
 740  1407.162
 741  1376.323
 742  1526.975
 743  1672.406
 744  1612.952
 745  1517.668
 746  1502.101
 747  1398.947
 748  1213.25
 749  1188.88
 750  1325.368
 751  1409.778
 752  1303.302
 753  1289.863
 754  1256.474
 755  1216.671
 756  1390.581
 757  1472.98
 758  1530.644
 759  1568.236
 760  1594.295
 761  1611.756
 762  1405.143
 763  1387.999
 764  1535.395
 765  1558.263
 766  1567.854
 767  1471.791
 768  1396.706
 769  1347.283
 770  1392.177
 771  1448.91
 772  1443.543
 773  1429.159
 774  1582.955
 775  1590.807
 776  1502.198
 777  1385.598
 778  1273.801
 779  1226.173
 780  1203.202
 781  1339.571
 782  1452.366
 783  1441.841
 784  1385.969
 785  1463.131
 786  1415.202
 787  1407.118
 788  1453.535
 789  1577.725
 790  1498.266
 791  1253.362
 792  1255.112
 793  1386.937
 794  1340.278
 795  1328.153
 796  1391.66
 797  1439.398
 798  1435.235
 799  1467.015
 800  1694.029
 801  1667.847
 802  1697.79
 803  1704.266
 804  1610.824
 805  1544.081
 806  1543.306
 807  1550.603
 808  1422.241
 809  1342.638
 810  1403.463
 811  1565.441
 812  1606.195
 813  1617.954
 814  1619.353
 815  1546.816
 816  1503.336
 817  1531.39
 818  1566.537
 819  1601.254
 820  1381.562
 821  1371.738
 822  1353.321
 823  1368.923
 824  1356.283
 825  1413.086
 826  1662.68
 827  1729.788
 828  1665.754
 829  1589.939
 830  1629.321
 831  1547.627
 832  1511.31
 833  1461.403
 834  1511.944
 835  1291.603
 836  1316.176
 837  1418.057
 838  1543.454
 839  1524.091
 840  1569.132
 841  1560.701
 842  1610.94
 843  1694.462
 844  1795.609
 845  1669.2
 846  1421.905
 847  1404.151
 848  1467.741
 849  1450.299
 850  1351.641
 851  1289.466
 852  1222.588
 853  1214.051
 854  1178.92
 855  1346.049
 856  1395.664
 857  1500.937
 858  1671.554
 859  1668.779
 860  1585.745
 861  1530.324
 862  1678.052
 863  1755.985
 864  1645.534
 865  1594.316
 866  1604.317
 867  1525.79
 868  1370.612
 869  1385.314
 870  1430.841
 871  1408.948
 872  1377.495
 873  1432.915
 874  1570.034
 875  1545.471
 876  1563.045
 877  1672.322
 878  1618.918
 879  1624.751
 880  1568.914
 881  1578.494
 882  1333.714
 883  1150.444
 884  1226.537
 885  1292.867
 886  1275.138
 887  1279.748
 888  1182.298
 889  1229.838
 890  1376.528
 891  1595.116
 892  1600.88
 893  1568.487
 894  1695.508
 895  1815.334
 896  1619.731
 897  1371.874
 898  1165.569
 899  1163.586
 900  1086.186
 901  1027.915
 902  1118.557
 903  1229.488
 904  1334.86
 905  1479.412
 906  1546.705
 907  1615.856
 908  1736.87
 909  1800.53
 910  1793.393
 911  1695.326
 912  1715.275
 913  1629.484
 914  1424.734
 915  1306.27
 916  1359.793
 917  1430.303
 918  1444.879
 919  1356.981
 920  1347.579
 921  1475.23
 922  1476.285
 923  1589.15
 924  1549.034
 925  1744.97
 926  1742.963
 927  1649.673
 928  1462.511
 929  1339.599
 930  1401.711
 931  1404.764
 932  1418.442
 933  1416.386
 934  1441.518
 935  1445.199
 936  1488.211
 937  1482.334
 938  1529.382
 939  1648.01
 940  1690.934
 941  1701.31
 942  1530.534
 943  1513.992
 944  1520.844
 945  1510.991
 946  1428.428
 947  1313.463
 948  1307.406
 949  1332.225
 950  1511.441
 951  1592.743
 952  1622.526
 953  1570.15
 954  1645.785
 955  1793.882
 956  1664.224
 957  1624.494
 958  1493.845
 959  1545.586
 960  1611.766
 961  1522.249
 962  1346.146
 963  1245.772
 964  1381.138
 965  1347.836
 966  1280.257
 967  1253.954
 968  1436.371
 969  1530.116
 970  1705.796
 971  1766.427
 972  1714.838
 973  1655.204
 974  1518.835
 975  1363.042
 976  1260.38
 977  1224.945
 978  1300.976
 979  1193.663
 980  1157.77
 981  1160.317
 982  1318.658
 983  1442.464
 984  1526.845
 985  1629.851
 986  1656.162
 987  1503.85
 988  1414.674
 989  1426.743
 990  1440.517
 991  1485.239
 992  1374.196
 993  1320.935
 994  1207.33
 995  1359.513
 996  1555.546
 997  1604.567
 998  1437.073
 999  1366.632
1000  1398.93
1001  1415.57
1002  1331.284
1003  1315.664
1004  1481.355
1005  1591.773
1006  1536.18
1007  1608.152
1008  1661.707
1009  1704.071
1010  1574.168
1011  1588.981
1012  1524.208
1013  1578.464
1014  1690.889
1015  1723.398
1016  1525.101
1017  1407.267
1018  1452.671
1019  1483.691
1020  1406.204
1021  1299.14
1022  1364.462
1023  1469.007
