# Input file       =  1182734782.112887_cleaned.dat
# Candidate        =  PSR_0332+5434
# Telescope        =  AR
# Epoch_topo       =  57933.060198065818
# Epoch_bary       =  N/A
# T_sample         =  0.002
# Data Folded      =  7208960
# Data Avg         =  0.117865479123694
# Data StdDev      =  4.43347546395522 
# Profile Bins     =  1024
# Profile Avg      =  829.793481481891 
# Profile StdDev   =  371.98946357932  
# Reduced chi-sqr  =  0.566
# Prob(Noise)      <  1   (~0.0 sigma)
# P_topo (ms)      =  714.490806056609  +/- 3.96e-05
# P'_topo (s/s)    =  -0                +/- 2.13e-11
# P''_topo (s/s^2) =  0                 +/- 9.57e-15
# P_bary (ms)      =  N/A
# P'_bary (s/s)    =  N/A
# P''_bary (s/s^2) =  N/A
# P_orb (s)        =  N/A
# asin(i)/c (s)    =  N/A
# eccentricity     =  N/A
# w (rad)          =  N/A
# T_peri           =  N/A
######################################################
   0  728.6413
   1  948.3148
   2  907.5276
   3  863.3148
   4  857.3478
   5  978.4864
   6  1051.562
   7  913.7068
   8  947.174
   9  928.5641
  10  902.1818
  11  634.6282
  12  554.8389
  13  622.1013
  14  710.8641
  15  672.277
  16  646.3914
  17  536.1428
  18  586.1505
  19  667.4965
  20  810.2075
  21  731.5052
  22  671.5328
  23  704.4841
  24  735.563
  25  609.8846
  26  563.6646
  27  675.1591
  28  823.9263
  29  851.4947
  30  813.0132
  31  828.6827
  32  723.8903
  33  770.6283
  34  859.5653
  35  1068.963
  36  953.2269
  37  948.1187
  38  911.2064
  39  976.6772
  40  706.6696
  41  722.3364
  42  766.0356
  43  946.7484
  44  804.9984
  45  762.7133
  46  741.3369
  47  889.8491
  48  931.1534
  49  1080.061
  50  1078.9
  51  916.4694
  52  865.1904
  53  879.4088
  54  966.6831
  55  908.7904
  56  945.3411
  57  844.8256
  58  769.079
  59  659.4749
  60  620.4701
  61  635.1567
  62  701.8837
  63  883.1256
  64  987.4259
  65  905.9901
  66  794.9276
  67  715.3986
  68  790.7254
  69  796.9109
  70  860.2147
  71  856.2365
  72  866.353
  73  809.8865
  74  767.215
  75  799.2924
  76  818.7654
  77  760.7904
  78  691.6309
  79  741.6231
  80  797.5656
  81  843.8632
  82  832.6472
  83  841.9609
  84  750.0369
  85  613.0235
  86  526.1952
  87  608.6747
  88  779.1409
  89  841.9513
  90  775.8495
  91  678.181
  92  541.637
  93  597.9438
  94  708.3198
  95  884.8313
  96  824.5996
  97  786.4119
  98  730.4019
  99  658.7545
 100  604.7823
 101  651.763
 102  705.522
 103  803.6387
 104  855.0004
 105  785.1479
 106  666.364
 107  744.5526
 108  935.0563
 109  1048.515
 110  995.7769
 111  946.7672
 112  1056.233
 113  1055.476
 114  888.8878
 115  763.0448
 116  802.7197
 117  879.9432
 118  858.0052
 119  816.6888
 120  794.8149
 121  631.316
 122  661.3644
 123  763.475
 124  945.0621
 125  820.918
 126  851.7607
 127  964.9258
 128  985.4034
 129  750.0489
 130  695.8444
 131  780.3177
 132  833.8364
 133  719.275
 134  753.5723
 135  927.0353
 136  931.7736
 137  795.6163
 138  717.1606
 139  769.3009
 140  649.91
 141  717.8585
 142  794.1936
 143  783.3721
 144  575.2079
 145  545.384
 146  690.059
 147  896.1931
 148  804.9586
 149  867.4589
 150  734.1779
 151  769.9209
 152  810.4686
 153  969.273
 154  1075.96
 155  798.459
 156  785.8464
 157  842.0212
 158  973.1043
 159  873.0695
 160  860.7826
 161  843.4137
 162  775.029
 163  748.6772
 164  704.3879
 165  804.433
 166  757.1405
 167  879.3574
 168  946.9946
 169  959.6081
 170  877.3857
 171  972.5891
 172  1112.521
 173  973.7869
 174  869.1114
 175  764.336
 176  964.075
 177  873.5987
 178  864.2314
 179  666.8947
 180  617.1392
 181  623.2601
 182  654.087
 183  785.504
 184  799.3069
 185  752.3564
 186  731.6979
 187  739.0929
 188  756.0676
 189  795.5209
 190  874.2551
 191  959.5322
 192  773.5816
 193  692.9354
 194  678.9907
 195  908.7939
 196  911.1696
 197  863.145
 198  697.6432
 199  720.9572
 200  838.2747
 201  1039.719
 202  1033.051
 203  859.4989
 204  723.6974
 205  848.5498
 206  838.6777
 207  820.7007
 208  678.5427
 209  665.7668
 210  696.9689
 211  836.5908
 212  998.8715
 213  1028.519
 214  1045.329
 215  907.9113
 216  884.2424
 217  807.1782
 218  802.4709
 219  802.8943
 220  843.367
 221  728.305
 222  596.5794
 223  585.7377
 224  807.764
 225  798.2531
 226  761.072
 227  580.4506
 228  594.2797
 229  449.6934
 230  568.5923
 231  669.0051
 232  903.6525
 233  836.3067
 234  968.014
 235  895.1625
 236  776.1902
 237  605.5695
 238  517.1958
 239  752.1032
 240  736.809
 241  757.2603
 242  768.5795
 243  912.5731
 244  793.9828
 245  726.971
 246  801.116
 247  766.2701
 248  631.1968
 249  616.3985
 250  762.726
 251  843.6887
 252  651.8716
 253  663.1406
 254  611.666
 255  617.442
 256  724.9705
 257  821.603
 258  871.3083
 259  721.8752
 260  773.8159
 261  895.564
 262  786.3827
 263  788.6265
 264  825.9391
 265  1021.925
 266  837.516
 267  663.2449
 268  611.7136
 269  804.327
 270  1040.352
 271  1065.148
 272  1127.077
 273  1008.348
 274  949.1152
 275  842.8788
 276  986.315
 277  1002.648
 278  1115.078
 279  1114.938
 280  1137.62
 281  852.456
 282  688.9062
 283  654.1369
 284  759.2617
 285  609.4122
 286  629.5305
 287  569.6546
 288  647.6261
 289  619.356
 290  798.1644
 291  784.1146
 292  736.7859
 293  668.8201
 294  806.1643
 295  867.2502
 296  794.3458
 297  705.557
 298  642.6085
 299  806.5341
 300  855.7062
 301  1076.597
 302  1004.729
 303  919.2937
 304  853.9253
 305  909.4849
 306  1006.659
 307  944.4114
 308  842.7598
 309  794.3477
 310  756.8502
 311  857.4191
 312  756.942
 313  777.1658
 314  714.401
 315  772.5139
 316  704.1573
 317  740.6498
 318  741.4103
 319  838.4365
 320  837.373
 321  933.9093
 322  879.2197
 323  899.978
 324  899.8212
 325  988.3115
 326  869.8347
 327  742.1208
 328  718.7892
 329  802.2792
 330  845.1598
 331  802.8892
 332  892.913
 333  778.764
 334  693.6368
 335  484.0674
 336  543.6535
 337  601.6598
 338  809.2863
 339  993.4514
 340  927.2244
 341  761.111
 342  699.8977
 343  788.8209
 344  884.3918
 345  747.1951
 346  781.3334
 347  714.6121
 348  700.0495
 349  692.0585
 350  768.2681
 351  771.389
 352  744.1621
 353  846.7995
 354  931.5125
 355  928.3788
 356  899.7037
 357  751.9382
 358  655.6572
 359  590.652
 360  608.81
 361  702.6091
 362  661.0107
 363  759.4749
 364  779.8403
 365  843.1544
 366  809.4042
 367  847.6339
 368  1019.987
 369  1167.137
 370  965.9327
 371  817.1923
 372  728.6755
 373  728.2701
 374  667.6505
 375  613.0588
 376  572.0379
 377  460.2096
 378  516.4074
 379  767.7484
 380  1053.262
 381  1000.781
 382  981.8314
 383  1014.108
 384  1161.691
 385  876.748
 386  815.9254
 387  777.6522
 388  990.3022
 389  866.7365
 390  921.2602
 391  804.037
 392  675.8489
 393  592.3154
 394  721.6676
 395  746.6244
 396  611.6558
 397  713.7863
 398  906.2405
 399  937.0922
 400  675.1851
 401  653.6025
 402  812.0439
 403  902.0642
 404  916.1703
 405  943.6104
 406  1016.765
 407  1058.086
 408  916.7651
 409  894.4116
 410  761.7037
 411  794.3333
 412  920.7381
 413  985.6746
 414  774.8313
 415  529.4869
 416  618.0361
 417  763.7685
 418  802.7247
 419  726.8616
 420  774.5255
 421  831.4425
 422  774.7231
 423  868.4893
 424  880.0721
 425  972.0228
 426  872.0605
 427  991.309
 428  999.3577
 429  875.2961
 430  681.5607
 431  716.3183
 432  725.2161
 433  811.8564
 434  864.2747
 435  1020.169
 436  1058.052
 437  842.9268
 438  848.1194
 439  842.3069
 440  970.2985
 441  861.3873
 442  952.079
 443  962.3188
 444  912.3299
 445  724.5214
 446  732.0649
 447  816.3074
 448  769.0889
 449  790.9256
 450  705.2428
 451  653.3093
 452  644.8898
 453  726.4581
 454  847.7276
 455  787.9247
 456  738.0695
 457  912.6752
 458  877.4498
 459  670.7427
 460  337.9835
 461  473.9857
 462  714.2063
 463  778.678
 464  684.3642
 465  603.958
 466  575.792
 467  803.0435
 468  774.0063
 469  876.426
 470  646.858
 471  923.3975
 472  1111.368
 473  1186.65
 474  973.7883
 475  892.782
 476  893.1299
 477  884.916
 478  838.3642
 479  705.1571
 480  657.1674
 481  574.1854
 482  709.3693
 483  806.8753
 484  869.8354
 485  853.9118
 486  909.0696
 487  1084.809
 488  1133.528
 489  945.7653
 490  793.0647
 491  811.4825
 492  882.4282
 493  732.7272
 494  556.8983
 495  479.6467
 496  628.3299
 497  724.8878
 498  923.5019
 499  994.162
 500  959.2401
 501  957.2665
 502  911.0743
 503  887.727
 504  860.2964
 505  894.014
 506  973.847
 507  899.0147
 508  791.111
 509  834.819
 510  903.9886
 511  891.0469
 512  947.9549
 513  935.7091
 514  957.2141
 515  903.9119
 516  943.8707
 517  1157.335
 518  1080.236
 519  1029.659
 520  953.6401
 521  1106.737
 522  1126.51
 523  973.3066
 524  792.7751
 525  760.7361
 526  611.8212
 527  769.5416
 528  775.2635
 529  882.9675
 530  798.4036
 531  960.3461
 532  1000.107
 533  897.719
 534  796.8587
 535  947.72
 536  1107.755
 537  954.0007
 538  745.2491
 539  791.8237
 540  873.9368
 541  760.8456
 542  632.5869
 543  628.5208
 544  746.7313
 545  844.8083
 546  1021.881
 547  876.23
 548  623.7924
 549  579.9619
 550  873.7778
 551  1060.099
 552  914.3463
 553  736.8356
 554  791.626
 555  869.7938
 556  926.82
 557  958.5135
 558  995.418
 559  875.3
 560  916.7879
 561  1001.638
 562  930.1937
 563  629.8542
 564  668.5992
 565  915.4382
 566  924.4667
 567  739.9758
 568  773.4785
 569  907.8755
 570  906.294
 571  880.9976
 572  923.6317
 573  1033.956
 574  1005.587
 575  973.2559
 576  849.8054
 577  835.9584
 578  664.3822
 579  825.3019
 580  838.1335
 581  933.7625
 582  822.5747
 583  829.4105
 584  831.2234
 585  877.0009
 586  817.2142
 587  902.0301
 588  907.3868
 589  839.0581
 590  776.2033
 591  771.8765
 592  755.105
 593  709.5839
 594  796.6249
 595  948.7374
 596  958.4581
 597  851.138
 598  778.3683
 599  755.43
 600  768.4694
 601  720.4563
 602  864.9486
 603  974.3283
 604  1129.41
 605  1098.102
 606  1250.226
 607  1089.328
 608  917.3986
 609  816.5559
 610  953.2014
 611  972.4713
 612  898.0355
 613  756.0211
 614  779.1107
 615  691.1302
 616  758.146
 617  853.9617
 618  953.4125
 619  1116.907
 620  1090.874
 621  1283.084
 622  1212.6
 623  1234.764
 624  1184.876
 625  1143.182
 626  874.3843
 627  737.0745
 628  747.5538
 629  904.5349
 630  839.1072
 631  790.2773
 632  713.9852
 633  821.3342
 634  912.2614
 635  955.0905
 636  910.8497
 637  885.0554
 638  922.9223
 639  1056.136
 640  1166.38
 641  954.9091
 642  766.0654
 643  769.224
 644  1013.667
 645  1139.584
 646  1216.238
 647  1231.988
 648  1307.269
 649  1358.273
 650  1469.995
 651  1461.152
 652  1346.278
 653  1403.86
 654  1544.011
 655  1759.393
 656  1574.973
 657  1345.326
 658  1101.573
 659  952.91
 660  931.7114
 661  900.7916
 662  1085.756
 663  969.8583
 664  981.5577
 665  976.6227
 666  1013.236
 667  833.9013
 668  801.265
 669  963.0677
 670  1032.474
 671  868.8768
 672  774.1149
 673  803.5054
 674  895.1587
 675  761.959
 676  872.5327
 677  1003.008
 678  1010.33
 679  1052.668
 680  1039.876
 681  981.7418
 682  883.1868
 683  1074.976
 684  1222.317
 685  1071.594
 686  738.6599
 687  644.7275
 688  646.7333
 689  749.7286
 690  717.4092
 691  722.6809
 692  681.3482
 693  709.1104
 694  760.9653
 695  844.8029
 696  739.2418
 697  752.8766
 698  941.5968
 699  1133.019
 700  1016.433
 701  823.3867
 702  721.7261
 703  703.1741
 704  747.1528
 705  798.8524
 706  892.695
 707  863.1083
 708  891.4233
 709  752.6484
 710  746.5432
 711  654.089
 712  784.0019
 713  809.9824
 714  925.9323
 715  793.0154
 716  820.4282
 717  819.1887
 718  889.0761
 719  793.7976
 720  835.2567
 721  863.6983
 722  822.3878
 723  806.0474
 724  850.1816
 725  817.6628
 726  796.8445
 727  857.0559
 728  909.4274
 729  905.4398
 730  872.9892
 731  866.5507
 732  831.1381
 733  781.6902
 734  668.6466
 735  762.0608
 736  838.3109
 737  922.5159
 738  872.9398
 739  907.4171
 740  845.9201
 741  647.7264
 742  750.8934
 743  1013.706
 744  1114.176
 745  1031.261
 746  841.6038
 747  847.0481
 748  766.4446
 749  770.8316
 750  1008.431
 751  1085.28
 752  1012.378
 753  852.9843
 754  804.7931
 755  811.201
 756  654.2867
 757  757.4653
 758  851.6926
 759  855.0228
 760  808.1176
 761  711.7087
 762  738.7234
 763  578.4327
 764  631.9813
 765  668.2213
 766  876.7062
 767  941.9703
 768  968.9473
 769  938.5027
 770  892.0967
 771  795.3351
 772  942.8444
 773  1012.969
 774  920.9817
 775  672.6802
 776  652.9635
 777  752.5895
 778  632.4741
 779  521.2623
 780  544.0988
 781  640.8992
 782  668.627
 783  675.3482
 784  579.3964
 785  542.9478
 786  558.7291
 787  863.2616
 788  977.8803
 789  968.067
 790  833.869
 791  894.3354
 792  804.5284
 793  784.6256
 794  706.5746
 795  816.832
 796  887.8408
 797  922.3845
 798  837.3979
 799  733.3243
 800  723.8715
 801  741.5063
 802  791.4673
 803  927.3874
 804  954.4165
 805  887.1151
 806  828.6412
 807  840.0149
 808  809.0627
 809  741.8923
 810  839.9418
 811  1065.845
 812  1026.802
 813  957.6401
 814  852.5082
 815  883.6323
 816  834.736
 817  981.2363
 818  985.2269
 819  898.9498
 820  867.1884
 821  949.8737
 822  1168.304
 823  936.3474
 824  917.1021
 825  719.0972
 826  762.582
 827  732.7028
 828  837.8566
 829  862.8794
 830  844.8596
 831  899.3672
 832  1116.647
 833  1143.479
 834  903.2507
 835  804.9291
 836  903.6848
 837  1005.221
 838  839.7568
 839  712.5442
 840  671.3322
 841  657.8531
 842  564.9277
 843  477.9912
 844  543.7463
 845  808.9322
 846  1065.808
 847  1178.843
 848  1032.446
 849  831.3707
 850  723.0886
 851  806.4447
 852  771.8326
 853  717.7832
 854  617.998
 855  788.4777
 856  834.5423
 857  856.1089
 858  738.2188
 859  644.5842
 860  676.7077
 861  906.2407
 862  951.3029
 863  817.2615
 864  698.7024
 865  845.0078
 866  911.9759
 867  639.9101
 868  406.8695
 869  486.1568
 870  763.0458
 871  826.7872
 872  750.877
 873  662.2195
 874  710.7132
 875  732.91
 876  903.5217
 877  945.4391
 878  930.1182
 879  816.6017
 880  1023.628
 881  1157.297
 882  1191.373
 883  1047.522
 884  817.2388
 885  642.8657
 886  350.129
 887  447.6049
 888  664.6654
 889  885.8494
 890  1000.5
 891  1046.611
 892  1006.563
 893  817.7975
 894  738.1211
 895  939.0188
 896  1009.471
 897  958.6901
 898  835.0641
 899  856.3573
 900  855.6528
 901  756.1377
 902  606.3663
 903  684.0737
 904  660.5632
 905  879.589
 906  881.3141
 907  911.7446
 908  621.4777
 909  609.1306
 910  793.7977
 911  990.3906
 912  857.9335
 913  712.5472
 914  736.475
 915  731.2501
 916  665.5743
 917  613.4691
 918  783.1666
 919  818.0825
 920  938.0984
 921  897.1049
 922  811.0472
 923  632.7219
 924  736.4554
 925  907.251
 926  833.9992
 927  593.2979
 928  711.7769
 929  934.8255
 930  966.1095
 931  807.6815
 932  726.2286
 933  753.7366
 934  864.4044
 935  943.9216
 936  1045.846
 937  840.0812
 938  822.1675
 939  717.4537
 940  863.3277
 941  759.4683
 942  741.174
 943  817.2407
 944  877.7466
 945  866.6819
 946  674.0396
 947  688.2065
 948  685.0598
 949  795.963
 950  804.6181
 951  736.9926
 952  675.3962
 953  678.2989
 954  742.6798
 955  863.2279
 956  749.6835
 957  689.7922
 958  598.2582
 959  759.0134
 960  860.6776
 961  900.1988
 962  795.3226
 963  767.0848
 964  650.16
 965  860.7952
 966  921.9636
 967  893.5258
 968  674.6287
 969  736.1741
 970  887.5493
 971  869.3002
 972  845.6703
 973  808.3354
 974  817.9284
 975  740.3782
 976  810.3725
 977  870.8379
 978  853.817
 979  918.3477
 980  959.3479
 981  940.204
 982  802.8757
 983  852.6884
 984  1159.962
 985  1168.575
 986  916.6607
 987  706.3262
 988  764.0419
 989  744.2215
 990  630.3254
 991  478.4649
 992  666.2912
 993  797.7975
 994  824.8115
 995  783.9369
 996  811.3345
 997  772.1769
 998  808.247
 999  956.5817
1000  1019.721
1001  946.8752
1002  828.9297
1003  886.1349
1004  813.4185
1005  714.6456
1006  620.7454
1007  714.7299
1008  780.7569
1009  828.0387
1010  795.7674
1011  739.1129
1012  661.4412
1013  776.8425
1014  914.8117
1015  895.1539
1016  630.7247
1017  604.0986
1018  621.5818
1019  679.2584
1020  578.1072
1021  580.0653
1022  504.9753
1023  587.9528
