# Input file       =  1182663277.113445_cleaned.dat
# Candidate        =  PSR_0332+5434
# Telescope        =  AR
# Epoch_topo       =  57932.232593905617
# Epoch_bary       =  N/A
# T_sample         =  0.002
# Data Folded      =  7340032
# Data Avg         =  0.115435850414672
# Data StdDev      =  3.09406831938147 
# Profile Bins     =  1024
# Profile Avg      =  827.448010807513 
# Profile StdDev   =  261.956330000862 
# Reduced chi-sqr  =  1.065
# Prob(Noise)      <  0.0728   (~1.5 sigma)
# P_topo (ms)      =  714.491504407578  +/- 6.39e-05
# P'_topo (s/s)    =  -0                +/- 3.37e-11
# P''_topo (s/s^2) =  0                 +/- 1.49e-14
# P_bary (ms)      =  N/A
# P'_bary (s/s)    =  N/A
# P''_bary (s/s^2) =  N/A
# P_orb (s)        =  N/A
# asin(i)/c (s)    =  N/A
# eccentricity     =  N/A
# w (rad)          =  N/A
# T_peri           =  N/A
######################################################
   0  699.4853
   1  666.4365
   2  671.2888
   3  757.5203
   4  652.5621
   5  673.2974
   6  577.0366
   7  671.2062
   8  494.0005
   9  484.5204
  10  492.2952
  11  613.8074
  12  671.2322
  13  626.9871
  14  593.2283
  15  585.8656
  16  605.6487
  17  672.9677
  18  649.2021
  19  676.9578
  20  625.5306
  21  613.7003
  22  542.5568
  23  536.8942
  24  616.5104
  25  664.6284
  26  704.5356
  27  756.6305
  28  793.2415
  29  786.1049
  30  750.3342
  31  751.1676
  32  755.8281
  33  810.912
  34  819.785
  35  707.2497
  36  628.0417
  37  573.6266
  38  632.1794
  39  661.8382
  40  629.769
  41  700.6617
  42  797.0933
  43  753.9598
  44  707.178
  45  621.1987
  46  642.6562
  47  592.4557
  48  603.7491
  49  688.4299
  50  754.0556
  51  852.099
  52  777.1255
  53  744.6561
  54  639.7906
  55  673.1663
  56  746.5826
  57  738.092
  58  803.8222
  59  683.5373
  60  677.4139
  61  624.909
  62  666.3763
  63  719.4399
  64  700.4681
  65  634.1996
  66  462.0794
  67  466.3344
  68  510.1168
  69  569.2812
  70  564.4608
  71  633.6656
  72  701.3767
  73  766.7325
  74  829.0376
  75  772.9794
  76  684.2434
  77  614.228
  78  651.4263
  79  748.9056
  80  716.9972
  81  660.1872
  82  548.0182
  83  597.8809
  84  730.8474
  85  729.6345
  86  716.3627
  87  630.4969
  88  622.5495
  89  711.5516
  90  841.232
  91  856.202
  92  768.3073
  93  709.6741
  94  743.1835
  95  785.5049
  96  784.6731
  97  668.0551
  98  735.7578
  99  815.5394
 100  998.9274
 101  870.7642
 102  779.9533
 103  682.1638
 104  626.3085
 105  584.1559
 106  635.2026
 107  687.2474
 108  796.2575
 109  841.3989
 110  886.5402
 111  805.4074
 112  783.5437
 113  813.0523
 114  793.3629
 115  770.3411
 116  817.7172
 117  944.0582
 118  945.9211
 119  859.1021
 120  812.3695
 121  876.7154
 122  879.9178
 123  779.0735
 124  751.4332
 125  757.2719
 126  826.0904
 127  875.7232
 128  906.5897
 129  956.418
 130  886.1976
 131  862.7354
 132  751.1493
 133  706.9188
 134  674.6162
 135  732.527
 136  747.5912
 137  763.6913
 138  733.6261
 139  774.8359
 140  781.4135
 141  833.2556
 142  795.5253
 143  836.6478
 144  686.6659
 145  698.9564
 146  748.11
 147  740.8364
 148  661.2321
 149  619.8061
 150  765.9595
 151  783.6429
 152  646.996
 153  585.6664
 154  598.0023
 155  728.7001
 156  754.5157
 157  823.7823
 158  813.2139
 159  805.5886
 160  814.4772
 161  824.5496
 162  812.4453
 163  868.784
 164  970.5897
 165  1048.741
 166  992.9828
 167  948.3034
 168  932.9609
 169  949.3494
 170  979.5289
 171  989.7811
 172  982.7256
 173  897.3222
 174  952.4127
 175  965.3143
 176  1065.284
 177  1058.243
 178  1037.284
 179  1044.073
 180  935.847
 181  905.1646
 182  871.3713
 183  931.4757
 184  949.2509
 185  901.2087
 186  905.6243
 187  866.2336
 188  878.7296
 189  853.631
 190  772.2424
 191  655.4936
 192  667.5062
 193  605.5963
 194  639.4848
 195  651.1696
 196  791.0259
 197  922.3911
 198  930.3507
 199  805.4645
 200  755.4259
 201  679.4609
 202  709.4808
 203  604.226
 204  587.1616
 205  619.1871
 206  655.0636
 207  668.9066
 208  678.571
 209  696.381
 210  738.4803
 211  721.181
 212  755.0657
 213  719.9003
 214  759.2598
 215  850.9349
 216  979.6476
 217  1018.734
 218  925.9627
 219  915.9186
 220  921.332
 221  991.8685
 222  881.0276
 223  878.8604
 224  950.0067
 225  954.5736
 226  982.8393
 227  911.245
 228  882.8893
 229  736.9758
 230  717.8057
 231  702.3466
 232  703.7214
 233  663.6693
 234  681.7835
 235  807.6208
 236  850.765
 237  834.5389
 238  782.2004
 239  725.9101
 240  728.5659
 241  799.8582
 242  969.8682
 243  923.4641
 244  825.6378
 245  814.7538
 246  779.9798
 247  718.0843
 248  731.4096
 249  772.3708
 250  766.951
 251  694.1324
 252  766.2054
 253  814.8724
 254  839.8401
 255  806.6809
 256  898.5667
 257  883.1336
 258  772.9235
 259  769.7827
 260  684.0933
 261  683.5297
 262  687.6707
 263  792.081
 264  923.7714
 265  890.6162
 266  836.4976
 267  706.5009
 268  739.8518
 269  652.4087
 270  711.2839
 271  669.7008
 272  810.8953
 273  854.7558
 274  845.4722
 275  811.4272
 276  667.9933
 277  638.4424
 278  625.3056
 279  761.1459
 280  848.3624
 281  928.2698
 282  863.3317
 283  825.5209
 284  810.0575
 285  833.2568
 286  798.2256
 287  689.9163
 288  676.2017
 289  690.4223
 290  780.6617
 291  840.7825
 292  962.9587
 293  942.6912
 294  953.5903
 295  774.3534
 296  714.2599
 297  770.7552
 298  977.0769
 299  948.5843
 300  825.718
 301  818.044
 302  859.9171
 303  873.6323
 304  755.062
 305  799.8497
 306  793.0759
 307  877.3979
 308  874.9694
 309  961.1372
 310  1041.559
 311  1097.317
 312  1110.133
 313  1032.963
 314  996.9159
 315  909.2284
 316  808.5389
 317  746.1906
 318  829.7197
 319  818.7551
 320  750.064
 321  772.686
 322  857.577
 323  933.6683
 324  872.3901
 325  822.7176
 326  746.1771
 327  772.5736
 328  803.0779
 329  885.9931
 330  909.0504
 331  947.487
 332  1021.661
 333  1002.531
 334  1042.829
 335  936.1796
 336  961.3845
 337  894.0449
 338  882.1263
 339  848.4918
 340  850.9224
 341  911.9489
 342  1003.125
 343  1036.543
 344  984.8171
 345  961.4159
 346  927.3133
 347  859.0468
 348  815.7261
 349  741.1277
 350  712.5169
 351  685.3827
 352  822.9175
 353  937.9808
 354  859.2201
 355  752.6777
 356  705.2191
 357  803.6926
 358  952.9626
 359  1004.673
 360  973.6409
 361  771.7728
 362  626.2554
 363  735.0987
 364  840.1649
 365  860.4786
 366  774.5294
 367  747.3104
 368  816.6489
 369  825.7914
 370  877.5969
 371  868.1611
 372  861.3486
 373  842.2628
 374  879.9765
 375  864.4733
 376  826.0131
 377  849.9424
 378  889.8891
 379  1000.709
 380  959.4381
 381  958.7976
 382  911.9858
 383  903.6784
 384  875.9347
 385  939.8585
 386  941.8702
 387  967.9528
 388  886.2792
 389  905.5281
 390  875.5415
 391  908.0147
 392  871.3846
 393  861.2216
 394  921.8457
 395  961.7458
 396  1018.429
 397  958.1625
 398  1020.987
 399  1108.37
 400  1097.121
 401  1080.896
 402  899.8293
 403  809.7524
 404  725.8105
 405  721.8995
 406  719.3209
 407  815.0008
 408  847.434
 409  893.2997
 410  865.5038
 411  831.259
 412  829.9941
 413  882.7187
 414  975.7354
 415  1039.635
 416  1043.762
 417  1070.36
 418  1026.773
 419  975.4925
 420  982.9371
 421  985.0924
 422  976.2286
 423  901.0145
 424  1008.847
 425  1016.697
 426  1102.785
 427  1094.804
 428  1145.64
 429  1143.27
 430  988.8646
 431  818.7565
 432  717.3225
 433  725.938
 434  807.7021
 435  956.7966
 436  1088.618
 437  962.5338
 438  822.0318
 439  771.674
 440  823.7332
 441  816.3846
 442  859.4128
 443  824.989
 444  960.188
 445  998.2535
 446  1004.397
 447  960.9789
 448  843.3566
 449  735.6951
 450  675.8021
 451  667.0381
 452  767.3701
 453  677.381
 454  687.1586
 455  700.8964
 456  788.7298
 457  822.2114
 458  741.4511
 459  698.2182
 460  740.6002
 461  752.6835
 462  721.4542
 463  662.8483
 464  731.1674
 465  741.854
 466  783.2631
 467  805.1304
 468  863.1009
 469  912.7269
 470  925.8706
 471  946.9461
 472  985.8073
 473  971.4628
 474  968.3679
 475  946.0331
 476  921.632
 477  841.9073
 478  748.8135
 479  763.9122
 480  899.8994
 481  861.7187
 482  852.8209
 483  849.2371
 484  960.5476
 485  901.1147
 486  804.738
 487  681.4628
 488  647.9291
 489  710.305
 490  844.2288
 491  853.3074
 492  877.5284
 493  985.5378
 494  982.3356
 495  920.0383
 496  759.4434
 497  782.8727
 498  873.3427
 499  954.3427
 500  962.9137
 501  962.0729
 502  920.3495
 503  844.5634
 504  869.0137
 505  820.941
 506  907.077
 507  935.8342
 508  958.1752
 509  914.842
 510  916.3269
 511  895.0504
 512  838.2894
 513  737.6376
 514  744.1987
 515  687.7839
 516  695.0021
 517  735.5121
 518  668.9776
 519  649.7831
 520  715.9727
 521  799.6282
 522  859.0464
 523  784.7616
 524  784.6238
 525  737.322
 526  692.8319
 527  636.3928
 528  702.1311
 529  667.8912
 530  727.6092
 531  784.6026
 532  851.6443
 533  994.7789
 534  935.2238
 535  932.1284
 536  805.1912
 537  792.3206
 538  823.9408
 539  836.8535
 540  876.6047
 541  944.1741
 542  998.2365
 543  1004.851
 544  844.1292
 545  724.8731
 546  748.4547
 547  799.7849
 548  805.589
 549  942.7863
 550  1072.153
 551  1086.253
 552  884.0607
 553  864.9484
 554  821.6348
 555  824.6489
 556  691.9265
 557  698.3943
 558  658.0494
 559  642.7484
 560  638.1992
 561  713.704
 562  702.7973
 563  748.5956
 564  882.4775
 565  967.738
 566  855.943
 567  762.8683
 568  743.6247
 569  860.6763
 570  900.3439
 571  918.5229
 572  934.038
 573  877.9464
 574  827.9898
 575  741.592
 576  739.4976
 577  853.6603
 578  942.2659
 579  981.5443
 580  933.7396
 581  962.1462
 582  959.2845
 583  1025.34
 584  989.703
 585  938.9346
 586  859.8361
 587  775.945
 588  765.3387
 589  890.8619
 590  952.0908
 591  957.2296
 592  958.7042
 593  906.1717
 594  902.8967
 595  807.8397
 596  924.8409
 597  997.3253
 598  1069.311
 599  1024.896
 600  982.4922
 601  909.7483
 602  814.5956
 603  755.3228
 604  777.0634
 605  791.6359
 606  811.011
 607  906.4875
 608  1010.862
 609  965.7321
 610  850.9675
 611  751.0287
 612  813.0728
 613  871.1736
 614  1022.359
 615  1046.23
 616  983.7559
 617  862.6211
 618  855.1356
 619  893.4621
 620  836.6592
 621  846.8166
 622  971.4257
 623  1008.144
 624  1006.077
 625  1031.886
 626  1148.727
 627  1237.01
 628  1317.398
 629  1146.64
 630  983.4689
 631  836.5212
 632  866.36
 633  904.4241
 634  890.9096
 635  962.8964
 636  966.8076
 637  978.3013
 638  990.1111
 639  1050.786
 640  1120.945
 641  1091.885
 642  995.0269
 643  984.8071
 644  1026.667
 645  1190.013
 646  1247.752
 647  1325.344
 648  1264.32
 649  1346.437
 650  1346.649
 651  1385.341
 652  1502.382
 653  1659.798
 654  1902.244
 655  1895.791
 656  1840.886
 657  1654.519
 658  1483.374
 659  1344.898
 660  1185.716
 661  1002.535
 662  884.2678
 663  864.2592
 664  933.0909
 665  1097.257
 666  1135.654
 667  1023.964
 668  851.6082
 669  782.8911
 670  851.5795
 671  923.6249
 672  944.4747
 673  986.2309
 674  1010.625
 675  944.0955
 676  859.5975
 677  859.7059
 678  889.1675
 679  944.4575
 680  941.6881
 681  966.979
 682  842.1772
 683  818.8391
 684  889.849
 685  881.2931
 686  854.2534
 687  869.7188
 688  950.3904
 689  897.8022
 690  716.0667
 691  696.9167
 692  693.4105
 693  688.6309
 694  700.9722
 695  836.686
 696  866.8536
 697  726.175
 698  735.1074
 699  718.4274
 700  824.3842
 701  719.2772
 702  692.833
 703  774.0715
 704  817.3625
 705  808.7532
 706  621.3223
 707  628.4855
 708  681.5206
 709  721.8464
 710  743.0172
 711  715.1894
 712  731.7574
 713  734.7452
 714  767.3582
 715  837.5923
 716  862.2034
 717  739.2794
 718  726.0346
 719  601.4597
 720  688.0021
 721  758.3781
 722  857.2894
 723  872.8307
 724  912.3281
 725  935.5735
 726  855.6638
 727  810.3016
 728  812.8522
 729  781.0933
 730  766.8219
 731  860.2389
 732  903.9673
 733  793.881
 734  635.0112
 735  630.3322
 736  670.6459
 737  730.3805
 738  695.5387
 739  648.3303
 740  685.5607
 741  750.9893
 742  793.5694
 743  778.2916
 744  718.7545
 745  616.5686
 746  672.8572
 747  675.1342
 748  708.1905
 749  779.8997
 750  846.8447
 751  874.0453
 752  770.301
 753  745.1901
 754  716.308
 755  685.0807
 756  709.1201
 757  794.1862
 758  867.4575
 759  861.5198
 760  838.2702
 761  843.2646
 762  891.2146
 763  775.163
 764  745.7769
 765  656.2425
 766  740.9931
 767  775.4456
 768  892.7527
 769  864.3057
 770  809.5625
 771  804.121
 772  923.7154
 773  961.3672
 774  940.5649
 775  937.7191
 776  851.0189
 777  802.7448
 778  829.5425
 779  939.8876
 780  1030.621
 781  978.3326
 782  888.3289
 783  781.0888
 784  796.9769
 785  847.6602
 786  940.8594
 787  920.2948
 788  875.147
 789  823.5901
 790  856.949
 791  923.2333
 792  888.2013
 793  858.0509
 794  904.355
 795  933.7
 796  896.288
 797  769.0317
 798  753.4539
 799  786.3286
 800  775.7517
 801  787.3699
 802  722.6769
 803  609.4485
 804  553.6439
 805  697.7096
 806  912.0759
 807  985.95
 808  995.8312
 809  984.3394
 810  961.9221
 811  859.3531
 812  816.8926
 813  903.1096
 814  938.8148
 815  996.4
 816  917.1982
 817  902.7067
 818  915.0312
 819  929.2542
 820  868.5071
 821  876.0568
 822  910.4457
 823  819.9105
 824  748.1038
 825  773.4891
 826  920.8641
 827  915.696
 828  909.7891
 829  809.9537
 830  751.6167
 831  727.7865
 832  725.0944
 833  822.2603
 834  781.7366
 835  809.3837
 836  710.6329
 837  715.7095
 838  702.2511
 839  830.4711
 840  914.3416
 841  866.5549
 842  822.0437
 843  759.3474
 844  804.8669
 845  806.8824
 846  819.2512
 847  779.5948
 848  903.9761
 849  995.2017
 850  933.4229
 851  828.8978
 852  837.0913
 853  924.815
 854  1010.87
 855  1024.379
 856  1042.145
 857  974.21
 858  891.6245
 859  860.0854
 860  825.5837
 861  823.8067
 862  775.429
 863  732.0701
 864  757.5747
 865  858.101
 866  863.3092
 867  780.6491
 868  789.8262
 869  848.7119
 870  881.4354
 871  771.2707
 872  762.8127
 873  770.1243
 874  883.5486
 875  876.6213
 876  872.7639
 877  884.118
 878  990.1786
 879  1027.436
 880  928.4316
 881  787.6626
 882  797.8344
 883  807.2885
 884  837.3137
 885  832.5129
 886  758.3997
 887  722.1282
 888  690.6966
 889  710.0654
 890  705.1522
 891  561.611
 892  542.3823
 893  561.3544
 894  680.64
 895  745.7314
 896  704.7612
 897  720.1364
 898  670.0283
 899  764.2787
 900  699.1722
 901  723.9774
 902  701.7167
 903  691.0785
 904  699.9886
 905  780.2899
 906  922.1567
 907  815.255
 908  683.7998
 909  596.7143
 910  616.4861
 911  660.7923
 912  689.2917
 913  778.6033
 914  843.1969
 915  788.165
 916  673.7254
 917  647.5601
 918  735.9586
 919  803.254
 920  797.3056
 921  764.2115
 922  734.4042
 923  753.2357
 924  868.4883
 925  899.8292
 926  904.4392
 927  803.0706
 928  785.1134
 929  745.8225
 930  724.037
 931  788.8815
 932  829.3119
 933  922.533
 934  902.7235
 935  965.5503
 936  847.2606
 937  784.9368
 938  711.2253
 939  772.5068
 940  764.4381
 941  728.7476
 942  756.2922
 943  821.2773
 944  941.2756
 945  977.7621
 946  898.025
 947  776.0338
 948  646.0768
 949  656.8674
 950  681.2197
 951  791.5862
 952  751.2617
 953  731.5361
 954  727.8231
 955  715.2209
 956  604.5073
 957  563.8276
 958  611.2673
 959  604.9758
 960  558.4932
 961  626.459
 962  693.0295
 963  697.0932
 964  657.0762
 965  725.9263
 966  713.2947
 967  754.4929
 968  691.7234
 969  789.6263
 970  754.0584
 971  787.4343
 972  742.5807
 973  739.3704
 974  744.5964
 975  668.4725
 976  577.2354
 977  608.4242
 978  599.0032
 979  694.4256
 980  729.6622
 981  887.8152
 982  878.9727
 983  871.0921
 984  806.0314
 985  740.3026
 986  727.0061
 987  658.0431
 988  594.6938
 989  679.9988
 990  796.9693
 991  875.9089
 992  858.5195
 993  865.8329
 994  822.6104
 995  738.2949
 996  680.8698
 997  745.0113
 998  857.1883
 999  987.2037
1000  978.1964
1001  900.7186
1002  856.6438
1003  899.3785
1004  916.8857
1005  897.094
1006  868.3602
1007  904.0563
1008  893.3829
1009  904.1783
1010  861.8223
1011  884.2552
1012  721.8568
1013  666.369
1014  640.6577
1015  585.3881
1016  624.9184
1017  788.555
1018  958.099
1019  926.0077
1020  905.6865
1021  889.6127
1022  878.8699
1023  819.8687
