# Input file       =  1182490991.128987_cleaned.dat
# Candidate        =  PSR_0332+5434
# Telescope        =  AR
# Epoch_topo       =  57930.238543159576
# Epoch_bary       =  N/A
# T_sample         =  0.002
# Data Folded      =  7340032
# Data Avg         =  0.0411086861366482
# Data StdDev      =  1.00012749277156 
# Profile Bins     =  512
# Profile Avg      =  589.339977594467 
# Profile StdDev   =  119.748301473421 
# Reduced chi-sqr  =  0.996
# Prob(Noise)      <  0.52   (~0.0 sigma)
# P_topo (ms)      =  714.493187729175  +/- 4.85e-05
# P'_topo (s/s)    =  -0                +/- 2.56e-11
# P''_topo (s/s^2) =  0                 +/- 1.13e-14
# P_bary (ms)      =  N/A
# P'_bary (s/s)    =  N/A
# P''_bary (s/s^2) =  N/A
# P_orb (s)        =  N/A
# asin(i)/c (s)    =  N/A
# eccentricity     =  N/A
# w (rad)          =  N/A
# T_peri           =  N/A
######################################################
   0  1055.963
   1  956.4353
   2  948.9219
   3  739.7872
   4  666.4224
   5  627.2516
   6  642.1395
   7  710.1664
   8  666.4955
   9  584.473
  10  617.2791
  11  692.9972
  12  710.2699
  13  774.3854
  14  730.3018
  15  713.4656
  16  616.5948
  17  687.7711
  18  691.4898
  19  687.1171
  20  642.1763
  21  593.8387
  22  619.8605
  23  610.543
  24  625.8242
  25  669.9581
  26  670.2484
  27  576.6655
  28  542.5612
  29  546.7056
  30  530.9202
  31  547.0974
  32  589.5612
  33  577.0272
  34  598.6346
  35  625.5536
  36  605.6094
  37  728.7144
  38  739.5109
  39  739.731
  40  689.7199
  41  746.7942
  42  677.8743
  43  583.1341
  44  596.1537
  45  648.6907
  46  684.764
  47  728.7647
  48  764.1827
  49  660.7418
  50  699.8377
  51  663.9843
  52  573.8081
  53  525.0862
  54  474.8777
  55  583.2448
  56  688.4094
  57  698.0742
  58  649.7397
  59  577.7266
  60  550.8324
  61  528.152
  62  551.4775
  63  623.7319
  64  639.2191
  65  703.9666
  66  711.647
  67  592.9308
  68  576.4188
  69  595.0604
  70  599.4183
  71  569.7273
  72  538.0145
  73  639.0816
  74  684.999
  75  657.3936
  76  596.1296
  77  562.171
  78  576.9886
  79  583.8641
  80  612.2817
  81  607.2794
  82  485.3622
  83  430.0262
  84  529.1021
  85  485.4464
  86  450.5871
  87  468.3949
  88  595.6666
  89  613.1325
  90  586.8956
  91  538.7642
  92  473.8552
  93  547.6026
  94  619.8407
  95  621.9639
  96  531.5887
  97  478.3085
  98  534.7911
  99  553.9289
 100  609.2057
 101  615.5192
 102  557.1608
 103  619.0834
 104  691.3923
 105  651.1802
 106  653.288
 107  680.0389
 108  690.0236
 109  688.7325
 110  570.9123
 111  496.22
 112  576.4327
 113  612.1776
 114  618.6994
 115  572.1425
 116  584.7548
 117  661.9071
 118  595.5997
 119  513.5063
 120  482.6831
 121  534.655
 122  606.0176
 123  759.8321
 124  697.106
 125  617.6367
 126  498.2631
 127  516.5578
 128  671.1506
 129  754.7697
 130  644.0965
 131  516.5404
 132  544.7497
 133  582.6736
 134  476.0757
 135  514.0569
 136  599.7703
 137  675.0513
 138  648.5989
 139  608.6547
 140  542.8561
 141  606.3743
 142  641.1562
 143  669.2781
 144  507.3428
 145  512.9561
 146  627.9969
 147  579.5254
 148  568.7191
 149  589.1832
 150  658.6225
 151  669.5559
 152  569.8236
 153  535.1436
 154  483.4189
 155  474.8727
 156  573.8378
 157  523.4421
 158  486.4228
 159  497.6207
 160  563.2333
 161  555.3423
 162  493.9884
 163  469.7802
 164  522.0414
 165  532.1646
 166  621.8746
 167  590.5081
 168  499.6339
 169  591.9355
 170  704.738
 171  737.9598
 172  686.3937
 173  602.1969
 174  585.8842
 175  606.7421
 176  582.0763
 177  556.379
 178  569.5257
 179  656.8212
 180  751.8546
 181  657.8571
 182  583.83
 183  534.394
 184  555.8335
 185  653.1151
 186  605.6704
 187  528.8022
 188  618.2666
 189  650.2712
 190  636.2976
 191  599.3435
 192  582.0184
 193  525.1896
 194  640.2338
 195  642.229
 196  617.5939
 197  639.3226
 198  576.1824
 199  607.4905
 200  625.2975
 201  570.7056
 202  471.3295
 203  508.4203
 204  650.3734
 205  616.2072
 206  521.028
 207  576.4452
 208  684.5506
 209  691.3427
 210  709.7947
 211  546.1851
 212  460.6901
 213  562.2917
 214  624.9348
 215  545.5958
 216  561.8193
 217  474.0062
 218  591.5858
 219  619.6305
 220  593.4597
 221  610.869
 222  735.2874
 223  651.8325
 224  605.4694
 225  534.6155
 226  525.7938
 227  555.4489
 228  623.7355
 229  580.0851
 230  609.8768
 231  688.3167
 232  743.545
 233  720.5838
 234  645.9359
 235  678.2895
 236  705.4607
 237  679.5548
 238  691.0105
 239  619.488
 240  540.659
 241  556.4743
 242  534.1766
 243  502.1152
 244  543.4358
 245  500.3199
 246  595.1863
 247  592.4708
 248  493.5546
 249  511.6775
 250  507.1284
 251  511.4206
 252  484.3101
 253  454.6438
 254  428.4917
 255  530.2874
 256  634.7427
 257  655.8994
 258  587.639
 259  557.4631
 260  546.5983
 261  630.578
 262  659.5201
 263  585.3894
 264  566.3423
 265  525.0264
 266  564.0534
 267  619.3618
 268  587.6168
 269  480.7888
 270  563.1072
 271  559.0693
 272  579.5715
 273  589.5381
 274  541.4266
 275  512.2752
 276  521.4909
 277  458.4743
 278  566.3196
 279  583.4795
 280  556.6029
 281  490.6316
 282  410.6116
 283  379.361
 284  428.4567
 285  526.7026
 286  523.6606
 287  475.7672
 288  465.858
 289  463.3672
 290  521.6438
 291  540.6293
 292  531.8969
 293  448.7305
 294  559.732
 295  591.5446
 296  536.2549
 297  483.7323
 298  544.1495
 299  592.5025
 300  691.7509
 301  545.6231
 302  491.9337
 303  461.7637
 304  587.3394
 305  522.1525
 306  483.6874
 307  481.9264
 308  479.3734
 309  532.1099
 310  575.4401
 311  559.0049
 312  536.5305
 313  562.3669
 314  529.3021
 315  424.2354
 316  447.9329
 317  507.601
 318  546.0903
 319  605.8616
 320  570.8282
 321  491.5351
 322  494.4978
 323  491.7021
 324  446.5954
 325  534.145
 326  631.3036
 327  646.6595
 328  609.8137
 329  570.7347
 330  654.5943
 331  530.2363
 332  485.6252
 333  576.2919
 334  621.2452
 335  543.6458
 336  426.5422
 337  515.2494
 338  512.9205
 339  595.7717
 340  516.3159
 341  598.5488
 342  698.0381
 343  781.64
 344  729.5814
 345  599.9601
 346  561.1152
 347  549.4979
 348  602.3312
 349  479.5155
 350  450.6866
 351  577.222
 352  603.3586
 353  529.2151
 354  499.9092
 355  593.9648
 356  644.7712
 357  672.2339
 358  537.9213
 359  579.6147
 360  596.9643
 361  646.6144
 362  626.2452
 363  634.4793
 364  650.5239
 365  709.1184
 366  762.0765
 367  638.9077
 368  547.5516
 369  614.1506
 370  607.5696
 371  613.8074
 372  638.0625
 373  583.926
 374  553.0976
 375  634.246
 376  658.4052
 377  618.1382
 378  619.5793
 379  573.035
 380  563.162
 381  693.0451
 382  654.686
 383  583.7834
 384  569.071
 385  628.8304
 386  607.9156
 387  580.3066
 388  546.9502
 389  492.0902
 390  504.5191
 391  645.6929
 392  641.1932
 393  563.8931
 394  481.7177
 395  496.7396
 396  634.6132
 397  606.0319
 398  482.5495
 399  606.1097
 400  612.564
 401  567.2922
 402  485.0699
 403  487.3373
 404  609.5849
 405  589.7747
 406  617.5346
 407  517.0848
 408  470.1347
 409  623.6498
 410  580.7867
 411  567.0724
 412  481.3293
 413  524.6547
 414  568.8212
 415  561.363
 416  597.9143
 417  575.2187
 418  588.5546
 419  594.2179
 420  640.9285
 421  571.0601
 422  522.0325
 423  582.9268
 424  663.0165
 425  668.1939
 426  662.075
 427  610.3835
 428  605.3381
 429  593.9824
 430  518.9477
 431  483.3577
 432  420.817
 433  376.71
 434  603.1804
 435  574.9956
 436  557.3395
 437  526.4728
 438  613.5674
 439  623.668
 440  673.9146
 441  583.282
 442  545.3062
 443  601.6877
 444  543.5989
 445  622.1613
 446  657.1085
 447  560.7136
 448  596.1123
 449  645.8448
 450  611.912
 451  608.3141
 452  555.2123
 453  613.7772
 454  535.2593
 455  523.5655
 456  561.2791
 457  622.6463
 458  584.5186
 459  481.7135
 460  399.5204
 461  464.3097
 462  540.9943
 463  519.6596
 464  547.6848
 465  533.0187
 466  527.6967
 467  570.7915
 468  543.5992
 469  527.1107
 470  516.1082
 471  571.6151
 472  580.3994
 473  511.4797
 474  460.4124
 475  549.0328
 476  580.1099
 477  571.2891
 478  440.9367
 479  448.8102
 480  502.7397
 481  550.8171
 482  619.9977
 483  512.2183
 484  577.3846
 485  700.2079
 486  675.1732
 487  588.2601
 488  466.6883
 489  575.7068
 490  659.4679
 491  716.2914
 492  712.2058
 493  647.6097
 494  602.7072
 495  631.7433
 496  598.427
 497  546.293
 498  501.7921
 499  559.7159
 500  528.01
 501  674.4386
 502  612.1992
 503  564.9128
 504  653.0367
 505  748.3775
 506  701.4982
 507  700.9415
 508  807.6145
 509  935.9994
 510  1074.302
 511  1019.975
