# Input file       =  1182334205.111209_cleaned.dat
# Candidate        =  PSR_0332+5434
# Telescope        =  AR
# Epoch_topo       =  57928.423890176033
# Epoch_bary       =  N/A
# T_sample         =  0.002
# Data Folded      =  7340032
# Data Avg         =  0.079476538574714
# Data StdDev      =  3.18251219860452 
# Profile Bins     =  512
# Profile Avg      =  1139.44420382427 
# Profile StdDev   =  381.051848845017 
# Reduced chi-sqr  =  1.250
# Prob(Noise)      <  9.58e-05   (~3.7 sigma)
# P_topo (ms)      =  714.495103417101  +/- 0.000231
# P'_topo (s/s)    =  -0                +/- 1.22e-10
# P''_topo (s/s^2) =  0                 +/- 5.39e-14
# P_bary (ms)      =  N/A
# P'_bary (s/s)    =  N/A
# P''_bary (s/s^2) =  N/A
# P_orb (s)        =  N/A
# asin(i)/c (s)    =  N/A
# eccentricity     =  N/A
# w (rad)          =  N/A
# T_peri           =  N/A
######################################################
   0  1193.842
   1  1080.834
   2  1122.894
   3  1429.053
   4  1108.05
   5  1394.899
   6  1546.346
   7  1251.42
   8  1066.353
   9  1144.593
  10  1411.089
  11  1291.771
  12  1334.075
  13  1055.933
  14  1230.851
  15  1049.177
  16  1063.842
  17  1354.38
  18  1191.631
  19  1169.068
  20  1509.551
  21  1407.591
  22  1266.447
  23  739.675
  24  746.9766
  25  856.4132
  26  931.4041
  27  1218.766
  28  1103.636
  29  1134.221
  30  619.9263
  31  755.1993
  32  990.3986
  33  672.2372
  34  723.533
  35  1087.491
  36  1002.37
  37  1029.671
  38  376.8129
  39  596.8686
  40  954.2553
  41  1112.034
  42  771.9002
  43  855.022
  44  943.283
  45  839.5489
  46  1167.143
  47  1222.154
  48  1032.833
  49  942.496
  50  1238.874
  51  950.1092
  52  1004.408
  53  901.858
  54  757.1431
  55  872.829
  56  818.0851
  57  499.0145
  58  752.6238
  59  1058.382
  60  1289.733
  61  1075.277
  62  921.0978
  63  1115.586
  64  1085.387
  65  1176.839
  66  994.6091
  67  907.684
  68  689.148
  69  526.526
  70  768.8486
  71  654.6467
  72  932.6777
  73  1102.513
  74  1024.181
  75  685.265
  76  893.9863
  77  1021.348
  78  1048.509
  79  977.0161
  80  679.7548
  81  907.4371
  82  896.4892
  83  804.2978
  84  902.2762
  85  916.6948
  86  1141.88
  87  1005.694
  88  686.2252
  89  798.3104
  90  619.012
  91  673.2975
  92  943.3703
  93  797.2697
  94  719.4322
  95  1142.993
  96  782.6597
  97  736.16
  98  795.3083
  99  973.0916
 100  886.702
 101  848.6226
 102  811.575
 103  758.4807
 104  1317.407
 105  1121.319
 106  669.9853
 107  507.7498
 108  943.4916
 109  896.5144
 110  857.7047
 111  958.1882
 112  1271.584
 113  1189.596
 114  1155.521
 115  1072.635
 116  1094.827
 117  1168.302
 118  1261.492
 119  1272.132
 120  1075.394
 121  1416.431
 122  1636.787
 123  1369.424
 124  1488.096
 125  1268.043
 126  1090.815
 127  863.2527
 128  661.6537
 129  464.8713
 130  784.4733
 131  1123.656
 132  1087.53
 133  1196.696
 134  1079.904
 135  963.9109
 136  1180.17
 137  1052.539
 138  983.1252
 139  1077.113
 140  1377.617
 141  1397.912
 142  1082.397
 143  1048.088
 144  1121.076
 145  920.3235
 146  1268.73
 147  1359.812
 148  1241.68
 149  1095.591
 150  620.8122
 151  1093.875
 152  1240.413
 153  785.5784
 154  880.3497
 155  1154.697
 156  1262.585
 157  1061.194
 158  1104.863
 159  1034.968
 160  916.5952
 161  1205.772
 162  1182.832
 163  1337.967
 164  1299.407
 165  932.6252
 166  1035.627
 167  1054.122
 168  1326.427
 169  1114.277
 170  1051.78
 171  1203.651
 172  1039.036
 173  1102.313
 174  1224.783
 175  1119.956
 176  1511.756
 177  1537.497
 178  1257.489
 179  1275.734
 180  1214.484
 181  1056.933
 182  899.387
 183  1007.74
 184  874.5464
 185  752.3642
 186  797.9105
 187  916.4067
 188  762.0151
 189  807.0723
 190  950.8558
 191  931.3099
 192  1015.742
 193  790.3866
 194  859.76
 195  1189.683
 196  1243.362
 197  966.9932
 198  1062.932
 199  992.3388
 200  1142.974
 201  1352.139
 202  1450.032
 203  1292.379
 204  1175.364
 205  971.1844
 206  837.594
 207  919.6942
 208  1166.686
 209  1245.695
 210  1343.715
 211  1064.352
 212  887.3447
 213  1191.431
 214  1167.211
 215  1211.472
 216  1192.688
 217  1069.026
 218  1420.836
 219  1445.873
 220  1429.49
 221  1192.984
 222  1132.198
 223  1513.709
 224  1436.701
 225  1001.701
 226  1086.052
 227  1541.154
 228  1744.061
 229  1679.389
 230  1460.823
 231  1225.183
 232  1106.812
 233  930.06
 234  1501.269
 235  1615.69
 236  1700.522
 237  1216.732
 238  1031.484
 239  1489.295
 240  1318.555
 241  1426.513
 242  1515.119
 243  1615.008
 244  1347.975
 245  1321.635
 246  1162.574
 247  1209.173
 248  1545.853
 249  1775.771
 250  1531.812
 251  1171.014
 252  1393.582
 253  1792.475
 254  2292.429
 255  2498.902
 256  2907.957
 257  2954.072
 258  2884.198
 259  2420.403
 260  1783.016
 261  1362.818
 262  1380.858
 263  1290.365
 264  1343.379
 265  1424.319
 266  1180.987
 267  1137.912
 268  1626.756
 269  1651.115
 270  1496.356
 271  1387.22
 272  1211.556
 273  1438.736
 274  1487.717
 275  1571.118
 276  1089.011
 277  1055.127
 278  1078.59
 279  938.01
 280  1132.265
 281  1518.346
 282  1420.617
 283  1554.478
 284  1639.353
 285  1274.76
 286  1313.104
 287  1320.621
 288  1159.983
 289  1055.447
 290  1217.067
 291  1456.665
 292  1433.666
 293  1377.634
 294  1300.728
 295  1123.566
 296  979.9992
 297  1070.719
 298  933.0884
 299  882.2825
 300  1032.754
 301  1276.243
 302  840.0061
 303  682.5853
 304  992.2752
 305  1361.756
 306  1111.291
 307  960.7387
 308  1102.092
 309  1659.112
 310  1513.885
 311  1645.75
 312  1654.467
 313  1202.804
 314  1128.117
 315  1391.906
 316  1366.098
 317  1297.918
 318  1392.76
 319  1094.231
 320  1189.996
 321  1247.231
 322  1632.569
 323  1476.478
 324  1297.272
 325  1271.417
 326  1093.965
 327  1336.524
 328  1321.975
 329  1377.114
 330  1299.756
 331  1027.636
 332  956.2823
 333  1181.984
 334  1178.101
 335  1291.008
 336  1220.489
 337  1149.02
 338  1052.566
 339  1040.457
 340  1291.672
 341  994.0416
 342  1499.821
 343  1624.966
 344  1086.033
 345  1029.354
 346  916.0316
 347  897.9568
 348  941.8967
 349  1084.295
 350  1190.32
 351  1336.742
 352  1199.665
 353  877.0076
 354  1020.922
 355  939.7626
 356  636.8613
 357  1142.491
 358  1273.485
 359  963.2575
 360  947.5891
 361  1102.492
 362  1331.009
 363  1553.767
 364  1285.51
 365  724.9971
 366  690.6387
 367  1186.886
 368  1407.478
 369  1250.597
 370  1423.624
 371  1191.925
 372  794.5844
 373  993.4426
 374  1297.876
 375  1092.824
 376  1050.199
 377  1284.089
 378  1454.395
 379  1050.937
 380  944.4205
 381  1092.569
 382  1223.213
 383  1052.407
 384  742.4854
 385  820.5981
 386  1339.098
 387  1393.279
 388  1300.574
 389  941.4499
 390  958.2454
 391  1074.4
 392  789.5036
 393  678.6821
 394  1251.34
 395  1447.039
 396  1335.611
 397  1335.028
 398  1104.304
 399  1267.937
 400  1206.348
 401  1232.344
 402  1125.445
 403  1116.853
 404  1124.508
 405  924.1663
 406  841.5939
 407  669.5671
 408  707.4739
 409  882.3568
 410  888.6373
 411  1371.186
 412  1250.022
 413  1202.582
 414  1064.553
 415  852.119
 416  895.4916
 417  988.5703
 418  1070.79
 419  992.9932
 420  1078.641
 421  1027.906
 422  1002.012
 423  785.519
 424  811.0053
 425  751.3006
 426  738.6459
 427  661.888
 428  909.7896
 429  943.0226
 430  964.592
 431  737.6481
 432  779.2736
 433  478.6579
 434  770.5519
 435  925.8032
 436  949.3298
 437  1125.928
 438  778.2313
 439  683.6293
 440  625.793
 441  931.2123
 442  846.8214
 443  509.0582
 444  746.4039
 445  1127.305
 446  1372.742
 447  1263.762
 448  1324.933
 449  1182.688
 450  1032.188
 451  1200.617
 452  1419.413
 453  1135.952
 454  626.1321
 455  799.594
 456  1170.595
 457  1407.236
 458  1346.49
 459  1220.144
 460  806.9988
 461  878.3468
 462  1132.374
 463  1279.972
 464  1377.808
 465  1591.936
 466  1652.363
 467  1142.36
 468  926.0526
 469  1134.184
 470  1479.379
 471  1040.808
 472  1418.876
 473  1382.887
 474  1432.395
 475  1313.182
 476  1024.234
 477  956.7726
 478  1081.787
 479  1110.966
 480  634.6169
 481  631.9895
 482  798.9774
 483  1364.353
 484  1130.194
 485  1327.859
 486  1072.999
 487  1280.904
 488  1605.869
 489  1423.685
 490  1279.471
 491  1408.662
 492  1408.134
 493  1544.225
 494  1599.522
 495  1646.915
 496  1405.087
 497  1371.716
 498  1759.682
 499  1429.023
 500  1173.146
 501  1232.993
 502  1306.55
 503  1277.748
 504  1329.343
 505  1099.213
 506  930.5316
 507  993.5657
 508  1243.611
 509  1355.494
 510  1252.228
 511  1375.791
