# Input file       =  1183884525.141243_cleaned.dat
# Candidate        =  PSR_0332+5434
# Telescope        =  AR
# Epoch_topo       =  57946.367409042163
# Epoch_bary       =  N/A
# T_sample         =  0.002
# Data Folded      =  7340032
# Data Avg         =  0.0736064799161147
# Data StdDev      =  3.29192998199884 
# Profile Bins     =  512
# Profile Avg      =  1055.21020890636 
# Profile StdDev   =  394.152772284434 
# Reduced chi-sqr  =  1.034
# Prob(Noise)      <  0.291   (~0.6 sigma)
# P_topo (ms)      =  714.481043112635  +/- 0.000571
# P'_topo (s/s)    =  -0                +/- 3.02e-10
# P''_topo (s/s^2) =  0                 +/- 1.33e-13
# P_bary (ms)      =  N/A
# P'_bary (s/s)    =  N/A
# P''_bary (s/s^2) =  N/A
# P_orb (s)        =  N/A
# asin(i)/c (s)    =  N/A
# eccentricity     =  N/A
# w (rad)          =  N/A
# T_peri           =  N/A
######################################################
   0  1347.837
   1  943.3066
   2  1067.376
   3  1087.759
   4  1370.893
   5  1345.231
   6  1447.694
   7  1257.55
   8  1057.175
   9  850.219
  10  1086.014
  11  983.9608
  12  979.9469
  13  1099.995
  14  1008.981
  15  859.4061
  16  932.7356
  17  1365.657
  18  1111.454
  19  1287.809
  20  1387.548
  21  1460.597
  22  1462.453
  23  1038.961
  24  908.7397
  25  985.1573
  26  757.0071
  27  1051.197
  28  1060.027
  29  1274.572
  30  1230.192
  31  956.5211
  32  675.9144
  33  436.0576
  34  489.1155
  35  724.5865
  36  1100.488
  37  1254.285
  38  1047.027
  39  821.0851
  40  929.692
  41  963.4376
  42  1054.417
  43  1043.399
  44  1189.716
  45  1292.461
  46  1147.77
  47  726.8041
  48  999.1452
  49  1110.7
  50  1077.881
  51  1015.226
  52  1126.476
  53  1105.739
  54  1246.877
  55  1137.523
  56  1016.041
  57  927.7758
  58  667.9734
  59  880.1552
  60  865.1987
  61  957.3971
  62  929.7912
  63  805.6449
  64  1100.578
  65  987.0911
  66  453.7886
  67  757.7622
  68  995.5016
  69  1010.771
  70  889.891
  71  631.1729
  72  835.6357
  73  828.5834
  74  1047.922
  75  1037.285
  76  1023.576
  77  1180.739
  78  1273.655
  79  1219.064
  80  1152.453
  81  1436.536
  82  1132.437
  83  1166.18
  84  1275.24
  85  1505.819
  86  1470.286
  87  974.1856
  88  1111.38
  89  1007.6
  90  1043.639
  91  1308.407
  92  1209.955
  93  784.6066
  94  810.6457
  95  847.95
  96  1178.203
  97  1326.485
  98  1192.035
  99  1101.341
 100  897.3138
 101  1084.583
 102  1143.329
 103  1350.876
 104  1305.486
 105  1263.071
 106  1481.639
 107  1124.491
 108  1032.552
 109  1088.153
 110  1454.074
 111  1795.851
 112  1627.727
 113  1505.13
 114  1670.67
 115  1153.289
 116  1164.648
 117  1538.118
 118  1543.19
 119  1535.17
 120  1252.941
 121  1407.012
 122  1434.927
 123  1868.647
 124  2378.101
 125  2583.291
 126  2425.653
 127  2678.774
 128  2264.136
 129  1588.63
 130  917.1853
 131  705.2444
 132  1176.512
 133  1382.81
 134  1188.666
 135  1059.793
 136  692.9941
 137  1325.182
 138  1342.642
 139  958.5028
 140  1053.358
 141  1048.302
 142  1103.818
 143  865.2437
 144  923.683
 145  1247.47
 146  908.1855
 147  773.0616
 148  681.2587
 149  1040.986
 150  978.7159
 151  973.8022
 152  936.034
 153  965.6848
 154  954.8292
 155  606.5053
 156  780.8373
 157  899.5018
 158  1134.503
 159  1104.717
 160  504.4242
 161  405.3602
 162  543.7931
 163  985.195
 164  1117.015
 165  1362.583
 166  1002.568
 167  539.2971
 168  796.6783
 169  991.0042
 170  768.0691
 171  796.4755
 172  703.2792
 173  826.8823
 174  857.6921
 175  797.6187
 176  726.5839
 177  793.0457
 178  875.6149
 179  879.5325
 180  857.6879
 181  910.3242
 182  1105.212
 183  1055.202
 184  451.4664
 185  667.7078
 186  1059.368
 187  1078.802
 188  679.6752
 189  536.0698
 190  818.125
 191  1001.999
 192  1210.87
 193  1134.707
 194  984.4384
 195  958.8342
 196  1183.049
 197  1084.844
 198  1103.884
 199  1031.835
 200  1456.645
 201  1092.241
 202  854.575
 203  1173.17
 204  1222.903
 205  1066.543
 206  1002.04
 207  1051.282
 208  1251.075
 209  1312.157
 210  1167.823
 211  1035.246
 212  745.9113
 213  603.6934
 214  494.1472
 215  735.0889
 216  893.0007
 217  472.6236
 218  234.6252
 219  667.3192
 220  984.7997
 221  753.7153
 222  679.992
 223  733.0472
 224  950.1116
 225  1001.634
 226  1205.233
 227  1240.744
 228  1119.394
 229  973.0735
 230  708.7399
 231  1039.131
 232  1223.323
 233  1139.61
 234  849.2313
 235  1089.704
 236  1221.365
 237  1031.37
 238  1095.612
 239  1345.72
 240  1643.945
 241  950.0739
 242  920.1118
 243  1003.147
 244  1441.91
 245  1332.652
 246  850.1718
 247  787.9509
 248  1050.465
 249  1350.329
 250  1208.223
 251  903.2153
 252  916.6171
 253  1011.281
 254  1020.733
 255  1022.237
 256  1424.816
 257  1346.021
 258  1313.096
 259  1177.837
 260  1138.226
 261  985.5007
 262  686.0361
 263  780.3218
 264  1220.104
 265  958.8586
 266  949.0763
 267  1212.312
 268  1024.29
 269  724.3946
 270  849.6874
 271  443.5345
 272  803.22
 273  1052.484
 274  860.7587
 275  993.5925
 276  1209.49
 277  907.7252
 278  1110.359
 279  1278.744
 280  1154.946
 281  783.1577
 282  547.1193
 283  583.3886
 284  938.4075
 285  1302.669
 286  1301.556
 287  1234.393
 288  930.7025
 289  1081.173
 290  1084.62
 291  966.6176
 292  928.9147
 293  1044.329
 294  1278.117
 295  1284.709
 296  1204.322
 297  1172.375
 298  1454.295
 299  1374.547
 300  1064.909
 301  1240.91
 302  1338.812
 303  1184.542
 304  842.1205
 305  992.0255
 306  1234.44
 307  952.6391
 308  951.0408
 309  894.8163
 310  953.2162
 311  1008.013
 312  750.6012
 313  1098.459
 314  1064.726
 315  926.6176
 316  863.0257
 317  551.606
 318  635.3161
 319  1005.366
 320  1013.217
 321  707.639
 322  1083.732
 323  983.4907
 324  813.4299
 325  660.8983
 326  488.442
 327  489.7271
 328  793.3866
 329  821.0317
 330  747.4995
 331  1136.836
 332  700.939
 333  326.3223
 334  620.0703
 335  676.0505
 336  593.0463
 337  650.274
 338  628.7304
 339  750.2564
 340  860.5019
 341  994.6691
 342  1307.505
 343  1132.963
 344  987.3619
 345  1057.457
 346  1015.402
 347  928.2805
 348  1129.083
 349  1193.337
 350  1273.76
 351  1018.351
 352  961.3461
 353  900.3684
 354  906.1006
 355  1124.63
 356  976.1262
 357  882.5558
 358  671.7562
 359  335.5963
 360  773.5582
 361  1408.139
 362  1075.24
 363  899.7098
 364  1151.879
 365  1336.384
 366  1267.054
 367  1155.601
 368  924.8493
 369  866.2862
 370  801.4355
 371  801.1422
 372  757.634
 373  413.4153
 374  665.2773
 375  922.5447
 376  619.493
 377  781.1546
 378  1110.257
 379  916.4383
 380  697.4364
 381  868.59
 382  1360.143
 383  1356.938
 384  1679.749
 385  1599.211
 386  1092.609
 387  1001.698
 388  1122.636
 389  1074.62
 390  1039.746
 391  1151.829
 392  1075.285
 393  1068.384
 394  845.0771
 395  838.6442
 396  868.1005
 397  1312.266
 398  1152.103
 399  784.919
 400  896.4473
 401  1131.585
 402  1195.008
 403  1110.87
 404  1394.734
 405  1155.192
 406  1214.107
 407  1217.373
 408  1187.087
 409  1255.096
 410  1568.425
 411  1283.085
 412  964.3879
 413  1365.226
 414  1463.514
 415  1484.947
 416  1467.586
 417  1406.847
 418  958.8374
 419  920.5087
 420  1039.174
 421  1148.533
 422  1192.467
 423  1167.424
 424  787.4758
 425  1210.309
 426  1100.623
 427  1035.825
 428  1005.578
 429  976.3096
 430  1230.082
 431  1183.109
 432  1081.715
 433  1106.005
 434  1314.904
 435  1474.184
 436  1360.399
 437  1059.706
 438  1149.202
 439  1035.417
 440  1214.362
 441  1121.201
 442  1022.502
 443  1319.33
 444  1333.493
 445  1159.279
 446  1422.234
 447  1467.318
 448  1537.704
 449  1364.99
 450  1309.11
 451  1074.581
 452  720.445
 453  1263.013
 454  1359.544
 455  1315.971
 456  1639.861
 457  1535.241
 458  1273.694
 459  1346.99
 460  1146.881
 461  995.8829
 462  638.7288
 463  699.1318
 464  977.364
 465  1196.031
 466  1267.537
 467  1026.533
 468  1175.726
 469  1255.788
 470  1223.878
 471  1017.05
 472  1198.043
 473  1132.943
 474  1145.916
 475  1263.88
 476  1134.856
 477  815.0636
 478  1109.3
 479  806.3669
 480  878.5259
 481  799.808
 482  1195.719
 483  1018.713
 484  1036.751
 485  978.5834
 486  702.1857
 487  1064.61
 488  936.7626
 489  845.312
 490  712.7349
 491  476.4928
 492  955.2638
 493  887.2012
 494  722.6096
 495  789.9158
 496  1118.064
 497  851.7784
 498  1089.119
 499  1339.615
 500  1289.164
 501  1377.673
 502  1098.827
 503  1045.328
 504  1003.583
 505  1329.063
 506  1043.767
 507  763.9097
 508  899.5182
 509  1295.382
 510  1467.036
 511  1266.646
