# Input file       =  1183281104.121031_cleaned.dat
# Candidate        =  PSR_0332+5434
# Telescope        =  AR
# Epoch_topo       =  57939.383369456380
# Epoch_bary       =  N/A
# T_sample         =  0.002
# Data Folded      =  7340032
# Data Avg         =  1.02852214049822 
# Data StdDev      =  14.4077046120279 
# Profile Bins     =  512
# Profile Avg      =  14744.9958807981 
# Profile StdDev   =  1725.07822041764 
# Reduced chi-sqr  =  0.339
# Prob(Noise)      <  1   (~0.0 sigma)
# P_topo (ms)      =  714.486119084322  +/- 0.000768
# P'_topo (s/s)    =  -0                +/- 4.05e-10
# P''_topo (s/s^2) =  0                 +/- 1.79e-13
# P_bary (ms)      =  N/A
# P'_bary (s/s)    =  N/A
# P''_bary (s/s^2) =  N/A
# P_orb (s)        =  N/A
# asin(i)/c (s)    =  N/A
# eccentricity     =  N/A
# w (rad)          =  N/A
# T_peri           =  N/A
######################################################
   0  14774.54
   1  14813.17
   2  14692.5
   3  14637.45
   4  13925.38
   5  13913.24
   6  14431
   7  14791.7
   8  14527.18
   9  14453.24
  10  14115.83
  11  14343.09
  12  14590.74
  13  14255.8
  14  14127.57
  15  14706.06
  16  14761.17
  17  14894.3
  18  14407.98
  19  13533.99
  20  13031.52
  21  12920.33
  22  12635.81
  23  12709.01
  24  13808.86
  25  14188.39
  26  13516.74
  27  13010.25
  28  12907.05
  29  13482.3
  30  14064.11
  31  14098.51
  32  14210.11
  33  14668.28
  34  14405.54
  35  14127.92
  36  13856.85
  37  14060.91
  38  14294.39
  39  14007.06
  40  13895.58
  41  14007.92
  42  13638.45
  43  13738.28
  44  14397.39
  45  14226.97
  46  14536.48
  47  14818.24
  48  14630.62
  49  14513.56
  50  14749.48
  51  15097.32
  52  15030.99
  53  14351.21
  54  14364.77
  55  14816.11
  56  15184.98
  57  15839.12
  58  15944.47
  59  15659.11
  60  15815.12
  61  15655.66
  62  15597.51
  63  15570.59
  64  15526.66
  65  15177.57
  66  15318.06
  67  15234.81
  68  15363.44
  69  15875.19
  70  15491.36
  71  15266.23
  72  15418.02
  73  15886.31
  74  15981.61
  75  15180.25
  76  15112.71
  77  15361.35
  78  15512.96
  79  16273.73
  80  15772.51
  81  15306.63
  82  15713.97
  83  16040.22
  84  16299.52
  85  16177.04
  86  15937.09
  87  14998.62
  88  14473.44
  89  14470.25
  90  14466.98
  91  14478.77
  92  14341.84
  93  14297.66
  94  14608.54
  95  14107.77
  96  13852.2
  97  13900.5
  98  14264.5
  99  14833.93
 100  14558.29
 101  14890.58
 102  14506.39
 103  14065.63
 104  13753.47
 105  14219.64
 106  15493.72
 107  15726.15
 108  15506.66
 109  15538.12
 110  15514.55
 111  15794.5
 112  15693.88
 113  15303.58
 114  15350.19
 115  15548.86
 116  15552.88
 117  15076.49
 118  15329.73
 119  14973.59
 120  15639.36
 121  15320.54
 122  15188.64
 123  15281.85
 124  15306.76
 125  15247.29
 126  14851.07
 127  15017.7
 128  15295.09
 129  15718.51
 130  15138.97
 131  14960.99
 132  15117.07
 133  15425.92
 134  15377.54
 135  15453.79
 136  15454.58
 137  15024.41
 138  14246.59
 139  14671.14
 140  15510.07
 141  15912.4
 142  15981.74
 143  15638.38
 144  15396.45
 145  15404.14
 146  15546.5
 147  15271.17
 148  15462.09
 149  15584.98
 150  15230.03
 151  14649.08
 152  14877.88
 153  14579.31
 154  14650.24
 155  14626.75
 156  14295.1
 157  14448.3
 158  14248.82
 159  14004.03
 160  13912.52
 161  13761.08
 162  13857.82
 163  13690.99
 164  14021.38
 165  14122.34
 166  14103.9
 167  14273.38
 168  14359.09
 169  13959.21
 170  13304.33
 171  13367.84
 172  13137.67
 173  14670.3
 174  15283.62
 175  14547.01
 176  13816.57
 177  13281.25
 178  13154.13
 179  13224.78
 180  13828.82
 181  14525.62
 182  15028.34
 183  15111.12
 184  15055.04
 185  14690.06
 186  14365.92
 187  14653.64
 188  14812.8
 189  14490.2
 190  14207.59
 191  14390.64
 192  14335.81
 193  14247.14
 194  14243.22
 195  14660.44
 196  14700.4
 197  14831.09
 198  15241.48
 199  15297.81
 200  15440.14
 201  15729.94
 202  16263.04
 203  15607.05
 204  15381.37
 205  15016.92
 206  15824.24
 207  16006.47
 208  15880.53
 209  15513.63
 210  14738.51
 211  14144.06
 212  14502.66
 213  14783.94
 214  14303.56
 215  14062.62
 216  14629.31
 217  14914.75
 218  14811.8
 219  14902.97
 220  14653.33
 221  14372.28
 222  14864.97
 223  14943.01
 224  14716.67
 225  14476.46
 226  14595.28
 227  14709.91
 228  13856.92
 229  13856.04
 230  14710
 231  14974.14
 232  14658.33
 233  14609.13
 234  14580.82
 235  14849.21
 236  15231.04
 237  14986.35
 238  14947.89
 239  14686.1
 240  14800.69
 241  15607.04
 242  15717.72
 243  15436.96
 244  15543.05
 245  15560.89
 246  15685.59
 247  15277.6
 248  15054.94
 249  14628.72
 250  14792.62
 251  15284.95
 252  15041.53
 253  15172.18
 254  14822.65
 255  14395.23
 256  14275.78
 257  14215.71
 258  14469.27
 259  14550.22
 260  14812.56
 261  14964.25
 262  14529.01
 263  14249.42
 264  14418.88
 265  14885.97
 266  14925.63
 267  15154.44
 268  15555.48
 269  15581.19
 270  16191.69
 271  15934.54
 272  15511.22
 273  15211.07
 274  15314.28
 275  15460.42
 276  15469.79
 277  15186.39
 278  15234.71
 279  15049.47
 280  15598.29
 281  15217.84
 282  14774.33
 283  14440.65
 284  14895.96
 285  15043.36
 286  15222.55
 287  15045.63
 288  15044.91
 289  14809.68
 290  14384.55
 291  14238.9
 292  13898.21
 293  13562.84
 294  13943.1
 295  13562.65
 296  12877.55
 297  12801.43
 298  13579.43
 299  13801.85
 300  13917.36
 301  13830.91
 302  13676.65
 303  13854.08
 304  13246.42
 305  13574.74
 306  13772.76
 307  14160.81
 308  14385.56
 309  14804.02
 310  15035.94
 311  14939.72
 312  14912.25
 313  15078.76
 314  15060.58
 315  15237.41
 316  15450.77
 317  15782.3
 318  15237.72
 319  15654.78
 320  15783.37
 321  15823.35
 322  15636.29
 323  16188.91
 324  16068.52
 325  15909.51
 326  15550.76
 327  15291.63
 328  15144.38
 329  15176.21
 330  15769.83
 331  15798.55
 332  15932.31
 333  15370.52
 334  14312.42
 335  14149.22
 336  13334.75
 337  13775.86
 338  13920.34
 339  13771.85
 340  14354.8
 341  14732.11
 342  13954.21
 343  13731.02
 344  14325.54
 345  14408.75
 346  14248.78
 347  14853.59
 348  14698.46
 349  14705.44
 350  15297.03
 351  14651.37
 352  14355.34
 353  14360.67
 354  14382.86
 355  13874.89
 356  13723.08
 357  13643.9
 358  14122.42
 359  13798.3
 360  14346
 361  13968.5
 362  13822.99
 363  14724.65
 364  14878.75
 365  15211.37
 366  14678.39
 367  14667.42
 368  14839.04
 369  14575.82
 370  14901.44
 371  14911.39
 372  14528.94
 373  14079.24
 374  13951.73
 375  14090.93
 376  14384.01
 377  14420.93
 378  13829.05
 379  13808.71
 380  14269.79
 381  14257.72
 382  14305.39
 383  14765.19
 384  15185.35
 385  15598.8
 386  15060.93
 387  14463.69
 388  14303.99
 389  14607.04
 390  15408.44
 391  15256.03
 392  15267.09
 393  14895.45
 394  15133.82
 395  14933.66
 396  15168.64
 397  15026.86
 398  15132.73
 399  15011.92
 400  13901.25
 401  14144.05
 402  14729.78
 403  15164.18
 404  15423.96
 405  15115.83
 406  15215.3
 407  15890.22
 408  16570.28
 409  17074.73
 410  17316.51
 411  17139.16
 412  16121.49
 413  15948.09
 414  15608.82
 415  15049.99
 416  15413.16
 417  14660.67
 418  14584.45
 419  14053.13
 420  13703.26
 421  13821.58
 422  13739.04
 423  14394.31
 424  14441.39
 425  14204.51
 426  14430.59
 427  14371.36
 428  14201.05
 429  14528.48
 430  14270.15
 431  15025.2
 432  15082.12
 433  15355.23
 434  14984.49
 435  14439.02
 436  14694.65
 437  15203.4
 438  15407.21
 439  15091.12
 440  14681.68
 441  14989.25
 442  15545.32
 443  15654.42
 444  15345.72
 445  15324.75
 446  15362.36
 447  14903.52
 448  15096.04
 449  14500.32
 450  14382.57
 451  13805.42
 452  13767.3
 453  13864.43
 454  14123.7
 455  14091.42
 456  14466.08
 457  13557.91
 458  13321.62
 459  13328.34
 460  13989.15
 461  14489.76
 462  14567.02
 463  15043.83
 464  14512.74
 465  13866.01
 466  13860.89
 467  13755.65
 468  13707.58
 469  14080.66
 470  14160.5
 471  14166.62
 472  14418.09
 473  14983.94
 474  14983.03
 475  15113.76
 476  14720.18
 477  15453.1
 478  15532.52
 479  15984.76
 480  16105.78
 481  15823.78
 482  15599.89
 483  15810.81
 484  15548.72
 485  15595.48
 486  14943.5
 487  14505.29
 488  14319.9
 489  14173.06
 490  14565.43
 491  14422.45
 492  14039.71
 493  14256.3
 494  14758.79
 495  14688.43
 496  14636.09
 497  14933.85
 498  14640.56
 499  14151.74
 500  14372.35
 501  13978.8
 502  14370.7
 503  15036.08
 504  15106.38
 505  14602.81
 506  14042.48
 507  14132.93
 508  14471.96
 509  14692.12
 510  14184.88
 511  14121.7
