# Input file       =  1183180763.103634_cleaned.dat
# Candidate        =  PSR_0332+5434
# Telescope        =  AR
# Epoch_topo       =  57938.222015088359
# Epoch_bary       =  N/A
# T_sample         =  0.002
# Data Folded      =  7340032
# Data Avg         =  0.141105562465132
# Data StdDev      =  3.28997438776716 
# Profile Bins     =  1024
# Profile Avg      =  1011.81157256397 
# Profile StdDev   =  278.542529593724 
# Reduced chi-sqr  =  1.163
# Prob(Noise)      <  0.000211   (~3.5 sigma)
# P_topo (ms)      =  714.486691840837  +/- 0.00015
# P'_topo (s/s)    =  -0                +/- 7.91e-11
# P''_topo (s/s^2) =  0                 +/- 3.49e-14
# P_bary (ms)      =  N/A
# P'_bary (s/s)    =  N/A
# P''_bary (s/s^2) =  N/A
# P_orb (s)        =  N/A
# asin(i)/c (s)    =  N/A
# eccentricity     =  N/A
# w (rad)          =  N/A
# T_peri           =  N/A
######################################################
   0  988.5074
   1  1085.508
   2  1071.217
   3  1057.243
   4  1037.597
   5  1089.121
   6  1055.953
   7  926.8173
   8  929.0212
   9  1081.925
  10  1194.441
  11  1192.997
  12  1143.559
  13  1102.694
  14  1138.877
  15  1138.754
  16  1126.725
  17  1111.429
  18  1021.849
  19  907.1465
  20  873.2886
  21  989.0071
  22  1052.459
  23  1110.414
  24  1132.691
  25  1138.886
  26  1119.783
  27  973.2911
  28  939.7703
  29  981.6685
  30  1077.821
  31  1122.797
  32  1082.72
  33  1120.818
  34  1202.848
  35  1174.511
  36  1159.536
  37  1057.961
  38  1060.558
  39  1026.975
  40  1079.452
  41  1175.719
  42  1131.398
  43  1025.799
  44  940.0743
  45  934.515
  46  940.9323
  47  976.0687
  48  990.7626
  49  1028.537
  50  1003.957
  51  1080.602
  52  1064.69
  53  1110.769
  54  1037.848
  55  940.5844
  56  887.8624
  57  812.1793
  58  959.877
  59  986.7449
  60  1100.294
  61  1111.127
  62  1062.1
  63  1057.105
  64  994.1503
  65  1049.353
  66  929.8482
  67  929.4582
  68  980.0676
  69  1156.456
  70  1201.934
  71  1180.99
  72  1036.939
  73  998.5731
  74  891.3224
  75  865.3472
  76  851.841
  77  992.0287
  78  1137.387
  79  1079.156
  80  985.7409
  81  809.7875
  82  857.2501
  83  896.7831
  84  941.7072
  85  977.6603
  86  888.6964
  87  938.2774
  88  930.4424
  89  1006.887
  90  981.6786
  91  1008.248
  92  985.3121
  93  982.7198
  94  941.2407
  95  974.7961
  96  922.7891
  97  857.3506
  98  811.2423
  99  758.1124
 100  747.6226
 101  738.3726
 102  847.4815
 103  902.416
 104  934.595
 105  967.7034
 106  1018.842
 107  1097.113
 108  1004.086
 109  954.6184
 110  813.8918
 111  827.0109
 112  792.0729
 113  791.9719
 114  783.3372
 115  831.4449
 116  857.0401
 117  886.6592
 118  898.0823
 119  890.6967
 120  888.1492
 121  848.7032
 122  907.481
 123  933.3091
 124  921.4152
 125  889.1364
 126  900.3776
 127  984.4115
 128  993.9169
 129  992.289
 130  921.7051
 131  924.0652
 132  791.5665
 133  754.0172
 134  777.3937
 135  922.4302
 136  953.4181
 137  944.5733
 138  948.9119
 139  852.8838
 140  854.0521
 141  860.2079
 142  936.0821
 143  1050.17
 144  1082.635
 145  1097.88
 146  1035.709
 147  954.8879
 148  891.773
 149  927.2283
 150  961.4146
 151  926.5811
 152  941.0245
 153  1007.027
 154  1086.912
 155  1051.407
 156  1061.236
 157  1011.165
 158  1027.827
 159  1042.871
 160  1062.693
 161  1053.435
 162  1027.424
 163  1013.887
 164  1110.563
 165  1245.248
 166  1237.3
 167  1149.623
 168  1026.702
 169  1003.497
 170  1037.747
 171  1095.591
 172  1054.393
 173  1030.883
 174  1007.651
 175  1069.89
 176  1025.854
 177  911.8104
 178  820.3635
 179  889.9165
 180  1011.326
 181  1085.184
 182  1023.927
 183  977.1015
 184  1046.823
 185  1095.531
 186  1111.857
 187  1018.943
 188  979.8795
 189  923.408
 190  880.794
 191  813.7776
 192  880.9406
 193  967.3677
 194  1015.331
 195  1054.729
 196  986.9678
 197  1041.822
 198  1077.529
 199  1181.041
 200  1157.01
 201  1122.278
 202  1159.57
 203  1224.652
 204  1120.736
 205  993.8738
 206  921.0428
 207  880.928
 208  894.3862
 209  1025.182
 210  1099.045
 211  1131.393
 212  1058.577
 213  1046.767
 214  1078.004
 215  1125.815
 216  1087.332
 217  1071.01
 218  1013.181
 219  971.4218
 220  873.8381
 221  811.3214
 222  764.7369
 223  723.0476
 224  722.5034
 225  679.7002
 226  672.8146
 227  724.5551
 228  952.104
 229  951.1489
 230  947.7233
 231  824.7159
 232  909.7787
 233  906.2524
 234  906.9695
 235  974.5264
 236  973.91
 237  964.2535
 238  796.7297
 239  849.0299
 240  877.7375
 241  904.9982
 242  893.9333
 243  948.8273
 244  985.3053
 245  903.307
 246  953.2424
 247  966.4686
 248  1042.057
 249  1009.649
 250  1061.926
 251  980.3352
 252  836.3096
 253  767.2509
 254  842.9972
 255  922.2421
 256  946.5377
 257  935.419
 258  985.6181
 259  1001.977
 260  942.2438
 261  806.3661
 262  765.8945
 263  798.9688
 264  951.9213
 265  1059.831
 266  1057.619
 267  1026.891
 268  1115.532
 269  1137.976
 270  1228.441
 271  1113.302
 272  1099.723
 273  1081.577
 274  1205.759
 275  1284.382
 276  1204.553
 277  1138.261
 278  1127.952
 279  1132.861
 280  1085.706
 281  1065.788
 282  1107.629
 283  1172.624
 284  1160.374
 285  1092.198
 286  1143.358
 287  1186.449
 288  1220.758
 289  1118.409
 290  1072.135
 291  1062.605
 292  1139.933
 293  1066.648
 294  1005.039
 295  829.1126
 296  737.9354
 297  771.871
 298  830.4979
 299  1002.207
 300  1012.09
 301  1052.321
 302  1006.242
 303  940.0193
 304  846.169
 305  831.6641
 306  877.1413
 307  948.7913
 308  1007.93
 309  1040.688
 310  1005.814
 311  1014.617
 312  1027.112
 313  1090.629
 314  981.8873
 315  974.9818
 316  860.8137
 317  858.4006
 318  895.1984
 319  932.345
 320  935.5428
 321  880.8083
 322  802.698
 323  825.1899
 324  905.299
 325  986.9191
 326  1013.215
 327  1130.057
 328  1259.352
 329  1204.738
 330  1115.726
 331  971.7854
 332  1001.495
 333  932.7173
 334  955.5417
 335  887.1716
 336  948.4161
 337  970.6346
 338  978.5533
 339  980.9777
 340  1063.511
 341  1076.296
 342  1011.669
 343  966.5314
 344  967.2731
 345  1047.872
 346  1100.373
 347  1182.174
 348  1080.726
 349  1052.714
 350  991.5865
 351  1043.7
 352  1051.76
 353  1044.104
 354  1068.907
 355  1063.378
 356  1094.195
 357  1079.012
 358  1132.923
 359  1150.511
 360  1105.792
 361  1117.898
 362  1074.262
 363  975.0401
 364  893.4501
 365  921.5751
 366  942.7081
 367  999.9069
 368  908.051
 369  828.1953
 370  767.7899
 371  808.4545
 372  857.0721
 373  870.4172
 374  928.1308
 375  1032.392
 376  1098.352
 377  998.6531
 378  1004.536
 379  1031.151
 380  1044.781
 381  923.5914
 382  857.6698
 383  898.7984
 384  1027.075
 385  1090.072
 386  1237.567
 387  1220.089
 388  1152.16
 389  1088.259
 390  951.7238
 391  955.0476
 392  928.3792
 393  984.0829
 394  980.5818
 395  1035.528
 396  1158.536
 397  1189.541
 398  1216.951
 399  1218.035
 400  1212.046
 401  1145.056
 402  991.7589
 403  979.2191
 404  977.9967
 405  1073.805
 406  1122.891
 407  1134.251
 408  1086.891
 409  1036.355
 410  1057.727
 411  1064.044
 412  1077.959
 413  1020.2
 414  1028.925
 415  1058.973
 416  1084.053
 417  1049.046
 418  1093.525
 419  1019.766
 420  1071.239
 421  1124.149
 422  1244.97
 423  1145.997
 424  1037.406
 425  991.9604
 426  1045.689
 427  1026.307
 428  1157.103
 429  1242.307
 430  1130.261
 431  1067.221
 432  1087.125
 433  1058.421
 434  949.6714
 435  851.0558
 436  992.815
 437  1026.828
 438  1108.242
 439  1012.316
 440  1022.311
 441  1068.192
 442  1192.805
 443  1095.953
 444  1026.857
 445  993.944
 446  978.3563
 447  979.3644
 448  926.3726
 449  991.2118
 450  1021.422
 451  1068.521
 452  974.4222
 453  883.6019
 454  785.2625
 455  875.4802
 456  990.6752
 457  1145.745
 458  1123.018
 459  1126.925
 460  1062.703
 461  1057.248
 462  993.6913
 463  1021.336
 464  1098.531
 465  1056.602
 466  989.4935
 467  786.556
 468  649.6528
 469  694.9931
 470  842.7111
 471  908.0515
 472  879.6947
 473  936.7003
 474  986.0107
 475  1070.161
 476  1097.34
 477  1196.655
 478  1134.478
 479  1037.121
 480  970.0729
 481  936.1359
 482  918.8464
 483  853.4934
 484  863.6383
 485  832.6288
 486  900.4082
 487  875.8041
 488  915.0159
 489  945.0717
 490  999.6527
 491  1033.485
 492  960.8543
 493  993.8345
 494  890.3371
 495  851.7582
 496  738.037
 497  809.118
 498  862.5142
 499  938.8408
 500  963.8695
 501  950.1926
 502  905.9066
 503  870.326
 504  848.9879
 505  879.7645
 506  881.0921
 507  934.7236
 508  939.2827
 509  1058.667
 510  1044.411
 511  1011.993
 512  928.0726
 513  860.3908
 514  812.3698
 515  810.2155
 516  835.1633
 517  919.3146
 518  938.6331
 519  1142.52
 520  1146.853
 521  1101.874
 522  939.7477
 523  918.2906
 524  1025.299
 525  1028.745
 526  1032.537
 527  911.8016
 528  954.5795
 529  973.9066
 530  992.6204
 531  898.5651
 532  727.0245
 533  652.3067
 534  554.8781
 535  518.4284
 536  570.0896
 537  661.2209
 538  803.4857
 539  926.2137
 540  921.9592
 541  900.404
 542  858.8194
 543  949.5779
 544  837.11
 545  758.9193
 546  727.2118
 547  727.2422
 548  756.4753
 549  741.2676
 550  851.3465
 551  896.9457
 552  777.108
 553  719.2864
 554  653.0939
 555  780.6362
 556  843.7281
 557  883.1242
 558  861.9632
 559  860.4321
 560  824.9093
 561  783.3561
 562  620.9016
 563  564.616
 564  528.0956
 565  569.38
 566  660.9679
 567  708.3885
 568  778.1498
 569  811.7368
 570  919.306
 571  872.5266
 572  875.4467
 573  914.7968
 574  970.1091
 575  972.7275
 576  975.2874
 577  1044.718
 578  1077.018
 579  1017.68
 580  964.0489
 581  948.6683
 582  1012.237
 583  1023.391
 584  948.387
 585  925.7893
 586  978.1598
 587  1095.18
 588  1037.649
 589  913.3115
 590  824.7118
 591  785.8827
 592  843.9943
 593  876.1647
 594  984.5688
 595  1090.656
 596  1095.205
 597  1177.89
 598  1095.006
 599  999.2548
 600  808.2568
 601  845.9376
 602  878.0453
 603  946.497
 604  906.7369
 605  993.1107
 606  1110.907
 607  1201.265
 608  1247.287
 609  1208.39
 610  1245.021
 611  1218.191
 612  1216.533
 613  1160.469
 614  1114.23
 615  1012.67
 616  955.319
 617  1102.143
 618  1208.915
 619  1202.195
 620  1114.133
 621  1115.027
 622  1122.104
 623  1119.944
 624  1135.685
 625  1190.674
 626  1149.487
 627  1107.932
 628  1068.424
 629  914.7217
 630  876.8015
 631  849.9591
 632  975.64
 633  1035.697
 634  1049.57
 635  975.5438
 636  943.8047
 637  975.7221
 638  1078.881
 639  1158.038
 640  1228.612
 641  1215.516
 642  1112.018
 643  1230.519
 644  1357.594
 645  1472.92
 646  1417.446
 647  1438.699
 648  1590.154
 649  1808.191
 650  1984.408
 651  2054.823
 652  2057.996
 653  2090.963
 654  2077.262
 655  2017.414
 656  1955.288
 657  1840.099
 658  1557.139
 659  1413.905
 660  1362.76
 661  1282.106
 662  1045.858
 663  1025.771
 664  931.9784
 665  915.6958
 666  858.6066
 667  933.7905
 668  969.0908
 669  953.2279
 670  942.2792
 671  964.0328
 672  1027.797
 673  1036.207
 674  1074.687
 675  962.4494
 676  996.362
 677  909.5436
 678  1051.721
 679  1097.918
 680  1100.747
 681  1143.052
 682  1074.823
 683  1063.949
 684  1055.955
 685  1194.05
 686  1266.983
 687  1207.08
 688  1099.608
 689  1005.642
 690  954.6752
 691  893.7081
 692  881.3962
 693  979.2686
 694  1045.299
 695  1106.873
 696  1046.1
 697  997.0522
 698  917.7158
 699  890.6048
 700  1021.959
 701  1114.558
 702  1188.701
 703  1097.734
 704  1085.644
 705  1070.148
 706  1077.187
 707  999.8147
 708  994.7157
 709  1057.068
 710  1064.111
 711  1057.28
 712  957.4681
 713  872.5381
 714  895.4523
 715  972.0364
 716  931.0834
 717  899.4575
 718  940.1909
 719  892.8876
 720  874.9174
 721  954.7349
 722  1083.601
 723  983.7557
 724  767.9985
 725  751.2396
 726  819.4985
 727  934.1534
 728  822.2216
 729  866.4019
 730  969.4962
 731  1020.667
 732  936.994
 733  840.2675
 734  842.382
 735  841.0684
 736  794.7973
 737  862.6033
 738  883.704
 739  932.2175
 740  1026.664
 741  968.5518
 742  1037.886
 743  972.3875
 744  1016.702
 745  969.207
 746  984.0356
 747  970.6876
 748  1018.884
 749  993.0363
 750  956.6093
 751  920.9902
 752  973.1406
 753  1055.191
 754  1065
 755  1062.518
 756  1053.157
 757  1244.223
 758  1309.657
 759  1267.89
 760  1244.477
 761  1170.673
 762  1153.355
 763  1085.414
 764  1208.2
 765  1221.292
 766  1213.706
 767  1198.307
 768  1183.927
 769  1175.47
 770  1162.32
 771  1205.899
 772  1147.539
 773  1128.842
 774  1113.335
 775  1159.05
 776  1099.618
 777  1114.663
 778  1141.5
 779  1190.1
 780  1048.826
 781  991.2283
 782  909.2316
 783  891.705
 784  862.9755
 785  879.7365
 786  1041.323
 787  1181.412
 788  1225.531
 789  1189.699
 790  1127.026
 791  1159.9
 792  1054.539
 793  995.3587
 794  901.5139
 795  1036.991
 796  1075.031
 797  1088.343
 798  980.8362
 799  892.1585
 800  837.1855
 801  742.365
 802  726.6358
 803  643.5241
 804  726.6798
 805  880.0557
 806  976.1996
 807  930.3066
 808  901.1401
 809  866.8076
 810  906.5786
 811  892.8039
 812  961.6518
 813  973.7548
 814  924.2201
 815  972.4333
 816  867.3556
 817  765.8789
 818  694.192
 819  774.3246
 820  863.0267
 821  856.8185
 822  888.1225
 823  866.3256
 824  829.9653
 825  809.1267
 826  815.2316
 827  838.0682
 828  845.6208
 829  852.8464
 830  841.5975
 831  855.7732
 832  848.3288
 833  742.4666
 834  720.6279
 835  822.4796
 836  913.0822
 837  955.6101
 838  935.0418
 839  943.8325
 840  828.4888
 841  797.9223
 842  859.2101
 843  992.1478
 844  995.6996
 845  961.4263
 846  930.1906
 847  851.0592
 848  815.721
 849  829.8307
 850  961.2819
 851  1092.778
 852  1089.371
 853  1064.653
 854  1023.681
 855  1096.898
 856  1134.847
 857  1138
 858  1022.425
 859  1009.187
 860  883.7863
 861  878.4995
 862  852.9478
 863  1064.726
 864  1119.578
 865  1134.514
 866  1049.549
 867  1023.193
 868  973.6937
 869  892.9835
 870  883.4425
 871  964.5013
 872  1118.969
 873  1119.195
 874  1064.366
 875  1061.682
 876  1032.86
 877  1089.365
 878  1039.975
 879  1022.771
 880  987.2127
 881  1075.06
 882  1106.656
 883  1137.855
 884  1107
 885  1097.961
 886  1027.79
 887  933.9933
 888  963.045
 889  1022.256
 890  1012.5
 891  978.3906
 892  1034.337
 893  1114.276
 894  1102.553
 895  993.0848
 896  912.1083
 897  884.2462
 898  853.9631
 899  808.7264
 900  808.0235
 901  839.6963
 902  906.6123
 903  986.8286
 904  987.1774
 905  1007.363
 906  1016.743
 907  1091
 908  1144.572
 909  1213.022
 910  1210.322
 911  1141.582
 912  1028.857
 913  1052.011
 914  994.19
 915  892.9456
 916  743.9725
 917  693.1309
 918  820.7837
 919  1011.313
 920  1118.283
 921  1101.799
 922  1009.268
 923  971.1257
 924  913.9429
 925  890.7227
 926  949.1113
 927  925.6462
 928  961.6332
 929  1024.988
 930  1154.11
 931  1206.316
 932  1179.067
 933  1110.089
 934  1102.105
 935  961.7272
 936  944.1184
 937  951.058
 938  1052.079
 939  1099.378
 940  1127.497
 941  1170.123
 942  1081.642
 943  1071.36
 944  994.915
 945  1034.081
 946  1067.228
 947  1124.219
 948  1174.604
 949  1106.111
 950  1232.739
 951  1319.642
 952  1349.488
 953  1268.48
 954  1292.489
 955  1250.954
 956  1215.13
 957  1057.658
 958  1043.354
 959  1077.003
 960  1127.28
 961  1172.95
 962  1133.081
 963  1187.35
 964  1163.409
 965  1183.536
 966  1194.864
 967  1218.492
 968  1263.172
 969  1272.634
 970  1248.671
 971  1169.131
 972  1014.31
 973  955.9968
 974  1050.799
 975  1103.152
 976  1157.986
 977  1141.424
 978  1180.958
 979  1149.884
 980  1150.801
 981  1110.74
 982  1178.973
 983  1177.415
 984  1171.576
 985  1199.581
 986  1093.669
 987  1143.682
 988  1091.924
 989  1156.326
 990  1199.507
 991  1281.756
 992  1293.616
 993  1273.347
 994  1283.823
 995  1368.241
 996  1358.637
 997  1362.702
 998  1312.806
 999  1248.591
1000  1110.83
1001  1044.822
1002  992.6187
1003  1085.846
1004  1188.851
1005  1296.277
1006  1262.226
1007  1206.112
1008  1140.605
1009  1043.613
1010  936.4484
1011  986.2589
1012  960.9047
1013  951.3092
1014  981.3646
1015  1085.568
1016  1108.826
1017  1029.925
1018  1044.381
1019  1007.655
1020  958.9427
1021  873.0582
1022  886.1694
1023  935.2183
