# Input file       =  1183697231.101892_cleaned.dat
# Candidate        =  PSR_0332+5434
# Telescope        =  AR
# Epoch_topo       =  57944.199653957083
# Epoch_bary       =  N/A
# T_sample         =  0.002
# Data Folded      =  7340032
# Data Avg         =  0.0486727294292567
# Data StdDev      =  1.00012226632278 
# Profile Bins     =  512
# Profile Avg      =  697.230440126503 
# Profile StdDev   =  119.747675694839 
# Reduced chi-sqr  =  1.336
# Prob(Noise)      <  5.06e-07   (~4.9 sigma)
# P_topo (ms)      =  714.482232733279  +/- 0.000606
# P'_topo (s/s)    =  -0                +/- 3.2e-10
# P''_topo (s/s^2) =  0                 +/- 1.41e-13
# P_bary (ms)      =  N/A
# P'_bary (s/s)    =  N/A
# P''_bary (s/s^2) =  N/A
# P_orb (s)        =  N/A
# asin(i)/c (s)    =  N/A
# eccentricity     =  N/A
# w (rad)          =  N/A
# T_peri           =  N/A
######################################################
   0  655.0049
   1  714.4969
   2  634.9861
   3  568.5851
   4  572.7327
   5  672.4601
   6  686.4251
   7  686.3815
   8  747.282
   9  620.6613
  10  595.0423
  11  746.1603
  12  736.627
  13  605.9812
  14  619.3821
  15  655.8488
  16  680.0009
  17  710.6058
  18  648.7465
  19  642.2503
  20  677.2039
  21  711.2815
  22  693.7286
  23  602.5042
  24  591.6871
  25  702.4261
  26  576.8307
  27  735.8963
  28  764.0068
  29  687.2943
  30  601.0181
  31  686.8061
  32  671.9442
  33  682.0475
  34  681.4412
  35  691.8351
  36  705.1345
  37  748.5646
  38  798.5844
  39  764.7333
  40  718.8737
  41  718.0364
  42  783.3953
  43  799.3206
  44  810.3318
  45  870.1025
  46  857.2189
  47  759.2849
  48  688.6686
  49  723.1484
  50  658.8103
  51  688.176
  52  719.1998
  53  759.1626
  54  710.6581
  55  705.692
  56  822.75
  57  807.2417
  58  789.8422
  59  741.5448
  60  744.5645
  61  776.0111
  62  728.5689
  63  601.133
  64  602.7401
  65  603.5773
  66  606.8655
  67  612.2054
  68  710.955
  69  602.4277
  70  621.1819
  71  635.2849
  72  630.5933
  73  745.2174
  74  686.626
  75  635.4246
  76  596.4233
  77  525.1558
  78  654.0193
  79  694.4881
  80  730.5367
  81  701.0822
  82  633.5204
  83  707.5416
  84  745.9636
  85  640.4274
  86  616.6835
  87  621.0667
  88  646.6776
  89  675.142
  90  625.5966
  91  609.6006
  92  692.8937
  93  726.4586
  94  601.0579
  95  642.2163
  96  612.2404
  97  656.0073
  98  692.5631
  99  680.0364
 100  695.526
 101  717.032
 102  743.9205
 103  749.6616
 104  707.2025
 105  661.3112
 106  672.614
 107  607.6414
 108  663.8889
 109  663.3914
 110  631.4077
 111  667.912
 112  669.8111
 113  710.7877
 114  753.6498
 115  826.7531
 116  708.0396
 117  718.1672
 118  873.1544
 119  840.3109
 120  709.9642
 121  688.6523
 122  689.3289
 123  722.3948
 124  711.9242
 125  750.7538
 126  625.9023
 127  675.6045
 128  751.0358
 129  707.3577
 130  504.7004
 131  464.4261
 132  592.5995
 133  722.455
 134  634.3624
 135  655.5286
 136  641.1378
 137  579.0237
 138  724.4711
 139  698.8881
 140  678.1817
 141  685.7529
 142  672.3508
 143  703.4993
 144  697.2938
 145  592.1727
 146  602.3275
 147  723.5681
 148  733.8653
 149  684.8554
 150  668.6068
 151  585.5157
 152  550.9758
 153  549.9468
 154  637.2563
 155  652.0295
 156  681.1529
 157  691.6885
 158  632.1558
 159  677.7905
 160  644.9269
 161  653.2063
 162  711.7733
 163  731.2646
 164  667.5386
 165  656.5931
 166  654.3152
 167  487.9818
 168  535.5611
 169  670.0385
 170  711.7845
 171  575.2317
 172  592.2413
 173  684.2592
 174  658.811
 175  598.6866
 176  668.8494
 177  694.9822
 178  644.8873
 179  700
 180  724.1829
 181  717.7515
 182  622.8817
 183  566.6431
 184  575.6631
 185  631.4125
 186  655.9938
 187  712.662
 188  683.9561
 189  692.8213
 190  682.4777
 191  741.8564
 192  729.0803
 193  586.1068
 194  563.9556
 195  581.8994
 196  647.0362
 197  712.4831
 198  719.942
 199  638.3188
 200  605.6675
 201  633.8499
 202  570.8397
 203  538.6188
 204  531.9153
 205  644.793
 206  638.2153
 207  472.8362
 208  534.4584
 209  584.0688
 210  715.4406
 211  628.2899
 212  606.2226
 213  630.1255
 214  623.2823
 215  651.269
 216  639.5226
 217  551.4214
 218  497.0871
 219  502.4969
 220  628.7144
 221  681.514
 222  637.6888
 223  669.1834
 224  641.7016
 225  575.7592
 226  581.1917
 227  581.6426
 228  614.0859
 229  694.5264
 230  680.4482
 231  684.3232
 232  735.8918
 233  682.5864
 234  650.7964
 235  660.5625
 236  660.5023
 237  567.3028
 238  580.1918
 239  631.9647
 240  616.1245
 241  551.6776
 242  683.3946
 243  745.7241
 244  656.8624
 245  582.5418
 246  731.6871
 247  586.428
 248  632.1666
 249  675.7127
 250  719.5392
 251  727.5222
 252  669.5403
 253  740.1149
 254  733.5831
 255  661.7308
 256  668.7639
 257  719.9824
 258  760.2152
 259  653.4736
 260  611.9791
 261  626.0889
 262  545.5505
 263  588.3775
 264  715.6342
 265  780.0632
 266  722.3426
 267  685.1447
 268  721.7124
 269  766.4344
 270  783.1771
 271  661.0733
 272  652.9991
 273  741.4725
 274  684.9681
 275  677.6805
 276  760.8481
 277  724.11
 278  803.9284
 279  826.7574
 280  638.982
 281  677.3453
 282  787.1404
 283  734.7378
 284  727.0471
 285  656.6635
 286  701.6036
 287  765.4191
 288  724.3658
 289  633.5102
 290  593.7448
 291  686.524
 292  687.4846
 293  575.3061
 294  647.1283
 295  656.6569
 296  683.6001
 297  699.9197
 298  759.3575
 299  677.6983
 300  776.7167
 301  805.231
 302  745.1767
 303  638.7259
 304  700.1528
 305  720.4582
 306  668.1152
 307  710.8873
 308  801.8453
 309  663.3469
 310  623.6347
 311  535.2838
 312  694.1136
 313  635.0647
 314  609.8677
 315  676.6348
 316  647.7673
 317  662
 318  719.8273
 319  655.509
 320  665.8445
 321  660.9825
 322  696.5413
 323  696.6334
 324  683.1126
 325  572.7048
 326  547.6422
 327  446.8846
 328  548.9951
 329  582.0084
 330  574.8523
 331  685.8552
 332  611.1028
 333  552.2285
 334  562.761
 335  582.4151
 336  612.0731
 337  524.2878
 338  606.9216
 339  672.8503
 340  589.4313
 341  600.0059
 342  667.8163
 343  677.3621
 344  617.1331
 345  647.441
 346  644.0728
 347  638.2028
 348  560.8398
 349  696.7015
 350  720.4958
 351  690.9463
 352  674.347
 353  624.7446
 354  604.9698
 355  731.4057
 356  674.7702
 357  724.2828
 358  727.0663
 359  604.0684
 360  607.217
 361  727.6113
 362  657.6964
 363  663.4045
 364  725.8553
 365  786.9683
 366  764.2278
 367  606.7715
 368  655.2875
 369  737.9481
 370  722.9015
 371  684.8196
 372  795.6997
 373  777.8354
 374  784.1104
 375  791.8128
 376  700.1898
 377  694.5172
 378  713.8687
 379  796.806
 380  682.5446
 381  789.0276
 382  770.063
 383  690.7432
 384  660.5516
 385  697.8029
 386  749.5628
 387  739.5336
 388  835.0901
 389  859.3021
 390  736.1666
 391  705.6019
 392  639.057
 393  750.5244
 394  930.4089
 395  846.5714
 396  874.801
 397  898.97
 398  836.8156
 399  837.5392
 400  822.7244
 401  843.3362
 402  861.407
 403  784.6617
 404  795.0936
 405  818.5484
 406  847.4546
 407  846.0477
 408  796.8691
 409  652.3038
 410  770.2838
 411  829.5684
 412  782.2969
 413  737.0661
 414  815.1023
 415  732.1003
 416  812.2521
 417  802.9237
 418  823.7435
 419  919.1829
 420  899.858
 421  803.9603
 422  726.9251
 423  700.3486
 424  718.1686
 425  813.5722
 426  783.7209
 427  673.2461
 428  647.5906
 429  670.3563
 430  668.1034
 431  728.5856
 432  746.4709
 433  702.7141
 434  701.7744
 435  658.818
 436  711.2132
 437  724.7596
 438  765.3297
 439  792.8327
 440  776.6211
 441  805.6256
 442  782.1419
 443  735.7154
 444  621.1895
 445  678.1857
 446  761.4332
 447  677.044
 448  725.902
 449  637.8257
 450  528.9847
 451  634.6827
 452  772.3171
 453  795.481
 454  729.3248
 455  616.1795
 456  620.6569
 457  725.6211
 458  715.9364
 459  740.7643
 460  801.7739
 461  822.0519
 462  854.6591
 463  783.8342
 464  736.224
 465  711.2313
 466  764.2688
 467  688.5292
 468  784.2418
 469  814.5304
 470  772.5188
 471  718.8027
 472  678.3884
 473  745.7869
 474  835.0831
 475  842.389
 476  852.7499
 477  840.77
 478  848.2538
 479  838.7216
 480  848.6938
 481  792.8192
 482  752.5003
 483  784.6932
 484  878.3524
 485  978.8777
 486  1135.365
 487  1293.496
 488  1350.945
 489  1302.416
 490  1221.649
 491  1043.135
 492  861.1655
 493  744.4963
 494  720.5742
 495  800.8746
 496  816.1367
 497  732.8284
 498  748.5509
 499  718.8571
 500  682.6104
 501  672.6736
 502  743.8911
 503  728.3122
 504  798.5511
 505  769.3275
 506  643.0419
 507  554.0259
 508  638.6698
 509  645.4828
 510  606.2393
 511  512.6309
