# Input file       =  1183008434.122497_cleaned.dat
# Candidate        =  PSR_0332+5434
# Telescope        =  AR
# Epoch_topo       =  57936.227466695571
# Epoch_bary       =  N/A
# T_sample         =  0.002
# Data Folded      =  7340032
# Data Avg         =  0.179125627780324
# Data StdDev      =  3.54880362086866 
# Profile Bins     =  1024
# Profile Avg      =  1283.55170087748 
# Profile StdDev   =  300.456058643969 
# Reduced chi-sqr  =  1.240
# Prob(Noise)      <  2.17e-07   (~5.1 sigma)
# P_topo (ms)      =  714.488257143029  +/- 0.000506
# P'_topo (s/s)    =  -0                +/- 2.67e-10
# P''_topo (s/s^2) =  0                 +/- 1.18e-13
# P_bary (ms)      =  N/A
# P'_bary (s/s)    =  N/A
# P''_bary (s/s^2) =  N/A
# P_orb (s)        =  N/A
# asin(i)/c (s)    =  N/A
# eccentricity     =  N/A
# w (rad)          =  N/A
# T_peri           =  N/A
######################################################
   0  1320.29
   1  1308.35
   2  1286.375
   3  1271.678
   4  1329.801
   5  1345.433
   6  1447.692
   7  1446.313
   8  1398.193
   9  1242.382
  10  1145.873
  11  1144.506
  12  1160.679
  13  1109.842
  14  1093.505
  15  1237.852
  16  1297.082
  17  1373.573
  18  1304.469
  19  1290.716
  20  1295.39
  21  1234.345
  22  1267.968
  23  1280.661
  24  1391.44
  25  1395.631
  26  1318.966
  27  1272.29
  28  1302.498
  29  1283.839
  30  1111.217
  31  1123.658
  32  1147.045
  33  1259.037
  34  1275.222
  35  1287.01
  36  1262.439
  37  1114.869
  38  1248.495
  39  1390.41
  40  1456.131
  41  1370.888
  42  1284.572
  43  1208.65
  44  1244.193
  45  1281.974
  46  1271.112
  47  1220.512
  48  1168.432
  49  1152.634
  50  1120.352
  51  1123.471
  52  1191.102
  53  1335.326
  54  1437.719
  55  1404.899
  56  1320.657
  57  1265.453
  58  1176.403
  59  1290.084
  60  1221.195
  61  1234.174
  62  1075.716
  63  1097.043
  64  1168.981
  65  1175.193
  66  1259.854
  67  1217.666
  68  1144.752
  69  1059.824
  70  1079.416
  71  1183.72
  72  1168.957
  73  1167.999
  74  1263.909
  75  1398.737
  76  1473.182
  77  1390.335
  78  1325.206
  79  1264.565
  80  1285.359
  81  1248.94
  82  1330.592
  83  1405.728
  84  1449.466
  85  1355.2
  86  1311.206
  87  1284.289
  88  1347.137
  89  1428.689
  90  1506.641
  91  1524.871
  92  1435.797
  93  1411.896
  94  1420.124
  95  1436.443
  96  1414.862
  97  1457.996
  98  1462.9
  99  1440.773
 100  1383.574
 101  1289.848
 102  1210.197
 103  1302.583
 104  1483.961
 105  1478.314
 106  1276.614
 107  1214.255
 108  1263.836
 109  1233.013
 110  1152.273
 111  1109.286
 112  1114.175
 113  1130.639
 114  1164.786
 115  1156.465
 116  1210.643
 117  1225.665
 118  1296.21
 119  1354.622
 120  1326.827
 121  1205.395
 122  1172.36
 123  1252.876
 124  1314.885
 125  1325.114
 126  1299.208
 127  1347.469
 128  1300.42
 129  1311.388
 130  1146.307
 131  1061.998
 132  877.5092
 133  904.648
 134  988.4155
 135  1064.18
 136  1065.115
 137  1048.691
 138  1007.544
 139  1025.533
 140  1112.066
 141  1121.091
 142  1133.437
 143  1143.16
 144  1166.708
 145  1005.367
 146  926.6624
 147  884.6058
 148  947.9343
 149  840.4045
 150  852.8348
 151  910.2089
 152  1042.127
 153  1098.88
 154  1032.632
 155  1094.532
 156  1053.367
 157  971.2773
 158  1050.522
 159  1086.582
 160  1133.992
 161  1124.18
 162  1110.312
 163  1120.657
 164  1127.466
 165  1187.991
 166  1161.563
 167  1200.724
 168  1223.415
 169  1245.485
 170  1147.405
 171  1178.681
 172  1210.646
 173  1309.341
 174  1337.699
 175  1292.638
 176  1233.334
 177  1194.494
 178  1160.119
 179  1129.593
 180  1095.605
 181  1119.02
 182  1143.587
 183  1257.312
 184  1343.601
 185  1316.02
 186  1302.297
 187  1307.15
 188  1352.089
 189  1330.121
 190  1340.855
 191  1394.328
 192  1498.922
 193  1450.899
 194  1449.258
 195  1381.032
 196  1384.611
 197  1392.554
 198  1371.241
 199  1380.509
 200  1214.896
 201  1185.496
 202  1226.57
 203  1333.355
 204  1333.54
 205  1351.25
 206  1435.504
 207  1473.599
 208  1348.03
 209  1173.034
 210  1159.571
 211  1176.967
 212  1201.942
 213  1227.54
 214  1226.122
 215  1287.177
 216  1263.376
 217  1253.458
 218  1191.067
 219  1145.531
 220  1105.472
 221  1147.779
 222  1238.286
 223  1345.308
 224  1336.586
 225  1392.334
 226  1335.265
 227  1314.493
 228  1202.389
 229  1216.79
 230  1147.692
 231  1201.765
 232  1139.924
 233  1163.918
 234  1175.675
 235  1242.248
 236  1221.663
 237  1261.832
 238  1158.593
 239  1130.292
 240  1096.803
 241  1153.663
 242  1318.751
 243  1294.758
 244  1249.84
 245  1152.075
 246  1203.944
 247  1222.148
 248  1145.436
 249  1147.917
 250  1244.934
 251  1475.735
 252  1439.286
 253  1418.036
 254  1176.145
 255  1139.998
 256  1123.833
 257  1196.013
 258  1237.506
 259  1225.235
 260  1181.802
 261  1121.269
 262  1074.176
 263  1143.204
 264  1165.126
 265  1223.989
 266  1256.561
 267  1356.776
 268  1398.067
 269  1399.926
 270  1335.665
 271  1336.997
 272  1364.299
 273  1337.805
 274  1247.557
 275  1269.65
 276  1311.633
 277  1386.56
 278  1429.23
 279  1369.082
 280  1281.291
 281  1276.009
 282  1188.106
 283  1197.669
 284  1130.769
 285  1203.726
 286  1101.386
 287  1093.636
 288  1080.04
 289  1146.356
 290  1206.26
 291  1152.573
 292  996.5269
 293  836.0497
 294  909.9404
 295  1011.998
 296  991.7675
 297  936.5504
 298  806.0091
 299  831.0868
 300  927.7607
 301  1036.775
 302  1039.653
 303  983.7182
 304  1062.271
 305  1179.433
 306  1191.475
 307  1028.101
 308  1070.179
 309  1106.942
 310  1196.085
 311  1115.057
 312  1006.106
 313  902.6633
 314  839.8138
 315  890.0134
 316  977.2159
 317  1147.285
 318  1120.393
 319  1060.617
 320  1006.21
 321  1099.964
 322  1163.309
 323  1104.054
 324  1006.608
 325  917.4011
 326  1108.269
 327  1242.513
 328  1181.746
 329  1103.897
 330  1072.421
 331  1059.803
 332  998.563
 333  1076.393
 334  1223.337
 335  1326.552
 336  1338.693
 337  1300.122
 338  1213.221
 339  1176.647
 340  1240.568
 341  1235.292
 342  1231.144
 343  1221.618
 344  1325.938
 345  1346.958
 346  1271.106
 347  1269.293
 348  1323.017
 349  1408.394
 350  1316.947
 351  1155.292
 352  1170.239
 353  1225.227
 354  1469.21
 355  1490.417
 356  1509.735
 357  1525.666
 358  1620.07
 359  1598.37
 360  1460.234
 361  1338.053
 362  1398.377
 363  1517.533
 364  1552.308
 365  1565.882
 366  1500.905
 367  1454.605
 368  1346.735
 369  1297.539
 370  1311.98
 371  1316.545
 372  1353.255
 373  1335.301
 374  1328.249
 375  1389.63
 376  1475.468
 377  1553.23
 378  1525.556
 379  1477.243
 380  1352.946
 381  1302.009
 382  1249.577
 383  1283.67
 384  1317.023
 385  1343.861
 386  1369.1
 387  1321.902
 388  1283.038
 389  1207.865
 390  1325.456
 391  1386.546
 392  1462.647
 393  1463.233
 394  1429.84
 395  1345.504
 396  1276.846
 397  1312.805
 398  1282.434
 399  1232.017
 400  1221.474
 401  1198.949
 402  1117.476
 403  1111.64
 404  1203.299
 405  1299.783
 406  1250.08
 407  1193.922
 408  1187.936
 409  1253.707
 410  1297.403
 411  1301.434
 412  1300.158
 413  1401.791
 414  1389.045
 415  1264.261
 416  1136.834
 417  1229.133
 418  1266.754
 419  1282.088
 420  1235.805
 421  1195.193
 422  1187.873
 423  1139.805
 424  1107.969
 425  1176.017
 426  1154.546
 427  1155.154
 428  1120.69
 429  1193.791
 430  1239.185
 431  1138.612
 432  1217.049
 433  1300.487
 434  1471.413
 435  1500.126
 436  1425.671
 437  1264.033
 438  1191.835
 439  1225.186
 440  1241.395
 441  1294.709
 442  1304.897
 443  1397.34
 444  1408.711
 445  1458.444
 446  1423.229
 447  1416.941
 448  1458.146
 449  1406.37
 450  1303.099
 451  1174.66
 452  1176.838
 453  1254.388
 454  1275.117
 455  1294.201
 456  1236.437
 457  1307.675
 458  1317.733
 459  1285.633
 460  1314.205
 461  1337.997
 462  1351.273
 463  1311.802
 464  1283.341
 465  1295.916
 466  1349.381
 467  1404.29
 468  1372.981
 469  1276.245
 470  1152.722
 471  1170.232
 472  1152.604
 473  1128.345
 474  1024.964
 475  1073.154
 476  1118.023
 477  1096.356
 478  1008.857
 479  1038.715
 480  1108.977
 481  1047.178
 482  1087.134
 483  1104.852
 484  1198.876
 485  1198.148
 486  1221.816
 487  1197.719
 488  1183.797
 489  1149.038
 490  1163.857
 491  1161.367
 492  1165.217
 493  1200.241
 494  1215.365
 495  1216.894
 496  1146.117
 497  1034.428
 498  1060.718
 499  1055.34
 500  1201.224
 501  1248.495
 502  1268.156
 503  1216.326
 504  1192.193
 505  1206.053
 506  1232.25
 507  1297.025
 508  1345.609
 509  1285.384
 510  1278.854
 511  1255.962
 512  1256.656
 513  1260.849
 514  1221.391
 515  1149.014
 516  1142.876
 517  1173.246
 518  1213.608
 519  1142.388
 520  1085.31
 521  1029.099
 522  910.6938
 523  1011.078
 524  1125.432
 525  1335.505
 526  1437.6
 527  1398.125
 528  1281.675
 529  1161.53
 530  1253.332
 531  1310.017
 532  1484.372
 533  1571.831
 534  1570.132
 535  1399.106
 536  1268.805
 537  1174.127
 538  1215.63
 539  1229.113
 540  1261.138
 541  1262.203
 542  1279.893
 543  1312.554
 544  1249.257
 545  1186.962
 546  1140.431
 547  1221.163
 548  1220.426
 549  1242.356
 550  1150.065
 551  1120.667
 552  1019.465
 553  987.6444
 554  1019.683
 555  1111.923
 556  1272.355
 557  1255.925
 558  1189.526
 559  1133.464
 560  1194.01
 561  1275.092
 562  1204.56
 563  1076.162
 564  980.7347
 565  976.1158
 566  1109.556
 567  1213.363
 568  1292.593
 569  1210.595
 570  1159.281
 571  1199.208
 572  1181.916
 573  1249.261
 574  1325.601
 575  1440.491
 576  1348.405
 577  1268.816
 578  1160.233
 579  1127.364
 580  1008.444
 581  1103.75
 582  1090.73
 583  1098.024
 584  1049.252
 585  1119.971
 586  1126.773
 587  1014.624
 588  908.807
 589  936.798
 590  1052.806
 591  1107.291
 592  1031.939
 593  963.6783
 594  1051.443
 595  965.5978
 596  1003.786
 597  1064.872
 598  1193.378
 599  1244.385
 600  1187.447
 601  1237.587
 602  1036.073
 603  1078.939
 604  1101.042
 605  1173.289
 606  1103.621
 607  1106.57
 608  1137.643
 609  1040.544
 610  992.6981
 611  1054.051
 612  1135.388
 613  1127.054
 614  1174.728
 615  1185.218
 616  1170.758
 617  1200.869
 618  1283.908
 619  1318.987
 620  1244.06
 621  1180.741
 622  1100.2
 623  1146.462
 624  1083.317
 625  1110.586
 626  1134.53
 627  1153.325
 628  1230.167
 629  1200.549
 630  1306.167
 631  1356.789
 632  1475.917
 633  1416.538
 634  1355.998
 635  1367.21
 636  1368.649
 637  1279.707
 638  1175.572
 639  1200.284
 640  1258.322
 641  1434.471
 642  1535.144
 643  1511.077
 644  1584.306
 645  1674.613
 646  1792.061
 647  1706.456
 648  1769.647
 649  2006.246
 650  2226.012
 651  2253.792
 652  2268.113
 653  2356.793
 654  2474.712
 655  2353.947
 656  2224.865
 657  2037.882
 658  2012.308
 659  2002.523
 660  1817.525
 661  1678.979
 662  1543.887
 663  1541.138
 664  1499.532
 665  1439.244
 666  1481.682
 667  1449.946
 668  1377.285
 669  1252.629
 670  1252.832
 671  1327.475
 672  1354.213
 673  1373.486
 674  1511.271
 675  1594.146
 676  1606.211
 677  1532.229
 678  1610.675
 679  1584.898
 680  1593.405
 681  1569.515
 682  1559.616
 683  1545.649
 684  1537.245
 685  1470.864
 686  1470.066
 687  1493.639
 688  1543.031
 689  1509.295
 690  1524.587
 691  1462.129
 692  1429.925
 693  1392.425
 694  1367.821
 695  1309.441
 696  1304.365
 697  1341.145
 698  1377.102
 699  1377.484
 700  1332.012
 701  1328.397
 702  1463.272
 703  1473.581
 704  1498.64
 705  1349.009
 706  1338.682
 707  1346.499
 708  1448.191
 709  1436.826
 710  1285.644
 711  1274.166
 712  1432.517
 713  1369.952
 714  1374.299
 715  1351.424
 716  1437.21
 717  1332.27
 718  1270.854
 719  1280.867
 720  1348.654
 721  1369.774
 722  1415.257
 723  1360.889
 724  1409.198
 725  1442.482
 726  1576.856
 727  1589.509
 728  1445.463
 729  1274.414
 730  1296.622
 731  1399.587
 732  1398.177
 733  1452.614
 734  1538.928
 735  1616.469
 736  1542.254
 737  1538.891
 738  1513.018
 739  1561.894
 740  1578.221
 741  1634.445
 742  1641.932
 743  1577.88
 744  1509.091
 745  1485.717
 746  1496.547
 747  1530.268
 748  1603.846
 749  1683.424
 750  1755.307
 751  1765.864
 752  1667.102
 753  1489.335
 754  1397.78
 755  1413.342
 756  1471.674
 757  1456.929
 758  1478.418
 759  1416.626
 760  1405.271
 761  1446.372
 762  1460.936
 763  1496.313
 764  1423.613
 765  1499.969
 766  1583.69
 767  1561.485
 768  1497.213
 769  1475.355
 770  1526.136
 771  1537.008
 772  1511.692
 773  1511.054
 774  1481.918
 775  1471.005
 776  1471.772
 777  1467.78
 778  1509.7
 779  1539.298
 780  1650.307
 781  1669.828
 782  1647.402
 783  1595.395
 784  1633.171
 785  1648.143
 786  1462.965
 787  1348.428
 788  1383.197
 789  1557.199
 790  1633.682
 791  1691.92
 792  1576.03
 793  1486.559
 794  1335.261
 795  1378.893
 796  1404.355
 797  1452.202
 798  1486.313
 799  1517.973
 800  1502.026
 801  1529.735
 802  1511.315
 803  1410.393
 804  1314.099
 805  1401.122
 806  1497.616
 807  1488.744
 808  1318.128
 809  1253.703
 810  1237.211
 811  1313.284
 812  1448.242
 813  1557.888
 814  1566.473
 815  1506.18
 816  1502.708
 817  1395.018
 818  1302.468
 819  1307.844
 820  1496.414
 821  1566.965
 822  1520.312
 823  1490.578
 824  1384.587
 825  1303.176
 826  1193.849
 827  1205.288
 828  1313.578
 829  1421.764
 830  1363.451
 831  1275.142
 832  1165.7
 833  1214.442
 834  1296.711
 835  1339.184
 836  1272.69
 837  1232.66
 838  1301.273
 839  1281.176
 840  1263.517
 841  1177.983
 842  1146.644
 843  1182.822
 844  1208.143
 845  1207.495
 846  1123.097
 847  1157.809
 848  1092.211
 849  1138.641
 850  1212.242
 851  1347.189
 852  1450.278
 853  1366.827
 854  1383.307
 855  1339.189
 856  1478.897
 857  1484.294
 858  1422.682
 859  1368.443
 860  1318.421
 861  1306.814
 862  1251.14
 863  1408.974
 864  1481.644
 865  1480.118
 866  1409.293
 867  1389.338
 868  1261.58
 869  1221.182
 870  1240.374
 871  1395.076
 872  1378.997
 873  1299.795
 874  1337.821
 875  1287.338
 876  1304.078
 877  1275.778
 878  1331.975
 879  1301.837
 880  1252.003
 881  1322.398
 882  1275.637
 883  1196.389
 884  1140.65
 885  1257.414
 886  1278.193
 887  1265.946
 888  1189.987
 889  1197.761
 890  1259.201
 891  1182.166
 892  1191.279
 893  1149.93
 894  1267.776
 895  1379.235
 896  1323.182
 897  1329.872
 898  1219.876
 899  1271.462
 900  1298.884
 901  1318.979
 902  1316.363
 903  1227.061
 904  1193.63
 905  1176.948
 906  1183.051
 907  1171.094
 908  1103.89
 909  1029.642
 910  961.7886
 911  1060.917
 912  1109.633
 913  1275.013
 914  1349.823
 915  1387.465
 916  1362.152
 917  1345.17
 918  1163.013
 919  1110.958
 920  1147.988
 921  1199.766
 922  1155.605
 923  1052.374
 924  1092.845
 925  1088.61
 926  1126.353
 927  1202.237
 928  1298.506
 929  1250.159
 930  1181.92
 931  1204.408
 932  1272.634
 933  1269.761
 934  1239.879
 935  1338.11
 936  1229.057
 937  1138.198
 938  1041.688
 939  1039.764
 940  1001.225
 941  932.4034
 942  954.4695
 943  1115.063
 944  1221.595
 945  1354.021
 946  1267.684
 947  1311.43
 948  1278.782
 949  1337.994
 950  1287.184
 951  1274.953
 952  1210.705
 953  1250.182
 954  1323.891
 955  1396.519
 956  1323.995
 957  1265.562
 958  1212.61
 959  1268.97
 960  1224.182
 961  1139.839
 962  1117.12
 963  1232.977
 964  1263.591
 965  1352.336
 966  1320.146
 967  1362.464
 968  1298.326
 969  1290.679
 970  1185.053
 971  1193.903
 972  1211.231
 973  1209.816
 974  1155.788
 975  1107.665
 976  1143.401
 977  1183.699
 978  1195.19
 979  1195.055
 980  1222.16
 981  1243.711
 982  1185.456
 983  1146.219
 984  1162.703
 985  1190.212
 986  1185.289
 987  1321.207
 988  1377.034
 989  1377.546
 990  1367.173
 991  1425.28
 992  1415.819
 993  1392.007
 994  1330.816
 995  1291.864
 996  1235.123
 997  1330.648
 998  1303.935
 999  1274.35
1000  1167.236
1001  1126.869
1002  1111.664
1003  1139.573
1004  1214.379
1005  1207.868
1006  1177.941
1007  1172.649
1008  1201.473
1009  1249.705
1010  1331.021
1011  1311.872
1012  1299.694
1013  1245.88
1014  1242.516
1015  1348.781
1016  1408.554
1017  1400.064
1018  1355.843
1019  1238.912
1020  1333.632
1021  1300.047
1022  1336.48
1023  1261.536
