# Input file       =  1183266337.135035_cleaned.dat
# Candidate        =  PSR_0332+5434
# Telescope        =  AR
# Epoch_topo       =  57939.212455266606
# Epoch_bary       =  N/A
# T_sample         =  0.002
# Data Folded      =  7340032
# Data Avg         =  0.0462571254756967
# Data StdDev      =  1.00024494067058 
# Profile Bins     =  512
# Profile Avg      =  663.191885813449 
# Profile StdDev   =  119.762363866987 
# Reduced chi-sqr  =  1.604
# Prob(Noise)      <  1.01e-16   (~8.2 sigma)
# P_topo (ms)      =  714.485920785929  +/- 0.000299
# P'_topo (s/s)    =  -0                +/- 1.58e-10
# P''_topo (s/s^2) =  0                 +/- 6.96e-14
# P_bary (ms)      =  N/A
# P'_bary (s/s)    =  N/A
# P''_bary (s/s^2) =  N/A
# P_orb (s)        =  N/A
# asin(i)/c (s)    =  N/A
# eccentricity     =  N/A
# w (rad)          =  N/A
# T_peri           =  N/A
######################################################
   0  548.0976
   1  658.1496
   2  678.8734
   3  547.092
   4  533.9102
   5  569.0737
   6  644.3906
   7  569.093
   8  533.801
   9  572.6398
  10  563.3422
  11  583.5197
  12  708.4324
  13  769.8954
  14  668.4635
  15  538.6489
  16  511.7861
  17  605.0992
  18  709.9514
  19  712.2647
  20  654.4525
  21  533.6962
  22  609.8358
  23  590.4469
  24  520.7063
  25  624.1743
  26  775.2305
  27  840.6653
  28  646.8428
  29  545.5381
  30  676.5918
  31  725.3216
  32  748.2452
  33  614.6546
  34  703.3988
  35  644.3475
  36  531.8939
  37  585.3947
  38  715.7563
  39  748.5786
  40  699.2736
  41  742.7967
  42  802.9457
  43  737.9466
  44  666.3378
  45  605.678
  46  689.4547
  47  696.6574
  48  625.5032
  49  634.0055
  50  733.7476
  51  717.3377
  52  656.8747
  53  718.724
  54  843.6386
  55  771.3915
  56  752.5306
  57  643.4755
  58  685.0149
  59  615.7332
  60  732.9357
  61  730.6331
  62  692.5782
  63  731.5458
  64  665.7563
  65  615.0043
  66  647.5637
  67  591.0399
  68  666.1516
  69  777.4971
  70  753.8467
  71  745.1238
  72  708.1873
  73  742.1163
  74  846.5683
  75  681.0753
  76  654.1595
  77  709.0363
  78  695.2963
  79  654.4282
  80  664.8567
  81  708.9376
  82  715.1105
  83  691.6588
  84  757.648
  85  739.3012
  86  729.863
  87  711.5967
  88  696.0424
  89  555.1396
  90  527.5031
  91  601.7934
  92  554.9317
  93  612.5131
  94  695.9929
  95  655.1191
  96  617.084
  97  640.3188
  98  695.5938
  99  710.3258
 100  686.5663
 101  771.2667
 102  716.0234
 103  640.236
 104  653.587
 105  624.4083
 106  655.4974
 107  641.3481
 108  691.4622
 109  743.0911
 110  787.8441
 111  745.2579
 112  631.2565
 113  529.0797
 114  535.8763
 115  555.5829
 116  496.1493
 117  587.3213
 118  673.4694
 119  762.9453
 120  709.2493
 121  721.5926
 122  755.0652
 123  721.5814
 124  747.0369
 125  707.3032
 126  603.6293
 127  556.5118
 128  628.6425
 129  695.8428
 130  708.4865
 131  605.9432
 132  558.345
 133  664.3547
 134  698.004
 135  653.5027
 136  651.4723
 137  641.1252
 138  690.8434
 139  684.8483
 140  670.5309
 141  641.7585
 142  628.199
 143  628.3276
 144  711.8169
 145  630.1064
 146  658.0464
 147  659.2602
 148  657.6625
 149  602.5705
 150  564.0036
 151  658.2505
 152  676.1199
 153  674.78
 154  749.7194
 155  705.483
 156  800.151
 157  690.2568
 158  713.118
 159  745.8569
 160  754.3304
 161  720.3281
 162  799.0206
 163  758.9418
 164  727.0898
 165  668.4575
 166  719.2691
 167  677.3929
 168  676.4628
 169  762.1861
 170  740.7875
 171  740.7953
 172  780.4257
 173  784.3958
 174  796.9333
 175  759.1925
 176  784.2885
 177  702.0193
 178  740.2766
 179  843.3535
 180  803.3336
 181  732.5637
 182  667.0684
 183  634.9092
 184  653.6041
 185  668.7857
 186  591.3844
 187  639.3651
 188  773.4271
 189  728.1906
 190  680.9033
 191  648.4616
 192  670.0705
 193  703.9925
 194  604.9064
 195  665.8338
 196  656.3254
 197  683.3845
 198  741.0484
 199  723.2273
 200  697.2742
 201  684.4478
 202  572.4122
 203  582.7009
 204  569.1514
 205  496.8151
 206  725.8659
 207  749.2456
 208  626.8419
 209  633.1864
 210  648.844
 211  668.6801
 212  603.2285
 213  684.8629
 214  709.4709
 215  628.2874
 216  574.8395
 217  531.4754
 218  559.3683
 219  541.3837
 220  633.3803
 221  620.8895
 222  586.775
 223  585.9309
 224  621.3685
 225  571.6567
 226  623.2931
 227  630.9628
 228  580.9279
 229  459.8227
 230  451.2504
 231  544.1575
 232  557.3093
 233  539.5187
 234  570.0469
 235  540.5161
 236  538.7305
 237  571.9293
 238  464.8307
 239  564.845
 240  650.8611
 241  602.6757
 242  535.1405
 243  640.6723
 244  616.1025
 245  493.5018
 246  572.1564
 247  691.8854
 248  663.1462
 249  575.7651
 250  624.9932
 251  674.2867
 252  674.3354
 253  684.1687
 254  641.4984
 255  594.2454
 256  634.5712
 257  623.1257
 258  673.7571
 259  525.5943
 260  580.9583
 261  643.7275
 262  673.4402
 263  711.0358
 264  633.2195
 265  554.7244
 266  523.2367
 267  485.1157
 268  469.7548
 269  550.0749
 270  626.1925
 271  710.1583
 272  632.8917
 273  662.9695
 274  626.5757
 275  570.551
 276  676.153
 277  587.2542
 278  660.7243
 279  702.3308
 280  602.1619
 281  614.2243
 282  559.8494
 283  526.2809
 284  498.8885
 285  482.6944
 286  515.1904
 287  422.6822
 288  410.6482
 289  559.9527
 290  489.66
 291  483.0866
 292  552.5508
 293  574.3409
 294  610.4019
 295  594.8939
 296  671.0589
 297  627.752
 298  591.3508
 299  618.5364
 300  558.7543
 301  607.3225
 302  568.0982
 303  540.9768
 304  491.2004
 305  609.7123
 306  557.8174
 307  467.3973
 308  387.0718
 309  487.4965
 310  619.1778
 311  598.1389
 312  626.3457
 313  631.6014
 314  586.3063
 315  618.2908
 316  728.7905
 317  688.3055
 318  619.4977
 319  609.937
 320  558.7474
 321  545.4816
 322  677.9037
 323  730.671
 324  620.7245
 325  631.5659
 326  618.8792
 327  481.3621
 328  589.3289
 329  672.5846
 330  685.3032
 331  733.0388
 332  727.0644
 333  821.3943
 334  781.3152
 335  710.7441
 336  749.7276
 337  817.4606
 338  732.5102
 339  745.4964
 340  703.0383
 341  695.2599
 342  660.5407
 343  660.7776
 344  751.3933
 345  622.5013
 346  677.0757
 347  698.3191
 348  646.4548
 349  622.944
 350  525.4092
 351  567.3176
 352  677.169
 353  625.7488
 354  536.0235
 355  599.7596
 356  616.0632
 357  692.6241
 358  688.2103
 359  614.5423
 360  681.0343
 361  634.7388
 362  595.0949
 363  648.8943
 364  665.2908
 365  720.8621
 366  717.1318
 367  719.0312
 368  754.4003
 369  739.7828
 370  706.3602
 371  687.3429
 372  627.1232
 373  654.6956
 374  637.9036
 375  714.1238
 376  741.4574
 377  752.9229
 378  719.9962
 379  696.5792
 380  564.2411
 381  694.1495
 382  798.826
 383  729.2959
 384  712.5779
 385  741.5493
 386  700.0079
 387  639.9491
 388  621.1146
 389  645.6194
 390  806.6504
 391  843.9506
 392  765.8626
 393  675.4582
 394  658.711
 395  756.5249
 396  771.8463
 397  796.1588
 398  811.2825
 399  915.0759
 400  1010.382
 401  1242.142
 402  1470.368
 403  1416.739
 404  1418.521
 405  1273.65
 406  1090.585
 407  794.2975
 408  676.4061
 409  679.3943
 410  626.6193
 411  596.3107
 412  598.631
 413  633.3365
 414  690.5849
 415  860.2144
 416  790.6081
 417  666.5886
 418  645.3021
 419  586.1591
 420  650.5662
 421  716.4153
 422  669.6362
 423  671.1824
 424  821.3344
 425  738.9443
 426  580.9569
 427  647.3204
 428  651.0723
 429  612.301
 430  708.2643
 431  692.8669
 432  717.2358
 433  602.4491
 434  646.4449
 435  743.1094
 436  678.8597
 437  603.5723
 438  613.0468
 439  504.5835
 440  621.0984
 441  644.0255
 442  570.4617
 443  623.6148
 444  630.8392
 445  673.0579
 446  645.6849
 447  725.9031
 448  770.1057
 449  772.8398
 450  651.7051
 451  654.7121
 452  709.2215
 453  727.7261
 454  797.9244
 455  763.3193
 456  683.5334
 457  596.5231
 458  735.2938
 459  740.8967
 460  673.8029
 461  745.5074
 462  690.1439
 463  628.2959
 464  567.2794
 465  659.0283
 466  781.4108
 467  579.1489
 468  617.7969
 469  726.4386
 470  825.2759
 471  716.1142
 472  661.9032
 473  666.027
 474  712.1862
 475  642.7624
 476  724.2039
 477  757.1088
 478  788.4012
 479  721.9807
 480  682.6447
 481  730.5302
 482  728.7694
 483  612.0007
 484  540.159
 485  560.3193
 486  594.2628
 487  656.9551
 488  776.9576
 489  640.2477
 490  579.5753
 491  630.136
 492  664.7034
 493  621.53
 494  593.2249
 495  594.9812
 496  642.5948
 497  612.1224
 498  564.0565
 499  557.7567
 500  522.1979
 501  558.6068
 502  571.0204
 503  678.4073
 504  677.8548
 505  672.5344
 506  535.6224
 507  523.8869
 508  588.8355
 509  555.6849
 510  613.4041
 511  580.0857
