# Input file       =  1183424315.08945_cleaned.dat
# Candidate        =  PSR_0332+5434
# Telescope        =  AR
# Epoch_topo       =  57941.040903813075
# Epoch_bary       =  N/A
# T_sample         =  0.002
# Data Folded      =  7405568
# Data Avg         =  0.106120634519091
# Data StdDev      =  4.39589312267417 
# Profile Bins     =  512
# Profile Avg      =  1535.40912127392 
# Profile StdDev   =  528.678113286496 
# Reduced chi-sqr  =  0.748
# Prob(Noise)      <  1   (~0.0 sigma)
# P_topo (ms)      =  714.484526273566  +/- 9.12e-05
# P'_topo (s/s)    =  -0                +/- 4.77e-11
# P''_topo (s/s^2) =  0                 +/- 2.09e-14
# P_bary (ms)      =  N/A
# P'_bary (s/s)    =  N/A
# P''_bary (s/s^2) =  N/A
# P_orb (s)        =  N/A
# asin(i)/c (s)    =  N/A
# eccentricity     =  N/A
# w (rad)          =  N/A
# T_peri           =  N/A
######################################################
   0  1559.263
   1  1432.452
   2  1233.436
   3  1239.438
   4  1446.447
   5  1377.914
   6  1740.659
   7  1569.109
   8  1409.543
   9  1111.664
  10  1246.935
  11  1564.787
  12  1520.06
  13  1657.33
  14  1722.237
  15  1670.392
  16  1131.213
  17  1123.838
  18  1526.604
  19  1843.899
  20  1821.02
  21  1395.765
  22  1702.149
  23  1241.213
  24  1305.899
  25  1351.372
  26  1318.582
  27  1691.323
  28  1869.181
  29  1775.873
  30  1626.95
  31  1859.294
  32  1371.276
  33  1439.762
  34  1917.196
  35  1950.464
  36  1590.803
  37  1236.711
  38  1510.428
  39  1892.937
  40  1710.646
  41  1634.876
  42  1666.198
  43  1213.173
  44  1393.51
  45  1415.502
  46  1586.024
  47  1953.388
  48  2116.392
  49  2022.925
  50  1622.919
  51  1891.054
  52  1824.021
  53  1532.349
  54  1645.651
  55  1677.254
  56  1278.108
  57  1127.953
  58  1318.009
  59  1748.285
  60  1759.896
  61  1707.902
  62  1235.238
  63  1514.366
  64  1759.092
  65  1212.644
  66  1239.799
  67  1228.928
  68  1605.009
  69  1355.623
  70  1173.656
  71  1153.855
  72  948.5112
  73  1092.248
  74  943.5923
  75  1470.68
  76  1653.174
  77  1683.223
  78  1510.358
  79  1380.887
  80  1548.364
  81  1227.083
  82  1184.185
  83  1444.648
  84  1766.679
  85  1332.65
  86  1144.359
  87  989.5312
  88  1229.308
  89  1495.225
  90  1090.569
  91  1155.756
  92  963.6976
  93  902.6859
  94  964.6102
  95  797.7888
  96  1242.509
  97  1145.167
  98  1133.445
  99  830.7423
 100  1014.144
 101  1222.439
 102  1402.458
 103  1439.469
 104  1908.696
 105  1818.076
 106  1201.272
 107  1181.496
 108  1333.58
 109  1720.848
 110  1721.46
 111  1702.64
 112  1827.161
 113  1793.05
 114  1723.548
 115  1362.749
 116  1615.131
 117  1602.257
 118  1608.862
 119  1541.016
 120  1399.267
 121  1308.072
 122  1141.615
 123  1362.505
 124  1137.974
 125  1367.726
 126  1926.594
 127  1614.5
 128  1455.211
 129  1317.597
 130  1623.697
 131  1474.757
 132  1401.934
 133  1516.483
 134  1603.626
 135  1592.83
 136  1343.95
 137  1405.7
 138  1805.494
 139  1311.438
 140  1362.799
 141  1246.209
 142  1497.606
 143  1515.753
 144  1551.835
 145  1206.868
 146  1327.252
 147  1527.884
 148  1686.025
 149  1593.571
 150  1457.023
 151  1578.065
 152  1160.798
 153  852.3091
 154  1327.053
 155  1263.773
 156  1508.669
 157  1521.79
 158  1599.777
 159  1995.181
 160  1662.616
 161  989.1058
 162  1106.744
 163  1375.362
 164  1326.837
 165  1635.869
 166  1669.918
 167  1874.558
 168  1789.814
 169  1668.26
 170  1876.599
 171  1533.972
 172  1514.073
 173  1275.045
 174  1716.135
 175  1830.787
 176  1482.134
 177  1504.895
 178  1802.353
 179  1799.329
 180  1879.485
 181  1803.945
 182  1726.295
 183  1757.149
 184  1660.557
 185  1235.255
 186  1345.551
 187  1308.632
 188  1409.564
 189  1376.139
 190  1001.954
 191  1112.123
 192  1529.169
 193  1606.402
 194  1671.019
 195  1340.529
 196  1232.716
 197  1137.596
 198  1322.064
 199  1605.938
 200  1460.834
 201  1235.749
 202  1481.771
 203  1312.603
 204  1152.878
 205  1138.95
 206  1301.015
 207  1579.061
 208  1608.359
 209  1694.951
 210  1176.369
 211  1327.958
 212  1367.611
 213  1544.01
 214  1553.043
 215  1348.84
 216  1471.678
 217  1435.494
 218  1078.27
 219  933.3513
 220  1160.531
 221  1307.157
 222  1055.821
 223  1391.719
 224  1698.543
 225  1765.792
 226  1770.212
 227  1881.661
 228  1628.248
 229  1842.807
 230  1613.624
 231  1397.325
 232  1600.596
 233  1911.333
 234  1782.753
 235  1389.872
 236  1382.591
 237  1472.496
 238  1228.558
 239  1490.709
 240  1446.377
 241  1391.295
 242  1511.207
 243  1334.649
 244  1548.918
 245  1649.589
 246  1504.024
 247  1334.988
 248  1295.185
 249  1593.117
 250  1367.457
 251  1524.478
 252  1459.388
 253  1778.859
 254  1844.208
 255  1816.069
 256  1775.858
 257  1917.051
 258  1728.706
 259  1204.286
 260  1539.498
 261  1876.442
 262  2226.325
 263  1752.772
 264  1548.872
 265  1482.628
 266  1973.732
 267  1924.944
 268  1853.375
 269  1399.526
 270  996.4891
 271  1074.56
 272  894.5096
 273  1428.83
 274  1565.28
 275  1601.243
 276  1767.891
 277  1402.193
 278  1330.793
 279  815.4512
 280  1193.634
 281  1168.129
 282  1276.173
 283  1431.097
 284  1378.186
 285  1416.208
 286  1056.083
 287  962.6871
 288  1189.362
 289  1250.691
 290  1400.823
 291  1324.343
 292  1546.602
 293  1176.872
 294  1051.05
 295  1276.407
 296  1587.501
 297  1102.53
 298  1651.699
 299  2074.163
 300  1835.365
 301  1433.057
 302  1585.783
 303  1738.593
 304  1471.175
 305  1644.969
 306  1990.148
 307  2097.611
 308  1520.875
 309  1550.131
 310  1828.917
 311  1500.558
 312  1743.045
 313  1747.492
 314  1663.686
 315  1695.733
 316  1507.871
 317  1633.327
 318  1349.524
 319  1386.483
 320  2208.191
 321  2109.604
 322  2134.062
 323  2309.808
 324  3152.46
 325  3324.141
 326  2980.327
 327  3100.282
 328  2903.065
 329  2302.322
 330  1668.695
 331  1768.012
 332  1867.505
 333  1133.831
 334  1069.706
 335  1455.272
 336  1492.345
 337  1677.25
 338  1317.272
 339  1219.894
 340  1803.264
 341  1489.474
 342  1777.258
 343  1929.919
 344  1311.003
 345  1045.347
 346  966.6628
 347  1442.438
 348  1732.47
 349  1572.337
 350  1625.203
 351  1280.879
 352  1272.234
 353  1278.401
 354  1193.183
 355  1234.944
 356  1401.265
 357  1435.024
 358  1649.815
 359  1339.264
 360  1443.639
 361  1604.728
 362  1386.165
 363  1287.093
 364  1486.379
 365  1757.537
 366  1684.396
 367  1412.477
 368  1333.554
 369  1293.723
 370  1565.43
 371  1434.215
 372  1677.68
 373  2115.073
 374  2151.041
 375  1516.156
 376  1401.407
 377  1594.427
 378  1964.944
 379  1775.667
 380  1667.001
 381  1661.324
 382  1780.187
 383  1355.773
 384  1198.808
 385  1403.465
 386  1346.765
 387  1345.563
 388  1533.748
 389  1642.958
 390  1202.346
 391  1781.075
 392  1818.431
 393  1760.514
 394  2174.804
 395  2188.137
 396  1882.69
 397  1478.791
 398  1621.486
 399  1539.936
 400  1487.107
 401  1565.703
 402  1797.564
 403  2011.482
 404  2020.781
 405  1803.823
 406  1897.331
 407  1622.284
 408  954.5789
 409  1480.963
 410  1725.279
 411  1605.755
 412  1846.859
 413  1825.084
 414  2086.951
 415  2054.106
 416  1826.344
 417  1631.517
 418  1516.854
 419  1424.891
 420  1467.053
 421  1733.748
 422  1673.572
 423  1814.507
 424  2016.144
 425  1997.169
 426  1368.544
 427  1134.676
 428  1497.37
 429  1194.589
 430  1437.352
 431  1944.926
 432  2096.06
 433  1596
 434  956.6667
 435  961.7004
 436  1283.914
 437  1324.677
 438  1216.414
 439  1599.261
 440  1075.947
 441  852.3361
 442  934.7078
 443  1257.217
 444  1293.355
 445  1013.404
 446  1252.931
 447  1378.073
 448  1741.63
 449  1523.142
 450  1134.901
 451  1533.863
 452  1601.203
 453  1513.375
 454  1204.729
 455  1489.327
 456  1169.188
 457  1186.051
 458  1703.527
 459  1419.394
 460  1734.537
 461  1795.263
 462  1608.057
 463  1616.492
 464  1478.168
 465  1547.386
 466  1503.688
 467  1610.966
 468  1736.481
 469  1879.587
 470  1654.292
 471  1768.342
 472  2017.135
 473  1288.587
 474  1268.587
 475  1487.956
 476  1744.218
 477  1900.954
 478  1980.028
 479  1792.032
 480  1638.502
 481  1912.481
 482  1697.61
 483  1425.508
 484  1550.263
 485  1906.664
 486  2037.333
 487  1660.419
 488  1999.372
 489  2167.558
 490  2430.25
 491  2438.812
 492  2141.052
 493  1665.583
 494  1619.144
 495  1800.896
 496  1727.174
 497  2262.754
 498  2187.337
 499  1413.398
 500  1544.542
 501  1409.683
 502  1315.152
 503  1061.008
 504  1662.105
 505  1754.107
 506  1794.194
 507  1371.786
 508  923.9093
 509  1235.067
 510  1641.321
 511  1685.688
