# Input file       =  1183596519.103687_cleaned.dat
# Candidate        =  PSR_0332+5434
# Telescope        =  AR
# Epoch_topo       =  57943.034005829708
# Epoch_bary       =  N/A
# T_sample         =  0.002
# Data Folded      =  7143424
# Data Avg         =  0.11947323858456 
# Data StdDev      =  4.67463035523744 
# Profile Bins     =  1024
# Profile Avg      =  833.446409222295 
# Profile StdDev   =  390.43658979629  
# Reduced chi-sqr  =  0.645
# Prob(Noise)      <  1   (~0.0 sigma)
# P_topo (ms)      =  714.483060232738  +/- 5.42e-05
# P'_topo (s/s)    =  -0                +/- 2.94e-11
# P''_topo (s/s^2) =  0                 +/- 1.33e-14
# P_bary (ms)      =  N/A
# P'_bary (s/s)    =  N/A
# P''_bary (s/s^2) =  N/A
# P_orb (s)        =  N/A
# asin(i)/c (s)    =  N/A
# eccentricity     =  N/A
# w (rad)          =  N/A
# T_peri           =  N/A
######################################################
   0  882.6478
   1  877.2209
   2  712.0615
   3  696.9786
   4  707.387
   5  992.328
   6  1001.697
   7  988.3087
   8  817.9951
   9  810.9587
  10  703.1596
  11  757.9338
  12  763.6937
  13  774.7632
  14  691.0818
  15  652.1797
  16  559.9802
  17  591.6905
  18  700.1633
  19  850.6965
  20  970.7104
  21  959.5722
  22  972.3015
  23  1107.657
  24  1153.156
  25  1108.864
  26  936.2913
  27  930.636
  28  972.0383
  29  1027.676
  30  833.9852
  31  769.851
  32  655.7665
  33  594.4785
  34  618.3528
  35  760.4326
  36  988.457
  37  1051.397
  38  1177.86
  39  1119.37
  40  1057.729
  41  1099.225
  42  1284.354
  43  1248.925
  44  1113.833
  45  878.3406
  46  858.8623
  47  821.5844
  48  858.7173
  49  931.0963
  50  804.8586
  51  614.0654
  52  608.4733
  53  724.4824
  54  811.9658
  55  777.463
  56  803.9305
  57  887.5497
  58  905.5332
  59  953.1597
  60  909.5806
  61  871.5175
  62  810.7561
  63  897.6635
  64  936.8207
  65  942.0995
  66  794.9951
  67  755.2416
  68  721.7693
  69  726.3876
  70  760.7574
  71  897.7282
  72  1040.722
  73  1158.768
  74  1119.268
  75  1086.9
  76  911.5923
  77  939.7192
  78  816.9005
  79  762.7881
  80  762.3934
  81  883.416
  82  1081.386
  83  1085.492
  84  1047.964
  85  952.8716
  86  913.2771
  87  985.15
  88  1015.132
  89  1032.401
  90  992.4987
  91  858.4158
  92  908.5419
  93  881.4528
  94  1056.167
  95  1009.852
  96  1073.239
  97  1024.012
  98  976.8891
  99  830.5899
 100  843.4179
 101  966.2577
 102  1108.668
 103  1107.78
 104  945.3288
 105  892.6691
 106  926.7172
 107  987.0582
 108  1079.006
 109  1086.692
 110  1095.658
 111  984.2557
 112  830.5673
 113  596.2744
 114  520.5903
 115  586.0217
 116  722.9677
 117  811.5716
 118  796.7887
 119  789.7442
 120  771.7905
 121  810.3243
 122  915.7026
 123  980.0185
 124  957.443
 125  927.8657
 126  925.6875
 127  934.424
 128  721.9428
 129  561.4116
 130  520.0242
 131  666.4884
 132  716.4094
 133  756.4155
 134  859.6519
 135  969.0272
 136  1150.938
 137  1147.785
 138  1249.586
 139  1178.937
 140  1031.834
 141  811.4802
 142  784.286
 143  825.0742
 144  873.1996
 145  727.6461
 146  668.6764
 147  589.4766
 148  693.6222
 149  672.1502
 150  723.8582
 151  695.444
 152  834.6611
 153  949.1382
 154  978.0496
 155  861.4805
 156  921.1909
 157  918.8403
 158  802.6367
 159  557.6877
 160  533.5776
 161  643.9793
 162  573.5298
 163  508.7614
 164  463.1097
 165  712.6911
 166  759.5869
 167  871.1777
 168  842.6604
 169  853.4031
 170  803.5961
 171  894.9863
 172  893.4832
 173  816.0779
 174  639.9844
 175  784.9974
 176  859.1345
 177  773.3408
 178  565.7823
 179  681.105
 180  686.5854
 181  784.5269
 182  870.4658
 183  1138.076
 184  926.9308
 185  725.6802
 186  789.1046
 187  896.1877
 188  802.975
 189  746.0657
 190  957.2918
 191  1046.137
 192  1052.767
 193  955.8826
 194  807.1976
 195  710.5397
 196  755.1669
 197  801.8929
 198  815.9024
 199  699.8589
 200  685.2267
 201  755.3129
 202  841.0657
 203  818.5725
 204  902.3254
 205  1053.885
 206  1059.984
 207  913.0366
 208  915.2973
 209  882.3911
 210  866.1583
 211  769.8557
 212  955.2254
 213  987.6818
 214  939.0164
 215  761.8826
 216  698.826
 217  731.9814
 218  740.0392
 219  787.188
 220  872.6984
 221  887.5262
 222  793.5148
 223  797.9407
 224  806.3728
 225  811.3745
 226  836.8658
 227  885.9537
 228  837.6945
 229  732.2156
 230  732.157
 231  796.7524
 232  764.2218
 233  762.9016
 234  775.7893
 235  915.6618
 236  885.9204
 237  901.5306
 238  785.7657
 239  838.6176
 240  916.1848
 241  978.7369
 242  793.3771
 243  710.4662
 244  752.2301
 245  806.5442
 246  686.8491
 247  592.1599
 248  760.5342
 249  975.5017
 250  1102.63
 251  959.7975
 252  893.0882
 253  811.4828
 254  899.1055
 255  936.2635
 256  903.4489
 257  876.086
 258  851.7249
 259  757.8149
 260  638.8234
 261  567.623
 262  653.9308
 263  668.8628
 264  820.472
 265  904.3033
 266  987.469
 267  830.222
 268  813.3339
 269  842.4728
 270  927.965
 271  969.1139
 272  923.0944
 273  925.0052
 274  827.2159
 275  762.2004
 276  697.2642
 277  723.7199
 278  686.8161
 279  752.5722
 280  668.2391
 281  614.1881
 282  536.3918
 283  714.5524
 284  872.553
 285  994.6697
 286  991.7734
 287  950.7867
 288  961.0836
 289  915.9835
 290  902.3087
 291  930.8923
 292  834.8381
 293  792.1783
 294  718.4496
 295  709.2538
 296  597.0634
 297  437.7162
 298  558.7272
 299  661.7433
 300  807.7115
 301  943.8292
 302  1059.255
 303  998.211
 304  960.9837
 305  884.6103
 306  813.8962
 307  550.8635
 308  650.6686
 309  683.9454
 310  755.1283
 311  515.7174
 312  614.6845
 313  835.2938
 314  1068.707
 315  937.4901
 316  899.0661
 317  773.8158
 318  746.2993
 319  709.7729
 320  775.7897
 321  740.4839
 322  693.6608
 323  738.0277
 324  843.817
 325  772.7276
 326  808.5129
 327  849.0057
 328  895.6076
 329  748.9529
 330  696.1298
 331  822.5111
 332  867.0414
 333  810.1469
 334  766.2514
 335  842.9807
 336  803.3908
 337  752.6255
 338  678.9736
 339  676.9211
 340  590.9883
 341  617.0692
 342  568.1274
 343  657.2958
 344  675.1068
 345  794.466
 346  862.7977
 347  930.7714
 348  741.6623
 349  643.3654
 350  612.9309
 351  667.9661
 352  647.946
 353  810.7861
 354  962.7208
 355  977.1558
 356  890.1555
 357  887.1438
 358  1032.417
 359  1089.734
 360  1148.533
 361  992.1147
 362  785.2946
 363  580.4071
 364  630.5584
 365  619.727
 366  762.7207
 367  913.561
 368  1085.213
 369  1006.751
 370  910.2686
 371  913.1389
 372  931.8041
 373  996.7915
 374  1017.57
 375  1011.064
 376  753.5789
 377  456.0954
 378  469.872
 379  647.0618
 380  676.9052
 381  774.3311
 382  905.4127
 383  1142.327
 384  1116.379
 385  1045.592
 386  894.5172
 387  923.5214
 388  834.0103
 389  774.4288
 390  661.8047
 391  775.6175
 392  707.0709
 393  659.9846
 394  576.7171
 395  729.2878
 396  771.3721
 397  889.7913
 398  886.4764
 399  779.6053
 400  673.8483
 401  775.449
 402  924.6724
 403  869.7697
 404  676.2827
 405  640.0421
 406  659.0003
 407  658.9285
 408  515.4333
 409  595.277
 410  613.9143
 411  607.3414
 412  662.9282
 413  766.1337
 414  880.0936
 415  859.4678
 416  822.699
 417  889.1614
 418  822.6996
 419  857.3533
 420  838.5495
 421  839.488
 422  734.7398
 423  705.6803
 424  874.3351
 425  911.7913
 426  828.7734
 427  644.7509
 428  680.7421
 429  654.5932
 430  573.4644
 431  598.1575
 432  713.0789
 433  816.7726
 434  866.9508
 435  975.0424
 436  962.8099
 437  924.95
 438  803.2532
 439  769.666
 440  711.8777
 441  679.676
 442  699.1316
 443  671.8779
 444  568.9013
 445  553.3533
 446  700.3969
 447  722.5804
 448  669.241
 449  685.2902
 450  848.5198
 451  968.1271
 452  821.517
 453  759.936
 454  612.2679
 455  674.3411
 456  684.5857
 457  778.2291
 458  717.7805
 459  528.5709
 460  575.2531
 461  790.0021
 462  918.3579
 463  795.7105
 464  704.6377
 465  753.1523
 466  721.626
 467  530.1774
 468  569.8828
 469  675.2499
 470  888.2493
 471  954.7733
 472  1036.837
 473  853.3533
 474  616.7204
 475  541.0025
 476  746.2386
 477  787.7742
 478  639.526
 479  526.0989
 480  653.2051
 481  747.5294
 482  886.0427
 483  783.1089
 484  807.596
 485  784.9736
 486  899.0607
 487  952.6109
 488  849.4705
 489  759.5683
 490  643.7524
 491  583.723
 492  589.5425
 493  668.6348
 494  730.1154
 495  673.0639
 496  623.3618
 497  667.6213
 498  687.1748
 499  818.8945
 500  874.0925
 501  869.788
 502  825.1909
 503  691.5961
 504  767.7277
 505  788.8885
 506  785.3354
 507  757.618
 508  651.8564
 509  720.6879
 510  572.4454
 511  713.1889
 512  780.9413
 513  920.1559
 514  913.6782
 515  760.6478
 516  680.2871
 517  638.0857
 518  732.0044
 519  814.025
 520  893.3356
 521  947.993
 522  905.7337
 523  787.2702
 524  696.7096
 525  686.3052
 526  649.0748
 527  722.4589
 528  878.0228
 529  895.1381
 530  916.8594
 531  901.861
 532  954.9626
 533  858.0695
 534  862.2684
 535  956.699
 536  1043.734
 537  949.3612
 538  783.0731
 539  667.7733
 540  737.5696
 541  778.0416
 542  805.4755
 543  757.0084
 544  717.3198
 545  766.193
 546  801.8036
 547  851.9731
 548  705.5939
 549  703.99
 550  836.8813
 551  970.7623
 552  1026.514
 553  1011.563
 554  904.9962
 555  801.5705
 556  650.0742
 557  734.6229
 558  687.22
 559  761.6891
 560  639.9764
 561  710.3578
 562  684.5187
 563  726.8087
 564  753.8419
 565  925.4057
 566  1183.833
 567  1190.171
 568  1076.113
 569  990.205
 570  894.6804
 571  869.4806
 572  931.8348
 573  965.8446
 574  893.1909
 575  724.8704
 576  704.6312
 577  612.4858
 578  524.5803
 579  598.47
 580  719.9728
 581  749.2717
 582  672.601
 583  790.5717
 584  1094.089
 585  1057.848
 586  973.7628
 587  855.0844
 588  891.2624
 589  949.8905
 590  851.019
 591  698.2225
 592  607.7457
 593  603.004
 594  685.1006
 595  736.5558
 596  746.1659
 597  678.5196
 598  616.314
 599  626.2537
 600  600.9632
 601  663.1935
 602  708.5445
 603  854.928
 604  849.952
 605  661.7773
 606  377.6182
 607  284.4214
 608  431.5605
 609  693.3282
 610  888.6041
 611  903.2788
 612  821.493
 613  773.4904
 614  854.2179
 615  895.6928
 616  860.4042
 617  868.6671
 618  762.369
 619  615.2659
 620  496.14
 621  546.5965
 622  604.5239
 623  636.7075
 624  629.9959
 625  676.0521
 626  701.8487
 627  828.3755
 628  739.4032
 629  716.5709
 630  738.9185
 631  978.6657
 632  1082.095
 633  949.7159
 634  809.7402
 635  810.0535
 636  953.6699
 637  947.1863
 638  973.3995
 639  881.0229
 640  918.9816
 641  821.2138
 642  849.2247
 643  964.5333
 644  1062.449
 645  1121.63
 646  1171.395
 647  1322.894
 648  1655.712
 649  1795.157
 650  1778.012
 651  1626.845
 652  1650.133
 653  1727.579
 654  1791.295
 655  1628.377
 656  1465.258
 657  1290.106
 658  1228.814
 659  1093.992
 660  948.3193
 661  1030.197
 662  1137.945
 663  1172.415
 664  1102.542
 665  996.5654
 666  920.3717
 667  793.9062
 668  825.2117
 669  901.748
 670  913.9115
 671  813.1622
 672  765.8351
 673  803.6091
 674  794.2977
 675  710.7509
 676  743.0463
 677  810.2151
 678  806.4665
 679  730.9614
 680  720.9968
 681  765.1791
 682  798.9169
 683  789.3056
 684  846.6075
 685  907.5627
 686  1000.083
 687  955.1965
 688  815.817
 689  656.4443
 690  748.3492
 691  921.705
 692  987.4895
 693  860.041
 694  710.4302
 695  549.7468
 696  523.5977
 697  612.482
 698  786.6129
 699  964.8018
 700  996.5526
 701  1000.162
 702  852.4339
 703  775.8773
 704  659.5457
 705  633.3547
 706  504.4867
 707  374.1298
 708  385.3154
 709  486.8865
 710  654.8125
 711  679.8826
 712  759.1241
 713  1008.65
 714  1133.079
 715  1062.416
 716  934.9958
 717  1052.432
 718  1107.098
 719  1003.944
 720  733.7545
 721  765.8411
 722  809.015
 723  907.9216
 724  948.3109
 725  854.5712
 726  771.0007
 727  814.8939
 728  934.8488
 729  1099.669
 730  1096.242
 731  1120.688
 732  1094.533
 733  1073.144
 734  1157.887
 735  1086.589
 736  1026.891
 737  896.8402
 738  833.9697
 739  714.5675
 740  613.8291
 741  691.653
 742  739.6857
 743  786.687
 744  804.9549
 745  751.6157
 746  828.2947
 747  919.7284
 748  1017.436
 749  1101.832
 750  1135.421
 751  1112.701
 752  896.5815
 753  720.2054
 754  616.3227
 755  668.6412
 756  734.6718
 757  848.6554
 758  827.7392
 759  791.4395
 760  799.3887
 761  923.1994
 762  952.8859
 763  924.4333
 764  954.4148
 765  951.8669
 766  917.7281
 767  767.6971
 768  708.847
 769  804.8848
 770  773.9539
 771  823.5934
 772  701.7271
 773  790.2018
 774  665.0732
 775  744.8572
 776  768.6868
 777  856.6923
 778  756.563
 779  715.3228
 780  825.5256
 781  864.1475
 782  760.4464
 783  791.8538
 784  852.9698
 785  861.98
 786  765.1271
 787  838.2946
 788  894.1857
 789  766.6529
 790  656.8881
 791  708.3022
 792  889.412
 793  795.0011
 794  876.3929
 795  1014.005
 796  1117.168
 797  966.6152
 798  891.1115
 799  833.9101
 800  898.6575
 801  981.3995
 802  1099.654
 803  984.6526
 804  718.9738
 805  638.1995
 806  793.1959
 807  840.256
 808  713.3593
 809  709.0069
 810  784.5355
 811  878.5162
 812  767.9355
 813  758.0214
 814  736.0309
 815  782.9917
 816  749.858
 817  793.2518
 818  718.5623
 819  750.8164
 820  754.5777
 821  788.5204
 822  650.9196
 823  531.0628
 824  549.6124
 825  745.0245
 826  809.65
 827  647.9496
 828  525.8227
 829  651.1218
 830  830.1443
 831  975.2947
 832  955.4906
 833  970.7739
 834  957.9232
 835  882.869
 836  725.5064
 837  520.9087
 838  565.2381
 839  726.5054
 840  890.7986
 841  763.8973
 842  677.2119
 843  744.3967
 844  765.5502
 845  819.2428
 846  782.6063
 847  805.1379
 848  685.0392
 849  680.6314
 850  802.695
 851  867.3217
 852  837.7275
 853  845.8961
 854  871.6083
 855  663.6544
 856  625.4593
 857  627.3172
 858  654.3732
 859  585.3015
 860  577.5192
 861  646.7892
 862  630.8867
 863  715.3546
 864  704.6861
 865  804.1574
 866  876.3734
 867  936.29
 868  897.0884
 869  822.6606
 870  813.2261
 871  782.3043
 872  656.951
 873  596.8293
 874  466.1336
 875  563.4605
 876  597.4308
 877  797.0837
 878  781.6174
 879  823.2434
 880  709.5659
 881  848.7564
 882  944.6866
 883  1055.362
 884  982.0423
 885  925.5675
 886  761.223
 887  721.0699
 888  732.4636
 889  841.5038
 890  904.9139
 891  935.6958
 892  803.3563
 893  688.0157
 894  767.0497
 895  966.8562
 896  1057.097
 897  895.5014
 898  949.0715
 899  1118.901
 900  1158.416
 901  914.1444
 902  792.6934
 903  825.3278
 904  1042.875
 905  1015.973
 906  898.2248
 907  557.4066
 908  542.7841
 909  596.9594
 910  856.1579
 911  685.2151
 912  832.869
 913  1013.14
 914  1212.976
 915  1126.444
 916  899.902
 917  903.0237
 918  968.4445
 919  962.8801
 920  971.2451
 921  931.1041
 922  946.2349
 923  764.9495
 924  775.0494
 925  846.6179
 926  946.2364
 927  1018.135
 928  1026.036
 929  1024.89
 930  856.9383
 931  859.9481
 932  860.9177
 933  956.0925
 934  891.4716
 935  1011.201
 936  890.5067
 937  746.5028
 938  672.1988
 939  704.3033
 940  900.9634
 941  949.7391
 942  1059.143
 943  1138.144
 944  1095.526
 945  1009.746
 946  905.5737
 947  872.3372
 948  920.3635
 949  963.9966
 950  972.2029
 951  917.7291
 952  919.3042
 953  868.552
 954  876.9417
 955  764.7316
 956  796.3376
 957  704.6392
 958  763.6537
 959  759.2733
 960  852.9647
 961  866.9198
 962  919.9081
 963  930.7396
 964  1121.52
 965  1032.66
 966  974.0052
 967  774.4229
 968  750.8002
 969  838.7702
 970  824.1426
 971  821.2329
 972  702.7781
 973  730.8567
 974  857.2627
 975  963.0739
 976  865.2706
 977  915.8924
 978  954.1472
 979  1075.765
 980  1154.092
 981  1046.373
 982  977.504
 983  873.2623
 984  1008.191
 985  946.4427
 986  848.0308
 987  900.0159
 988  1008.224
 989  969.8322
 990  873.411
 991  1003.195
 992  1024.722
 993  1078.458
 994  943.0605
 995  961.7723
 996  909.172
 997  934.0414
 998  916.7034
 999  838.7388
1000  866.9268
1001  854.9766
1002  983.1575
1003  858.3717
1004  675.82
1005  478.7081
1006  508.9799
1007  538.1062
1008  589.4958
1009  723.5561
1010  978.8599
1011  1168.347
1012  1067.463
1013  955.3423
1014  883.3623
1015  982.2273
1016  956.5694
1017  1019.919
1018  1026.817
1019  924.991
1020  796.3074
1021  720.8804
1022  901.6018
1023  974.2114
