# Input file       =  1183439200.089815_cleaned.dat
# Candidate        =  PSR_0332+5434
# Telescope        =  AR
# Epoch_topo       =  57941.213183909895
# Epoch_bary       =  N/A
# T_sample         =  0.002
# Data Folded      =  7340032
# Data Avg         =  0.0444988543480607
# Data StdDev      =  0.999927402424868
# Profile Bins     =  512
# Profile Avg      =  637.930582630617 
# Profile StdDev   =  119.724344048662 
# Reduced chi-sqr  =  1.488
# Prob(Noise)      <  4.61e-12   (~6.8 sigma)
# P_topo (ms)      =  714.484417543506  +/- 0.000456
# P'_topo (s/s)    =  -0                +/- 2.41e-10
# P''_topo (s/s^2) =  0                 +/- 1.06e-13
# P_bary (ms)      =  N/A
# P'_bary (s/s)    =  N/A
# P''_bary (s/s^2) =  N/A
# P_orb (s)        =  N/A
# asin(i)/c (s)    =  N/A
# eccentricity     =  N/A
# w (rad)          =  N/A
# T_peri           =  N/A
######################################################
   0  1101.182
   1  1227.956
   2  1064.464
   3  820.1613
   4  720.5006
   5  611.7275
   6  716.3326
   7  655.4264
   8  770.0486
   9  817.8424
  10  817.1409
  11  791.9995
  12  715.7009
  13  771.4395
  14  702.2495
  15  802.6082
  16  807.6537
  17  720.4342
  18  748.6849
  19  766.9377
  20  718.0306
  21  822.8505
  22  740.8707
  23  731.9026
  24  688.4368
  25  706.2754
  26  765.6134
  27  716.6324
  28  703.4792
  29  598.0746
  30  601.6524
  31  753.7407
  32  788.8301
  33  722.0449
  34  722.6789
  35  658.3495
  36  545.3759
  37  695.5402
  38  717.2243
  39  647.8386
  40  650.8342
  41  618.1953
  42  662.7383
  43  674.8547
  44  620.8616
  45  525.9623
  46  472.807
  47  649.24
  48  764.7145
  49  708.7301
  50  676.7989
  51  572.3975
  52  510.6538
  53  500.3789
  54  603.4286
  55  486.9475
  56  512.3929
  57  487.7312
  58  436.716
  59  536.7637
  60  504.1938
  61  438.5281
  62  405.3276
  63  546.0593
  64  731.1202
  65  716.8177
  66  680.5451
  67  708.8102
  68  625.4976
  69  619.6855
  70  567.2654
  71  610.0383
  72  676.1415
  73  618.3006
  74  591.4664
  75  622.8196
  76  618.8339
  77  577.2477
  78  538.1893
  79  520.893
  80  587.8771
  81  465.7894
  82  436.6011
  83  639.6162
  84  623.9697
  85  526.7833
  86  472.3662
  87  473.0528
  88  541.4272
  89  521.3956
  90  396.6821
  91  473.202
  92  510.2337
  93  557.9112
  94  536.7723
  95  532.4694
  96  475.1013
  97  450.4532
  98  486.6868
  99  539.4208
 100  621.4653
 101  686.1025
 102  535.0869
 103  573.7635
 104  515.7171
 105  610.8367
 106  601.1743
 107  538.5649
 108  447.6931
 109  570.8149
 110  715.9834
 111  680.0865
 112  680.0319
 113  624.4353
 114  807.0642
 115  832.3917
 116  795.5575
 117  753.6313
 118  707.3869
 119  661.5547
 120  642.8503
 121  683.2404
 122  685.2352
 123  683.7042
 124  685.8848
 125  582.8654
 126  592.149
 127  596.3022
 128  637.3652
 129  504.7164
 130  495.1013
 131  530.7919
 132  504.0582
 133  653.3467
 134  627.3972
 135  591.4597
 136  507.0826
 137  482.184
 138  461.1932
 139  575.9609
 140  646.8423
 141  540.7287
 142  524.2412
 143  550.6159
 144  548.1543
 145  502.6808
 146  559.8269
 147  520.2836
 148  499.212
 149  589.2982
 150  683.9959
 151  658.9251
 152  672.5115
 153  538.8696
 154  642.2717
 155  663.2368
 156  560.807
 157  515.55
 158  517.6302
 159  632.1201
 160  551.0435
 161  597.7307
 162  658.5138
 163  564.4985
 164  493.5357
 165  556.6655
 166  626.0535
 167  653.5998
 168  571.1536
 169  511.6408
 170  584.1197
 171  608.0653
 172  673.032
 173  709.6742
 174  485.4157
 175  511.4174
 176  705.3326
 177  672.6754
 178  635.2392
 179  590.7268
 180  579.5887
 181  625.2046
 182  594.2602
 183  528.3349
 184  575.8571
 185  573.1293
 186  568.7656
 187  603.6579
 188  642.7381
 189  640.956
 190  569.3049
 191  642.1504
 192  692.5117
 193  661.3191
 194  651.6962
 195  590.5974
 196  565.7292
 197  607.804
 198  626.1546
 199  542.6601
 200  576.5176
 201  609.5229
 202  512.996
 203  540.4634
 204  598.3389
 205  631.8462
 206  672.3146
 207  667.4993
 208  672.5273
 209  607.4699
 210  592.6252
 211  565.008
 212  504.242
 213  446.0428
 214  570.1779
 215  493.7988
 216  509.3443
 217  554.7762
 218  438.9078
 219  509.5891
 220  548.0894
 221  514.6955
 222  393.968
 223  450.8479
 224  635.6331
 225  684.8774
 226  669.0247
 227  613.9124
 228  602.496
 229  649.7445
 230  743.3104
 231  716.7653
 232  656.8165
 233  691.3169
 234  708.7358
 235  634.8621
 236  659.7097
 237  729.2841
 238  693.3058
 239  598.9072
 240  648.416
 241  742.6313
 242  665.627
 243  623.5868
 244  628.1639
 245  614.1534
 246  579.9107
 247  641.1734
 248  590.6978
 249  610.5816
 250  583.7821
 251  635.9895
 252  775.293
 253  729.3085
 254  570.3153
 255  598.9514
 256  677.5764
 257  620.3399
 258  582.3482
 259  543.0225
 260  743.9746
 261  703.9171
 262  722.356
 263  563.9871
 264  532.467
 265  578.2817
 266  663.2068
 267  670.3629
 268  556.7922
 269  570.1525
 270  616.9702
 271  565.4453
 272  622.8237
 273  643.8814
 274  660.7305
 275  710.8381
 276  557.0431
 277  622.0819
 278  653.5302
 279  679.6797
 280  636.1309
 281  523.3734
 282  540.6306
 283  643.7032
 284  608.4117
 285  577.8828
 286  571.1358
 287  633.7859
 288  562.1996
 289  614.124
 290  656.9165
 291  543.4941
 292  491.6825
 293  714.1949
 294  762.0996
 295  758.215
 296  655.6917
 297  621.0161
 298  675.7424
 299  712.4359
 300  638.3849
 301  718.1979
 302  695.7452
 303  636.8287
 304  683.9589
 305  681.8548
 306  772.3651
 307  736.7538
 308  703.9106
 309  725.0152
 310  788.5185
 311  767.0852
 312  763.7487
 313  760.621
 314  757.1014
 315  679.8764
 316  701.5324
 317  643.5959
 318  713.5054
 319  775.4335
 320  635.7047
 321  657.8754
 322  676.0972
 323  748.701
 324  729.9865
 325  688.9572
 326  607.5137
 327  659.8351
 328  663.2906
 329  714.1533
 330  774.2548
 331  758.9669
 332  792.848
 333  758.4164
 334  806.446
 335  776.8287
 336  637.5121
 337  573.3331
 338  622.4332
 339  597.1583
 340  658.6422
 341  652.262
 342  624.4203
 343  603.1703
 344  673.9187
 345  659.5808
 346  692.0939
 347  630.7986
 348  594.2462
 349  694.663
 350  683.6038
 351  698.7861
 352  530.1326
 353  591.7989
 354  678.9909
 355  732.9675
 356  795.9552
 357  731.4333
 358  643.2603
 359  793.0837
 360  772.2086
 361  632.7144
 362  691.1328
 363  736.8782
 364  625.1202
 365  586.5389
 366  681.3633
 367  780.2826
 368  640.7053
 369  614.8269
 370  662.1882
 371  629.2944
 372  589.3629
 373  579.7559
 374  654.6227
 375  583.7109
 376  606.899
 377  617.7464
 378  563.3434
 379  560.8933
 380  594.0577
 381  623.986
 382  476.8626
 383  545.3903
 384  624.0407
 385  645.7881
 386  621.1512
 387  574.8687
 388  508.6119
 389  569.8613
 390  729.5739
 391  649.0466
 392  596.1556
 393  603.3013
 394  630.2796
 395  613.4055
 396  574.7805
 397  570.0333
 398  549.1953
 399  597.0068
 400  550.9641
 401  434.3397
 402  574.6679
 403  597.4528
 404  521.6309
 405  464.6621
 406  463.3344
 407  610.6464
 408  557.0128
 409  617.3751
 410  646.9418
 411  530.9589
 412  508.3718
 413  629.5557
 414  600.3256
 415  551.769
 416  596.1924
 417  541.6011
 418  622.6147
 419  661.6498
 420  659.4453
 421  628.2115
 422  631.2255
 423  642.1932
 424  586.3835
 425  602.8718
 426  685.6471
 427  589.4755
 428  543.6274
 429  548.7288
 430  548.0278
 431  581.905
 432  606.913
 433  652.137
 434  640.7795
 435  638.3887
 436  603.6163
 437  639.6223
 438  604.61
 439  679.6343
 440  598.7917
 441  656.8566
 442  658.0927
 443  501.9419
 444  671.1873
 445  703.9771
 446  719.4573
 447  614.8809
 448  610.2797
 449  530.0614
 450  504.2855
 451  649.2902
 452  592.3239
 453  577.8047
 454  699.9504
 455  710.9184
 456  617.4393
 457  545.7894
 458  497.6639
 459  624.9588
 460  803.287
 461  610.3265
 462  446.1571
 463  596.2982
 464  621.4014
 465  551.7141
 466  704.7738
 467  716.919
 468  696.5711
 469  652.4922
 470  734.3267
 471  706.2893
 472  661.831
 473  721.2125
 474  695.1534
 475  703.4699
 476  610.147
 477  561.85
 478  670.4717
 479  637.6878
 480  645.4044
 481  630.9093
 482  679.2991
 483  563.196
 484  616.0554
 485  739.3772
 486  695.6017
 487  697.5314
 488  689.4373
 489  631.7228
 490  748.5723
 491  866.4787
 492  741.9119
 493  699.8057
 494  791.2855
 495  889.7167
 496  867.2291
 497  833.9954
 498  812.4996
 499  766.0276
 500  778.5951
 501  814.4358
 502  844.9819
 503  879.6323
 504  801.7244
 505  707.1942
 506  714.2473
 507  827.0586
 508  885.2169
 509  1100.85
 510  1183.19
 511  1197.468
