# Input file       =  1183869605.095054_cleaned.dat
# Candidate        =  PSR_0332+5434
# Telescope        =  AR
# Epoch_topo       =  57946.194723322384
# Epoch_bary       =  N/A
# T_sample         =  0.002
# Data Folded      =  7340032
# Data Avg         =  0.32639705854464 
# Data StdDev      =  6.16313014901236 
# Profile Bins     =  256
# Profile Avg      =  9359.00463591078 
# Profile StdDev   =  1043.59101900871 
# Reduced chi-sqr  =  0.844
# Prob(Noise)      <  0.967   (~0.0 sigma)
# P_topo (ms)      =  714.480828338949  +/- 0.000105
# P'_topo (s/s)    =  -0                +/- 5.55e-11
# P''_topo (s/s^2) =  0                 +/- 2.45e-14
# P_bary (ms)      =  N/A
# P'_bary (s/s)    =  N/A
# P''_bary (s/s^2) =  N/A
# P_orb (s)        =  N/A
# asin(i)/c (s)    =  N/A
# eccentricity     =  N/A
# w (rad)          =  N/A
# T_peri           =  N/A
######################################################
   0  8784.979
   1  8889.892
   2  8994.975
   3  8382.749
   4  8371.831
   5  9205.831
   6  8832.168
   7  8907.771
   8  9710.577
   9  9438.364
  10  9555.725
  11  9411.257
  12  9459.388
  13  8935.94
  14  9395.012
  15  9361.436
  16  9432.74
  17  8940.388
  18  9343.226
  19  9970.249
  20  9937.522
  21  10498.16
  22  10674.58
  23  9187.773
  24  8777.576
  25  9349.7
  26  8511.792
  27  8529.827
  28  9481.902
  29  9489.647
  30  9779.038
  31  10701.61
  32  8592.76
  33  9631.048
  34  8496.497
  35  6129.454
  36  9602.501
  37  10164.86
  38  8869.347
  39  10880.02
  40  10623.1
  41  8444.093
  42  9098.235
  43  9518.278
  44  8348.15
  45  9215.24
  46  10022.6
  47  9481.021
  48  9807.944
  49  9519.019
  50  8973.734
  51  10165.08
  52  9791.116
  53  9063.686
  54  10161.88
  55  10158.76
  56  8687.609
  57  8867.093
  58  8911.164
  59  8799.746
  60  10148.57
  61  9544.409
  62  9845.397
  63  9750.828
  64  10003.89
  65  9463.124
  66  9661.451
  67  9572.063
  68  8976.067
  69  9366.369
  70  9254.62
  71  9165.604
  72  8578.686
  73  9730.408
  74  9436.644
  75  9655.576
  76  10026.12
  77  10310.27
  78  8916.289
  79  9836.821
  80  10491.06
  81  9920.64
  82  10179.2
  83  9531.445
  84  8177.325
  85  9207.864
  86  9485.866
  87  9287.211
  88  9966.115
  89  9942.009
  90  9642.205
  91  10295.69
  92  10084.17
  93  9575.633
  94  10005.01
  95  9114.901
  96  8373.946
  97  8709.407
  98  8622.248
  99  8695.875
 100  9789.304
 101  10090.61
 102  9246.224
 103  7757.928
 104  8228.348
 105  9518.083
 106  9584.872
 107  10804.66
 108  10658.44
 109  10306.76
 110  10682.87
 111  9850.813
 112  9149.567
 113  10132.9
 114  10283.12
 115  11099.38
 116  11734.19
 117  11216.59
 118  10394.28
 119  11154.05
 120  9214.796
 121  9237.606
 122  8676.339
 123  7757.752
 124  7824.86
 125  9408.18
 126  8562.356
 127  8671.979
 128  8818.906
 129  7787.96
 130  8941.446
 131  9301.554
 132  9507.801
 133  9385.365
 134  10489.11
 135  10498.83
 136  10457.43
 137  10519.16
 138  10965.78
 139  9849.557
 140  9439.332
 141  9783.22
 142  9074.719
 143  9891.576
 144  10015.02
 145  8820.23
 146  9516.206
 147  8739.229
 148  7668.147
 149  9498.964
 150  8216.884
 151  8900.96
 152  10162.04
 153  10621.02
 154  8774.938
 155  9046.489
 156  10037.45
 157  8108.804
 158  8985.219
 159  9981.908
 160  7474.391
 161  10014.22
 162  12902.07
 163  10676.6
 164  10885.93
 165  10572.37
 166  8629.146
 167  9043.475
 168  9629.181
 169  8441.416
 170  9951.23
 171  9594.543
 172  8001.785
 173  8930.141
 174  9846.381
 175  9049.721
 176  8682.516
 177  9071.848
 178  9461.007
 179  8397.478
 180  9960.925
 181  9098.937
 182  7274.571
 183  8166.966
 184  8613.539
 185  8618.103
 186  8632.481
 187  9075.942
 188  8401.88
 189  8849.388
 190  9179.646
 191  8665.981
 192  9164.183
 193  9237.918
 194  9479.401
 195  10037.05
 196  9188.667
 197  9301.25
 198  9697.52
 199  10265.65
 200  9303.674
 201  10587.38
 202  10535.46
 203  9426.445
 204  10828.68
 205  10150.97
 206  9503.366
 207  9842.745
 208  9449.326
 209  8674.964
 210  9548.09
 211  8896.765
 212  9250.498
 213  9610.065
 214  9154.849
 215  9311.8
 216  9608.699
 217  8688.202
 218  8808.113
 219  8933.797
 220  8185.874
 221  8188.66
 222  9030.116
 223  9091.096
 224  7822.174
 225  8784.601
 226  8952.957
 227  8011.251
 228  7953.713
 229  8384.829
 230  8680.564
 231  9836.437
 232  8365.785
 233  8723.685
 234  9907.45
 235  8952.199
 236  9113.067
 237  9017.804
 238  8894.932
 239  9228.972
 240  10078.94
 241  9836.108
 242  10352.55
 243  9337.171
 244  8420.686
 245  9287.126
 246  9076.645
 247  7350.745
 248  8960.865
 249  9063.332
 250  9045.45
 251  9757.203
 252  10251.19
 253  8044.579
 254  9440.255
 255  10535.99
