# Input file       =  1183525578.105013_cleaned.dat
# Candidate        =  PSR_0332+5434
# Telescope        =  AR
# Epoch_topo       =  57942.212929456167
# Epoch_bary       =  N/A
# T_sample         =  0.002
# Data Folded      =  7340032
# Data Avg         =  0.2753014823268  
# Data StdDev      =  4.30824935915569 
# Profile Bins     =  256
# Profile Avg      =  7894.0917727257  
# Profile StdDev   =  729.507608984279 
# Reduced chi-sqr  =  0.980
# Prob(Noise)      <  0.578   (~0.0 sigma)
# P_topo (ms)      =  714.483681905578  +/- 0.000496
# P'_topo (s/s)    =  -0                +/- 2.62e-10
# P''_topo (s/s^2) =  0                 +/- 1.16e-13
# P_bary (ms)      =  N/A
# P'_bary (s/s)    =  N/A
# P''_bary (s/s^2) =  N/A
# P_orb (s)        =  N/A
# asin(i)/c (s)    =  N/A
# eccentricity     =  N/A
# w (rad)          =  N/A
# T_peri           =  N/A
######################################################
   0  8992.619
   1  8630.704
   2  8222.419
   3  8075.05
   4  8384.034
   5  8297.726
   6  8284.868
   7  8374
   8  8639.863
   9  8165.97
  10  8069.902
  11  7652.593
  12  7988.338
  13  8205.408
  14  8392.244
  15  8067.728
  16  8076.653
  17  7864.498
  18  7628.584
  19  6988.828
  20  6802.245
  21  7297.862
  22  7070.375
  23  7822.417
  24  8454.322
  25  8061.07
  26  7914.038
  27  7923.801
  28  8220.805
  29  7895.371
  30  7652.431
  31  7409.901
  32  7316.678
  33  7910.276
  34  6868.961
  35  7038.666
  36  6872.459
  37  7011.955
  38  7355.379
  39  7083.076
  40  7219.786
  41  7839.431
  42  8277.102
  43  8222.738
  44  7562.033
  45  7750.472
  46  7516.303
  47  8301.026
  48  8316.51
  49  7868.629
  50  8582.27
  51  8584.51
  52  8720.896
  53  7642.865
  54  8227.832
  55  8510.825
  56  8629.826
  57  8829.87
  58  8191.754
  59  7911.722
  60  7989.185
  61  7444.477
  62  7023.323
  63  7468.229
  64  8123.718
  65  7709.882
  66  8372.669
  67  7844.881
  68  7949.109
  69  7847.978
  70  8116.746
  71  8140.532
  72  8434.547
  73  7403.149
  74  8085.625
  75  8178.942
  76  8348.444
  77  8608.12
  78  7976.363
  79  8116.896
  80  8311.153
  81  8233.016
  82  8115.99
  83  7747.541
  84  7279.241
  85  7561.875
  86  7672.929
  87  8484.513
  88  7238.716
  89  7421.52
  90  8727.429
  91  8486.74
  92  8083.803
  93  7981.208
  94  8203.08
  95  8444.303
  96  7591.238
  97  7734.812
  98  7106.033
  99  7757.117
 100  8120.093
 101  8153.136
 102  8451.146
 103  7934.292
 104  7334.682
 105  6906.36
 106  7254.154
 107  8509.051
 108  7411.491
 109  7532.295
 110  8281.404
 111  8170.787
 112  8757.036
 113  8561.786
 114  7919.017
 115  8234.335
 116  7594.18
 117  7507.298
 118  8141.313
 119  7751.137
 120  7045.256
 121  7496.332
 122  8161.02
 123  7534.619
 124  7885.441
 125  7837.713
 126  8110.417
 127  8359.841
 128  8384.228
 129  8382.241
 130  8393.062
 131  8232.498
 132  7938.292
 133  8382.663
 134  7837.437
 135  8283.74
 136  7643.665
 137  8075.947
 138  8136.985
 139  7553.13
 140  6874.324
 141  8038.23
 142  8077.599
 143  7324.263
 144  7888.236
 145  8474.86
 146  7768.95
 147  7470.585
 148  8644.306
 149  8445.488
 150  8478.983
 151  7740.527
 152  7932.544
 153  8590.332
 154  8075.02
 155  8183.804
 156  7518.859
 157  7726.193
 158  7946.869
 159  8185.926
 160  8875.587
 161  8764.053
 162  10981.06
 163  11846.98
 164  10263.56
 165  9041.366
 166  8335.275
 167  7702.031
 168  7868.633
 169  8306.63
 170  8333.843
 171  7645.996
 172  7629.695
 173  8057.354
 174  7397.177
 175  7256.502
 176  6980.941
 177  6674.216
 178  7336.476
 179  7343.662
 180  7157.188
 181  7514.836
 182  7601.23
 183  7759.09
 184  7588.701
 185  7648.056
 186  7443.435
 187  6998.609
 188  7438.041
 189  7342.17
 190  7712.704
 191  7804.792
 192  7025.492
 193  6769.96
 194  6877.174
 195  6735.533
 196  7192.015
 197  7358.231
 198  7631.08
 199  8174.902
 200  7658.553
 201  7373.438
 202  7598.008
 203  7717.665
 204  7652.063
 205  7483.76
 206  8089.532
 207  8089.333
 208  7037.582
 209  7606.064
 210  8262.195
 211  8099.399
 212  7049.947
 213  7211.132
 214  7351.15
 215  7234.847
 216  7323.537
 217  8027.562
 218  7511.972
 219  7445.604
 220  7924.536
 221  7721.826
 222  6855.643
 223  6734.446
 224  6925.478
 225  7593.183
 226  8553.695
 227  7814.228
 228  7832.971
 229  7556.895
 230  8232.188
 231  8138.584
 232  8519.858
 233  7212.661
 234  7835.084
 235  7804.475
 236  7809.176
 237  7080.37
 238  7174.602
 239  7295.669
 240  7868.519
 241  7398.507
 242  7747.007
 243  7688.13
 244  7932.943
 245  7979.146
 246  7817.655
 247  7600.295
 248  8063.235
 249  8446.521
 250  8044.472
 251  8457.774
 252  9004.417
 253  9370.451
 254  9144.149
 255  8830.07
