# Input file       =  1183869605.095054_cleaned.dat
# Candidate        =  PSR_0332+5434
# Telescope        =  AR
# Epoch_topo       =  57946.194723322384
# Epoch_bary       =  N/A
# T_sample         =  0.002
# Data Folded      =  7340032
# Data Avg         =  0.32639705854464 
# Data StdDev      =  6.16313014901236 
# Profile Bins     =  1024
# Profile Avg      =  2339.75115897682 
# Profile StdDev   =  521.795509504357 
# Reduced chi-sqr  =  0.663
# Prob(Noise)      <  1   (~0.0 sigma)
# P_topo (ms)      =  714.480828348616  +/- 8.17e-05
# P'_topo (s/s)    =  -0                +/- 4.31e-11
# P''_topo (s/s^2) =  0                 +/- 1.9e-14
# P_bary (ms)      =  N/A
# P'_bary (s/s)    =  N/A
# P''_bary (s/s^2) =  N/A
# P_orb (s)        =  N/A
# asin(i)/c (s)    =  N/A
# eccentricity     =  N/A
# w (rad)          =  N/A
# T_peri           =  N/A
######################################################
   0  2149.352
   1  2058.163
   2  2244.674
   3  2250.314
   4  2128.967
   5  2210.399
   6  2278.802
   7  2316.712
   8  2296.215
   9  2292.534
  10  2252.586
  11  1963.833
  12  1930.363
  13  2132.538
  14  2225.597
  15  2251.544
  16  2026.622
  17  2023.445
  18  2088.54
  19  2260.98
  20  2409.208
  21  2443.849
  22  2182.122
  23  2052.792
  24  1984.614
  25  2325.519
  26  2335.82
  27  2238.469
  28  2092.844
  29  2172.265
  30  2315.992
  31  2453.604
  32  2479.276
  33  2519.84
  34  2403.911
  35  2133.91
  36  2340.842
  37  2372.912
  38  2524.506
  39  2354.563
  40  2446.852
  41  2367.204
  42  2370.413
  43  2376.085
  44  2426.406
  45  2355.931
  46  2316.808
  47  2324.883
  48  2339.723
  49  2352.564
  50  2365.818
  51  2404.212
  52  2406.439
  53  2174.135
  54  2064.851
  55  2154.368
  56  2308.954
  57  2361.873
  58  2445.123
  59  2366.35
  60  2288.909
  61  2221.157
  62  2417.64
  63  2522.608
  64  2510.016
  65  2332.091
  66  2256.245
  67  2151.194
  68  2124.305
  69  2315.853
  70  2340.131
  71  2164.216
  72  2157.573
  73  2253.677
  74  2587.549
  75  2534.132
  76  2501.685
  77  2456.823
  78  2464.573
  79  2511.865
  80  2514.16
  81  2535.67
  82  2476.553
  83  2339.902
  84  2377.073
  85  2701.504
  86  2836.832
  87  2840.717
  88  2885.932
  89  2711.169
  90  2545.764
  91  2293.002
  92  2464.844
  93  2314.252
  94  2233.682
  95  2037.006
  96  2030.146
  97  2122.073
  98  2316.827
  99  2594.796
 100  2542.116
 101  2374.249
 102  2097.701
 103  2051.967
 104  2157.756
 105  2227.083
 106  2089.724
 107  2011.359
 108  1985.547
 109  2145.648
 110  2209.183
 111  2426.462
 112  2395.046
 113  2415.97
 114  2258.985
 115  2343.032
 116  2393.372
 117  2441.449
 118  2323.901
 119  2365.642
 120  2413.806
 121  2307.654
 122  2495.055
 123  2717.732
 124  2946.244
 125  2705.341
 126  2516.701
 127  2309.635
 128  2054.863
 129  1995.898
 130  2211.712
 131  2407.366
 132  2595.39
 133  2364.764
 134  2314.649
 135  2200.547
 136  2190.464
 137  2160.233
 138  2084.6
 139  1898.094
 140  1657.165
 141  1308.477
 142  1441.057
 143  1773.805
 144  2236.913
 145  2476.222
 146  2641.904
 147  2566.562
 148  2502.402
 149  2564.103
 150  2616.344
 151  2355.094
 152  2154.795
 153  2146.986
 154  2244.738
 155  2354.519
 156  2606.971
 157  2759.098
 158  2907.81
 159  2840.61
 160  2893.932
 161  2696.763
 162  2484.14
 163  2293.221
 164  2188.302
 165  2100.716
 166  1981.134
 167  2104.141
 168  2292.994
 169  2370.958
 170  2217.034
 171  2344.244
 172  2524.85
 173  2554.648
 174  2216.582
 175  2023.213
 176  1997.621
 177  2074.331
 178  2158.038
 179  2207.824
 180  2146.423
 181  2293.202
 182  2313.424
 183  2712.435
 184  2615.014
 185  2449.901
 186  2347.035
 187  2522.236
 188  2565.28
 189  2292.751
 190  2218.121
 191  2300.481
 192  2476.852
 193  2437.154
 194  2452.608
 195  2559.35
 196  2501.18
 197  2359.315
 198  2220.979
 199  2367.567
 200  2307.081
 201  2195.119
 202  2185.475
 203  2197.054
 204  2344.638
 205  2551.118
 206  2765.527
 207  2694.366
 208  2526.623
 209  2370.094
 210  2393.052
 211  2364.75
 212  2279.282
 213  2215.507
 214  2249.852
 215  2311.487
 216  2384.793
 217  2561.268
 218  2754.576
 219  2571.317
 220  2472.408
 221  2520.395
 222  2625.469
 223  2432.248
 224  2189.646
 225  2197.342
 226  2113.051
 227  2048.871
 228  2174.686
 229  2318.143
 230  2285.476
 231  2067.074
 232  2156.834
 233  2317.396
 234  2302.626
 235  2265.935
 236  2231.317
 237  2244.003
 238  2058.967
 239  2266.094
 240  2471.291
 241  2679.82
 242  2556.702
 243  2568.007
 244  2493.495
 245  2366.184
 246  2268.578
 247  2346.959
 248  2550.041
 249  2543.194
 250  2360.696
 251  2366.846
 252  2363.02
 253  2422.954
 254  2496.042
 255  2607.776
 256  2646.084
 257  2503.513
 258  2402.418
 259  2351.217
 260  2356.577
 261  2372.256
 262  2338.178
 263  2361.052
 264  2342.403
 265  2426.557
 266  2451.529
 267  2544.038
 268  2479.815
 269  2373.531
 270  2269.104
 271  2347.383
 272  2443.594
 273  2338.183
 274  2113.744
 275  1847.041
 276  2047.017
 277  2340.42
 278  2679.627
 279  2690.959
 280  2484.11
 281  2204.486
 282  2132.334
 283  2220.953
 284  2304.511
 285  2384.865
 286  2275.61
 287  2141.909
 288  1955.841
 289  2129.024
 290  2269.63
 291  2315.48
 292  2335.328
 293  2559.365
 294  2436.318
 295  2401.702
 296  2209.071
 297  2442.462
 298  2368.7
 299  2485.665
 300  2444.29
 301  2412.542
 302  2374.213
 303  2474.537
 304  2550.525
 305  2421.643
 306  2468.052
 307  2645.002
 308  2771.087
 309  2606.649
 310  2401.84
 311  2331.319
 312  2179.173
 313  2277.983
 314  2211.328
 315  2213.159
 316  2305.489
 317  2521.909
 318  2604.781
 319  2627.088
 320  2629.006
 321  2708.05
 322  2530.397
 323  2549.493
 324  2499.681
 325  2433.261
 326  2449.846
 327  2570.165
 328  2602.146
 329  2498.738
 330  2555.315
 331  2474.081
 332  2452.101
 333  2256.491
 334  2412.58
 335  2292.279
 336  2118.644
 337  1932.211
 338  1953.929
 339  2147.987
 340  2208.824
 341  2291.014
 342  2441.888
 343  2375.832
 344  2415.895
 345  2349.511
 346  2382.279
 347  2268.781
 348  2198.894
 349  2358.107
 350  2377.659
 351  2441.837
 352  2491.076
 353  2579.489
 354  2510.957
 355  2352.339
 356  2409.402
 357  2564.734
 358  2541.456
 359  2498.669
 360  2449.332
 361  2416.371
 362  2336.79
 363  2524.563
 364  2531.505
 365  2600.269
 366  2518.347
 367  2596.687
 368  2602.437
 369  2532.312
 370  2432.767
 371  2492.991
 372  2574.147
 373  2381.697
 374  2191.412
 375  2317.804
 376  2431.143
 377  2582.887
 378  2553.912
 379  2515.235
 380  2497.953
 381  2194.226
 382  2180.474
 383  1998.356
 384  1939.663
 385  1978.815
 386  2256.949
 387  2395.597
 388  2351.637
 389  2014.242
 390  2103.754
 391  2152.581
 392  2149.536
 393  2149.364
 394  2123.037
 395  2152.112
 396  2164.652
 397  2153.882
 398  2250.085
 399  2200.564
 400  2301.993
 401  2506.885
 402  2559.877
 403  2544.946
 404  2554.878
 405  2520.607
 406  2530.216
 407  2451.012
 408  2399.743
 409  2310.511
 410  2235.687
 411  2090.925
 412  2134.826
 413  1908.695
 414  1862.898
 415  1689.217
 416  1877.021
 417  2111.614
 418  2210.776
 419  2390.11
 420  2493.539
 421  2397.12
 422  2294.853
 423  2276.74
 424  2422.177
 425  2347.443
 426  2441.065
 427  2493.858
 428  2673.849
 429  2736.854
 430  2748.333
 431  2698.315
 432  2652.149
 433  2684.682
 434  2635.654
 435  2731.433
 436  2521.864
 437  2544.343
 438  2528.85
 439  2650.284
 440  2643.856
 441  2652.343
 442  2717.87
 443  2691.235
 444  2439.931
 445  2417.102
 446  2436.36
 447  2393.673
 448  2304.478
 449  2191.019
 450  2313.651
 451  2352.157
 452  2461.457
 453  2532.615
 454  2632.881
 455  2620.66
 456  2481.634
 457  2491.416
 458  2637.346
 459  2823.4
 460  2825.857
 461  2751.729
 462  2726.904
 463  2683.13
 464  2840.831
 465  2950.345
 466  3082.628
 467  3037.794
 468  2936.299
 469  2802.33
 470  2657.645
 471  2541.293
 472  2508.524
 473  2564.412
 474  2668.674
 475  2775.676
 476  2731.663
 477  2848.339
 478  2877.074
 479  2603.112
 480  2344.88
 481  2126.75
 482  2352.491
 483  2212.267
 484  2414.71
 485  2386.871
 486  2257.765
 487  2107.399
 488  2020.209
 489  2314.231
 490  2266.123
 491  2127.165
 492  2040.646
 493  1865.514
 494  1904.903
 495  1818.237
 496  1923.569
 497  1822.58
 498  2009.731
 499  2323.939
 500  2478.311
 501  2414.002
 502  2183.071
 503  2338.509
 504  2191.53
 505  2131.969
 506  2027.862
 507  2016.061
 508  2151.494
 509  2125.416
 510  2281.42
 511  2179.431
 512  2166.566
 513  2247.813
 514  2238.983
 515  2106.616
 516  1906.069
 517  1931.391
 518  1910.21
 519  2097.684
 520  2122.362
 521  2315.766
 522  2317.036
 523  2245.631
 524  2256.566
 525  2269.377
 526  2475.943
 527  2329.631
 528  2390.372
 529  2361.324
 530  2343.817
 531  2482.701
 532  2355.467
 533  2439.161
 534  2222.136
 535  2292.76
 536  2515.393
 537  2707.792
 538  2819.261
 539  2458.164
 540  2493.399
 541  2564.202
 542  2814.828
 543  2878.901
 544  2776.361
 545  2579.722
 546  2450.874
 547  2500.924
 548  2610.994
 549  2682.547
 550  2643.325
 551  2724.824
 552  2803.274
 553  2795.599
 554  2680.169
 555  2620.211
 556  2603.689
 557  2460.065
 558  2303.476
 559  2277.147
 560  2245.631
 561  2359.75
 562  2398.319
 563  2564.543
 564  2604.788
 565  2443.168
 566  2360.074
 567  2264.503
 568  2306.179
 569  2145.754
 570  2269.008
 571  2434.104
 572  2456.039
 573  2345.175
 574  2471.039
 575  2740.698
 576  2669.434
 577  2461.935
 578  2303.758
 579  2380.189
 580  2086.357
 581  2116.361
 582  2306.254
 583  2304.633
 584  2274.603
 585  2341.44
 586  2529.041
 587  2400.665
 588  2193.345
 589  2167.334
 590  2180.595
 591  1958.27
 592  1810.594
 593  1861.67
 594  2053.871
 595  2066.418
 596  2198.259
 597  2497.911
 598  2543.385
 599  2314.821
 600  2062.664
 601  2034.823
 602  1989.547
 603  2080.825
 604  2148.447
 605  2245.248
 606  2262.466
 607  2353.001
 608  2558.802
 609  2588.24
 610  2532.167
 611  2687.25
 612  2720.755
 613  2781.521
 614  2520.43
 615  2345.194
 616  2221.921
 617  2159.936
 618  2179.039
 619  2187.054
 620  2234.56
 621  2232.93
 622  2258.02
 623  2468.785
 624  2554.395
 625  2579.532
 626  2490.616
 627  2292.788
 628  2141.509
 629  1802.408
 630  1970.617
 631  2215.056
 632  2329.374
 633  2194.724
 634  2154.329
 635  2369.173
 636  2599.958
 637  2598.122
 638  2443.825
 639  2185.219
 640  1814.484
 641  1644.712
 642  1874.27
 643  2229.224
 644  2279.997
 645  2401.149
 646  2703.437
 647  2963.871
 648  3150.694
 649  3327.946
 650  3392.075
 651  2954.752
 652  2764.825
 653  2621.753
 654  2617.593
 655  2514.934
 656  2532.164
 657  2670.551
 658  2909.526
 659  3035.355
 660  2984.849
 661  2607.444
 662  2394.89
 663  2099.763
 664  2174.357
 665  2193.557
 666  2185.718
 667  2156.452
 668  2170.682
 669  2306.334
 670  2275.339
 671  2421.492
 672  2441.979
 673  2511.779
 674  2333.058
 675  2164.568
 676  2081.916
 677  2098.816
 678  2119.918
 679  2122.201
 680  2360.941
 681  2570.937
 682  2666.342
 683  2636.26
 684  2479.564
 685  2407.564
 686  2283.902
 687  2115.515
 688  1886.856
 689  1920.245
 690  2132.774
 691  2204.419
 692  2207.678
 693  2143.065
 694  2273.1
 695  2342.274
 696  2564.711
 697  2464.662
 698  2449.739
 699  2400.382
 700  2355.884
 701  2347.148
 702  2077.205
 703  2024.71
 704  1977.767
 705  2219.524
 706  2321.641
 707  2321.95
 708  2183.479
 709  2297.709
 710  2285.344
 711  2343.208
 712  2407.917
 713  2400.913
 714  2379.625
 715  2134.607
 716  2147.083
 717  2029.125
 718  2045.883
 719  2322.996
 720  2571.955
 721  2597.258
 722  2375.246
 723  2458.677
 724  2438
 725  2363.94
 726  2065.311
 727  1991.247
 728  1807.342
 729  1733.331
 730  1793.628
 731  1892.373
 732  2005.057
 733  1985.977
 734  2146.114
 735  2176.726
 736  2117.153
 737  2052.37
 738  2241.311
 739  2264.418
 740  2183.037
 741  2089.47
 742  2184.876
 743  2071.816
 744  1997.55
 745  2144.92
 746  2280.795
 747  2300.632
 748  2303.448
 749  2305.51
 750  2230.872
 751  2202.954
 752  2177.806
 753  2118.987
 754  1973.516
 755  1991.556
 756  2192.323
 757  2245.87
 758  2305.562
 759  2275.554
 760  2325.824
 761  2338.133
 762  2245.342
 763  2203.577
 764  2055.639
 765  2166.244
 766  2250.851
 767  2257.976
 768  2248.545
 769  2247.788
 770  2342.394
 771  2382.018
 772  2273.245
 773  2272.37
 774  2312.232
 775  2327.977
 776  2277.575
 777  2275.371
 778  2496.667
 779  2557.687
 780  2587.156
 781  2510.205
 782  2455.639
 783  2406.729
 784  2348.797
 785  2297.06
 786  2241.69
 787  2199.707
 788  2195.675
 789  2363.609
 790  2453.188
 791  2321.207
 792  2349.335
 793  2404.594
 794  2601.271
 795  2486.438
 796  2572.964
 797  2615.751
 798  2565.09
 799  2446.061
 800  2315.392
 801  2315.062
 802  2271.451
 803  2442.801
 804  2695.743
 805  2718.841
 806  2607.254
 807  2634.14
 808  2637.787
 809  2741.116
 810  2565.683
 811  2490.981
 812  2250.111
 813  2328.304
 814  2371.516
 815  2562.787
 816  2703.762
 817  2751.793
 818  2803.916
 819  2547.111
 820  2617.886
 821  2545.459
 822  2459.113
 823  2468.258
 824  2416.415
 825  2326.66
 826  2306.783
 827  2499.211
 828  2609.34
 829  2449.089
 830  2330.838
 831  2376.621
 832  2427.483
 833  2409.988
 834  2310.936
 835  2153.361
 836  2140.662
 837  2138.749
 838  2202.166
 839  2346.963
 840  2358.84
 841  2400.406
 842  2364.482
 843  2419.64
 844  2460.195
 845  2295.876
 846  2009.567
 847  1884.971
 848  2148.904
 849  2508.237
 850  2495.604
 851  2239.07
 852  2278.38
 853  2415.574
 854  2576.899
 855  2451.74
 856  2361.481
 857  2247.346
 858  2223.263
 859  2281.494
 860  2408.355
 861  2288.514
 862  2269.896
 863  2385.231
 864  2477.458
 865  2503.995
 866  2295.739
 867  2252.779
 868  2148.649
 869  2138.811
 870  2204.692
 871  2149.252
 872  2255.258
 873  2110.204
 874  2249.994
 875  2267.652
 876  2349.217
 877  2202.565
 878  2155.884
 879  2145.788
 880  2177.043
 881  2113.123
 882  1897.974
 883  1820.297
 884  1856.32
 885  1991.274
 886  2332.855
 887  2252.165
 888  2232.504
 889  2195.575
 890  2298.899
 891  2284.652
 892  2306.999
 893  2428.343
 894  2204.529
 895  1961.381
 896  1700.814
 897  1994.52
 898  2100.673
 899  2268.801
 900  2163.337
 901  2217.077
 902  2164.842
 903  2140.217
 904  2328.122
 905  2346.928
 906  2186.422
 907  1951.265
 908  1825.311
 909  1964.895
 910  2154.651
 911  2251.521
 912  2197.963
 913  1897.103
 914  1811.317
 915  1906.363
 916  2158.813
 917  2212.748
 918  2089.051
 919  1925.246
 920  2110.728
 921  2170.949
 922  2270.528
 923  2362.127
 924  2466.359
 925  2557.617
 926  2412.832
 927  2390.167
 928  2114.316
 929  1991.583
 930  1977.226
 931  2185.277
 932  2147.159
 933  2153.641
 934  2177.948
 935  2269.279
 936  2335.785
 937  2595.343
 938  2534.403
 939  2556.304
 940  2184.129
 941  2230.823
 942  2163.779
 943  2277.787
 944  2321.794
 945  2318.965
 946  2224.894
 947  2170.418
 948  2179.194
 949  2224.683
 950  2358.304
 951  2382.763
 952  2212.404
 953  2141.068
 954  2166.867
 955  2378.446
 956  2230.834
 957  2197.116
 958  2312.533
 959  2576.623
 960  2545.224
 961  2460.321
 962  2502.291
 963  2613.339
 964  2545.396
 965  2392.597
 966  2360.82
 967  2359.504
 968  2502.359
 969  2628.54
 970  2738.469
 971  2621.169
 972  2367.469
 973  2303.76
 974  2263.728
 975  2131.32
 976  2008.521
 977  1996.52
 978  2240.884
 979  2292.59
 980  2221.764
 981  2250.392
 982  2424.907
 983  2465.578
 984  2415.536
 985  2300.117
 986  2172.502
 987  1846.63
 988  1764.058
 989  1835.708
 990  1926.208
 991  1967.561
 992  2111.146
 993  2266.461
 994  2366.848
 995  2357.003
 996  2380.62
 997  2255.445
 998  2151.757
 999  2194.385
1000  2204.257
1001  2272.03
1002  2300.79
1003  2365.307
1004  2365.117
1005  2342.334
1006  2536.708
1007  2657.018
1008  2734.769
1009  2582.81
1010  2444.115
1011  2218.597
1012  1894.624
1013  1850.505
1014  2061.812
1015  2379.683
1016  2302.941
1017  2231.357
1018  2449.577
1019  2621.468
1020  2659.47
1021  2611.494
1022  2654.604
1023  2444.269
