# Input file       =  1183424315.08945_cleaned.dat
# Candidate        =  PSR_0332+5434
# Telescope        =  AR
# Epoch_topo       =  57941.040903813075
# Epoch_bary       =  N/A
# T_sample         =  0.002
# Data Folded      =  7405568
# Data Avg         =  0.106120634519091
# Data StdDev      =  4.39589312267417 
# Profile Bins     =  1024
# Profile Avg      =  767.704560590896 
# Profile StdDev   =  373.831878969791 
# Reduced chi-sqr  =  0.693
# Prob(Noise)      <  1   (~0.0 sigma)
# P_topo (ms)      =  714.484526378389  +/- 8.09e-05
# P'_topo (s/s)    =  -0                +/- 4.23e-11
# P''_topo (s/s^2) =  0                 +/- 1.85e-14
# P_bary (ms)      =  N/A
# P'_bary (s/s)    =  N/A
# P''_bary (s/s^2) =  N/A
# P_orb (s)        =  N/A
# asin(i)/c (s)    =  N/A
# eccentricity     =  N/A
# w (rad)          =  N/A
# T_peri           =  N/A
######################################################
   0  767.5758
   1  764.9791
   2  717.4755
   3  656.642
   4  619.6485
   5  577.488
   6  603.4318
   7  705.7542
   8  736.2828
   9  699.7247
  10  650.6799
  11  819.3229
  12  852.8401
  13  878.2384
  14  738.5717
  15  796.0016
  16  694.4839
  17  640.3662
  18  537.1227
  19  551.3902
  20  599.0779
  21  745.5269
  22  794.2366
  23  771.3391
  24  747.9741
  25  808.7551
  26  815.1353
  27  831.885
  28  856.8022
  29  880.3127
  30  869.5228
  31  672.3903
  32  568.2682
  33  508.0331
  34  559.7725
  35  655.1915
  36  785.0879
  37  822.897
  38  943.728
  39  983.083
  40  926.3921
  41  729.4949
  42  671.6052
  43  784.9488
  44  925.3053
  45  732.79
  46  637.4267
  47  527.2136
  48  668.5174
  49  713.8402
  50  690.4951
  51  643.0591
  52  628.11
  53  751.3469
  54  830.4608
  55  930.5447
  56  945.8682
  57  909.3766
  58  887.3565
  59  861.533
  60  775.8488
  61  907.8651
  62  920.3762
  63  907.8297
  64  644.1609
  65  581.9379
  66  741.0223
  67  842.2736
  68  989.4943
  69  969.7189
  70  1001.901
  71  870.1489
  72  818.2836
  73  698.5656
  74  621.9243
  75  576.5901
  76  748.7658
  77  950.0016
  78  929.9765
  79  940.2094
  80  802.5457
  81  862.6251
  82  802.1566
  83  821.7505
  84  841.0043
  85  730.4086
  86  604.1772
  87  604.037
  88  717.7388
  89  709.3531
  90  728.2771
  91  737.4853
  92  794.1355
  93  837.9166
  94  1009.826
  95  1025.191
  96  1087.779
  97  1042.042
  98  1030.949
  99  855.2665
 100  806.7944
 101  899.2541
 102  931.0144
 103  956.7175
 104  910.3235
 105  857.1627
 106  776.8757
 107  695.3028
 108  855.3002
 109  877.3904
 110  852.4918
 111  713.4919
 112  657.3823
 113  583.6818
 114  575.6074
 115  542.0156
 116  644.7909
 117  811.4023
 118  885.8575
 119  838.5213
 120  909.5161
 121  934.4459
 122  867.759
 123  699.1314
 124  618.1106
 125  585.7946
 126  775.2319
 127  890.7534
 128  924.9401
 129  700.2742
 130  568.7001
 131  634.6382
 132  609.1854
 133  588.9918
 134  598.0208
 135  726.7491
 136  807.6503
 137  781.2166
 138  677.7858
 139  611.6956
 140  582.7162
 141  589.9404
 142  601.8436
 143  489.1708
 144  454.6613
 145  528.6176
 146  563.0157
 147  511.96
 148  470.0718
 149  508.391
 150  797.3971
 151  812.6999
 152  867.4653
 153  759.0801
 154  880.2458
 155  832.8203
 156  730.3278
 157  708.6613
 158  661.0991
 159  763.3297
 160  770.8107
 161  729.559
 162  594.3013
 163  560.5349
 164  580.8713
 165  666.4291
 166  688.8045
 167  829.7858
 168  906.6519
 169  863.9875
 170  646.331
 171  551.5299
 172  576.1938
 173  569.0034
 174  497.5721
 175  454.272
 176  631.5193
 177  728.5339
 178  757.2969
 179  680.9344
 180  505.4421
 181  514.9656
 182  574.3388
 183  615.5942
 184  471.428
 185  418.1297
 186  431.7151
 187  539.3583
 188  449.7711
 189  456.5872
 190  350.2137
 191  477.7062
 192  638.2656
 193  706.8733
 194  574.9118
 195  466.4394
 196  590.1215
 197  531.8063
 198  444.5052
 199  324.056
 200  529.8366
 201  594.4287
 202  632.0455
 203  659.3771
 204  695.8724
 205  677.3107
 206  721.4543
 207  849.8054
 208  979.1717
 209  967.0353
 210  930.3564
 211  772.0577
 212  563.3541
 213  544.422
 214  579.5776
 215  638.8185
 216  657.2772
 217  750.0112
 218  908.1455
 219  863.2557
 220  849.786
 221  817.3435
 222  870.8314
 223  878.5803
 224  945.7733
 225  930.3829
 226  856.7805
 227  923.4386
 228  848.5596
 229  775.6545
 230  605.4916
 231  772.3201
 232  793.9016
 233  860.0538
 234  728.9865
 235  876.1855
 236  782.6797
 237  799.0164
 238  751.3345
 239  708.5041
 240  699.8498
 241  697.8558
 242  678.6575
 243  575.2515
 244  533.8641
 245  648.1873
 246  703.7448
 247  662.0228
 248  557.309
 249  498.6644
 250  669.1943
 251  933.4464
 252  985.235
 253  882.1763
 254  789.5256
 255  810.6716
 256  734.2738
 257  612.1107
 258  675.6051
 259  760.6786
 260  860.7539
 261  740.2325
 262  733.2299
 263  729.2497
 264  717.4794
 265  665.024
 266  766.4055
 267  830.6074
 268  792.0951
 269  793.3991
 270  805.0143
 271  737.2632
 272  694.0947
 273  583.8076
 274  716.7329
 275  826.1257
 276  958.9429
 277  779.4958
 278  651.3575
 279  638.1269
 280  701.9379
 281  658.2838
 282  593.2867
 283  642.584
 284  772.1299
 285  769.1693
 286  749.3695
 287  800.6208
 288  788.6979
 289  678.0942
 290  565.0596
 291  626.5624
 292  678.6423
 293  715.1916
 294  729.5084
 295  857.7249
 296  807.6639
 297  866.124
 298  799.7453
 299  710.8037
 300  737.8667
 301  758.9555
 302  797.2733
 303  746.5106
 304  607.965
 305  393.5241
 306  433.8381
 307  519.2567
 308  725.7438
 309  615.0213
 310  642.0856
 311  652.5704
 312  758.3684
 313  805.6492
 314  800.5671
 315  673.632
 316  815.5912
 317  916.144
 318  1075.854
 319  907.5698
 320  875.3766
 321  614.0277
 322  510.4705
 323  450.2072
 324  520.4265
 325  704.7684
 326  662.7903
 327  676.1349
 328  631.4943
 329  753.6862
 330  820.5629
 331  837.4172
 332  806.174
 333  861.5
 334  952.027
 335  1012.8
 336  891.6463
 337  797.0851
 338  790.6249
 339  946.8135
 340  950.0638
 341  836.0272
 342  755.7315
 343  800.7372
 344  758.9963
 345  669.5168
 346  606.061
 347  718.0056
 348  860.3963
 349  969.0002
 350  919.5106
 351  816.8756
 352  722.2092
 353  712.4622
 354  775.1104
 355  805.3086
 356  943.3391
 357  890.9263
 358  910.4335
 359  862.0905
 360  964.0507
 361  941.155
 362  927.4147
 363  889.5406
 364  868.1556
 365  840.0874
 366  873.5356
 367  915.6135
 368  848.4542
 369  608.2394
 370  631.2248
 371  673.9232
 372  688.8853
 373  631.8707
 374  649.4841
 375  705.5822
 376  708.0368
 377  682.3912
 378  724.3472
 379  584.4193
 380  527.2264
 381  469.2906
 382  553.5557
 383  631.0387
 384  747.5872
 385  886.1588
 386  762.2204
 387  771.8198
 388  842.7828
 389  858.4109
 390  642.668
 391  590.0499
 392  597.3481
 393  650.7991
 394  534.6519
 395  580.7687
 396  662.3028
 397  765.6354
 398  788.2574
 399  838.4648
 400  701.1021
 401  613.6945
 402  608.4417
 403  705.902
 404  773.2457
 405  703.0743
 406  654.7538
 407  582.4244
 408  581.7272
 409  598.2399
 410  564.9592
 411  579.3505
 412  642.509
 413  766.3507
 414  771.1007
 415  785.8753
 416  797.0354
 417  826.6709
 418  865.4207
 419  778.5596
 420  545.2148
 421  547.0773
 422  663.3796
 423  814.4459
 424  664.8199
 425  618.9211
 426  791.3665
 427  845.1074
 428  786.7441
 429  669.785
 430  672.1772
 431  710.7297
 432  760.8262
 433  755.3677
 434  722.5578
 435  575.3299
 436  589.1907
 437  466.7953
 438  478.2203
 439  412.4989
 440  617.5849
 441  673.611
 442  681.4068
 443  539.1273
 444  519.6509
 445  580.117
 446  691.9039
 447  812.3408
 448  852.516
 449  851.7169
 450  880.6059
 451  923.6964
 452  867.1383
 453  916.5745
 454  952.9764
 455  904.0882
 456  799.723
 457  793.0663
 458  946.7989
 459  930.334
 460  803.0652
 461  713.0858
 462  675.2993
 463  752.2937
 464  777.6956
 465  914.6887
 466  979.8293
 467  945.2315
 468  893.24
 469  797.7372
 470  699.3217
 471  624.9194
 472  699.4783
 473  750.6628
 474  768.2014
 475  617.929
 476  583.725
 477  697.947
 478  754.3111
 479  749.9052
 480  726.394
 481  651.4957
 482  702.9483
 483  776.5412
 484  764.8983
 485  654.2034
 486  654.0451
 487  766.0774
 488  776.8247
 489  798.2108
 490  786.3506
 491  898.0139
 492  722.1754
 493  701.4182
 494  631.8409
 495  676.2911
 496  600.6281
 497  771.4046
 498  759.1912
 499  807.0773
 500  650.7108
 501  719.0866
 502  799.8701
 503  708.0532
 504  724.889
 505  782.1931
 506  900.3594
 507  913.9486
 508  900.9931
 509  995.3597
 510  881.952
 511  864.3591
 512  862.0435
 513  942.3436
 514  937.2931
 515  976.0005
 516  863.9059
 517  753.9936
 518  554.0439
 519  645.2231
 520  763.0062
 521  875.2125
 522  932.8182
 523  1017.914
 524  1149.18
 525  1056.724
 526  878.1319
 527  754.2272
 528  807.7755
 529  732.006
 530  740.9654
 531  843.6397
 532  994.008
 533  1002.819
 534  968.879
 535  951.7242
 536  947.1493
 537  821.938
 538  697.7363
 539  550.5281
 540  500.8336
 541  501.4462
 542  587.2858
 543  452.2669
 544  423.9729
 545  550.0553
 546  738.686
 547  761.6572
 548  800.0294
 549  749.6008
 550  831.5377
 551  860.4619
 552  925.091
 553  789.3007
 554  684.5981
 555  682.1644
 556  678.8729
 557  523.1662
 558  358.1687
 559  482.8231
 560  596.0725
 561  628.9279
 562  572.8871
 563  600.8994
 564  644.3461
 565  663.6265
 566  703.0237
 567  758.3703
 568  708.6281
 569  662.8342
 570  709.7093
 571  686.5404
 572  514.112
 573  424.0832
 574  475.5277
 575  550.4308
 576  602.3989
 577  626.3954
 578  639.4375
 579  620.9599
 580  720.8059
 581  686.4774
 582  666.8793
 583  689.7993
 584  815.6497
 585  700.4651
 586  603.0079
 587  487.8884
 588  526.1297
 589  544.3408
 590  648.7795
 591  745.3329
 592  827.6367
 593  706.7947
 594  503.7106
 595  612.187
 596  812.2759
 597  993.2534
 598  1061.987
 599  992.7991
 600  930.806
 601  794.3552
 602  697.8912
 603  687.1506
 604  805.0582
 605  899.2303
 606  870.8884
 607  823.8569
 608  721.5947
 609  718.3691
 610  828.136
 611  953.807
 612  986.2067
 613  1029.457
 614  1053.189
 615  961.2853
 616  731.1002
 617  702.5944
 618  744.6791
 619  904.3867
 620  912.6864
 621  881.8661
 622  707.8711
 623  700.1605
 624  896.7567
 625  1013.987
 626  873.8901
 627  757.0144
 628  807.4777
 629  942.5867
 630  857.5151
 631  703.416
 632  794.4187
 633  799.8521
 634  838.2852
 635  760.5547
 636  688.8504
 637  576.3136
 638  682.4783
 639  911.7675
 640  1147.977
 641  1128.757
 642  1036.526
 643  1046.013
 644  1051.367
 645  1083.022
 646  1139.891
 647  1345.925
 648  1583.093
 649  1719.335
 650  1682.776
 651  1513.819
 652  1495.087
 653  1494.51
 654  1597.486
 655  1508.795
 656  1471.884
 657  1333.806
 658  1159.404
 659  893.3305
 660  820.2516
 661  851.382
 662  862.7084
 663  996.0826
 664  919.1502
 665  786.3432
 666  583.3539
 667  432.2763
 668  541.7195
 669  643.067
 670  729.0529
 671  732.5244
 672  720.2507
 673  852.0674
 674  835.9605
 675  820.6993
 676  628.1047
 677  513.3241
 678  619.1716
 679  791.3353
 680  953.2991
 681  822.0728
 682  709.7323
 683  772.1134
 684  879.2287
 685  1016.079
 686  991.3078
 687  814.7187
 688  653.3525
 689  528.4111
 690  558.5135
 691  471.4291
 692  471.0016
 693  545.6313
 694  738.5148
 695  863.152
 696  865.2447
 697  851.9107
 698  745.2632
 699  826.2862
 700  818.6088
 701  710.9572
 702  634.9075
 703  605.6523
 704  667.1536
 705  581.1136
 706  656.6268
 707  673.1736
 708  605.6684
 709  526.4026
 710  619.3819
 711  727.4147
 712  694.2731
 713  662.355
 714  724.2167
 715  808.0085
 716  841.9496
 717  749.095
 718  630.9223
 719  678.9402
 720  687.9199
 721  837.4047
 722  763.856
 723  829.0447
 724  670.408
 725  608.5011
 726  630.8854
 727  712.1075
 728  759.7529
 729  768.1486
 730  871.4132
 731  983.5637
 732  835.3952
 733  713.4142
 734  688.5001
 735  724.3618
 736  695.806
 737  560.8761
 738  688.5028
 739  683.2981
 740  817.2278
 741  771.2235
 742  729.3346
 743  665.8583
 744  830.797
 745  1026.998
 746  1071.899
 747  1031.233
 748  1130.676
 749  967.3485
 750  743.2834
 751  639.4896
 752  711.5446
 753  712.5654
 754  797.8068
 755  937.5353
 756  1003.921
 757  904.9089
 758  885.8418
 759  890.1343
 760  823.9979
 761  786.4964
 762  832.1855
 763  922.6847
 764  894.8942
 765  832.4789
 766  671.093
 767  549.4326
 768  592.6505
 769  699.8375
 770  709.1434
 771  671.6884
 772  636.5007
 773  706.5224
 774  655.5989
 775  691.2892
 776  780.9363
 777  849.0627
 778  858.9025
 779  617.8651
 780  602.8892
 781  681.1379
 782  939.8415
 783  932.7988
 784  948.9321
 785  824.8694
 786  898.882
 787  934.8256
 788  1117.608
 789  1107.552
 790  1124.476
 791  1013.612
 792  985.7026
 793  781.3949
 794  759.442
 795  725.2684
 796  856.8233
 797  766.6354
 798  786.851
 799  769.4042
 800  769.5212
 801  710.7692
 802  759.1432
 803  883.9107
 804  933.2207
 805  860.387
 806  1026.341
 807  1047.779
 808  1045.524
 809  895.2563
 810  906.4545
 811  918.3584
 812  972.736
 813  952.8322
 814  818.4196
 815  574.2464
 816  438.1985
 817  552.0156
 818  734.0414
 819  938.2824
 820  821.8258
 821  825.9613
 822  751.0819
 823  905.059
 824  921.5714
 825  915.4343
 826  901.3192
 827  968.7905
 828  1033.043
 829  1085.177
 830  1024.698
 831  962.1283
 832  939.7585
 833  858.7635
 834  814.6298
 835  771.4304
 836  757.2596
 837  761.6102
 838  715.5371
 839  638.8674
 840  754.9728
 841  800.6362
 842  874.1314
 843  890.2925
 844  826.6969
 845  824.6846
 846  903.9764
 847  1006.732
 848  1011.838
 849  1010.481
 850  1001.516
 851  894.8386
 852  678.7902
 853  533.4059
 854  573.7098
 855  607.8133
 856  820.0001
 857  715.8923
 858  596.9459
 859  523.3683
 860  732.6311
 861  912.6226
 862  987.425
 863  1005.224
 864  1078.539
 865  971.0078
 866  809.3747
 867  576.7073
 868  478.9455
 869  448.1069
 870  467.2164
 871  582.6756
 872  658.4882
 873  640.0802
 874  680.7176
 875  628.2059
 876  568.038
 877  716.3007
 878  793.0114
 879  748.0013
 880  512.9294
 881  456.264
 882  421.9366
 883  396.0061
 884  453.6038
 885  587.5636
 886  634.2827
 887  646.6411
 888  687.1067
 889  539.79
 890  488.0345
 891  552.4516
 892  635.5546
 893  623.9194
 894  707.0344
 895  807.1118
 896  895.7534
 897  854.4814
 898  760.9138
 899  611.3708
 900  534.638
 901  646.4861
 902  801.4677
 903  798.0604
 904  797.8922
 905  817.1196
 906  750.3884
 907  586.9704
 908  619.6361
 909  732.0995
 910  784.957
 911  650.1276
 912  590.7338
 913  519.3188
 914  561.4063
 915  768.327
 916  885.5022
 917  763.6862
 918  675.7657
 919  811.4713
 920  872.9816
 921  906.8384
 922  883.3848
 923  892.0856
 924  785.8306
 925  750.2717
 926  824.3267
 927  806.8386
 928  711.5774
 929  721.5478
 930  798.1337
 931  791.047
 932  742.6458
 933  754.9971
 934  816.8535
 935  793.639
 936  880.3526
 937  954.5344
 938  934.0191
 939  890.3728
 940  815.5302
 941  795.2881
 942  889.8577
 943  1003.684
 944  1052.088
 945  842.6674
 946  613.0223
 947  581.6908
 948  646.5856
 949  660.5651
 950  775.333
 951  775.5998
 952  916.0295
 953  860.8593
 954  943.397
 955  1055.356
 956  974.9608
 957  936.9467
 958  890.3131
 959  871.33
 960  803.9826
 961  815.2969
 962  995.1529
 963  964.3956
 964  871.4134
 965  709.4958
 966  719.5471
 967  752.475
 968  784.765
 969  780.3626
 970  978.557
 971  1071.209
 972  1037.271
 973  882.6331
 974  796.8578
 975  892.8074
 976  988.0615
 977  1084.123
 978  1056.794
 979  1162.229
 980  1190.344
 981  1289.142
 982  1228.645
 983  1146.673
 984  1064.763
 985  969.7846
 986  834.1102
 987  765.85
 988  764.1067
 989  929.302
 990  875.0312
 991  892.8181
 992  814.5389
 993  987.8951
 994  1108.486
 995  1247.458
 996  1101.77
 997  842.6333
 998  696.783
 999  748.8865
1000  780.2617
1001  708.429
1002  696.9586
1003  775.0493
1004  633.639
1005  470.3486
1006  530.3162
1007  714.2802
1008  854.1447
1009  867.0338
1010  888.9967
1011  859.7032
1012  947.8439
1013  817.5383
1014  720.546
1015  487.8846
1016  473.9553
1017  455.9034
1018  673.0569
1019  707.2469
1020  848.7952
1021  835.5543
1022  874.5606
1023  784.4902
