# Input file       =  1183783393.109526_cleaned.dat
# Candidate        =  PSR_0332+5434
# Telescope        =  AR
# Epoch_topo       =  57945.196899415809
# Epoch_bary       =  N/A
# T_sample         =  0.002
# Data Folded      =  7340032
# Data Avg         =  0.041052627583034
# Data StdDev      =  1.00013598660814 
# Profile Bins     =  512
# Profile Avg      =  588.074744439396 
# Profile StdDev   =  119.749318466265 
# Reduced chi-sqr  =  1.205
# Prob(Noise)      <  0.000989   (~3.1 sigma)
# P_topo (ms)      =  714.481525307999  +/- 0.00023
# P'_topo (s/s)    =  -0                +/- 1.21e-10
# P''_topo (s/s^2) =  0                 +/- 5.36e-14
# P_bary (ms)      =  N/A
# P'_bary (s/s)    =  N/A
# P''_bary (s/s^2) =  N/A
# P_orb (s)        =  N/A
# asin(i)/c (s)    =  N/A
# eccentricity     =  N/A
# w (rad)          =  N/A
# T_peri           =  N/A
######################################################
   0  680.3497
   1  605.6293
   2  613.832
   3  533.8897
   4  567.7287
   5  559.3353
   6  505.2486
   7  569.2633
   8  549.6933
   9  580.3915
  10  651.2368
  11  511.0499
  12  515.7933
  13  565.7725
  14  564.4075
  15  584.7004
  16  606.5591
  17  507.0363
  18  584.2174
  19  470.0884
  20  470.9158
  21  530.2658
  22  592.3281
  23  580.4293
  24  560.5687
  25  578.4587
  26  674.5872
  27  499.0222
  28  425.0116
  29  525.408
  30  485.669
  31  462.7164
  32  517.921
  33  526.8514
  34  515.4037
  35  493.0822
  36  415.969
  37  395.2487
  38  453.0514
  39  374.9395
  40  426.0105
  41  560.6295
  42  616.9235
  43  592.0919
  44  531.5994
  45  495.5422
  46  502.1491
  47  624.8866
  48  616.6208
  49  484.489
  50  428.3576
  51  443.9846
  52  440.9595
  53  461.375
  54  538.5425
  55  558.7682
  56  448.226
  57  470.8001
  58  503.7981
  59  519.5682
  60  553.7551
  61  582.6476
  62  702.5205
  63  744.2501
  64  700.7837
  65  559.9189
  66  508.9807
  67  488.0238
  68  500.4636
  69  553.8286
  70  555.1715
  71  653.7792
  72  677.4225
  73  619.6831
  74  486.2192
  75  556.2896
  76  471.1406
  77  506.5514
  78  533.2402
  79  598.735
  80  608.1396
  81  540.6348
  82  568.8354
  83  601.1505
  84  542.8604
  85  562.0031
  86  618.9625
  87  685.3052
  88  696.9614
  89  513.9325
  90  614.0602
  91  674.843
  92  692.9421
  93  592.699
  94  430.4249
  95  498.3383
  96  543.7816
  97  575.5129
  98  672.4888
  99  619.0886
 100  642.5533
 101  537.2165
 102  452.3405
 103  574.2552
 104  522.6658
 105  681.1727
 106  660.3071
 107  547.9668
 108  565.2624
 109  544.3151
 110  576.1696
 111  448.4569
 112  523.1496
 113  549.39
 114  572.2745
 115  611.7843
 116  470.1661
 117  488.6803
 118  565.7789
 119  629.0555
 120  642.3293
 121  563.6909
 122  515.4882
 123  518.7349
 124  512.1638
 125  595.4303
 126  576.0978
 127  532.6233
 128  539.1662
 129  552.9038
 130  453.9898
 131  546.1226
 132  554.5583
 133  561.9041
 134  637.134
 135  507.4285
 136  559.8583
 137  646.5295
 138  581.6154
 139  635.0143
 140  630.2864
 141  516.4196
 142  651.0307
 143  725.1882
 144  568.6638
 145  495.2031
 146  541.1346
 147  717.172
 148  715.7303
 149  655.7976
 150  634.051
 151  654.201
 152  690.9523
 153  656.4656
 154  663.1012
 155  763.5412
 156  781.957
 157  882.4586
 158  1011.281
 159  1118.49
 160  1246.637
 161  1278.692
 162  1093.274
 163  893.8949
 164  768.0873
 165  543.79
 166  574.3113
 167  549.4536
 168  513.9645
 169  607.9392
 170  674.9651
 171  649.7765
 172  630.7979
 173  603.8454
 174  571.2133
 175  694.8809
 176  661.1249
 177  573.9604
 178  510.7812
 179  542.1441
 180  667.7729
 181  669.551
 182  628.3304
 183  552.1089
 184  625.1663
 185  700.5364
 186  663.1932
 187  659.2715
 188  600.9213
 189  702.3975
 190  749.5129
 191  720.3705
 192  613.2982
 193  649.7612
 194  737.1942
 195  764.3597
 196  768.2137
 197  687.9388
 198  729.2521
 199  690.5931
 200  537.1369
 201  585.5632
 202  694.5303
 203  624.3797
 204  565.7958
 205  620.8116
 206  583.832
 207  559.7928
 208  592.7387
 209  585.1492
 210  680.1927
 211  632.4145
 212  633.8367
 213  591.0536
 214  602.1135
 215  631.3293
 216  601.4161
 217  467.309
 218  529.0964
 219  585.6952
 220  583.2145
 221  537.0479
 222  435.5493
 223  505.9118
 224  546.9729
 225  552.4774
 226  517.8362
 227  568.103
 228  548.9504
 229  492.9371
 230  508.1526
 231  530.1285
 232  635.4489
 233  544.1362
 234  591.9987
 235  716.5511
 236  627.7214
 237  592.1473
 238  592.7115
 239  606.7096
 240  562.598
 241  585.5959
 242  510.4434
 243  505.6505
 244  487.0673
 245  469.0749
 246  622.9342
 247  565.0927
 248  653.1711
 249  625.2648
 250  588.6848
 251  664.2551
 252  699.7266
 253  681.1044
 254  622.4732
 255  652.8659
 256  549.3066
 257  492.0952
 258  431.1156
 259  537.8345
 260  581.8579
 261  539.7098
 262  533.4077
 263  572.7833
 264  552.8253
 265  476.0946
 266  511.5074
 267  491.6169
 268  601.116
 269  562.5135
 270  527.0044
 271  526.0229
 272  526.0303
 273  676.347
 274  643.3929
 275  555.9122
 276  712.5795
 277  665.1359
 278  567.8998
 279  458.9366
 280  535.4922
 281  547.6088
 282  574.6872
 283  525.1692
 284  427.436
 285  543.3849
 286  501.2054
 287  502.4304
 288  619.4003
 289  599.3602
 290  649.0762
 291  653.1176
 292  534.0089
 293  547.6683
 294  647.9938
 295  583.6528
 296  605.9686
 297  666.4666
 298  657.577
 299  564.7723
 300  562.2408
 301  681.0641
 302  735.4968
 303  672.8876
 304  628.7127
 305  630.6218
 306  579.0182
 307  534.155
 308  587.1517
 309  693.1181
 310  670.8603
 311  575.6497
 312  716.7648
 313  658.1117
 314  579.7366
 315  606.3447
 316  751.5693
 317  603.2916
 318  530.0578
 319  523.9393
 320  423.3918
 321  570.6369
 322  596.5277
 323  520.1228
 324  546.2175
 325  634.691
 326  604.3738
 327  504.1043
 328  550.1119
 329  661.74
 330  592.6571
 331  539.4221
 332  602.1273
 333  560.6223
 334  561.9478
 335  588.7613
 336  623.3731
 337  522.2386
 338  515.3065
 339  641.907
 340  543.1255
 341  520.912
 342  552.5011
 343  601.5658
 344  504.0069
 345  576.4755
 346  585.119
 347  439.7437
 348  471.2264
 349  619.8492
 350  640.7844
 351  615.2565
 352  637.407
 353  625.0712
 354  498.6463
 355  620.6421
 356  558.8659
 357  446.5672
 358  432.0222
 359  471.3973
 360  552.8826
 361  470.4248
 362  468.3356
 363  617.9872
 364  686.5416
 365  563.6982
 366  572.4101
 367  618.6068
 368  644.1883
 369  529.2699
 370  516.1044
 371  568.3154
 372  532.0007
 373  579.2532
 374  579.4304
 375  580.8471
 376  553.2231
 377  686.8135
 378  656.7753
 379  653.5416
 380  612.0469
 381  572.2355
 382  538.0402
 383  604.7261
 384  578.6973
 385  558.9241
 386  535.3427
 387  443.0249
 388  553.5869
 389  548.8278
 390  552.7192
 391  617.5449
 392  594.5988
 393  685.4151
 394  592.609
 395  561.7406
 396  629.3916
 397  578.3705
 398  441.7982
 399  478.2308
 400  498.795
 401  509.4636
 402  595.1401
 403  492.5292
 404  616.095
 405  674.7859
 406  684.7004
 407  585.324
 408  474.1294
 409  529.1315
 410  655.1776
 411  767.808
 412  685.2949
 413  532.3023
 414  534.7133
 415  665.6722
 416  692.9905
 417  557.5139
 418  540.7041
 419  510.3222
 420  523.5381
 421  567.4661
 422  686.274
 423  770.2433
 424  689.6643
 425  602.0156
 426  629.3154
 427  663.6866
 428  566.2382
 429  551.2563
 430  668.6943
 431  671.6193
 432  643.3278
 433  615.1159
 434  572.7533
 435  598.0698
 436  607.1823
 437  577.6594
 438  599.4111
 439  723.2065
 440  646.5726
 441  579.9315
 442  598.7726
 443  559.3607
 444  435.7933
 445  454.4448
 446  552.1478
 447  594.4158
 448  738.7398
 449  554.0267
 450  576.9964
 451  563.9334
 452  610.1141
 453  654.5017
 454  718.2682
 455  629.0092
 456  542.9233
 457  598.7368
 458  697.4816
 459  525.7845
 460  586.3906
 461  639.6388
 462  507.9478
 463  481.2223
 464  615.0012
 465  652.3604
 466  667.8726
 467  642.0814
 468  704.2309
 469  726.7835
 470  539.6243
 471  561.2756
 472  622.9061
 473  649.0269
 474  529.6452
 475  457.372
 476  561.8635
 477  580.409
 478  541.4053
 479  565.077
 480  636.7036
 481  620.873
 482  544.2407
 483  487.9485
 484  504.6752
 485  533.3174
 486  584.7465
 487  483.7917
 488  464.9579
 489  589.079
 490  642.0615
 491  530.9053
 492  585.9919
 493  689.8535
 494  753.9528
 495  616.9809
 496  597.1021
 497  644.8112
 498  607.73
 499  515.11
 500  595.6608
 501  689.9796
 502  587.2531
 503  487.1584
 504  496.9709
 505  500.6655
 506  604.7204
 507  521.7654
 508  598.4916
 509  727.4801
 510  560.5153
 511  622.2462
