# Input file       =  1183525578.105013_cleaned.dat
# Candidate        =  PSR_0332+5434
# Telescope        =  AR
# Epoch_topo       =  57942.212929456167
# Epoch_bary       =  N/A
# T_sample         =  0.002
# Data Folded      =  7340032
# Data Avg         =  0.0578101713653471
# Data StdDev      =  1.00005045521363 
# Profile Bins     =  512
# Profile Avg      =  828.864965497059 
# Profile StdDev   =  119.739077532695 
# Reduced chi-sqr  =  1.059
# Prob(Noise)      <  0.172   (~0.9 sigma)
# P_topo (ms)      =  714.483681267645  +/- 0.000364
# P'_topo (s/s)    =  -0                +/- 1.92e-10
# P''_topo (s/s^2) =  0                 +/- 8.49e-14
# P_bary (ms)      =  N/A
# P'_bary (s/s)    =  N/A
# P''_bary (s/s^2) =  N/A
# P_orb (s)        =  N/A
# asin(i)/c (s)    =  N/A
# eccentricity     =  N/A
# w (rad)          =  N/A
# T_peri           =  N/A
######################################################
   0  1445.369
   1  1344.792
   2  1163.184
   3  1041.407
   4  991.355
   5  967.2556
   6  900.7557
   7  882.43
   8  797.5191
   9  824.7163
  10  816.6074
  11  891.6646
  12  868.1924
  13  930.8855
  14  902.4081
  15  834.0156
  16  762.0209
  17  660.7889
  18  802.6752
  19  782.041
  20  812.8528
  21  799.9287
  22  712.6684
  23  722.9791
  24  755.4545
  25  690.99
  26  705.495
  27  714.1555
  28  684.4316
  29  682.9885
  30  801.9695
  31  788.7146
  32  785.3488
  33  787.9698
  34  761.6528
  35  813.7104
  36  765.6387
  37  840.4176
  38  762.9156
  39  766.6186
  40  827.883
  41  816.5635
  42  803.0908
  43  804.995
  44  779.2253
  45  824.6348
  46  782.3975
  47  747.2767
  48  737.4962
  49  790.201
  50  751.0285
  51  799.9244
  52  803.0347
  53  807.8847
  54  784.2361
  55  783.8176
  56  863.0789
  57  816.8875
  58  747.2303
  59  743.7542
  60  742.8387
  61  677.7115
  62  789.8868
  63  762.8126
  64  674.8082
  65  710.3105
  66  799.306
  67  814.1649
  68  774.0927
  69  795.5207
  70  854.2921
  71  893.1671
  72  920.5829
  73  864.0436
  74  751.3285
  75  851.4849
  76  777.9639
  77  740.6268
  78  825.1238
  79  876.2136
  80  710.6081
  81  739.776
  82  848.0107
  83  831.5353
  84  760.1015
  85  869.8434
  86  866.3702
  87  933.731
  88  849.6149
  89  784.0303
  90  645.6582
  91  736.519
  92  797.2357
  93  809.4031
  94  929.0433
  95  944.1513
  96  929.4279
  97  802.357
  98  732.1069
  99  733.9182
 100  791.7722
 101  773.8104
 102  778.4565
 103  800.6903
 104  739.8032
 105  803.3629
 106  759.4326
 107  793.619
 108  834.5152
 109  815.187
 110  730.7192
 111  718.4705
 112  788.0887
 113  845.1712
 114  809.5399
 115  827.6785
 116  798.9858
 117  643.2615
 118  737.4575
 119  660.476
 120  646.996
 121  736.2077
 122  765.6802
 123  732.7036
 124  838.7959
 125  949.5771
 126  933.322
 127  862.6977
 128  791.5338
 129  924.0355
 130  836.0314
 131  767.7374
 132  778.1368
 133  879.5665
 134  914.3931
 135  909.9646
 136  888.0191
 137  906.752
 138  907.142
 139  749.7771
 140  698.958
 141  784.0356
 142  828.0895
 143  875.3344
 144  774.6367
 145  810.4423
 146  851.4917
 147  802.3151
 148  783.4136
 149  791.2429
 150  725.6297
 151  719.0461
 152  760.035
 153  849.0983
 154  843.233
 155  790.3517
 156  767.2883
 157  850.762
 158  789.6536
 159  800.1329
 160  817.024
 161  817.9163
 162  801.0765
 163  887.569
 164  801.5003
 165  837.0582
 166  843.4708
 167  788.879
 168  739.0764
 169  791.9373
 170  790.3895
 171  857.2178
 172  909.1974
 173  850.1362
 174  799.1969
 175  858.9397
 176  877.3922
 177  899.5401
 178  917.1428
 179  891.1757
 180  977.5437
 181  1005.661
 182  945.0352
 183  936.4509
 184  921.5436
 185  884.1544
 186  941.3906
 187  973.9583
 188  911.9564
 189  913.5739
 190  864.2122
 191  846.7748
 192  790.6528
 193  882.2014
 194  902.7454
 195  832.1966
 196  849.7565
 197  857.48
 198  779.659
 199  811.3978
 200  806.4647
 201  910.013
 202  853.4709
 203  822.9113
 204  805.1849
 205  825.8204
 206  802.5811
 207  807.3293
 208  782.0879
 209  722.3604
 210  832.9049
 211  833.6385
 212  847.4117
 213  820.7914
 214  876.0432
 215  913.6236
 216  772.8625
 217  790.3505
 218  823.0515
 219  852.3035
 220  803.7129
 221  750.133
 222  821.8935
 223  750.2225
 224  708.5182
 225  659.4592
 226  669.4991
 227  689.5287
 228  813.6072
 229  809.4941
 230  697.3275
 231  798.2595
 232  802.3361
 233  877.8641
 234  881.3057
 235  936.0567
 236  848.7783
 237  846.0429
 238  847.1726
 239  834.7059
 240  807.1591
 241  809.7392
 242  942.2031
 243  814.8473
 244  855.4424
 245  875.6912
 246  773.7492
 247  756.0002
 248  737.9919
 249  715.5616
 250  816.1954
 251  848.6088
 252  817.7831
 253  757.4103
 254  712.2892
 255  779.2777
 256  703.8063
 257  727.954
 258  832.3002
 259  805.6874
 260  756.2811
 261  808.1978
 262  786.6695
 263  675.9758
 264  762.572
 265  857.0429
 266  762.6041
 267  810.5239
 268  870.6083
 269  950.9912
 270  869.0697
 271  893.551
 272  879.7896
 273  845.6874
 274  830.1346
 275  785.6561
 276  793.8252
 277  802.6113
 278  742.5707
 279  794.3377
 280  878.5457
 281  847.733
 282  808.0563
 283  780.0648
 284  780.4186
 285  815.6012
 286  924.5488
 287  942.9174
 288  852.9089
 289  855.4723
 290  834.2408
 291  817.2513
 292  711.394
 293  785.7868
 294  892.4803
 295  888.5891
 296  889.9139
 297  893.667
 298  861.4717
 299  924.4767
 300  953.0681
 301  906.2156
 302  874.7715
 303  841.265
 304  796.8188
 305  813.4731
 306  829.532
 307  790.0019
 308  771.8497
 309  683.8533
 310  672.2755
 311  832.3964
 312  722.7883
 313  880.4626
 314  913.2681
 315  885.9625
 316  830.4412
 317  878.6514
 318  936.3278
 319  860.3983
 320  887.3924
 321  915.1912
 322  835.5154
 323  853.49
 324  859.7016
 325  854.0526
 326  899.5091
 327  942.509
 328  932.919
 329  1002.212
 330  947.9366
 331  818.8107
 332  808.496
 333  851.753
 334  879.2042
 335  888.2261
 336  855.7993
 337  836.0017
 338  931.5117
 339  964.7274
 340  953.429
 341  916.1851
 342  852.0909
 343  874.3663
 344  882.8618
 345  908.8169
 346  869.3204
 347  923.7427
 348  872.8697
 349  876.6014
 350  845.5534
 351  774.1808
 352  758.4274
 353  706.4398
 354  775.6141
 355  804.5466
 356  761.9849
 357  730.9501
 358  762.366
 359  899.5558
 360  896.8731
 361  792.8657
 362  716.1268
 363  731.888
 364  748.6806
 365  889.3037
 366  967.2653
 367  851.5226
 368  875.2034
 369  874.1639
 370  794.6083
 371  772.6379
 372  776.0239
 373  838.0773
 374  762.6536
 375  863.1479
 376  797.9122
 377  744.2809
 378  699.1646
 379  735.6641
 380  738.9754
 381  722.6165
 382  666.9088
 383  751.9608
 384  760.3644
 385  769.2123
 386  807.8179
 387  883.2958
 388  836.8986
 389  858.3542
 390  938.0237
 391  918.1141
 392  817.2822
 393  771.351
 394  783.7573
 395  767.1109
 396  689.1799
 397  744.553
 398  792.8983
 399  926.5507
 400  953.7625
 401  877.3101
 402  731.337
 403  717.0602
 404  775.8951
 405  908.2782
 406  857.914
 407  814.3363
 408  850.6462
 409  867.4037
 410  872.6413
 411  919.1912
 412  934.6836
 413  888.8353
 414  812.0115
 415  768.4424
 416  821.4828
 417  782.9459
 418  793.305
 419  772.6783
 420  792.5552
 421  843.8411
 422  891.3632
 423  862.2437
 424  794.764
 425  714.6424
 426  686.5776
 427  789.2889
 428  788.6407
 429  828.1863
 430  875.7271
 431  811.7285
 432  756.5078
 433  784.8704
 434  846.0345
 435  832.0557
 436  805.5276
 437  784.1013
 438  859.2328
 439  882.2027
 440  830.3928
 441  838.634
 442  892.9769
 443  909.3852
 444  884.3276
 445  863.296
 446  886.1066
 447  859.3081
 448  839.8148
 449  808.9114
 450  839.2747
 451  853.9648
 452  887.1565
 453  783.2964
 454  839.5243
 455  858.4031
 456  889.555
 457  799.6267
 458  772.0928
 459  848.1608
 460  828.3252
 461  902.1053
 462  822.4362
 463  803.0496
 464  793.1533
 465  693.3279
 466  684.2949
 467  784.9719
 468  873.6948
 469  858.3006
 470  819.3443
 471  695.5596
 472  752.3368
 473  773.7042
 474  775.1201
 475  874.9617
 476  868.6292
 477  765.8443
 478  748.3633
 479  782.0662
 480  750.1602
 481  824.6978
 482  925.2919
 483  941.6238
 484  896.2113
 485  870.524
 486  882.8989
 487  816.9442
 488  812.58
 489  823.8569
 490  861.4122
 491  927.7613
 492  964.8699
 493  933.155
 494  837.7391
 495  881.3072
 496  907.201
 497  856.4128
 498  799.087
 499  828.8423
 500  811.6452
 501  880.65
 502  824.1266
 503  785.2755
 504  903.6558
 505  950.7397
 506  1002.842
 507  1001.028
 508  940.0531
 509  1105.911
 510  1373.335
 511  1459.658
