# Input file       =  1183525578.105013_cleaned.dat
# Candidate        =  PSR_0332+5434
# Telescope        =  AR
# Epoch_topo       =  57942.212929456167
# Epoch_bary       =  N/A
# T_sample         =  0.002
# Data Folded      =  7340032
# Data Avg         =  0.0578101713653471
# Data StdDev      =  1.00005045521363 
# Profile Bins     =  512
# Profile Avg      =  828.864951668433 
# Profile StdDev   =  119.739077532695 
# Reduced chi-sqr  =  1.058
# Prob(Noise)      <  0.178   (~0.9 sigma)
# P_topo (ms)      =  714.483682128902  +/- 0.000361
# P'_topo (s/s)    =  -0                +/- 1.91e-10
# P''_topo (s/s^2) =  0                 +/- 8.42e-14
# P_bary (ms)      =  N/A
# P'_bary (s/s)    =  N/A
# P''_bary (s/s^2) =  N/A
# P_orb (s)        =  N/A
# asin(i)/c (s)    =  N/A
# eccentricity     =  N/A
# w (rad)          =  N/A
# T_peri           =  N/A
######################################################
   0  764.0325
   1  717.0931
   2  731.4707
   3  808.933
   4  847.5445
   5  829.2798
   6  757.8629
   7  825.5656
   8  824.5715
   9  768.3074
  10  816.504
  11  830.2102
  12  797.5316
  13  837.5889
  14  865.0904
  15  795.1648
  16  862.7134
  17  809.5652
  18  764.6745
  19  750.1199
  20  805.9186
  21  807.0055
  22  892.6653
  23  903.3036
  24  797.4582
  25  845.0105
  26  851.5562
  27  901.7393
  28  894.3663
  29  918.3942
  30  908.5359
  31  1025.344
  32  970.5374
  33  930.6703
  34  942.8098
  35  892.1356
  36  903.5529
  37  972.5267
  38  932.2643
  39  930.8505
  40  881.8906
  41  867.3358
  42  797.1558
  43  827.7735
  44  909.4725
  45  873.5098
  46  829.6507
  47  863.2635
  48  802.4354
  49  800.2914
  50  792.8592
  51  874.767
  52  887.3467
  53  831.9595
  54  814.9357
  55  816.1559
  56  819.0085
  57  789.7457
  58  818.3336
  59  728.7288
  60  774.0291
  61  854.9966
  62  826.7136
  63  853.976
  64  818.1802
  65  924.51
  66  843.3949
  67  755.3087
  68  821.9842
  69  832.6741
  70  838.9771
  71  764.8306
  72  784.8888
  73  808.5101
  74  727.5364
  75  671.2997
  76  665.8165
  77  671.8456
  78  736.6874
  79  861.5904
  80  715.3906
  81  762.8103
  82  770.9173
  83  867.8728
  84  850.9799
  85  939.9177
  86  877.3092
  87  849.4003
  88  850.2514
  89  846.8058
  90  830.3098
  91  779.3221
  92  893.0949
  93  896.5865
  94  797.9144
  95  892.9626
  96  821.9841
  97  754.3698
  98  759.0863
  99  698.6178
 100  761.8309
 101  850.2119
 102  845.1983
 103  794.5549
 104  720.7088
 105  750.8393
 106  754.4589
 107  678.971
 108  797.8259
 109  823.8567
 110  776.227
 111  767.2921
 112  822.692
 113  718.3449
 114  700.2883
 115  835.9813
 116  811.7248
 117  769.2516
 118  835.5662
 119  927.5878
 120  918.0085
 121  870.1137
 122  900.3514
 123  856.7649
 124  837.4197
 125  808.1058
 126  771.2837
 127  814.7955
 128  768.1231
 129  759.3059
 130  846.6034
 131  869.7365
 132  824.8032
 133  789.0699
 134  783.7303
 135  785.836
 136  875.5292
 137  955.7325
 138  894.854
 139  847.3754
 140  843.3094
 141  848.2255
 142  743.9099
 143  736.3044
 144  832.9385
 145  908.9764
 146  882.0219
 147  903.7862
 148  878.6331
 149  868.4053
 150  959.183
 151  927.6942
 152  891.9148
 153  849.8251
 154  827.7532
 155  792.6075
 156  840.6999
 157  799.0232
 158  773.8201
 159  743.8571
 160  638.0047
 161  779.5557
 162  777.1801
 163  778.714
 164  919.9671
 165  904.2527
 166  853.9823
 167  832.51
 168  931.4395
 169  902.1024
 170  857.7649
 171  920.8915
 172  866.0455
 173  842.2877
 174  855.2557
 175  863.323
 176  871.9117
 177  931.0629
 178  925.3146
 179  965.4158
 180  998.7307
 181  883.8214
 182  794.6399
 183  830.9584
 184  859.2986
 185  881.052
 186  876.3032
 187  848.3051
 188  877.5518
 189  977.513
 190  941.6812
 191  945.4428
 192  868.8952
 193  870.0914
 194  871.5233
 195  908.9293
 196  868.791
 197  907.4511
 198  893.1899
 199  887.895
 200  854.563
 201  814.7961
 202  763.8743
 203  724.1436
 204  741.4161
 205  804.1942
 206  782.0936
 207  736.1518
 208  725.6551
 209  828.5152
 210  933.3813
 211  846.5328
 212  746.9308
 213  726.3881
 214  733.0039
 215  801.5492
 216  952.868
 217  906.2996
 218  841.3107
 219  902.39
 220  821.7598
 221  788.0049
 222  763.017
 223  816.0325
 224  802.779
 225  811.1053
 226  844.5703
 227  772.2578
 228  701.9399
 229  721.7798
 230  732.7192
 231  742.2308
 232  684.2604
 233  701.7191
 234  779.6823
 235  754.1163
 236  774.0434
 237  851.4432
 238  871.647
 239  839.1595
 240  901.5013
 241  948.8056
 242  852.1569
 243  806.4066
 244  749.4642
 245  811.0444
 246  700.1534
 247  724.9093
 248  751.0798
 249  863.801
 250  955.6523
 251  928.087
 252  797.5212
 253  706.8437
 254  720.2593
 255  867.2304
 256  897.9323
 257  818.4724
 258  838.6688
 259  844.3801
 260  880.3521
 261  884.6164
 262  940.4046
 263  923.608
 264  853.809
 265  780.3476
 266  800.1408
 267  807.3612
 268  775.3016
 269  789.5308
 270  771.3074
 271  819.6626
 272  874.0307
 273  876.658
 274  833.5583
 275  761.1128
 276  688.3768
 277  737.0659
 278  792.8835
 279  792.0269
 280  857.9291
 281  856.8509
 282  781.7938
 283  745.2947
 284  830.3004
 285  838.7731
 286  835.0966
 287  780.3192
 288  825.3315
 289  879.4567
 290  867.5757
 291  809.0541
 292  873.2326
 293  905.5378
 294  896.434
 295  877.5884
 296  874.4447
 297  873.0385
 298  852.2633
 299  806.4276
 300  823.8931
 301  837.1196
 302  893.6766
 303  829.476
 304  801.3278
 305  858.5022
 306  868.0716
 307  868.5383
 308  748.6989
 309  830.1326
 310  824.3627
 311  878.4666
 312  875.5434
 313  800.8651
 314  807.0778
 315  749.7239
 316  671.6422
 317  719.0275
 318  826.9049
 319  888.5156
 320  842.1406
 321  761.2879
 322  704.9164
 323  778.692
 324  764.9741
 325  821.6901
 326  897.6913
 327  818.584
 328  732.27
 329  783.3229
 330  745.8117
 331  788.1871
 332  859.649
 333  972.0775
 334  903.1532
 335  888.4073
 336  866.3692
 337  856.0688
 338  791.7554
 339  838.6886
 340  831.0042
 341  916.2368
 342  929.1111
 343  975.7177
 344  868.9687
 345  847.6423
 346  904.4342
 347  898.1394
 348  809.3017
 349  806.0687
 350  821.5161
 351  833.991
 352  889.3614
 353  775.7962
 354  841.8407
 355  939.1176
 356  968.4503
 357  1024.091
 358  953.4164
 359  996.5362
 360  1238.99
 361  1456.41
 362  1449.037
 363  1416.657
 364  1256.839
 365  1084.71
 366  1008.497
 367  978.1675
 368  930.9316
 369  903.7075
 370  827.7769
 371  819.3011
 372  812.765
 373  863.7814
 374  875.5065
 375  884.693
 376  934.3342
 377  864.0389
 378  821.2752
 379  680.6793
 380  722.3818
 381  814.3024
 382  776.8643
 383  834.7151
 384  742.0511
 385  714.7632
 386  740.5723
 387  729.9545
 388  681.7344
 389  716.2139
 390  715.0433
 391  651.5094
 392  757.0052
 393  801.5714
 394  795.4969
 395  782.1293
 396  771.3283
 397  778.5931
 398  794.1456
 399  791.3243
 400  826.4418
 401  744.723
 402  804.2328
 403  831.2946
 404  793.3284
 405  817.924
 406  783.3235
 407  807.6906
 408  809.1705
 409  756.9246
 410  730.4871
 411  774.4016
 412  770.4547
 413  767.6601
 414  800.9453
 415  797.2736
 416  825.4018
 417  767.9036
 418  829.8706
 419  855.9481
 420  762.3385
 421  744.4192
 422  754.985
 423  691.7908
 424  727.1735
 425  804.144
 426  712.9875
 427  682.7263
 428  756.1784
 429  821.9752
 430  782.8931
 431  776.4127
 432  824.1849
 433  884.7099
 434  907.9296
 435  913.5003
 436  779.8305
 437  797.5207
 438  830.0111
 439  734.5739
 440  774.1755
 441  870.4202
 442  817.9827
 443  692.0967
 444  795.4531
 445  874.5771
 446  756.1466
 447  833.4547
 448  852.0823
 449  916.9694
 450  894.2487
 451  815.4653
 452  705.8442
 453  670.0477
 454  786.7459
 455  806.58
 456  853.1701
 457  976.5738
 458  917.7051
 459  892.267
 460  741.9529
 461  725.7868
 462  770.1768
 463  778.5007
 464  777.3692
 465  800.0888
 466  765.674
 467  766.3223
 468  781.7678
 469  765.0992
 470  815.9272
 471  849.1987
 472  762.0555
 473  719.0071
 474  736.2948
 475  829.8666
 476  834.0489
 477  806.7739
 478  842.2985
 479  703.1366
 480  672.8539
 481  729.6426
 482  623.3435
 483  697.3081
 484  769.8757
 485  731.2855
 486  780.7296
 487  899.8762
 488  958.7593
 489  896.9425
 490  812.571
 491  854.2906
 492  908.0604
 493  782.1849
 494  771.3525
 495  819.0523
 496  915.4916
 497  904.5927
 498  914.859
 499  886.8194
 500  911.9007
 501  846.0344
 502  685.5467
 503  745.0197
 504  808.3654
 505  859.5505
 506  829.3471
 507  773.7874
 508  837.6832
 509  844.8551
 510  774.209
 511  798.5594
