# Input file       =  1183798301.101795_cleaned.dat
# Candidate        =  PSR_0332+5434
# Telescope        =  AR
# Epoch_topo       =  57945.369445622629
# Epoch_bary       =  N/A
# T_sample         =  0.002
# Data Folded      =  7340032
# Data Avg         =  0.288763867046717
# Data StdDev      =  5.21294428945298 
# Profile Bins     =  256
# Profile Avg      =  8279.18201829521 
# Profile StdDev   =  882.697868052921 
# Reduced chi-sqr  =  0.611
# Prob(Noise)      <  1   (~0.0 sigma)
# P_topo (ms)      =  714.48173752687   +/- 0.000654
# P'_topo (s/s)    =  -0                +/- 3.45e-10
# P''_topo (s/s^2) =  0                 +/- 1.52e-13
# P_bary (ms)      =  N/A
# P'_bary (s/s)    =  N/A
# P''_bary (s/s^2) =  N/A
# P_orb (s)        =  N/A
# asin(i)/c (s)    =  N/A
# eccentricity     =  N/A
# w (rad)          =  N/A
# T_peri           =  N/A
######################################################
   0  8849.392
   1  9589.483
   2  9172.541
   3  8380.803
   4  8547.054
   5  8737.258
   6  7593.036
   7  7551.103
   8  8470.348
   9  7890.036
  10  7760.561
  11  7715.598
  12  7516.021
  13  7536.785
  14  7618.245
  15  8095.247
  16  7782.505
  17  7625.104
  18  7812.478
  19  7635.107
  20  7884.928
  21  8239.525
  22  8368.818
  23  8497.491
  24  7907.139
  25  8103.194
  26  8687.504
  27  8850.854
  28  8086.26
  29  7434.655
  30  7437
  31  8211.807
  32  8141.583
  33  7672.811
  34  7630.794
  35  7752.02
  36  7714.193
  37  8748.894
  38  8706.445
  39  8282.728
  40  8612.917
  41  8287.471
  42  7979.4
  43  8171.302
  44  8234.767
  45  8587.336
  46  9006.92
  47  8831.569
  48  8486.224
  49  8747.287
  50  8219.359
  51  8174.225
  52  7510.592
  53  7210.875
  54  6975.286
  55  6809.922
  56  7736.096
  57  7684.255
  58  7702.586
  59  8019.812
  60  7652.113
  61  7388.772
  62  7907.057
  63  7592.875
  64  7569.513
  65  7315.685
  66  7845.778
  67  7088.429
  68  8208.877
  69  7910.395
  70  8267.141
  71  8502.583
  72  8380.476
  73  7673.304
  74  7876.275
  75  8342.361
  76  8066.42
  77  7440.867
  78  7696.838
  79  7554.398
  80  8941.162
  81  9542.911
  82  9086.796
  83  9621.35
  84  8787.044
  85  9137.014
  86  8943.779
  87  8659.021
  88  8474.806
  89  7942.608
  90  8591.685
  91  8343.055
  92  8037.852
  93  7923.04
  94  8267.426
  95  8041.743
  96  7855.938
  97  7963.558
  98  8143.211
  99  7997.505
 100  7877.059
 101  7786.384
 102  8622.047
 103  8746.989
 104  8178.731
 105  7578.54
 106  8418.729
 107  9077.11
 108  8221.618
 109  8200.409
 110  8197.935
 111  8227.951
 112  7982.063
 113  8633.824
 114  8448.1
 115  8233.291
 116  8853.764
 117  8071.774
 118  8418.562
 119  8449.218
 120  8328.688
 121  8002.598
 122  8128.088
 123  8837.595
 124  8973.37
 125  8817.714
 126  8830.701
 127  8855.922
 128  9310.725
 129  7927.531
 130  8294.628
 131  8891.125
 132  9246.829
 133  8857.434
 134  9158.894
 135  9360.207
 136  8920.681
 137  8968.14
 138  8402.625
 139  7931.968
 140  8404.503
 141  8269.887
 142  8506.47
 143  7620.293
 144  8074.777
 145  8387.019
 146  8645.44
 147  8384.424
 148  7882.827
 149  8600.011
 150  8496.179
 151  8280.903
 152  8842.378
 153  8841.62
 154  8726.613
 155  7164.824
 156  7871.815
 157  8903.841
 158  7789.887
 159  7597.397
 160  8330.232
 161  8741.212
 162  10676.04
 163  10627.17
 164  9299.666
 165  8169.957
 166  8201.273
 167  8203.854
 168  8466.262
 169  9387.493
 170  8245.747
 171  8948.548
 172  8206.658
 173  7938.948
 174  7974.639
 175  7697.178
 176  7815.431
 177  7503.731
 178  7986.537
 179  7803.785
 180  7288.239
 181  7886.535
 182  7548.176
 183  8438.721
 184  8195.163
 185  7556.815
 186  8374.359
 187  7368.315
 188  7710.76
 189  8369.81
 190  8253.312
 191  6991.806
 192  8494.923
 193  8382.087
 194  8008.503
 195  8232.479
 196  7903.899
 197  7833.244
 198  7960.74
 199  7935.806
 200  7656.333
 201  7429.981
 202  7805.291
 203  8480.373
 204  8585.578
 205  7727.883
 206  7744.386
 207  8837.424
 208  8016.011
 209  8893.854
 210  8936.551
 211  9794.214
 212  8751.338
 213  8777.39
 214  9145.721
 215  8653.097
 216  8677.201
 217  8183.084
 218  7911.029
 219  7797.38
 220  7585.802
 221  8224.939
 222  7380.211
 223  7304.883
 224  8279.18
 225  7684.551
 226  7512.312
 227  7223.561
 228  8727.04
 229  8462.405
 230  8981.832
 231  9280.358
 232  9477.18
 233  8643.167
 234  8784.415
 235  8882.54
 236  8964.975
 237  8243.378
 238  8795.676
 239  8351.078
 240  8600.867
 241  9051.776
 242  8963.646
 243  8138.99
 244  8375.057
 245  8650.974
 246  7901.9
 247  8719.059
 248  8448.906
 249  8320.695
 250  9375.214
 251  9292.844
 252  8612.885
 253  8445.691
 254  8986.596
 255  8665.966
