# Input file       =  1183854874.114862_cleaned.dat
# Candidate        =  PSR_0332+5434
# Telescope        =  AR
# Epoch_topo       =  57946.024225866458
# Epoch_bary       =  N/A
# T_sample         =  0.002
# Data Folded      =  7274496
# Data Avg         =  0.131337972888555
# Data StdDev      =  4.97598126525506 
# Profile Bins     =  1024
# Profile Avg      =  933.030741994533 
# Profile StdDev   =  419.401725531275 
# Reduced chi-sqr  =  0.491
# Prob(Noise)      <  1   (~0.0 sigma)
# P_topo (ms)      =  714.480935788639  +/- 0.000136
# P'_topo (s/s)    =  -0                +/- 7.24e-11
# P''_topo (s/s^2) =  0                 +/- 3.23e-14
# P_bary (ms)      =  N/A
# P'_bary (s/s)    =  N/A
# P''_bary (s/s^2) =  N/A
# P_orb (s)        =  N/A
# asin(i)/c (s)    =  N/A
# eccentricity     =  N/A
# w (rad)          =  N/A
# T_peri           =  N/A
######################################################
   0  960.6122
   1  977.5063
   2  1085.975
   3  1075.936
   4  970.4453
   5  855.377
   6  777.4073
   7  821.9215
   8  968.8478
   9  1100.443
  10  1136.343
  11  955.2373
  12  865.0962
  13  784.2755
  14  853.6202
  15  757.2225
  16  912.1978
  17  995.4036
  18  1056.951
  19  1007.53
  20  1007.318
  21  1006.088
  22  864.1102
  23  845.7171
  24  1019.793
  25  1053.797
  26  955.222
  27  892.1401
  28  940.2194
  29  970.1639
  30  905.4748
  31  775.9754
  32  844.8304
  33  836.8974
  34  919.2342
  35  875.1218
  36  908.7805
  37  892.2709
  38  958.1469
  39  1207.833
  40  1253.255
  41  1171.407
  42  1011.844
  43  970.9713
  44  938.953
  45  865.4637
  46  830.8757
  47  954.9182
  48  1122.708
  49  1212.979
  50  1166.229
  51  1033.281
  52  870.3487
  53  1084.37
  54  1218.587
  55  1246.332
  56  987.6132
  57  1004.545
  58  926.6822
  59  937.0803
  60  1129.068
  61  1208.813
  62  1117.476
  63  961.1611
  64  985.5942
  65  844.3499
  66  820.3814
  67  838.4089
  68  1073.923
  69  1047.393
  70  973.7499
  71  726.0235
  72  714.9742
  73  733.2372
  74  845.4421
  75  796.498
  76  965.6074
  77  1096.175
  78  1351.049
  79  1208.713
  80  989.1578
  81  873.1616
  82  961.2535
  83  974.3838
  84  952.3864
  85  827.288
  86  739.0566
  87  766.5539
  88  821.8839
  89  871.9379
  90  818.5995
  91  945.351
  92  1028.317
  93  1156.062
  94  1103.588
  95  1040.126
  96  831.2521
  97  819.4017
  98  890.374
  99  1050.823
 100  994.6005
 101  1059.453
 102  1010.095
 103  1104.893
 104  1016.184
 105  1129.562
 106  1188.249
 107  1246.539
 108  1143.375
 109  1165.846
 110  1082
 111  1008.478
 112  934.1171
 113  846.8486
 114  809.747
 115  870.0094
 116  998.0322
 117  955.3594
 118  969.1833
 119  913.4771
 120  925.2681
 121  971.5061
 122  1020.133
 123  954.712
 124  902.2587
 125  981.1948
 126  1087.088
 127  1175.303
 128  1163.47
 129  1091.161
 130  975.4016
 131  937.0125
 132  908.9774
 133  967.5544
 134  1018.476
 135  1009.832
 136  1072.677
 137  1096.064
 138  1070.425
 139  901.7256
 140  948.7283
 141  1026.962
 142  1073.577
 143  1208.024
 144  1234.597
 145  1213.313
 146  1076.371
 147  1044.096
 148  983.4894
 149  955.1008
 150  846.5276
 151  966.6879
 152  1063.344
 153  1176.455
 154  910.3037
 155  961.5617
 156  890.1897
 157  974.2997
 158  875.6541
 159  875.4592
 160  809.6349
 161  808.1002
 162  901.5632
 163  1010.744
 164  946.9362
 165  901.6014
 166  983.7111
 167  1142.715
 168  1259.906
 169  1184.311
 170  1174.279
 171  1049.045
 172  1018.031
 173  1021.838
 174  997.9298
 175  967.0102
 176  974.7936
 177  961.3998
 178  927.2002
 179  814.866
 180  821.5508
 181  796.4191
 182  836.1218
 183  920.3495
 184  1070.741
 185  994.4679
 186  897.9206
 187  941.7446
 188  1099.094
 189  998.0017
 190  892.3225
 191  966.0786
 192  954.3685
 193  864.5145
 194  740.0648
 195  799.8265
 196  775.4675
 197  772.4785
 198  782.1375
 199  872.939
 200  845.0294
 201  980.6661
 202  1114.159
 203  1156.747
 204  1059.261
 205  993.5157
 206  990.7263
 207  971.6478
 208  847.9151
 209  851.6693
 210  748.7371
 211  921.2349
 212  921.1088
 213  896.6951
 214  878.1851
 215  945.7288
 216  1065.604
 217  973.1873
 218  891.9556
 219  973.3326
 220  1057.808
 221  1087.184
 222  971.1715
 223  821.1639
 224  773.1609
 225  780.0306
 226  783.7953
 227  780.5266
 228  745.9904
 229  816.8433
 230  866.9875
 231  850.5586
 232  961.5342
 233  885.4866
 234  1049.426
 235  941.3658
 236  983.1926
 237  838.6818
 238  887.3857
 239  964.5822
 240  963.4738
 241  818.4223
 242  798.5114
 243  922.6957
 244  1014.493
 245  943.8611
 246  1029.015
 247  1003.794
 248  1032.553
 249  1031.243
 250  1086.005
 251  985.2922
 252  955.8871
 253  986.9575
 254  1002.967
 255  963.0638
 256  986.3477
 257  1074.299
 258  951.8227
 259  985.9351
 260  922.8636
 261  901.0286
 262  720.0598
 263  810.8039
 264  933.2035
 265  924.3517
 266  849.1475
 267  1015.728
 268  1064.423
 269  1023.955
 270  817.8285
 271  779.7694
 272  575.0182
 273  634.3474
 274  953.2604
 275  1280.36
 276  1255.223
 277  1175.161
 278  1203.55
 279  1147.283
 280  972.0697
 281  1007.757
 282  1073.286
 283  1127.95
 284  1022.27
 285  978.2366
 286  1058.171
 287  1028.47
 288  1036.931
 289  1046.76
 290  1043.278
 291  948.2349
 292  965.8948
 293  904.2538
 294  1006.279
 295  1035.908
 296  1116.888
 297  1078.98
 298  992.5026
 299  999.8808
 300  1130.11
 301  1254.241
 302  1226.556
 303  1125.78
 304  1064.683
 305  899.8947
 306  725.3845
 307  862.3636
 308  978.5555
 309  943.039
 310  890.4087
 311  944.4155
 312  1047.014
 313  992.366
 314  1069.22
 315  1045.574
 316  991.2351
 317  888.902
 318  883.2212
 319  964.9296
 320  970.8878
 321  1001.466
 322  947.8777
 323  876.8527
 324  818.2204
 325  861.806
 326  918.8241
 327  915.9885
 328  753.1655
 329  624.6203
 330  580.9783
 331  751.7718
 332  1024.266
 333  1003.171
 334  1054.065
 335  1037.425
 336  1191.605
 337  993.7554
 338  905.6082
 339  866.0961
 340  868.8457
 341  786.5223
 342  666.3622
 343  680.8846
 344  578.3866
 345  621.6559
 346  599.3114
 347  800.7104
 348  922.2463
 349  1090.815
 350  1132.542
 351  1056.499
 352  901.4512
 353  720.1774
 354  693.098
 355  844.3363
 356  791.1417
 357  844.6203
 358  803.7464
 359  987.2456
 360  907.33
 361  868.8853
 362  788.4124
 363  855.4551
 364  984.0852
 365  1052.205
 366  1075.561
 367  1101.336
 368  1036.028
 369  1094.043
 370  1027.114
 371  1046.33
 372  974.3097
 373  983.0665
 374  941.691
 375  751.457
 376  679.934
 377  671.1827
 378  737.9791
 379  728.9573
 380  875.4405
 381  951.0716
 382  1108.943
 383  1128.641
 384  1087.421
 385  996.8958
 386  1023.906
 387  1115.703
 388  1195.072
 389  953.0512
 390  983.0852
 391  859.7054
 392  1051.201
 393  957.7411
 394  908.3337
 395  900.991
 396  979.359
 397  977.2614
 398  989.2398
 399  896.1665
 400  907.8533
 401  804.8369
 402  808.1984
 403  843.158
 404  1015.379
 405  1094.182
 406  1099.392
 407  952.1697
 408  904.4155
 409  844.4698
 410  970.7439
 411  1026.427
 412  992.7302
 413  927.0635
 414  923.3848
 415  1002.821
 416  931.3385
 417  930.1189
 418  776.6776
 419  918.1978
 420  1084.619
 421  1005.275
 422  820.2601
 423  922.7253
 424  1032.883
 425  1124.989
 426  960.9282
 427  1110.074
 428  911.5999
 429  934.7397
 430  662.0532
 431  795.9183
 432  831.4999
 433  986.7928
 434  828.6024
 435  764.6252
 436  774.8136
 437  1021.163
 438  1179.554
 439  1206.363
 440  1068.817
 441  1128.8
 442  1081.938
 443  942.6063
 444  771.7081
 445  919.6812
 446  1029.063
 447  1181.572
 448  1149.433
 449  1012.029
 450  905.6351
 451  1021.494
 452  1158.069
 453  1079.49
 454  977.6057
 455  958.1825
 456  944.5718
 457  887.333
 458  772.0898
 459  842.873
 460  808.7108
 461  847.7888
 462  857.9548
 463  930.5114
 464  962.1078
 465  1012.331
 466  1070.89
 467  1113.257
 468  1091.413
 469  1168.984
 470  1096.609
 471  1029.807
 472  901.6354
 473  873.7046
 474  781.3793
 475  737.3002
 476  785.5948
 477  826.6918
 478  910.9838
 479  1005.833
 480  1123.203
 481  1111.403
 482  1092.817
 483  946.9041
 484  962.0334
 485  870.9965
 486  708.2471
 487  593.1886
 488  629.0275
 489  744.032
 490  767.1689
 491  796.6064
 492  961.4435
 493  995.5849
 494  1058.696
 495  933.9029
 496  840.8401
 497  847.3944
 498  804.4483
 499  823.4473
 500  823.7238
 501  962.5793
 502  926.3771
 503  757.4296
 504  572.761
 505  560.0265
 506  688.6785
 507  845.7305
 508  891.9586
 509  794.1555
 510  867.7498
 511  869.6556
 512  1014.057
 513  954.8085
 514  1072.462
 515  1102.965
 516  1157.585
 517  1096.241
 518  877.8853
 519  820.5104
 520  774.2266
 521  805.8176
 522  831.0662
 523  789.0786
 524  737.3965
 525  654.3776
 526  633.809
 527  656.5246
 528  663.1642
 529  772.7527
 530  914.6504
 531  1117.997
 532  1181.828
 533  1263.089
 534  1187.211
 535  1120.391
 536  1031.407
 537  1002.563
 538  952.7802
 539  891.8916
 540  862.6868
 541  775.3146
 542  616.2786
 543  732.3649
 544  834.8936
 545  895.9553
 546  816.3925
 547  938.922
 548  1061.148
 549  1062.289
 550  1059.851
 551  1072.334
 552  961.4213
 553  892.1079
 554  982.4701
 555  1045.405
 556  946.4211
 557  736.2913
 558  835.9067
 559  814.4852
 560  839.4324
 561  787.6298
 562  897.9852
 563  866.5006
 564  768.1035
 565  734.4005
 566  808.4484
 567  852.1862
 568  851.311
 569  700.1686
 570  766.9686
 571  866.4037
 572  1044.535
 573  911.4225
 574  738.8367
 575  648.9943
 576  589.2422
 577  531.3442
 578  531.3172
 579  637.5367
 580  760.0889
 581  852.4952
 582  812.8838
 583  744.3611
 584  843.9655
 585  1049.109
 586  1036.94
 587  916.3901
 588  772.3929
 589  778.3538
 590  812.7865
 591  810.5604
 592  873.7186
 593  886.4762
 594  793.1195
 595  821.2219
 596  800.0269
 597  904.7067
 598  905.9506
 599  986.2885
 600  972.5724
 601  865.2168
 602  849.6967
 603  888.7299
 604  1005.253
 605  1078.56
 606  1042.75
 607  902.1212
 608  855.9077
 609  852.2227
 610  772.0081
 611  757.9911
 612  820.2576
 613  917.3458
 614  1004.772
 615  1139.948
 616  1100.288
 617  992.9713
 618  936.4301
 619  1078.855
 620  1059.372
 621  1025.365
 622  962.5446
 623  903.8749
 624  843.3271
 625  780.2494
 626  868.9724
 627  934.5024
 628  908.7712
 629  977.7189
 630  945.6368
 631  939.7683
 632  776.2773
 633  845.2457
 634  837.8607
 635  905.0698
 636  912.1791
 637  974.2972
 638  943.069
 639  862.4982
 640  837.1368
 641  1028.389
 642  1074.111
 643  1241.055
 644  1302.273
 645  1491.325
 646  1530.481
 647  1395.17
 648  1371.116
 649  1468.989
 650  1631.912
 651  1696.195
 652  1694.345
 653  1591.17
 654  1424.017
 655  1409.072
 656  1379.805
 657  1351.721
 658  1111.668
 659  1020.981
 660  973.8937
 661  963.9014
 662  987.1285
 663  952.8466
 664  1060.991
 665  900.9387
 666  679.3451
 667  590.9226
 668  735.4236
 669  790.3476
 670  747.371
 671  755.3632
 672  799.3395
 673  810.951
 674  757.6003
 675  641.4522
 676  651.2078
 677  836.7455
 678  1078.085
 679  1176.802
 680  1135.923
 681  1250.93
 682  1304.106
 683  1264.755
 684  1060.757
 685  951.0235
 686  915.2992
 687  991.584
 688  871.3134
 689  740.5027
 690  426.0504
 691  408.7344
 692  605.1281
 693  825.1017
 694  951.4847
 695  979.7149
 696  1095.824
 697  1131.485
 698  998.9129
 699  952.494
 700  943.3327
 701  985.5818
 702  1083.619
 703  1130.025
 704  1142.891
 705  924.8832
 706  745.5711
 707  568.1422
 708  554.1506
 709  700.7395
 710  790.976
 711  946.0299
 712  887.3694
 713  814.2925
 714  799.8745
 715  990.8457
 716  1026.316
 717  1034.59
 718  1050.663
 719  1189.323
 720  1029.672
 721  850.3159
 722  870.7554
 723  889.1594
 724  1070.182
 725  922.9045
 726  906.0098
 727  716.8787
 728  747.0906
 729  706.8635
 730  734.7068
 731  601.3084
 732  810.0535
 733  950.1467
 734  1043.875
 735  1030.064
 736  1033.306
 737  979.3765
 738  741.2423
 739  697.8326
 740  611.4869
 741  585.2234
 742  723.3989
 743  917.562
 744  831.9468
 745  802.4603
 746  890.252
 747  1211.255
 748  1181.159
 749  1018.954
 750  770.9849
 751  808.5075
 752  881.5458
 753  1005.112
 754  897.6974
 755  841.7546
 756  729.289
 757  715.0024
 758  668.3472
 759  594.4408
 760  514.1077
 761  721.4282
 762  852.5343
 763  904.1608
 764  765.3849
 765  722.2283
 766  665.8587
 767  764.2332
 768  887.082
 769  965.8546
 770  968.9503
 771  932.3494
 772  980.2493
 773  969.4211
 774  983.2037
 775  756.8595
 776  675.2962
 777  630.6858
 778  633.8185
 779  681.0513
 780  585.7462
 781  501.2885
 782  442.6874
 783  628.649
 784  684.1871
 785  718.032
 786  738.0914
 787  855.4026
 788  979.3895
 789  1010.157
 790  1065.46
 791  1026.004
 792  1040.908
 793  1009.053
 794  935.5504
 795  909.933
 796  853.0208
 797  1021.145
 798  1096.777
 799  1032.329
 800  673.9108
 801  760.9937
 802  855.0973
 803  951.0573
 804  904.517
 805  968.9694
 806  974.4889
 807  884.7672
 808  766.9141
 809  709.6119
 810  712.7361
 811  761.6559
 812  758.5728
 813  793.3585
 814  922.0919
 815  910.2125
 816  892.7078
 817  789.8806
 818  788.7849
 819  970.3044
 820  1018.259
 821  1000.191
 822  888.2189
 823  887.347
 824  839.3853
 825  830.1204
 826  950.5051
 827  1005.292
 828  1070.279
 829  971.8269
 830  1086.91
 831  1085.018
 832  1034.632
 833  978.6148
 834  1073.944
 835  1182.599
 836  1008.203
 837  899.1438
 838  901.695
 839  939.7716
 840  825.3059
 841  752.6478
 842  894.9788
 843  918.3483
 844  921.33
 845  1006.207
 846  1033.723
 847  1097.836
 848  978.7825
 849  993.605
 850  993.929
 851  1110.13
 852  1271.543
 853  1136.712
 854  968.4813
 855  795.5767
 856  876.1426
 857  974.3254
 858  1016.107
 859  999.4119
 860  971.6665
 861  918.2001
 862  1037.142
 863  1106.369
 864  1055.946
 865  952.8852
 866  980.1605
 867  1110.388
 868  1157.191
 869  1191.199
 870  1184.532
 871  1132.53
 872  1062.624
 873  1056.431
 874  1088.456
 875  1147.908
 876  1159.098
 877  1113.326
 878  1066.032
 879  926.1193
 880  959.1231
 881  813.8843
 882  882.4955
 883  772.7039
 884  921.6782
 885  976.704
 886  1156.988
 887  1072.842
 888  995.6048
 889  883.7567
 890  842.0056
 891  815.9175
 892  852.1826
 893  927.2784
 894  924.2745
 895  982.7885
 896  1084.006
 897  1072.905
 898  985.6552
 899  1037.652
 900  1171.881
 901  1177.747
 902  1026.735
 903  957.2804
 904  930.4581
 905  741.4376
 906  538.1464
 907  612.9176
 908  689.012
 909  728.5526
 910  766.4542
 911  897.7117
 912  935.8766
 913  964.739
 914  1043.758
 915  1055.614
 916  1019.83
 917  977.2413
 918  968.4045
 919  924.0651
 920  999.3757
 921  983.3885
 922  935.8189
 923  792.114
 924  748.9769
 925  739.718
 926  772.2648
 927  712.3204
 928  702.5609
 929  596.4695
 930  605.6254
 931  615.4919
 932  712.8209
 933  738.7144
 934  846.7454
 935  1017.72
 936  1009.637
 937  998.5966
 938  982.8669
 939  1106.366
 940  1066.502
 941  868.1088
 942  691.9694
 943  630.4578
 944  751.4873
 945  676.3522
 946  574.2963
 947  672.3393
 948  726.8529
 949  677.0299
 950  660.5281
 951  844.0911
 952  903.8489
 953  956.1359
 954  984.0601
 955  1080.221
 956  941.7018
 957  802.0792
 958  838.3757
 959  1017.845
 960  1087.033
 961  968.6617
 962  741.7634
 963  658.0831
 964  525.8069
 965  732.93
 966  787.2639
 967  1067.29
 968  1198.727
 969  1193.186
 970  997.9619
 971  835.0517
 972  879.209
 973  839.3035
 974  714.5778
 975  707.4838
 976  666.4363
 977  762.0566
 978  955.5743
 979  1042.139
 980  903.7656
 981  806.4971
 982  970.2641
 983  1010.641
 984  1000.729
 985  789.7653
 986  832.0671
 987  676.7302
 988  799.0156
 989  753.1513
 990  868.3602
 991  819.4843
 992  893.5356
 993  883.8658
 994  867.7057
 995  821.7523
 996  938.7216
 997  955.7596
 998  1082.042
 999  1095.208
1000  1087.295
1001  1077.534
1002  1012.2
1003  958.9119
1004  992.3882
1005  1040.569
1006  1024.977
1007  892.0735
1008  850.2364
1009  1066.689
1010  1052.384
1011  1081.231
1012  920.6136
1013  860.8593
1014  765.0689
1015  824.476
1016  914.8937
1017  927.3516
1018  928.2726
1019  1201.496
1020  1297.64
1021  1279.884
1022  1092.139
1023  959.9798
