# Input file       =  1183370233.240542_cleaned.dat
# Candidate        =  PSR_0332+5434
# Telescope        =  AR
# Epoch_topo       =  57940.414956487752
# Epoch_bary       =  N/A
# T_sample         =  0.002
# Data Folded      =  7340032
# Data Avg         =  0.308561491650055
# Data StdDev      =  6.470245429693   
# Profile Bins     =  1024
# Profile Avg      =  2211.66594998235 
# Profile StdDev   =  547.797130512637 
# Reduced chi-sqr  =  1.636
# Prob(Noise)      <  3.39e-34   (~12.1 sigma)
# P_topo (ms)      =  714.485413880195  +/- 1.07e-05
# P'_topo (s/s)    =  -0                +/- 5.64e-12
# P''_topo (s/s^2) =  0                 +/- 2.49e-15
# P_bary (ms)      =  N/A
# P'_bary (s/s)    =  N/A
# P''_bary (s/s^2) =  N/A
# P_orb (s)        =  N/A
# asin(i)/c (s)    =  N/A
# eccentricity     =  N/A
# w (rad)          =  N/A
# T_peri           =  N/A
######################################################
   0  1894.92
   1  1859.657
   2  2050.405
   3  2208.19
   4  2367.431
   5  2418.315
   6  2411.863
   7  2170.488
   8  1850.608
   9  1615.178
  10  1680.018
  11  1917.937
  12  2207.448
  13  2353.018
  14  2478.52
  15  2545.918
  16  2357.068
  17  2192.41
  18  1857.604
  19  1866.883
  20  1901.201
  21  2200.664
  22  2475.813
  23  2626.027
  24  2611.187
  25  2491.262
  26  2272.376
  27  1972.316
  28  1710.812
  29  1811.323
  30  2069.068
  31  2333.886
  32  2521.014
  33  2602.127
  34  2621.302
  35  2503.75
  36  2257.619
  37  1865.718
  38  1848.844
  39  1963.657
  40  2116.479
  41  2183.038
  42  2199.317
  43  2348.125
  44  2328.568
  45  2160.08
  46  1864.692
  47  1691.323
  48  1730.214
  49  1798.377
  50  1982.056
  51  2207.451
  52  2328.848
  53  2303.031
  54  2274.375
  55  1960.823
  56  1758.131
  57  1626.032
  58  1640.106
  59  1865.061
  60  2167.799
  61  2395.253
  62  2448.102
  63  2400.81
  64  2314.039
  65  2062.454
  66  1795.032
  67  1527.802
  68  1779.814
  69  1897.73
  70  2109.257
  71  2210.591
  72  2296.188
  73  2261.582
  74  1922.089
  75  1670.078
  76  1565.32
  77  1536.871
  78  1720.314
  79  1887.789
  80  2011.211
  81  2181.11
  82  2218.6
  83  2157.196
  84  1853.516
  85  1547.855
  86  1562.57
  87  1778.754
  88  2031.745
  89  2191.692
  90  2294.397
  91  2380.393
  92  2310.11
  93  2019.547
  94  1524.018
  95  1254.673
  96  1262.737
  97  1563.463
  98  1969.832
  99  2346.423
 100  2705.438
 101  2675.553
 102  2496.922
 103  2114.542
 104  1857.16
 105  1753.594
 106  1954.607
 107  2198.708
 108  2327.517
 109  2336.29
 110  2342.15
 111  2304.977
 112  2115.52
 113  1874.112
 114  1654.37
 115  1571.11
 116  1790.387
 117  2164.72
 118  2484.481
 119  2536.255
 120  2394.031
 121  2319.171
 122  2029.636
 123  1745.8
 124  1438.066
 125  1540.675
 126  1788.439
 127  2037.274
 128  2219.476
 129  2232.232
 130  2149.704
 131  2018.603
 132  1859.062
 133  1699.343
 134  1590.289
 135  1766.462
 136  2030.62
 137  2295.985
 138  2328.845
 139  2365.068
 140  2345.023
 141  2254.799
 142  2016.355
 143  1638.956
 144  1596.11
 145  1735.062
 146  1914.888
 147  2113.329
 148  2088.677
 149  2094.926
 150  1880.218
 151  1645.378
 152  1449.487
 153  1406.037
 154  1577.38
 155  1918.23
 156  2088.167
 157  2274.763
 158  2389.858
 159  2294.629
 160  1955.372
 161  1603.605
 162  1537.814
 163  1564.893
 164  1779.229
 165  2156.394
 166  2541.655
 167  2786.71
 168  2851.736
 169  2702.634
 170  2382.612
 171  2087.437
 172  2019.771
 173  2115.838
 174  2308.181
 175  2626.082
 176  2780.01
 177  2819.513
 178  2683.981
 179  2472.475
 180  2142.702
 181  1877.476
 182  1830.017
 183  1986.832
 184  2277.96
 185  2644.402
 186  2927.194
 187  2956.666
 188  2739.684
 189  2341.157
 190  2064.302
 191  1990.725
 192  2033.73
 193  2097.607
 194  2305.368
 195  2549.304
 196  2667.286
 197  2484.161
 198  2123.794
 199  1763.831
 200  1802.834
 201  1884.857
 202  1968.202
 203  2146.551
 204  2386.569
 205  2467.931
 206  2369.231
 207  2267.847
 208  2037.718
 209  1916.63
 210  1765.849
 211  1906.47
 212  2018.118
 213  2292.973
 214  2513.284
 215  2594.153
 216  2483.68
 217  2191.164
 218  1812.788
 219  1478.37
 220  1437.933
 221  1698.2
 222  1986.228
 223  2349.099
 224  2451.175
 225  2460.866
 226  2247.078
 227  1984.767
 228  1755.698
 229  1564.31
 230  1471.846
 231  1604.482
 232  1926.257
 233  2260.724
 234  2563.683
 235  2739.028
 236  2610.43
 237  2261.205
 238  2020.189
 239  1882.947
 240  1736.239
 241  1844.718
 242  2074.422
 243  2362.888
 244  2449.594
 245  2386.77
 246  2186.683
 247  1782.973
 248  1387.077
 249  1288.228
 250  1502.066
 251  1823.266
 252  2033.608
 253  2170.816
 254  2244.59
 255  2027.995
 256  1742.215
 257  1548.97
 258  1666.649
 259  1903.864
 260  2070.45
 261  2193.215
 262  2203.211
 263  2131.476
 264  1970.313
 265  1897.054
 266  1662.874
 267  1675.345
 268  1556.701
 269  1532.133
 270  1714.666
 271  2050.093
 272  2288.758
 273  2416.379
 274  2348.277
 275  2127.169
 276  1878.263
 277  1759.926
 278  1899.164
 279  2223.143
 280  2464.132
 281  2680.969
 282  2670.384
 283  2620.55
 284  2407.504
 285  2233.924
 286  2057.41
 287  1942.289
 288  2045.415
 289  2413.929
 290  2555.031
 291  2651.654
 292  2554.751
 293  2456.357
 294  2213.486
 295  2024.87
 296  1773.513
 297  1882.313
 298  2227.15
 299  2519.396
 300  2613.163
 301  2705.728
 302  2727.935
 303  2718.049
 304  2427.131
 305  2247.862
 306  2068.958
 307  1969.02
 308  2132.238
 309  2382.521
 310  2679.503
 311  2774.699
 312  2778.363
 313  2565.251
 314  2380.701
 315  2130.677
 316  2066.335
 317  2188.612
 318  2427.69
 319  2657.902
 320  2776.386
 321  2835.845
 322  2720.338
 323  2395.376
 324  2028.312
 325  1791.236
 326  1858.069
 327  2031.821
 328  2334.266
 329  2513.176
 330  2682.389
 331  2510.083
 332  2278.255
 333  1916.473
 334  1677.071
 335  1514.268
 336  1658.332
 337  2027.861
 338  2364.781
 339  2566.24
 340  2488.946
 341  2357.945
 342  2023.049
 343  1710.693
 344  1594.197
 345  1678.455
 346  1904.002
 347  2128.265
 348  2221.077
 349  2269.428
 350  2319.33
 351  2211.286
 352  2048.652
 353  1845.659
 354  1741.718
 355  1782.165
 356  1937.747
 357  2300.718
 358  2618.071
 359  2704.033
 360  2549.411
 361  2248.772
 362  2008.533
 363  1828.916
 364  1757.007
 365  1921.665
 366  2295.831
 367  2519.016
 368  2588.895
 369  2564.848
 370  2364.748
 371  2181.438
 372  2172.466
 373  2211.324
 374  2311.743
 375  2365.811
 376  2777.579
 377  3062.719
 378  3027.196
 379  2747.58
 380  2534.644
 381  2480.623
 382  2296.479
 383  2254.319
 384  2390.857
 385  2750.366
 386  2921.651
 387  3127.702
 388  3159.274
 389  3002.603
 390  2601.021
 391  2271.365
 392  2087.509
 393  2165.237
 394  2419.788
 395  2849.103
 396  3051.73
 397  3106.062
 398  2917.049
 399  2628.429
 400  2446.711
 401  2285.133
 402  2375.874
 403  2511.954
 404  2873.1
 405  3039.573
 406  2972.336
 407  2803.834
 408  2504.581
 409  2339.114
 410  2098.743
 411  2031.307
 412  1943.313
 413  2246.161
 414  2461.115
 415  2758.942
 416  2938.922
 417  2830.421
 418  2648.58
 419  2423.84
 420  2180.588
 421  2036.12
 422  2096.177
 423  2374.396
 424  2570.592
 425  2750.604
 426  2781.781
 427  2637.169
 428  2456.97
 429  2354.676
 430  2253.341
 431  2248.454
 432  2331.092
 433  2598.275
 434  2852.046
 435  3021.646
 436  2927.632
 437  2742.486
 438  2413.236
 439  2284.994
 440  2264.09
 441  2267.999
 442  2375.52
 443  2703.31
 444  2995.19
 445  3022.769
 446  2834.656
 447  2678.529
 448  2418.445
 449  2301.647
 450  2180.324
 451  2222.954
 452  2237.385
 453  2551.441
 454  2829.842
 455  2862.06
 456  2590.352
 457  2204.565
 458  1901.58
 459  1840.729
 460  1986.234
 461  2270.55
 462  2581.965
 463  2630.484
 464  2722.429
 465  2700.364
 466  2547.657
 467  2262.035
 468  1947.276
 469  1865.279
 470  1950.797
 471  2131.666
 472  2365.095
 473  2533.306
 474  2624.514
 475  2484.628
 476  2124.893
 477  1876.437
 478  1732.009
 479  1844.883
 480  1912.865
 481  2129.369
 482  2378.436
 483  2600.316
 484  2589.051
 485  2381.46
 486  2271.34
 487  2083.328
 488  1882.297
 489  1795.694
 490  2058.995
 491  2357.572
 492  2582.487
 493  2605.102
 494  2450.535
 495  2301.031
 496  1955.779
 497  1792.557
 498  1604.502
 499  1730.067
 500  1846.359
 501  1994.39
 502  2231.081
 503  2394.126
 504  2430.429
 505  2137.515
 506  1870.326
 507  1794.183
 508  1962.392
 509  2158.773
 510  2174.989
 511  2369.233
 512  2385.255
 513  2333.634
 514  1973.69
 515  1665.518
 516  1576.506
 517  1662.61
 518  1869.101
 519  2222.093
 520  2535.966
 521  2615.156
 522  2643.891
 523  2618.785
 524  2483.528
 525  2227.615
 526  2018.642
 527  1974.827
 528  2026.182
 529  2327.154
 530  2507.048
 531  2545.812
 532  2527.375
 533  2457.485
 534  2343.986
 535  2246.941
 536  2088.115
 537  2067.72
 538  2278.335
 539  2681.604
 540  3037.843
 541  2991.678
 542  2723.563
 543  2404.965
 544  2256.846
 545  2260.841
 546  2352.761
 547  2484.514
 548  2634.415
 549  2613.497
 550  2743.953
 551  2851.228
 552  2825.942
 553  2476.471
 554  2071.492
 555  2071.901
 556  2293.766
 557  2627.219
 558  2964.511
 559  3303.552
 560  3406.16
 561  3130.28
 562  2633.88
 563  2266.125
 564  2089.315
 565  2137.421
 566  2428.298
 567  2812.523
 568  3010.225
 569  3041.054
 570  2927.493
 571  2799.019
 572  2569.438
 573  2325.596
 574  2254.602
 575  2290.476
 576  2415.069
 577  2568.837
 578  2743.058
 579  2953.806
 580  2955.283
 581  2674.719
 582  2494.42
 583  2304.933
 584  2237.05
 585  2302.321
 586  2482.234
 587  2834.587
 588  2916.781
 589  2914.04
 590  2523.667
 591  2223.816
 592  2067.893
 593  1996.122
 594  2128.214
 595  2253.726
 596  2542.612
 597  2850.369
 598  2964.79
 599  2788.434
 600  2362.635
 601  2066.666
 602  1944.524
 603  1948.71
 604  2053.919
 605  2122.834
 606  2449.904
 607  2703.46
 608  2726.237
 609  2387.405
 610  2192.683
 611  1930.296
 612  1850.329
 613  1742.672
 614  1906.353
 615  2120.66
 616  2442.275
 617  2616.559
 618  2642.018
 619  2315.29
 620  1988.361
 621  1805.944
 622  1861.868
 623  1964.615
 624  2142.163
 625  2191.289
 626  2333.302
 627  2303.322
 628  2232.478
 629  2049.894
 630  1778.581
 631  1725.645
 632  1661.55
 633  2024.511
 634  2383.878
 635  2687.158
 636  2831.579
 637  2676.522
 638  2526.235
 639  2279.595
 640  2110.162
 641  1962.532
 642  2001.405
 643  2225.914
 644  2443.726
 645  2655.289
 646  2778.234
 647  2742.632
 648  2681.01
 649  2699.32
 650  2678.227
 651  2743.343
 652  2799.657
 653  2977.255
 654  3085.865
 655  3211.246
 656  3111.771
 657  2890.274
 658  2654.805
 659  2310.389
 660  2168.32
 661  2021.484
 662  2143.036
 663  2261.07
 664  2418.597
 665  2443.049
 666  2248.052
 667  1959.282
 668  1759.912
 669  1609.097
 670  1672.654
 671  1697.466
 672  1928.279
 673  2265.003
 674  2493.07
 675  2624.697
 676  2419.244
 677  2235.019
 678  1962.282
 679  1885.097
 680  1900.937
 681  1974.537
 682  2194.629
 683  2414.186
 684  2559.102
 685  2582.662
 686  2413.241
 687  2171.772
 688  1904.266
 689  1771.054
 690  1893.13
 691  2162.479
 692  2391.138
 693  2601.495
 694  2571.285
 695  2328.973
 696  2045.469
 697  1934.695
 698  2010.77
 699  2141.405
 700  2237.396
 701  2213.637
 702  2259.94
 703  2376.682
 704  2598.563
 705  2534.376
 706  2247.61
 707  2008.598
 708  1959.701
 709  2140.011
 710  2315.7
 711  2570.588
 712  2834.373
 713  2992.748
 714  2928.643
 715  2692.726
 716  2461.681
 717  2368.041
 718  2303.185
 719  2328.415
 720  2409.915
 721  2605.748
 722  2736.927
 723  2866.142
 724  2716.283
 725  2386.386
 726  2124.731
 727  2068.495
 728  2145.981
 729  2306.983
 730  2543.449
 731  2718.698
 732  2672.706
 733  2463.723
 734  2268.375
 735  2039.114
 736  1787.74
 737  1750.156
 738  2048.812
 739  2309.193
 740  2406.905
 741  2522.121
 742  2567.955
 743  2418.498
 744  2222.59
 745  2029.619
 746  1843.585
 747  1686.649
 748  1799.159
 749  2204.307
 750  2416.54
 751  2454.355
 752  2360.005
 753  2177.74
 754  1802.401
 755  1575.736
 756  1553.298
 757  1790.87
 758  2066.281
 759  2498.048
 760  2886.565
 761  2876.063
 762  2596.307
 763  2374.582
 764  2065.85
 765  1948.087
 766  1835.786
 767  2136.969
 768  2404.641
 769  2744.145
 770  3020.11
 771  2964.02
 772  2607.807
 773  2262.767
 774  2048.305
 775  2030.568
 776  2103.887
 777  2307.642
 778  2700.661
 779  2944.38
 780  2991.252
 781  2895.033
 782  2711.227
 783  2570.456
 784  2305.766
 785  2209.025
 786  2238.586
 787  2443.637
 788  2707.295
 789  2968.189
 790  2934.788
 791  2751.879
 792  2397.012
 793  2097.664
 794  1882.927
 795  1921.021
 796  2315.078
 797  2746.06
 798  2843.33
 799  2764.531
 800  2692.852
 801  2481.75
 802  2151.549
 803  1870.578
 804  1887.247
 805  2053.167
 806  2201.893
 807  2366.396
 808  2488.519
 809  2630.667
 810  2504.964
 811  2284.983
 812  1963.742
 813  1950.801
 814  2017.886
 815  2186.111
 816  2329.935
 817  2503.501
 818  2641.333
 819  2660.983
 820  2361.599
 821  2038.726
 822  1643.746
 823  1638.051
 824  1733.623
 825  2098.877
 826  2559.906
 827  2835.912
 828  2706.097
 829  2559.366
 830  2418.648
 831  2331.663
 832  2056.584
 833  1923.528
 834  1916.639
 835  2141.533
 836  2315.769
 837  2363.766
 838  2200.186
 839  2052.621
 840  1794.346
 841  1521.007
 842  1399.425
 843  1699.43
 844  2137.246
 845  2471.431
 846  2679.115
 847  2607.593
 848  2455.344
 849  1959.711
 850  1806.186
 851  1566.068
 852  1582.314
 853  1655.953
 854  1925.134
 855  2189.764
 856  2252.426
 857  2266.153
 858  2107.321
 859  1916.196
 860  1646.6
 861  1601.344
 862  1713.783
 863  1907.017
 864  2116.755
 865  2329.548
 866  2556.683
 867  2360.642
 868  2132.495
 869  1907.824
 870  1705.969
 871  1689.307
 872  1845.645
 873  2157.896
 874  2324.489
 875  2408.485
 876  2400.117
 877  2191.416
 878  1797.497
 879  1344.961
 880  1217.156
 881  1229.21
 882  1460.587
 883  1796.521
 884  1994.565
 885  2135.293
 886  2061.423
 887  1881.474
 888  1562.684
 889  1340.271
 890  1283.382
 891  1384.415
 892  1650.693
 893  1908.873
 894  2130.734
 895  2201.658
 896  2242.866
 897  2054.808
 898  1643.017
 899  1415.509
 900  1273.679
 901  1672.615
 902  1882.967
 903  2178.87
 904  2269.728
 905  2340.122
 906  2097.265
 907  1747.99
 908  1495.694
 909  1540.521
 910  1724.837
 911  2033.432
 912  2257.805
 913  2554.92
 914  2465.184
 915  2309.834
 916  1779.09
 917  1522.806
 918  1298.334
 919  1358.34
 920  1548.321
 921  1785.577
 922  2137.352
 923  2339.036
 924  2381.977
 925  2304.98
 926  2069.571
 927  1810.839
 928  1493.898
 929  1519.615
 930  1627.449
 931  2087.224
 932  2320.04
 933  2388.964
 934  2088.475
 935  1697.624
 936  1472.933
 937  1451.642
 938  1578.599
 939  1754.936
 940  1856.975
 941  2175.812
 942  2414.192
 943  2487.203
 944  2258.516
 945  1979.715
 946  1736.267
 947  1629.126
 948  1647.482
 949  1776.069
 950  1883.161
 951  2029.38
 952  2184.341
 953  2299.184
 954  2126.194
 955  1882.248
 956  1796.808
 957  1838.997
 958  1959.315
 959  2270.073
 960  2498.236
 961  2748.148
 962  2636.549
 963  2454.12
 964  1976.933
 965  1654.814
 966  1534.273
 967  1624.168
 968  1857.74
 969  2284.091
 970  2536.712
 971  2686.351
 972  2637.686
 973  2447.984
 974  2220.561
 975  1899.418
 976  1720.053
 977  1622.022
 978  1892.251
 979  2169.628
 980  2295.928
 981  2460.943
 982  2499.554
 983  2481.952
 984  2077.568
 985  1685.182
 986  1596.798
 987  1890.432
 988  2209.928
 989  2284.334
 990  2413.216
 991  2549.754
 992  2543.076
 993  2259.124
 994  2049.295
 995  1825.085
 996  1769.47
 997  1927.407
 998  2195.982
 999  2384.175
1000  2446.811
1001  2347.312
1002  2154.372
1003  1821.944
1004  1646.507
1005  1560.336
1006  1625.76
1007  1897.889
1008  2286.35
1009  2477.038
1010  2450.225
1011  2287.247
1012  2005.755
1013  1830.038
1014  1645.02
1015  1760.883
1016  1855.175
1017  1969.457
1018  2132.998
1019  2297.655
1020  2380.427
1021  2256.414
1022  2196.555
1023  1986.444
