# Input file       =  1183712136.10114_cleaned.dat
# Candidate        =  PSR_0332+5434
# Telescope        =  AR
# Epoch_topo       =  57944.372165522451
# Epoch_bary       =  N/A
# T_sample         =  0.002
# Data Folded      =  7340032
# Data Avg         =  0.503411148833817
# Data StdDev      =  7.78593533091802 
# Profile Bins     =  512
# Profile Avg      =  7216.68634651021 
# Profile StdDev   =  932.233678203956 
# Reduced chi-sqr  =  0.795
# Prob(Noise)      <  1   (~0.0 sigma)
# P_topo (ms)      =  714.482443221433  +/- 0.000213
# P'_topo (s/s)    =  -0                +/- 1.13e-10
# P''_topo (s/s^2) =  0                 +/- 4.97e-14
# P_bary (ms)      =  N/A
# P'_bary (s/s)    =  N/A
# P''_bary (s/s^2) =  N/A
# P_orb (s)        =  N/A
# asin(i)/c (s)    =  N/A
# eccentricity     =  N/A
# w (rad)          =  N/A
# T_peri           =  N/A
######################################################
   0  7499.213
   1  7399.401
   2  7731.579
   3  7890.896
   4  7787.181
   5  7450.956
   6  7067.421
   7  7014.029
   8  7112.875
   9  6465.457
  10  6575.613
  11  6758.893
  12  6494.501
  13  6429.873
  14  6441.355
  15  6483.353
  16  6506.854
  17  6588.256
  18  6831.795
  19  6833.781
  20  7644.636
  21  7985.838
  22  7719.778
  23  7304.481
  24  7541.298
  25  7445.208
  26  7060.873
  27  6838.349
  28  7033.018
  29  7110.806
  30  7196.22
  31  7665.903
  32  7728.665
  33  7358.977
  34  7215.415
  35  7122.5
  36  7195.517
  37  7130.194
  38  7251.696
  39  6939.036
  40  6582.338
  41  6897.252
  42  6390.644
  43  6105.421
  44  5784.866
  45  5923.61
  46  6173.384
  47  6287.812
  48  6280.441
  49  6664.364
  50  6805.698
  51  6861.37
  52  6824.298
  53  6782.692
  54  7220.636
  55  7356.957
  56  7138.589
  57  7133.605
  58  7429.01
  59  7573.763
  60  7070.931
  61  6600.916
  62  6539.866
  63  6365.768
  64  6831.177
  65  7342.4
  66  7318.444
  67  7351.53
  68  7035.615
  69  7426.216
  70  7551.309
  71  7391.497
  72  7292.689
  73  7148.738
  74  6985.382
  75  6998.752
  76  6925.181
  77  7003.253
  78  7006.199
  79  6986.33
  80  6830.955
  81  6835.18
  82  6891.503
  83  7128.101
  84  6896.874
  85  7471.01
  86  7269.331
  87  7266.99
  88  7545.945
  89  7737.373
  90  7188.626
  91  6666.792
  92  7023.84
  93  7116.169
  94  7360.877
  95  7098.9
  96  7006.63
  97  6747.012
  98  7046.798
  99  6971.593
 100  6867.432
 101  7005.117
 102  7314.758
 103  7236.026
 104  7532.752
 105  7569.527
 106  7979.794
 107  7769.626
 108  7619.2
 109  7171.315
 110  6677.685
 111  6809.385
 112  7183.846
 113  6860.519
 114  6340.893
 115  6340.499
 116  6538.335
 117  6916.837
 118  6797.976
 119  6915.088
 120  6852.727
 121  7007.345
 122  7036.071
 123  6785.859
 124  6290.736
 125  6969.109
 126  7352.933
 127  7806.396
 128  7718.044
 129  7181.159
 130  6881.443
 131  6674.548
 132  6631.799
 133  6329.209
 134  6680.206
 135  6808.106
 136  7217.419
 137  7519.675
 138  7489.021
 139  7513.241
 140  7393.357
 141  7485.711
 142  7602.729
 143  7431.375
 144  7824.302
 145  7519.882
 146  7917.609
 147  8054.144
 148  7557.192
 149  7414.567
 150  7740.516
 151  8150.442
 152  7506.104
 153  7554.009
 154  7695.297
 155  7762.568
 156  7834.665
 157  7872.443
 158  8339.444
 159  8227.992
 160  8420.894
 161  8417.831
 162  8410.315
 163  8334.025
 164  8045.405
 165  8033.342
 166  7875.923
 167  7679.795
 168  7523.489
 169  7481.118
 170  7403.879
 171  7286.59
 172  6912.07
 173  6968.454
 174  7259.562
 175  8020.157
 176  7937.181
 177  7513.35
 178  6962.041
 179  7088.558
 180  7257.979
 181  7324.005
 182  7254.206
 183  7433.521
 184  7446.282
 185  7042.197
 186  6882.095
 187  6978.04
 188  7068.638
 189  6887.809
 190  6896.805
 191  6325.798
 192  6887.147
 193  7464.574
 194  7586.332
 195  7010.58
 196  7311.624
 197  7336.438
 198  7589.243
 199  7504.696
 200  7318.064
 201  7091.607
 202  6988.301
 203  7574.777
 204  7501.832
 205  7074.933
 206  6847.926
 207  7034.283
 208  7470.527
 209  7511.841
 210  7691.958
 211  7425.28
 212  7675.674
 213  7419.27
 214  7382.854
 215  7345.425
 216  7252.034
 217  6996.672
 218  6726.838
 219  6673.557
 220  6760.76
 221  6589.14
 222  6509.903
 223  6411.778
 224  6536.913
 225  5986.791
 226  6406.537
 227  6838.309
 228  7044.425
 229  7065.337
 230  6989.264
 231  7066.14
 232  7241.492
 233  7651.147
 234  7890.565
 235  7724.496
 236  7680.134
 237  7401.127
 238  7175.073
 239  6928.034
 240  6744.709
 241  6829.97
 242  7406.146
 243  7815.332
 244  7760.282
 245  7778.645
 246  7929.608
 247  7712.422
 248  7667.505
 249  7408.866
 250  7487.022
 251  7883.104
 252  7344.785
 253  6995.794
 254  6978.089
 255  7211.715
 256  7441.656
 257  7197.637
 258  7193.375
 259  7171.923
 260  7170.055
 261  7285.043
 262  7178.025
 263  7317.023
 264  7308.311
 265  7769.686
 266  8081.349
 267  7897.098
 268  7667.946
 269  8015.803
 270  7847.321
 271  8068.785
 272  8045.664
 273  7818.823
 274  7294.038
 275  7152.77
 276  7293.703
 277  7092.565
 278  7083.75
 279  7141.676
 280  7059.437
 281  7061.831
 282  7444.874
 283  7463.768
 284  7670.119
 285  7712.709
 286  7906.174
 287  7937.388
 288  7596.234
 289  7584.411
 290  7716.133
 291  7582.233
 292  7271.54
 293  7612.188
 294  7861.749
 295  7299.497
 296  6720.767
 297  6933.889
 298  7173.679
 299  7216.688
 300  7319.63
 301  6957.869
 302  7224.896
 303  7126.934
 304  6744.038
 305  6677.872
 306  6714.054
 307  6838.638
 308  7685.091
 309  7566.536
 310  7298.221
 311  7325.885
 312  7251.51
 313  7214.432
 314  7212.293
 315  7295.984
 316  7137.026
 317  7044.305
 318  7485.094
 319  7639.497
 320  7437.162
 321  7653.866
 322  7755.887
 323  7906.075
 324  7907.012
 325  8004.52
 326  7764.602
 327  7860.19
 328  7980.669
 329  8354.029
 330  8099.218
 331  7962.301
 332  8318.378
 333  8365.509
 334  8362.552
 335  8758.219
 336  8456.871
 337  8803.881
 338  8830.765
 339  8073.705
 340  7773.469
 341  7797.282
 342  7906.13
 343  7685.139
 344  7655.809
 345  7556.646
 346  7744.078
 347  7742.418
 348  7153.738
 349  7498.313
 350  8028.647
 351  8687.225
 352  8468.029
 353  8776.423
 354  9221.607
 355  9644.406
 356  9961.254
 357  9839.555
 358  9640.32
 359  9142.105
 360  8310.827
 361  8068.882
 362  7687.811
 363  7721.252
 364  7603.359
 365  7635.049
 366  7367.856
 367  7050.337
 368  7368.526
 369  7447.387
 370  7485.92
 371  7779.851
 372  7738.374
 373  7415.472
 374  7423.929
 375  7237.567
 376  6655.836
 377  6689.791
 378  6528.382
 379  6332.542
 380  6576.818
 381  6717.153
 382  6217.963
 383  5968.722
 384  6322.422
 385  6682.754
 386  6528.353
 387  6226.64
 388  6602.25
 389  7063.884
 390  7334.289
 391  7219.885
 392  6793.234
 393  6454.272
 394  6486.991
 395  6809.844
 396  7021.886
 397  6407.232
 398  6605.064
 399  6483.321
 400  6299.893
 401  6468.435
 402  6840.549
 403  7175.829
 404  7434.887
 405  7104.874
 406  7206.688
 407  7206.988
 408  7415.896
 409  7815.162
 410  7727.978
 411  7363.099
 412  6904.385
 413  6782.74
 414  6846.421
 415  6625.707
 416  6599.716
 417  6268.938
 418  6159.745
 419  6695.749
 420  6663.108
 421  6549.265
 422  6536.879
 423  6783.905
 424  6713.775
 425  6675.921
 426  6746.762
 427  7022.545
 428  6793.205
 429  6798.765
 430  6952.951
 431  6479.397
 432  6381.107
 433  6329.512
 434  6417.826
 435  6348.135
 436  6448.673
 437  6479.175
 438  6223.641
 439  5538.812
 440  5853.615
 441  6198.428
 442  6557.903
 443  6530.538
 444  6366.646
 445  6176.147
 446  6053.931
 447  5921.608
 448  5985.217
 449  5734.717
 450  5826.654
 451  6150.711
 452  5953.95
 453  6168.628
 454  6423.787
 455  6613.308
 456  6816.054
 457  7196.278
 458  6998.872
 459  6856.187
 460  7292.271
 461  7361.526
 462  7294.883
 463  7101.7
 464  7149.862
 465  7315.951
 466  6839.831
 467  6652.354
 468  6450.282
 469  7024.733
 470  7067.37
 471  6927.21
 472  7052.903
 473  7163.359
 474  7256.501
 475  7152.281
 476  7331.978
 477  7558.003
 478  7712.792
 479  7435.792
 480  7475.043
 481  7244.835
 482  6915.459
 483  7174.905
 484  7603.363
 485  7735.519
 486  7480.616
 487  7512.872
 488  6841.118
 489  6989.657
 490  7280.61
 491  6846.809
 492  6576.968
 493  7006.991
 494  7499.246
 495  7440.458
 496  7114.316
 497  7025.306
 498  6887.684
 499  6968.98
 500  7310.527
 501  6994.088
 502  6857.266
 503  7001.242
 504  7177.755
 505  7378.116
 506  7392.361
 507  7201.117
 508  7371.187
 509  7890.433
 510  7755.167
 511  7538.379
