# Input file       =  1183869605.095054_cleaned.dat
# Candidate        =  PSR_0332+5434
# Telescope        =  AR
# Epoch_topo       =  57946.194723322384
# Epoch_bary       =  N/A
# T_sample         =  0.002
# Data Folded      =  7340032
# Data Avg         =  0.0423244953539674
# Data StdDev      =  1.00021923438954 
# Profile Bins     =  512
# Profile Avg      =  606.855862311518 
# Profile StdDev   =  119.759285975904 
# Reduced chi-sqr  =  1.094
# Prob(Noise)      <  0.0691   (~1.5 sigma)
# P_topo (ms)      =  714.480828348616  +/- 0.000157
# P'_topo (s/s)    =  -0                +/- 8.3e-11
# P''_topo (s/s^2) =  0                 +/- 3.67e-14
# P_bary (ms)      =  N/A
# P'_bary (s/s)    =  N/A
# P''_bary (s/s^2) =  N/A
# P_orb (s)        =  N/A
# asin(i)/c (s)    =  N/A
# eccentricity     =  N/A
# w (rad)          =  N/A
# T_peri           =  N/A
######################################################
   0  642.9437
   1  643.6757
   2  686.339
   3  612.3664
   4  615.7699
   5  661.6909
   6  668.9208
   7  631.1264
   8  575.8971
   9  624.9685
  10  529.0558
  11  537.3376
  12  660.556
  13  567.074
  14  576.2745
  15  571.0215
  16  534.0886
  17  501.8827
  18  471.2834
  19  437.2216
  20  573.0874
  21  564.9957
  22  584.7662
  23  653.4394
  24  652.192
  25  714.4417
  26  779.5671
  27  725.6985
  28  641.8749
  29  543.1571
  30  430.3118
  31  490.9539
  32  549.8632
  33  607.6497
  34  545.0067
  35  612.9344
  36  538.8994
  37  476.8007
  38  513.5359
  39  506.42
  40  568.7276
  41  605.3911
  42  605.1836
  43  629.815
  44  604.4621
  45  698.127
  46  627.4766
  47  495.1663
  48  586.4485
  49  626.8958
  50  536.014
  51  503.1543
  52  545.6787
  53  403.4004
  54  422.3387
  55  645.6704
  56  602.5711
  57  634.8674
  58  692.2231
  59  631.901
  60  631.8836
  61  721.0938
  62  767.7018
  63  679.3846
  64  637.98
  65  584.2035
  66  480.5723
  67  610.0677
  68  535.7784
  69  648.8475
  70  544.8379
  71  476.7961
  72  607.7067
  73  563.4703
  74  630.5724
  75  591.756
  76  589.4666
  77  629.3249
  78  572.4244
  79  563.6318
  80  538.7838
  81  531.3552
  82  600.1851
  83  609.9062
  84  574.4417
  85  656.0971
  86  710.8691
  87  675.0164
  88  628.7042
  89  631.579
  90  634.9724
  91  705.8071
  92  698.0062
  93  671.3473
  94  706.7072
  95  571.5427
  96  563.7255
  97  505.7374
  98  574.3171
  99  657.1113
 100  647.9451
 101  610.0795
 102  593.8604
 103  694.4747
 104  683.2797
 105  670.2847
 106  733.4464
 107  777.6215
 108  646.4639
 109  555.8768
 110  593.2203
 111  667.097
 112  623.4948
 113  668.3937
 114  670.5424
 115  589.216
 116  618.0284
 117  687.3979
 118  650.7209
 119  706.528
 120  586.2525
 121  514.788
 122  714.3735
 123  724.8946
 124  613.8959
 125  662.7707
 126  636.6584
 127  536.997
 128  503.5196
 129  601.0388
 130  753.9702
 131  671.3125
 132  682.9893
 133  595.3379
 134  593.42
 135  732.0762
 136  702.3795
 137  736.0458
 138  655.0248
 139  582.3383
 140  543.8402
 141  571.7143
 142  681.7195
 143  622.4255
 144  630.0182
 145  672.6496
 146  613.7505
 147  622.3412
 148  674.122
 149  604.4261
 150  587.6923
 151  490.5007
 152  460.4953
 153  553.4246
 154  546.6985
 155  550.606
 156  614.2548
 157  561.6582
 158  437.1188
 159  509.1296
 160  540.569
 161  604.2811
 162  600.9339
 163  563.6846
 164  552.5072
 165  569.7031
 166  640.6121
 167  603.1479
 168  573.1193
 169  604.7064
 170  576.7981
 171  605.6116
 172  711.3765
 173  668.7083
 174  553.8768
 175  544.4743
 176  687.585
 177  628.3737
 178  566.2699
 179  600.2071
 180  573.222
 181  542.4984
 182  515.9672
 183  597.8488
 184  669.8751
 185  704.9573
 186  728.4777
 187  703.0979
 188  619.1765
 189  553.1167
 190  437.3618
 191  408.0721
 192  545.1821
 193  599.4171
 194  603.7809
 195  594.1194
 196  666.4607
 197  736.4232
 198  747.1542
 199  722.7754
 200  699.3453
 201  607.2517
 202  666.4795
 203  689.9721
 204  715.6467
 205  627.8353
 206  591.781
 207  566.0543
 208  687.6917
 209  708.7584
 210  650.2072
 211  666.873
 212  712.278
 213  635.9806
 214  634.9378
 215  771.3625
 216  908.0377
 217  837.1846
 218  731.9086
 219  709.1266
 220  753.1038
 221  694.3277
 222  683.4477
 223  590.4139
 224  634.0449
 225  636.815
 226  513.2588
 227  500.7157
 228  588.5193
 229  546.4068
 230  453.4032
 231  401.5049
 232  540.3508
 233  634.8423
 234  572.2772
 235  582.636
 236  490.7069
 237  577.2238
 238  622.8424
 239  610.7877
 240  517.6995
 241  367.8412
 242  468.0764
 243  528.7596
 244  517.9823
 245  506.1174
 246  610.3365
 247  628.7587
 248  582.8213
 249  616.4929
 250  540.9799
 251  637.2749
 252  723.3273
 253  615.6601
 254  708.1799
 255  779.069
 256  700.9948
 257  682.6888
 258  586.7068
 259  657.6753
 260  719.7028
 261  606.0094
 262  538.2528
 263  497.0454
 264  594.4487
 265  668.9306
 266  619.7601
 267  600.857
 268  584.5576
 269  619.0699
 270  683.1148
 271  654.4349
 272  592.5687
 273  642.2135
 274  648.7568
 275  684.6604
 276  646.943
 277  546.439
 278  612.9609
 279  523.4008
 280  594.634
 281  658.0352
 282  756.3282
 283  590.6541
 284  531.4761
 285  610.0032
 286  706.7907
 287  701.2461
 288  673.8849
 289  752.4954
 290  715.4792
 291  625.5787
 292  698.1693
 293  659.3325
 294  704.6097
 295  673.0601
 296  630.8965
 297  683.3718
 298  651.4155
 299  676.0455
 300  569.5374
 301  603.8464
 302  623.5233
 303  522.3352
 304  535.9871
 305  688.7043
 306  830.2161
 307  1035.702
 308  1179.871
 309  1116.772
 310  1035.18
 311  954.9097
 312  917.915
 313  805.7131
 314  652.9611
 315  608.0495
 316  573.0978
 317  570.8469
 318  542.6251
 319  629.1888
 320  657.4671
 321  623.9258
 322  645.6964
 323  685.775
 324  646.7789
 325  620.4084
 326  610.0544
 327  549.5713
 328  620.639
 329  600.0959
 330  544.8124
 331  611.626
 332  591.3654
 333  549.1599
 334  523.4887
 335  532.7797
 336  622.8485
 337  540.6601
 338  597.424
 339  715.14
 340  634.1771
 341  582.7245
 342  604.6144
 343  715.5386
 344  568.1522
 345  632.8395
 346  543.5571
 347  415.7791
 348  373.8904
 349  465.9498
 350  496.0697
 351  563.621
 352  555.8928
 353  572.5667
 354  579.4651
 355  465.9472
 356  471.508
 357  538.9362
 358  607.4665
 359  516.0265
 360  506.3941
 361  631.5443
 362  589.6495
 363  625.809
 364  609.9289
 365  620.0513
 366  723.3977
 367  643.1044
 368  620.9088
 369  566.2739
 370  627.9336
 371  632.9779
 372  687.9169
 373  702.6318
 374  728.3165
 375  608.4852
 376  521.8148
 377  549.2111
 378  547.8407
 379  491.8783
 380  611.529
 381  671.9023
 382  601.7313
 383  565.5377
 384  519.9916
 385  636.2754
 386  647.3681
 387  635.1212
 388  638.8707
 389  624.4467
 390  642.5893
 391  562.1561
 392  614.6548
 393  614.6835
 394  639.235
 395  669.519
 396  603.4077
 397  679.1857
 398  685.1862
 399  633.175
 400  676.2522
 401  612.6644
 402  530.0308
 403  588.5055
 404  647.1696
 405  663.3953
 406  504.6862
 407  613.2104
 408  664.7973
 409  509.8561
 410  615.4404
 411  561.6711
 412  548.2822
 413  593.3495
 414  536.1627
 415  600.1719
 416  516.7866
 417  541.5305
 418  623.3145
 419  549.9288
 420  502.5207
 421  559.4155
 422  533.5804
 423  630.2555
 424  477.9366
 425  394.03
 426  508.6468
 427  536.2072
 428  605.6418
 429  666.2103
 430  617.3271
 431  474.0528
 432  453.3371
 433  508.8136
 434  605.1794
 435  658.1729
 436  536.446
 437  431.4081
 438  532.9802
 439  500.1522
 440  413.6119
 441  494.413
 442  562.3442
 443  491.2135
 444  495.8394
 445  552.3469
 446  637.9687
 447  479.1306
 448  488.4846
 449  485.8698
 450  547.8742
 451  595.4
 452  607.2395
 453  546.1484
 454  526.3877
 455  527.8582
 456  567.5001
 457  577.7437
 458  583.5903
 459  521.7314
 460  564.6755
 461  551.5009
 462  598.0885
 463  647.6606
 464  677.1918
 465  700.0677
 466  637.9805
 467  628.2125
 468  616.4899
 469  514.091
 470  530.132
 471  536.0651
 472  651.1266
 473  552.8547
 474  534.7235
 475  541.7593
 476  442.0389
 477  470.9981
 478  506.1526
 479  570.0238
 480  625.2652
 481  531.041
 482  546.0349
 483  660.7604
 484  726.042
 485  625.2426
 486  706.946
 487  727.577
 488  698.1227
 489  528.5234
 490  612.1429
 491  554.4478
 492  542.0892
 493  635.516
 494  643.7152
 495  556.686
 496  620.2166
 497  553.1566
 498  517.2979
 499  548.832
 500  554.3909
 501  472.8654
 502  572.519
 503  572.7361
 504  571.06
 505  562.5554
 506  510.5748
 507  615.3578
 508  653.8563
 509  579.0004
 510  597.2802
 511  622.3395
