# Input file       =  1183094583.125446_cleaned.dat
# Candidate        =  PSR_0332+5434
# Telescope        =  AR
# Epoch_topo       =  57937.224561637107
# Epoch_bary       =  N/A
# T_sample         =  0.002
# Data Folded      =  7340032
# Data Avg         =  0.0525988977029981
# Data StdDev      =  1.00019776190018 
# Profile Bins     =  512
# Profile Avg      =  753.894770958848 
# Profile StdDev   =  119.756715009554 
# Reduced chi-sqr  =  1.335
# Prob(Noise)      <  5.53e-07   (~4.9 sigma)
# P_topo (ms)      =  714.487468679873  +/- 0.000187
# P'_topo (s/s)    =  -0                +/- 9.88e-11
# P''_topo (s/s^2) =  0                 +/- 4.36e-14
# P_bary (ms)      =  N/A
# P'_bary (s/s)    =  N/A
# P''_bary (s/s^2) =  N/A
# P_orb (s)        =  N/A
# asin(i)/c (s)    =  N/A
# eccentricity     =  N/A
# w (rad)          =  N/A
# T_peri           =  N/A
######################################################
   0  1380.224
   1  1274.959
   2  1036.146
   3  896.3671
   4  879.6388
   5  807.902
   6  713.6831
   7  750.8669
   8  771.6641
   9  855.0714
  10  866.2142
  11  917.9818
  12  866.498
  13  857.2499
  14  967.136
  15  1019.113
  16  881.6096
  17  748.5532
  18  763.2646
  19  743.1454
  20  746.7147
  21  750.3068
  22  721.5156
  23  649.9875
  24  652.2517
  25  723.1335
  26  672.063
  27  626.7177
  28  658.5917
  29  704.4552
  30  676.7507
  31  654.1721
  32  581.985
  33  630.5022
  34  690.4604
  35  744.8692
  36  627.9894
  37  692.489
  38  732.6506
  39  782.6835
  40  707.9485
  41  719.6738
  42  725.1525
  43  690.8307
  44  691.559
  45  768.7602
  46  732.9212
  47  760.1204
  48  806.4022
  49  896.0429
  50  740.86
  51  700.1938
  52  848.1355
  53  892.6346
  54  770.8366
  55  804.6911
  56  784.2097
  57  787.1781
  58  834.1605
  59  771.954
  60  796.119
  61  671.1395
  62  695.5228
  63  747.6874
  64  672.3098
  65  545.5317
  66  587.2303
  67  614.6469
  68  689.5837
  69  618.3472
  70  592.0988
  71  720.1855
  72  720.4976
  73  772.3755
  74  729.7072
  75  664.2107
  76  746.9993
  77  730.3066
  78  627.0739
  79  605.5532
  80  704.7101
  81  742.2587
  82  712.0714
  83  627.2037
  84  648.6529
  85  683.8129
  86  722.1084
  87  735.0953
  88  782.8517
  89  707.0417
  90  782.8336
  91  802.4843
  92  791.1967
  93  747.1104
  94  725.7334
  95  743.8659
  96  675.3381
  97  629.1399
  98  708.9913
  99  806.488
 100  723.9078
 101  656.4222
 102  681.075
 103  651.0753
 104  677.6434
 105  729.5734
 106  752.6163
 107  673.1061
 108  695.9797
 109  713.7248
 110  708.4464
 111  689.0365
 112  682.3101
 113  720.3489
 114  724.6057
 115  658.1341
 116  650.0388
 117  658.6982
 118  708.9836
 119  707.8013
 120  689.3499
 121  635.6606
 122  700.7881
 123  683.4177
 124  661.213
 125  709.4418
 126  710.4176
 127  630.9849
 128  622.1337
 129  646.1137
 130  660.3773
 131  662.2341
 132  700.2782
 133  708.4904
 134  695.032
 135  731.0901
 136  742.0256
 137  749.575
 138  779.8663
 139  829.5208
 140  781.6017
 141  833.9552
 142  858.2291
 143  865.9507
 144  904.2001
 145  814.9208
 146  775.2277
 147  795.5017
 148  823.2376
 149  761.2025
 150  693.6367
 151  732.8034
 152  774.4181
 153  698.3231
 154  609.0262
 155  647.4111
 156  662.975
 157  666.6081
 158  719.1211
 159  661.3536
 160  590.7643
 161  642.3063
 162  628.4648
 163  780.9257
 164  746.7962
 165  585.08
 166  622.7797
 167  620.9191
 168  612.981
 169  580.494
 170  604.8573
 171  673.6677
 172  677.231
 173  561.0011
 174  635.4722
 175  660.1685
 176  778.3937
 177  708.6475
 178  694.5934
 179  767.3436
 180  739.088
 181  744.2803
 182  764.5352
 183  792.7488
 184  784.1308
 185  804.4269
 186  821.1132
 187  839.6602
 188  742.5566
 189  695.0915
 190  697.3817
 191  781.6333
 192  807.8791
 193  799.7201
 194  720.0579
 195  722.269
 196  696.5309
 197  638.4777
 198  635.1072
 199  709.1194
 200  663.6216
 201  696.1982
 202  702.9965
 203  603.1742
 204  548.8727
 205  600.607
 206  622.9411
 207  555.0353
 208  535.3727
 209  605.6913
 210  563.6229
 211  655.3323
 212  568.97
 213  609.0074
 214  704.8885
 215  756.788
 216  701.5087
 217  628.2954
 218  634.2655
 219  696.9996
 220  784.1328
 221  774.6434
 222  714.5804
 223  751.7793
 224  821.8531
 225  885.4782
 226  832.3988
 227  782.3776
 228  724.0035
 229  750.6243
 230  791.3632
 231  811.824
 232  785.1143
 233  695.1048
 234  728.0302
 235  760.1461
 236  825.0869
 237  787.8204
 238  732.6522
 239  750.4246
 240  750.5357
 241  620.7359
 242  696.6398
 243  789.6396
 244  859.3489
 245  809.1031
 246  765.4701
 247  647.9745
 248  710.3516
 249  803.3551
 250  860.8666
 251  812.9944
 252  893.7465
 253  900.7709
 254  763.224
 255  764.7282
 256  938.0868
 257  935.7903
 258  882.3185
 259  881.0481
 260  967.2224
 261  904.7798
 262  860.9119
 263  884.4146
 264  932.674
 265  854.7711
 266  848.7554
 267  857.1437
 268  892.903
 269  931.4338
 270  737.6476
 271  729.2897
 272  769.8751
 273  740.4493
 274  707.6529
 275  678.5864
 276  664.638
 277  756.2027
 278  736.2545
 279  641.5157
 280  636.8478
 281  726.2272
 282  689.0392
 283  814.7288
 284  744.8054
 285  681.6335
 286  753.7186
 287  832.3395
 288  807.8036
 289  736.4192
 290  674.5195
 291  639.2415
 292  743.5725
 293  804.4251
 294  800.4827
 295  789.7759
 296  703.7457
 297  755.157
 298  853.4236
 299  750.7328
 300  683.2049
 301  770.9748
 302  819.5269
 303  720.7009
 304  647.8716
 305  727.2703
 306  776.1836
 307  658.6772
 308  705.0229
 309  657.3532
 310  723.6459
 311  845.7702
 312  773.8607
 313  770.4634
 314  729.4619
 315  776.1093
 316  692.2829
 317  742.6913
 318  807.1538
 319  734.0186
 320  793.3273
 321  725.773
 322  749.9222
 323  757.2935
 324  712.2254
 325  719.679
 326  820.4851
 327  818.8823
 328  756.1213
 329  828.8352
 330  693.5682
 331  661.478
 332  750.8458
 333  770.9999
 334  793.6027
 335  853.5526
 336  723.4478
 337  690.226
 338  703.2176
 339  746.1033
 340  805.583
 341  706.7831
 342  747.454
 343  782.2298
 344  814.7268
 345  820.0779
 346  793.9944
 347  817.0881
 348  846.2473
 349  858.7039
 350  876.9979
 351  828.653
 352  840.4946
 353  802.438
 354  821.6894
 355  855.2031
 356  807.7297
 357  740.6287
 358  742.2576
 359  783.8404
 360  752.8936
 361  707.1284
 362  675.1495
 363  698.98
 364  738.3293
 365  735.2601
 366  641.2515
 367  709.2684
 368  729.2032
 369  628.1223
 370  674.8942
 371  669.407
 372  695.3958
 373  745.8749
 374  715.8882
 375  683.4031
 376  643.1989
 377  600.3666
 378  653.9163
 379  723.3102
 380  631.3398
 381  640.5684
 382  681.4703
 383  790.3416
 384  744.1104
 385  814.0898
 386  733.6946
 387  673.1318
 388  818.4863
 389  821.3434
 390  760.3369
 391  731.9012
 392  828.2903
 393  777.5471
 394  782.8337
 395  741.8365
 396  838.7931
 397  859.1328
 398  919.9352
 399  825.7223
 400  868.6178
 401  889.9565
 402  897.077
 403  853.0007
 404  786.7353
 405  738.3113
 406  776.2463
 407  847.84
 408  811.7931
 409  805.2412
 410  757.9172
 411  719.175
 412  740.5233
 413  807.4464
 414  771.1234
 415  836.1987
 416  696.4796
 417  664.2366
 418  690.957
 419  671.7794
 420  760.5952
 421  753.452
 422  877.7427
 423  871.5005
 424  713.4208
 425  794.2712
 426  839.6851
 427  814.2692
 428  774.5975
 429  853.7132
 430  784.2012
 431  826.7856
 432  717.188
 433  808.2041
 434  890.4479
 435  860.3971
 436  825.4529
 437  871.8279
 438  898.2053
 439  811.426
 440  774.2979
 441  823.2009
 442  797.9213
 443  729.3619
 444  684.2535
 445  695.7918
 446  671.8699
 447  671.7071
 448  641.8723
 449  677.3286
 450  706.5365
 451  719.2511
 452  546.0112
 453  462.1368
 454  527.5456
 455  608.2748
 456  677.205
 457  707.7795
 458  644.2889
 459  664.1734
 460  703.9151
 461  770.9209
 462  874.1314
 463  855.7003
 464  753.0914
 465  724.1257
 466  769.275
 467  803.4545
 468  812.6718
 469  871.8401
 470  791.7349
 471  746.797
 472  799.2918
 473  762.2341
 474  806.4959
 475  857.774
 476  852.9653
 477  891.5449
 478  850.1158
 479  841.4803
 480  852.201
 481  892.0496
 482  895.8474
 483  825.7552
 484  908.3781
 485  909.8533
 486  945.6309
 487  875.1678
 488  929.2708
 489  896.2214
 490  810.9426
 491  861.9351
 492  872.9635
 493  884.5649
 494  777.8788
 495  774.7179
 496  817.4698
 497  803.2108
 498  830.5872
 499  845.0218
 500  816.3932
 501  780.4423
 502  755.507
 503  734.1336
 504  751.3042
 505  694.2842
 506  714.8618
 507  816.5751
 508  878.782
 509  1073.013
 510  1261.449
 511  1354.493
