# Input file       =  1183869605.095054_cleaned.dat
# Candidate        =  PSR_0332+5434
# Telescope        =  AR
# Epoch_topo       =  57946.194723322384
# Epoch_bary       =  N/A
# T_sample         =  0.002
# Data Folded      =  7340032
# Data Avg         =  0.0423244953539674
# Data StdDev      =  1.00021923438954 
# Profile Bins     =  512
# Profile Avg      =  606.855862456875 
# Profile StdDev   =  119.759285975904 
# Reduced chi-sqr  =  1.097
# Prob(Noise)      <  0.0646   (~1.5 sigma)
# P_topo (ms)      =  714.480827755467  +/- 0.000156
# P'_topo (s/s)    =  -0                +/- 8.22e-11
# P''_topo (s/s^2) =  0                 +/- 3.63e-14
# P_bary (ms)      =  N/A
# P'_bary (s/s)    =  N/A
# P''_bary (s/s^2) =  N/A
# P_orb (s)        =  N/A
# asin(i)/c (s)    =  N/A
# eccentricity     =  N/A
# w (rad)          =  N/A
# T_peri           =  N/A
######################################################
   0  1088.371
   1  997.0278
   2  932.6086
   3  886.484
   4  734.8375
   5  625.9574
   6  607.309
   7  561.9022
   8  570.8188
   9  558.2551
  10  669.7319
  11  622.4139
  12  630.1918
  13  662.1677
  14  687.687
  15  624.6589
  16  622.1913
  17  581.3505
  18  570.1478
  19  630.6644
  20  578.6652
  21  553.511
  22  620.0237
  23  563.1323
  24  553.0472
  25  500.1343
  26  586.5352
  27  586.5947
  28  557.6619
  29  637.7803
  30  714.3057
  31  581.6534
  32  585.5056
  33  660.5809
  34  681.1122
  35  569.8038
  36  636.3333
  37  475.8466
  38  387.8807
  39  400.1066
  40  477.1359
  41  532.7354
  42  550.5311
  43  580.9589
  44  577.9311
  45  537.1501
  46  455.5357
  47  482.7905
  48  583.9177
  49  582.6136
  50  479.3322
  51  571.5176
  52  629.8022
  53  592.391
  54  622.7979
  55  590.6052
  56  672.0297
  57  715.5709
  58  626.2275
  59  586.3265
  60  582.1614
  61  642.5177
  62  652.1348
  63  694.1106
  64  715.4429
  65  704.8195
  66  553.4385
  67  526.5604
  68  558.7131
  69  518.6957
  70  526.8951
  71  647.8326
  72  656.071
  73  568.7544
  74  555.4698
  75  544.8819
  76  666.4226
  77  630.4896
  78  636.303
  79  636.1748
  80  634.4822
  81  618.2816
  82  571.1815
  83  630.7737
  84  601.9504
  85  653.7928
  86  644.3066
  87  619.8247
  88  707.7841
  89  652.8915
  90  643.707
  91  674.6187
  92  576.8453
  93  534.7372
  94  616.1685
  95  666.0505
  96  609.9794
  97  501.6874
  98  693.6609
  99  572.7661
 100  554.8702
 101  601.5176
 102  543.2361
 103  581.0248
 104  554.6385
 105  560.8694
 106  581.8738
 107  503.7477
 108  600.6725
 109  601.1132
 110  517.7065
 111  507.0789
 112  542.053
 113  572.0894
 114  608.5615
 115  416.5979
 116  429.7317
 117  540.2376
 118  541.4922
 119  636.9864
 120  662.9689
 121  558.28
 122  465.9747
 123  470.8759
 124  549.8193
 125  630.4825
 126  634.9277
 127  468.1793
 128  458.5931
 129  540.4053
 130  449.5986
 131  432.5013
 132  552.2744
 133  528.639
 134  495.8252
 135  493.3081
 136  608.3414
 137  586.7133
 138  461.8194
 139  499.7921
 140  491.5685
 141  561.6309
 142  614.2264
 143  573.5358
 144  555.4604
 145  508.7814
 146  549.2603
 147  572.8624
 148  590.1361
 149  563.8087
 150  509.7329
 151  577.2435
 152  538.6785
 153  646.92
 154  640.5588
 155  717.705
 156  658.6363
 157  636.1953
 158  621.1071
 159  589.6455
 160  504.8744
 161  552.7092
 162  553.2073
 163  658.9374
 164  491.2708
 165  570.7691
 166  485.3645
 167  445.9152
 168  500.6696
 169  518.6927
 170  610.451
 171  588.4953
 172  513.7075
 173  583.5549
 174  714.7487
 175  689.7541
 176  629.508
 177  732.2422
 178  712.0707
 179  651.6703
 180  520.3356
 181  639.8318
 182  506.6402
 183  600.9738
 184  650.8345
 185  598.007
 186  576.4308
 187  594.1589
 188  545.4015
 189  511.3737
 190  577.2177
 191  505.8445
 192  509.9398
 193  585.1094
 194  568.1223
 195  563.1943
 196  544.7415
 197  534.4493
 198  652.9376
 199  626.9426
 200  563.6923
 201  615.0734
 202  647.0709
 203  618.9197
 204  679.7261
 205  656.5536
 206  602.5812
 207  644.6104
 208  671.8998
 209  657.3348
 210  610.2128
 211  571.6918
 212  612.4293
 213  498.0042
 214  600.5256
 215  632.6845
 216  558.9518
 217  592.9793
 218  563.2498
 219  500.6982
 220  505.287
 221  432.2032
 222  498.571
 223  581.2001
 224  550.2593
 225  613.789
 226  659.1654
 227  659.9362
 228  772.675
 229  757.0897
 230  696.1485
 231  607.3451
 232  475.9178
 233  461.2518
 234  502.9189
 235  601.8284
 236  563.9037
 237  567.4263
 238  610.3096
 239  498.997
 240  485.7072
 241  505.822
 242  523.9319
 243  591.7788
 244  610.0128
 245  619.5512
 246  615.8533
 247  639.3422
 248  695.8177
 249  556.3352
 250  505.5853
 251  636.6269
 252  585.3018
 253  512.2291
 254  522.5883
 255  525.0651
 256  351.989
 257  522.9107
 258  651.9301
 259  582.689
 260  687.6661
 261  652.4108
 262  630.9281
 263  648.4861
 264  771.7728
 265  745.0992
 266  647.5275
 267  631.8215
 268  510.3102
 269  533.6685
 270  594.669
 271  571.0919
 272  649.7012
 273  472.2099
 274  531.3101
 275  598.1312
 276  564.4842
 277  649.9585
 278  554.873
 279  639.1598
 280  595.6141
 281  571.5117
 282  570.2008
 283  518.0922
 284  554.0099
 285  615.607
 286  589.4673
 287  592.851
 288  695.6656
 289  692.5875
 290  666.0344
 291  613.7684
 292  634.473
 293  656.5807
 294  728.8601
 295  656.2992
 296  711.7751
 297  648.1859
 298  579.1137
 299  532.9161
 300  516.1918
 301  618.0402
 302  657.6901
 303  636.8667
 304  584.4212
 305  623.6232
 306  714.3893
 307  674.412
 308  690.3919
 309  754.7177
 310  740.2736
 311  597.1978
 312  555.8665
 313  638.5729
 314  649.9753
 315  641.9238
 316  683.0056
 317  631.5417
 318  584.8214
 319  641.7203
 320  677.9253
 321  665.623
 322  703.7917
 323  517.0059
 324  578.3415
 325  761.268
 326  660.2664
 327  635.3125
 328  667.313
 329  599.1046
 330  519.7819
 331  505.9835
 332  691.8533
 333  710.1592
 334  680.3983
 335  660.2682
 336  568.7872
 337  676.8074
 338  708.7739
 339  720.0492
 340  706.9582
 341  605.0709
 342  581.7435
 343  521.0527
 344  651.3442
 345  661.1996
 346  605.3642
 347  658.573
 348  646.3347
 349  616.2283
 350  638.1182
 351  665.8758
 352  579.1733
 353  573.493
 354  452.8151
 355  506.6363
 356  560.3517
 357  549.5558
 358  559.5991
 359  618.2367
 360  495.4254
 361  453.008
 362  540.0277
 363  550.5966
 364  615.6597
 365  582.0016
 366  557.2968
 367  565.9836
 368  581.453
 369  652.452
 370  559.9781
 371  596.045
 372  600.5333
 373  568.2356
 374  656.223
 375  723.1431
 376  618.1876
 377  535.3764
 378  591.1681
 379  705.9534
 380  562.5536
 381  586.5216
 382  590.8013
 383  560.5565
 384  551.1533
 385  515.1643
 386  645.876
 387  669.7123
 388  721.8478
 389  728.8012
 390  667.9813
 391  594.3415
 392  522.3838
 393  391.5461
 394  462.3189
 395  570.733
 396  615.3121
 397  600.176
 398  611.4173
 399  688.7261
 400  745.7854
 401  729.1179
 402  734.9257
 403  659.3813
 404  605.4472
 405  696.1536
 406  693.7866
 407  699.5971
 408  611.0248
 409  566.9492
 410  600.426
 411  714.9604
 412  682.7787
 413  660.1116
 414  690.1818
 415  690.1705
 416  597.5841
 417  671.9918
 418  846.049
 419  915.1746
 420  788.1076
 421  704.4128
 422  729.9943
 423  745.1511
 424  691.6688
 425  639.6263
 426  607.4384
 427  619.8083
 428  618.2921
 429  459.8105
 430  573.0345
 431  575.9648
 432  522.1359
 433  404.1824
 434  433.5026
 435  618.416
 436  598.4282
 437  599.781
 438  527.8468
 439  506.6244
 440  607.9696
 441  611.7437
 442  608.8284
 443  445.344
 444  383.9298
 445  505.1668
 446  523.1003
 447  501.3376
 448  537.6526
 449  627.2454
 450  614.0417
 451  598.498
 452  589.7522
 453  551.3448
 454  695.3981
 455  687.4171
 456  626.6961
 457  763.5449
 458  752.1976
 459  691.2699
 460  648.0878
 461  591.0184
 462  712.8907
 463  679.7105
 464  574.2698
 465  498.871
 466  530.9415
 467  628.5096
 468  663.6518
 469  609.1331
 470  591.4825
 471  592.9115
 472  630.0957
 473  723.0032
 474  586.9344
 475  621.9459
 476  630.5566
 477  676.9435
 478  684.5001
 479  594.6668
 480  573.8939
 481  586.2966
 482  539.9257
 483  609.4162
 484  711.0264
 485  701.1713
 486  550.1343
 487  544.4739
 488  658.8694
 489  704.78
 490  702.5348
 491  678.3688
 492  781.3536
 493  651.6837
 494  661.4391
 495  690.4059
 496  662.8318
 497  714.5645
 498  638.364
 499  661.6148
 500  655.693
 501  667.9354
 502  634.634
 503  569.644
 504  621.0149
 505  613.5494
 506  484.938
 507  613.4488
 508  719.8381
 509  903.6601
 510  1121.253
 511  1168.607
