# Input file       =  1183697231.101892_cleaned.dat
# Candidate        =  PSR_0332+5434
# Telescope        =  AR
# Epoch_topo       =  57944.199653957083
# Epoch_bary       =  N/A
# T_sample         =  0.002
# Data Folded      =  7340032
# Data Avg         =  0.0486727294292567
# Data StdDev      =  1.00012226632278 
# Profile Bins     =  512
# Profile Avg      =  697.230414863515 
# Profile StdDev   =  119.747675694839 
# Reduced chi-sqr  =  1.340
# Prob(Noise)      <  3.86e-07   (~4.9 sigma)
# P_topo (ms)      =  714.482232031802  +/- 0.000606
# P'_topo (s/s)    =  -0                +/- 3.2e-10
# P''_topo (s/s^2) =  0                 +/- 1.41e-13
# P_bary (ms)      =  N/A
# P'_bary (s/s)    =  N/A
# P''_bary (s/s^2) =  N/A
# P_orb (s)        =  N/A
# asin(i)/c (s)    =  N/A
# eccentricity     =  N/A
# w (rad)          =  N/A
# T_peri           =  N/A
######################################################
   0  1324.104
   1  1256.151
   2  1130.724
   3  899.9174
   4  809.5779
   5  699.2275
   6  774.3399
   7  820.6863
   8  759.7256
   9  741.5513
  10  734.6368
  11  697.9297
  12  664.0869
  13  720.5547
  14  739.4503
  15  771.5432
  16  791.9849
  17  702.4784
  18  556.468
  19  613.6636
  20  632.3752
  21  644.1094
  22  527.6891
  23  584.7574
  24  717.1574
  25  665.2459
  26  586.9607
  27  566.6652
  28  635.9244
  29  695.0246
  30  682.9763
  31  718.7242
  32  699.0042
  33  560.0347
  34  699.8049
  35  752.8687
  36  665.2562
  37  582.3896
  38  647.5204
  39  680.1915
  40  697.2171
  41  687.1726
  42  622.1632
  43  678.6605
  44  699.8787
  45  699.1777
  46  638.4675
  47  563.1613
  48  693.8029
  49  610.1971
  50  667.0197
  51  775.2938
  52  721.4214
  53  607.7582
  54  654.9875
  55  692.3564
  56  672.8047
  57  683.5282
  58  683.6638
  59  690.5148
  60  742.9391
  61  781.8947
  62  798.0223
  63  720.2132
  64  710.2584
  65  755.8438
  66  788.262
  67  813.162
  68  832.9515
  69  902.2128
  70  794.1201
  71  693.4659
  72  719.1841
  73  684.2998
  74  666.7421
  75  701.8921
  76  754.7902
  77  731.0754
  78  699.9841
  79  777.2485
  80  827.5324
  81  802.4344
  82  745.8995
  83  737.9268
  84  753.6226
  85  772.4193
  86  635.1415
  87  605.0351
  88  608.2729
  89  590.055
  90  615.8398
  91  673.7755
  92  674.3871
  93  572.0373
  94  656.3588
  95  603.347
  96  723.8524
  97  727.9619
  98  641.2739
  99  637.2814
 100  514.9247
 101  608.8526
 102  683.9454
 103  713.56
 104  728.5252
 105  641.0118
 106  669.6934
 107  755.9366
 108  673.9527
 109  626.5427
 110  605.8625
 111  630.157
 112  681.5181
 113  658.1951
 114  597.9081
 115  661.8049
 116  713.7332
 117  656.9959
 118  603.2638
 119  653.2367
 120  602.9227
 121  699.5988
 122  676.4962
 123  690.687
 124  701.6422
 125  742.2713
 126  743.8383
 127  744.6242
 128  655.5535
 129  685.488
 130  624.9714
 131  641.1556
 132  663.7983
 133  634.6183
 134  659.315
 135  674.5762
 136  687.8027
 137  732.5186
 138  802.4111
 139  780.3205
 140  672.5992
 141  831.6191
 142  873.4465
 143  751.8574
 144  695.5699
 145  684.5942
 146  704.3945
 147  715.4361
 148  752.9672
 149  683.4989
 150  623.3376
 151  738.1791
 152  737.013
 153  584.2709
 154  448.6054
 155  529.9673
 156  706.1373
 157  668.6442
 158  638.1472
 159  658.5171
 160  579.0615
 161  670.1253
 162  729.4284
 163  686.9689
 164  675.1929
 165  681.6839
 166  685.4619
 167  711.5852
 168  629.6992
 169  582.9732
 170  664.9263
 171  755.1512
 172  696.0089
 173  691.0254
 174  611.7421
 175  565.4719
 176  536.4413
 177  610.015
 178  646.7558
 179  669.7722
 180  690.8094
 181  658.7089
 182  638.4609
 183  680.4446
 184  632.4403
 185  684.0298
 186  751.0446
 187  686.7123
 188  648.7263
 189  674.0702
 190  545.3731
 191  490.6922
 192  627.091
 193  710.5615
 194  637.7114
 195  554.3139
 196  653.4055
 197  679.8351
 198  611.8372
 199  649.4575
 200  694.038
 201  656.7599
 202  665.3867
 203  722.1661
 204  725.1907
 205  661.9592
 206  580.8099
 207  567.369
 208  613.6757
 209  642.6395
 210  693.7435
 211  704.509
 212  685.999
 213  677.9956
 214  718.9174
 215  758.8172
 216  631.4454
 217  567.0337
 218  560.1213
 219  618.881
 220  692.5547
 221  736.996
 222  675.2005
 223  592.1656
 224  645.6644
 225  589.7617
 226  552.7443
 227  525.5946
 228  586.3832
 229  683.7016
 230  508.8138
 231  503.0568
 232  557.8686
 233  667.1796
 234  691.2559
 235  588.9461
 236  629.6025
 237  631.6007
 238  629.7615
 239  662.5288
 240  572.8894
 241  522.7712
 242  495.2457
 243  571.2942
 244  680.9274
 245  642.4876
 246  664.5573
 247  661.2182
 248  595.332
 249  570.724
 250  586.3974
 251  581.5489
 252  679.8603
 253  695.3792
 254  675.8518
 255  715.9905
 256  710.8287
 257  651.9069
 258  657.7545
 259  666.4034
 260  612.8698
 261  543.9262
 262  629.8068
 263  620.0852
 264  584.1351
 265  598.6643
 266  763.8775
 267  692.7277
 268  582.5493
 269  681.1658
 270  664.4681
 271  581.6957
 272  681.5187
 273  694.2296
 274  743.4712
 275  678.6667
 276  697.9427
 277  753.5455
 278  687.6141
 279  649.6382
 280  701.871
 281  752.1633
 282  715.4066
 283  607.0878
 284  640.1514
 285  560.4615
 286  559.9345
 287  663.1405
 288  771.0884
 289  749.3102
 290  675.2919
 291  711.4391
 292  754.249
 293  800.0232
 294  700.7762
 295  641.2672
 296  702.7684
 297  736.3419
 298  651.7108
 299  725.4463
 300  759.0812
 301  736.5966
 302  887.7084
 303  677.7817
 304  646.7216
 305  754.1833
 306  765.7791
 307  730.2749
 308  692.358
 309  650.8118
 310  762.4493
 311  728.4048
 312  700.5997
 313  574.8171
 314  654.121
 315  715.8719
 316  594.252
 317  609.5055
 318  653.7643
 319  671.7868
 320  690.7527
 321  753.9931
 322  706.0312
 323  718.9628
 324  821.184
 325  765.3387
 326  680.3195
 327  659.2575
 328  725.7949
 329  697.9915
 330  657.8711
 331  798.9744
 332  724.2226
 333  628.0955
 334  567.0952
 335  604.5338
 336  707.4553
 337  582.4371
 338  661.5397
 339  668.8726
 340  651.9706
 341  707.2147
 342  681.3696
 343  648.7327
 344  659.13
 345  682.8259
 346  691.6033
 347  713.6326
 348  599.7618
 349  573.87
 350  465.3857
 351  505.9667
 352  597.3632
 353  533.8545
 354  676.6501
 355  637.9143
 356  572.7227
 357  542.2807
 358  575.5745
 359  609.3713
 360  561.8347
 361  544.5044
 362  690.9452
 363  610.9509
 364  594.2621
 365  617.3755
 366  699.6197
 367  625.8586
 368  651.2641
 369  636.4251
 370  656.5131
 371  568.4346
 372  632.1972
 373  730.0234
 374  697.739
 375  697.2635
 376  642.2643
 377  584.9178
 378  694.7073
 379  701.7112
 380  703.1232
 381  738.5209
 382  658.0397
 383  564.08
 384  700.6946
 385  687.7913
 386  648.6479
 387  699.2927
 388  781.0237
 389  791.8017
 390  647.572
 391  619.4975
 392  712.2531
 393  752.3336
 394  665.8123
 395  768.1096
 396  789.5334
 397  784.2416
 398  796.3604
 399  729.5408
 400  703.7291
 401  674.592
 402  800.7117
 403  707.8304
 404  739.8149
 405  797.0493
 406  718.5555
 407  672.6777
 408  667.3531
 409  731.0956
 410  754.3422
 411  789.0917
 412  875.4724
 413  772.2924
 414  718.8577
 415  663.6917
 416  679.1956
 417  882.6723
 418  892.8409
 419  830.6317
 420  918.6208
 421  851.974
 422  839.0832
 423  827.7164
 424  826.6507
 425  868.0082
 426  813.061
 427  786.178
 428  807.5172
 429  838.553
 430  846.9628
 431  836.0073
 432  685.3516
 433  700.2031
 434  834.8477
 435  812.0003
 436  734.9725
 437  791.3757
 438  759.0203
 439  764.9385
 440  835.6144
 441  783.8347
 442  909.9133
 443  901.3415
 444  860.0978
 445  739.2775
 446  717.7234
 447  705.3713
 448  763.8924
 449  823.3679
 450  712.371
 451  636.4196
 452  677.7112
 453  647.1496
 454  715.837
 455  735.966
 456  734.8304
 457  691.889
 458  680.4196
 459  682.3895
 460  727.1495
 461  753.4144
 462  783.9329
 463  772.8329
 464  780.8746
 465  812.4789
 466  757.72
 467  660.491
 468  629.1223
 469  765.9281
 470  708.8961
 471  694.5666
 472  691.7538
 473  548.8018
 474  574.1889
 475  730.4944
 476  801.1864
 477  763.3293
 478  645.5847
 479  605.6453
 480  681.0907
 481  745.7503
 482  709.2921
 483  797.3894
 484  799.1295
 485  857.3307
 486  820.2981
 487  752.561
 488  716.9008
 489  743.1007
 490  705.5096
 491  734.8132
 492  829.5649
 493  781.6716
 494  748.6198
 495  673.361
 496  722.3723
 497  808.7474
 498  842.7045
 499  842.3944
 500  843.565
 501  851.5751
 502  838.4639
 503  852.3081
 504  815.3113
 505  778.5942
 506  743.6221
 507  857.1656
 508  913.5442
 509  1088.608
 510  1226.373
 511  1354.295
