# Input file       =  1183453964.104919_cleaned.dat
# Candidate        =  PSR_0332+5434
# Telescope        =  AR
# Epoch_topo       =  57941.384063714337
# Epoch_bary       =  N/A
# T_sample         =  0.002
# Data Folded      =  7340032
# Data Avg         =  0.535065135608811
# Data StdDev      =  8.66304680260251 
# Profile Bins     =  512
# Profile Avg      =  7671.17086432856 
# Profile StdDev   =  1037.25289794963 
# Reduced chi-sqr  =  0.767
# Prob(Noise)      <  1   (~0.0 sigma)
# P_topo (ms)      =  714.484626326975  +/- 0.000401
# P'_topo (s/s)    =  -0                +/- 2.12e-10
# P''_topo (s/s^2) =  0                 +/- 9.34e-14
# P_bary (ms)      =  N/A
# P'_bary (s/s)    =  N/A
# P''_bary (s/s^2) =  N/A
# P_orb (s)        =  N/A
# asin(i)/c (s)    =  N/A
# eccentricity     =  N/A
# w (rad)          =  N/A
# T_peri           =  N/A
######################################################
   0  7969.438
   1  7351.337
   2  7565.326
   3  7798.146
   4  8248.583
   5  8425.229
   6  8216.648
   7  7814.332
   8  7872.013
   9  8117.854
  10  8282.867
  11  7972.721
  12  8105.603
  13  8418.16
  14  8603.81
  15  8527.49
  16  8442.025
  17  7943.67
  18  7153.431
  19  7372.062
  20  8029.521
  21  7827.883
  22  7680.449
  23  7717.144
  24  7142.611
  25  6941.89
  26  6876.995
  27  7416.646
  28  7778.912
  29  7532.314
  30  7531.627
  31  7363.545
  32  7304.561
  33  7572.204
  34  7706.319
  35  7663.058
  36  7681.52
  37  8339.644
  38  7749.77
  39  6966.515
  40  6817.896
  41  6825.433
  42  6828.753
  43  6701.044
  44  6903.614
  45  6787.122
  46  6844.529
  47  7645.246
  48  6875.042
  49  6421.519
  50  6247.403
  51  6719.306
  52  7269.206
  53  7348.481
  54  6853.841
  55  7235.357
  56  7423.084
  57  7047.823
  58  7353.331
  59  7615.307
  60  7620.38
  61  7698.031
  62  7888.934
  63  7473.936
  64  7758.707
  65  7497.231
  66  7414.24
  67  7160.63
  68  6817.129
  69  7179.205
  70  7022.146
  71  6596.939
  72  6807.81
  73  6600.745
  74  6385.411
  75  6219.862
  76  6800.161
  77  7013.384
  78  6814.393
  79  7050.485
  80  7045.185
  81  6750.632
  82  6709.874
  83  6785.97
  84  6915.862
  85  7069.055
  86  7378.428
  87  7174.839
  88  6869.963
  89  6721.033
  90  6868.253
  91  6884.436
  92  7079.75
  93  7164.185
  94  7016.252
  95  7740.448
  96  8071.081
  97  7499.302
  98  7382.44
  99  7827.517
 100  7887.22
 101  7722.467
 102  7630.922
 103  7847.853
 104  7617.974
 105  7726.44
 106  7736.254
 107  7320.704
 108  7509.513
 109  7411.8
 110  7782.013
 111  7935.474
 112  7977.322
 113  8558.057
 114  9396.015
 115  9245.206
 116  9326.299
 117  9349.591
 118  9444.843
 119  9391.859
 120  9273.919
 121  8544.503
 122  8334.555
 123  8437.39
 124  8741.472
 125  8409.97
 126  7651.016
 127  7425.718
 128  8042.878
 129  8127.274
 130  8234.878
 131  8123.574
 132  7844.375
 133  8277.136
 134  8390.001
 135  8377.11
 136  8344.906
 137  8009.987
 138  8399.626
 139  8260.93
 140  8027.5
 141  7712.797
 142  7243.859
 143  7927.487
 144  8472.298
 145  8392.508
 146  8671.224
 147  8207.063
 148  8543.682
 149  8654.877
 150  8731.413
 151  9046.357
 152  9174.608
 153  8935.874
 154  9381.284
 155  9140.104
 156  8657.626
 157  9034.896
 158  9072.807
 159  8629.251
 160  8368.292
 161  8146.012
 162  8279.548
 163  8676.994
 164  8387.518
 165  8659.356
 166  8638.188
 167  8858.549
 168  8623.996
 169  7928.988
 170  8198.139
 171  8157.874
 172  8374.085
 173  8123.335
 174  8005.052
 175  8434.843
 176  8927.733
 177  8753.241
 178  8462.655
 179  8596.89
 180  8435.618
 181  8538.905
 182  8760.698
 183  8590.254
 184  9096.531
 185  9314.008
 186  9403.828
 187  9111.916
 188  8973.553
 189  9340.039
 190  8961.978
 191  8950.902
 192  8727.606
 193  7940.924
 194  7595.329
 195  7690.109
 196  8015.965
 197  7717.481
 198  7352.182
 199  7577.837
 200  7841.343
 201  7644.165
 202  7337.163
 203  7384.036
 204  7960.582
 205  8069.806
 206  8104.915
 207  8065.971
 208  7717.79
 209  7711.822
 210  8020.829
 211  8014.438
 212  7626.991
 213  7383.865
 214  7394.438
 215  7478.957
 216  7546.667
 217  7617.26
 218  8067.295
 219  8175.633
 220  8233.292
 221  8407.079
 222  8545.609
 223  9370.777
 224  9834.092
 225  10211.02
 226  9750.633
 227  8698.445
 228  8185.285
 229  7838.665
 230  7432.803
 231  7369.034
 232  7533.442
 233  7448.487
 234  7762.568
 235  8056.021
 236  7328.952
 237  7104.76
 238  6885.595
 239  7624.803
 240  7721.032
 241  7290.405
 242  7547.734
 243  7155.475
 244  6903.116
 245  7081.461
 246  6819.304
 247  7171.424
 248  7410.545
 249  7361.217
 250  6807.318
 251  6385.631
 252  6644.753
 253  7144.204
 254  7664.558
 255  7675.532
 256  7609.294
 257  7350.061
 258  7221.441
 259  7211.232
 260  6754.863
 261  6896.977
 262  7131.529
 263  7153.089
 264  7731.622
 265  7310.094
 266  7001.136
 267  6939.575
 268  7080.812
 269  7281.529
 270  7282.515
 271  7272.582
 272  7621.967
 273  7719.392
 274  7357.768
 275  7286.529
 276  7560.782
 277  7621.72
 278  7527.447
 279  7324.822
 280  7312.553
 281  6961.315
 282  7364.573
 283  7244.721
 284  6461.319
 285  6732.435
 286  6871.562
 287  6842.472
 288  6774.127
 289  6504.777
 290  7001.86
 291  7685.692
 292  7738.228
 293  7701.511
 294  7425.125
 295  7385.029
 296  7606.093
 297  7438.122
 298  7612.495
 299  7680.727
 300  7278.231
 301  6946.607
 302  6520.002
 303  6761.132
 304  7026.24
 305  7368.284
 306  7393.159
 307  7108.043
 308  7191.78
 309  7488.372
 310  7514.227
 311  7874.162
 312  7632.382
 313  7683.917
 314  7849.047
 315  7520.229
 316  7829.658
 317  7490.201
 318  7625.867
 319  7200.331
 320  7198.382
 321  6910.159
 322  6729.675
 323  6924.362
 324  7215.175
 325  7331.703
 326  7604.601
 327  7207.693
 328  7523.482
 329  7715.085
 330  7703.561
 331  7160.255
 332  7417.004
 333  7268.36
 334  6945.224
 335  6941.338
 336  6629.777
 337  6448.324
 338  6920.097
 339  7713.334
 340  7889.925
 341  7697.426
 342  7695.87
 343  7728.894
 344  7818.689
 345  8497.708
 346  8205.542
 347  7829.069
 348  7857.751
 349  8234.622
 350  8018.839
 351  7346.458
 352  7673.488
 353  7723.496
 354  8104.694
 355  7947.738
 356  7948.711
 357  7942.045
 358  7872.158
 359  8223.551
 360  8017.05
 361  7997.134
 362  7850.174
 363  8056.076
 364  7583.549
 365  7609.778
 366  7996.637
 367  8431.086
 368  8306.014
 369  7916.513
 370  7747.312
 371  7812.854
 372  8033.592
 373  8451.155
 374  7936.786
 375  7664.045
 376  7728.376
 377  8189.792
 378  8599.316
 379  7989.521
 380  8385.724
 381  8379.877
 382  7714.061
 383  7905.271
 384  8066.583
 385  7892.48
 386  7865.777
 387  8129.698
 388  8001.768
 389  8050.952
 390  7679.415
 391  7783.508
 392  7830.055
 393  7683.379
 394  7306.709
 395  7413.746
 396  7504.812
 397  7162.017
 398  7214.492
 399  7501.774
 400  7254.601
 401  7093.6
 402  7437.547
 403  7203.787
 404  6933.882
 405  7271.685
 406  7184.298
 407  7423.023
 408  7092.316
 409  7351.543
 410  7657.028
 411  7286.92
 412  7225.072
 413  7161.707
 414  7356.734
 415  7376.257
 416  7285.008
 417  7386.879
 418  7289.493
 419  7231.562
 420  7820.207
 421  7943.271
 422  7554.938
 423  6814.672
 424  7011.399
 425  7251.989
 426  7546.969
 427  7303.657
 428  7219.19
 429  7697.165
 430  7860.876
 431  7969.724
 432  7691.533
 433  7619.157
 434  7449.354
 435  7557.367
 436  7933.146
 437  8003.107
 438  7557.384
 439  7348.589
 440  6977.937
 441  6756.079
 442  6672.71
 443  6522.468
 444  6497.001
 445  6766.156
 446  6576.765
 447  6558.073
 448  6862.431
 449  6671.589
 450  6669.596
 451  6723.958
 452  6786.34
 453  7105.302
 454  7842.417
 455  8075.931
 456  7484.258
 457  6858.688
 458  7394.416
 459  7379.191
 460  7427.172
 461  7595.576
 462  7816.769
 463  7673.064
 464  7187.525
 465  7280.537
 466  6960.252
 467  7141.568
 468  7312.268
 469  7455.411
 470  7333.832
 471  7019.915
 472  6992.027
 473  7198.304
 474  7156.644
 475  7042.044
 476  7211.11
 477  7260.513
 478  6817.514
 479  6941.665
 480  6888.395
 481  6813.662
 482  7665.647
 483  7616.141
 484  7168.105
 485  7074.638
 486  7174.286
 487  7466.903
 488  7452.45
 489  7782.658
 490  8070.305
 491  7989.924
 492  8241.807
 493  8461.584
 494  7927.951
 495  8056.059
 496  8431.726
 497  8515.415
 498  8067.188
 499  7849.179
 500  7747.27
 501  8084.184
 502  8569.818
 503  8478.491
 504  7926.325
 505  7752.713
 506  8544.715
 507  8762.826
 508  8547.803
 509  7976.81
 510  8201.95
 511  8068.367
