# Input file       =  1183251928.112236_cleaned.dat
# Candidate        =  PSR_0332+5434
# Telescope        =  AR
# Epoch_topo       =  57939.045684169396
# Epoch_bary       =  N/A
# T_sample         =  0.002
# Data Folded      =  7143424
# Data Avg         =  0.0993400035936538
# Data StdDev      =  3.97439638048634 
# Profile Bins     =  512
# Profile Avg      =  1386.0920889351  
# Profile StdDev   =  469.450074632903 
# Reduced chi-sqr  =  0.762
# Prob(Noise)      <  1   (~0.0 sigma)
# P_topo (ms)      =  714.486036297288  +/- 0.000553
# P'_topo (s/s)    =  -0                +/- 3e-10
# P''_topo (s/s^2) =  0                 +/- 1.36e-13
# P_bary (ms)      =  N/A
# P'_bary (s/s)    =  N/A
# P''_bary (s/s^2) =  N/A
# P_orb (s)        =  N/A
# asin(i)/c (s)    =  N/A
# eccentricity     =  N/A
# w (rad)          =  N/A
# T_peri           =  N/A
######################################################
   0  1626.864
   1  1923.996
   2  1716.579
   3  1064.023
   4  1363.815
   5  1399.528
   6  1593.602
   7  1356.966
   8  1378.592
   9  1466.05
  10  1073.388
  11  1361.607
  12  1315.18
  13  919.0071
  14  1129.476
  15  1462.175
  16  1632.164
  17  1487.018
  18  1516.549
  19  1357.328
  20  1372.642
  21  884.5583
  22  1010.96
  23  1217.665
  24  1164.739
  25  1313.438
  26  1181.815
  27  1161.329
  28  1154.267
  29  1030.129
  30  1015.024
  31  1015.923
  32  1202.166
  33  1313.703
  34  1330.829
  35  1230.081
  36  1224.317
  37  874.1439
  38  869.9293
  39  1254.14
  40  1392.73
  41  1495.57
  42  1225.638
  43  1076.022
  44  1442.378
  45  1417.67
  46  1059.037
  47  1069.56
  48  1125.907
  49  1440.067
  50  1610.915
  51  1264.941
  52  1343.016
  53  1168.782
  54  1064.349
  55  1251.512
  56  1320.077
  57  1117.297
  58  921.4943
  59  1155.165
  60  1491.255
  61  1617.565
  62  1575.057
  63  1644.961
  64  1598.773
  65  1572.814
  66  1628.94
  67  1247.849
  68  1270.828
  69  1587.622
  70  1753.11
  71  1576.89
  72  1505.355
  73  1403.974
  74  1258.118
  75  997.3698
  76  1131.994
  77  1543.72
  78  1388.084
  79  1156.904
  80  1017.088
  81  1262.307
  82  1480.676
  83  1419.53
  84  1564.478
  85  1848.292
  86  1362.917
  87  1259.867
  88  1029.622
  89  993.2762
  90  1118.246
  91  1343.425
  92  1422.735
  93  1161.985
  94  979.0408
  95  888.9667
  96  1036.897
  97  1341.472
  98  1238.619
  99  1194.806
 100  1374.156
 101  1259.948
 102  950.9303
 103  914.2878
 104  1256.742
 105  1061.407
 106  1435.74
 107  1410.356
 108  1312.643
 109  992.7378
 110  1169.373
 111  1446.081
 112  1237.307
 113  903.3073
 114  1159.228
 115  1413.645
 116  1370.688
 117  1358.905
 118  1197.773
 119  1149.627
 120  886.374
 121  1076.527
 122  1564.208
 123  1390.673
 124  1461.238
 125  1248.014
 126  1333.463
 127  1527.056
 128  1481.289
 129  1656.038
 130  1556.797
 131  1491.058
 132  1568.028
 133  1500.603
 134  1677.102
 135  1783.726
 136  1480.277
 137  1128.018
 138  1528.711
 139  1279.083
 140  1658.999
 141  1835.231
 142  1330.548
 143  1334.304
 144  1325.608
 145  1293.595
 146  1212.255
 147  1450.56
 148  1678.217
 149  1798.569
 150  1262.238
 151  1421.729
 152  1327.935
 153  1400.263
 154  1426.46
 155  944.3742
 156  870.6884
 157  1089.546
 158  1194.417
 159  1407.547
 160  1667.235
 161  1438.623
 162  837.1686
 163  983.3835
 164  1377.56
 165  1250.793
 166  1236.587
 167  1029.469
 168  1229.037
 169  1478.354
 170  1834.599
 171  1982.84
 172  1887.426
 173  1644.811
 174  1357.778
 175  1123.802
 176  1414.002
 177  1291.542
 178  1440.736
 179  1206.78
 180  1328.719
 181  1578.844
 182  1722.807
 183  1291.574
 184  1124.12
 185  1248.556
 186  1320.184
 187  1401.721
 188  1454.896
 189  1698.446
 190  1367.57
 191  1194.963
 192  1500.838
 193  1214.864
 194  907.4915
 195  885.4487
 196  1233.245
 197  1592.989
 198  1478.393
 199  1103.801
 200  1126.312
 201  1362.939
 202  1344.09
 203  1412.82
 204  1347.47
 205  1261.215
 206  1265.494
 207  1219.606
 208  1310.494
 209  1499.458
 210  1024.128
 211  1020.198
 212  1400.607
 213  1428.646
 214  1300.766
 215  1101.479
 216  1305.6
 217  1441.695
 218  1441.108
 219  1225.675
 220  1265.021
 221  1271.217
 222  1323.799
 223  1490.736
 224  1265.438
 225  1533.903
 226  1265.249
 227  1330.949
 228  1276.141
 229  1065.068
 230  1022.382
 231  1092.217
 232  1344.465
 233  1256.404
 234  1107.341
 235  1461.752
 236  1218.189
 237  1350.379
 238  1577.466
 239  1455.682
 240  950.5901
 241  744.6018
 242  992.6932
 243  1453.456
 244  1619.187
 245  1411.809
 246  1021.112
 247  1266.127
 248  1444.282
 249  1614.894
 250  1696.448
 251  1550.185
 252  1455.163
 253  1483.815
 254  1657.557
 255  1747.211
 256  1591.835
 257  1533.534
 258  1324.719
 259  1493.693
 260  1396.939
 261  1664.425
 262  1631.147
 263  1376.935
 264  1474.675
 265  1730.469
 266  1507.74
 267  1376.107
 268  1238.822
 269  1616.883
 270  1574.921
 271  1430.324
 272  1897.344
 273  1619.295
 274  1517.331
 275  1251.248
 276  998.834
 277  1221.686
 278  1624.134
 279  1505.942
 280  1501.083
 281  1244.24
 282  946.1675
 283  979.848
 284  1007.358
 285  1177.365
 286  1345.737
 287  1332.198
 288  1668.431
 289  1280.006
 290  1103.356
 291  1254.982
 292  1319.193
 293  1221.08
 294  1283.365
 295  1130.785
 296  1480.228
 297  1636.322
 298  1473.954
 299  1530.688
 300  1651.232
 301  1578.796
 302  1502.307
 303  1237.841
 304  1284.303
 305  1610.393
 306  1513.405
 307  1397.612
 308  1784.104
 309  2007.189
 310  1847.968
 311  1322.038
 312  1138.681
 313  1623.722
 314  1662.684
 315  1610.564
 316  1721.5
 317  1706.516
 318  1671.778
 319  1848.035
 320  1571.102
 321  2236.756
 322  2052.311
 323  1620.496
 324  2367.031
 325  3084.421
 326  3222.884
 327  3396.864
 328  3241.702
 329  2676.477
 330  1828.987
 331  1692.412
 332  1410.836
 333  1135.091
 334  1177.118
 335  1355.669
 336  1401.409
 337  1160.434
 338  1711.509
 339  1399.75
 340  1533.676
 341  1254.555
 342  1468.269
 343  1640.571
 344  1221.672
 345  1240.586
 346  1281.818
 347  1362.826
 348  1231.802
 349  1215.026
 350  896.9726
 351  909.9097
 352  1194.701
 353  1118.091
 354  1023.353
 355  950.7408
 356  1083.166
 357  1196.068
 358  1177.061
 359  975.6772
 360  806.7738
 361  1201.066
 362  821.8718
 363  1078.159
 364  1294.028
 365  1516.379
 366  1467.259
 367  1679.435
 368  1686.406
 369  1611.368
 370  997.5628
 371  838.7991
 372  985.0933
 373  1149.669
 374  1607.283
 375  1107.742
 376  1204.406
 377  1434.483
 378  1224.188
 379  1023.404
 380  1283.007
 381  1331.129
 382  1583.926
 383  1713.156
 384  1442.354
 385  1378.929
 386  1392.44
 387  1326.768
 388  1090.441
 389  1178.7
 390  1112.537
 391  1339.283
 392  1071.387
 393  1383.938
 394  1520.116
 395  1446.404
 396  1595.393
 397  1548.374
 398  1742.395
 399  1906.848
 400  1559.238
 401  1525.63
 402  1174.498
 403  1213.585
 404  1325.848
 405  1265.02
 406  1082.273
 407  1440.092
 408  1836.658
 409  1556.43
 410  1703.678
 411  1555.521
 412  1721.789
 413  1479.554
 414  1703.382
 415  1562.447
 416  1518.065
 417  1708.637
 418  1579.269
 419  1398.106
 420  1366.208
 421  1319.71
 422  1606.662
 423  1436.635
 424  1506.002
 425  1491.689
 426  1382.009
 427  941.988
 428  1545.008
 429  1573.388
 430  1621.007
 431  1647.105
 432  1477.85
 433  1432.863
 434  1364.694
 435  1425.142
 436  1348.516
 437  1232.782
 438  1314.392
 439  1375.188
 440  1321.694
 441  1357.445
 442  1396.44
 443  1424.716
 444  1430.946
 445  1241.754
 446  1658.884
 447  1755.596
 448  1403.193
 449  1291.668
 450  1342.29
 451  1489.393
 452  1608.076
 453  1251.68
 454  1144.007
 455  983.4839
 456  1284.28
 457  1340.393
 458  1242.389
 459  1214.702
 460  1266.344
 461  1505.849
 462  1295.865
 463  1289.697
 464  1217.759
 465  1695.805
 466  1559.665
 467  1252.691
 468  1673.503
 469  1573.069
 470  1686.314
 471  1369.746
 472  1356.704
 473  1462.112
 474  1399.499
 475  1190.376
 476  1377.223
 477  1249.511
 478  1208.341
 479  1765.22
 480  1637.423
 481  1292.011
 482  1368.422
 483  1622.443
 484  1934.745
 485  1577.517
 486  1587.925
 487  1331.277
 488  1392.586
 489  1533.382
 490  1819.125
 491  1851.554
 492  1809.695
 493  1549.613
 494  1344.68
 495  1340.096
 496  1281.033
 497  1434.412
 498  1432.148
 499  1373.66
 500  1443.619
 501  1812.702
 502  1631.574
 503  1405.403
 504  1327.207
 505  1444.661
 506  1449.867
 507  1234.388
 508  945.7971
 509  1296.421
 510  1532.529
 511  1281.385
