# Input file       =  1183424315.08945_cleaned.dat
# Candidate        =  PSR_0332+5434
# Telescope        =  AR
# Epoch_topo       =  57941.040903813075
# Epoch_bary       =  N/A
# T_sample         =  0.002
# Data Folded      =  7405568
# Data Avg         =  0.106120634519091
# Data StdDev      =  4.39589312267417 
# Profile Bins     =  512
# Profile Avg      =  1535.40912118179 
# Profile StdDev   =  528.678113286496 
# Reduced chi-sqr  =  0.748
# Prob(Noise)      <  1   (~0.0 sigma)
# P_topo (ms)      =  714.484526378389  +/- 9.11e-05
# P'_topo (s/s)    =  -0                +/- 4.76e-11
# P''_topo (s/s^2) =  0                 +/- 2.08e-14
# P_bary (ms)      =  N/A
# P'_bary (s/s)    =  N/A
# P''_bary (s/s^2) =  N/A
# P_orb (s)        =  N/A
# asin(i)/c (s)    =  N/A
# eccentricity     =  N/A
# w (rad)          =  N/A
# T_peri           =  N/A
######################################################
   0  1621.18
   1  1670.412
   2  1201.769
   3  1210.069
   4  1299.98
   5  1596.642
   6  1304.419
   7  1169.807
   8  1111.858
   9  968.3337
  10  1087.335
  11  954.5691
  12  1576.312
  13  1634.349
  14  1704.616
  15  1461.016
  16  1422.462
  17  1510.421
  18  1167.316
  19  1239.609
  20  1489.735
  21  1769.789
  22  1235.938
  23  1147.687
  24  963.9272
  25  1324.953
  26  1460.485
  27  1032.184
  28  1190.527
  29  890.9306
  30  964.814
  31  916.4151
  32  820.5161
  33  1320.818
  34  1054.344
  35  1138.928
  36  782.6536
  37  1096.083
  38  1266.515
  39  1384.623
  40  1532.144
  41  1935.83
  42  1737.988
  43  1129.31
  44  1211.285
  45  1382.158
  46  1757.448
  47  1678.374
  48  1745.196
  49  1854.311
  50  1796.663
  51  1651.409
  52  1366.551
  53  1650.263
  54  1609.003
  55  1585.659
  56  1478.282
  57  1400.377
  58  1265.449
  59  1162.064
  60  1375.021
  61  1073.727
  62  1543.34
  63  1891.105
  64  1597.697
  65  1368.337
  66  1405.166
  67  1612.467
  68  1461.532
  69  1391.263
  70  1569.969
  71  1596.776
  72  1552.126
  73  1292.545
  74  1503.04
  75  1767.508
  76  1287.443
  77  1361.411
  78  1241.843
  79  1532.422
  80  1537.097
  81  1498.594
  82  1187.312
  83  1378.452
  84  1570.361
  85  1683.682
  86  1530.265
  87  1476.594
  88  1557.088
  89  1045.537
  90  920.535
  91  1338.365
  92  1288.074
  93  1552.551
  94  1483.171
  95  1697.486
  96  1985.196
  97  1534.322
  98  974.5034
  99  1195.388
 100  1349.716
 101  1353.76
 102  1667.274
 103  1665.101
 104  1942.281
 105  1709.574
 106  1723.127
 107  1809.199
 108  1553.043
 109  1453.628
 110  1306.495
 111  1802.908
 112  1760.737
 113  1442.455
 114  1558.641
 115  1824.613
 116  1779.016
 117  1903.138
 118  1808.284
 119  1713.502
 120  1780.248
 121  1514.662
 122  1290.967
 123  1329.265
 124  1340.538
 125  1391.076
 126  1333.335
 127  991.0199
 128  1161.201
 129  1617.991
 130  1546.109
 131  1708.67
 132  1250.427
 133  1243.406
 134  1119.901
 135  1396.683
 136  1625.04
 137  1359.582
 138  1283.177
 139  1486.61
 140  1254.654
 141  1178.973
 142  1137.965
 143  1372.201
 144  1558.526
 145  1631.331
 146  1664.859
 147  1103.06
 148  1445.335
 149  1288.395
 150  1623.239
 151  1481.765
 152  1376.013
 153  1501.202
 154  1334.985
 155  1065.792
 156  895.593
 157  1261.221
 158  1249.441
 159  1079.861
 160  1476.998
 161  1707.448
 162  1791.699
 163  1782.37
 164  1856.381
 165  1592.566
 166  1878.377
 167  1542.589
 168  1422.923
 169  1660.737
 170  1930.161
 171  1715.406
 172  1332.615
 173  1433.709
 174  1409.599
 175  1271.287
 176  1503.388
 177  1389.97
 178  1461.871
 179  1443.111
 180  1395.464
 181  1567.257
 182  1681.627
 183  1450.068
 184  1304.172
 185  1353.44
 186  1577.127
 187  1359.549
 188  1516.164
 189  1489.198
 190  1810.008
 191  1882.045
 192  1762.119
 193  1796.898
 194  1922.686
 195  1657.123
 196  1181.54
 197  1608.306
 198  1936.252
 199  2219.536
 200  1652.353
 201  1540.091
 202  1556.722
 203  1997.102
 204  1917.292
 205  1793.877
 206  1290.183
 207  1003.124
 208  1051.826
 209  943.9362
 210  1481.48
 211  1560.245
 212  1664.947
 213  1729.959
 214  1364.765
 215  1254.164
 216  826.1727
 217  1221.78
 218  1165.278
 219  1299.52
 220  1456.495
 221  1374.089
 222  1400.02
 223  970.6907
 224  1014.682
 225  1208.28
 226  1260.482
 227  1407.347
 228  1340.673
 229  1530.228
 230  1116.347
 231  1062.769
 232  1359.503
 233  1559.707
 234  1101.664
 235  1760.502
 236  2065.954
 237  1763.242
 238  1388.791
 239  1680.438
 240  1704.226
 241  1447.291
 242  1743.332
 243  1998.621
 244  2051.008
 245  1452.773
 246  1620.698
 247  1809.397
 248  1420.778
 249  1883.559
 250  1654.096
 251  1725.484
 252  1606.623
 253  1562.243
 254  1606.863
 255  1286.161
 256  1520.287
 257  2278.17
 258  2084.992
 259  2137.552
 260  2426.671
 261  3268.641
 262  3238.846
 263  2979.786
 264  3109.225
 265  2835.142
 266  2115.344
 267  1676.604
 268  1838.431
 269  1744.591
 270  1052.001
 271  1143.931
 272  1463.175
 273  1552.902
 274  1665.994
 275  1182.299
 276  1354.649
 277  1796.007
 278  1475.63
 279  1866.402
 280  1836.328
 281  1213.315
 282  1037.377
 283  998.3298
 284  1561.174
 285  1728.495
 286  1563.774
 287  1565.159
 288  1242.204
 289  1262.329
 290  1308.559
 291  1155.9
 292  1311.945
 293  1363.76
 294  1510.661
 295  1605.021
 296  1317.935
 297  1511.801
 298  1596.578
 299  1302.183
 300  1322.151
 301  1517.52
 302  1837.959
 303  1586.446
 304  1405.225
 305  1279.031
 306  1346.014
 307  1587.719
 308  1405.716
 309  1808.376
 310  2101.94
 311  2119.667
 312  1413.899
 313  1421.785
 314  1691.97
 315  1924.376
 316  1772.501
 317  1636.594
 318  1728.577
 319  1742.364
 320  1247.739
 321  1270.135
 322  1388.529
 323  1343.908
 324  1352.081
 325  1596.309
 326  1529.317
 327  1251.497
 328  1848.884
 329  1781.303
 330  1822.48
 331  2204.565
 332  2154.312
 333  1798.979
 334  1484.853
 335  1623.194
 336  1552.336
 337  1482.769
 338  1624.475
 339  1785.411
 340  2058.914
 341  1967.277
 342  1821.077
 343  1918.763
 344  1458.479
 345  973.0793
 346  1629.411
 347  1665.143
 348  1636.61
 349  1842.373
 350  1856.544
 351  2118.076
 352  2005.433
 353  1793.046
 354  1605.373
 355  1518.886
 356  1364.586
 357  1535.295
 358  1763.87
 359  1653.995
 360  1881.942
 361  2022.008
 362  1931.136
 363  1242.43
 364  1170.186
 365  1536.756
 366  1132.756
 367  1586.262
 368  1974.365
 369  2073.017
 370  1447.115
 371  928.9797
 372  1022.667
 373  1288.842
 374  1323.768
 375  1257.274
 376  1568.985
 377  993.0159
 378  825.3275
 379  1013.874
 380  1273.959
 381  1256.682
 382  1018.121
 383  1262.575
 384  1466.506
 385  1755.838
 386  1416.679
 387  1163.573
 388  1584.256
 389  1612.608
 390  1390.628
 391  1302.66
 392  1448.89
 393  1127.727
 394  1278.53
 395  1679.447
 396  1463.064
 397  1771.101
 398  1780.279
 399  1554.704
 400  1631.312
 401  1439.537
 402  1586.778
 403  1489.407
 404  1606.903
 405  1819.812
 406  1834.314
 407  1625.518
 408  1853.421
 409  1940.261
 410  1213.687
 411  1293.136
 412  1528.659
 413  1776.573
 414  1971.76
 415  1931.817
 416  1770.165
 417  1613.067
 418  1957.216
 419  1608.321
 420  1459.521
 421  1561.507
 422  2011.998
 423  1957.794
 424  1678.521
 425  2046.186
 426  2209.569
 427  2469.488
 428  2395.372
 429  2051.158
 430  1621.672
 431  1677.339
 432  1781.372
 433  1774.011
 434  2335.154
 435  2015.447
 436  1429.241
 437  1508.124
 438  1456.868
 439  1158.25
 440  1194.464
 441  1702.123
 442  1741.053
 443  1777.741
 444  1255.853
 445  925.512
 446  1339.084
 447  1679.52
 448  1668.975
 449  1536.086
 450  1394.006
 451  1207.593
 452  1281.857
 453  1449.794
 454  1435.174
 455  1738.42
 456  1546.45
 457  1360.929
 458  1084.62
 459  1315.568
 460  1569.328
 461  1543.545
 462  1652.435
 463  1734.602
 464  1581.472
 465  1085.289
 466  1184.84
 467  1586.451
 468  1908.842
 469  1704.753
 470  1429.647
 471  1679.55
 472  1172.455
 473  1368.643
 474  1334.828
 475  1360.831
 476  1747.952
 477  1867.393
 478  1752.976
 479  1661.623
 480  1851.738
 481  1249.369
 482  1550.791
 483  1948.516
 484  1892.444
 485  1540.777
 486  1200.517
 487  1646.96
 488  1883.056
 489  1684.1
 490  1622.475
 491  1602.618
 492  1200.756
 493  1416.44
 494  1454.394
 495  1604.132
 496  2025.37
 497  2116.583
 498  1929.428
 499  1688.298
 500  1880.495
 501  1789.275
 502  1481.909
 503  1720.277
 504  1592.998
 505  1247.93
 506  1116.955
 507  1424.633
 508  1738.172
 509  1816.449
 510  1608.676
 511  1204.752
