# Input file       =  1183266337.135035_cleaned.dat
# Candidate        =  PSR_0332+5434
# Telescope        =  AR
# Epoch_topo       =  57939.212455266606
# Epoch_bary       =  N/A
# T_sample         =  0.002
# Data Folded      =  7340032
# Data Avg         =  0.232677956422517
# Data StdDev      =  4.32938624771812 
# Profile Bins     =  1024
# Profile Avg      =  1668.04643819811 
# Profile StdDev   =  366.543338912168 
# Reduced chi-sqr  =  1.023
# Prob(Noise)      <  0.296   (~0.5 sigma)
# P_topo (ms)      =  714.485920785929  +/- 0.000822
# P'_topo (s/s)    =  -0                +/- 4.34e-10
# P''_topo (s/s^2) =  0                 +/- 1.91e-13
# P_bary (ms)      =  N/A
# P'_bary (s/s)    =  N/A
# P''_bary (s/s^2) =  N/A
# P_orb (s)        =  N/A
# asin(i)/c (s)    =  N/A
# eccentricity     =  N/A
# w (rad)          =  N/A
# T_peri           =  N/A
######################################################
   0  1833.917
   1  1775.489
   2  1722.243
   3  1690.797
   4  1677.348
   5  1671.083
   6  1579.402
   7  1647.837
   8  1665.797
   9  1693.49
  10  1745.945
  11  1701.291
  12  1680.792
  13  1607.765
  14  1677.328
  15  1705.636
  16  1782.934
  17  1684.42
  18  1676.141
  19  1648.367
  20  1670.583
  21  1557.036
  22  1580.175
  23  1661.876
  24  1560.015
  25  1439.195
  26  1326.739
  27  1378.384
  28  1429.359
  29  1431.999
  30  1422.611
  31  1331.655
  32  1365.123
  33  1423.338
  34  1551.86
  35  1558.387
  36  1565.84
  37  1484.041
  38  1488.885
  39  1448.649
  40  1544.223
  41  1556.985
  42  1616.028
  43  1561.187
  44  1656.226
  45  1635.9
  46  1618.542
  47  1592.631
  48  1622.497
  49  1729.86
  50  1687.874
  51  1711.426
  52  1640.123
  53  1584.89
  54  1571.386
  55  1668.321
  56  1707.327
  57  1599.911
  58  1558.28
  59  1518.506
  60  1579.232
  61  1598.62
  62  1667.962
  63  1733
  64  1706.162
  65  1702.058
  66  1668.133
  67  1736.952
  68  1761.027
  69  1695.201
  70  1709.891
  71  1606.69
  72  1557.063
  73  1446.462
  74  1407.89
  75  1401.845
  76  1340.294
  77  1371.565
  78  1410.417
  79  1348.652
  80  1415.283
  81  1482.589
  82  1517.257
  83  1598.901
  84  1640.936
  85  1787.628
  86  1718.344
  87  1636.468
  88  1568.504
  89  1633.088
  90  1661.607
  91  1704.556
  92  1728.338
  93  1674.912
  94  1600.582
  95  1687.31
  96  1727.481
  97  1652.328
  98  1556.052
  99  1521.508
 100  1578.117
 101  1505.592
 102  1618.021
 103  1655.147
 104  1700.321
 105  1717.03
 106  1701.724
 107  1748.035
 108  1697.327
 109  1639.395
 110  1574.194
 111  1612.703
 112  1637.57
 113  1779.819
 114  1854.775
 115  1957.089
 116  1884.623
 117  1845.008
 118  1793.471
 119  1786.675
 120  1825.719
 121  1757.757
 122  1799.167
 123  1764.987
 124  1799.372
 125  1795.594
 126  1812.045
 127  1774.148
 128  1718.914
 129  1760.808
 130  1675.85
 131  1693.355
 132  1643.382
 133  1761.272
 134  1768.222
 135  1937.159
 136  1844.896
 137  1800.935
 138  1762.89
 139  1799.892
 140  1790.962
 141  1808.094
 142  1830.394
 143  1898.539
 144  1825.292
 145  1790.955
 146  1755.391
 147  1735.373
 148  1741.227
 149  1861.404
 150  1977.468
 151  1987.567
 152  1854.592
 153  1829.037
 154  1951.488
 155  2008.52
 156  1896.83
 157  1914.914
 158  1936.603
 159  2002.601
 160  1930.715
 161  1852.587
 162  1863.281
 163  1884.557
 164  1973.609
 165  1910.263
 166  2039.197
 167  1933.971
 168  1941.192
 169  1833.342
 170  1929.816
 171  1996.995
 172  1941.429
 173  1883.142
 174  1880.635
 175  1980.302
 176  1861.101
 177  1798.259
 178  1847.777
 179  1884.189
 180  1881.752
 181  1795.147
 182  1827.38
 183  1801.516
 184  1879.093
 185  1946.523
 186  1934.195
 187  1895.503
 188  1892.892
 189  1884.719
 190  1876.731
 191  1915.424
 192  1892.924
 193  1849.291
 194  1785.041
 195  1780.591
 196  1817.53
 197  1804.813
 198  1829.945
 199  1890.93
 200  1848.058
 201  1742.51
 202  1700.23
 203  1769.211
 204  1916.749
 205  1882.57
 206  1884.269
 207  1845.313
 208  1853.952
 209  1802.93
 210  1726.382
 211  1711.487
 212  1647.008
 213  1575.908
 214  1518.872
 215  1554.476
 216  1656.86
 217  1610.584
 218  1611.454
 219  1551.32
 220  1554.256
 221  1591.874
 222  1637.38
 223  1741.978
 224  1783.578
 225  1779.397
 226  1736.491
 227  1698.28
 228  1680.748
 229  1660.841
 230  1560.059
 231  1611.944
 232  1664.461
 233  1636.956
 234  1515.152
 235  1475.391
 236  1539.397
 237  1558.425
 238  1509.821
 239  1561.09
 240  1546.63
 241  1579.026
 242  1594.323
 243  1685.227
 244  1719.153
 245  1709.045
 246  1660.112
 247  1648.624
 248  1645.58
 249  1670.431
 250  1658.921
 251  1554.268
 252  1535.503
 253  1508.539
 254  1569.226
 255  1482.955
 256  1419.64
 257  1352.561
 258  1512.592
 259  1710.163
 260  1812.794
 261  1870.654
 262  1739.987
 263  1673.573
 264  1542.475
 265  1661.755
 266  1707.602
 267  1668.359
 268  1620.912
 269  1699.649
 270  1780.78
 271  1679.632
 272  1662.59
 273  1692.667
 274  1791.867
 275  1770.104
 276  1726.363
 277  1722.313
 278  1654.635
 279  1627.36
 280  1547.935
 281  1587.007
 282  1597.739
 283  1669.795
 284  1606.167
 285  1575.76
 286  1620.205
 287  1718.675
 288  1687.134
 289  1673.831
 290  1637.708
 291  1583.703
 292  1600.31
 293  1566.796
 294  1598.527
 295  1569.972
 296  1642.63
 297  1611.284
 298  1616.888
 299  1674.516
 300  1685.528
 301  1650.18
 302  1643.5
 303  1613.337
 304  1423.895
 305  1272.96
 306  1197.426
 307  1305.645
 308  1396.638
 309  1479.287
 310  1475.425
 311  1505.874
 312  1454.561
 313  1404.917
 314  1411.403
 315  1499.441
 316  1571.121
 317  1532.36
 318  1523.931
 319  1467.036
 320  1552.163
 321  1494.372
 322  1401.447
 323  1266.918
 324  1293.424
 325  1525.339
 326  1628.587
 327  1711.127
 328  1694.934
 329  1674.254
 330  1525.317
 331  1502.91
 332  1537.618
 333  1657.814
 334  1756.005
 335  1698.084
 336  1580.246
 337  1425.16
 338  1500.462
 339  1537.271
 340  1662.252
 341  1722.918
 342  1726.515
 343  1713.648
 344  1619.874
 345  1660.197
 346  1658.248
 347  1784.803
 348  1806.1
 349  1827.812
 350  1722.962
 351  1756.467
 352  1724.228
 353  1779.963
 354  1761.464
 355  1707.265
 356  1626.556
 357  1607.282
 358  1687.583
 359  1660.165
 360  1570.001
 361  1559.155
 362  1671.367
 363  1636.922
 364  1583.623
 365  1446.369
 366  1469.199
 367  1507.872
 368  1607.106
 369  1574.216
 370  1495.489
 371  1581.121
 372  1637.092
 373  1634.925
 374  1509.68
 375  1454.217
 376  1405.758
 377  1315.389
 378  1255.997
 379  1216.76
 380  1268.016
 381  1196.604
 382  1225.315
 383  1174.668
 384  1266.524
 385  1309.625
 386  1424.495
 387  1415.565
 388  1491.606
 389  1572.089
 390  1546.585
 391  1501.735
 392  1439.077
 393  1515.513
 394  1531.905
 395  1514.566
 396  1411.841
 397  1363.277
 398  1437.288
 399  1497.142
 400  1478.693
 401  1367.797
 402  1447.06
 403  1528.27
 404  1604.77
 405  1551.709
 406  1510.199
 407  1393.662
 408  1377.107
 409  1421.761
 410  1441.473
 411  1376.735
 412  1244.169
 413  1339.185
 414  1380.212
 415  1385.025
 416  1326.659
 417  1416.338
 418  1529.469
 419  1468.07
 420  1405.302
 421  1289.998
 422  1244.102
 423  1239.171
 424  1375.546
 425  1479.177
 426  1502.035
 427  1400.176
 428  1379.895
 429  1342.716
 430  1505.506
 431  1529.624
 432  1512.137
 433  1492.299
 434  1511.589
 435  1545.567
 436  1492.407
 437  1502.834
 438  1553.819
 439  1650.856
 440  1675.207
 441  1581.822
 442  1430.595
 443  1438.303
 444  1497.712
 445  1515.249
 446  1497.114
 447  1427.147
 448  1491.598
 449  1463.814
 450  1412.225
 451  1452.69
 452  1497.309
 453  1479.3
 454  1300.947
 455  1285.271
 456  1328.803
 457  1510.578
 458  1460.859
 459  1397.516
 460  1339.913
 461  1326.761
 462  1280.171
 463  1191.123
 464  1321.375
 465  1360.172
 466  1385.475
 467  1450.418
 468  1540.11
 469  1486.535
 470  1442.937
 471  1524.548
 472  1578.536
 473  1540.556
 474  1478.99
 475  1491.193
 476  1453.5
 477  1506.862
 478  1633.363
 479  1777.938
 480  1693.543
 481  1643.721
 482  1580.845
 483  1520.228
 484  1454.444
 485  1424.882
 486  1378.94
 487  1333.029
 488  1399.746
 489  1421.732
 490  1518.042
 491  1664.282
 492  1698.326
 493  1709.658
 494  1571.842
 495  1566.106
 496  1467.782
 497  1467.261
 498  1475.989
 499  1513.078
 500  1435.292
 501  1346.349
 502  1333.843
 503  1419.055
 504  1569.573
 505  1619.112
 506  1716.101
 507  1700.201
 508  1757.916
 509  1738.188
 510  1730.598
 511  1712.259
 512  1750.454
 513  1899.445
 514  1912.042
 515  1842.254
 516  1736.729
 517  1766.494
 518  1823.055
 519  1899.802
 520  1970.155
 521  1989.475
 522  1880.113
 523  1751.863
 524  1788.286
 525  1866.004
 526  1901.67
 527  1856.654
 528  1890.596
 529  1838.673
 530  1742.333
 531  1682.81
 532  1680.442
 533  1760.44
 534  1804.731
 535  1822.227
 536  1710.345
 537  1648.316
 538  1670.398
 539  1731.709
 540  1717.27
 541  1740.867
 542  1658.76
 543  1637.386
 544  1562.437
 545  1562.097
 546  1589.891
 547  1486.945
 548  1454.378
 549  1518.182
 550  1651.905
 551  1703.257
 552  1716.68
 553  1547.46
 554  1449.283
 555  1344.454
 556  1467.562
 557  1577.796
 558  1615.279
 559  1612.561
 560  1644.225
 561  1652.399
 562  1705.053
 563  1737.492
 564  1785.597
 565  1792.194
 566  1798.386
 567  1871.81
 568  1859.222
 569  1803.551
 570  1725.753
 571  1715.637
 572  1723.195
 573  1741.406
 574  1769.25
 575  1666.43
 576  1698.468
 577  1716.01
 578  1842.06
 579  1754.986
 580  1724.246
 581  1679.95
 582  1769.497
 583  1777.413
 584  1822.74
 585  1881.414
 586  1864.891
 587  1778.552
 588  1734.507
 589  1729.42
 590  1756.176
 591  1663.928
 592  1783.906
 593  1815.845
 594  1827.282
 595  1772.16
 596  1851.577
 597  1888.608
 598  1926.027
 599  1962.205
 600  1949.949
 601  1969.169
 602  1880.976
 603  1887.277
 604  1813.658
 605  1826.627
 606  1693.205
 607  1591.345
 608  1671.307
 609  1817.566
 610  1996.954
 611  2008.639
 612  2043.875
 613  1902.876
 614  1879.149
 615  1841.293
 616  1937.243
 617  1891.05
 618  1863.015
 619  1809.451
 620  1779.224
 621  1748.009
 622  1727.373
 623  1799.572
 624  1782.447
 625  1792.211
 626  1789.95
 627  1954.648
 628  1965.839
 629  1930.269
 630  1901.006
 631  1855.597
 632  1845.706
 633  1693.256
 634  1714.839
 635  1652.591
 636  1722.021
 637  1739.296
 638  1782.011
 639  1788.996
 640  1871.495
 641  1931.671
 642  1912.943
 643  2024.962
 644  2028.325
 645  2180.176
 646  2123.666
 647  2235.781
 648  2362.049
 649  2543.651
 650  2700.525
 651  2822.475
 652  2859.075
 653  2827.593
 654  2818.098
 655  2858.532
 656  2805.742
 657  2602.779
 658  2427.747
 659  2273.448
 660  2138.439
 661  1936.258
 662  1770.586
 663  1743.488
 664  1802.408
 665  1776.273
 666  1654.721
 667  1625.567
 668  1583.49
 669  1618.055
 670  1592.641
 671  1634.851
 672  1677.509
 673  1698.272
 674  1681.459
 675  1717.407
 676  1950.379
 677  2053.315
 678  2017.245
 679  1904.907
 680  1820.358
 681  1766.303
 682  1641.173
 683  1670.002
 684  1587.974
 685  1565.498
 686  1572.349
 687  1582.57
 688  1691.436
 689  1755.572
 690  1744.587
 691  1750.887
 692  1636.506
 693  1674.087
 694  1786.847
 695  1894.71
 696  1865.706
 697  1721.81
 698  1636.462
 699  1546.507
 700  1610.924
 701  1672.562
 702  1712.044
 703  1633.823
 704  1525.008
 705  1598.578
 706  1664.971
 707  1786.248
 708  1693.83
 709  1710.473
 710  1764.376
 711  1774.78
 712  1726.451
 713  1678.766
 714  1632.648
 715  1657.215
 716  1802.581
 717  1822.635
 718  1800.367
 719  1793.248
 720  1767.554
 721  1693.071
 722  1621.276
 723  1649.885
 724  1540.94
 725  1419.088
 726  1423.022
 727  1607.689
 728  1647.476
 729  1629.493
 730  1580.801
 731  1520.622
 732  1532.404
 733  1594.937
 734  1638.795
 735  1634.895
 736  1665.147
 737  1709.874
 738  1653.375
 739  1566.938
 740  1582.569
 741  1671.234
 742  1747.524
 743  1758.978
 744  1762.18
 745  1761.184
 746  1798.632
 747  1660.902
 748  1683.664
 749  1718.075
 750  1827.801
 751  1889.297
 752  1813.158
 753  1847.36
 754  1773.428
 755  1892.355
 756  1919.638
 757  1857.428
 758  1825.428
 759  1780.943
 760  1700.869
 761  1601.965
 762  1655.697
 763  1787.618
 764  1882.05
 765  1802.839
 766  1726.457
 767  1693.626
 768  1769.672
 769  1926.385
 770  1829.758
 771  1761.501
 772  1653.491
 773  1638.238
 774  1658.965
 775  1632.566
 776  1621.166
 777  1762.332
 778  1974.257
 779  2022.371
 780  1811.416
 781  1633.148
 782  1579.335
 783  1670.786
 784  1733.714
 785  1744.48
 786  1795.083
 787  1935.915
 788  1995.25
 789  1920.791
 790  1847.388
 791  1784.812
 792  1702.88
 793  1722.504
 794  1751.732
 795  1796.303
 796  1752.796
 797  1742.357
 798  1719.824
 799  1820.791
 800  1869.665
 801  1931.903
 802  1900.634
 803  1953.826
 804  1914.054
 805  1840.686
 806  1774.07
 807  1786.919
 808  1773.376
 809  1798.84
 810  1827.952
 811  1877.222
 812  1815.957
 813  1688.184
 814  1629.417
 815  1578.755
 816  1597.389
 817  1591.497
 818  1591.219
 819  1608.042
 820  1586.326
 821  1634.182
 822  1712.853
 823  1848.163
 824  1792.287
 825  1636.601
 826  1479.578
 827  1459.692
 828  1546.179
 829  1602.682
 830  1573.355
 831  1614.028
 832  1514.888
 833  1502.643
 834  1405.199
 835  1439.953
 836  1431.465
 837  1454.258
 838  1443.418
 839  1561.042
 840  1580.821
 841  1518.205
 842  1472.358
 843  1494.528
 844  1559.094
 845  1480.978
 846  1370.162
 847  1315.645
 848  1424.53
 849  1476.611
 850  1471.062
 851  1361.672
 852  1534.087
 853  1588.289
 854  1617.812
 855  1604.785
 856  1648.244
 857  1742.182
 858  1572.411
 859  1448.289
 860  1274.418
 861  1287.031
 862  1378.249
 863  1404.857
 864  1467.926
 865  1329.141
 866  1349.582
 867  1338.671
 868  1429.808
 869  1404.118
 870  1425.47
 871  1401.06
 872  1485.233
 873  1442.272
 874  1454.781
 875  1465.892
 876  1445.581
 877  1296.559
 878  1192.253
 879  1306.444
 880  1430.228
 881  1358.283
 882  1376.773
 883  1464.329
 884  1528.77
 885  1407.013
 886  1365.038
 887  1321.09
 888  1310.211
 889  1360.68
 890  1479.996
 891  1478.503
 892  1419.663
 893  1473.41
 894  1571.681
 895  1616.185
 896  1667.306
 897  1776.891
 898  1768.784
 899  1672.516
 900  1504.938
 901  1431.014
 902  1336.706
 903  1342.822
 904  1322.537
 905  1464.358
 906  1542.927
 907  1602.25
 908  1573.626
 909  1581.598
 910  1603.942
 911  1569.331
 912  1537.864
 913  1433.152
 914  1470.229
 915  1525.789
 916  1594.442
 917  1530.328
 918  1447.075
 919  1426.345
 920  1512.527
 921  1545.482
 922  1664.97
 923  1779.621
 924  1922.59
 925  1985.581
 926  1897.604
 927  1769.483
 928  1528.47
 929  1485.882
 930  1596.039
 931  1675.033
 932  1732.964
 933  1697.405
 934  1809.944
 935  1834.923
 936  1800.602
 937  1626.405
 938  1645.748
 939  1736.202
 940  1731.444
 941  1656.987
 942  1530.643
 943  1528.135
 944  1460.966
 945  1593.983
 946  1678.076
 947  1858.844
 948  1886.206
 949  1923.415
 950  1815.416
 951  1815.876
 952  1770.89
 953  1819.027
 954  1920.711
 955  1944.833
 956  1906.277
 957  1835.287
 958  1847.627
 959  1842.529
 960  1759.936
 961  1743.121
 962  1703.965
 963  1767.469
 964  1807.744
 965  1865.659
 966  1691.373
 967  1715.919
 968  1671.289
 969  1690.615
 970  1765.269
 971  1786.448
 972  1949.196
 973  1798.292
 974  1763.759
 975  1687.435
 976  1754.038
 977  1786.852
 978  1876.94
 979  2002.094
 980  1974.479
 981  1871.512
 982  1844.327
 983  1863.837
 984  1747.118
 985  1642.977
 986  1596.384
 987  1736.01
 988  1618.142
 989  1527.687
 990  1533.125
 991  1741.66
 992  1879.644
 993  1861.779
 994  1814.496
 995  1826.503
 996  1845.82
 997  1785.496
 998  1759.505
 999  1588.387
1000  1620.101
1001  1612.23
1002  1625.456
1003  1644.671
1004  1633.881
1005  1582.483
1006  1586.09
1007  1639.057
1008  1783.167
1009  1811.085
1010  1735.182
1011  1718.46
1012  1625.009
1013  1611.2
1014  1640.81
1015  1712.064
1016  1766.079
1017  1834.56
1018  1987.459
1019  2084.462
1020  1968.932
1021  1746.872
1022  1679.498
1023  1664.082
