# Input file       =  1183712136.10114_cleaned.dat
# Candidate        =  PSR_0332+5434
# Telescope        =  AR
# Epoch_topo       =  57944.372165522451
# Epoch_bary       =  N/A
# T_sample         =  0.002
# Data Folded      =  7340032
# Data Avg         =  0.0506667868922418
# Data StdDev      =  1.00008887758323 
# Profile Bins     =  512
# Profile Avg      =  726.26273052644  
# Profile StdDev   =  119.743677959672 
# Reduced chi-sqr  =  1.193
# Prob(Noise)      <  0.00174   (~2.9 sigma)
# P_topo (ms)      =  714.482442331922  +/- 3.6e-05
# P'_topo (s/s)    =  -0                +/- 1.9e-11
# P''_topo (s/s^2) =  0                 +/- 8.39e-15
# P_bary (ms)      =  N/A
# P'_bary (s/s)    =  N/A
# P''_bary (s/s^2) =  N/A
# P_orb (s)        =  N/A
# asin(i)/c (s)    =  N/A
# eccentricity     =  N/A
# w (rad)          =  N/A
# T_peri           =  N/A
######################################################
   0  1235.167
   1  1139.432
   2  1034.874
   3  982.4073
   4  954.5032
   5  843.6434
   6  807.2119
   7  752.4351
   8  800.4464
   9  786.1035
  10  695.8785
  11  753.6469
  12  742.3273
  13  741.2555
  14  826.4235
  15  682.2312
  16  633.6526
  17  715.4402
  18  695.923
  19  611.1571
  20  643.0328
  21  533.231
  22  497.6599
  23  584.9369
  24  654.7183
  25  574.8096
  26  513.9152
  27  709.1458
  28  733.4348
  29  645.6835
  30  544.7441
  31  676.1528
  32  778.0299
  33  836.4791
  34  784.1846
  35  641.0297
  36  603.1063
  37  611.7593
  38  743.5302
  39  706.4014
  40  551.879
  41  638.0908
  42  620.5689
  43  564.4954
  44  604.1571
  45  642.7513
  46  734.23
  47  763.4456
  48  698.8926
  49  753.0276
  50  715.6789
  51  790.6608
  52  861.0663
  53  778.0471
  54  742.3298
  55  752.6316
  56  746.2392
  57  745.8566
  58  666.1899
  59  654.292
  60  616.606
  61  642.5654
  62  721.0367
  63  652.1838
  64  619.9659
  65  633.7541
  66  716.6791
  67  693.7804
  68  710.0391
  69  706.3188
  70  782.098
  71  679.7712
  72  660.3389
  73  697.8442
  74  576.7703
  75  660.9825
  76  710.6548
  77  653.1376
  78  671.0565
  79  664.796
  80  670.4362
  81  640.5798
  82  510.1118
  83  600.5417
  84  686.3547
  85  678.0655
  86  615.0403
  87  547.7395
  88  573.603
  89  605.9935
  90  661.4532
  91  627.8194
  92  530.686
  93  562.0203
  94  629.4552
  95  531.5936
  96  615.1537
  97  652.394
  98  684.8693
  99  689.5925
 100  726.7575
 101  695.3752
 102  725.0369
 103  812.1987
 104  785.9891
 105  687.8341
 106  644.8091
 107  747.8627
 108  804.833
 109  702.717
 110  633.2927
 111  560.9042
 112  697.1704
 113  740.1858
 114  732.2501
 115  662.4103
 116  635.348
 117  694.7211
 118  681.3392
 119  690.5978
 120  662.3712
 121  684.8971
 122  702.3385
 123  754.6357
 124  699.4482
 125  620.2831
 126  697.9951
 127  784.7839
 128  865.8394
 129  779.7402
 130  780.8333
 131  590.9803
 132  698.2155
 133  800.4273
 134  718.5975
 135  668.7963
 136  756.5977
 137  830.8203
 138  731.2004
 139  600.4561
 140  611.8199
 141  628.3388
 142  727.3024
 143  816.8649
 144  743.639
 145  645.8821
 146  698.1851
 147  750.5128
 148  789.4856
 149  703.4278
 150  712.9847
 151  803.6041
 152  887.0255
 153  785.5412
 154  763.6337
 155  789.9552
 156  749.8096
 157  808.3178
 158  744.9803
 159  711.7357
 160  708.6235
 161  644.4207
 162  638.0581
 163  741.1597
 164  646.3792
 165  684.5955
 166  747.1525
 167  675.8718
 168  623.1145
 169  590.5996
 170  644.5594
 171  638.0021
 172  613.1717
 173  626.1657
 174  643.4672
 175  823.0436
 176  820.7283
 177  735.9677
 178  619.8641
 179  683.3141
 180  735.5011
 181  693.4166
 182  637.2483
 183  710.4637
 184  651.6553
 185  711.1693
 186  756.5999
 187  722.0622
 188  658.9441
 189  639.9991
 190  740.493
 191  728.3549
 192  662.4551
 193  711.5413
 194  699.9139
 195  621.3525
 196  767.153
 197  725.5309
 198  693.1855
 199  619.8073
 200  632.372
 201  614.7367
 202  586.4706
 203  612.4217
 204  759.1431
 205  768.771
 206  771.5927
 207  668.2776
 208  667.9646
 209  753.2495
 210  786.8519
 211  783.4188
 212  732.6812
 213  770.3326
 214  840.3995
 215  683.1889
 216  562.1897
 217  581.6557
 218  642.9456
 219  711.6716
 220  812.3979
 221  703.1122
 222  671.7278
 223  658.1987
 224  734.9229
 225  788.518
 226  733.8054
 227  693.177
 228  631.4872
 229  683.913
 230  734.4508
 231  705.0551
 232  683.6962
 233  734.0637
 234  701.0283
 235  648.4831
 236  608.6138
 237  716.3808
 238  771.9528
 239  700.4365
 240  757.7443
 241  697.3121
 242  759.921
 243  832.6243
 244  842.4287
 245  717.0405
 246  632.1459
 247  747.3459
 248  809.2277
 249  855.0809
 250  666.7596
 251  676.2708
 252  698.3908
 253  796.4214
 254  718.3193
 255  697.0292
 256  759.9455
 257  823.913
 258  721.1821
 259  775.4196
 260  831.2148
 261  883.8261
 262  876.8989
 263  837.6331
 264  712.3189
 265  614.5703
 266  690.4266
 267  825.2198
 268  660.9678
 269  492.9452
 270  553.9731
 271  626.5868
 272  705.0777
 273  675.0151
 274  704.4598
 275  665.0432
 276  686.45
 277  728.4166
 278  654.8091
 279  520.8829
 280  678.1965
 281  779.8398
 282  880.652
 283  778.0085
 284  667.0486
 285  720.3439
 286  697.6851
 287  652.191
 288  508.7785
 289  605.397
 290  712.5875
 291  877.0278
 292  854.1408
 293  761.1818
 294  733.0217
 295  764.524
 296  750.6418
 297  730.5499
 298  692.3284
 299  683.5922
 300  665.7808
 301  800.2332
 302  825.7516
 303  713.9114
 304  677.762
 305  865.3774
 306  941.7933
 307  700.7421
 308  706.1545
 309  785.2786
 310  844.9775
 311  781.8198
 312  726.1907
 313  779.8366
 314  796.0355
 315  853.1053
 316  807.1702
 317  732.1113
 318  714.3487
 319  733.8393
 320  828.8133
 321  819.4744
 322  696.5364
 323  713.7868
 324  762.0498
 325  735.6116
 326  723.2425
 327  658.5371
 328  691.0096
 329  737.1097
 330  841.9268
 331  811.1732
 332  682.3969
 333  704.507
 334  785.0985
 335  789.9542
 336  688.1685
 337  674.7059
 338  814.4755
 339  844.6447
 340  753.5759
 341  673.0787
 342  689.0561
 343  756.1708
 344  761.8483
 345  711.4064
 346  566.2541
 347  702.9448
 348  844.2893
 349  794.4802
 350  638.9089
 351  689.4907
 352  768.8868
 353  837.8129
 354  717.1435
 355  656.3613
 356  616.5107
 357  654.1859
 358  895.668
 359  847.8459
 360  663.6753
 361  621.6807
 362  738.9259
 363  814.5484
 364  786.8914
 365  826.0164
 366  751.834
 367  784.5822
 368  771.837
 369  744.5444
 370  747.6241
 371  778.5176
 372  725.866
 373  631.4477
 374  674.5565
 375  648.9986
 376  684.8597
 377  671.8292
 378  595.7128
 379  629.4768
 380  551.5587
 381  632.282
 382  726.119
 383  697.4457
 384  655.2823
 385  659.9474
 386  793.8314
 387  814.835
 388  808.6897
 389  791.1822
 390  757.463
 391  797.3698
 392  779.2076
 393  743.8998
 394  719.2188
 395  683.7174
 396  693.0286
 397  758.7051
 398  772.4488
 399  726.8005
 400  791.3293
 401  862.5707
 402  775.4637
 403  764.2617
 404  670.1495
 405  766.4485
 406  890.1086
 407  738.7564
 408  691.5869
 409  715.8705
 410  772.2234
 411  789.2846
 412  760.2118
 413  764.5572
 414  767.5204
 415  784.1411
 416  801.5765
 417  676.1555
 418  704.4958
 419  669.2281
 420  749.7576
 421  821.6042
 422  741.241
 423  745.1334
 424  889.9537
 425  868.5974
 426  834.5373
 427  811.4824
 428  817.9308
 429  747.882
 430  696.9031
 431  673.187
 432  646.9774
 433  725.7898
 434  787.076
 435  690.0814
 436  693.3696
 437  741.2183
 438  794.4249
 439  823.7936
 440  747.1438
 441  767.1417
 442  771.8143
 443  763.5656
 444  702.6418
 445  748.5431
 446  696.8475
 447  667.3646
 448  808.3799
 449  851.852
 450  697.199
 451  595.3162
 452  589.3771
 453  670.2309
 454  724.8508
 455  739.064
 456  625.6812
 457  700.2206
 458  731.8032
 459  659.4089
 460  671.6365
 461  628.3245
 462  678.8135
 463  844.3309
 464  782.041
 465  768.2941
 466  728.1602
 467  736.6733
 468  759.3616
 469  766.9772
 470  700.5392
 471  686.6696
 472  698.9758
 473  768.9694
 474  782.7807
 475  683.9005
 476  721.4644
 477  762.7726
 478  753.3758
 479  796.3198
 480  799.3391
 481  743.5748
 482  881.8507
 483  809.9182
 484  848.9637
 485  729.6343
 486  716.1835
 487  853.8775
 488  796.7958
 489  806.7095
 490  871.8395
 491  830.3352
 492  918.2259
 493  875.7769
 494  703.8662
 495  669.1484
 496  729.5504
 497  819.8774
 498  792.8492
 499  765.4589
 500  751.5264
 501  803.8724
 502  778.0959
 503  651.6598
 504  711.4942
 505  862.4651
 506  979.7651
 507  922.5361
 508  962.9103
 509  1058.409
 510  1209.935
 511  1304.196
