# Input file       =  1183453964.104919_cleaned.dat
# Candidate        =  PSR_0332+5434
# Telescope        =  AR
# Epoch_topo       =  57941.384063714337
# Epoch_bary       =  N/A
# T_sample         =  0.002
# Data Folded      =  7340032
# Data Avg         =  0.0507137270093815
# Data StdDev      =  1.00010342482206 
# Profile Bins     =  512
# Profile Avg      =  727.162028460717 
# Profile StdDev   =  119.745419744748 
# Reduced chi-sqr  =  1.065
# Prob(Noise)      <  0.151   (~1.0 sigma)
# P_topo (ms)      =  714.484625616825  +/- 5.23e-05
# P'_topo (s/s)    =  -0                +/- 2.76e-11
# P''_topo (s/s^2) =  0                 +/- 1.22e-14
# P_bary (ms)      =  N/A
# P'_bary (s/s)    =  N/A
# P''_bary (s/s^2) =  N/A
# P_orb (s)        =  N/A
# asin(i)/c (s)    =  N/A
# eccentricity     =  N/A
# w (rad)          =  N/A
# T_peri           =  N/A
######################################################
   0  1261.431
   1  1027.436
   2  850.5936
   3  813.8858
   4  750.1022
   5  693.296
   6  722.8032
   7  697.5135
   8  676.4814
   9  791.1105
  10  727.306
  11  616.6397
  12  610.1908
  13  642.4872
  14  781.7932
  15  759.0515
  16  770.0931
  17  742.4197
  18  642.9492
  19  624.4677
  20  594.4777
  21  532.8419
  22  612.5084
  23  715.5405
  24  710.1265
  25  525.3098
  26  515.5767
  27  559.5012
  28  645.4738
  29  680.0548
  30  664.1793
  31  695.4473
  32  591.0672
  33  663.4454
  34  647.3443
  35  621.7319
  36  656.9197
  37  655.0208
  38  726.4211
  39  756.507
  40  664.7897
  41  682.2197
  42  714.7102
  43  714.87
  44  701.1855
  45  626.8965
  46  664.2693
  47  814.8789
  48  725.1523
  49  686.4135
  50  718.3547
  51  717.7374
  52  742.3583
  53  699.1708
  54  772.4682
  55  720.9144
  56  725.7901
  57  835.2379
  58  688.0242
  59  553.4136
  60  657.6366
  61  660.725
  62  663.8058
  63  632.9461
  64  539.0396
  65  649.6923
  66  718.582
  67  722.0751
  68  724.0015
  69  716.3807
  70  662.8088
  71  697.1793
  72  676.2036
  73  714.7927
  74  667.4472
  75  603.6586
  76  606.7205
  77  544.1471
  78  636.3105
  79  631.2115
  80  728.9658
  81  730.932
  82  681.7845
  83  759.5857
  84  718.161
  85  774.2249
  86  779.3255
  87  735.4163
  88  773.7928
  89  799.6372
  90  795.5351
  91  749.9792
  92  638.6669
  93  667.0504
  94  652.2803
  95  689.2003
  96  625.043
  97  622.5173
  98  682.1304
  99  739.6345
 100  748.6875
 101  670.4489
 102  645.5082
 103  727.7803
 104  772.7525
 105  762.2432
 106  691.002
 107  754.389
 108  729.5195
 109  729.5101
 110  701.5083
 111  626.0115
 112  591.2329
 113  667.1416
 114  832.6959
 115  824.0056
 116  814.3934
 117  853.1848
 118  866.8614
 119  830.1008
 120  823.1404
 121  653.2684
 122  694.4745
 123  738.145
 124  889.2227
 125  759.2557
 126  743.5887
 127  792.448
 128  872.0932
 129  863.6942
 130  794.9591
 131  719.0807
 132  684.3373
 133  749.0004
 134  809.3449
 135  791.1508
 136  792.7472
 137  743.3748
 138  810.102
 139  704.7359
 140  771.0631
 141  834.7573
 142  815.2752
 143  788.2657
 144  727.5009
 145  734.4498
 146  704.4706
 147  782.2164
 148  845.2409
 149  672.2946
 150  622.7653
 151  663.2062
 152  782.8883
 153  768.0815
 154  672.3516
 155  744.9861
 156  708.0737
 157  707.1427
 158  735.154
 159  748.64
 160  718.3345
 161  793.0128
 162  847.3954
 163  827.8309
 164  808.6069
 165  731.6918
 166  751.6196
 167  740.2914
 168  678.899
 169  644.4386
 170  670.7432
 171  700.1652
 172  650.2687
 173  626.541
 174  639.2012
 175  576.8033
 176  682.1168
 177  767.6193
 178  700.1379
 179  628.7583
 180  646.4759
 181  658.6042
 182  634.4832
 183  607.1652
 184  743.1022
 185  712.0035
 186  567.9794
 187  583.8486
 188  582.0349
 189  626.9312
 190  710.1357
 191  727.2523
 192  709.3638
 193  643.0357
 194  718.2338
 195  750.5057
 196  698.9948
 197  598.536
 198  539.6264
 199  637.4738
 200  673.9249
 201  805.709
 202  632.5388
 203  634.699
 204  685.4833
 205  754.8266
 206  708.1417
 207  648.6425
 208  687.0719
 209  642.7403
 210  667.6209
 211  734.6005
 212  721.6523
 213  661.1663
 214  694.3133
 215  616.5652
 216  584.425
 217  584.1647
 218  600.8956
 219  727.231
 220  650.7434
 221  641.0762
 222  603.8485
 223  568.5388
 224  546.3658
 225  609.465
 226  563.7787
 227  586.6724
 228  657.6073
 229  796.0928
 230  765.2003
 231  629.3096
 232  535.0403
 233  678.2674
 234  676.2385
 235  640.8624
 236  737.6448
 237  744.2469
 238  673.8283
 239  691.9017
 240  683.7786
 241  627.1011
 242  719.7002
 243  774.7191
 244  782.5055
 245  695.2385
 246  622.6355
 247  671.6394
 248  716.7144
 249  682.4026
 250  696.6278
 251  765.972
 252  677.1411
 253  610.0153
 254  616.1586
 255  539.4302
 256  593.8549
 257  764.0186
 258  714.2857
 259  676.6178
 260  678.6552
 261  733.4553
 262  737.7755
 263  726.684
 264  783.699
 265  775.2568
 266  780.6954
 267  880.1747
 268  805.5586
 269  758.0103
 270  840.0823
 271  892.3835
 272  844.794
 273  731.3624
 274  681.7697
 275  719.2792
 276  794.7937
 277  795.2483
 278  776.2585
 279  708.78
 280  737.7398
 281  832.7647
 282  852.1741
 283  793.7728
 284  727.7506
 285  742.3288
 286  727.6949
 287  661.5308
 288  644.3505
 289  659.2197
 290  751.816
 291  859.5908
 292  880.1661
 293  792.3577
 294  698.0735
 295  734.7618
 296  779.5469
 297  748.5087
 298  688.1848
 299  737.3094
 300  800.6078
 301  829.5886
 302  840.2115
 303  834.0971
 304  674.6841
 305  699.4477
 306  729.659
 307  759.8523
 308  638.9061
 309  669.2196
 310  732.4482
 311  712.8392
 312  673.1755
 313  644.2081
 314  764.7881
 315  807.2044
 316  729.8329
 317  739.9438
 318  659.7389
 319  737.8901
 320  771.2999
 321  789.5806
 322  741.823
 323  815.1849
 324  864.5938
 325  682.073
 326  690.2732
 327  690.5544
 328  749.9774
 329  673.4417
 330  669.8127
 331  649.332
 332  576.4735
 333  720.3451
 334  827.5605
 335  666.0602
 336  562.986
 337  550.8716
 338  738.4526
 339  821.5452
 340  710.4644
 341  737.7339
 342  782.2461
 343  776.2625
 344  674.4365
 345  751.4197
 346  753.5485
 347  654.3939
 348  709.462
 349  731.6953
 350  711.7058
 351  743.1754
 352  641.9869
 353  692.5723
 354  679.5957
 355  709.3643
 356  814.1148
 357  690.4276
 358  637.5858
 359  706.427
 360  621.4141
 361  582.5624
 362  626.7921
 363  687.2047
 364  744.9597
 365  753.4416
 366  819.3331
 367  783.5388
 368  675.3611
 369  615.1884
 370  574.1803
 371  654.3015
 372  792.2413
 373  808.5688
 374  733.8998
 375  659.7682
 376  662.1797
 377  753.8036
 378  710.6821
 379  754.3459
 380  648.1333
 381  664.5316
 382  806.2283
 383  805.0526
 384  683.0659
 385  694.8384
 386  748.7618
 387  770.9222
 388  686.7742
 389  679.4395
 390  724.573
 391  714.8671
 392  755.2575
 393  710.0521
 394  689.0223
 395  650.1555
 396  653.3688
 397  723.033
 398  673.7057
 399  700.1177
 400  857.9354
 401  907.2916
 402  909.0651
 403  872.1577
 404  851.3651
 405  838.947
 406  835.6741
 407  757.5026
 408  726.6337
 409  751.5584
 410  779.8439
 411  816.6633
 412  778.6523
 413  583.568
 414  668.9066
 415  748.3484
 416  821.3139
 417  794.8915
 418  673.9769
 419  625.4485
 420  707.0886
 421  701.5059
 422  725.4766
 423  685.8015
 424  670.5256
 425  765.2867
 426  690.382
 427  704.0743
 428  654.4153
 429  608.733
 430  806.0754
 431  777.3889
 432  791.4494
 433  760.7643
 434  687.1672
 435  795.8317
 436  796.7736
 437  827.4763
 438  901.3871
 439  818.9218
 440  862.4461
 441  867.0877
 442  719.0078
 443  794.8787
 444  921.395
 445  812.2381
 446  754.4263
 447  730.1517
 448  748.1819
 449  834.1059
 450  798.8131
 451  730.2345
 452  758.022
 453  808.6604
 454  862.4071
 455  758.7817
 456  717.2921
 457  706.4373
 458  798.5712
 459  883.2371
 460  825.29
 461  816.1049
 462  874.773
 463  925.2367
 464  795.8256
 465  829.7164
 466  887.4412
 467  797.1667
 468  816.5059
 469  826.075
 470  832.0126
 471  843.8422
 472  844.8319
 473  788.721
 474  814.1434
 475  924.1431
 476  909.8924
 477  808.0245
 478  851.317
 479  763.7367
 480  602.9236
 481  674.196
 482  769.7748
 483  794.3713
 484  697.8448
 485  634.173
 486  792.473
 487  734.3129
 488  681.343
 489  639.297
 490  694.9011
 491  759.3959
 492  761.4056
 493  825.2877
 494  778.017
 495  733.3492
 496  811.9258
 497  833.597
 498  822.1007
 499  743.011
 500  688.7747
 501  760.2205
 502  779.2369
 503  754.8469
 504  735.8989
 505  802.9335
 506  769.9774
 507  840.6039
 508  885.8958
 509  1003.708
 510  1133.508
 511  1241.424
