# Input file       =  1183338248.11959_cleaned.dat
# Candidate        =  PSR_0332+5434
# Telescope        =  AR
# Epoch_topo       =  57940.044758328586
# Epoch_bary       =  N/A
# T_sample         =  0.002
# Data Folded      =  7340032
# Data Avg         =  0.107718575813383
# Data StdDev      =  4.17436690497748 
# Profile Bins     =  1024
# Profile Avg      =  772.132780071042 
# Profile StdDev   =  353.418774774682 
# Reduced chi-sqr  =  0.713
# Prob(Noise)      <  1   (~0.0 sigma)
# P_topo (ms)      =  714.485273777034  +/- 0.000118
# P'_topo (s/s)    =  -0                +/- 6.23e-11
# P''_topo (s/s^2) =  0                 +/- 2.75e-14
# P_bary (ms)      =  N/A
# P'_bary (s/s)    =  N/A
# P''_bary (s/s^2) =  N/A
# P_orb (s)        =  N/A
# asin(i)/c (s)    =  N/A
# eccentricity     =  N/A
# w (rad)          =  N/A
# T_peri           =  N/A
######################################################
   0  606.2305
   1  497.675
   2  615.0671
   3  635.1326
   4  742.6158
   5  665.2022
   6  735.3307
   7  679.8635
   8  691.4483
   9  665.8657
  10  825.2432
  11  1069.173
  12  1167.289
  13  1153.633
  14  923.9424
  15  802.6046
  16  686.4471
  17  702.847
  18  784.5743
  19  806.9168
  20  799.9813
  21  847.9868
  22  667.4662
  23  557.4619
  24  465.9658
  25  582.4583
  26  594.6235
  27  614.9727
  28  515.5415
  29  544.5466
  30  551.1801
  31  829.6865
  32  987.5301
  33  1024.51
  34  767.288
  35  623.8168
  36  629.094
  37  592.3853
  38  543.7844
  39  487.7404
  40  601.5721
  41  660.2532
  42  650.5373
  43  737.7939
  44  611.1315
  45  685.3519
  46  752.5767
  47  942.8703
  48  1084.258
  49  1012.753
  50  976.7661
  51  840.0419
  52  814.8032
  53  796.9617
  54  935.6605
  55  952.1876
  56  921.9113
  57  917.1605
  58  969.3959
  59  676.4716
  60  622.7007
  61  795.6736
  62  969.8353
  63  857.5283
  64  859.0605
  65  809.4314
  66  779.7252
  67  673.9787
  68  809.3718
  69  935.4462
  70  818.3246
  71  867.6624
  72  919.7124
  73  999.3494
  74  824.528
  75  777.3803
  76  793.1234
  77  803.9991
  78  640.2086
  79  702.2744
  80  714.8629
  81  798.4203
  82  858.2701
  83  950.4972
  84  853.8442
  85  747.6304
  86  713.9169
  87  735.162
  88  679.9657
  89  686.0054
  90  664.8775
  91  678.8667
  92  536.722
  93  469.6255
  94  466.9117
  95  481.4778
  96  546.6821
  97  600.0777
  98  677.1749
  99  658.9969
 100  579.7737
 101  624.2939
 102  563.1931
 103  378.5742
 104  428.692
 105  640.5339
 106  790.4488
 107  689.5916
 108  792.8997
 109  887.5373
 110  952.8221
 111  709.6984
 112  710.5314
 113  633.9627
 114  692.5532
 115  681.6841
 116  861.6646
 117  914.7675
 118  849.4922
 119  788.0269
 120  848.0374
 121  849.5246
 122  843.0087
 123  847.6788
 124  819.911
 125  658.5833
 126  673.1944
 127  724.1968
 128  710.905
 129  730.8875
 130  703.8063
 131  755.4173
 132  620.866
 133  530.6721
 134  482.0243
 135  555.2568
 136  575.8252
 137  718.2211
 138  773.5634
 139  1046.618
 140  908.1969
 141  966.107
 142  871.5706
 143  906.8018
 144  773.2978
 145  742.9443
 146  747.6161
 147  697.7988
 148  626.8506
 149  569.383
 150  597.4236
 151  706.6947
 152  746.9382
 153  657.1951
 154  735.043
 155  702.9705
 156  774.4666
 157  735.202
 158  896.6144
 159  885.3881
 160  880.1348
 161  740.2846
 162  834.9293
 163  806.4056
 164  873.421
 165  721.5253
 166  725.5641
 167  532.6979
 168  491.5993
 169  548.7391
 170  685.1462
 171  780.1899
 172  819.8782
 173  782.8655
 174  738.9886
 175  628.8482
 176  651.2171
 177  729.9967
 178  772.1552
 179  736.1267
 180  731.1152
 181  818.36
 182  794.4916
 183  753.7203
 184  665.004
 185  772.6938
 186  731.4327
 187  850.4789
 188  818.8141
 189  720.1002
 190  740.6079
 191  771.5224
 192  826.2267
 193  765.3632
 194  607.9814
 195  663.5475
 196  511.6848
 197  554.2422
 198  548.9825
 199  685.2817
 200  673.9786
 201  677.3368
 202  605.8782
 203  660.7126
 204  731.9555
 205  803.0023
 206  894.8095
 207  840.4932
 208  739.812
 209  760.8042
 210  896.8997
 211  888.2864
 212  790.2861
 213  709.1915
 214  758.5172
 215  706.4159
 216  762.895
 217  730.3238
 218  710.1598
 219  547.6655
 220  580.1285
 221  549.2167
 222  534.205
 223  494.6321
 224  677.811
 225  931.7705
 226  942.5773
 227  750.7916
 228  785.5486
 229  907.9733
 230  872.349
 231  825.2924
 232  860.5747
 233  884.4609
 234  745.1279
 235  650.756
 236  482.679
 237  352.1861
 238  341.812
 239  498.6927
 240  438.0908
 241  401.0713
 242  495.8334
 243  739.3046
 244  839.4751
 245  927.4822
 246  982.173
 247  938.286
 248  732.9086
 249  649.5811
 250  658.3245
 251  741.7582
 252  691.9743
 253  730.4981
 254  630.8162
 255  672.7561
 256  716.6992
 257  819.4077
 258  648.2009
 259  615.3042
 260  758.7401
 261  811.2186
 262  719.5376
 263  637.2402
 264  756.0771
 265  729.2776
 266  647.0587
 267  641.6454
 268  829.7366
 269  886.4689
 270  933.4731
 271  843.5972
 272  765.9169
 273  625.0025
 274  676.8036
 275  694.418
 276  786.0265
 277  681.6836
 278  604.7004
 279  598.3837
 280  629.1707
 281  653.6243
 282  573.6005
 283  612.3799
 284  783.2985
 285  855.0798
 286  795.071
 287  850.9047
 288  944.7856
 289  977.3359
 290  1001.954
 291  1119.009
 292  1049.346
 293  954.3685
 294  764.8977
 295  736.8733
 296  665.5876
 297  750.7269
 298  750.612
 299  695.3016
 300  620.581
 301  723.8611
 302  740.1058
 303  728.1877
 304  706.1312
 305  872.5587
 306  1017.525
 307  1062.41
 308  978.4113
 309  863.0211
 310  788.8448
 311  720.075
 312  773.561
 313  815.32
 314  841.3632
 315  761.4388
 316  797.1812
 317  608.4521
 318  555.565
 319  523.616
 320  652.251
 321  753.0659
 322  885.6056
 323  872.6412
 324  874.4606
 325  675.5165
 326  733.6644
 327  755.5329
 328  882.1987
 329  902.6039
 330  919.9856
 331  710.6301
 332  457.9346
 333  419.7078
 334  553.9488
 335  620.1676
 336  604.6986
 337  682.4184
 338  725.7775
 339  682.3986
 340  604.04
 341  578.4903
 342  687.5014
 343  868.7227
 344  980.9675
 345  907.3417
 346  695.8508
 347  547.8749
 348  416.1044
 349  442.5658
 350  655.1953
 351  811.6192
 352  848.1102
 353  786.2673
 354  724.7245
 355  743.1157
 356  688.4116
 357  748.0496
 358  754.1894
 359  801.4304
 360  664.4817
 361  673.0186
 362  746.1949
 363  732.2862
 364  761.4138
 365  586.5608
 366  561.8961
 367  480.5602
 368  637.1503
 369  649.0884
 370  803.6354
 371  873.1982
 372  986.03
 373  872.6186
 374  867.8516
 375  735.9824
 376  825.0889
 377  791.0479
 378  835.2076
 379  723.2783
 380  741.1914
 381  701.3235
 382  508.7395
 383  376.4717
 384  396.8255
 385  433.7162
 386  639.1946
 387  681.6254
 388  672.2687
 389  572.7869
 390  625.2632
 391  737.4032
 392  762.7557
 393  789.9808
 394  831.9117
 395  807.5194
 396  772.5829
 397  661.0973
 398  676.5438
 399  683.441
 400  537.0566
 401  510.9438
 402  330.7425
 403  475.5251
 404  526.3611
 405  668.9161
 406  674.6276
 407  709.4774
 408  686.3692
 409  828.9611
 410  896.3768
 411  1035.541
 412  975.8724
 413  987.0345
 414  1020.165
 415  1015.31
 416  882.6413
 417  830.0839
 418  830.7117
 419  791.0099
 420  799.8026
 421  785.5291
 422  777.2188
 423  752.1049
 424  942.5826
 425  898.3176
 426  911.4888
 427  754.6464
 428  798.9534
 429  697.7479
 430  584.1984
 431  611.7211
 432  740.7528
 433  843.6931
 434  872.8856
 435  820.2333
 436  839.7056
 437  788.5345
 438  895.8414
 439  874.8115
 440  1008.804
 441  819.0053
 442  867.464
 443  793.3396
 444  762.2959
 445  709.3671
 446  723.5942
 447  854.3363
 448  838.504
 449  876.8478
 450  850.4947
 451  915.024
 452  764.8126
 453  808.4888
 454  896.6437
 455  975.1883
 456  906.7112
 457  945.1565
 458  973.6278
 459  1006.414
 460  837.2249
 461  881.6801
 462  832.5959
 463  816.7053
 464  840.2637
 465  926.9366
 466  854.5356
 467  813.4678
 468  819.8377
 469  1012.607
 470  1029.095
 471  883.7825
 472  827.9047
 473  889.9583
 474  908.6572
 475  871.5044
 476  869.1487
 477  852.3827
 478  806.8586
 479  678.6295
 480  660.6037
 481  600.1798
 482  564.8535
 483  647.3702
 484  756.0816
 485  794.3374
 486  922.8531
 487  1004.729
 488  955.8647
 489  859.2891
 490  807.8582
 491  742.1782
 492  722.6066
 493  688.7703
 494  708.8615
 495  576.7349
 496  537.1536
 497  664.691
 498  818.0806
 499  881.7052
 500  919.7613
 501  884.0597
 502  947.518
 503  915.5774
 504  1006.522
 505  1014.866
 506  988.2438
 507  917.0407
 508  826.8662
 509  866.2082
 510  750.8997
 511  885.352
 512  827.9474
 513  791.317
 514  663.7294
 515  716.5927
 516  625.1188
 517  633.2399
 518  642.0849
 519  816.2405
 520  795.9635
 521  785.6379
 522  754.6497
 523  788.334
 524  803.5153
 525  810.2288
 526  803.5883
 527  760.1948
 528  727.8158
 529  795.0057
 530  709.2105
 531  675.0104
 532  597.1849
 533  640.5897
 534  488.4969
 535  468.2609
 536  587.5592
 537  650.1016
 538  630.1678
 539  610.6709
 540  758.221
 541  728.7234
 542  798.324
 543  691.1887
 544  846.3874
 545  826.443
 546  812.9211
 547  691.6429
 548  706.9783
 549  713.9658
 550  690.9451
 551  687.7484
 552  641.1631
 553  637.3661
 554  622.5435
 555  677.3325
 556  725.7566
 557  783.8578
 558  838.9197
 559  829.558
 560  880.6925
 561  959.15
 562  933.9375
 563  1031.582
 564  1029.638
 565  973.1743
 566  742.9268
 567  624.3143
 568  419.221
 569  523.1127
 570  653.2266
 571  779.4244
 572  756.3658
 573  822.4247
 574  1068.055
 575  1183.186
 576  1072.657
 577  1032.738
 578  1029.497
 579  1063.623
 580  939.985
 581  761.7495
 582  738.5363
 583  740.0958
 584  926.855
 585  1014.223
 586  1066.33
 587  909.6707
 588  1025.769
 589  995.4918
 590  981.258
 591  1008.354
 592  1220.7
 593  1124.623
 594  997.4368
 595  855.7264
 596  807.423
 597  692.4117
 598  693.96
 599  738.2347
 600  734.7891
 601  767.9612
 602  828.7323
 603  801.9471
 604  697.7584
 605  669.1625
 606  794.4158
 607  753.8066
 608  745.0612
 609  747.0496
 610  938.4282
 611  1010.539
 612  845.2777
 613  892.2044
 614  941.3586
 615  1105.863
 616  1011.799
 617  1052.536
 618  872.122
 619  807.1248
 620  694.6374
 621  723.326
 622  676.6583
 623  689.9065
 624  720.6733
 625  815.881
 626  693.8552
 627  596.0903
 628  592.9147
 629  726.5582
 630  820.5347
 631  907.9993
 632  858.922
 633  749.2772
 634  668.6835
 635  770.3192
 636  761.2137
 637  700.4742
 638  699.9246
 639  877.7513
 640  892.2291
 641  902.488
 642  967.2213
 643  1098.593
 644  1193.37
 645  1139.433
 646  1024.288
 647  1073.798
 648  1163.88
 649  1275.025
 650  1386.531
 651  1451.006
 652  1646.949
 653  1700.342
 654  1861.586
 655  1730.831
 656  1668.939
 657  1511.134
 658  1439.644
 659  1128.02
 660  884.9878
 661  694.9585
 662  564.4839
 663  473.1154
 664  384.0664
 665  560.2692
 666  563.6687
 667  562.9244
 668  411.3914
 669  513.0708
 670  512.2958
 671  619.3176
 672  706.1774
 673  804.4498
 674  805.9008
 675  851.1738
 676  875.7476
 677  770.7715
 678  682.012
 679  751.7656
 680  753.178
 681  901.9456
 682  959.3403
 683  885.873
 684  643.2099
 685  673.8854
 686  707.6665
 687  767.8033
 688  771.5605
 689  935.2471
 690  975.4118
 691  918.9738
 692  738.2133
 693  736.6229
 694  710.285
 695  603.2132
 696  632.481
 697  690.8359
 698  726.756
 699  708.5356
 700  708.6321
 701  612.863
 702  503.403
 703  589.6036
 704  744.055
 705  724.5068
 706  673.364
 707  681.0461
 708  811.8659
 709  820.054
 710  758.5261
 711  712.2816
 712  654.2976
 713  751.9807
 714  743.216
 715  822.3286
 716  728.153
 717  651.7546
 718  624.3508
 719  664.1089
 720  688.9404
 721  768.9521
 722  897.9853
 723  853.6099
 724  844.0811
 725  953.7081
 726  847.8292
 727  774.2965
 728  624.8445
 729  675.1594
 730  597.9043
 731  575.427
 732  554.2025
 733  703.7417
 734  700.7255
 735  768.2377
 736  704.4799
 737  780.246
 738  781.2795
 739  900.6252
 740  1058.303
 741  1121.018
 742  1096.775
 743  1010.347
 744  982.5387
 745  778.8954
 746  699.9967
 747  615.9552
 748  683.282
 749  673.876
 750  832.2251
 751  857.5767
 752  989.2914
 753  852.3897
 754  867.8247
 755  808.9147
 756  875.8621
 757  726.4688
 758  918.4191
 759  869.6658
 760  861.466
 761  658.6498
 762  708.0853
 763  735.7718
 764  750.0461
 765  744.5234
 766  791.8386
 767  739.4304
 768  705.3358
 769  748.2303
 770  782.3286
 771  708.9742
 772  730.7512
 773  798.4814
 774  733.9454
 775  646.8422
 776  627.0059
 777  894.3087
 778  880.8322
 779  775.5371
 780  702.1843
 781  785.0952
 782  715.2434
 783  698.7552
 784  680.4263
 785  704.4131
 786  708.3597
 787  810.9979
 788  730.6326
 789  597.9266
 790  551.0356
 791  816.3994
 792  828.9426
 793  787.0617
 794  600.5615
 795  687.6606
 796  685.6536
 797  643.5015
 798  596.5896
 799  623.1454
 800  689.0827
 801  730.0248
 802  907.172
 803  843.6478
 804  818.9093
 805  760.7556
 806  929.6596
 807  1036.453
 808  1071.08
 809  959.9368
 810  914.6713
 811  815.0754
 812  843.6106
 813  745.2428
 814  772.4651
 815  789.0955
 816  791.9684
 817  700.8362
 818  600.907
 819  654.2806
 820  723.6403
 821  861.3653
 822  929.6735
 823  983.5078
 824  1002.197
 825  856.4077
 826  734.9692
 827  662.1138
 828  675.9796
 829  665.8577
 830  573.6984
 831  473.0776
 832  490.477
 833  602.8007
 834  673.365
 835  756.3345
 836  760.7035
 837  914.7181
 838  833.501
 839  791.5025
 840  760.3638
 841  903.5928
 842  978.144
 843  947.6545
 844  857.9045
 845  765.6097
 846  855.2549
 847  902.6001
 848  904.0262
 849  890.0129
 850  893.8865
 851  837.4126
 852  806.8747
 853  768.8868
 854  863.8853
 855  974.5537
 856  1025.31
 857  1009.952
 858  764.9862
 859  594.2712
 860  522.8013
 861  650.4288
 862  650.1145
 863  647.1442
 864  733.351
 865  844.2047
 866  948.7123
 867  850.8788
 868  841.9705
 869  842.093
 870  942.079
 871  951.8265
 872  889.1106
 873  864.9041
 874  902.4056
 875  804.7452
 876  646.5917
 877  628.371
 878  750.1393
 879  886.6926
 880  830.7813
 881  830.6555
 882  900.7467
 883  833.7928
 884  818.4895
 885  808.1786
 886  893.5392
 887  888.4775
 888  891.0236
 889  1033.345
 890  1008.454
 891  1048.783
 892  1048.988
 893  1159.915
 894  948.1146
 895  754.2977
 896  602.2171
 897  689.6922
 898  666.0076
 899  716.9281
 900  719.0197
 901  653.5925
 902  564.2411
 903  619.2083
 904  846.9694
 905  922.5435
 906  955.7776
 907  1092.438
 908  1060.606
 909  1037.989
 910  868.0729
 911  856.5961
 912  748.9
 913  650.7762
 914  706.5948
 915  702.2875
 916  782.6426
 917  700.0693
 918  818.4277
 919  743.8368
 920  713.6824
 921  689.1129
 922  788.7878
 923  766.2159
 924  810.5948
 925  817.834
 926  942.379
 927  841.7634
 928  848.39
 929  972.7736
 930  912.0069
 931  799.5821
 932  630.1108
 933  772.7501
 934  732.1144
 935  795.6086
 936  778.4106
 937  921.5574
 938  900.1197
 939  896.5065
 940  976.2133
 941  907.44
 942  750.1243
 943  751.1008
 944  801.2249
 945  859.3893
 946  689.7879
 947  808.8633
 948  817.7735
 949  811.6545
 950  712.3927
 951  842.6244
 952  973.8612
 953  848.6042
 954  695.3434
 955  694.1509
 956  608.1133
 957  613.7518
 958  613.6929
 959  669.1357
 960  614.4647
 961  544.0497
 962  692.9008
 963  719.7493
 964  629.7365
 965  499.5139
 966  528.6736
 967  505.359
 968  470.3023
 969  466.9635
 970  606.2287
 971  632.3723
 972  800.2742
 973  740.1179
 974  791.4968
 975  701.8423
 976  773.1964
 977  725.2838
 978  608.2867
 979  652.5528
 980  728.3165
 981  648.1868
 982  620.1569
 983  583.2326
 984  657.3065
 985  571.3719
 986  457.2838
 987  499.0615
 988  493.6045
 989  583.6127
 990  688.1544
 991  768.776
 992  745.0014
 993  705.7918
 994  561.3998
 995  523.5583
 996  402.0181
 997  692.9808
 998  673.411
 999  802.5965
1000  738.2388
1001  832.7827
1002  804.4266
1003  781.5258
1004  841.9504
1005  777.9595
1006  772.9514
1007  824.2406
1008  901.8369
1009  843.4406
1010  713.8721
1011  706.0741
1012  751.4933
1013  934.8897
1014  856.6367
1015  818.5642
1016  771.7465
1017  879.2547
1018  834.6603
1019  757.8851
1020  864.4412
1021  821.4814
1022  841.5186
1023  639.0089
