# Input file       =  1183955774.111918_cleaned.dat
# Candidate        =  PSR_0332+5434
# Telescope        =  AR
# Epoch_topo       =  57947.192049906458
# Epoch_bary       =  N/A
# T_sample         =  0.002
# Data Folded      =  7340032
# Data Avg         =  0.0538552814559978
# Data StdDev      =  1.00009022614212 
# Profile Bins     =  512
# Profile Avg      =  771.787364028319 
# Profile StdDev   =  119.743839426722 
# Reduced chi-sqr  =  1.656
# Prob(Noise)      <  5.93e-19   (~8.8 sigma)
# P_topo (ms)      =  714.480140794341  +/- 0.000299
# P'_topo (s/s)    =  -0                +/- 1.58e-10
# P''_topo (s/s^2) =  0                 +/- 6.98e-14
# P_bary (ms)      =  N/A
# P'_bary (s/s)    =  N/A
# P''_bary (s/s^2) =  N/A
# P_orb (s)        =  N/A
# asin(i)/c (s)    =  N/A
# eccentricity     =  N/A
# w (rad)          =  N/A
# T_peri           =  N/A
######################################################
   0  1492.761
   1  1364.151
   2  1228.701
   3  1050.955
   4  920.5113
   5  782.516
   6  701.6566
   7  763.215
   8  738.2543
   9  762.9922
  10  817.2302
  11  931.6187
  12  892.123
  13  852.3159
  14  899.8939
  15  863.3597
  16  817.5533
  17  869.0234
  18  853.6966
  19  894.5759
  20  851.7538
  21  729.4928
  22  741.1039
  23  634.6968
  24  668.3478
  25  779.3573
  26  859.234
  27  745.6541
  28  714.5342
  29  857.5767
  30  820.3333
  31  817.8034
  32  827.5691
  33  829.4771
  34  743.8851
  35  649.2009
  36  689.1203
  37  653.2482
  38  713.6755
  39  732.0284
  40  766.1924
  41  671.0062
  42  623.3511
  43  754.0329
  44  744.1065
  45  706.5824
  46  783.7715
  47  705.577
  48  703.115
  49  838.8422
  50  798.2527
  51  688.5551
  52  692.1379
  53  687.3375
  54  621.3249
  55  729.9014
  56  679.5039
  57  745.2878
  58  825.9645
  59  860.2812
  60  761.275
  61  767.646
  62  744.749
  63  775.3361
  64  885.9382
  65  916.1856
  66  912.3112
  67  872.6811
  68  811.5981
  69  795.0388
  70  838.3668
  71  859.7372
  72  837.2159
  73  708.5786
  74  686.6412
  75  819.3682
  76  778.893
  77  804.0736
  78  776.4879
  79  786.2399
  80  799.2947
  81  798.8986
  82  846.4203
  83  772.3542
  84  776.9656
  85  851.5375
  86  848.6906
  87  663.6526
  88  643.6298
  89  744.0305
  90  792.147
  91  830.4022
  92  830.0066
  93  786.9542
  94  691.9076
  95  644.7474
  96  714.2385
  97  711.617
  98  699.0461
  99  693.6989
 100  664.2793
 101  714.1331
 102  697.6093
 103  668.7568
 104  636.2327
 105  662.8684
 106  679.4232
 107  682.043
 108  698.4536
 109  731.0742
 110  698.2296
 111  585.022
 112  735.6357
 113  783.1094
 114  736.1161
 115  731.3973
 116  802.714
 117  911.3114
 118  881.5992
 119  701.3677
 120  711.2315
 121  780.3343
 122  828.3711
 123  932.0895
 124  927.7569
 125  746.3575
 126  736.3804
 127  714.251
 128  738.2194
 129  687.8936
 130  715.4282
 131  743.6577
 132  763.2675
 133  753.8972
 134  774.0163
 135  711.1784
 136  651.1501
 137  722.3843
 138  733.0259
 139  699.5576
 140  700.7513
 141  718.4611
 142  705.739
 143  775.9026
 144  782.6441
 145  813.2194
 146  817.863
 147  752.2854
 148  749.3676
 149  835.9623
 150  835.6196
 151  811.1533
 152  786.6479
 153  806.2742
 154  786.3291
 155  866.6977
 156  845.7859
 157  709.236
 158  824.4716
 159  808.818
 160  744.3032
 161  713.29
 162  719.8237
 163  741.0364
 164  722.6215
 165  814.9677
 166  722.0665
 167  759.8721
 168  742.7791
 169  706.7809
 170  699.7157
 171  754.7108
 172  833.3452
 173  805.2233
 174  834.947
 175  871.563
 176  795.9511
 177  814.3016
 178  821.6865
 179  756.3197
 180  699.2213
 181  731.2072
 182  782.4391
 183  707.423
 184  699.5842
 185  654.8076
 186  700.5119
 187  838.2708
 188  716.0524
 189  708.8969
 190  871.2685
 191  902.4514
 192  763.4886
 193  600.1407
 194  566.3355
 195  654.9001
 196  771.8567
 197  736.6332
 198  699.1758
 199  713.8233
 200  766.3678
 201  773.9829
 202  922.3105
 203  969.5147
 204  847.6297
 205  784.9395
 206  812.7842
 207  810.2083
 208  961.7297
 209  828.0907
 210  808.4097
 211  777.7937
 212  769.0603
 213  746.8339
 214  677.0637
 215  732.5434
 216  785.0953
 217  774.3655
 218  792.9532
 219  796.0809
 220  714.7011
 221  769.6135
 222  841.1768
 223  873.2263
 224  832.7379
 225  734.8651
 226  776.6415
 227  772.4491
 228  835.1682
 229  825.5263
 230  768.1217
 231  807.4731
 232  883.6148
 233  858.3138
 234  731.5571
 235  814.608
 236  824.8948
 237  861.6705
 238  872.5358
 239  778.4469
 240  819.735
 241  898.1335
 242  905.4888
 243  875.332
 244  789.0712
 245  793.1877
 246  843.3148
 247  783.8
 248  885.3925
 249  852.1802
 250  813.1278
 251  782.9064
 252  835.9313
 253  729.5989
 254  702.9752
 255  745.1014
 256  778.4745
 257  800.1329
 258  703.6885
 259  783.8669
 260  763.1948
 261  784.8535
 262  874.9442
 263  829.9836
 264  878.7274
 265  884.9487
 266  976.342
 267  1035.605
 268  993.7587
 269  955.3163
 270  934.5181
 271  885.834
 272  929.915
 273  903.04
 274  857.015
 275  854.3351
 276  856.0649
 277  748.9845
 278  711.1887
 279  715.6452
 280  832.3558
 281  759.3474
 282  716.9012
 283  698.8074
 284  681.665
 285  578.3429
 286  476.2834
 287  612.3588
 288  668.1477
 289  689.2468
 290  722.4065
 291  700.4273
 292  653.6654
 293  628.5708
 294  745.3568
 295  759.6852
 296  688.5287
 297  641.3501
 298  739.6735
 299  854.1481
 300  869.8583
 301  712.4063
 302  603.5057
 303  681.1423
 304  682.3564
 305  649.6758
 306  716.613
 307  737.0351
 308  712.3552
 309  636.5963
 310  735.1943
 311  691.4209
 312  592.3198
 313  701.9229
 314  683.6445
 315  788.587
 316  702.0362
 317  667.0474
 318  629.7524
 319  687.4302
 320  668.7391
 321  657.2624
 322  695.5947
 323  698.3499
 324  711.4698
 325  751.4057
 326  681.3148
 327  585.9356
 328  623.8039
 329  830.0313
 330  853.3705
 331  682.4981
 332  624.9385
 333  650.8217
 334  624.8094
 335  713.4948
 336  734.5128
 337  672.7313
 338  646.3032
 339  647.6189
 340  691.3714
 341  724.4401
 342  671.7441
 343  677.0201
 344  572.2891
 345  549.196
 346  573.5924
 347  622.0525
 348  745.677
 349  720.8566
 350  657.0616
 351  776.8675
 352  824.7113
 353  710.2534
 354  806.6841
 355  781.6005
 356  745.291
 357  699.2795
 358  767.519
 359  645.816
 360  687.4213
 361  750.3247
 362  731.5784
 363  721.9373
 364  662.9374
 365  595.845
 366  774.5601
 367  708.2847
 368  701.6343
 369  706.5801
 370  761.39
 371  843.7501
 372  871.4685
 373  844.6705
 374  807.4063
 375  804.5018
 376  854.0133
 377  899.4368
 378  922.1576
 379  843.8151
 380  803.7852
 381  777.1489
 382  746.4578
 383  758.1622
 384  765.2523
 385  754.4218
 386  736.5338
 387  780.1893
 388  714.0958
 389  685.2388
 390  700.0395
 391  752.3497
 392  819.94
 393  814.7361
 394  785.7391
 395  751.0113
 396  700.8274
 397  733.9986
 398  725.2286
 399  781.8446
 400  689.115
 401  683.8137
 402  799.3135
 403  818.3519
 404  865.4726
 405  815.6028
 406  837.602
 407  851.0557
 408  885.7751
 409  813.5682
 410  874.2566
 411  866.7106
 412  794.4935
 413  817.012
 414  814.789
 415  865.823
 416  1009.291
 417  1040.886
 418  877.7188
 419  814.5958
 420  811.4473
 421  713.2491
 422  743.4681
 423  795.5856
 424  744.6471
 425  730.6184
 426  743.6529
 427  711.571
 428  657.2696
 429  684.0111
 430  707.262
 431  695.6445
 432  658.1329
 433  714.2628
 434  613.8383
 435  569.5424
 436  697.7164
 437  907.3869
 438  886.1509
 439  765.5209
 440  737.2657
 441  771.3522
 442  743.6238
 443  837.4371
 444  861.191
 445  791.1179
 446  829.3694
 447  788.0537
 448  760.4676
 449  766.5469
 450  740.4749
 451  747.6558
 452  585.0911
 453  665.7165
 454  721.0374
 455  663.5858
 456  624.7859
 457  763.8741
 458  709.3977
 459  619.709
 460  649.3584
 461  603.5306
 462  553.3701
 463  628.8444
 464  625.2193
 465  551.7573
 466  603.8748
 467  685.351
 468  734.3026
 469  667.4407
 470  733.625
 471  708.1699
 472  625.0316
 473  689.4825
 474  762.1722
 475  716.7669
 476  692.4175
 477  731.6622
 478  814.4062
 479  853.8763
 480  872.2963
 481  832.1144
 482  713.7294
 483  753.5181
 484  848.4926
 485  871.2227
 486  774.2167
 487  750.4454
 488  753.6569
 489  822.441
 490  912.8907
 491  849.1662
 492  765.1741
 493  849.0507
 494  981.3191
 495  919.288
 496  764.4669
 497  845.4666
 498  925.1544
 499  781.888
 500  773.7955
 501  786.8857
 502  844.8224
 503  910.9131
 504  923.3569
 505  919.3196
 506  972.3018
 507  1037.896
 508  1080.693
 509  1178.163
 510  1476.833
 511  1523.776
