# Input file       =  1183008434.122497_cleaned.dat
# Candidate        =  PSR_0332+5434
# Telescope        =  AR
# Epoch_topo       =  57936.227466695571
# Epoch_bary       =  N/A
# T_sample         =  0.002
# Data Folded      =  7340032
# Data Avg         =  0.0467422795596865
# Data StdDev      =  1.00011220749926 
# Profile Bins     =  512
# Profile Avg      =  669.90171171508  
# Profile StdDev   =  119.746471321357 
# Reduced chi-sqr  =  1.587
# Prob(Noise)      <  5.53e-16   (~8.0 sigma)
# P_topo (ms)      =  714.488257143029  +/- 0.000438
# P'_topo (s/s)    =  -0                +/- 2.31e-10
# P''_topo (s/s^2) =  0                 +/- 1.02e-13
# P_bary (ms)      =  N/A
# P'_bary (s/s)    =  N/A
# P''_bary (s/s^2) =  N/A
# P_orb (s)        =  N/A
# asin(i)/c (s)    =  N/A
# eccentricity     =  N/A
# w (rad)          =  N/A
# T_peri           =  N/A
######################################################
   0  592.6304
   1  627.6484
   2  512.4318
   3  515.614
   4  667.6878
   5  613.6705
   6  618.9512
   7  668.1658
   8  747.3278
   9  650.051
  10  552.1534
  11  545.005
  12  503.6848
  13  547.935
  14  442.0412
  15  436.9821
  16  563.8662
  17  541.2262
  18  501.4132
  19  541.3937
  20  611.9724
  21  599.6996
  22  540.5121
  23  572.6633
  24  526.6146
  25  496.5931
  26  560.1498
  27  582.4821
  28  623.2402
  29  634.8481
  30  673.752
  31  580.9765
  32  567.9088
  33  587.0754
  34  609.828
  35  644.8752
  36  744.8058
  37  706.6104
  38  688.4388
  39  613.3201
  40  611.0847
  41  771.3234
  42  840.2803
  43  961.8633
  44  951.0627
  45  1175.149
  46  1302.581
  47  1413.195
  48  1319.422
  49  1140.421
  50  1055.865
  51  862.9295
  52  802.4507
  53  755.9427
  54  741.8465
  55  626.587
  56  707.9705
  57  751.1609
  58  856.815
  59  819.3997
  60  849.8726
  61  843.6242
  62  815.3546
  63  758.5715
  64  807.3041
  65  812.5826
  66  764.662
  67  711.1527
  68  681.9977
  69  673.6791
  70  676.9154
  71  690.9065
  72  732.1372
  73  652.4958
  74  695.1942
  75  670.2771
  76  674.7957
  77  727.7784
  78  754.3882
  79  673.8819
  80  677.8787
  81  748.4218
  82  705.1826
  83  787.3477
  84  808.3126
  85  637.5208
  86  661.7484
  87  739.2292
  88  801.5441
  89  787.8978
  90  801.6516
  91  832.9628
  92  787.9033
  93  731.1788
  94  781.3476
  95  894.9323
  96  920.7281
  97  759.8301
  98  722.6926
  99  715.0507
 100  705.0256
 101  743.9104
 102  748.7515
 103  806.4631
 104  774.7314
 105  759.6915
 106  769.7241
 107  771.9733
 108  738.9882
 109  747.3776
 110  849.6678
 111  852.2377
 112  822.6889
 113  817.7485
 114  679.2088
 115  813.3939
 116  874.2813
 117  720.0284
 118  692.7026
 119  742.7744
 120  780.9593
 121  798.1625
 122  667.1671
 123  699.4008
 124  737.797
 125  647.5178
 126  716.8801
 127  811.5423
 128  770.0778
 129  667.4099
 130  672.8074
 131  818.7366
 132  773.1402
 133  628.8325
 134  645.8776
 135  742.7019
 136  600.8599
 137  633.9033
 138  678.3914
 139  632.489
 140  629.4197
 141  582.0887
 142  634.7696
 143  633.9863
 144  601.9472
 145  594.0782
 146  700.7317
 147  742.4291
 148  784.6577
 149  781.5515
 150  682.0659
 151  652.0325
 152  730.9296
 153  753.1831
 154  685.5798
 155  637.5056
 156  692.4985
 157  633.397
 158  635.0092
 159  677.1686
 160  673.3342
 161  660.9423
 162  586.0764
 163  644.1328
 164  671.173
 165  636.124
 166  613.1199
 167  621.7261
 168  712.3571
 169  680.184
 170  679.3461
 171  672.1521
 172  621.8904
 173  611.3204
 174  573.2083
 175  483.1157
 176  524.2321
 177  655.6515
 178  675.969
 179  634.0836
 180  552.175
 181  576.6003
 182  495.7624
 183  530.2475
 184  648.326
 185  621.668
 186  595.0793
 187  603.6969
 188  645.9117
 189  511.173
 190  487.1084
 191  435.6642
 192  574.1345
 193  710.7079
 194  685.0486
 195  661.397
 196  656.0014
 197  682.8336
 198  727.2393
 199  675.6552
 200  676.2485
 201  572.4713
 202  619.1797
 203  679.7639
 204  695.4282
 205  661.6722
 206  645.3917
 207  628.86
 208  606.9956
 209  598.2062
 210  590.8309
 211  630.468
 212  565.6747
 213  582.0621
 214  714.0005
 215  750.515
 216  757.362
 217  720.5621
 218  663.0406
 219  700.9622
 220  647.6144
 221  595.3293
 222  614.5698
 223  631.2964
 224  614.1837
 225  688.1469
 226  726.7123
 227  686.433
 228  795.6382
 229  798.1502
 230  677.8971
 231  677.884
 232  687.3798
 233  724.1915
 234  691.0186
 235  782.9584
 236  794.7395
 237  634.5737
 238  566.4448
 239  533.1422
 240  649.759
 241  729.8702
 242  709.1425
 243  635.0073
 244  665.7741
 245  726.4662
 246  716.1123
 247  660.6186
 248  612.8297
 249  675.9852
 250  688.4001
 251  626.5895
 252  802.9242
 253  742.7065
 254  635.0358
 255  675.6889
 256  596.9534
 257  554.1567
 258  606.9839
 259  772.8328
 260  757.8795
 261  645.8076
 262  636.9291
 263  607.3814
 264  596.8645
 265  663.7332
 266  645.1552
 267  548.955
 268  597.5516
 269  648.0141
 270  757.5787
 271  685.7614
 272  622.396
 273  668.7938
 274  760.2136
 275  678.057
 276  670.0275
 277  762.8146
 278  760.9355
 279  712.9918
 280  693.342
 281  758.5706
 282  778.8356
 283  665.4479
 284  704.3015
 285  723.0057
 286  654.6618
 287  618.3735
 288  565.8635
 289  638.6796
 290  644.4269
 291  667.8119
 292  725.592
 293  627.7561
 294  658.1584
 295  689.3383
 296  692.466
 297  650.4072
 298  481.6949
 299  459.8453
 300  556.0007
 301  508.2102
 302  552.3057
 303  599.7886
 304  599.499
 305  476.4727
 306  453.2175
 307  422.3146
 308  511.2922
 309  570.0624
 310  530.153
 311  509.4348
 312  565.0583
 313  573.2559
 314  591.4786
 315  592.9688
 316  612.5203
 317  643.8428
 318  657.7875
 319  723.3798
 320  672.5565
 321  605.715
 322  553.2849
 323  553.9311
 324  671.4269
 325  683.9902
 326  674.1906
 327  682.3156
 328  743.6937
 329  790.3418
 330  755.4053
 331  761.8104
 332  710.2783
 333  629.3257
 334  676.3118
 335  734.1146
 336  746.1998
 337  576.9329
 338  602.661
 339  633.5414
 340  675.848
 341  615.2501
 342  581.4935
 343  599.713
 344  671.0607
 345  695.394
 346  668.9736
 347  621.2694
 348  627.5892
 349  620.4883
 350  696.1528
 351  670.8333
 352  586.7032
 353  653.6146
 354  673.3277
 355  624.2224
 356  630.1694
 357  590.8449
 358  759.9583
 359  722.9338
 360  599.012
 361  653.422
 362  665.1194
 363  577.637
 364  570.3481
 365  666.1044
 366  726.6403
 367  712.5999
 368  694.7237
 369  668.9655
 370  688.971
 371  778.351
 372  716.6154
 373  651.4174
 374  629.7652
 375  602.3298
 376  557.9149
 377  619.0382
 378  560.1484
 379  437.2593
 380  544.4018
 381  469.4313
 382  442.1317
 383  544.5467
 384  524.1924
 385  652.9429
 386  535.7285
 387  617.446
 388  568.0228
 389  419.6488
 390  421.0357
 391  581.119
 392  562.777
 393  618.1496
 394  587.5105
 395  517.0564
 396  643.9635
 397  570.9987
 398  531.3977
 399  592.7563
 400  700.0602
 401  645.3061
 402  632.7262
 403  648.0061
 404  667.3229
 405  697.9807
 406  664.0552
 407  713.4277
 408  562.2453
 409  698.2241
 410  808.4598
 411  870.2552
 412  847.6151
 413  748.9948
 414  846.5247
 415  856.4218
 416  757.6155
 417  694.0011
 418  726.754
 419  710.05
 420  774.7537
 421  843.8976
 422  761.4631
 423  686.6484
 424  714.183
 425  720.3969
 426  698.0431
 427  658.9625
 428  765.4034
 429  768.9266
 430  694.0704
 431  724.6915
 432  687.838
 433  627.0599
 434  633.0796
 435  684.9931
 436  657.1631
 437  718.7814
 438  745.0775
 439  790.8948
 440  651.7883
 441  652.5432
 442  692.2701
 443  658.6197
 444  619.9517
 445  654.6306
 446  632.9938
 447  665.925
 448  604.4067
 449  718.7349
 450  806.0363
 451  660.1912
 452  642.2957
 453  670.1827
 454  729.5383
 455  766.6182
 456  789.0239
 457  742.4319
 458  567.475
 459  640.1066
 460  685.7571
 461  702.3046
 462  693.5753
 463  745.7578
 464  700.7523
 465  707.6648
 466  730.743
 467  645.5845
 468  633.0258
 469  578.0158
 470  568.0229
 471  526.7786
 472  545.9064
 473  586.2356
 474  624.2732
 475  646.4471
 476  609.8522
 477  584.2125
 478  604.0837
 479  607.7158
 480  603.5234
 481  514.6407
 482  523.134
 483  608.8256
 484  600.6439
 485  654.9995
 486  721.3666
 487  673.5829
 488  668.2437
 489  651.2714
 490  609.5394
 491  638.1595
 492  594.9374
 493  501.8978
 494  522.0677
 495  730.0174
 496  714.4588
 497  592.4639
 498  722.4249
 499  847.5695
 500  697.4306
 501  600.1962
 502  631.6087
 503  661.7972
 504  684.3862
 505  602.8963
 506  645.0945
 507  628.0248
 508  518.124
 509  487.7038
 510  590.7919
 511  628.0507
