# Input file       =  1183510533.099951_cleaned.dat
# Candidate        =  PSR_0332+5434
# Telescope        =  AR
# Epoch_topo       =  57942.038797453140
# Epoch_bary       =  N/A
# T_sample         =  0.002
# Data Folded      =  7405568
# Data Avg         =  0.153003071393587
# Data StdDev      =  5.40523543277029 
# Profile Bins     =  1024
# Profile Avg      =  1106.52065171249 
# Profile StdDev   =  459.667526420064 
# Reduced chi-sqr  =  0.551
# Prob(Noise)      <  1   (~0.0 sigma)
# P_topo (ms)      =  714.483785831664  +/- 8.76e-05
# P'_topo (s/s)    =  -0                +/- 4.58e-11
# P''_topo (s/s^2) =  0                 +/- 2e-14
# P_bary (ms)      =  N/A
# P'_bary (s/s)    =  N/A
# P''_bary (s/s^2) =  N/A
# P_orb (s)        =  N/A
# asin(i)/c (s)    =  N/A
# eccentricity     =  N/A
# w (rad)          =  N/A
# T_peri           =  N/A
######################################################
   0  1395.904
   1  1259.981
   2  1195.007
   3  1190.177
   4  1064.693
   5  1075.746
   6  1064.778
   7  1089.128
   8  1061.799
   9  1113.599
  10  979.2974
  11  891.7681
  12  842.6347
  13  1001.754
  14  1005.117
  15  1142.568
  16  1034.979
  17  1039.318
  18  1080.747
  19  1224.557
  20  1137.117
  21  1110.753
  22  1215.96
  23  1300.845
  24  1135.765
  25  1041.349
  26  954.4145
  27  957.0232
  28  991.2772
  29  1049.059
  30  1045.803
  31  863.8525
  32  857.3176
  33  955.5721
  34  1209.824
  35  1282.066
  36  1211.167
  37  1263.007
  38  1158.743
  39  1081.586
  40  1145.509
  41  1178.37
  42  1207.696
  43  1048.807
  44  1053.056
  45  958.6663
  46  1084.56
  47  1083.001
  48  1202.79
  49  1069.466
  50  1116.414
  51  1041.95
  52  1213.068
  53  1282.585
  54  1256.45
  55  1149.981
  56  1074.385
  57  1004.948
  58  887.1891
  59  817.7762
  60  853.8124
  61  903.3218
  62  944.9457
  63  1071.692
  64  1166.234
  65  1259.919
  66  1165.625
  67  1322.112
  68  1332.44
  69  1414.791
  70  1260.479
  71  1432.092
  72  1293.566
  73  1158.223
  74  946.056
  75  796.3791
  76  659.4379
  77  733.17
  78  879.292
  79  978.2546
  80  1021.727
  81  1093.23
  82  1046.732
  83  1080.812
  84  1030.593
  85  1119.443
  86  1193.337
  87  1289.51
  88  1294.151
  89  1267.689
  90  1195.004
  91  956.3789
  92  866.7136
  93  875.3137
  94  742.5583
  95  733.476
  96  876.1598
  97  1130.491
  98  1177.316
  99  1071.1
 100  1125.952
 101  1103.863
 102  1212.745
 103  1125.538
 104  1206.943
 105  1115.173
 106  1128.665
 107  1237.222
 108  1131.873
 109  919.2411
 110  849.3131
 111  1011.2
 112  1151.585
 113  989.5284
 114  905.1299
 115  969.3752
 116  1061.384
 117  1119.023
 118  1003.736
 119  964.09
 120  855.9589
 121  1022.855
 122  1162.636
 123  1346.974
 124  1241.471
 125  1265.052
 126  1222.502
 127  1227.305
 128  998.9668
 129  1013.96
 130  1116.403
 131  1295.107
 132  1385.053
 133  1346.368
 134  1226.613
 135  1014.766
 136  1005.893
 137  1060.079
 138  1184.173
 139  1226.216
 140  1145.763
 141  1057.047
 142  967.0829
 143  1038.676
 144  997.4937
 145  1096.01
 146  1319.737
 147  1373.009
 148  1466.929
 149  1347.006
 150  1310.031
 151  1185.72
 152  1117.408
 153  1071.196
 154  1230.077
 155  1308.218
 156  1354.528
 157  1180.603
 158  1088.399
 159  1081.802
 160  891.441
 161  898.7722
 162  1019.811
 163  1147.945
 164  1068.71
 165  846.2692
 166  836.9649
 167  966.5024
 168  947.247
 169  1018.943
 170  1157.272
 171  1280.156
 172  1083.263
 173  940.6414
 174  851.1094
 175  953.4302
 176  920.2028
 177  1014.954
 178  846.5663
 179  890.3246
 180  980.3301
 181  1096.916
 182  1034.183
 183  1103.107
 184  1139.789
 185  1266.056
 186  1204.143
 187  1135.699
 188  1060.613
 189  1071.981
 190  1071.915
 191  959.4906
 192  873.6794
 193  818.4271
 194  864.1962
 195  911.2471
 196  988.0193
 197  1063.42
 198  1116.502
 199  974.0953
 200  873.8945
 201  915.005
 202  960.3739
 203  851.9467
 204  911.3758
 205  1069.007
 206  1228.448
 207  1068.829
 208  1018.643
 209  882.0239
 210  932.9496
 211  993.1087
 212  1099.043
 213  1131.413
 214  1212.913
 215  1215.971
 216  1209.718
 217  1090.681
 218  1065.811
 219  1218.201
 220  1406.593
 221  1266.815
 222  1013.008
 223  1016.503
 224  942.3235
 225  918.5476
 226  843.9769
 227  1029.472
 228  1154.439
 229  1263.577
 230  1382.944
 231  1318.539
 232  1128.025
 233  1157.35
 234  1265.617
 235  1406.3
 236  1232.203
 237  1132.123
 238  1176.982
 239  1183.609
 240  1090.768
 241  972.3551
 242  863.1305
 243  829.2016
 244  930.9639
 245  1192.512
 246  1107.14
 247  1049.24
 248  1107.815
 249  1302.551
 250  1183.349
 251  1155.699
 252  1156.966
 253  1255.296
 254  1351.104
 255  1529.74
 256  1523.728
 257  1287.813
 258  1024.453
 259  1082.889
 260  1154.968
 261  1109.017
 262  1032.872
 263  1120.234
 264  1316.914
 265  1229.384
 266  1141.627
 267  1058.887
 268  920.9116
 269  1013.292
 270  1140.839
 271  1304.043
 272  1162.01
 273  1084.732
 274  936.6795
 275  1035.473
 276  1056.601
 277  1189.569
 278  1264.038
 279  1326.424
 280  1144.559
 281  1041.615
 282  1096.917
 283  1141.765
 284  1127.173
 285  1189.004
 286  1191.586
 287  1248.063
 288  1350.702
 289  1415.694
 290  1222.659
 291  981.0756
 292  997.3234
 293  1136.664
 294  1149.631
 295  1124.788
 296  1063.043
 297  1080.772
 298  1041.107
 299  1141.079
 300  1175.923
 301  1192.425
 302  1091.645
 303  1046.863
 304  1130.357
 305  1029.246
 306  1187.385
 307  1105.619
 308  1107.862
 309  994.0212
 310  1040.717
 311  1032.456
 312  970.0008
 313  916.3041
 314  1015.594
 315  1038.258
 316  1038.183
 317  978.4377
 318  1052.137
 319  1168.35
 320  1279.764
 321  1228.06
 322  1255.163
 323  1172.695
 324  1107.581
 325  1133.224
 326  1085.06
 327  897.7245
 328  758.8039
 329  855.6447
 330  1039.76
 331  1046.79
 332  1079.078
 333  967.0953
 334  857.241
 335  865.6379
 336  1021.065
 337  1254.441
 338  1218.911
 339  1215.869
 340  1139.052
 341  1111.447
 342  1018.3
 343  978.6047
 344  1086.959
 345  1075.335
 346  1096.803
 347  1176.181
 348  998.1693
 349  830.0676
 350  818.2039
 351  1051.009
 352  1144.281
 353  1170.112
 354  1094.536
 355  1078.448
 356  1087.268
 357  1165.113
 358  1033.635
 359  944.6484
 360  956.3787
 361  1061.554
 362  1114.467
 363  970.0197
 364  1005.547
 365  976.3439
 366  1098.508
 367  962.8895
 368  1179.633
 369  1292.002
 370  1130.192
 371  939.1075
 372  959.9855
 373  1118.669
 374  1122.626
 375  1106.539
 376  1056.058
 377  946.0137
 378  1092.455
 379  1185.023
 380  1151.99
 381  1005.3
 382  1141.82
 383  1260.299
 384  1246.034
 385  1085.332
 386  975.19
 387  921.1458
 388  1007.684
 389  1090.177
 390  1151.572
 391  1046.601
 392  920.873
 393  998.7913
 394  1047.968
 395  1106.895
 396  1075.642
 397  1179.974
 398  1114.608
 399  1008.958
 400  1060.068
 401  1188.718
 402  1294.794
 403  1302.966
 404  1265.101
 405  1354.853
 406  1305.992
 407  1154.821
 408  1036.576
 409  1087.794
 410  1153.245
 411  1158.7
 412  1280.486
 413  1344.128
 414  1177.553
 415  1148.217
 416  1140.105
 417  1246.861
 418  1344.952
 419  1424.805
 420  1428.513
 421  1272.809
 422  1156.433
 423  891.8478
 424  764.2064
 425  867.719
 426  1118.5
 427  1351.813
 428  1272.033
 429  1222.755
 430  1203.622
 431  1394.313
 432  1265.595
 433  1219.113
 434  1243.009
 435  1283.012
 436  1167.497
 437  1075.194
 438  1089.202
 439  948.6847
 440  744.1548
 441  707.2566
 442  781.1216
 443  967.2355
 444  985.2626
 445  1146.768
 446  1152.958
 447  1203.477
 448  1220.467
 449  1356.605
 450  1316.132
 451  1274.139
 452  1213.432
 453  1434.604
 454  1363.291
 455  1286.343
 456  1257.137
 457  1277.589
 458  1096.874
 459  931.1154
 460  1005.374
 461  1094.458
 462  1062.567
 463  1155.21
 464  1162.394
 465  1130.681
 466  997.6658
 467  1029.517
 468  1092.939
 469  1001.074
 470  1129.15
 471  1131.056
 472  1110.598
 473  1054.943
 474  1189.211
 475  1241.211
 476  1206.518
 477  1036.043
 478  1102.498
 479  1035.46
 480  1037.904
 481  1027.76
 482  1130.246
 483  1267.674
 484  1309.118
 485  1346.705
 486  1240.001
 487  1248.569
 488  1211.464
 489  1148.583
 490  1188.606
 491  1190.195
 492  1314.78
 493  1289.261
 494  1303.815
 495  1158.358
 496  1115.526
 497  1196.464
 498  1166.37
 499  1226.445
 500  1107.642
 501  1203.082
 502  996.2446
 503  1044.903
 504  803.5428
 505  774.1235
 506  669.7556
 507  912.5858
 508  1029.207
 509  1092.017
 510  844.3382
 511  953.9572
 512  1132.416
 513  1217.007
 514  1070.579
 515  886.16
 516  942.601
 517  1051.658
 518  1239.326
 519  1210.967
 520  1125.713
 521  1014.381
 522  979.5735
 523  774.3765
 524  768.4397
 525  781.0325
 526  879.7412
 527  972.6095
 528  1111.25
 529  1227.797
 530  1210.902
 531  1118.455
 532  1036.473
 533  974.3496
 534  1047.628
 535  1140.446
 536  1200.397
 537  983.4264
 538  921.9514
 539  823.8616
 540  957.1879
 541  907.002
 542  969.1607
 543  1033.202
 544  1158.72
 545  1232.093
 546  1339.284
 547  1171.713
 548  1125.76
 549  1081.563
 550  1001.794
 551  903.7289
 552  973.6917
 553  1042.994
 554  994.3267
 555  995.479
 556  1055.808
 557  1029.206
 558  995.83
 559  1062.523
 560  1098.047
 561  1008.502
 562  985.4179
 563  861.6597
 564  965.5912
 565  973.3702
 566  964.0488
 567  871.2265
 568  1008.994
 569  1016.36
 570  1008.136
 571  907.6997
 572  933.8689
 573  900.2266
 574  952.8121
 575  931.5406
 576  965.5945
 577  1120.123
 578  1100.023
 579  946.0953
 580  808.7482
 581  822.4311
 582  1013.107
 583  1261.847
 584  1394.384
 585  1278.483
 586  1284.072
 587  1180.559
 588  1078.079
 589  869.0833
 590  787.8176
 591  814.4997
 592  827.6503
 593  762.8582
 594  930.436
 595  952.7808
 596  1066.695
 597  1013.001
 598  1212.135
 599  1415.999
 600  1445.849
 601  1458.948
 602  1219.387
 603  1068.021
 604  987.2574
 605  865.5099
 606  748.9389
 607  637.1423
 608  749.0445
 609  897.773
 610  879.6954
 611  955.5353
 612  1056.18
 613  1131.714
 614  1253.562
 615  1301.591
 616  1384.097
 617  1287.292
 618  1282.905
 619  1245.554
 620  1248.049
 621  1112.513
 622  986.6098
 623  972.7964
 624  1079.556
 625  1167.587
 626  1103.516
 627  1034.096
 628  959.8246
 629  886.9819
 630  969.3235
 631  1021.83
 632  1202.667
 633  1264.533
 634  1243.372
 635  1163.675
 636  1145.141
 637  1257.326
 638  1410.218
 639  1322.696
 640  1372.945
 641  1376.856
 642  1605.601
 643  1429.005
 644  1253.948
 645  1184.443
 646  1371.225
 647  1557.716
 648  1762.132
 649  1924.156
 650  1977.979
 651  2078.196
 652  2266.102
 653  2284.752
 654  2136.49
 655  1971.905
 656  1991.836
 657  1958.98
 658  1687.63
 659  1439.216
 660  1304.379
 661  1181.23
 662  1112.957
 663  1275.503
 664  1441.129
 665  1413.411
 666  1301.434
 667  1317.857
 668  1216.863
 669  1170.712
 670  1043.223
 671  945.3994
 672  663.3797
 673  607.0713
 674  600.7674
 675  773.826
 676  826.1185
 677  944.7216
 678  994.1611
 679  1102.209
 680  1011.397
 681  1014.923
 682  1108.945
 683  1267.706
 684  1305.219
 685  1426.831
 686  1267.674
 687  982.0119
 688  792.1668
 689  833.7825
 690  949.9897
 691  925.5211
 692  984.1092
 693  985.2101
 694  936.789
 695  831.5723
 696  878.5865
 697  885.0789
 698  1070.027
 699  1086.338
 700  1224.036
 701  1054.983
 702  888.2853
 703  839.4951
 704  847.7789
 705  856.1323
 706  889.0211
 707  1242.055
 708  1183.057
 709  1021.907
 710  889.8658
 711  960.0994
 712  973.6758
 713  837.6552
 714  887.1238
 715  809.7094
 716  822.9229
 717  966.6126
 718  961.9337
 719  905.215
 720  963.0511
 721  1057.783
 722  980.723
 723  765.7509
 724  748.7505
 725  894.7865
 726  1003.353
 727  1174.423
 728  1221.904
 729  1161.002
 730  1049.971
 731  1059.649
 732  1243.942
 733  1222.067
 734  1177.842
 735  1065.87
 736  972.4776
 737  808.5828
 738  795.0502
 739  825.3083
 740  877.0198
 741  906.546
 742  1091.486
 743  1223.72
 744  1253.264
 745  1049.591
 746  1006.64
 747  1029.187
 748  1242.095
 749  1387.851
 750  1509.268
 751  1461.003
 752  1259.747
 753  1211.4
 754  1131.898
 755  953.719
 756  823.6681
 757  881.1098
 758  951.7922
 759  928.2073
 760  893.8187
 761  1102.945
 762  1028.706
 763  1063.954
 764  1092.358
 765  1351.479
 766  1330.785
 767  1286.719
 768  1132.485
 769  1046.521
 770  889.8046
 771  859.7319
 772  964.5637
 773  987.895
 774  978.5446
 775  1100.074
 776  1243.51
 777  1182.992
 778  936.6485
 779  1097.99
 780  1101.445
 781  1159.16
 782  1114.928
 783  1095.027
 784  1013.2
 785  970.356
 786  1074.474
 787  1168.645
 788  1117.866
 789  1183.584
 790  1306.405
 791  1359.039
 792  1335.529
 793  1228.309
 794  1236.012
 795  1068.433
 796  974.317
 797  947.4626
 798  1037.117
 799  1008.718
 800  1066.124
 801  1197.807
 802  1229.992
 803  1079.927
 804  1119.142
 805  1056.288
 806  1152.4
 807  1236.406
 808  1337.213
 809  1236.795
 810  1051.145
 811  941.4465
 812  1114.106
 813  1197.693
 814  1233.489
 815  1315.54
 816  1351.807
 817  1429.195
 818  1279.277
 819  1378.385
 820  1233.998
 821  1131.495
 822  1164.425
 823  1330.448
 824  1287.454
 825  1196.957
 826  1297.682
 827  1414.282
 828  1347.018
 829  1184.492
 830  1169.595
 831  1394.321
 832  1460.222
 833  1585.393
 834  1565.327
 835  1482.04
 836  1166.756
 837  1123.259
 838  1182.762
 839  1208.025
 840  1164.735
 841  1264.504
 842  1428.149
 843  1405.897
 844  1477.322
 845  1447.474
 846  1382.749
 847  1301.686
 848  1237.828
 849  1233.364
 850  1184.97
 851  1112.402
 852  1138.987
 853  1108.691
 854  1094.4
 855  1103.224
 856  1198.45
 857  1357.654
 858  1247.956
 859  1152.203
 860  1024.616
 861  1036.916
 862  1031.733
 863  904.6354
 864  765.1406
 865  829.592
 866  882.0615
 867  910.1806
 868  836.8455
 869  951.2106
 870  1011.332
 871  996.409
 872  1034.851
 873  1079.238
 874  1101.07
 875  1038.863
 876  1030.977
 877  1140.822
 878  1086.694
 879  1039.463
 880  969.5411
 881  994.1088
 882  1114.364
 883  1171.26
 884  1285.642
 885  1161.678
 886  1045.178
 887  1086.823
 888  964.0281
 889  942.9368
 890  997.3131
 891  1233.517
 892  1314.61
 893  1093.363
 894  1008.134
 895  978.1297
 896  1057.793
 897  1067.578
 898  1300.048
 899  1386.966
 900  1238.07
 901  831.4993
 902  830.8309
 903  895.1156
 904  787.9866
 905  724.5786
 906  843.943
 907  840.7461
 908  848.0998
 909  885.416
 910  957.3863
 911  840.1653
 912  990.7045
 913  1102.249
 914  1147.826
 915  984.4185
 916  1079.846
 917  995.922
 918  973.8967
 919  901.2861
 920  984.9455
 921  911.0028
 922  824.7982
 923  867.957
 924  1068.164
 925  1244.746
 926  1231.147
 927  1213.206
 928  1126.699
 929  1049.097
 930  980.1623
 931  1161.953
 932  1054.82
 933  974.3895
 934  789.8914
 935  853.3161
 936  800.0287
 937  954.5003
 938  1090.28
 939  1239.635
 940  1152.286
 941  1073.704
 942  1029.258
 943  1006.11
 944  1044.607
 945  1147.109
 946  1312.294
 947  1178.642
 948  1070.74
 949  1033.766
 950  1055.152
 951  977.3748
 952  962.0358
 953  1123.678
 954  1172.624
 955  1207.954
 956  1309.391
 957  1252.834
 958  1070.235
 959  868.0065
 960  969.0673
 961  1045.313
 962  1032.397
 963  913.0636
 964  1096.1
 965  1293.479
 966  1327.61
 967  1208.618
 968  1209.918
 969  1123.585
 970  1122.596
 971  1091.172
 972  1016.318
 973  863.8517
 974  897.6017
 975  1043.117
 976  999.4158
 977  939.2737
 978  1035.006
 979  1287.707
 980  1347.884
 981  1321.076
 982  1221.586
 983  1245.593
 984  1104.122
 985  1165.336
 986  1278.371
 987  1524.829
 988  1424.178
 989  1340.538
 990  1225.605
 991  1368.281
 992  1301.628
 993  1344.352
 994  1138.506
 995  1074.507
 996  1075.998
 997  1097.539
 998  1004.394
 999  884.9247
1000  1099.384
1001  1191.696
1002  1158.017
1003  1056.818
1004  1211.514
1005  1449.924
1006  1383.778
1007  1332.798
1008  1224.171
1009  1233.951
1010  1160.799
1011  1113.794
1012  1098.241
1013  927.6102
1014  1042.45
1015  1123.748
1016  1135.606
1017  1092.127
1018  1101.484
1019  1165.753
1020  1219.736
1021  1290.401
1022  1427.936
1023  1434.269
