# Input file       =  1183453964.104919_cleaned.dat
# Candidate        =  PSR_0332+5434
# Telescope        =  AR
# Epoch_topo       =  57941.384063714337
# Epoch_bary       =  N/A
# T_sample         =  0.002
# Data Folded      =  7340032
# Data Avg         =  0.0507137270093815
# Data StdDev      =  1.00010342482206 
# Profile Bins     =  512
# Profile Avg      =  727.162028681067 
# Profile StdDev   =  119.745419744748 
# Reduced chi-sqr  =  1.070
# Prob(Noise)      <  0.133   (~1.1 sigma)
# P_topo (ms)      =  714.484626326975  +/- 5.25e-05
# P'_topo (s/s)    =  -0                +/- 2.77e-11
# P''_topo (s/s^2) =  0                 +/- 1.22e-14
# P_bary (ms)      =  N/A
# P'_bary (s/s)    =  N/A
# P''_bary (s/s^2) =  N/A
# P_orb (s)        =  N/A
# asin(i)/c (s)    =  N/A
# eccentricity     =  N/A
# w (rad)          =  N/A
# T_peri           =  N/A
######################################################
   0  697.2109
   1  635.7746
   2  653.4642
   3  694.314
   4  829.3478
   5  886.1879
   6  832.7162
   7  727.037
   8  704.1343
   9  776.3087
  10  764.6599
  11  700.7585
  12  713.3382
  13  775.8422
  14  829.7037
  15  826.5628
  16  856.3168
  17  728.3955
  18  682.5858
  19  705.1066
  20  776.1646
  21  680.4447
  22  635.2234
  23  721.5724
  24  717.8439
  25  700.7154
  26  631.683
  27  718.9497
  28  805.1907
  29  762.9337
  30  726.4602
  31  701.3324
  32  691.8793
  33  771.7686
  34  785.0507
  35  767.5844
  36  760.8345
  37  880.8242
  38  740.7225
  39  666.7574
  40  700.9797
  41  722.5778
  42  728.3667
  43  640.5849
  44  680.7842
  45  596.1063
  46  634.8848
  47  843.9247
  48  716.843
  49  600.4741
  50  532.0504
  51  666.2253
  52  804.0109
  53  757.7297
  54  701.4598
  55  767.1655
  56  793.2424
  57  712.5123
  58  705.8594
  59  779.8259
  60  686.2862
  61  671.8151
  62  747.6426
  63  699.0266
  64  742.9626
  65  678.9469
  66  661.9639
  67  698.3309
  68  659.8362
  69  801.7427
  70  757.157
  71  630.7507
  72  690.9271
  73  656.9033
  74  602.0806
  75  587.7374
  76  671.4835
  77  717.2851
  78  756.0962
  79  790.5632
  80  812.4485
  81  726.3195
  82  622.0384
  83  587.0586
  84  609.4109
  85  747.6309
  86  819.1472
  87  763.181
  88  691.0121
  89  639.4615
  90  734.1806
  91  728.8309
  92  736.5449
  93  709.558
  94  609.4304
  95  769.9448
  96  822.0739
  97  732.5069
  98  662.4457
  99  738.3221
 100  773.9045
 101  731.0876
 102  659.8599
 103  714.3732
 104  718.3226
 105  732.0413
 106  755.7344
 107  666.6971
 108  691.8454
 109  627.9431
 110  702.1303
 111  706.1522
 112  664.3928
 113  794.6519
 114  902.9797
 115  901.1926
 116  889.5554
 117  852.4326
 118  848.3965
 119  840.3702
 120  806.2068
 121  718.1043
 122  757.3672
 123  745.2526
 124  812.0283
 125  811.7585
 126  645.0713
 127  615.931
 128  724.8611
 129  798.0873
 130  822.403
 131  722.3963
 132  612.3597
 133  684.6376
 134  713.8116
 135  715.7979
 136  717.6218
 137  638.3933
 138  752.106
 139  727.4637
 140  684.3548
 141  688.7504
 142  594.0777
 143  739.3369
 144  806.6061
 145  770.3174
 146  803.6808
 147  684.508
 148  758.1674
 149  792.1209
 150  814.384
 151  887.405
 152  858.8794
 153  811.7863
 154  903.6905
 155  765.3866
 156  741.2777
 157  891.9363
 158  861.8988
 159  766.3721
 160  731.2159
 161  747.1276
 162  801.6252
 163  835.0766
 164  736.4981
 165  743.8614
 166  783.8083
 167  855.6821
 168  817.5175
 169  704.8058
 170  718.5211
 171  741.0781
 172  867.1852
 173  867.9033
 174  800.6151
 175  843.519
 176  923.4742
 177  842.5798
 178  784.0315
 179  897.7151
 180  831.4894
 181  794.501
 182  835.5656
 183  812.1913
 184  846.5068
 185  856.0905
 186  805.3126
 187  795.1324
 188  861.9921
 189  960.056
 190  820.644
 191  839.1104
 192  827.1561
 193  648.2981
 194  629.4293
 195  724.4795
 196  810.8467
 197  737.6581
 198  646.7043
 199  725.5381
 200  773.2861
 201  697.6653
 202  657.563
 203  653.1645
 204  755.8697
 205  749.0131
 206  807.5212
 207  808.0932
 208  723.1658
 209  794.4162
 210  814.8495
 211  838.306
 212  776.1711
 213  699.7525
 214  739.7224
 215  763.6917
 216  784.2859
 217  723.3198
 218  793.738
 219  781.3838
 220  792.2896
 221  878.9053
 222  925.666
 223  1109.741
 224  1196.968
 225  1286.279
 226  1135.674
 227  891.0344
 228  823.0601
 229  787.3477
 230  692.0187
 231  714.2235
 232  719.4149
 233  676.4095
 234  741.6495
 235  783.0688
 236  625.3893
 237  618.3369
 238  607.2711
 239  740.3221
 240  784.5545
 241  754.2661
 242  764.9969
 243  680.8362
 244  616.5615
 245  635.8843
 246  530.2636
 247  580.2161
 248  664.7556
 249  744.5941
 250  600.5068
 251  498.3781
 252  546.7337
 253  592.0645
 254  691.1469
 255  654.3174
 256  697.7089
 257  631.9888
 258  612.5792
 259  680.8533
 260  616.2065
 261  639.5963
 262  668.0105
 263  674.0291
 264  787.4185
 265  678.7709
 266  671.144
 267  698.2913
 268  715.2829
 269  730.3787
 270  651.2354
 271  630.3085
 272  768.2548
 273  769.2552
 274  690.7863
 275  689.1722
 276  741.3014
 277  728.6924
 278  712.0311
 279  734.0556
 280  761.1487
 281  701.0668
 282  799.7797
 283  774.8303
 284  569.8943
 285  614.3079
 286  668.0956
 287  666.9149
 288  657.5902
 289  564.9617
 290  579.6041
 291  721.4669
 292  710.9022
 293  728.9193
 294  719.3368
 295  682.704
 296  689.7155
 297  676.4015
 298  701.2859
 299  699.1542
 300  623.5297
 301  607.7419
 302  554.1277
 303  605.1578
 304  628.7339
 305  686.504
 306  755.0867
 307  686.8857
 308  732.6328
 309  737.5791
 310  741.0638
 311  800.9535
 312  733.4539
 313  751.3289
 314  797.1105
 315  788.0176
 316  799.6659
 317  652.5097
 318  666.0201
 319  643.3414
 320  695.7534
 321  639.8513
 322  627.5801
 323  652.1204
 324  725.6738
 325  738.3702
 326  724.8304
 327  622.3381
 328  709.6883
 329  739.0151
 330  807.5813
 331  683.5381
 332  741.686
 333  728.117
 334  735.9345
 335  720.0457
 336  664.0296
 337  592.3708
 338  612.7996
 339  780.1697
 340  837.9146
 341  812.5278
 342  835.5383
 343  875.5751
 344  840.4689
 345  843.3206
 346  703.408
 347  656.4702
 348  723.8447
 349  842.2161
 350  837.2532
 351  717.0052
 352  771.7081
 353  833.9787
 354  889.5705
 355  825.6319
 356  737.2902
 357  689.2643
 358  713.6784
 359  808.5645
 360  791.8296
 361  805.9903
 362  754.7582
 363  788.2284
 364  747.7269
 365  724.0943
 366  818.1717
 367  824.4663
 368  800.9467
 369  756.6663
 370  732.3278
 371  716.1077
 372  731.5081
 373  852.7036
 374  733.541
 375  626.0801
 376  633.7217
 377  734.8549
 378  807.9335
 379  682.5453
 380  720.1997
 381  746.7697
 382  682.1089
 383  735.6848
 384  747.1858
 385  723.4052
 386  746.6434
 387  845.9586
 388  824.3416
 389  836.448
 390  748.8115
 391  749.0978
 392  739.3774
 393  713.1773
 394  642.8445
 395  658.267
 396  694.9261
 397  686.8405
 398  625.0245
 399  645.1614
 400  586.3643
 401  626.1918
 402  755.3061
 403  739.2639
 404  637.1792
 405  641.2583
 406  651.3935
 407  650.2881
 408  596.4934
 409  691.927
 410  769.2204
 411  592.6251
 412  576.4535
 413  582.3528
 414  597.6594
 415  689.301
 416  716.7067
 417  723.787
 418  683.6568
 419  657.6263
 420  772.2255
 421  702.2325
 422  659.8675
 423  534.3477
 424  599.2805
 425  651.9119
 426  765.8295
 427  724.7924
 428  590.6789
 429  685.023
 430  706.6243
 431  773.3871
 432  639.1814
 433  688.6117
 434  656.1021
 435  643.1249
 436  718.3945
 437  735.9163
 438  675.4003
 439  676.6155
 440  664.2228
 441  593.9846
 442  566.311
 443  593.9303
 444  679.2078
 445  706.1616
 446  625.7452
 447  622.489
 448  593.8406
 449  536.6633
 450  587.6511
 451  577.1673
 452  581.03
 453  615.5417
 454  762.4035
 455  782.1137
 456  705.4258
 457  517.7464
 458  637.2957
 459  684.5826
 460  655.0261
 461  692.6287
 462  754.6558
 463  695.4284
 464  667.3295
 465  721.9954
 466  616.6569
 467  696.1796
 468  742.9914
 469  798.5129
 470  731.5626
 471  644.7579
 472  634.9155
 473  712.2686
 474  691.0695
 475  693.8463
 476  736.8506
 477  745.7771
 478  599.5997
 479  633.4685
 480  570.2674
 481  546.4482
 482  709.3264
 483  757.3206
 484  672.8647
 485  684.7546
 486  689.3657
 487  757.5775
 488  714.1374
 489  777.959
 490  787.3942
 491  757.1381
 492  838.7358
 493  862.7372
 494  740.1279
 495  827.0288
 496  867.2574
 497  881.4313
 498  765.0111
 499  687.3007
 500  698.7966
 501  766.4077
 502  809.941
 503  774.9355
 504  756.1829
 505  681.9871
 506  828.9851
 507  831.592
 508  858.9943
 509  716.7083
 510  755.35
 511  725.4601
