# Input file       =  1183008434.122497_cleaned.dat
# Candidate        =  PSR_0332+5434
# Telescope        =  AR
# Epoch_topo       =  57936.227466695571
# Epoch_bary       =  N/A
# T_sample         =  0.002
# Data Folded      =  7340032
# Data Avg         =  0.0467422795596865
# Data StdDev      =  1.00011220749926 
# Profile Bins     =  512
# Profile Avg      =  669.901706009701 
# Profile StdDev   =  119.746471321357 
# Reduced chi-sqr  =  1.593
# Prob(Noise)      <  2.91e-16   (~8.1 sigma)
# P_topo (ms)      =  714.48825657253   +/- 0.000436
# P'_topo (s/s)    =  -0                +/- 2.3e-10
# P''_topo (s/s^2) =  0                 +/- 1.02e-13
# P_bary (ms)      =  N/A
# P'_bary (s/s)    =  N/A
# P''_bary (s/s^2) =  N/A
# P_orb (s)        =  N/A
# asin(i)/c (s)    =  N/A
# eccentricity     =  N/A
# w (rad)          =  N/A
# T_peri           =  N/A
######################################################
   0  1419.733
   1  1241.626
   2  1125.954
   3  969.7808
   4  826.6691
   5  769.3372
   6  777.7515
   7  687.9312
   8  657.2777
   9  708.5475
  10  805.2567
  11  835.0734
  12  831.6569
  13  855.4562
  14  841.2344
  15  793.5737
  16  761.4661
  17  817.1387
  18  797.4013
  19  743.9916
  20  698.4442
  21  677.3612
  22  676.6318
  23  665.049
  24  719.5096
  25  704.1254
  26  656.5861
  27  716.1914
  28  632.1151
  29  715.306
  30  727.5157
  31  750.5096
  32  647.6082
  33  713.8892
  34  728.7073
  35  716.8771
  36  838.2931
  37  740.5475
  38  629.5432
  39  680.1965
  40  779.5626
  41  795.2718
  42  791.7281
  43  808.7055
  44  834.1893
  45  755.3218
  46  736.6772
  47  821.1702
  48  928.7545
  49  866.0775
  50  724.6654
  51  722.6912
  52  714.99
  53  721.4656
  54  748.5193
  55  751.3039
  56  819.8888
  57  744.8723
  58  786.3425
  59  765.1534
  60  768.6669
  61  716.6175
  62  783.9836
  63  865.9546
  64  829.0103
  65  849.4414
  66  749.1432
  67  705.4114
  68  869.4604
  69  827.9026
  70  685.3375
  71  708.5042
  72  761.3133
  73  786.4825
  74  768.5534
  75  635.6111
  76  750.4647
  77  695.2922
  78  649.6244
  79  766.6937
  80  802.5389
  81  752.1876
  82  628.9469
  83  743.6853
  84  824.3811
  85  717.8292
  86  601.9457
  87  700.5685
  88  706.5171
  89  573.8489
  90  680.2906
  91  644.233
  92  639.8459
  93  612.5012
  94  586.518
  95  663.7362
  96  612.0939
  97  593.973
  98  616.6204
  99  724.6625
 100  751.0773
 101  818.8467
 102  733.499
 103  667.2418
 104  665.6411
 105  759.8541
 106  732.9982
 107  651.6327
 108  662.5595
 109  666.8619
 110  634.5491
 111  636.1223
 112  697.0048
 113  661.7371
 114  642.4633
 115  586.6775
 116  680.0946
 117  643.8007
 118  632.4466
 119  600.2241
 120  670.7801
 121  709.1977
 122  666.9212
 123  679.7746
 124  655.9283
 125  616.2899
 126  604.436
 127  541.5947
 128  474.6665
 129  572.7514
 130  671.6262
 131  683.7667
 132  583.0313
 133  575.9734
 134  534.3438
 135  501.7563
 136  562.8098
 137  668.472
 138  593.8836
 139  608.4069
 140  631.9165
 141  593.7891
 142  483.8489
 143  472.9466
 144  462.5778
 145  650.8344
 146  704.2396
 147  667.0146
 148  662.0969
 149  657.3515
 150  715.4843
 151  713.7404
 152  672.0159
 153  636.5563
 154  569.5981
 155  649.8926
 156  697.8083
 157  681.8615
 158  645.2752
 159  649.7161
 160  609.9614
 161  609.3458
 162  578.8838
 163  617.1207
 164  613.4044
 165  565.5303
 166  619.9927
 167  738.3172
 168  752.6292
 169  751.5286
 170  696.6343
 171  671.6282
 172  696.6646
 173  618.5825
 174  587.363
 175  630.8825
 176  623.6755
 177  628.8957
 178  710.1881
 179  717.7545
 180  712.0394
 181  823.3881
 182  741.3273
 183  673.1776
 184  677.3082
 185  720.1525
 186  699.993
 187  715.0988
 188  810.8848
 189  743.9719
 190  587.1146
 191  558.7751
 192  559.2169
 193  698.9529
 194  718.9554
 195  686.4081
 196  623.3273
 197  709.7722
 198  717.9375
 199  715.4626
 200  617.8232
 201  635.5752
 202  690.9271
 203  648.1984
 204  686.2568
 205  816.6617
 206  686.6136
 207  649.063
 208  656.2271
 209  572.1195
 210  556.0238
 211  673.5833
 212  795.7755
 213  720.2034
 214  624.987
 215  637.6779
 216  577.9567
 217  619.1509
 218  684.8987
 219  596.952
 220  561.1036
 221  598.3946
 222  704.2767
 223  750.2684
 224  647.7125
 225  625.5375
 226  709.9735
 227  751.9498
 228  649.5117
 229  706.1422
 230  778.5215
 231  736.0961
 232  708.9052
 233  704.1697
 234  788.8361
 235  748.892
 236  632.3597
 237  761.5156
 238  662.7363
 239  663.3083
 240  576.5245
 241  592.6514
 242  647.8388
 243  647.2485
 244  700.2055
 245  705.2076
 246  616.0231
 247  674.4852
 248  693.2921
 249  691.9164
 250  596.7874
 251  435.8776
 252  504.6947
 253  547.2789
 254  504.3369
 255  582.7654
 256  596.6381
 257  565.6312
 258  439.7649
 259  459.1458
 260  437.8937
 261  562.254
 262  548.4327
 263  507.1599
 264  537.8951
 265  568.2068
 266  586.6883
 267  591.4291
 268  591.5038
 269  636.3768
 270  637.5511
 271  683.746
 272  721.1115
 273  646.4359
 274  580.2099
 275  543.2211
 276  576.6473
 277  703.3502
 278  663.7339
 279  690.2516
 280  690.7764
 281  780.168
 282  774.9493
 283  763.7482
 284  756.1169
 285  665.1138
 286  646.7764
 287  684.4812
 288  766.9838
 289  668.3682
 290  576.4804
 291  614.8217
 292  654.5054
 293  653.8313
 294  600.6043
 295  583.0223
 296  627.8179
 297  681.5052
 298  703.263
 299  638.782
 300  628.2556
 301  617.2124
 302  641.0841
 303  713.7635
 304  629.2569
 305  582.2007
 306  682.172
 307  643.7172
 308  645.8314
 309  602.7861
 310  647.6047
 311  789.3571
 312  648.1177
 313  608.176
 314  667.5432
 315  642.5397
 316  562.975
 317  597.8425
 318  698.4668
 319  728.321
 320  696.8591
 321  696.9116
 322  657.1556
 323  721.3423
 324  784.3403
 325  679.0118
 326  639.1693
 327  632.864
 328  567.266
 329  573.6614
 330  629.0775
 331  492.4803
 332  476.2524
 333  539.8136
 334  420.6245
 335  488.2679
 336  533.2278
 337  578.4406
 338  613.4651
 339  551.4596
 340  631.6005
 341  505.9464
 342  397.5709
 343  483.2838
 344  587.7693
 345  568.3947
 346  633.012
 347  529.4987
 348  582.1573
 349  625.791
 350  555.9066
 351  522.6335
 352  646.6219
 353  696.3378
 354  624.7112
 355  642.7815
 356  637.3908
 357  699.1018
 358  675.876
 359  696.4304
 360  654.6414
 361  571.7302
 362  774.1491
 363  818.6309
 364  890.7568
 365  789.86
 366  782.5637
 367  866.1873
 368  826.0022
 369  714.6313
 370  708.2774
 371  732.0626
 372  715.6945
 373  814.9231
 374  826.0601
 375  723.7065
 376  687.233
 377  720.6142
 378  716.316
 379  669.2606
 380  697.8792
 381  788.4401
 382  740.9282
 383  698.0626
 384  719.7024
 385  667.978
 386  602.7934
 387  670.3438
 388  670.6643
 389  678.0986
 390  732.8995
 391  758.5262
 392  757.8318
 393  623.9195
 394  678.5369
 395  683.4586
 396  646.3808
 397  632.0065
 398  651.3039
 399  633.3937
 400  644.8686
 401  622.8235
 402  783.6653
 403  756.1646
 404  633.8398
 405  656.5392
 406  692.9233
 407  745.7277
 408  764.8627
 409  796.205
 410  664.9345
 411  585.4826
 412  667.6172
 413  691.5104
 414  684.1392
 415  722.861
 416  734.3275
 417  693.4576
 418  721.5464
 419  719.0779
 420  633.5329
 421  624.916
 422  545.7158
 423  575.2654
 424  502.117
 425  571.5983
 426  592.9121
 427  642.0129
 428  640.8353
 429  591.5844
 430  598.1006
 431  604.9066
 432  608.446
 433  571.3853
 434  491.0275
 435  576.241
 436  603.7238
 437  617.5292
 438  679.2675
 439  714.1663
 440  665.6243
 441  668.2043
 442  636.1294
 443  599.8522
 444  642.3237
 445  573.1793
 446  471.413
 447  597.2719
 448  768.1947
 449  647.1534
 450  620.1815
 451  790.741
 452  807.1017
 453  640.2195
 454  611.6062
 455  636.3661
 456  681.1827
 457  653.8044
 458  613.124
 459  665.1321
 460  585.9329
 461  480.2688
 462  514.8019
 463  627.1057
 464  608.9925
 465  609.8391
 466  589.0611
 467  482.8946
 468  580.6551
 469  672.1074
 470  609.8695
 471  622.2645
 472  713.9713
 473  720.6378
 474  623.4013
 475  524.4355
 476  540.4326
 477  493.2224
 478  545.9158
 479  402.8959
 480  498.1528
 481  542.9315
 482  541.5973
 483  495.6615
 484  593.3693
 485  623.7965
 486  549.6647
 487  564.9893
 488  543.573
 489  526.756
 490  507.2072
 491  574.4398
 492  599.832
 493  619.8493
 494  660.1196
 495  647.8718
 496  559.9122
 497  571.788
 498  596.0127
 499  607.7715
 500  690.5876
 501  749.8946
 502  697.4245
 503  664.0202
 504  588.2515
 505  657.0066
 506  816.9366
 507  878.1541
 508  972.2914
 509  996.0047
 510  1249.302
 511  1337.381
