# Input file       =  1183712136.10114_cleaned.dat
# Candidate        =  PSR_0332+5434
# Telescope        =  AR
# Epoch_topo       =  57944.372165522451
# Epoch_bary       =  N/A
# T_sample         =  0.002
# Data Folded      =  7340032
# Data Avg         =  0.0506667868922418
# Data StdDev      =  1.00008887758323 
# Profile Bins     =  512
# Profile Avg      =  726.262745187662 
# Profile StdDev   =  119.743677959672 
# Reduced chi-sqr  =  1.192
# Prob(Noise)      <  0.00179   (~2.9 sigma)
# P_topo (ms)      =  714.482443221433  +/- 3.66e-05
# P'_topo (s/s)    =  -0                +/- 1.93e-11
# P''_topo (s/s^2) =  0                 +/- 8.53e-15
# P_bary (ms)      =  N/A
# P'_bary (s/s)    =  N/A
# P''_bary (s/s^2) =  N/A
# P_orb (s)        =  N/A
# asin(i)/c (s)    =  N/A
# eccentricity     =  N/A
# w (rad)          =  N/A
# T_peri           =  N/A
######################################################
   0  791.0674
   1  746.2826
   2  809.493
   3  747.4493
   4  712.5115
   5  710.7068
   6  657.3502
   7  625.3496
   8  742.045
   9  658.3958
  10  671.5813
  11  745.683
  12  682.9406
  13  633.6801
  14  588.1542
  15  633.4293
  16  647.5562
  17  609.8737
  18  630.2325
  19  626.6013
  20  814.6867
  21  815.6199
  22  761.762
  23  618.0321
  24  682.2305
  25  724.8146
  26  706.8712
  27  629.8541
  28  713.5963
  29  655.5858
  30  696.0836
  31  757.9213
  32  734.3598
  33  661.5884
  34  640.0911
  35  726.4448
  36  735.4313
  37  664.8144
  38  703.8801
  39  709.3447
  40  614.2963
  41  765.0853
  42  729.3547
  43  701.0114
  44  622.8031
  45  630.2056
  46  614.7078
  47  591.8619
  48  605.9993
  49  743.6606
  50  771.4527
  51  774.3422
  52  680.1673
  53  661.8198
  54  743.914
  55  784.1549
  56  788.2413
  57  731.6207
  58  767.3192
  59  836.2878
  60  708.7875
  61  560.1292
  62  578.8425
  63  635.9179
  64  704.5959
  65  812.0168
  66  713.0349
  67  668.8687
  68  660.9498
  69  722.0708
  70  790.5192
  71  737.1996
  72  699.8351
  73  637.6182
  74  668.3481
  75  740.7411
  76  709.7081
  77  680.2154
  78  730.8724
  79  701.0631
  80  660.4418
  81  607.6497
  82  701.3308
  83  776.8345
  84  693.0922
  85  759.7858
  86  703.7785
  87  750.0132
  88  827.691
  89  844.4778
  90  733.575
  91  629.7438
  92  738.0099
  93  796.0771
  94  868.4438
  95  679.374
  96  674.8842
  97  689.3891
  98  790.552
  99  730.3242
 100  694.3545
 101  751.3108
 102  827.032
 103  727.4168
 104  771.5363
 105  820.6042
 106  885.6422
 107  874.2166
 108  850.662
 109  719.8591
 110  619.9946
 111  676.1653
 112  817.9703
 113  686.5375
 114  499.6417
 115  546.2198
 116  623.0574
 117  696.6987
 118  677.7987
 119  699.5945
 120  672.1722
 121  682.22
 122  720.7328
 123  677.5927
 124  515.1959
 125  668.8085
 126  762.8959
 127  878.2458
 128  793.0228
 129  671.0406
 130  719.9856
 131  695.6364
 132  664.0442
 133  513.21
 134  592.8028
 135  702.2823
 136  863.4982
 137  866.1575
 138  770.2652
 139  728.5696
 140  759.9979
 141  752.8073
 142  740.228
 143  688.1553
 144  688.7886
 145  659.9523
 146  789.2382
 147  832.5331
 148  725.2229
 149  671.8513
 150  842.3101
 151  948.181
 152  723.8283
 153  694.249
 154  781.8629
 155  843.2228
 156  787.9612
 157  728.2845
 158  777.539
 159  793.8362
 160  847.2026
 161  818.0988
 162  734.6799
 163  715.8304
 164  724.2209
 165  826.2211
 166  826.0219
 167  704.6336
 168  707.9988
 169  759.1722
 170  741.0051
 171  724.1121
 172  664.2992
 173  687.6069
 174  724.6719
 175  834.4523
 176  822.5487
 177  689.9093
 178  701.7319
 179  773.6074
 180  794.4822
 181  703.0412
 182  661.0618
 183  809.3002
 184  843.5639
 185  767.1888
 186  670.7175
 187  687.3864
 188  752.1208
 189  765.7026
 190  726.2376
 191  564.3642
 192  687.278
 193  833.7472
 194  812.1317
 195  639.4327
 196  685.5847
 197  757.0667
 198  842.2106
 199  729.5876
 200  659.2778
 201  623.4946
 202  636.0676
 203  878.8189
 204  866.517
 205  678.6246
 206  618.6299
 207  720.8986
 208  817.13
 209  784.9388
 210  826.6826
 211  757.5309
 212  782.3806
 213  775.4377
 214  740.8138
 215  744.3606
 216  780.3931
 217  738.1511
 218  635.0057
 219  664.5031
 220  651.9385
 221  683.0492
 222  677.0753
 223  600.5273
 224  626.2128
 225  556.3096
 226  615.9547
 227  723.5208
 228  709.9177
 229  651.9088
 230  660.3306
 231  779.038
 232  816.1973
 233  806.5102
 234  803.4617
 235  751.8766
 236  794.3028
 237  784.4243
 238  741.5245
 239  726.2454
 240  684.2761
 241  695.1755
 242  745.4274
 243  778.0806
 244  732.5452
 245  775.3695
 246  866.8297
 247  780.0087
 248  769.9519
 249  674.8002
 250  745.7887
 251  892.4943
 252  754.9485
 253  688.1295
 254  718.4707
 255  761.0272
 256  794.3373
 257  757.5242
 258  767.5173
 259  763.3743
 260  778.8809
 261  806.7435
 262  682.597
 263  708.4199
 264  670.8674
 265  733.7554
 266  826.0789
 267  748.6888
 268  738.4927
 269  875.551
 270  874.1105
 271  839.5456
 272  809.6389
 273  818.3336
 274  758.6864
 275  697.3781
 276  682.5442
 277  644.6938
 278  712.9995
 279  788.285
 280  702.9178
 281  682.0875
 282  744.2416
 283  782.2131
 284  828.0192
 285  751.5177
 286  763.8159
 287  773.467
 288  767.4041
 289  700.4081
 290  742.3908
 291  713.3971
 292  658.0015
 293  800.8414
 294  852.3596
 295  719.9952
 296  594.5391
 297  583.9382
 298  668.4802
 299  714.9169
 300  747.9306
 301  628.7307
 302  689.4817
 303  740.5083
 304  656.2037
 305  671.6193
 306  636.2034
 307  661.2643
 308  840.0238
 309  787.8384
 310  772.7649
 311  731.0627
 312  732.4873
 313  755.7033
 314  765.1749
 315  710.7601
 316  690.5229
 317  694.867
 318  764.8748
 319  783.989
 320  689.2205
 321  712.5695
 322  762.4237
 323  757.7701
 324  785.6768
 325  807.774
 326  735.5927
 327  874.1262
 328  816.3928
 329  847.533
 330  748.9044
 331  705.0396
 332  842.761
 333  804.4772
 334  800.7626
 335  869.6999
 336  835.2662
 337  906.1318
 338  898.3549
 339  709.8615
 340  672.1228
 341  717.2664
 342  814.9774
 343  797.8337
 344  763.8442
 345  757.6341
 346  790.277
 347  793.2598
 348  653.2881
 349  700.399
 350  847.6072
 351  979.5347
 352  925.0667
 353  958.4902
 354  1044.992
 355  1193.701
 356  1301.237
 357  1244.739
 358  1151.704
 359  1044.663
 360  981.5445
 361  967.444
 362  848.7892
 363  813.4669
 364  752.946
 365  794.9744
 366  791.0952
 367  701.3215
 368  742.9854
 369  752.2004
 370  734.8215
 371  824.7303
 372  702.8416
 373  630.334
 374  702.783
 375  709.4628
 376  605.7039
 377  649.3572
 378  541.263
 379  498.1331
 380  567.2001
 381  661.6061
 382  582.8786
 383  511.4701
 384  684.1531
 385  748.2027
 386  649.4754
 387  552.0858
 388  657.6657
 389  773.9182
 390  826.6622
 391  800.4092
 392  650.6908
 393  604.3315
 394  609.0387
 395  729.2439
 396  727.3932
 397  550.1069
 398  630.0433
 399  630.5634
 400  562.1525
 401  598.8529
 402  640.2177
 403  722.6995
 404  773.9825
 405  694.3651
 406  749.4141
 407  718.4208
 408  777.4539
 409  863.9631
 410  785.3723
 411  742.6025
 412  749.621
 413  750.2632
 414  748.0355
 415  673.4407
 416  654.7945
 417  620.9529
 418  634.0858
 419  718.1566
 420  660.8854
 421  618.4835
 422  628.1848
 423  715.1868
 424  694.1282
 425  711.1355
 426  705.8343
 427  781.4292
 428  691.3598
 429  647.2003
 430  709.5046
 431  575.337
 432  658.4869
 433  702.8802
 434  663.5867
 435  660.6481
 436  674.3157
 437  661.5554
 438  659.4738
 439  507.1932
 440  596.2219
 441  676.6206
 442  682.9271
 443  623.4966
 444  550.8428
 445  565.1788
 446  603.9413
 447  659.3588
 448  641.985
 449  525.111
 450  558.3431
 451  626.9559
 452  542.9068
 453  598.7047
 454  656.8613
 455  683.2706
 456  686.2816
 457  720.5073
 458  704.0131
 459  713.456
 460  812.4444
 461  789.8295
 462  697.3565
 463  642.5639
 464  735.4958
 465  810.6308
 466  704.7634
 467  648.7165
 468  557.1724
 469  683.9334
 470  739.9324
 471  733.2551
 472  672.0831
 473  632.2884
 474  689.3264
 475  682.8214
 476  692.7444
 477  662.152
 478  685.2953
 479  698.7315
 480  748.7311
 481  709.4675
 482  620.962
 483  687.3729
 484  776.7103
 485  868.3888
 486  784.7951
 487  786.5739
 488  604.2778
 489  674.1044
 490  809.1763
 491  723.7115
 492  666.1605
 493  751.3838
 494  827.352
 495  746.563
 496  604.6601
 497  608.47
 498  627.5227
 499  714.1505
 500  814.3045
 501  757.2634
 502  645.8273
 503  696.7474
 504  740.3585
 505  795.0441
 506  708.1204
 507  707.8284
 508  793.6611
 509  880.3669
 510  805.076
 511  758.1129
