# Input file       =  1183540492.120483_cleaned.dat
# Candidate        =  PSR_0332+5434
# Telescope        =  AR
# Epoch_topo       =  57942.385545375961
# Epoch_bary       =  N/A
# T_sample         =  0.002
# Data Folded      =  7340032
# Data Avg         =  0.231434308150451
# Data StdDev      =  4.60578788492438 
# Profile Bins     =  1024
# Profile Avg      =  1658.80492453098 
# Profile StdDev   =  389.944618720771 
# Reduced chi-sqr  =  0.718
# Prob(Noise)      <  1   (~0.0 sigma)
# P_topo (ms)      =  714.483896913837  +/- 0.000323
# P'_topo (s/s)    =  -0                +/- 1.7e-10
# P''_topo (s/s^2) =  0                 +/- 7.52e-14
# P_bary (ms)      =  N/A
# P'_bary (s/s)    =  N/A
# P''_bary (s/s^2) =  N/A
# P_orb (s)        =  N/A
# asin(i)/c (s)    =  N/A
# eccentricity     =  N/A
# w (rad)          =  N/A
# T_peri           =  N/A
######################################################
   0  1550.064
   1  1525.921
   2  1659.562
   3  1675.554
   4  1595.731
   5  1480.963
   6  1373.639
   7  1499.414
   8  1505.184
   9  1656.928
  10  1611.102
  11  1660.731
  12  1491.576
  13  1520.574
  14  1605.421
  15  1733.422
  16  1715.656
  17  1792.262
  18  2039.751
  19  2078.612
  20  1960.985
  21  1658.205
  22  1632.837
  23  1734.992
  24  1812.639
  25  1769.61
  26  1770.695
  27  1843.12
  28  1879.818
  29  1873.034
  30  1786.731
  31  1708.709
  32  1629.589
  33  1661.989
  34  1693.49
  35  1756.932
  36  1723.382
  37  1621.39
  38  1573.195
  39  1669.544
  40  1737.087
  41  1683.203
  42  1740.995
  43  1851.75
  44  1820.288
  45  1659.782
  46  1443.007
  47  1304.376
  48  1408.753
  49  1323.316
  50  1345.542
  51  1356.88
  52  1501.312
  53  1564.685
  54  1500.861
  55  1570.665
  56  1572.625
  57  1626.764
  58  1654.262
  59  1683.059
  60  1636.436
  61  1495.539
  62  1377.685
  63  1347.719
  64  1352.264
  65  1350.729
  66  1364.024
  67  1479.057
  68  1559.284
  69  1574.32
  70  1403.619
  71  1295.587
  72  1301.346
  73  1430.302
  74  1552.464
  75  1506.105
  76  1376.463
  77  1395.264
  78  1505.344
  79  1592.987
  80  1594.127
  81  1495.644
  82  1507.077
  83  1662.557
  84  1707.569
  85  1718.756
  86  1624.729
  87  1658.719
  88  1667.45
  89  1692.285
  90  1607.87
  91  1508.159
  92  1442.644
  93  1425.864
  94  1529.873
  95  1570.007
  96  1512.626
  97  1494.061
  98  1420.88
  99  1335.124
 100  1259.148
 101  1333.291
 102  1507.333
 103  1547.919
 104  1579.953
 105  1537.455
 106  1552.354
 107  1646.287
 108  1626.095
 109  1598.633
 110  1582.542
 111  1708.739
 112  1632.633
 113  1598.731
 114  1605.189
 115  1713.118
 116  1706.145
 117  1646.413
 118  1669.393
 119  1834.243
 120  1756.177
 121  1681.765
 122  1710.677
 123  1841.315
 124  1822.613
 125  1670.319
 126  1673.445
 127  1744.745
 128  1733.283
 129  1661.315
 130  1672.092
 131  1638.157
 132  1783.851
 133  1776.255
 134  1812.222
 135  1830.552
 136  1841.032
 137  1837.806
 138  1705.499
 139  1691.651
 140  1679.051
 141  1666.256
 142  1591.436
 143  1620.635
 144  1693.885
 145  1689.418
 146  1726.936
 147  1744.354
 148  1802.302
 149  1745.978
 150  1814.074
 151  1762.12
 152  1631.408
 153  1595.664
 154  1587.136
 155  1649.615
 156  1741.375
 157  1943.863
 158  1989.389
 159  1921.575
 160  1818.657
 161  1800.057
 162  1852.617
 163  1815.669
 164  1750.912
 165  1652.556
 166  1595.624
 167  1638.481
 168  1843.489
 169  1903.537
 170  1948.054
 171  1844.62
 172  1931.671
 173  1845.503
 174  1859.102
 175  1858.418
 176  1890.901
 177  1831.691
 178  1797.396
 179  1815.316
 180  1857.211
 181  1887.289
 182  1777.071
 183  1886.121
 184  1887.649
 185  1875.142
 186  1751.848
 187  1671.762
 188  1767.523
 189  1725.284
 190  1697.237
 191  1647.41
 192  1823.801
 193  1831.19
 194  1713.197
 195  1630.124
 196  1565.52
 197  1689.092
 198  1736.909
 199  1789.326
 200  1695.866
 201  1639.912
 202  1656.408
 203  1709.18
 204  1707.859
 205  1681.689
 206  1688.485
 207  1706.552
 208  1713.947
 209  1736.513
 210  1867.24
 211  1994.778
 212  1907.283
 213  1776.459
 214  1713.103
 215  1736.512
 216  1787.796
 217  1814.45
 218  1833.806
 219  1805.331
 220  1752.357
 221  1795.741
 222  1846.927
 223  1782.096
 224  1645.99
 225  1604.631
 226  1632.378
 227  1605.757
 228  1557.262
 229  1529.848
 230  1644.113
 231  1637.159
 232  1631.959
 233  1602.44
 234  1511.04
 235  1476.112
 236  1552.335
 237  1572.078
 238  1565.464
 239  1501.365
 240  1595.017
 241  1685.099
 242  1702.156
 243  1602.713
 244  1467.654
 245  1300.664
 246  1371.936
 247  1455.281
 248  1584.773
 249  1530.718
 250  1430.363
 251  1397.018
 252  1474.913
 253  1506.204
 254  1551.091
 255  1452.46
 256  1435.698
 257  1416.577
 258  1476.112
 259  1522.958
 260  1488.81
 261  1489.603
 262  1446.236
 263  1486.124
 264  1369.785
 265  1434.086
 266  1424.821
 267  1372.886
 268  1383.837
 269  1468.674
 270  1743.354
 271  1767.175
 272  1780.076
 273  1621.285
 274  1513.92
 275  1386.717
 276  1302.227
 277  1185.208
 278  1135.809
 279  1159.466
 280  1214.636
 281  1224.919
 282  1267.196
 283  1443.278
 284  1461.243
 285  1442.476
 286  1476.292
 287  1623.546
 288  1569.619
 289  1562.514
 290  1595.588
 291  1725.832
 292  1701.927
 293  1708.449
 294  1707.475
 295  1707.458
 296  1635.393
 297  1451.725
 298  1411.618
 299  1434.172
 300  1455.383
 301  1439.036
 302  1324.986
 303  1246.263
 304  1158.024
 305  1134.546
 306  1187.203
 307  1392.866
 308  1546.297
 309  1517.338
 310  1411.391
 311  1367.942
 312  1462.94
 313  1430.391
 314  1376.79
 315  1439.878
 316  1443.646
 317  1459.636
 318  1418.63
 319  1490.391
 320  1451.285
 321  1308.383
 322  1279.648
 323  1305.602
 324  1450.986
 325  1391.606
 326  1427.571
 327  1454.714
 328  1465.979
 329  1391.032
 330  1476.162
 331  1557.463
 332  1552.263
 333  1577.91
 334  1456.673
 335  1337.18
 336  1254.622
 337  1313.535
 338  1424.248
 339  1462.259
 340  1518.911
 341  1503.477
 342  1525.175
 343  1547.571
 344  1637.565
 345  1553.682
 346  1583.9
 347  1603.685
 348  1657.092
 349  1669.574
 350  1653.482
 351  1698.911
 352  1651.57
 353  1600.528
 354  1597.382
 355  1681.489
 356  1668.704
 357  1727.941
 358  1720.062
 359  1687.779
 360  1662.783
 361  1708.246
 362  1771.673
 363  1812.031
 364  1725.675
 365  1661.837
 366  1662.815
 367  1754.948
 368  1750.964
 369  1775.326
 370  1766.421
 371  1776.538
 372  1767.183
 373  1669.581
 374  1694.75
 375  1634.032
 376  1704.064
 377  1745.922
 378  1838.889
 379  1866.754
 380  1790.776
 381  1672.708
 382  1726.135
 383  1797.842
 384  1882.236
 385  1811.939
 386  1684.419
 387  1642.552
 388  1652.143
 389  1684.834
 390  1743.351
 391  1863.486
 392  1936.612
 393  1858.332
 394  1769.831
 395  1796.397
 396  1800.805
 397  1700.114
 398  1665.372
 399  1624.583
 400  1631.712
 401  1492.505
 402  1490.394
 403  1469.701
 404  1468.43
 405  1469.628
 406  1581.684
 407  1685.33
 408  1671.493
 409  1644.575
 410  1564.957
 411  1495.284
 412  1543.641
 413  1510.611
 414  1489.12
 415  1335.517
 416  1411.701
 417  1537.108
 418  1578.555
 419  1686.261
 420  1763.228
 421  1731.993
 422  1741.349
 423  1596.288
 424  1593.598
 425  1565.811
 426  1537.944
 427  1516.341
 428  1574.884
 429  1603.286
 430  1501.503
 431  1364.729
 432  1300.027
 433  1357.39
 434  1450.315
 435  1511.6
 436  1547.426
 437  1609.207
 438  1571.521
 439  1458.632
 440  1367.543
 441  1389.836
 442  1440.328
 443  1473.47
 444  1566.674
 445  1659.801
 446  1759.348
 447  1786.986
 448  1831.886
 449  1792.106
 450  1775.828
 451  1603.387
 452  1626.58
 453  1639.654
 454  1783.731
 455  1811.866
 456  1858.999
 457  1825.665
 458  1798.253
 459  1739.832
 460  1854.698
 461  1885.583
 462  1831.796
 463  1816.289
 464  1913.223
 465  1845.458
 466  1778.197
 467  1661.35
 468  1741.335
 469  1824.236
 470  1779.688
 471  1794.989
 472  1774.97
 473  1865.828
 474  1821.245
 475  1792.171
 476  1688.542
 477  1706.727
 478  1604.558
 479  1496.142
 480  1468.879
 481  1538.892
 482  1626.165
 483  1592.4
 484  1583.967
 485  1496.697
 486  1405.885
 487  1379.669
 488  1424.601
 489  1489.153
 490  1545.436
 491  1512.513
 492  1523.458
 493  1628.688
 494  1602.959
 495  1494.763
 496  1392.152
 497  1439.089
 498  1473.937
 499  1513.978
 500  1495.253
 501  1591.675
 502  1561.033
 503  1524.43
 504  1514.809
 505  1608.118
 506  1638.783
 507  1537.271
 508  1469.411
 509  1437.257
 510  1567.848
 511  1588.298
 512  1652.362
 513  1580.521
 514  1673.241
 515  1615.873
 516  1522.335
 517  1572.041
 518  1655.681
 519  1796.753
 520  1685.897
 521  1697.875
 522  1633.695
 523  1606.464
 524  1558.976
 525  1602.246
 526  1754.413
 527  1857.906
 528  1772.731
 529  1697.977
 530  1671.391
 531  1664.453
 532  1536.445
 533  1517.404
 534  1556.652
 535  1669.568
 536  1790.988
 537  1778.849
 538  1656.188
 539  1629.542
 540  1640.46
 541  1667.155
 542  1492.003
 543  1531.456
 544  1473.207
 545  1489.859
 546  1444.903
 547  1484.777
 548  1561.695
 549  1477.752
 550  1477.397
 551  1488.121
 552  1580.893
 553  1535.227
 554  1442.569
 555  1603.441
 556  1718.726
 557  1794.073
 558  1647.812
 559  1512.184
 560  1459.698
 561  1503.214
 562  1481.581
 563  1463.546
 564  1400.419
 565  1475.77
 566  1644.226
 567  1842.778
 568  1850.83
 569  1774.123
 570  1879.021
 571  1952.289
 572  1969.719
 573  1912.605
 574  1793.332
 575  1703.919
 576  1614.26
 577  1706.529
 578  1658.83
 579  1520.184
 580  1504.616
 581  1630.922
 582  1787.4
 583  1819.995
 584  1828.919
 585  1755.016
 586  1589.782
 587  1476.511
 588  1500.426
 589  1616.632
 590  1564.213
 591  1426.621
 592  1361.549
 593  1381.19
 594  1466.746
 595  1460.868
 596  1491.307
 597  1568.308
 598  1536.188
 599  1484.134
 600  1441.585
 601  1430.616
 602  1326.426
 603  1336.991
 604  1525.875
 605  1708.738
 606  1693.308
 607  1677.659
 608  1818.746
 609  1820.061
 610  1739.562
 611  1622.432
 612  1572.957
 613  1557.687
 614  1571.568
 615  1691.366
 616  1704.374
 617  1696.449
 618  1685.559
 619  1700.354
 620  1804.645
 621  1823.845
 622  1800.593
 623  1753.348
 624  1677.987
 625  1625.461
 626  1558.592
 627  1509.595
 628  1556.975
 629  1587.589
 630  1649.234
 631  1632.249
 632  1642.831
 633  1720.208
 634  1758.719
 635  1822.325
 636  1923.898
 637  1935.486
 638  1952.147
 639  1900.72
 640  1825.431
 641  1857.902
 642  1881.831
 643  2021.775
 644  1981.257
 645  1933.324
 646  1923.363
 647  2125.651
 648  2268.444
 649  2457.787
 650  2501.642
 651  2685.913
 652  2783.209
 653  2896.485
 654  2757.768
 655  2577.27
 656  2434.728
 657  2291.727
 658  2110.36
 659  1925.109
 660  1887.976
 661  1885.944
 662  1911.674
 663  1884.214
 664  1853.391
 665  1750.567
 666  1748.42
 667  1689.361
 668  1695.42
 669  1650.581
 670  1632.687
 671  1688.748
 672  1738.889
 673  1761.724
 674  1722.974
 675  1789.721
 676  1680.698
 677  1612.496
 678  1612.03
 679  1605.146
 680  1609.026
 681  1633.22
 682  1806.393
 683  1867.911
 684  1896.754
 685  1826.627
 686  1863.886
 687  1747.254
 688  1820.659
 689  1702.533
 690  1548.489
 691  1563.612
 692  1564.799
 693  1605.034
 694  1440.137
 695  1357.385
 696  1325.819
 697  1383.284
 698  1451.869
 699  1627.566
 700  1739.63
 701  1743.715
 702  1569.952
 703  1546.312
 704  1686.052
 705  1766.947
 706  1688.231
 707  1665.662
 708  1620.991
 709  1666.422
 710  1570.806
 711  1584.416
 712  1536.611
 713  1584.461
 714  1557.191
 715  1593.28
 716  1558.582
 717  1593.596
 718  1663.653
 719  1714.847
 720  1777.501
 721  1782.891
 722  1733.552
 723  1602.022
 724  1701.306
 725  1768.123
 726  1845.253
 727  1827.756
 728  1816.146
 729  1804.312
 730  1756.181
 731  1763.331
 732  1790.582
 733  1828.329
 734  1859.99
 735  1759.038
 736  1787.264
 737  1773.435
 738  1777.752
 739  1756.026
 740  1728.565
 741  1686.252
 742  1670.43
 743  1669.661
 744  1745.172
 745  1827.296
 746  1837.228
 747  1816.691
 748  1712.645
 749  1750.332
 750  1724.536
 751  1769.856
 752  1730.236
 753  1601.85
 754  1642.536
 755  1613.573
 756  1633.171
 757  1473.796
 758  1557.392
 759  1550.433
 760  1603.348
 761  1599.677
 762  1648.338
 763  1645.48
 764  1623.628
 765  1663.613
 766  1675.622
 767  1665.922
 768  1732.682
 769  1750.981
 770  1677.298
 771  1654.451
 772  1733.422
 773  1710.55
 774  1645.081
 775  1672.693
 776  1814.463
 777  1871.646
 778  1982.191
 779  1825.504
 780  1710.543
 781  1688.343
 782  1885.272
 783  2039.772
 784  1965.687
 785  1917.921
 786  1894.818
 787  1978.92
 788  1958.812
 789  1930.106
 790  1888.814
 791  1879.881
 792  1871.566
 793  1938.733
 794  1869.33
 795  1839.888
 796  1796.799
 797  1811.942
 798  1845.073
 799  1866.968
 800  1883.606
 801  1934.117
 802  2016.833
 803  1978.444
 804  1801.809
 805  1762.622
 806  1752.475
 807  1789.879
 808  1642.663
 809  1695.837
 810  1722.606
 811  1807.554
 812  1673.06
 813  1569.184
 814  1543.184
 815  1575.777
 816  1629.476
 817  1687.46
 818  1713.45
 819  1771.482
 820  1737.166
 821  1744.855
 822  1710.263
 823  1579.481
 824  1580.042
 825  1645.507
 826  1669.779
 827  1542.35
 828  1531.115
 829  1571.327
 830  1771.772
 831  1754.436
 832  1816.82
 833  1673.235
 834  1605.009
 835  1567.355
 836  1575.327
 837  1592.199
 838  1595.383
 839  1566.095
 840  1636.658
 841  1635.901
 842  1521.214
 843  1403.329
 844  1372.405
 845  1626.796
 846  1630.125
 847  1510.406
 848  1475.946
 849  1560.514
 850  1700.447
 851  1752.417
 852  1771.042
 853  1795.867
 854  1789.852
 855  1826.584
 856  1710.313
 857  1602.224
 858  1506.135
 859  1543.031
 860  1535.468
 861  1497.627
 862  1556.347
 863  1753.456
 864  1817.061
 865  1788.965
 866  1686.378
 867  1649.334
 868  1654.822
 869  1747.322
 870  1841.413
 871  1893.81
 872  1837.265
 873  1753.997
 874  1670.144
 875  1678.848
 876  1675.59
 877  1625.984
 878  1523.625
 879  1577.218
 880  1630.181
 881  1737.62
 882  1795.388
 883  1915.291
 884  1941.288
 885  1845.847
 886  1612.827
 887  1705.672
 888  1729.799
 889  1808.361
 890  1809.938
 891  1822.851
 892  1682.743
 893  1618.528
 894  1603.863
 895  1617.958
 896  1537.693
 897  1573.391
 898  1573.893
 899  1622.038
 900  1655.58
 901  1710.107
 902  1761.153
 903  1838.547
 904  1844.527
 905  1775.604
 906  1672.05
 907  1621.251
 908  1723.148
 909  1782.631
 910  1689.072
 911  1658.305
 912  1738.427
 913  1934.465
 914  1886.639
 915  1878.335
 916  1746.162
 917  1687.484
 918  1674.901
 919  1651.669
 920  1553.284
 921  1500.613
 922  1473.328
 923  1434.605
 924  1444.564
 925  1540.805
 926  1611.176
 927  1616.5
 928  1594.622
 929  1607.761
 930  1584.218
 931  1512.501
 932  1589.767
 933  1648.54
 934  1650.94
 935  1649.192
 936  1612.37
 937  1494.682
 938  1437.379
 939  1492.918
 940  1630.455
 941  1639.917
 942  1636.48
 943  1648.733
 944  1600.975
 945  1705.708
 946  1700.451
 947  1692.401
 948  1678.224
 949  1613.764
 950  1729.591
 951  1664.47
 952  1728.597
 953  1674.913
 954  1737.6
 955  1569.333
 956  1472.993
 957  1455.7
 958  1562.268
 959  1614.427
 960  1694.964
 961  1742.938
 962  1688.644
 963  1763.744
 964  1755.748
 965  1829.636
 966  1809.411
 967  1802.144
 968  1857.442
 969  1825.178
 970  1840.782
 971  1915.937
 972  2019.205
 973  2010.245
 974  1907.168
 975  1752.148
 976  1693.444
 977  1747.131
 978  1866.008
 979  1963.635
 980  2063.503
 981  2098.853
 982  2014.579
 983  1936.286
 984  1817.032
 985  1713.21
 986  1730.747
 987  1759.865
 988  1644.402
 989  1540.962
 990  1527.91
 991  1541.349
 992  1571.921
 993  1597.929
 994  1618.041
 995  1545.672
 996  1498.826
 997  1474.331
 998  1564.703
 999  1647.537
1000  1737.491
1001  1852.054
1002  1868.428
1003  1721.473
1004  1588.102
1005  1616.472
1006  1611.546
1007  1628.348
1008  1588.669
1009  1566.784
1010  1485.95
1011  1532.178
1012  1596.776
1013  1663.596
1014  1687.344
1015  1670.346
1016  1641.007
1017  1594.788
1018  1593.879
1019  1548.025
1020  1543.967
1021  1627.241
1022  1641.38
1023  1674.408
