# Input file       =  1183970685.111763_cleaned.dat
# Candidate        =  PSR_0332+5434
# Telescope        =  AR
# Epoch_topo       =  57947.364630923184
# Epoch_bary       =  N/A
# T_sample         =  0.002
# Data Folded      =  7340032
# Data Avg         =  0.0426386682952479
# Data StdDev      =  1.00007853164987 
# Profile Bins     =  512
# Profile Avg      =  611.332121867245 
# Profile StdDev   =  119.742439209657 
# Reduced chi-sqr  =  0.954
# Prob(Noise)      <  0.767   (~0.0 sigma)
# P_topo (ms)      =  714.480357206633  +/- 0.000181
# P'_topo (s/s)    =  -0                +/- 9.54e-11
# P''_topo (s/s^2) =  0                 +/- 4.21e-14
# P_bary (ms)      =  N/A
# P'_bary (s/s)    =  N/A
# P''_bary (s/s^2) =  N/A
# P_orb (s)        =  N/A
# asin(i)/c (s)    =  N/A
# eccentricity     =  N/A
# w (rad)          =  N/A
# T_peri           =  N/A
######################################################
   0  1226.917
   1  1052.104
   2  927.8472
   3  872.3505
   4  687.6201
   5  570.3326
   6  611.6291
   7  632.6163
   8  606.1519
   9  593.3485
  10  673.9207
  11  590.3266
  12  550.2234
  13  589.2556
  14  540.4461
  15  632.3781
  16  649.4014
  17  528.9897
  18  549.687
  19  538.6888
  20  523.0316
  21  509.7917
  22  551.4048
  23  579.6805
  24  587.2031
  25  536.9623
  26  551.2738
  27  495.2514
  28  625.9286
  29  718.9381
  30  652.9167
  31  629.9838
  32  656.6946
  33  572.299
  34  454.7532
  35  462.1111
  36  532.1782
  37  670.8467
  38  725.2394
  39  708.3098
  40  677.1292
  41  590.0723
  42  473.5638
  43  573.5474
  44  627.0775
  45  614.0537
  46  548.8467
  47  456.2344
  48  641.9512
  49  688.4277
  50  700.7889
  51  579.3743
  52  534.4868
  53  489.3254
  54  457.9666
  55  554.8899
  56  650.112
  57  699.0643
  58  636.5302
  59  566.9819
  60  452.3368
  61  588.8732
  62  642.3388
  63  601.0126
  64  731.3471
  65  610.6266
  66  537.2458
  67  638.6195
  68  598.7908
  69  634.5503
  70  560.6735
  71  634.5468
  72  582.7613
  73  465.2068
  74  579.9686
  75  600.6103
  76  560.8079
  77  636.7179
  78  557.29
  79  503.0565
  80  484.0312
  81  640.3389
  82  500.861
  83  415.3033
  84  373.6048
  85  494.017
  86  575.7175
  87  516.7274
  88  652.407
  89  565.6135
  90  603.0793
  91  556.3301
  92  639.3856
  93  656.468
  94  556.7056
  95  608.1298
  96  580.7563
  97  564.0602
  98  577.0238
  99  644.3802
 100  620.8046
 101  543.0708
 102  594.3359
 103  579.4282
 104  609.217
 105  662.206
 106  585.9016
 107  577.6698
 108  574.8277
 109  578.5348
 110  571.6205
 111  649.8858
 112  679.9478
 113  625.1642
 114  633.8782
 115  596.5276
 116  662.0827
 117  677.0372
 118  623.5334
 119  598.5389
 120  628.8139
 121  621.549
 122  568.4435
 123  568.8577
 124  696.1445
 125  777.3612
 126  612.3955
 127  559.4398
 128  579.3336
 129  660.8847
 130  680.5875
 131  684.3859
 132  646.5083
 133  614.456
 134  646.5516
 135  635.1484
 136  698.8084
 137  652.8566
 138  607.188
 139  587.2714
 140  520.9558
 141  643.5218
 142  656.6958
 143  657.146
 144  714.5127
 145  658.1948
 146  603.3212
 147  548.528
 148  642.2282
 149  626.8267
 150  544.2623
 151  478.8252
 152  624.0869
 153  574.8311
 154  578.7245
 155  539.0697
 156  546.3029
 157  640.6838
 158  670.3922
 159  725.2596
 160  604.5917
 161  569.5632
 162  532.85
 163  562.5964
 164  618.2259
 165  563.3474
 166  549.5867
 167  527.3029
 168  460.181
 169  560.6864
 170  612.8387
 171  592.0218
 172  694.5897
 173  671.3207
 174  615.4007
 175  531.4421
 176  592.21
 177  628.1611
 178  706.6469
 179  573.4246
 180  561.0961
 181  605.0825
 182  664.0162
 183  689.1021
 184  681.3643
 185  645.462
 186  577.8633
 187  699.5803
 188  683.1948
 189  555.6478
 190  549.537
 191  689.0238
 192  676.4077
 193  628.8345
 194  575.8275
 195  624.8505
 196  599.4901
 197  639.1522
 198  633.5872
 199  531.324
 200  611.1631
 201  595.6758
 202  549.3958
 203  619.9663
 204  572.0358
 205  594.42
 206  627.7532
 207  659.5071
 208  706.5316
 209  597.5079
 210  535.5579
 211  660.238
 212  650.0754
 213  551.6703
 214  586.3068
 215  745.9957
 216  759.1429
 217  622.7247
 218  550.2352
 219  490.6227
 220  644.9471
 221  698.3868
 222  704.1669
 223  565.2897
 224  499.0963
 225  503.5852
 226  507.449
 227  614.8401
 228  599.7678
 229  535.2032
 230  511.1512
 231  492.9757
 232  617.4149
 233  556.8917
 234  549.9459
 235  698.4583
 236  721.8287
 237  571.188
 238  447.0322
 239  402.3867
 240  486.2701
 241  636.0248
 242  692.6068
 243  714.5435
 244  630.472
 245  588.5704
 246  531.6656
 247  537.5782
 248  568.2971
 249  698.1895
 250  806.9625
 251  735.4673
 252  694.4087
 253  652.3439
 254  577.4371
 255  710.5989
 256  760.293
 257  604.1656
 258  614.4233
 259  720.6412
 260  650.7382
 261  577.8984
 262  665.6221
 263  732.4365
 264  639.1708
 265  514.3274
 266  558.5339
 267  546.9396
 268  624.4554
 269  553.075
 270  616.582
 271  619.0638
 272  629.8481
 273  578.7413
 274  612.1344
 275  635.3788
 276  573.4532
 277  633.3394
 278  820.918
 279  591.9006
 280  459.1721
 281  581.7448
 282  587.4313
 283  514.2884
 284  518.7272
 285  579.9686
 286  623.3498
 287  637.2361
 288  758.9039
 289  716.7736
 290  652.6615
 291  672.737
 292  639.7045
 293  550.5801
 294  524.9715
 295  484.3208
 296  560.5305
 297  608.2911
 298  635.9636
 299  661.1205
 300  644.9757
 301  650.1113
 302  658.7137
 303  534.3659
 304  639.8875
 305  644.487
 306  608.0329
 307  568.3945
 308  592.1361
 309  622.0894
 310  574.2566
 311  613.7101
 312  562.4734
 313  484.1341
 314  558.2921
 315  565.0533
 316  637.245
 317  668.1601
 318  548.6733
 319  472.4531
 320  427.02
 321  562.5012
 322  536.8741
 323  538.7245
 324  481.197
 325  540.7938
 326  649.5726
 327  550.8161
 328  602.1992
 329  594.0947
 330  722.282
 331  712.218
 332  596.5959
 333  590.5659
 334  629.1592
 335  503.2115
 336  556.389
 337  615.0663
 338  672.9471
 339  736.2768
 340  537.267
 341  531.7511
 342  673.8521
 343  673.0834
 344  670.9645
 345  682.3566
 346  544.5223
 347  537.8768
 348  641.6646
 349  665.1047
 350  681.4989
 351  654.1734
 352  626.4561
 353  720.5583
 354  629.2772
 355  584.5288
 356  641.3265
 357  702.5487
 358  607.7758
 359  598.4069
 360  536.3049
 361  630.1798
 362  604.1508
 363  618.6016
 364  672.2467
 365  733.3057
 366  704.9283
 367  644.2124
 368  521.2214
 369  615.8694
 370  718.1619
 371  692.5831
 372  658.7078
 373  628.6299
 374  608.5609
 375  678.9502
 376  727.2222
 377  670.8149
 378  676.7543
 379  535.4413
 380  494.5043
 381  513.6269
 382  592.4876
 383  689.0981
 384  604.5276
 385  574.1387
 386  563.5607
 387  479.6866
 388  532.3001
 389  653.3355
 390  671.0442
 391  622.1971
 392  673.3417
 393  625.2405
 394  703.1296
 395  662.1973
 396  643.7047
 397  568.7148
 398  596.1248
 399  580.5938
 400  506.1689
 401  596.7708
 402  676.3794
 403  616.3585
 404  569.35
 405  567.1609
 406  563.3616
 407  515.3504
 408  482.5523
 409  462.5309
 410  625.5182
 411  539.3137
 412  564.8068
 413  520.5779
 414  513.5772
 415  563.8189
 416  546.5532
 417  527.3103
 418  585.8251
 419  617.2199
 420  594.2776
 421  570.7787
 422  634.3497
 423  687.4176
 424  608.0498
 425  661.9979
 426  622.6338
 427  631.8859
 428  661.9169
 429  516.7692
 430  562.1148
 431  577.5169
 432  573.3129
 433  587.4478
 434  684.7042
 435  763.5616
 436  596.1766
 437  584.4929
 438  483.3323
 439  487.0581
 440  609.7252
 441  649.8351
 442  600.9764
 443  566.5841
 444  618.4374
 445  603.8541
 446  560.0262
 447  508.7647
 448  567.5668
 449  637.0316
 450  653.4272
 451  572.5142
 452  620.955
 453  672.7447
 454  637.1819
 455  623.6992
 456  703.8402
 457  800.2539
 458  703.0368
 459  644.6175
 460  695.7212
 461  655.897
 462  643.5633
 463  607.7615
 464  514.6381
 465  501.8206
 466  578.4389
 467  638.9113
 468  704.3103
 469  624.864
 470  646.0573
 471  632.9922
 472  655.9597
 473  618.7173
 474  631.6939
 475  634.3328
 476  596.1571
 477  630.303
 478  501.4947
 479  608.0327
 480  594.3129
 481  627.5255
 482  646.3852
 483  611.0474
 484  622.6338
 485  692.9478
 486  696.8651
 487  725.6054
 488  646.4794
 489  667.2961
 490  649.8655
 491  590.1733
 492  519.0637
 493  492.2982
 494  573.2006
 495  590.4275
 496  563.032
 497  572.6049
 498  629.4898
 499  631.4854
 500  497.0456
 501  453.3403
 502  586.4526
 503  646.1089
 504  782.9104
 505  759.5565
 506  593.8428
 507  791.2317
 508  802.9206
 509  832.0529
 510  923.936
 511  1144.021
