# Input file       =  1183165821.120904_cleaned.dat
# Candidate        =  PSR_0332+5434
# Telescope        =  AR
# Epoch_topo       =  57938.049075473427
# Epoch_bary       =  N/A
# T_sample         =  0.002
# Data Folded      =  7405568
# Data Avg         =  0.125726896057944
# Data StdDev      =  4.54952694774874 
# Profile Bins     =  1024
# Profile Avg      =  909.649330445673 
# Profile StdDev   =  386.897078668278 
# Reduced chi-sqr  =  0.665
# Prob(Noise)      <  1   (~0.0 sigma)
# P_topo (ms)      =  714.486804781747  +/- 7.36e-05
# P'_topo (s/s)    =  -0                +/- 3.85e-11
# P''_topo (s/s^2) =  0                 +/- 1.68e-14
# P_bary (ms)      =  N/A
# P'_bary (s/s)    =  N/A
# P''_bary (s/s^2) =  N/A
# P_orb (s)        =  N/A
# asin(i)/c (s)    =  N/A
# eccentricity     =  N/A
# w (rad)          =  N/A
# T_peri           =  N/A
######################################################
   0  913.8912
   1  1114.074
   2  1125.212
   3  1057.571
   4  895.7507
   5  878.8026
   6  878.7435
   7  892.0685
   8  870.435
   9  911.5882
  10  795.5628
  11  825.9214
  12  851.0294
  13  980.8311
  14  880.3145
  15  765.8804
  16  842.6488
  17  894.2863
  18  983.0931
  19  887.4158
  20  978.5783
  21  793.7941
  22  655.1017
  23  575.3671
  24  658.0812
  25  753.9219
  26  967.3647
  27  1082.68
  28  954.6227
  29  776.1417
  30  859.9855
  31  988.8273
  32  870.0251
  33  712.2026
  34  706.1326
  35  919.8686
  36  965.5712
  37  911.0057
  38  890.7392
  39  905.1431
  40  975.1758
  41  907.9916
  42  873.5514
  43  773.3296
  44  873.5634
  45  913.7003
  46  860.3679
  47  697.1976
  48  657.5677
  49  853.832
  50  961.818
  51  895.4116
  52  766.5433
  53  756.0115
  54  782.571
  55  648.9014
  56  632.7526
  57  738.6351
  58  842.5861
  59  920.2917
  60  889.1766
  61  961.5029
  62  991.7496
  63  1021.666
  64  966.7883
  65  836.0923
  66  681.6256
  67  603.5176
  68  655.0458
  69  704.6657
  70  696.2593
  71  601.3443
  72  636.7568
  73  707.9045
  74  809.7548
  75  935.9253
  76  1101.298
  77  1291.887
  78  1327.524
  79  1252.256
  80  1180.404
  81  1062.16
  82  805.2993
  83  646.7094
  84  652.2621
  85  780.7916
  86  905.0986
  87  918.9443
  88  899.3433
  89  768.2384
  90  925.3279
  91  1019.049
  92  1104.969
  93  962.8894
  94  1051.661
  95  1070.166
  96  940.5464
  97  709.1328
  98  799.905
  99  953.3767
 100  1004.553
 101  898.1905
 102  929.8412
 103  952.1164
 104  1064.09
 105  1198.711
 106  1200.076
 107  1136.582
 108  1052.771
 109  966.5609
 110  816.9193
 111  720.4773
 112  686.4202
 113  767.3092
 114  759.713
 115  785.7722
 116  698.5697
 117  630.5839
 118  711.8676
 119  747.959
 120  924.5385
 121  961.4423
 122  995.5352
 123  1071.323
 124  1108.953
 125  998.1921
 126  755.1691
 127  699.7864
 128  760.4282
 129  741.0187
 130  694.1516
 131  777.0496
 132  825.4915
 133  846.7638
 134  821.9418
 135  1013.847
 136  924.8706
 137  971.0678
 138  976.5569
 139  1067.395
 140  921.7947
 141  914.02
 142  1084.684
 143  1054.716
 144  917.1954
 145  756.0647
 146  888.6772
 147  962.4969
 148  1006.426
 149  1069.961
 150  1021.312
 151  888.905
 152  826.8298
 153  920.7918
 154  1039.912
 155  861.7715
 156  858.7886
 157  989.1523
 158  1018.903
 159  1066.381
 160  964.2704
 161  961.3591
 162  796.1191
 163  841.7825
 164  1023.731
 165  1077.083
 166  1062.585
 167  962.3815
 168  1052.879
 169  949.816
 170  842.971
 171  852.7585
 172  957.4985
 173  994.0855
 174  891.6238
 175  762.0385
 176  657.8486
 177  605.4816
 178  794.973
 179  886.1852
 180  850.0347
 181  845.1616
 182  921.3009
 183  1132.02
 184  1048.789
 185  985.5486
 186  943.8954
 187  994.397
 188  1124.501
 189  1027.05
 190  989.3325
 191  954.6891
 192  1014.087
 193  971.9167
 194  916.78
 195  912.2736
 196  952.6359
 197  968.8958
 198  876.7396
 199  834.0849
 200  788.3162
 201  844.9689
 202  950.8852
 203  903.2031
 204  786.1613
 205  798.9356
 206  871.1326
 207  1039.29
 208  979.5286
 209  1063.979
 210  1022.605
 211  1092.39
 212  963.2642
 213  942.1352
 214  808.2867
 215  801.9344
 216  748.9472
 217  771.3903
 218  725.6115
 219  712.4034
 220  724.4072
 221  839.7919
 222  862.125
 223  846.9626
 224  929.1021
 225  972.4153
 226  1051.1
 227  965.6976
 228  1053.149
 229  971.0283
 230  873.9249
 231  827.6802
 232  776.5551
 233  754.8007
 234  656.1104
 235  636.2311
 236  664.3394
 237  726.406
 238  967.0425
 239  1093.157
 240  1084.145
 241  910.5878
 242  956.3856
 243  988.1058
 244  908.4611
 245  701.5821
 246  707.2052
 247  848.3875
 248  925.2232
 249  816.1765
 250  771.804
 251  744.6884
 252  842.1534
 253  992.9667
 254  1132.341
 255  1186.627
 256  1201.615
 257  1355.456
 258  1262.996
 259  1007.227
 260  754.4493
 261  859.6406
 262  783.8185
 263  547.8911
 264  400.1547
 265  506.7958
 266  671.7193
 267  851.0347
 268  993.5896
 269  992.3791
 270  934.6774
 271  1126.933
 272  1287.964
 273  1183.373
 274  946.4929
 275  833.4855
 276  888.1143
 277  784.0065
 278  692.8857
 279  697.1379
 280  729.3671
 281  858.0222
 282  756.6791
 283  754.6133
 284  626.0914
 285  617.675
 286  841.509
 287  1011.394
 288  1048.808
 289  989.19
 290  970.7043
 291  1077.169
 292  1015.467
 293  1002.234
 294  922.0245
 295  895.397
 296  939.5962
 297  1070.621
 298  1137.673
 299  1037.986
 300  1019.429
 301  1062.338
 302  1152.879
 303  981.1212
 304  1036.401
 305  1061.91
 306  1040.026
 307  918.2758
 308  777.2427
 309  767.4846
 310  734.0684
 311  851.5301
 312  872.1887
 313  987.1741
 314  1022.943
 315  1091.919
 316  1124.905
 317  1143.101
 318  1062.351
 319  1082.882
 320  1110.778
 321  1070.771
 322  958.4157
 323  901.6924
 324  866.7265
 325  814.1208
 326  856.8681
 327  926.0754
 328  958.6856
 329  954.4313
 330  847.8079
 331  932.1564
 332  908.1497
 333  1006.442
 334  926.7116
 335  903.2604
 336  946.3791
 337  826.2885
 338  813.7432
 339  731.9501
 340  853.8361
 341  886.5149
 342  835.1478
 343  860.9468
 344  769.037
 345  733.104
 346  639.3233
 347  707.5766
 348  828.7637
 349  903.4871
 350  1047.52
 351  997.9374
 352  1042.361
 353  986.9014
 354  1054.188
 355  1104.888
 356  1089.385
 357  1129.97
 358  1096.099
 359  1036.611
 360  924.5339
 361  848.9088
 362  969.8903
 363  1028.858
 364  1062.539
 365  1038.197
 366  870.3133
 367  826.0862
 368  704.7894
 369  890.8019
 370  883.7484
 371  949.8323
 372  957.4604
 373  945.0817
 374  871.3427
 375  729.1115
 376  883.2664
 377  918.2064
 378  1003.011
 379  895.9406
 380  943.6392
 381  868.275
 382  645.8708
 383  597.6735
 384  546.3414
 385  692.0685
 386  751.2852
 387  884.2331
 388  932.03
 389  985.7252
 390  1004.628
 391  1067.474
 392  957.8528
 393  889.6943
 394  936.2177
 395  969.5743
 396  885.6249
 397  655.421
 398  671.4451
 399  658.9182
 400  706.8893
 401  735.7457
 402  823.1927
 403  906.0397
 404  982.3909
 405  1112.856
 406  1153.082
 407  1005.286
 408  874.7217
 409  868.4863
 410  772.3165
 411  622.6354
 412  716.6573
 413  872.4446
 414  864.2061
 415  776.0349
 416  770.8559
 417  851.3834
 418  780.4693
 419  1033.237
 420  1221.365
 421  1229.21
 422  1082.982
 423  1059.359
 424  1242.653
 425  1039.291
 426  911.0438
 427  898.5522
 428  938.137
 429  858.3802
 430  735.049
 431  791.5045
 432  882.1838
 433  816.9929
 434  927.848
 435  907.3146
 436  1024.947
 437  1029.009
 438  980.5852
 439  991.5038
 440  970.2093
 441  953.3157
 442  802.7084
 443  702.341
 444  672.6669
 445  696.4485
 446  765.0025
 447  846.9169
 448  899.6972
 449  887.3661
 450  957.011
 451  865.2856
 452  808.0468
 453  809.9076
 454  998.0182
 455  1005.087
 456  936.2082
 457  821.2615
 458  850.1231
 459  902.1036
 460  831.6788
 461  702.276
 462  703.4299
 463  771.3925
 464  913.4314
 465  877.2344
 466  835.7638
 467  876.6464
 468  944.4961
 469  908.62
 470  753.4864
 471  637.5344
 472  593.9801
 473  521.4855
 474  558.7532
 475  702.5074
 476  763.5989
 477  720.2275
 478  566.6889
 479  647.902
 480  717.5102
 481  824.5284
 482  876.989
 483  931.3869
 484  979.8854
 485  885.4853
 486  926.289
 487  877.3735
 488  855.1785
 489  757.3981
 490  678.0999
 491  661.8405
 492  681.3301
 493  646.8469
 494  672.8743
 495  728.4069
 496  789.6897
 497  743.0425
 498  724.8006
 499  676.5871
 500  729.8102
 501  728.9087
 502  841.4135
 503  939.3813
 504  1024.889
 505  993.4254
 506  992.6446
 507  968.1084
 508  948.8979
 509  882.1063
 510  932.4225
 511  794.4791
 512  685.327
 513  588.722
 514  713.8339
 515  776.4852
 516  770.1476
 517  784.4139
 518  775.4965
 519  752.6976
 520  893.0673
 521  990.7101
 522  1101.861
 523  985.4835
 524  1044.045
 525  944.8015
 526  820.0674
 527  754.0908
 528  818.5719
 529  948.557
 530  778.4337
 531  739.2898
 532  708.1284
 533  875.2269
 534  867.7673
 535  875.1017
 536  909.7543
 537  991.4662
 538  990.306
 539  1021.044
 540  852.5201
 541  854.5697
 542  772.9965
 543  899.5582
 544  758.235
 545  783.2241
 546  786.2489
 547  892.1555
 548  878.2214
 549  796.9723
 550  697.9735
 551  773.6345
 552  847.1168
 553  977.3296
 554  952.3922
 555  892.2383
 556  822.5198
 557  895.2595
 558  944.2239
 559  825.3954
 560  661.3808
 561  571.5112
 562  649.1414
 563  666.156
 564  660.6683
 565  657.1477
 566  762.4172
 567  919.8337
 568  1021.951
 569  1132.619
 570  1126.065
 571  1113.538
 572  1121.051
 573  1077.267
 574  1040.695
 575  939.4126
 576  915.9135
 577  846.1793
 578  600.6808
 579  541.1312
 580  598.9888
 581  801.0211
 582  739.0372
 583  708.1542
 584  818.1738
 585  922.4799
 586  989.3634
 587  1131.111
 588  1255.153
 589  1220.774
 590  1051.676
 591  990.1024
 592  970.9224
 593  889.4623
 594  797.1243
 595  806.9534
 596  844.9941
 597  989.8154
 598  1016.672
 599  1040.785
 600  742.2128
 601  777.2422
 602  881.8465
 603  932.6879
 604  813.0236
 605  828.7177
 606  1027.121
 607  1067.992
 608  942.1385
 609  861.2726
 610  1017.049
 611  1024.759
 612  998.4527
 613  929.1947
 614  963.2994
 615  861.8253
 616  886.322
 617  1088.169
 618  1133.826
 619  996.7075
 620  982.1559
 621  1047.909
 622  979.6072
 623  708.7338
 624  692.1177
 625  869.722
 626  852.0117
 627  810.0049
 628  727.7178
 629  893.534
 630  1034.734
 631  1148.227
 632  1219.306
 633  1102.564
 634  1040.901
 635  1012.062
 636  1112.549
 637  1122.811
 638  1097.745
 639  1042.887
 640  1014.553
 641  993.0274
 642  1049.074
 643  1078.437
 644  1222.87
 645  1374.809
 646  1473.776
 647  1447.551
 648  1473.112
 649  1611.57
 650  1829.233
 651  1979.161
 652  2010.02
 653  2036.651
 654  1941.021
 655  1841.519
 656  1810.089
 657  1809.617
 658  1650.981
 659  1217.195
 660  977.3641
 661  911.2166
 662  965.7396
 663  887.0768
 664  810.9766
 665  926.1727
 666  980.9954
 667  935.1842
 668  863.038
 669  953.9315
 670  1130.81
 671  1120.622
 672  953.2816
 673  801.8285
 674  657.5377
 675  764.692
 676  780.5687
 677  996.7191
 678  979.8049
 679  993.4057
 680  947.7186
 681  936.2252
 682  861.8434
 683  729.4808
 684  867.0061
 685  949.4163
 686  1067.768
 687  1038.804
 688  982.5079
 689  908.9871
 690  855.2836
 691  888.2932
 692  757.1034
 693  673.5842
 694  701.8105
 695  792.7107
 696  857.9169
 697  813.109
 698  700.9666
 699  695.3026
 700  748.8904
 701  876.8165
 702  944.0263
 703  1029.868
 704  1015.185
 705  932.9481
 706  886.8858
 707  799.8262
 708  822.3054
 709  799.7163
 710  897.1183
 711  882.4778
 712  893.9797
 713  819.6019
 714  880.7982
 715  990.6976
 716  1063.603
 717  1084.185
 718  1046.866
 719  1013.586
 720  1022.234
 721  956.2781
 722  940.2049
 723  869.5627
 724  966.2214
 725  1025.768
 726  898.3298
 727  842.4312
 728  696.8221
 729  706.5645
 730  638.835
 731  725.8551
 732  863.9276
 733  904.7107
 734  987.9586
 735  1045.668
 736  1166.148
 737  1145.783
 738  1051.564
 739  1064.386
 740  1149.962
 741  1156.143
 742  1036.126
 743  906.1168
 744  866.9386
 745  845.6444
 746  640.0941
 747  756.4672
 748  736.7986
 749  900.7719
 750  845.5192
 751  900.2098
 752  880.3665
 753  926.618
 754  1182.661
 755  1214.464
 756  1010.985
 757  753.6071
 758  734.2105
 759  703.7496
 760  590.2397
 761  615.5063
 762  784.7695
 763  871.6561
 764  835.601
 765  971.1882
 766  1089.703
 767  1065.17
 768  1093.54
 769  1116.59
 770  1055.627
 771  766.8401
 772  732.8644
 773  736.4094
 774  761.7508
 775  738.6653
 776  803.6369
 777  818.0056
 778  721.2794
 779  723.5739
 780  861.8316
 781  835.5225
 782  940.2556
 783  953.6643
 784  1127.274
 785  1022.884
 786  1035.96
 787  1034.129
 788  938.9813
 789  816.4732
 790  852.5207
 791  887.4982
 792  907.1719
 793  732.2979
 794  780.0704
 795  878.2672
 796  889.4212
 797  955.9399
 798  928.1597
 799  1025.758
 800  962.1407
 801  1154.782
 802  1056.252
 803  1012.448
 804  891.6426
 805  992.8182
 806  1039.657
 807  891.5899
 808  782.3785
 809  769.7726
 810  871.2289
 811  886.6913
 812  852.0964
 813  869.7599
 814  942.3102
 815  969.2986
 816  953.1687
 817  948.595
 818  1010.733
 819  1031.177
 820  1067.003
 821  1032.288
 822  1036.828
 823  974.0524
 824  941.1066
 825  847.8558
 826  813.024
 827  844.8054
 828  1024.505
 829  1075.341
 830  933.6611
 831  736.1401
 832  811.6945
 833  982.2936
 834  1067.038
 835  1083.188
 836  1004.087
 837  1074.551
 838  948.7103
 839  894.114
 840  821.5929
 841  781.7789
 842  947.1888
 843  855.5955
 844  923.7451
 845  741.2421
 846  755.7295
 847  935.4544
 848  1005.95
 849  1063.329
 850  1006.911
 851  1223.736
 852  1158.787
 853  1112.237
 854  883.4161
 855  871.6027
 856  850.7639
 857  869.4216
 858  844.387
 859  860.8452
 860  902.7971
 861  972.9295
 862  1014.445
 863  976.9
 864  980.0444
 865  947.261
 866  979.8203
 867  875.3444
 868  876.6736
 869  862.2517
 870  912.3224
 871  953.8646
 872  1032.522
 873  1062.59
 874  930.4955
 875  946.7244
 876  837.3413
 877  965.8918
 878  862.941
 879  811.917
 880  801.0762
 881  856.4297
 882  918.5629
 883  871.2862
 884  931.9603
 885  1031.679
 886  899.8569
 887  953.144
 888  1027.217
 889  1132.03
 890  1012.689
 891  857.0932
 892  956.1057
 893  1018.113
 894  1042.669
 895  940.2213
 896  944.3372
 897  944.2905
 898  886.1018
 899  846.9
 900  958.6661
 901  972.8879
 902  970.3721
 903  795.6843
 904  638.1103
 905  477.153
 906  612.1073
 907  754.5148
 908  803.7381
 909  716.7347
 910  873.836
 911  1018.351
 912  988.4796
 913  871.9818
 914  916.6746
 915  933.5163
 916  944.9337
 917  938.1141
 918  1042.313
 919  897.1729
 920  929.8952
 921  895.3051
 922  928.299
 923  761.1705
 924  663.1844
 925  671.2216
 926  582.9618
 927  589.9808
 928  637.3918
 929  874.2617
 930  1024.214
 931  1062.985
 932  1086.943
 933  996.1262
 934  1031.222
 935  1152.959
 936  1182.81
 937  1018.318
 938  879.321
 939  918.0637
 940  885.343
 941  677.4382
 942  558.6637
 943  627.3743
 944  792.6851
 945  842.7122
 946  800.3735
 947  845.3085
 948  898.4449
 949  972.78
 950  936.0627
 951  1081.887
 952  1165.032
 953  1258.523
 954  1189.263
 955  1095.639
 956  961.3407
 957  954.0428
 958  914.0507
 959  966.343
 960  806.0753
 961  801.9872
 962  752.697
 963  803.8004
 964  701.4989
 965  731.528
 966  930.3359
 967  961.872
 968  1029.58
 969  859.0231
 970  958.5146
 971  915.5375
 972  892.0662
 973  814.611
 974  816.8973
 975  945.1479
 976  880.9324
 977  761.6227
 978  650.1201
 979  677.6017
 980  944.8223
 981  1152.771
 982  1239.443
 983  999.3053
 984  841.6418
 985  892.7778
 986  860.9523
 987  734.183
 988  835.9016
 989  940.2109
 990  1208.658
 991  1067.246
 992  976.0458
 993  724.7676
 994  747.9014
 995  886.1684
 996  1019.184
 997  970.5674
 998  950.4097
 999  1073.101
1000  1167.741
1001  1160.538
1002  1019.644
1003  967.4479
1004  976.7945
1005  1011.779
1006  871.0376
1007  779.135
1008  783.3127
1009  1001.99
1010  986.5083
1011  787.3777
1012  554.8655
1013  561.1292
1014  815.2826
1015  944.2976
1016  1101.505
1017  1004.422
1018  1016.887
1019  786.7716
1020  722.0231
1021  786.0615
1022  942.483
1023  960.2458
