# Input file       =  1183109348.111727_cleaned.dat
# Candidate        =  PSR_0332+5434
# Telescope        =  AR
# Epoch_topo       =  57937.395452682023
# Epoch_bary       =  N/A
# T_sample         =  0.002
# Data Folded      =  7340032
# Data Avg         =  1.89557312043221 
# Data StdDev      =  33.7349054759552 
# Profile Bins     =  1024
# Profile Avg      =  13587.542448157  
# Profile StdDev   =  2856.13345253275 
# Reduced chi-sqr  =  1.114
# Prob(Noise)      <  0.00631   (~2.5 sigma)
# P_topo (ms)      =  714.487671185239  +/- 0.000201
# P'_topo (s/s)    =  -0                +/- 1.06e-10
# P''_topo (s/s^2) =  0                 +/- 4.69e-14
# P_bary (ms)      =  N/A
# P'_bary (s/s)    =  N/A
# P''_bary (s/s^2) =  N/A
# P_orb (s)        =  N/A
# asin(i)/c (s)    =  N/A
# eccentricity     =  N/A
# w (rad)          =  N/A
# T_peri           =  N/A
######################################################
   0  14821.23
   1  14824.43
   2  14747.88
   3  15327.26
   4  15705.6
   5  15880.7
   6  16365.4
   7  16361.54
   8  16016.97
   9  15942.59
  10  16004.22
  11  15441.42
  12  15363.5
  13  15476.93
  14  15560.25
  15  15170.13
  16  15371.29
  17  15077.49
  18  15174.51
  19  15353.43
  20  15245.42
  21  15049.88
  22  14997.02
  23  14983.5
  24  15146.6
  25  15576.42
  26  15358.85
  27  15130.91
  28  15033.45
  29  14897.14
  30  14943.4
  31  14641.96
  32  15067.68
  33  14842.26
  34  14629.44
  35  14663.62
  36  14748.56
  37  14770.61
  38  14802.44
  39  14683.59
  40  14400.88
  41  14110.5
  42  13959.55
  43  14250.83
  44  14493.26
  45  14438.38
  46  14131.87
  47  14169.49
  48  14747.71
  49  14850.84
  50  14893.97
  51  14738.01
  52  15000.38
  53  15410.94
  54  15523.81
  55  15982.1
  56  16101.8
  57  16483.25
  58  16899.36
  59  17020.98
  60  17072.03
  61  16555.12
  62  16558.97
  63  16179.33
  64  15866.27
  65  15952.05
  66  15839.3
  67  15512.88
  68  15779.39
  69  16530.06
  70  17024.57
  71  16797.41
  72  16778.55
  73  15947.44
  74  15288.06
  75  15090.18
  76  15072.15
  77  14963.84
  78  14909.86
  79  14707.89
  80  14771.02
  81  14655.6
  82  14727.18
  83  14738.68
  84  14680.03
  85  14103.94
  86  13805.58
  87  13794.29
  88  13748.69
  89  14344.58
  90  14857.65
  91  14725.08
  92  14498.34
  93  14791.88
  94  14612.33
  95  14040.51
  96  14123.9
  97  13940.15
  98  13445.71
  99  13541.92
 100  13688.93
 101  13227.13
 102  13211.04
 103  13587.18
 104  13936.98
 105  13874.56
 106  13501.14
 107  13510.85
 108  13651.98
 109  13446.46
 110  13224.68
 111  12958.52
 112  13121.71
 113  13120.47
 114  13140.6
 115  13236.61
 116  13342.17
 117  13112.18
 118  12965.1
 119  12985.23
 120  13662.17
 121  14044.2
 122  14140.76
 123  14259.23
 124  14464.54
 125  15047.76
 126  15668.67
 127  15867.06
 128  15941.89
 129  16056.62
 130  16350.38
 131  16134.09
 132  16224.37
 133  16001.84
 134  16302.69
 135  16793.54
 136  17085.85
 137  18015.51
 138  18373.56
 139  17772.7
 140  16778.52
 141  16345.35
 142  16549.92
 143  16572.64
 144  16261.37
 145  15967.29
 146  15861.21
 147  15999.35
 148  16614.07
 149  16598.94
 150  16313.07
 151  16235.38
 152  16075.49
 153  15809.62
 154  15435.01
 155  15508.39
 156  15289.82
 157  15039.67
 158  14958.91
 159  14726.41
 160  14418.22
 161  14369.93
 162  14287.66
 163  14625.49
 164  14694.2
 165  14500.2
 166  13961.46
 167  14128.09
 168  14235.62
 169  13796.73
 170  13942.62
 171  13503.79
 172  13476.45
 173  13866.73
 174  13940.74
 175  13591.81
 176  13645.36
 177  13721.7
 178  13373.21
 179  13123.83
 180  13353.72
 181  13423.21
 182  13220.59
 183  12992.15
 184  13230.23
 185  13314.37
 186  13115.96
 187  13154.96
 188  13506.82
 189  13686.64
 190  13254.72
 191  12847
 192  12182.32
 193  11755.61
 194  11904.53
 195  12271.04
 196  12608.58
 197  12773.47
 198  13234.43
 199  13304.42
 200  13119.36
 201  13820.09
 202  13833.26
 203  14030.25
 204  14247.12
 205  14122.74
 206  14239.42
 207  14060.65
 208  14205.53
 209  13964.91
 210  13680.28
 211  13880.47
 212  14491.03
 213  14846.24
 214  15072.14
 215  15218.28
 216  14910.61
 217  14646.23
 218  14354.28
 219  14187.48
 220  13977.38
 221  13307.78
 222  13653.87
 223  13656.37
 224  13555.31
 225  13537.9
 226  13687.68
 227  14496.14
 228  15003.78
 229  15682
 230  15926.18
 231  16154.95
 232  15677.47
 233  15340.79
 234  14677.76
 235  14151.32
 236  14494.6
 237  15602.39
 238  15086.47
 239  14934.25
 240  14487.89
 241  14690.27
 242  14636.03
 243  14824.58
 244  15032.2
 245  14321.95
 246  13767.58
 247  13513.43
 248  13431.74
 249  13900.96
 250  13930.65
 251  13963.69
 252  13305.55
 253  13405.73
 254  13299.25
 255  13327.62
 256  13276.76
 257  13310.53
 258  13346.12
 259  13444.65
 260  13808.54
 261  14125.01
 262  14032.39
 263  13952.28
 264  14014.02
 265  14055.67
 266  14167.51
 267  14056.98
 268  14322.09
 269  14502.91
 270  14723.32
 271  14982.64
 272  15010.08
 273  14805.67
 274  14575.31
 275  14381.19
 276  14850.98
 277  14561.56
 278  13894.26
 279  13811.24
 280  13749.55
 281  13509.18
 282  13308.36
 283  13347.87
 284  13483.67
 285  13205.6
 286  13126.3
 287  13329.15
 288  13692.13
 289  13732.96
 290  13996.89
 291  13796.86
 292  13752.35
 293  14059.07
 294  14153.8
 295  13838.06
 296  13782.86
 297  13775.33
 298  14118.11
 299  14153.07
 300  14307.51
 301  14316.95
 302  14397.33
 303  14318.8
 304  14318.95
 305  14187.94
 306  14426.64
 307  14469.48
 308  14438.43
 309  14569.08
 310  14650.96
 311  14812.24
 312  14793.5
 313  14157.36
 314  14559.35
 315  14402.61
 316  15253.33
 317  15223.96
 318  15270.56
 319  15127.21
 320  15445.07
 321  15525.29
 322  14922.34
 323  14018.57
 324  13669.85
 325  14002.48
 326  14699.47
 327  14268.42
 328  14068.48
 329  13726.32
 330  13981.8
 331  13718.34
 332  13585.77
 333  13364.96
 334  13398.78
 335  13395.01
 336  12952.42
 337  12577.78
 338  12325.28
 339  12150.88
 340  11435.89
 341  10800.14
 342  11263.39
 343  12051.26
 344  12160.8
 345  11782.87
 346  11969.74
 347  12831.83
 348  13744.4
 349  13481.04
 350  12621.05
 351  11840.84
 352  11550.76
 353  11626.25
 354  12293.6
 355  12527.33
 356  12132.22
 357  11177.67
 358  11414.38
 359  11697.3
 360  11896.5
 361  11941.06
 362  12024.35
 363  11882.15
 364  11934.09
 365  12147.41
 366  12355.42
 367  12635.98
 368  13496.28
 369  13778.37
 370  13628.55
 371  12550.09
 372  12971.94
 373  13389.83
 374  14002.87
 375  14293.05
 376  14607.97
 377  14725.56
 378  14862.29
 379  15204.25
 380  14995.63
 381  15265.46
 382  15475.98
 383  15715.09
 384  15683.5
 385  15504.42
 386  15140.32
 387  15288.24
 388  15534.77
 389  15398.9
 390  15359.82
 391  16075.06
 392  16101.23
 393  16295.47
 394  16587.9
 395  16237.8
 396  16001.03
 397  16192.01
 398  16327.68
 399  16011.61
 400  15610.68
 401  15806.22
 402  15847.78
 403  15955.36
 404  16425.87
 405  16605.95
 406  16915.79
 407  16431.98
 408  16152.75
 409  16269.06
 410  15704.36
 411  14652.67
 412  14636.43
 413  14700.31
 414  14274.45
 415  14355.87
 416  14136.63
 417  13629.35
 418  13452.8
 419  13570.17
 420  13338.79
 421  12944.64
 422  12640.18
 423  12858.59
 424  12790.25
 425  12873.48
 426  12366.16
 427  12155.83
 428  12057.61
 429  12063.17
 430  12048.04
 431  12176.41
 432  12699.29
 433  12543.58
 434  12267.95
 435  12697.89
 436  12533.5
 437  11895.76
 438  11298.97
 439  11465.9
 440  11611.82
 441  11474.44
 442  11385.6
 443  10987.56
 444  10936.54
 445  11055.31
 446  11234.72
 447  11425.23
 448  11258.22
 449  11134
 450  11022.28
 451  10614.1
 452  10510.93
 453  10471.85
 454  11284.29
 455  11371.21
 456  11557.03
 457  11467.33
 458  12021.54
 459  12269.1
 460  12866.22
 461  12929.48
 462  11990.39
 463  12178.4
 464  12214.82
 465  12674.4
 466  12654
 467  12491.87
 468  12261.59
 469  12366.95
 470  12452.42
 471  12402.58
 472  12266.99
 473  12334.22
 474  11700.66
 475  11524.41
 476  11705.03
 477  11418.21
 478  11432.38
 479  11589.75
 480  11713.4
 481  11884.89
 482  11401.05
 483  10929.95
 484  10836.56
 485  11351.75
 486  11275.57
 487  10948.94
 488  11633.15
 489  11960.08
 490  11991.15
 491  12040.87
 492  11893.93
 493  11422.76
 494  11416.24
 495  11563.4
 496  11217.88
 497  10320.35
 498  9815.501
 499  9618.925
 500  10095.39
 501  10391.54
 502  10365.32
 503  10023.58
 504  10226.02
 505  10351.32
 506  10635.72
 507  10943.92
 508  10952.08
 509  10634.55
 510  10203.43
 511  9985.106
 512  10162.99
 513  10179.17
 514  10106
 515  9903.714
 516  10308.4
 517  10668.23
 518  10531.73
 519  10224.72
 520  10172.09
 521  10593.95
 522  10323.64
 523  10270.62
 524  10171.31
 525  10043.15
 526  10039.67
 527  10261.84
 528  10172.95
 529  10121.17
 530  9815.644
 531  10199.09
 532  10351.21
 533  10293.14
 534  10203.63
 535  10305.13
 536  10055.16
 537  9829.837
 538  9898.551
 539  10066.51
 540  10610.43
 541  10609.25
 542  10700.45
 543  10631.09
 544  10955.85
 545  11022.29
 546  11117.8
 547  11439.5
 548  11190.93
 549  11388.9
 550  11439.45
 551  12783.14
 552  13450.93
 553  13369.11
 554  13349.3
 555  13344.95
 556  13443.34
 557  12690.92
 558  12795.03
 559  13127.8
 560  13010.26
 561  13053.95
 562  13335.23
 563  13698.5
 564  13740.12
 565  13505.49
 566  14761.22
 567  14860.07
 568  14901.13
 569  15324.56
 570  15090.99
 571  14689.64
 572  14053.16
 573  13989.58
 574  14049.94
 575  14045.31
 576  14017.64
 577  14042.3
 578  13726.02
 579  13243.45
 580  13250.5
 581  13528.38
 582  13216.49
 583  13164.9
 584  13376.39
 585  13026.63
 586  11858.19
 587  11534.31
 588  12112.61
 589  12048.63
 590  11791.04
 591  12312.92
 592  11996.16
 593  12076.07
 594  11783.59
 595  12517.59
 596  12691.69
 597  12504.06
 598  12608.92
 599  12870.12
 600  12623.12
 601  12246.65
 602  12164.19
 603  12094.67
 604  11906.41
 605  12277.91
 606  11956.31
 607  11639.18
 608  11511.4
 609  11993.58
 610  12167.53
 611  11928.9
 612  11864.68
 613  12138.65
 614  13147.06
 615  13672.96
 616  13514.82
 617  13709.21
 618  13212.7
 619  12851.66
 620  11849.14
 621  11859.02
 622  12207.04
 623  12640.96
 624  12710.94
 625  12917.42
 626  13416.48
 627  13295.15
 628  12924.12
 629  12196.43
 630  12053.69
 631  12252.4
 632  12364.55
 633  12685.23
 634  13104.41
 635  13208.48
 636  13599.54
 637  14067.16
 638  15117.37
 639  15373.7
 640  14977.77
 641  14294.29
 642  13829.29
 643  13223.43
 644  13302.97
 645  13571.48
 646  13280.96
 647  13075.7
 648  13297.4
 649  13365.51
 650  13941.96
 651  13954.3
 652  13849.21
 653  14096.31
 654  14025.24
 655  14034.51
 656  14137
 657  14013.48
 658  13609.25
 659  13642.95
 660  14389.74
 661  14720.86
 662  14822.23
 663  14831.44
 664  15080.77
 665  15163.47
 666  15230.11
 667  15602.22
 668  15332.1
 669  15078.15
 670  14950.94
 671  14410.57
 672  14214.19
 673  14003.26
 674  14125.06
 675  13691.11
 676  12880.9
 677  12352.51
 678  12225.48
 679  11727.75
 680  11655.36
 681  11420.61
 682  11345.73
 683  11813.95
 684  11921.16
 685  11930.24
 686  11670.71
 687  11460.03
 688  11314.25
 689  11536.61
 690  10995.23
 691  11331.51
 692  11095.32
 693  11798.82
 694  11764.88
 695  11922.26
 696  12204.43
 697  12303.16
 698  12247.94
 699  12342.62
 700  12596.81
 701  12368.77
 702  12405.93
 703  12702.84
 704  12928.47
 705  12827.44
 706  12974.23
 707  13509.83
 708  13661.73
 709  13720.72
 710  13695.3
 711  13377.39
 712  13047.83
 713  12609.79
 714  12918.51
 715  13238.89
 716  12949.74
 717  13079.78
 718  13453.62
 719  14008.19
 720  14224.8
 721  14385.3
 722  14379.46
 723  14422.34
 724  14491.9
 725  14441.75
 726  14116.6
 727  14123.61
 728  13943.09
 729  13667.34
 730  13753.24
 731  13194.6
 732  12669.24
 733  12928.8
 734  13290.17
 735  13405.43
 736  13425.28
 737  13641.97
 738  13846.3
 739  14112.21
 740  14677.24
 741  14643.27
 742  14278.44
 743  13972.92
 744  13784.28
 745  13834.02
 746  13916.53
 747  13962.95
 748  13634.35
 749  13799.18
 750  14202.9
 751  13940.94
 752  13698.34
 753  13758.17
 754  13325.52
 755  13381.04
 756  14238.82
 757  13901.79
 758  13124.26
 759  12619.93
 760  12475.31
 761  12156.62
 762  11629.52
 763  11462.24
 764  11276.8
 765  11285.29
 766  11826.67
 767  11980.69
 768  12111.39
 769  12563.11
 770  12459.54
 771  12833.23
 772  13077.26
 773  12531.48
 774  11702.17
 775  11048.79
 776  10562.22
 777  10458.38
 778  10531.44
 779  10620.9
 780  10104.57
 781  10209.34
 782  10202.57
 783  11257.3
 784  11641.32
 785  11982.65
 786  12139.31
 787  11829.5
 788  11289.16
 789  11137.37
 790  11639.61
 791  11761.17
 792  11432.59
 793  10955.43
 794  11649.11
 795  12154.88
 796  13179.63
 797  12662.75
 798  12597.5
 799  13176.17
 800  14297.24
 801  14525.45
 802  14380.75
 803  14513.32
 804  14662.29
 805  14484.68
 806  14555.62
 807  14485.26
 808  14573.33
 809  14134
 810  14076.84
 811  13951.18
 812  13889.16
 813  13766.14
 814  13554.58
 815  13705.01
 816  13446.24
 817  13317.17
 818  13441.04
 819  13642.38
 820  13976.96
 821  13782.36
 822  13949.89
 823  14256.16
 824  14550.49
 825  14449.61
 826  14269.91
 827  14478.33
 828  14445.53
 829  15116.11
 830  15821.45
 831  15642.73
 832  15151.49
 833  14923.87
 834  14885.95
 835  14644.65
 836  14055.5
 837  14193.92
 838  14740.95
 839  14602.44
 840  14294.98
 841  13334.98
 842  13025.72
 843  12817.61
 844  12599.37
 845  12715.89
 846  12437.43
 847  12232.26
 848  12068.68
 849  11598.61
 850  11721.71
 851  11769.45
 852  11901.26
 853  11306.92
 854  11780.08
 855  12109.27
 856  12298.98
 857  12365.32
 858  12227.92
 859  12145.27
 860  11824.1
 861  11516.2
 862  11005.73
 863  11092.05
 864  11720.46
 865  11618.01
 866  10870.11
 867  10649.63
 868  10529.33
 869  10938.86
 870  11242.2
 871  11401.48
 872  11302.58
 873  10872.46
 874  11035.73
 875  11412.64
 876  11748.81
 877  11874.68
 878  12061.05
 879  12001.2
 880  12253.33
 881  11753.67
 882  11662.07
 883  12124.29
 884  12334.5
 885  12472.53
 886  12745.08
 887  12845.58
 888  13094.41
 889  12966.93
 890  12843.16
 891  12911.96
 892  12701.51
 893  12550.68
 894  13125.34
 895  13472.08
 896  13577.45
 897  13481.79
 898  13265.38
 899  12847.87
 900  12813.41
 901  13141.99
 902  13347.09
 903  13550.35
 904  13696.25
 905  13969.45
 906  14461.67
 907  15211.95
 908  15315.42
 909  15305.72
 910  15379.03
 911  15426.57
 912  15742.32
 913  15777.1
 914  15653.94
 915  16334.81
 916  16391.6
 917  16029.8
 918  15594.8
 919  16160.47
 920  16236.47
 921  15292.77
 922  14335.69
 923  14383.92
 924  14874.48
 925  14802.46
 926  14359.82
 927  13690.75
 928  12975.11
 929  12609.45
 930  12628.79
 931  12797.01
 932  12696.4
 933  12904.44
 934  13115.01
 935  13451.86
 936  13579.26
 937  13640.05
 938  13448.58
 939  13405.18
 940  13455.32
 941  13066.14
 942  12994.83
 943  13177.55
 944  13739.65
 945  13934.18
 946  14171.51
 947  13820.57
 948  13935.26
 949  13549.69
 950  12735.01
 951  13113.11
 952  14012.1
 953  14398.59
 954  14623.17
 955  15157.56
 956  15122.91
 957  15174.26
 958  14711.32
 959  14665.21
 960  14384.92
 961  13881.56
 962  13704.42
 963  13399.71
 964  14000.48
 965  14388.69
 966  14060.03
 967  12840.03
 968  12657.02
 969  13064.45
 970  13438.27
 971  13022.17
 972  13007.89
 973  12837.3
 974  13210.06
 975  13774.77
 976  13744.28
 977  13297.93
 978  13763.86
 979  14722.93
 980  14203.58
 981  14351.36
 982  14220.57
 983  14055.88
 984  14025.55
 985  14293.87
 986  14781.01
 987  14847.57
 988  14879.18
 989  15182.97
 990  15188.15
 991  15667.18
 992  16294.58
 993  16273.29
 994  16237.13
 995  15499.54
 996  15530.8
 997  17009.19
 998  17838.05
 999  18209.41
1000  17825.76
1001  18368.98
1002  18213.93
1003  18123.39
1004  17521.08
1005  17014.3
1006  16761.64
1007  17115.89
1008  17116.86
1009  16627.26
1010  16663.38
1011  17133.04
1012  17402.44
1013  17119.55
1014  16411.04
1015  15956.91
1016  15307.94
1017  15034.91
1018  16280.26
1019  16666.31
1020  16547.8
1021  16483.16
1022  16273.8
1023  16118.88
