# Input file       =  1183023208.110605_cleaned.dat
# Candidate        =  PSR_0332+5434
# Telescope        =  AR
# Epoch_topo       =  57936.398461928300
# Epoch_bary       =  N/A
# T_sample         =  0.002
# Data Folded      =  7340032
# Data Avg         =  0.141293927555255
# Data StdDev      =  3.6344916265     
# Profile Bins     =  1024
# Profile Avg      =  1012.82450571499 
# Profile StdDev   =  307.710751547701 
# Reduced chi-sqr  =  0.655
# Prob(Noise)      <  1   (~0.0 sigma)
# P_topo (ms)      =  714.488457510133  +/- 0.000266
# P'_topo (s/s)    =  -0                +/- 1.4e-10
# P''_topo (s/s^2) =  0                 +/- 6.2e-14
# P_bary (ms)      =  N/A
# P'_bary (s/s)    =  N/A
# P''_bary (s/s^2) =  N/A
# P_orb (s)        =  N/A
# asin(i)/c (s)    =  N/A
# eccentricity     =  N/A
# w (rad)          =  N/A
# T_peri           =  N/A
######################################################
   0  936.5839
   1  1062.47
   2  991.8617
   3  944.4275
   4  925.0524
   5  995.4394
   6  1064.723
   7  1113.286
   8  1026.917
   9  1015.796
  10  1114.285
  11  1244.73
  12  1145.577
  13  836.9026
  14  819.7755
  15  918.6719
  16  1080.911
  17  1118.458
  18  1144.449
  19  1247.517
  20  1172.746
  21  1173.548
  22  1017.404
  23  1011.584
  24  933.3354
  25  921.5567
  26  948.1003
  27  954.8363
  28  981.9547
  29  1057.285
  30  1045.4
  31  1044.205
  32  998.605
  33  1091.661
  34  1122.018
  35  1154.688
  36  1099.952
  37  1086.2
  38  1092.493
  39  1131.751
  40  1204.919
  41  1202.672
  42  1119.642
  43  1008.719
  44  1022.017
  45  1086.501
  46  1090.35
  47  1009.407
  48  960.0712
  49  902.7261
  50  952.9042
  51  948.7884
  52  959.3913
  53  931.538
  54  963.3494
  55  918.4315
  56  918.5479
  57  944.7508
  58  989.3051
  59  922.566
  60  888.0762
  61  887.9062
  62  902.3718
  63  997.2885
  64  1032.56
  65  1120.314
  66  1121.109
  67  1129.488
  68  1023.587
  69  1004.951
  70  903.5705
  71  751.1947
  72  701.3422
  73  746.7836
  74  816.9345
  75  773.8731
  76  954.2734
  77  1088.985
  78  1167.48
  79  1103.599
  80  1106.482
  81  1117.737
  82  1144.34
  83  1196.319
  84  1311.033
  85  1327.629
  86  1276.723
  87  1050.35
  88  975.3635
  89  949.4247
  90  1033.766
  91  960.4723
  92  941.475
  93  972.1282
  94  1053.611
  95  1048.667
  96  1051.551
  97  1045.311
  98  1000.447
  99  970.2933
 100  908.4072
 101  977.4059
 102  968.6962
 103  981.7421
 104  832.4327
 105  911.1557
 106  983.4144
 107  1103.031
 108  1088.127
 109  1073.539
 110  1062.678
 111  991.0175
 112  1027.86
 113  1119.381
 114  1148.076
 115  1182.326
 116  1137.607
 117  1241.371
 118  1268.659
 119  1257.177
 120  1193.733
 121  1198.536
 122  1169.021
 123  1069.642
 124  1113.56
 125  1102.987
 126  1030.036
 127  1011.941
 128  1030.022
 129  1143.422
 130  1196.496
 131  1238.33
 132  1143.138
 133  1136.585
 134  1023.715
 135  928.3706
 136  715.6916
 137  794.4175
 138  933.3964
 139  1127.856
 140  1135.303
 141  1144.388
 142  992.9032
 143  840.7458
 144  887.5297
 145  1041.078
 146  1230.981
 147  1229.8
 148  1076.276
 149  869.5249
 150  786.5222
 151  767.814
 152  837.2625
 153  943.2288
 154  1004.004
 155  1023.273
 156  953.3156
 157  950.5417
 158  1045.789
 159  1026.546
 160  1084.115
 161  1119.36
 162  1119.561
 163  1142.345
 164  1135.365
 165  1150.601
 166  1066.768
 167  1001.779
 168  1047.768
 169  1038.72
 170  1012.033
 171  907.1493
 172  910.8334
 173  941.821
 174  1022.972
 175  957.2109
 176  905.9476
 177  1079.471
 178  1168.356
 179  1231.781
 180  1065.637
 181  1004.658
 182  1014.441
 183  1063.193
 184  981.7841
 185  878.1115
 186  892.8786
 187  879.7256
 188  984.6354
 189  1002.765
 190  973.5604
 191  993.8203
 192  984.5609
 193  991.9025
 194  1002.436
 195  1093.06
 196  1187.495
 197  1138.209
 198  1104.057
 199  1028.805
 200  1057.963
 201  1064.134
 202  1064.296
 203  1051.437
 204  1046.928
 205  1150.977
 206  1268.328
 207  1192.965
 208  1058.547
 209  993.9898
 210  1164.045
 211  1280.044
 212  1235.745
 213  1169.236
 214  1110.492
 215  1158.923
 216  1141.476
 217  1146.702
 218  974.8522
 219  924.9502
 220  949.3754
 221  1034.518
 222  1096.778
 223  1070.22
 224  1030.405
 225  1046.576
 226  1162.379
 227  1271.922
 228  1243.297
 229  1112.585
 230  999.8792
 231  1045.598
 232  1130.12
 233  1172.04
 234  1057.772
 235  1026.878
 236  1038.951
 237  987.5878
 238  1036.861
 239  997.0488
 240  1054.146
 241  1054.148
 242  1127.307
 243  1156.791
 244  1096.513
 245  1019.145
 246  971.6578
 247  1030.408
 248  1121.769
 249  1228.144
 250  1228.435
 251  1066.009
 252  995.6787
 253  991.7872
 254  1086.058
 255  1010.645
 256  1001.063
 257  1017.675
 258  1079.398
 259  1142.831
 260  1128.734
 261  1075.46
 262  1103.885
 263  1091.937
 264  1080.986
 265  1095.642
 266  1176.4
 267  1081.624
 268  808.7181
 269  593.6805
 270  735.0547
 271  943.2045
 272  1116.064
 273  1182.232
 274  1219.745
 275  1278.168
 276  1227.644
 277  1199.254
 278  1128.785
 279  1159.254
 280  1189.882
 281  1235.185
 282  1198.365
 283  1146.514
 284  1099.722
 285  1237.224
 286  1243.735
 287  1221.066
 288  1062.755
 289  1004.892
 290  1043.953
 291  1075.022
 292  1099.312
 293  1037.647
 294  1081.06
 295  1158.569
 296  1273.49
 297  1328.088
 298  1403.393
 299  1280.283
 300  1147.569
 301  1115.954
 302  1060.953
 303  934.1486
 304  891.8016
 305  846.3558
 306  935.1986
 307  890.6643
 308  944.2583
 309  906.006
 310  930.105
 311  949.3276
 312  1077.239
 313  1120.978
 314  1138.929
 315  1036.397
 316  880.5797
 317  790.1332
 318  815.0474
 319  897.0209
 320  966.805
 321  947.6935
 322  893.7335
 323  864.3397
 324  906.8699
 325  963.0062
 326  989.6472
 327  911.4429
 328  972.9416
 329  981.405
 330  1098.891
 331  1033.799
 332  1021.161
 333  981.9563
 334  956.6807
 335  955.0573
 336  971.6591
 337  869.8096
 338  851.1386
 339  858.1966
 340  902.9395
 341  834.4609
 342  787.2912
 343  766.4901
 344  802.6849
 345  933.315
 346  1001.163
 347  876.4542
 348  816.6343
 349  864.3714
 350  951.3804
 351  994.9642
 352  867.315
 353  880.2027
 354  981.4514
 355  1040.758
 356  995.1119
 357  897.3468
 358  942.1851
 359  1005.176
 360  1026.191
 361  1079.741
 362  1064.598
 363  1013.462
 364  1037.869
 365  1055.155
 366  1043.071
 367  1011.869
 368  1049.176
 369  1047.22
 370  989.4965
 371  969.2579
 372  1033.458
 373  1059.017
 374  1045.083
 375  1031.094
 376  986.8463
 377  960.9705
 378  962.5472
 379  1033.135
 380  1128.542
 381  1165.793
 382  1186.936
 383  1079.912
 384  967.9866
 385  855.1589
 386  790.1144
 387  863.4738
 388  1035.299
 389  1132.054
 390  1035.462
 391  944.0059
 392  922.2874
 393  961.657
 394  926.1205
 395  916.8729
 396  933.0643
 397  978.9316
 398  1045.411
 399  1105.18
 400  1092.903
 401  1019.108
 402  1045.729
 403  969.7988
 404  984.2487
 405  851.1106
 406  893.0372
 407  925.0441
 408  1108.927
 409  1108.774
 410  1139.2
 411  1074.914
 412  1057.837
 413  1074.245
 414  1062.881
 415  912.0091
 416  781.1224
 417  840.2759
 418  1030.173
 419  1132.351
 420  1125.034
 421  1042.641
 422  1002.6
 423  1095.677
 424  1234.972
 425  1174.454
 426  1070.23
 427  972.5797
 428  955.9273
 429  890.6638
 430  862.45
 431  917.3467
 432  909.7896
 433  872.9957
 434  878.588
 435  934.2769
 436  898.923
 437  781.9756
 438  738.9014
 439  852.8915
 440  929.9672
 441  1036.63
 442  971.5887
 443  988.5046
 444  896.4055
 445  934.2665
 446  965.2824
 447  1025.076
 448  982.5487
 449  931.7844
 450  931.0591
 451  895.4057
 452  890.0828
 453  929.6885
 454  1014.481
 455  1065.905
 456  1096.523
 457  1214.774
 458  1192.26
 459  1105.005
 460  1009.217
 461  1112.247
 462  1276.404
 463  1310.929
 464  1250.894
 465  1109.298
 466  1107.989
 467  1096.745
 468  1142.526
 469  952.9297
 470  848.5594
 471  858.4466
 472  1007.738
 473  1106.457
 474  1166.564
 475  1169.26
 476  1259.253
 477  1253.204
 478  1225.624
 479  1059.727
 480  1048.753
 481  1007.14
 482  1070.033
 483  1108.507
 484  1088.614
 485  971.9473
 486  893.0837
 487  966.0384
 488  1016.606
 489  1072.752
 490  1003.68
 491  1078.918
 492  1124.573
 493  1131.324
 494  1027.15
 495  943.7048
 496  856.9459
 497  840.5234
 498  836.7726
 499  919.6523
 500  987.9998
 501  1042.652
 502  1065.277
 503  1011.277
 504  1048.264
 505  1037.174
 506  997.355
 507  895.8636
 508  913.274
 509  1100.122
 510  1157.848
 511  1160.277
 512  1057.776
 513  1098.051
 514  1074.544
 515  971.2175
 516  968.7665
 517  943.126
 518  993.2502
 519  1078.586
 520  1101.835
 521  1098.354
 522  1023.525
 523  970.2028
 524  1047.065
 525  1015.46
 526  1098.396
 527  1083.507
 528  1052.925
 529  998.2833
 530  1013.348
 531  1061.026
 532  970.5547
 533  845.9072
 534  837.3315
 535  926.4619
 536  1034.966
 537  1009.777
 538  929.5851
 539  903.8118
 540  914.755
 541  980.4424
 542  908.1897
 543  926.2693
 544  988.3085
 545  1077.574
 546  1151.663
 547  1112.535
 548  1121.51
 549  1184.573
 550  1179.026
 551  1198.23
 552  1065.984
 553  999.1039
 554  1014.272
 555  1064.918
 556  1131.578
 557  1143.858
 558  958.3875
 559  963.3591
 560  1090.734
 561  1235.848
 562  1197.454
 563  1054.092
 564  933.2032
 565  961.2256
 566  977.8081
 567  1073.474
 568  920.6462
 569  859.914
 570  929.0252
 571  990.5029
 572  922.6798
 573  804.2804
 574  844.4091
 575  851.7686
 576  893.9647
 577  1006.052
 578  1177.059
 579  1075.471
 580  947.0595
 581  909.0165
 582  992.3848
 583  893.8959
 584  799.2262
 585  825.3732
 586  879.3961
 587  844.6008
 588  687.1221
 589  646.0457
 590  643.7747
 591  722.5405
 592  846.3923
 593  851.0904
 594  863.9105
 595  868.1417
 596  1016.431
 597  1126.537
 598  1119.252
 599  1038.289
 600  866.6915
 601  853.5494
 602  859.45
 603  929.0985
 604  988.7914
 605  1039.058
 606  1056.496
 607  907.8193
 608  882.1047
 609  831.0969
 610  963.9895
 611  950.2708
 612  973.6317
 613  964.2335
 614  992.5419
 615  964.6047
 616  926.8007
 617  877.3994
 618  919.741
 619  874.8061
 620  826.2673
 621  774.9324
 622  795.2097
 623  887.5239
 624  895.7679
 625  885.2718
 626  883.5608
 627  862.6578
 628  896.1666
 629  957.1628
 630  1004.759
 631  932.3544
 632  991.642
 633  1142.09
 634  1211.011
 635  1027.914
 636  898.367
 637  953.4406
 638  1022.092
 639  1133.233
 640  1125.713
 641  1169.526
 642  1117.31
 643  1110.777
 644  1076.051
 645  1152.157
 646  1219.184
 647  1314.036
 648  1307.032
 649  1370.668
 650  1390.137
 651  1481.588
 652  1510.368
 653  1527.35
 654  1599.376
 655  1577.487
 656  1722.747
 657  1676.472
 658  1601.299
 659  1398.136
 660  1360.957
 661  1320.144
 662  1149.24
 663  1024.839
 664  937.1992
 665  905.7987
 666  873.2913
 667  867.383
 668  1003.904
 669  1076.748
 670  1010.923
 671  929.9356
 672  917.2829
 673  1084.865
 674  1099.537
 675  1048.064
 676  997.4807
 677  1077.6
 678  1055.593
 679  1041.222
 680  963.6269
 681  972.4368
 682  1006.391
 683  1201.024
 684  1271.4
 685  1142.216
 686  902.7889
 687  805.1431
 688  903.6169
 689  914.2853
 690  1034.849
 691  1058.919
 692  1105.539
 693  1127.502
 694  1167.904
 695  1140.728
 696  1084.099
 697  955.9583
 698  743.3937
 699  644.4606
 700  608.6934
 701  713.2183
 702  694.335
 703  672.2303
 704  784.4949
 705  939.6776
 706  973.9655
 707  873.7462
 708  659.5051
 709  671.6823
 710  750.6601
 711  894.3019
 712  927.6983
 713  884.7058
 714  929.1114
 715  1037.27
 716  1101.893
 717  1059.439
 718  980.931
 719  982.4694
 720  944.1654
 721  948.0917
 722  1005.723
 723  1007.54
 724  1010.135
 725  1075.363
 726  1184.784
 727  1183.021
 728  988.9578
 729  1006.135
 730  932.8036
 731  996.5012
 732  905.8676
 733  1031.364
 734  1050.967
 735  1121.379
 736  1089.118
 737  1110.896
 738  990.3311
 739  945.997
 740  1006.282
 741  1100.252
 742  1111.932
 743  1097.162
 744  1217.87
 745  1279.792
 746  1248.859
 747  1082.614
 748  985.6224
 749  864.5865
 750  809.2185
 751  787.1324
 752  804.4922
 753  827.5777
 754  889.1293
 755  965.2837
 756  971.3466
 757  1035.054
 758  1019.955
 759  1056.469
 760  1033.601
 761  1079.195
 762  1088.133
 763  1064.489
 764  919.0873
 765  785.5469
 766  796.0577
 767  903.7478
 768  967.9202
 769  897.8761
 770  948.2843
 771  1080.157
 772  1157.095
 773  1110.828
 774  1007.642
 775  1016.097
 776  1062.331
 777  1160.677
 778  1189.164
 779  1136.348
 780  1116.469
 781  1177.067
 782  1116.037
 783  1100.278
 784  1118.71
 785  1196.576
 786  1178.091
 787  1052.304
 788  1020.264
 789  923.2585
 790  956.5222
 791  887.5424
 792  1008.576
 793  1055.922
 794  1110.898
 795  1104.817
 796  1186.363
 797  1206.525
 798  1165.366
 799  1129.427
 800  1007.532
 801  891.7728
 802  806.692
 803  821.6031
 804  911.5371
 805  995.2707
 806  1067.493
 807  997.627
 808  998.1696
 809  1035.501
 810  1198.768
 811  1249.895
 812  1179.627
 813  1138.954
 814  1108.803
 815  1132.106
 816  1095.167
 817  1084.877
 818  1131.837
 819  1128.127
 820  1170.882
 821  1140.365
 822  1121.97
 823  1040.323
 824  1045.3
 825  1068.249
 826  1062.978
 827  1036.601
 828  1101.97
 829  1039.155
 830  946.7571
 831  739.1118
 832  740.0723
 833  818.0759
 834  954.5573
 835  927.7484
 836  864.8384
 837  892.8318
 838  920.2039
 839  934.9892
 840  828.9634
 841  883.9896
 842  854.4763
 843  918.2862
 844  899.2251
 845  1032.805
 846  1084.269
 847  1078.845
 848  1073.58
 849  992.3792
 850  876.5886
 851  795.8822
 852  776.9698
 853  847.4958
 854  840.1717
 855  877.4782
 856  911.9139
 857  962.4846
 858  966.1517
 859  889.9359
 860  813.4624
 861  908.8846
 862  1126.081
 863  1237.948
 864  1241.995
 865  1179.802
 866  1057.402
 867  981.3582
 868  964.5021
 869  1134.098
 870  1171.316
 871  1214.125
 872  1177.435
 873  1177.152
 874  1104.436
 875  1018.905
 876  1043.102
 877  1127.994
 878  1162.216
 879  1100.753
 880  1078.16
 881  1095.468
 882  1112.338
 883  1122.236
 884  1047.682
 885  1053.045
 886  1061.979
 887  1123.219
 888  1153.096
 889  1152.617
 890  1156.588
 891  1048.011
 892  1055.305
 893  1090.028
 894  1125.309
 895  1120.478
 896  1085.213
 897  989.8431
 898  993.0306
 899  966.5247
 900  1003.849
 901  987.2831
 902  1118.667
 903  1154.617
 904  1170.852
 905  952.6793
 906  924.989
 907  854.54
 908  961.6758
 909  1030.283
 910  1061.976
 911  1030.365
 912  833.9781
 913  842.1741
 914  845.4263
 915  820.0081
 916  799.4037
 917  825.5026
 918  890.3615
 919  930.1633
 920  907.1373
 921  1010.305
 922  983.2093
 923  965.2231
 924  912.1289
 925  965.8671
 926  1052.901
 927  994.0419
 928  820.918
 929  754.9213
 930  795.3111
 931  894.2704
 932  952.3888
 933  890.6459
 934  954.3696
 935  892.5477
 936  831.3586
 937  741.1101
 938  835.9207
 939  834.034
 940  860.3922
 941  775.5221
 942  836.8341
 943  759.1334
 944  785.5175
 945  861.5179
 946  994.9927
 947  1064.661
 948  1121.808
 949  1069.752
 950  987.3799
 951  811.565
 952  763.3552
 953  711.9091
 954  730.5898
 955  622.6022
 956  626.0949
 957  685.4325
 958  827.5253
 959  883.1188
 960  901.2095
 961  940.2425
 962  994.4421
 963  936.9087
 964  976.3054
 965  929.4754
 966  839.3455
 967  701.3429
 968  778.6412
 969  928.3048
 970  974.6194
 971  955.3905
 972  982.4703
 973  957.6395
 974  990.9283
 975  1030.073
 976  1052.224
 977  920.4785
 978  862.6723
 979  870.0094
 980  1000.617
 981  988.2593
 982  975.6889
 983  902.0054
 984  1015.652
 985  1100.969
 986  1165.988
 987  1029.357
 988  921.9531
 989  861.2129
 990  847.7883
 991  822.0435
 992  809.7562
 993  835.0611
 994  826.0826
 995  805.8487
 996  842.6319
 997  949.5707
 998  1019.477
 999  1071.573
1000  991.0272
1001  1000.227
1002  932.2168
1003  889.4305
1004  907.0756
1005  1005.334
1006  1092.555
1007  1110.705
1008  1110.016
1009  1041.1
1010  965.8128
1011  945.8785
1012  901.2394
1013  953.9823
1014  978.7879
1015  1032.242
1016  1024.581
1017  1020.234
1018  1022.686
1019  995.8738
1020  958.6266
1021  963.1427
1022  856.6942
1023  932.2206
