# Input file       =  1183941209.125544_cleaned.dat
# Candidate        =  PSR_0332+5434
# Telescope        =  AR
# Epoch_topo       =  57947.023473675275
# Epoch_bary       =  N/A
# T_sample         =  0.002
# Data Folded      =  7143424
# Data Avg         =  0.140614452275208
# Data StdDev      =  4.78929697475991 
# Profile Bins     =  1024
# Profile Avg      =  980.801739135581 
# Profile StdDev   =  400.013827029532 
# Reduced chi-sqr  =  0.551
# Prob(Noise)      <  1   (~0.0 sigma)
# P_topo (ms)      =  714.480243758989  +/- 5.73e-05
# P'_topo (s/s)    =  -0                +/- 3.11e-11
# P''_topo (s/s^2) =  0                 +/- 1.41e-14
# P_bary (ms)      =  N/A
# P'_bary (s/s)    =  N/A
# P''_bary (s/s^2) =  N/A
# P_orb (s)        =  N/A
# asin(i)/c (s)    =  N/A
# eccentricity     =  N/A
# w (rad)          =  N/A
# T_peri           =  N/A
######################################################
   0  772.9677
   1  873.3078
   2  953.9816
   3  1028.203
   4  1120.495
   5  1104.501
   6  1045.834
   7  1002.932
   8  947.2893
   9  925.4161
  10  1018.062
  11  1172.961
  12  1258.499
  13  1240.808
  14  1115.231
  15  813.7139
  16  812.6711
  17  724.3393
  18  714.4493
  19  768.7075
  20  954.9729
  21  1112.333
  22  1118.943
  23  927.7757
  24  784.6433
  25  756.5259
  26  896.7268
  27  1106.516
  28  1059.218
  29  940.4631
  30  934.295
  31  1030.659
  32  1063.964
  33  1056.653
  34  1174.381
  35  1159.099
  36  1163.162
  37  1036.304
  38  1051.542
  39  907.9894
  40  747.8174
  41  783.7875
  42  657.1827
  43  679.0951
  44  711.7243
  45  1033.797
  46  1125.997
  47  1328.71
  48  1289.518
  49  1223.647
  50  915.6058
  51  793.1564
  52  841.6145
  53  946.7659
  54  991.921
  55  995.1111
  56  921.003
  57  816.6183
  58  700.2456
  59  896.5572
  60  910.5314
  61  1113.995
  62  1135.311
  63  1307.933
  64  1254.736
  65  1039.044
  66  982.1337
  67  902.8337
  68  853.3043
  69  931.5951
  70  1049.442
  71  1088.122
  72  1083.034
  73  1031.738
  74  951.5278
  75  927.9484
  76  929.9446
  77  958.8712
  78  1003.625
  79  1031.578
  80  984.6075
  81  1109.095
  82  980.5977
  83  939.5933
  84  924.8341
  85  1124.003
  86  1278.666
  87  1155.902
  88  908.169
  89  845.6804
  90  781.6334
  91  816.5251
  92  799.6165
  93  841.1856
  94  898.953
  95  1044.309
  96  1051.928
  97  1096.663
  98  869.5222
  99  903.8612
 100  1045.957
 101  1128.591
 102  1004.304
 103  909.3536
 104  1013.83
 105  1011.243
 106  1057.179
 107  1024.643
 108  1035.234
 109  1071.83
 110  1018.165
 111  999.3049
 112  965.3511
 113  905.3649
 114  906.0443
 115  841.4594
 116  747.4882
 117  693.1332
 118  798.4307
 119  993.2714
 120  996.5305
 121  919.2076
 122  1006.369
 123  1080.647
 124  1157.21
 125  1105.73
 126  1183.441
 127  1163.911
 128  1248.456
 129  1222.822
 130  1126.615
 131  1008.655
 132  852.6901
 133  817.8458
 134  850.8115
 135  905.3134
 136  929.9155
 137  1025.119
 138  953.8003
 139  922.8938
 140  1011.689
 141  944.4077
 142  999.7328
 143  1018.865
 144  1204.119
 145  1206.845
 146  1127.679
 147  947.8892
 148  699.3861
 149  611.9015
 150  640.2276
 151  891.8893
 152  931.2815
 153  1010.63
 154  896.5091
 155  836.9857
 156  828.6763
 157  924.072
 158  990.0677
 159  1081.957
 160  1162.384
 161  1132.309
 162  967.6524
 163  902.8361
 164  902.197
 165  1016.948
 166  853.2283
 167  913.1191
 168  1000.015
 169  1073.413
 170  1036.76
 171  952.4666
 172  1002.981
 173  853.6852
 174  897.6277
 175  869.5358
 176  947.8199
 177  959.014
 178  1056.681
 179  1173.946
 180  985.8315
 181  866.5905
 182  872.4357
 183  890.8256
 184  754.1705
 185  529.9406
 186  568.946
 187  707.1791
 188  869.9015
 189  956.8875
 190  988.1447
 191  858.0631
 192  808.3085
 193  932.9999
 194  983.0063
 195  849.222
 196  939.5346
 197  1011.223
 198  931.4978
 199  744.9731
 200  856.4622
 201  1091.033
 202  1248.621
 203  983.8989
 204  709.8056
 205  660.9018
 206  550.6284
 207  662.9156
 208  634.8538
 209  864.391
 210  960.6985
 211  990.7147
 212  942.4794
 213  822.3624
 214  804.0001
 215  839.7184
 216  965.8233
 217  902.2468
 218  833.5449
 219  860.4147
 220  774.4098
 221  685.5865
 222  630.5754
 223  836.0287
 224  998.2632
 225  1000.364
 226  986.757
 227  1199.513
 228  1280.356
 229  1298.962
 230  1111.278
 231  972.7339
 232  932.913
 233  989.2026
 234  1089.556
 235  1012.912
 236  905.0062
 237  781.5292
 238  866.1307
 239  772.4222
 240  705.9016
 241  703.6877
 242  822.8505
 243  914.5568
 244  996.5364
 245  972.9111
 246  937.2078
 247  898.8569
 248  953.6685
 249  997.3005
 250  818.1369
 251  729.6674
 252  870.5728
 253  1036.412
 254  971.2208
 255  941.5615
 256  785.9286
 257  677.2845
 258  717.0761
 259  812.5682
 260  928.6069
 261  1002.019
 262  1031.085
 263  1014.43
 264  909.8035
 265  766.6807
 266  831.6667
 267  903.5276
 268  973.2414
 269  955.8888
 270  1069.722
 271  1144.708
 272  1053.252
 273  902.9311
 274  912.7623
 275  989.4595
 276  875.3486
 277  783.6085
 278  702.6956
 279  618.2812
 280  655.0049
 281  674.957
 282  801.1421
 283  906.0369
 284  1027.698
 285  1050.637
 286  972.1861
 287  805.5071
 288  694.5212
 289  705.9421
 290  719.2732
 291  864.9073
 292  996.4742
 293  969.9103
 294  961.6633
 295  828.7263
 296  865.9526
 297  900.4558
 298  1038.31
 299  890.4846
 300  774.9343
 301  670.1618
 302  796.6968
 303  874.4289
 304  827.7424
 305  896.051
 306  907.7101
 307  1051.771
 308  983.4437
 309  922.3213
 310  864.7297
 311  882.1276
 312  980.6133
 313  946.0446
 314  825.0826
 315  706.0519
 316  701.1054
 317  759.9267
 318  737.9124
 319  835.7322
 320  999.6263
 321  995.6487
 322  836.1249
 323  772.2684
 324  732.3176
 325  907.7035
 326  1016.111
 327  1170.235
 328  1085.45
 329  820.937
 330  761.3657
 331  820.0723
 332  931.8263
 333  781.714
 334  888.9398
 335  1126.782
 336  1151.451
 337  972.4636
 338  907.6459
 339  1032.724
 340  1090.36
 341  1015.586
 342  1144.111
 343  1047.211
 344  934.3749
 345  820.966
 346  863.4505
 347  783.635
 348  802.772
 349  954.7143
 350  1054.618
 351  904.5423
 352  756.2583
 353  783.2947
 354  823.0325
 355  819.1656
 356  919.9366
 357  1015.75
 358  973.7577
 359  956.8422
 360  1027.379
 361  991.0479
 362  996.9306
 363  1099.032
 364  1307.035
 365  1169.382
 366  881.0405
 367  756.0568
 368  844.5549
 369  767.5776
 370  636.7256
 371  622.8752
 372  679.7809
 373  751.2787
 374  748.3332
 375  991.0368
 376  1144.907
 377  1191.488
 378  1179.861
 379  1224.225
 380  1134.971
 381  978.3279
 382  895.7689
 383  802.1079
 384  700.0258
 385  846.2241
 386  1024.726
 387  1161.002
 388  903.7073
 389  840.931
 390  883.2114
 391  1113.068
 392  1209.609
 393  1259.992
 394  1322.534
 395  1301.172
 396  1186.276
 397  1027.386
 398  951.1527
 399  1012.835
 400  1231.533
 401  1323.193
 402  1228.297
 403  882.1464
 404  936.1653
 405  999.7431
 406  997.3699
 407  1005.519
 408  1089.314
 409  1134.211
 410  1040.65
 411  994.339
 412  1001.073
 413  955.82
 414  896.178
 415  959.6301
 416  1081.036
 417  1102.072
 418  1143.777
 419  1114.788
 420  927.9656
 421  902.347
 422  927.4073
 423  1161.044
 424  1087.531
 425  952.5845
 426  820.5389
 427  932.3139
 428  821.0769
 429  814.2
 430  865.5049
 431  989.4499
 432  1024.948
 433  1014.313
 434  1142.55
 435  1078.367
 436  1026.839
 437  948.9031
 438  1078.563
 439  992.6336
 440  1006.434
 441  997.7401
 442  992.3428
 443  941.035
 444  1003.683
 445  1088.056
 446  935.632
 447  843.3929
 448  809.7961
 449  936.0957
 450  980.8686
 451  1000.151
 452  1000.201
 453  852.3221
 454  909.1129
 455  955.7865
 456  919.5176
 457  785.7536
 458  823.9999
 459  940.7452
 460  999.6341
 461  895.7808
 462  765.735
 463  878.4723
 464  965.215
 465  1094.173
 466  1047.331
 467  976.0317
 468  870.0856
 469  1020.578
 470  1014.539
 471  895.0096
 472  863.9823
 473  1035.06
 474  1116.21
 475  1114.104
 476  939.123
 477  1023.961
 478  1005.941
 479  863.7668
 480  608.0442
 481  534.9072
 482  671.5508
 483  993.6729
 484  978.2039
 485  800.3679
 486  623.0075
 487  672.2747
 488  893.3289
 489  939.4692
 490  910.1062
 491  1014.343
 492  1060.596
 493  1083.687
 494  865.768
 495  720.0614
 496  659.8978
 497  707.2002
 498  780.6572
 499  811.7728
 500  842.6589
 501  861.5903
 502  898.9615
 503  767.6957
 504  725.496
 505  790.1221
 506  918.903
 507  899.9387
 508  932.0666
 509  965.9579
 510  996.348
 511  1107.416
 512  1134.514
 513  1091.02
 514  928.0527
 515  867.6926
 516  1010.524
 517  1023.266
 518  967.6073
 519  1002.201
 520  1109.229
 521  1060.452
 522  843.1152
 523  739.6519
 524  832.2156
 525  1012.961
 526  1058.566
 527  1123.592
 528  1164.288
 529  1061.325
 530  894.8705
 531  1018.746
 532  1055.291
 533  1156.133
 534  1084.482
 535  1142.985
 536  914.7546
 537  966.1974
 538  958.8672
 539  1109.484
 540  878.9805
 541  901.5336
 542  1044.783
 543  1213.105
 544  1050.031
 545  812.4487
 546  815.0626
 547  910.9594
 548  1027.942
 549  1075.562
 550  1148.015
 551  1028.16
 552  913.8945
 553  983.3819
 554  930.2237
 555  643.5057
 556  707.2228
 557  853.0026
 558  1063.23
 559  942.8502
 560  1056.78
 561  1136.149
 562  1177.677
 563  1076.166
 564  1058.476
 565  1088.043
 566  960.9232
 567  961.3927
 568  1032.617
 569  977.9317
 570  958.1667
 571  1021.595
 572  1082.774
 573  907.6004
 574  905.4166
 575  1006.878
 576  1054.772
 577  781.9645
 578  802.3961
 579  933.1533
 580  1025.366
 581  1056.607
 582  1101.209
 583  1105.838
 584  1043.36
 585  1125.133
 586  1166.317
 587  1320.926
 588  1227.701
 589  1228.77
 590  1179.245
 591  1132.983
 592  1049.806
 593  1004.417
 594  894.7958
 595  768.1006
 596  747.5333
 597  993.4315
 598  1228.366
 599  1402.107
 600  1257.53
 601  1177.604
 602  1039.83
 603  1100.489
 604  1148.77
 605  1067.425
 606  1069.946
 607  1126.104
 608  1211.138
 609  1080.872
 610  1052.579
 611  1065.693
 612  1296.223
 613  1189.961
 614  1036.203
 615  1105.61
 616  1267.828
 617  1266.509
 618  1123.902
 619  924.2588
 620  840.2462
 621  877.2278
 622  984.1013
 623  1052.178
 624  980.1652
 625  939.1615
 626  1025.429
 627  976.6442
 628  947.5964
 629  908.7274
 630  1198.596
 631  1237.609
 632  1277.31
 633  1158.351
 634  1088.734
 635  1011.687
 636  957.5884
 637  1076.154
 638  1011.131
 639  986.3495
 640  1047.093
 641  1163.7
 642  1149.32
 643  1085.578
 644  1088.241
 645  1205.305
 646  1346.786
 647  1459.76
 648  1481.384
 649  1641.299
 650  1836.949
 651  1926.487
 652  1870.508
 653  1754.071
 654  1744.259
 655  1691.308
 656  1516.369
 657  1429.752
 658  1520.268
 659  1500.582
 660  1358.585
 661  1171.881
 662  1042.71
 663  921.9673
 664  884.8036
 665  930.5936
 666  935.0431
 667  955.311
 668  1033.359
 669  1073.013
 670  986.9056
 671  1010.747
 672  1104.298
 673  1211.793
 674  1142.875
 675  1062.855
 676  886.5531
 677  1027.311
 678  968.4324
 679  1098.366
 680  1122.488
 681  1159.293
 682  1074.8
 683  1083.411
 684  1102.364
 685  1011.588
 686  963.1989
 687  902.3613
 688  946.6779
 689  917.5812
 690  942.4995
 691  1038.88
 692  903.3223
 693  872.8977
 694  877.4832
 695  1059.782
 696  978.0048
 697  1033.45
 698  1046.919
 699  1074.647
 700  976.8217
 701  937.8732
 702  971.3201
 703  861.0509
 704  802.973
 705  963.7953
 706  941.9697
 707  905.5101
 708  826.0545
 709  911.2594
 710  992.1052
 711  1040.301
 712  1029.014
 713  1074.538
 714  1002.71
 715  903.7684
 716  897.2941
 717  927.3332
 718  1068.365
 719  1187.496
 720  1285.366
 721  1154.765
 722  987.411
 723  908.3928
 724  959.2684
 725  1037.615
 726  1127.246
 727  1231.556
 728  1221.891
 729  1070.723
 730  1089.876
 731  1131.84
 732  1173.092
 733  1049.646
 734  1043.043
 735  971.7223
 736  918.1066
 737  873.0882
 738  1002.957
 739  1154.844
 740  1142.96
 741  1126.503
 742  1052.674
 743  952.1294
 744  792.7236
 745  941.8626
 746  1047.961
 747  1081.831
 748  958.0959
 749  1006.196
 750  1003.43
 751  1043.193
 752  995.66
 753  1018.016
 754  1041.606
 755  1144.294
 756  1301.111
 757  1212.629
 758  1062.186
 759  808.7802
 760  908.3903
 761  1040.826
 762  1250.136
 763  1194.028
 764  1187.017
 765  1079.651
 766  923.6664
 767  882.3438
 768  888.4484
 769  913.5517
 770  971.9698
 771  882.5161
 772  879.6674
 773  733.301
 774  790.8346
 775  798.6456
 776  845.3959
 777  794.3269
 778  944.2289
 779  997.6317
 780  1069.793
 781  913.5498
 782  952.7772
 783  1045.946
 784  1209.596
 785  1162.921
 786  1133.872
 787  1096.759
 788  1093.722
 789  1014.022
 790  1121.045
 791  1020.399
 792  997.8829
 793  944.7618
 794  1071.212
 795  1169.225
 796  1122.438
 797  1096.618
 798  1112.178
 799  1172.399
 800  1136.04
 801  1075.484
 802  939.6921
 803  983.6152
 804  1162.225
 805  1255.572
 806  1283.859
 807  1206.445
 808  1196.31
 809  1062.504
 810  985.6649
 811  917.9448
 812  950.6621
 813  1042.471
 814  1079.79
 815  1055.529
 816  944.2665
 817  994.5434
 818  1020.846
 819  1042.974
 820  1063.731
 821  1125.648
 822  1119.427
 823  1249.345
 824  1240.295
 825  1252.456
 826  1222.804
 827  1205.876
 828  1207.67
 829  1144.679
 830  1145.321
 831  1018.213
 832  1004.27
 833  836.885
 834  831.5004
 835  814.71
 836  950.1377
 837  913.7394
 838  959.2034
 839  897.2235
 840  894.9083
 841  870.7769
 842  870.094
 843  1012.675
 844  899.8415
 845  769.3309
 846  755.1391
 847  937.9946
 848  1039.064
 849  1039.488
 850  897.3502
 851  1025.805
 852  953.2971
 853  986.5203
 854  823.3752
 855  847.9739
 856  797.8809
 857  936.9078
 858  913.4578
 859  842.9997
 860  794.2666
 861  812.2056
 862  961.0795
 863  1044.72
 864  1086.357
 865  1151.803
 866  1100.688
 867  1063.553
 868  940.4139
 869  1100.7
 870  1120.816
 871  1163.019
 872  1099.264
 873  1045.669
 874  919.4886
 875  902.7888
 876  937.7373
 877  937.5566
 878  858.9067
 879  780.9105
 880  915.361
 881  750.1293
 882  815.1193
 883  740.9174
 884  808.8831
 885  810.0256
 886  916.2659
 887  1030.843
 888  1165.88
 889  1145.204
 890  1205.438
 891  1086.099
 892  998.1827
 893  892.9294
 894  1010.968
 895  1126.466
 896  1054.198
 897  988.652
 898  996.1427
 899  1009.081
 900  985.3765
 901  924.5312
 902  1001.312
 903  943.6284
 904  981.6601
 905  1016.239
 906  1062.93
 907  984.5266
 908  921.2157
 909  953.2151
 910  772.4559
 911  809.0499
 912  907.1022
 913  1125.398
 914  1055.533
 915  858.3639
 916  898.7029
 917  900.8101
 918  998.3687
 919  1010.703
 920  896.2769
 921  839.1126
 922  852.5876
 923  1051.148
 924  1109.103
 925  1117.392
 926  977.8282
 927  969.9347
 928  1083.707
 929  1071.693
 930  1073.456
 931  1044.17
 932  1070.558
 933  942.7709
 934  812.4231
 935  741.9407
 936  869.5266
 937  912.1442
 938  1088.037
 939  1005.642
 940  910.393
 941  727.6828
 942  759.1227
 943  836.4254
 944  946.0671
 945  917.4658
 946  871.8719
 947  871.8532
 948  809.9014
 949  711.1578
 950  665.9221
 951  608.4561
 952  715.8372
 953  843.0936
 954  952.1208
 955  936.7239
 956  956.835
 957  958.4767
 958  878.5863
 959  902.7518
 960  988.5079
 961  1180.191
 962  1182.064
 963  1037.207
 964  989.2325
 965  1052.644
 966  1189.31
 967  1338.873
 968  1233.753
 969  1268.157
 970  1102.954
 971  1175.586
 972  1105.844
 973  1105.98
 974  834.0745
 975  815.9831
 976  793.8593
 977  897.3837
 978  1005.481
 979  947.6272
 980  889.5455
 981  799.0005
 982  791.5143
 983  753.3649
 984  933.504
 985  1037.114
 986  1146.259
 987  1139.103
 988  1093.772
 989  1014.873
 990  941.0771
 991  909.8426
 992  752.7549
 993  748.3073
 994  909.6685
 995  1037.087
 996  985.4535
 997  953.1276
 998  1037.084
 999  965.9949
1000  1020.681
1001  1131.999
1002  1107.995
1003  1080.522
1004  918.326
1005  981.104
1006  888.9734
1007  755.4536
1008  633.3345
1009  621.5291
1010  678.4681
1011  766.1171
1012  840.6358
1013  955.4783
1014  931.3837
1015  1001.583
1016  885.2895
1017  897.7097
1018  975.8767
1019  1221.604
1020  1330.974
1021  1299.185
1022  983.9344
1023  830.1725
