# Input file       =  1183281104.121031_cleaned.dat
# Candidate        =  PSR_0332+5434
# Telescope        =  AR
# Epoch_topo       =  57939.383369456380
# Epoch_bary       =  N/A
# T_sample         =  0.002
# Data Folded      =  7340032
# Data Avg         =  0.0628430862636198
# Data StdDev      =  0.999933708435548
# Profile Bins     =  512
# Profile Avg      =  900.943936377731 
# Profile StdDev   =  119.725099086468 
# Reduced chi-sqr  =  0.871
# Prob(Noise)      <  0.984   (~0.0 sigma)
# P_topo (ms)      =  714.486118492092  +/- 0.000548
# P'_topo (s/s)    =  -0                +/- 2.89e-10
# P''_topo (s/s^2) =  0                 +/- 1.28e-13
# P_bary (ms)      =  N/A
# P'_bary (s/s)    =  N/A
# P''_bary (s/s^2) =  N/A
# P_orb (s)        =  N/A
# asin(i)/c (s)    =  N/A
# eccentricity     =  N/A
# w (rad)          =  N/A
# T_peri           =  N/A
######################################################
   0  1334.521
   1  1204.003
   2  1146.47
   3  972.1534
   4  902.7617
   5  978.7548
   6  914.8612
   7  890.6938
   8  839.9905
   9  804.9432
  10  821.217
  11  853.9749
  12  812.6292
  13  865.9771
  14  893.0273
  15  930.2994
  16  910.5784
  17  859.5866
  18  855.6262
  19  826.6665
  20  912.1502
  21  933.1835
  22  956.5534
  23  878.0847
  24  867.3583
  25  872.5318
  26  880.707
  27  826.961
  28  889.0477
  29  850.2316
  30  873.3709
  31  963.285
  32  1014.222
  33  950.3617
  34  853.8322
  35  897.5496
  36  913.4036
  37  920.6712
  38  809.746
  39  847.3527
  40  805.3932
  41  856.6538
  42  842.0903
  43  860.8434
  44  826.7019
  45  860.9996
  46  828.7907
  47  837.9033
  48  810.1685
  49  830.1183
  50  830.4301
  51  856.7068
  52  996.7104
  53  983.7883
  54  917.4938
  55  822.4432
  56  815.8807
  57  799.4493
  58  800.2515
  59  831.7065
  60  820.0422
  61  908.0997
  62  938.6723
  63  945.5847
  64  1036.171
  65  926.4615
  66  1018.899
  67  1021.681
  68  1091.216
  69  1037.402
  70  974.2236
  71  970.5967
  72  978.7961
  73  933.4281
  74  1034.704
  75  994.4141
  76  932.0931
  77  868.5047
  78  871.094
  79  943.1963
  80  912.9402
  81  870.3067
  82  922.9464
  83  942.9033
  84  948.9179
  85  892.8293
  86  907.402
  87  828.4822
  88  793.8675
  89  887.4532
  90  744.699
  91  784.895
  92  869.1509
  93  820.1066
  94  791.3156
  95  796.0773
  96  766.684
  97  824.976
  98  825.6731
  99  734.6196
 100  724.9879
 101  797.6102
 102  845.0422
 103  877.3173
 104  884.8628
 105  813.6178
 106  825.4769
 107  829.5894
 108  834.29
 109  754.7197
 110  883.6907
 111  907.1001
 112  916.066
 113  886.6545
 114  870.6562
 115  880.0534
 116  914.6403
 117  912.6867
 118  952.6558
 119  926.3179
 120  853.7585
 121  822.2088
 122  791.7602
 123  714.9869
 124  759.7388
 125  903.2291
 126  861.0717
 127  810.7057
 128  841.7903
 129  856.0292
 130  920.8106
 131  1009.268
 132  945.72
 133  837.139
 134  919.8057
 135  885.5507
 136  875.0561
 137  845.632
 138  935.666
 139  913.2546
 140  796.0237
 141  790.761
 142  864.3914
 143  849.2208
 144  842.1882
 145  931.0325
 146  912.2421
 147  993.836
 148  990.2408
 149  909.6128
 150  875.5522
 151  902.4307
 152  997.6223
 153  1021.858
 154  925.0001
 155  877.2198
 156  954.3152
 157  978.9523
 158  971.2684
 159  1015.523
 160  1009.945
 161  962.1053
 162  904.9431
 163  934.1916
 164  968.3998
 165  911.274
 166  769.4498
 167  814.946
 168  802.2614
 169  824.5841
 170  947.0704
 171  905.7565
 172  903.6229
 173  915.7066
 174  926.4341
 175  953.2831
 176  860.5528
 177  887.9407
 178  923.4171
 179  941.193
 180  1011.439
 181  918.9876
 182  789.7587
 183  887.6581
 184  935.477
 185  963.2357
 186  963.9501
 187  1034.778
 188  943.3491
 189  893.647
 190  885.0641
 191  878.0044
 192  873.792
 193  914.9009
 194  970.5238
 195  1027.341
 196  941.4535
 197  875.4948
 198  827.5914
 199  852.251
 200  885.7991
 201  874.9291
 202  1001.732
 203  898.8679
 204  868.3967
 205  850.0565
 206  885.6537
 207  1056.259
 208  967.064
 209  1009.959
 210  1017.529
 211  951.385
 212  986.412
 213  990.1957
 214  904.5842
 215  896.9391
 216  916.8981
 217  928.8013
 218  915.7007
 219  948.5755
 220  942.9139
 221  934.7548
 222  881.9465
 223  857.6544
 224  894.0926
 225  918.4145
 226  961.9684
 227  895.9789
 228  898.5887
 229  918.9756
 230  1035.676
 231  960.0184
 232  873.4562
 233  857.2936
 234  981.1351
 235  920.6627
 236  876.0399
 237  928.6592
 238  934.9822
 239  812.3047
 240  841.1172
 241  935.0449
 242  1011.834
 243  966.222
 244  927.4088
 245  833.1667
 246  862.7556
 247  977.2354
 248  855.981
 249  849.2625
 250  888.7042
 251  895.5131
 252  896.5703
 253  914.2826
 254  810.2632
 255  818.9762
 256  829.4266
 257  798.0663
 258  867.1371
 259  887.3679
 260  835.0032
 261  837.5792
 262  829.3813
 263  831.4286
 264  815.7078
 265  876.5359
 266  930.9598
 267  894.6608
 268  835.2186
 269  816.4031
 270  845.3967
 271  778.1796
 272  815.2558
 273  785.4252
 274  950.4666
 275  1005.105
 276  919.4653
 277  843.7624
 278  769.9725
 279  787.5317
 280  772.8375
 281  802.7736
 282  869.4218
 283  896.3469
 284  947.2118
 285  952.4506
 286  881.7584
 287  869.272
 288  887.5113
 289  910.7969
 290  855.0997
 291  881.0104
 292  948.9282
 293  946.1972
 294  849.9588
 295  890.3525
 296  869.7075
 297  878.5927
 298  868.2743
 299  914.3975
 300  944.2575
 301  955.539
 302  976.6022
 303  954.4146
 304  944.1735
 305  967.6205
 306  856.1486
 307  944.5328
 308  926.4774
 309  903.0321
 310  1002.925
 311  908.912
 312  821.8729
 313  887.9219
 314  945.3936
 315  950.6143
 316  869.8248
 317  947.0529
 318  1002.44
 319  944.5137
 320  938.2158
 321  898.2131
 322  803.6456
 323  919.0446
 324  935.5376
 325  939.7138
 326  938.9715
 327  894.5374
 328  943.9136
 329  834.7977
 330  773.9728
 331  939.996
 332  924.1846
 333  852.0991
 334  927.6384
 335  941.2794
 336  968.8386
 337  982.9595
 338  910.3705
 339  946.0195
 340  849.9729
 341  887.2338
 342  996.6598
 343  1025.803
 344  1002.575
 345  1041.163
 346  1029.257
 347  1020.4
 348  1002.785
 349  997.8166
 350  924.6974
 351  892.8919
 352  969.1807
 353  950.1712
 354  945.9024
 355  845.9514
 356  804.6488
 357  811.453
 358  864.8107
 359  845.2191
 360  936.813
 361  923.9828
 362  880.5613
 363  821.9042
 364  791.5537
 365  877.3118
 366  932.3796
 367  909.1626
 368  892.8015
 369  880.5598
 370  873.8487
 371  952.7725
 372  977.4158
 373  903.3452
 374  798.8442
 375  782.4766
 376  851.3989
 377  860.2546
 378  844.4322
 379  881.1045
 380  887.9877
 381  985.3441
 382  916.1295
 383  817.6637
 384  799.0792
 385  878.9021
 386  900.6711
 387  968.8373
 388  901.5513
 389  921.9932
 390  976.7738
 391  910.6125
 392  828.1609
 393  786.9949
 394  807.9072
 395  942.684
 396  918.9097
 397  890.6848
 398  906.3339
 399  971.2373
 400  980.8821
 401  922.1567
 402  876.3255
 403  872.845
 404  893.2401
 405  855.9067
 406  890.4517
 407  794.6631
 408  902.3455
 409  839.2335
 410  862.9862
 411  945.331
 412  871.3354
 413  835.0039
 414  829.2944
 415  855.1245
 416  884.796
 417  893.8795
 418  933.379
 419  852.5222
 420  926.6777
 421  885.8761
 422  886.2583
 423  846.9443
 424  934.0543
 425  978.5221
 426  916.1991
 427  887.0185
 428  935.3665
 429  911.9077
 430  872.3318
 431  939.16
 432  990.3007
 433  953.9988
 434  838.7117
 435  746.1671
 436  844.8477
 437  834.7668
 438  840.7537
 439  878.0688
 440  790.4703
 441  805.6786
 442  873.6002
 443  771.722
 444  778.2938
 445  858.149
 446  834.5764
 447  826.5253
 448  914.2166
 449  839.7643
 450  766.2817
 451  884.5621
 452  831.3734
 453  779.8173
 454  773.3284
 455  785.8276
 456  792.9175
 457  803.5602
 458  830.0724
 459  821.4501
 460  861.1493
 461  869.9096
 462  810.6876
 463  755.7092
 464  906.8454
 465  892.717
 466  967.5732
 467  916.7647
 468  897.9409
 469  889.0034
 470  918.3029
 471  994.3062
 472  948.2958
 473  879.2839
 474  916.2083
 475  904.9709
 476  963.7578
 477  975.1684
 478  969.2965
 479  809.8138
 480  796.042
 481  920.7607
 482  927.4023
 483  889.304
 484  959.4976
 485  1019.042
 486  1015.378
 487  955.7812
 488  862.7469
 489  855.1965
 490  907.0677
 491  967.4048
 492  976.4969
 493  1040.734
 494  975.3806
 495  936.3239
 496  929.1017
 497  972.3864
 498  1010.455
 499  1005.012
 500  940.9621
 501  793.7863
 502  829.7069
 503  923.4156
 504  1083.326
 505  1050.553
 506  1065.896
 507  1096.503
 508  1187.925
 509  1239.417
 510  1342.113
 511  1434.857
