# Input file       =  1183094583.125446_cleaned.dat
# Candidate        =  PSR_0332+5434
# Telescope        =  AR
# Epoch_topo       =  57937.224561637107
# Epoch_bary       =  N/A
# T_sample         =  0.002
# Data Folded      =  7340032
# Data Avg         =  0.0525988977029981
# Data StdDev      =  1.00019776190018 
# Profile Bins     =  512
# Profile Avg      =  753.894773199377 
# Profile StdDev   =  119.756715009554 
# Reduced chi-sqr  =  1.336
# Prob(Noise)      <  5.21e-07   (~4.9 sigma)
# P_topo (ms)      =  714.487469473703  +/- 0.00019
# P'_topo (s/s)    =  -0                +/- 1e-10
# P''_topo (s/s^2) =  0                 +/- 4.42e-14
# P_bary (ms)      =  N/A
# P'_bary (s/s)    =  N/A
# P''_bary (s/s^2) =  N/A
# P_orb (s)        =  N/A
# asin(i)/c (s)    =  N/A
# eccentricity     =  N/A
# w (rad)          =  N/A
# T_peri           =  N/A
######################################################
   0  557.4084
   1  640.9146
   2  673.3254
   3  776.34
   4  701.4564
   5  702.4621
   6  770.1735
   7  737.1363
   8  748.8804
   9  761.7284
  10  794.314
  11  782.8975
  12  809.1887
  13  818.0118
  14  841.4368
  15  728.9504
  16  697.7776
  17  699.176
  18  789.2969
  19  809.8906
  20  794.9033
  21  717.9203
  22  722.8958
  23  688.675
  24  634.0832
  25  637.6748
  26  715.3522
  27  656.2035
  28  703.173
  29  698.9543
  30  590.2468
  31  554.5327
  32  603.8258
  33  621.1404
  34  549.3436
  35  539.2797
  36  608.1909
  37  565.4737
  38  655.6956
  39  558.6584
  40  623.1512
  41  709.5272
  42  758.0465
  43  691.0002
  44  625.7057
  45  640.0237
  46  703.3608
  47  791.9492
  48  768.0403
  49  712.8222
  50  759.1838
  51  824.7731
  52  888.5739
  53  823.0286
  54  783.016
  55  718.4885
  56  752.7231
  57  799.1898
  58  810.1029
  59  778.8959
  60  691.048
  61  732.3831
  62  764.4042
  63  826.4547
  64  784.6788
  65  727.0483
  66  758.2524
  67  738.1742
  68  618.262
  69  706.0503
  70  799.0042
  71  857.3535
  72  806.9824
  73  757.5152
  74  643.8443
  75  718.8702
  76  811.797
  77  859.233
  78  813.7255
  79  902.2032
  80  889.1567
  81  760.4591
  82  770.203
  83  948.0229
  84  928.9481
  85  881.7013
  86  889.0075
  87  961.7939
  88  905.2874
  89  854.796
  90  890.3198
  91  933.4943
  92  847.8344
  93  854.1016
  94  853.1575
  95  900.2072
  96  922.928
  97  723.2731
  98  739.6339
  99  769.1171
 100  735.3944
 101  704.8444
 102  675.2786
 103  666.0483
 104  766.3698
 105  725.1801
 106  638.0699
 107  645.1975
 108  725.322
 109  692.1813
 110  822.2605
 111  731.0364
 112  690.1046
 113  755.4842
 114  838.8043
 115  795.8064
 116  738.3091
 117  661.773
 118  650.1076
 119  748.95
 120  806.3751
 121  800.025
 122  784.5638
 123  701.8849
 124  764.1088
 125  852.1748
 126  740.5575
 127  686.7532
 128  776.637
 129  818.1926
 130  708.7503
 131  649.3297
 132  739.4654
 133  765.1146
 134  662.92
 135  702.9244
 136  656.0847
 137  736.343
 138  842.9897
 139  774.5849
 140  768.5811
 141  731.9667
 142  768.1099
 143  692.01
 144  747.4178
 145  809.3455
 146  730.052
 147  798.5579
 148  718.4084
 149  753.7457
 150  752.4161
 151  711.8975
 152  725.7733
 153  824.9586
 154  812.3251
 155  761.1713
 156  824.9647
 157  682.0344
 158  667.7851
 159  758.2726
 160  767.3425
 161  801.2747
 162  850.2013
 163  708.4358
 164  700.7454
 165  698.7026
 166  757.8694
 167  792.7925
 168  711.2205
 169  750.7341
 170  785.9314
 171  816.3105
 172  816.9983
 173  792.2703
 174  822.1129
 175  844.5903
 176  862.8943
 177  876.8322
 178  826.0899
 179  841.1375
 180  797.0042
 181  828.687
 182  855.9225
 183  799.9396
 184  734.6512
 185  747.6923
 186  782.7337
 187  751.3762
 188  698.1188
 189  678.3867
 190  702.1876
 191  744.1143
 192  727.6646
 193  639.3759
 194  719.0607
 195  717.4064
 196  630.537
 197  671.9092
 198  671.7762
 199  701.7231
 200  745.016
 201  711.6802
 202  682.3026
 203  639.3442
 204  598.285
 205  666.9944
 206  712.5021
 207  630.2444
 208  643.1243
 209  691.3074
 210  788.752
 211  743.6525
 212  818.9784
 213  716.7693
 214  688.3957
 215  820.0976
 216  821.9264
 217  751.3552
 218  739.0421
 219  831.4739
 220  772.7572
 221  782.0251
 222  744.4013
 223  844.3805
 224  863.1513
 225  919.5383
 226  820.6997
 227  873.8447
 228  887.3409
 229  898.6457
 230  845.366
 231  787.85
 232  731.8774
 233  786.7238
 234  845.3167
 235  812.4269
 236  805.0555
 237  750.6613
 238  717.3807
 239  747.2259
 240  807.5631
 241  773.699
 242  833.0184
 243  683.6702
 244  666.9941
 245  689.018
 246  677.649
 247  762.4846
 248  755.0162
 249  893.9573
 250  856.228
 251  711.5955
 252  802.2186
 253  838.1697
 254  808.0714
 255  780.2803
 256  853.4531
 257  779.3716
 258  829.8276
 259  710.7969
 260  828.0715
 261  884.5986
 262  858.3198
 263  822.297
 264  881.5546
 265  894.3626
 266  801.6244
 267  776.5163
 268  819.9953
 269  795.5162
 270  725.6171
 271  682.3593
 272  697.2844
 273  666.7206
 274  676.5815
 275  634.6966
 276  685.8546
 277  705.8563
 278  714.7266
 279  530.9977
 280  467.0558
 281  532.8637
 282  617.3605
 283  678.5651
 284  705.2276
 285  639.9128
 286  669.7516
 287  710.73
 288  776.6194
 289  877.7113
 290  849.1596
 291  745.3248
 292  728.0309
 293  771.1254
 294  804.7844
 295  817.1548
 296  873.364
 297  782.1487
 298  750.3475
 299  798.1136
 300  761.0493
 301  811.3781
 302  860.0329
 303  853.1703
 304  895.116
 305  842.3289
 306  849.6107
 307  850.6462
 308  900.2617
 309  885.6113
 310  827.6732
 311  907.2669
 312  916.5645
 313  942.7684
 314  875.9415
 315  931.3396
 316  885.162
 317  813.6773
 318  866.315
 319  874.0664
 320  879.7317
 321  769.14
 322  782.5555
 323  815.5835
 324  805.259
 325  829.9717
 326  845.6733
 327  811.7769
 328  776.2722
 329  753.9573
 330  737.9969
 331  746.9205
 332  694.1993
 333  717.0184
 334  828.2079
 335  885.7742
 336  1092.478
 337  1270.237
 338  1360.051
 339  1380.99
 340  1256.169
 341  1018.146
 342  892.6924
 343  877.6672
 344  798.8469
 345  710.2416
 346  755.6926
 347  776.6268
 348  857.5185
 349  869.0252
 350  921.8583
 351  856.4347
 352  867.0026
 353  972.0765
 354  1017.543
 355  863.3424
 356  745.3576
 357  768.2406
 358  739.8693
 359  746.675
 360  752.5768
 361  715.6176
 362  644.9733
 363  658.1719
 364  721.5077
 365  665.5954
 366  627.0207
 367  662.9149
 368  701.7034
 369  679.9708
 370  647.5779
 371  580.103
 372  637.1705
 373  699.2123
 374  737.9201
 375  626.7
 376  697.215
 377  733.9579
 378  784.4883
 379  699.8552
 380  727.7876
 381  718.9405
 382  688.2064
 383  698.5793
 384  772.6644
 385  730.7527
 386  764.1562
 387  807.9907
 388  900.1218
 389  720.189
 390  713.1521
 391  855.665
 392  890.666
 393  761.5335
 394  813.1704
 395  775.9609
 396  795.9674
 397  832.0499
 398  769.5364
 399  797.5862
 400  655.2757
 401  707.1147
 402  743.0885
 403  664.5849
 404  540.2991
 405  592.5577
 406  618.3409
 407  688.1982
 408  610.1954
 409  604.3674
 410  723.4984
 411  720.5195
 412  777.9269
 413  716.3554
 414  669.0293
 415  753.1318
 416  721.3022
 417  620.5263
 418  610.3578
 419  715.0432
 420  739.0766
 421  708.0848
 422  624.5024
 423  648.8851
 424  689.0015
 425  718.7017
 426  746.0988
 427  776.1687
 428  709.6132
 429  789.1968
 430  799.9601
 431  787.941
 432  743.3134
 433  730.4951
 434  738.1573
 435  670.7928
 436  628.0533
 437  725.5281
 438  803.4568
 439  713.0328
 440  657.8401
 441  679.7075
 442  652.5115
 443  676.2217
 444  740.3262
 445  742.2917
 446  676.2601
 447  695.9518
 448  716.4022
 449  704.2521
 450  687.9675
 451  685.6615
 452  722.5969
 453  718.9432
 454  654.7219
 455  652.9067
 456  658.4307
 457  707.1915
 458  709.7715
 459  687.5328
 460  640.2062
 461  702.8803
 462  682.1499
 463  655.9431
 464  719.3581
 465  700.7926
 466  628.6889
 467  624.7001
 468  646.4618
 469  658.2711
 470  664.257
 471  702.9807
 472  707.1938
 473  698.9448
 474  733.0504
 475  744.4824
 476  748.844
 477  783.0232
 478  830.6865
 479  779.762
 480  840.108
 481  855.7405
 482  874.5729
 483  895.9441
 484  811.7339
 485  769.4649
 486  803.1522
 487  821.6868
 488  756.2574
 489  692.0574
 490  737.8074
 491  774.0311
 492  682.678
 493  612.5165
 494  648.4904
 495  664.933
 496  668.1436
 497  719.1682
 498  655.72
 499  588.816
 500  646.2974
 501  630.9755
 502  794.888
 503  725.2804
 504  587.2208
 505  620.504
 506  625.9487
 507  605.158
 508  584.6126
 509  607.8954
 510  680.1057
 511  666.48
