# Input file       =  1183955774.111918_cleaned.dat
# Candidate        =  PSR_0332+5434
# Telescope        =  AR
# Epoch_topo       =  57947.192049906458
# Epoch_bary       =  N/A
# T_sample         =  0.002
# Data Folded      =  7340032
# Data Avg         =  0.0538552814559978
# Data StdDev      =  1.00009022614212 
# Profile Bins     =  512
# Profile Avg      =  771.787369411892 
# Profile StdDev   =  119.743839426722 
# Reduced chi-sqr  =  1.658
# Prob(Noise)      <  4.7e-19   (~8.8 sigma)
# P_topo (ms)      =  714.480141414046  +/- 0.0003
# P'_topo (s/s)    =  -0                +/- 1.58e-10
# P''_topo (s/s^2) =  0                 +/- 6.98e-14
# P_bary (ms)      =  N/A
# P'_bary (s/s)    =  N/A
# P''_bary (s/s^2) =  N/A
# P_orb (s)        =  N/A
# asin(i)/c (s)    =  N/A
# eccentricity     =  N/A
# w (rad)          =  N/A
# T_peri           =  N/A
######################################################
   0  628.3235
   1  761.8895
   2  737.9128
   3  708.9167
   4  784.4547
   5  700.3469
   6  707.8524
   7  848.0396
   8  786.0314
   9  689.6062
  10  689.8207
  11  681.7955
  12  626.9122
  13  732.0248
  14  680.1402
  15  749.5676
  16  829.6658
  17  856.9048
  18  756.87
  19  769.1107
  20  743.1227
  21  781.8774
  22  889.7966
  23  920.1332
  24  907.2932
  25  870.9884
  26  806.4319
  27  799.8448
  28  838.6642
  29  862.8044
  30  829.5049
  31  699.5608
  32  695.7299
  33  821.6862
  34  779.4487
  35  802.827
  36  774.9163
  37  788.3329
  38  801.6627
  39  798.2192
  40  847.2465
  41  764.4997
  42  784.6783
  43  852.8012
  44  841.9621
  45  652.5397
  46  648.1488
  47  752.5757
  48  792.5734
  49  833.1812
  50  825.8782
  51  784.7153
  52  683.3565
  53  648.8314
  54  716.2148
  55  712.4133
  56  698.0781
  57  694.5692
  58  662.2705
  59  716.4137
  60  694.139
  61  666.7973
  62  636.7181
  63  663.5078
  64  683.8802
  65  677.5519
  66  704.3381
  67  729.0144
  68  695.1429
  69  581.7843
  70  749.0359
  71  778.6578
  72  732.5271
  73  736.7225
  74  809.3039
  75  914.93
  76  869.654
  77  697.7578
  78  712.8037
  79  787.8527
  80  829.5602
  81  942.8657
  82  913.9346
  83  742.7394
  84  732.3496
  85  716.7952
  86  736.0288
  87  687.4719
  88  717.0504
  89  747.4889
  90  759.4661
  91  757.3187
  92  772.6895
  93  704.0175
  94  651.5758
  95  729.8248
  96  729.1953
  97  698.4462
  98  702.2191
  99  716.2949
 100  707.5837
 101  780.2601
 102  785.7008
 103  816.1574
 104  817.4719
 105  739.8654
 106  759.716
 107  836.1504
 108  835.8331
 109  808.6765
 110  788.1052
 111  804.308
 112  787.23
 113  870.6091
 114  836.0153
 115  714.6537
 116  827.9915
 117  804.8772
 118  739.3486
 119  714.332
 120  722.1482
 121  737.8425
 122  725.9252
 123  818.8577
 124  715.5853
 125  763.4785
 126  739.5591
 127  702.554
 128  702.4824
 129  760.6982
 130  834.9343
 131  803.1176
 132  839.9236
 133  868.8643
 134  793.8297
 135  816.8502
 136  816.7184
 137  754.181
 138  697.4061
 139  735.7043
 140  783.7349
 141  700.1567
 142  702.1392
 143  648.5292
 144  716.6441
 145  835.3397
 146  704.1187
 147  719.5743
 148  876.3416
 149  900.2253
 150  751.8605
 151  594.8955
 152  565.9587
 153  666.4758
 154  771.7426
 155  733.7507
 156  700.3403
 157  713.1852
 158  772.1216
 159  774.7535
 160  935.7393
 161  961.8478
 162  838.6639
 163  788.947
 164  811.2988
 165  817.8508
 166  961.4312
 167  820.6646
 168  806.6218
 169  775.8759
 170  770.1157
 171  740.8683
 172  680.6389
 173  737.5625
 174  783.3349
 175  773.249
 176  795.4927
 177  793.3821
 178  709.5453
 179  778.9624
 180  843.2433
 181  876.6845
 182  821.7149
 183  737.2238
 184  777.3209
 185  774.7387
 186  837.9047
 187  819.4576
 188  769.0966
 189  811.9039
 190  890.4276
 191  847.0555
 192  730.6061
 193  815.6751
 194  828.2962
 195  863.047
 196  870.3391
 197  773.092
 198  828.2736
 199  898.9675
 200  910.3629
 201  866.3693
 202  785.2222
 203  794.9208
 204  843.9655
 205  788.5228
 206  886.0989
 207  846.8832
 208  810.8816
 209  788.1004
 210  838.4222
 211  715.3693
 212  711.293
 213  740.1861
 214  787.8815
 215  790.6262
 216  704.4786
 217  790.9367
 218  755.6329
 219  795.5604
 220  873.3793
 221  831.5679
 222  877.0353
 223  887.9858
 224  983.198
 225  1039.146
 226  986.7282
 227  957.1083
 228  926.6403
 229  890.6292
 230  930.9272
 231  895.7801
 232  853.8538
 233  858.4727
 234  853.365
 235  741.269
 236  711.1044
 237  719.4815
 238  840.0262
 239  748.1133
 240  718.4512
 241  693.4276
 242  681.751
 243  564.4441
 244  480.4131
 245  621.6181
 246  671.391
 247  691.2856
 248  718.6665
 249  704.1042
 250  645.1808
 251  635.5789
 252  748.2596
 253  759.5851
 254  679.453
 255  645.1732
 256  748.4153
 257  860.8218
 258  863.5134
 259  701.9639
 260  602.1959
 261  687.5765
 262  674.3853
 263  656.9539
 264  716.8016
 265  738.0792
 266  707.5778
 267  636.5583
 268  744.2877
 269  676.0889
 270  602.2103
 271  700.5861
 272  688.6288
 273  791.7121
 274  692.606
 275  666.7573
 276  630.267
 277  693.5031
 278  659.8066
 279  662.7205
 280  693.4426
 281  700.8674
 282  712.403
 283  752.8159
 284  671.5452
 285  584.2585
 286  633.3345
 287  841.7678
 288  843.964
 289  672.4861
 290  629.7044
 291  651.7493
 292  620.428
 293  721.9573
 294  730.9305
 295  667.1277
 296  649.7058
 297  645.3161
 298  698.777
 299  716.9736
 300  672.8337
 301  675.3261
 302  565.7966
 303  549.5692
 304  571.1113
 305  634.3302
 306  751.1793
 307  712.8718
 308  659.4262
 309  790.2358
 310  813.2032
 311  712.7216
 312  814.4934
 313  777.3795
 314  741.0878
 315  702.5553
 316  763.5394
 317  638.5643
 318  696.6119
 319  748.8476
 320  732.7316
 321  720.2422
 322  652.671
 323  604.2505
 324  779.5247
 325  702.1887
 326  703.4598
 327  703.7825
 328  774.5291
 329  843.6165
 330  875.6851
 331  838.7957
 332  805.3467
 333  808.6512
 334  854.0042
 335  904.8263
 336  918.7208
 337  835.6919
 338  803.3978
 339  773.725
 340  750.4626
 341  757.2621
 342  767.0952
 343  750.5964
 344  741.4438
 345  778.701
 346  706.5588
 347  685.2083
 348  703.399
 349  756.9579
 350  822.483
 351  812.5079
 352  785.6719
 353  741.2907
 354  705.4693
 355  733.538
 356  728.1703
 357  779.3596
 358  685.521
 359  687.821
 360  810.7765
 361  814.7354
 362  867.5596
 363  813.5568
 364  837.0137
 365  854.1758
 366  881.9022
 367  814.9457
 368  879.8676
 369  862.2413
 370  796.2598
 371  812.4824
 372  816.7609
 373  871.8692
 374  1016.499
 375  1035.783
 376  868.8002
 377  814.0151
 378  808.1729
 379  707.6785
 380  751.0442
 381  791.3978
 382  745.8203
 383  728.2599
 384  746.0652
 385  702.6801
 386  656.9951
 387  688.4377
 388  707.4525
 389  692.8532
 390  660.3887
 391  715.272
 392  603.2288
 393  575.0259
 394  707.1579
 395  919.1906
 396  876.6569
 397  758.8482
 398  742.4172
 399  768.7957
 400  747.6027
 401  847.0262
 402  851.0073
 403  794.4302
 404  828.3238
 405  786.636
 406  757.0073
 407  766.5414
 408  743.0762
 409  737.1478
 410  582.4578
 411  673.5616
 412  724.4857
 413  652.3289
 414  633.6611
 415  763.3243
 416  701.8748
 417  619.1295
 418  654.5882
 419  595.5504
 420  552.74
 421  635.8391
 422  620.0108
 423  550.9836
 424  607.3201
 425  695.6655
 426  726.4243
 427  673.3348
 428  735.3834
 429  701.7913
 430  622.863
 431  696.5457
 432  760.9462
 433  715.2115
 434  692.0079
 435  738.3395
 436  816.5987
 437  858.3046
 438  869.6547
 439  825.0311
 440  707.7054
 441  763.9405
 442  850.939
 443  868.3911
 444  771.3994
 445  750.2758
 446  754.0529
 447  830.4427
 448  910.9897
 449  843.6873
 450  765.4776
 451  860.0646
 452  987.3008
 453  904.8176
 454  759.8438
 455  859.0092
 456  918.0462
 457  776.7415
 458  775.3522
 459  788.1006
 460  848.0569
 461  916.4507
 462  920.4041
 463  923.0072
 464  974.3073
 465  1046.442
 466  1077.846
 467  1196.202
 468  1490.703
 469  1519.654
 470  1493.206
 471  1351.734
 472  1219.251
 473  1041.303
 474  908.3982
 475  776.3969
 476  699.8275
 477  765.4211
 478  736.4404
 479  765.0302
 480  823.8875
 481  936.1683
 482  888.598
 483  851.8178
 484  900.2183
 485  858.4682
 486  820.993
 487  868.2816
 488  854.3229
 489  897.0463
 490  844.3184
 491  722.2337
 492  746.4526
 493  622.0471
 494  680.9963
 495  783.5699
 496  861.653
 497  731.3041
 498  729.115
 499  855.7477
 500  822.1544
 501  816.5458
 502  827.3004
 503  829.3666
 504  736.7659
 505  645.4795
 506  691.0839
 507  652.5791
 508  715.959
 509  734.607
 510  765.1224
 511  663.4768
