# Input file       =  1184285753.10695_cleaned.dat
# Candidate        =  PSR_0332+5434
# Telescope        =  AR
# Epoch_topo       =  57951.011251237847
# Epoch_bary       =  N/A
# T_sample         =  0.002
# Data Folded      =  7208960
# Data Avg         =  0.151338850541718
# Data StdDev      =  5.18867919885548 
# Profile Bins     =  1024
# Profile Avg      =  1065.35455626388 
# Profile StdDev   =  435.354612326083 
# Reduced chi-sqr  =  0.466
# Prob(Noise)      <  1   (~0.0 sigma)
# P_topo (ms)      =  714.477596449382  +/- 0.00613
# P'_topo (s/s)    =  -0                +/- 3.29e-09
# P''_topo (s/s^2) =  0                 +/- 1.48e-12
# P_bary (ms)      =  N/A
# P'_bary (s/s)    =  N/A
# P''_bary (s/s^2) =  N/A
# P_orb (s)        =  N/A
# asin(i)/c (s)    =  N/A
# eccentricity     =  N/A
# w (rad)          =  N/A
# T_peri           =  N/A
######################################################
   0  1186.258
   1  1035.095
   2  921.8364
   3  1063.753
   4  1139.851
   5  1041.878
   6  986.0646
   7  1039.774
   8  1046.102
   9  982.7744
  10  873.2562
  11  880.0089
  12  958.3356
  13  993.7966
  14  1039.64
  15  1027.757
  16  1154.444
  17  1019.028
  18  1094.567
  19  973.3306
  20  982.7774
  21  890.4244
  22  973.4288
  23  864.3341
  24  1020.785
  25  1110.904
  26  1136.523
  27  1043.213
  28  1136.634
  29  1197.138
  30  1160.47
  31  1192.894
  32  1283.16
  33  1107.937
  34  939.7545
  35  900.8915
  36  974.4291
  37  969.9675
  38  954.9532
  39  927.7296
  40  994.0839
  41  937.7613
  42  871.0085
  43  944.5049
  44  904.099
  45  897.6724
  46  1041.36
  47  1293.865
  48  1273.695
  49  1119.476
  50  1030.289
  51  990.8684
  52  945.4897
  53  1027.624
  54  1059.599
  55  1026.793
  56  976.692
  57  978.547
  58  900.8337
  59  892.8944
  60  937.9431
  61  1096.063
  62  1191.638
  63  1068.896
  64  890.9199
  65  906.0637
  66  1043.751
  67  910.7338
  68  947.0015
  69  927.4613
  70  908.1168
  71  1023.874
  72  1073.516
  73  953.0635
  74  888.5634
  75  987.4413
  76  1091.147
  77  998.238
  78  998.012
  79  1043.609
  80  1130.341
  81  1095.57
  82  912.7234
  83  919.2562
  84  989.5663
  85  946.978
  86  1033.596
  87  1188.702
  88  1245.763
  89  1014.879
  90  1056.616
  91  1206.043
  92  1228.737
  93  1070.814
  94  1036.892
  95  957.3344
  96  1030.179
  97  1045.696
  98  1037.64
  99  1018.583
 100  857.8247
 101  801.9645
 102  860.5287
 103  930.9628
 104  827.8766
 105  876.466
 106  966.6113
 107  1000.188
 108  949.1885
 109  990.1319
 110  1061.875
 111  1117.071
 112  1353.475
 113  1336.31
 114  1258.814
 115  1006.822
 116  978.9381
 117  971.6398
 118  984.459
 119  900.5754
 120  946.1236
 121  1117.439
 122  1282.971
 123  1231.047
 124  1191.789
 125  1055.445
 126  1019.313
 127  1136.899
 128  1287.948
 129  1102.836
 130  1162.811
 131  1190.548
 132  1132.494
 133  923.1162
 134  908.0795
 135  906.2227
 136  1067.73
 137  1146.567
 138  1189.31
 139  1126.76
 140  1039.485
 141  966.492
 142  936.3158
 143  890.2158
 144  894.881
 145  1006.387
 146  987.3406
 147  922.4661
 148  907.8616
 149  1236.094
 150  1265.449
 151  1266.43
 152  1187.094
 153  1245.446
 154  1136.291
 155  1032.717
 156  1033.47
 157  932.2546
 158  883.4103
 159  946.1832
 160  919.4269
 161  934.3773
 162  795.7201
 163  928.3533
 164  1099.136
 165  1129.397
 166  976.1272
 167  960.2705
 168  1115.766
 169  1076.95
 170  1097.06
 171  1050.983
 172  1022.153
 173  1098.865
 174  1181.731
 175  1090.532
 176  976.1361
 177  1071.778
 178  1012.516
 179  855.5195
 180  935.6919
 181  1050.346
 182  1103.484
 183  992.1632
 184  938.8906
 185  755.5743
 186  797.9152
 187  803.9091
 188  928.3965
 189  980.4694
 190  1076.839
 191  945.2435
 192  1029.393
 193  1121.624
 194  1094.16
 195  1279.028
 196  1292.79
 197  1305.798
 198  1129.589
 199  1033.634
 200  877.7111
 201  867.7735
 202  1034.193
 203  1179.201
 204  1122.162
 205  1029.4
 206  844.581
 207  721.3286
 208  813.7752
 209  960.1124
 210  1040.018
 211  975.4962
 212  900.3923
 213  935.6339
 214  978.4847
 215  987.2487
 216  752.2776
 217  920.626
 218  983.2703
 219  1127.801
 220  1062.025
 221  1140.552
 222  1067.214
 223  1000.822
 224  1205.13
 225  1160.971
 226  1244.942
 227  1053.737
 228  949.9322
 229  791.3718
 230  761.1334
 231  739.2358
 232  770.2956
 233  866.9557
 234  836.4396
 235  798.3416
 236  828.9008
 237  951.9861
 238  1097.286
 239  1276.256
 240  1373.248
 241  1079.238
 242  968.4969
 243  880.7409
 244  926.9048
 245  956.5563
 246  1095.388
 247  1010.617
 248  954.0432
 249  799.3923
 250  904.7682
 251  1028.411
 252  1102.874
 253  1018.935
 254  1076.135
 255  1258.214
 256  1206.894
 257  1206.773
 258  1116.451
 259  1013.801
 260  928.8882
 261  1023.872
 262  1143.26
 263  1102.647
 264  992.16
 265  941.2067
 266  826.6022
 267  885.0064
 268  865.496
 269  1015.524
 270  1084.21
 271  1118.351
 272  1102.044
 273  1161.164
 274  1083.49
 275  1010.32
 276  922.4935
 277  909.6906
 278  906.9392
 279  973.0143
 280  958.5076
 281  795.1334
 282  879.9135
 283  1062.588
 284  1136.349
 285  1062.915
 286  1042.247
 287  934.0445
 288  1017.288
 289  1087.677
 290  1106.761
 291  1047.98
 292  1040.46
 293  1111.083
 294  1183.354
 295  1260.133
 296  1227.497
 297  1162.166
 298  1209.424
 299  1125.282
 300  955.3111
 301  899.9962
 302  932.2029
 303  915.9207
 304  989.9602
 305  1167.609
 306  1171.176
 307  1170.017
 308  988.3198
 309  906.6805
 310  868.8871
 311  1025.789
 312  954.028
 313  1031.356
 314  959.8795
 315  1017.243
 316  927.3303
 317  941.1331
 318  791.6167
 319  925.6678
 320  1119.488
 321  1202.786
 322  1145.039
 323  1082.283
 324  901.1792
 325  946.1516
 326  1033.453
 327  1174.403
 328  1064.672
 329  1069.56
 330  1071.66
 331  968.6537
 332  984.1794
 333  1108.743
 334  1056.607
 335  1063.21
 336  970.621
 337  1007.774
 338  978.3591
 339  845.3259
 340  708.5328
 341  722.5739
 342  891.8694
 343  1030.661
 344  1171.7
 345  1203.094
 346  1138.085
 347  1116.663
 348  1169.346
 349  1056.854
 350  1012.695
 351  1041.317
 352  935.169
 353  637.5704
 354  631.8293
 355  618.451
 356  856.9844
 357  901.1364
 358  951.2092
 359  1012.663
 360  967.2558
 361  973.2489
 362  783.2159
 363  886.0436
 364  887.8531
 365  899.1896
 366  859.8032
 367  988.6853
 368  934.8817
 369  1094.346
 370  1079.732
 371  1051.19
 372  972.1909
 373  976.1449
 374  1022.993
 375  928.5455
 376  1003.359
 377  913.6746
 378  967.166
 379  911.0431
 380  865.2509
 381  926.8596
 382  945.4586
 383  874.955
 384  855.8203
 385  1089.9
 386  1186.536
 387  1215.16
 388  1306.316
 389  1239.612
 390  1152.55
 391  1061.545
 392  1168.474
 393  1027.498
 394  979.8348
 395  984.3715
 396  923.0687
 397  846.2724
 398  838.4141
 399  878.3549
 400  971.8383
 401  993.0994
 402  1205.731
 403  1418.988
 404  1370.881
 405  1102.518
 406  1091.18
 407  1125.558
 408  1133.695
 409  1102.425
 410  1118.622
 411  1096.747
 412  1134.052
 413  1154.466
 414  1075.99
 415  961.7474
 416  1038.093
 417  1143.699
 418  1014.097
 419  1036.069
 420  898.5545
 421  1011.456
 422  1046.654
 423  1226.673
 424  1113.329
 425  1123.387
 426  1063.411
 427  1055.819
 428  1062.088
 429  1178.706
 430  1175.102
 431  1169.832
 432  1076.224
 433  903.2597
 434  1054.801
 435  1226.065
 436  1265.769
 437  1146.765
 438  1090.877
 439  1165.862
 440  1097.017
 441  1105.328
 442  1066.299
 443  1119.708
 444  1102.114
 445  968.5864
 446  932.3083
 447  999.4139
 448  1005.73
 449  827.9107
 450  913.5191
 451  1007.009
 452  1059.473
 453  1078.701
 454  1152.595
 455  1097.322
 456  1144.06
 457  1240.68
 458  1206.556
 459  1145.76
 460  1191.887
 461  1305.676
 462  1352.442
 463  1206.072
 464  1080.03
 465  1111.015
 466  1070.554
 467  1021.989
 468  981.1777
 469  1088.696
 470  978.5057
 471  1017.131
 472  1024.498
 473  1153.053
 474  1084.893
 475  1284.56
 476  1202.803
 477  1223.792
 478  1032.5
 479  1071.897
 480  958.9948
 481  1131.763
 482  1135.699
 483  1147.098
 484  1061.516
 485  1169.386
 486  946.4357
 487  839.7149
 488  777.894
 489  933.3334
 490  1082.998
 491  1189.852
 492  989.8655
 493  957.1787
 494  957.6296
 495  1015.001
 496  1009.689
 497  1080.866
 498  1078.944
 499  1114.75
 500  1139.612
 501  1092.553
 502  1045.528
 503  809.7584
 504  756.6498
 505  677.4928
 506  702.8386
 507  717.2734
 508  842.9592
 509  1214.263
 510  1238.586
 511  1135.421
 512  1117.141
 513  1163.985
 514  1291.363
 515  1309.216
 516  1304.078
 517  1108.608
 518  1046.977
 519  1131.764
 520  1090.874
 521  1044.177
 522  1005.907
 523  914.2804
 524  929.2208
 525  923.5746
 526  966.9424
 527  952.3304
 528  967.8701
 529  953.0496
 530  901.1595
 531  932.0737
 532  809.6887
 533  919.5817
 534  967.8199
 535  1147.001
 536  1143.541
 537  1130.316
 538  1095.321
 539  1011.627
 540  1052.416
 541  1013.752
 542  1052.382
 543  1079.625
 544  1119.807
 545  1133.738
 546  1200.369
 547  1137.313
 548  973.0767
 549  1007.742
 550  1207.53
 551  1288.554
 552  1361.868
 553  1257.209
 554  1242.716
 555  1214.944
 556  1389.873
 557  1173.489
 558  1194.183
 559  1125.671
 560  1148.358
 561  938.7089
 562  1000.832
 563  953.1057
 564  986.827
 565  1008.249
 566  1133.8
 567  1026.794
 568  1026.369
 569  1131.709
 570  1118.722
 571  1010.678
 572  901.8126
 573  1003.642
 574  1129.361
 575  1088.479
 576  954.9838
 577  1023.848
 578  1143.547
 579  1141.365
 580  1142.888
 581  1023.753
 582  1045.606
 583  1108.986
 584  1304.453
 585  1199.564
 586  1212.674
 587  1273.019
 588  1204.169
 589  1131.822
 590  1016.906
 591  1055.928
 592  1136.318
 593  1228.121
 594  1271.172
 595  1148.323
 596  1073.305
 597  950.6918
 598  991.2946
 599  1177.684
 600  1260.172
 601  1168.551
 602  1124.721
 603  1066.509
 604  951.1617
 605  939.9346
 606  1004.319
 607  989.9423
 608  946.9908
 609  956.3186
 610  1069.335
 611  1067.453
 612  1004.31
 613  865.399
 614  1001.976
 615  910.2737
 616  953.4341
 617  923.3813
 618  1218.008
 619  1107.684
 620  1074.315
 621  1033.34
 622  963.0693
 623  1055.222
 624  1098.938
 625  1125.921
 626  1007.224
 627  1112.363
 628  1137.38
 629  1150.542
 630  1161.472
 631  1225.76
 632  1173.828
 633  1011.405
 634  880.5792
 635  753.11
 636  891.2925
 637  1045.351
 638  1126.687
 639  1068.106
 640  1025.451
 641  1078.176
 642  1269.104
 643  1466.658
 644  1405.87
 645  1481.562
 646  1498.07
 647  1636.66
 648  1735.562
 649  1951.203
 650  1997.357
 651  2099.474
 652  2090.272
 653  2043.257
 654  1926.332
 655  1799.641
 656  1543.542
 657  1353.682
 658  1304.987
 659  1174.717
 660  1122.877
 661  1167.549
 662  1345.836
 663  1253.648
 664  1266.847
 665  1231.652
 666  1197.86
 667  1210.584
 668  1184.173
 669  1024.012
 670  855.4421
 671  808.5283
 672  954.9108
 673  1081.739
 674  1216.879
 675  1290.192
 676  1425.091
 677  1383.891
 678  1237.427
 679  1182.214
 680  1235.276
 681  1274.871
 682  1326.227
 683  1353.279
 684  1211.478
 685  1151.679
 686  1147.193
 687  990.7738
 688  836.8176
 689  857.9775
 690  931.9553
 691  1008.977
 692  1032.906
 693  1205.915
 694  1082.312
 695  1205.014
 696  1153.089
 697  1255.809
 698  1096.929
 699  1105.123
 700  996.4747
 701  1111.417
 702  1072.009
 703  957.9567
 704  948.6265
 705  979.9567
 706  1055.852
 707  1093.444
 708  1112.579
 709  887.6112
 710  985.4556
 711  1145.341
 712  1270.807
 713  1138.033
 714  1205.636
 715  1200.275
 716  1208.004
 717  1239.626
 718  1310.128
 719  1238.194
 720  1126.846
 721  973.5666
 722  1019.435
 723  1151.941
 724  1215.95
 725  1318.187
 726  1447.46
 727  1432.765
 728  1153.937
 729  1082.91
 730  1143.711
 731  1208.71
 732  1397.946
 733  1505.995
 734  1385.989
 735  1141.815
 736  1049.24
 737  1070.735
 738  978.6522
 739  1019.159
 740  971.6486
 741  1156.725
 742  1122.025
 743  1176.048
 744  1144.511
 745  1255.945
 746  1078.435
 747  1070.923
 748  1168.384
 749  1342.233
 750  1309.925
 751  1278.418
 752  1124.537
 753  942.9876
 754  983.1307
 755  1210.603
 756  1229.691
 757  1300.402
 758  1195.888
 759  1096.796
 760  1010.371
 761  1025.587
 762  1101.36
 763  1054.732
 764  1092.05
 765  935.8323
 766  1076.103
 767  994.0832
 768  1004.782
 769  848.6513
 770  859.4299
 771  935.9955
 772  1029.787
 773  1104.663
 774  1029.005
 775  967.4172
 776  1031.552
 777  890.2014
 778  758.1222
 779  623.6445
 780  797.3275
 781  854.5387
 782  1009.706
 783  982.0046
 784  1070.128
 785  1111.122
 786  1215.761
 787  1111.568
 788  1090.548
 789  1145.12
 790  1054.86
 791  1171.305
 792  1195.827
 793  1199.41
 794  1041.332
 795  1063.479
 796  838.3022
 797  935.1366
 798  914.4276
 799  1077.427
 800  1052.842
 801  1054.655
 802  840.6011
 803  738.9024
 804  732.0157
 805  915.3354
 806  982.997
 807  1015.765
 808  925.582
 809  896.4526
 810  1052.89
 811  1060.998
 812  903.216
 813  1101.673
 814  1264.372
 815  1345.115
 816  1167.418
 817  1119.62
 818  1036.608
 819  1037.858
 820  1070.436
 821  1029.711
 822  1041.313
 823  982.7244
 824  948.4343
 825  988.5989
 826  1114.519
 827  986.8683
 828  987.9774
 829  1025.711
 830  1019.379
 831  1124.897
 832  1103.167
 833  1095
 834  1093.786
 835  1137.724
 836  1258.626
 837  1179.114
 838  1206.53
 839  1173.038
 840  1170.565
 841  1162.301
 842  1097.96
 843  1144.594
 844  1306.313
 845  1323.19
 846  1230.784
 847  1193.777
 848  1154.373
 849  1129.476
 850  1065.58
 851  1180.11
 852  1083.08
 853  1140.326
 854  1079.288
 855  954.79
 856  1008.489
 857  1175.082
 858  1229.297
 859  1245.414
 860  1158.645
 861  1174.41
 862  1250.812
 863  1431.38
 864  1478.733
 865  1373.181
 866  1188.326
 867  984.7279
 868  840.8359
 869  836.5654
 870  831.9565
 871  889.5673
 872  1156.255
 873  1228.928
 874  1292.64
 875  1250.389
 876  1257.422
 877  1083.525
 878  1119.035
 879  1253.38
 880  1245.56
 881  1354.796
 882  1386.997
 883  1251.847
 884  1032.484
 885  831.1072
 886  770.6999
 887  830.8536
 888  874.2437
 889  961.1926
 890  1020.696
 891  1149.609
 892  1031.751
 893  1086.136
 894  1215.753
 895  1254.054
 896  1096.689
 897  1051.319
 898  1014.339
 899  962.5692
 900  921.0153
 901  908.3887
 902  843.2592
 903  1011.077
 904  1180.695
 905  1286.045
 906  1128.981
 907  1083.781
 908  963.3642
 909  1037.655
 910  1043.881
 911  1106.192
 912  1113.287
 913  1060.281
 914  952.5927
 915  1033.786
 916  1174.238
 917  1228.341
 918  1279.447
 919  1233.983
 920  887.4639
 921  805.0632
 922  902.4566
 923  1046.001
 924  975.7979
 925  944.2747
 926  1046.494
 927  1002.673
 928  1014.858
 929  958.0079
 930  984.1377
 931  1016.311
 932  1133.017
 933  1129.816
 934  1099.134
 935  977.6649
 936  941.0272
 937  1109.815
 938  1226.757
 939  1149.747
 940  1032.344
 941  850.7161
 942  839.4783
 943  757.2292
 944  808.3441
 945  741.454
 946  918.5656
 947  1003.037
 948  1003.204
 949  880.6801
 950  950.645
 951  860.0466
 952  1093.446
 953  1168.226
 954  1163.828
 955  1085.395
 956  987.8676
 957  1024.196
 958  932.8618
 959  1099.987
 960  974.2619
 961  892.0819
 962  974.0668
 963  1039.916
 964  1095.516
 965  1172.746
 966  1284.038
 967  1178.685
 968  1169.659
 969  1087.96
 970  1033.243
 971  896.6364
 972  881.9537
 973  699.1624
 974  756.5136
 975  740.7501
 976  801.1788
 977  912.4898
 978  1055.578
 979  1164.862
 980  1172.178
 981  1228.886
 982  1208.41
 983  1247.695
 984  1351.139
 985  1239.227
 986  1177.369
 987  1103.916
 988  1089.205
 989  1061.698
 990  1111.775
 991  1094.45
 992  1061.448
 993  992.6212
 994  1003.432
 995  958.8677
 996  1080.547
 997  1186.431
 998  1186.201
 999  1181.28
1000  991.1786
1001  826.6122
1002  906.3679
1003  1002.915
1004  983.6091
1005  1025.841
1006  1077.714
1007  1156.175
1008  1121.679
1009  1231.199
1010  1311.598
1011  1395.385
1012  1477.087
1013  1401.219
1014  1227.428
1015  1152.603
1016  1052.739
1017  1106.103
1018  917.756
1019  841.2553
1020  894.3943
1021  1216.937
1022  1362.196
1023  1297.02
