# Input file       =  1184716687.098535_cleaned.dat
# Candidate        =  PSR_0332+5434
# Telescope        =  AR
# Epoch_topo       =  57955.998913177486
# Epoch_bary       =  N/A
# T_sample         =  0.002
# Data Folded      =  7143424
# Data Avg         =  0.138001043917697
# Data StdDev      =  4.59343881277569 
# Profile Bins     =  1024
# Profile Avg      =  962.699709085088 
# Profile StdDev   =  383.655273082435 
# Reduced chi-sqr  =  0.544
# Prob(Noise)      <  1   (~0.0 sigma)
# P_topo (ms)      =  714.474541253708  +/- 5.69e-05
# P'_topo (s/s)    =  -0                +/- 3.08e-11
# P''_topo (s/s^2) =  0                 +/- 1.4e-14
# P_bary (ms)      =  N/A
# P'_bary (s/s)    =  N/A
# P''_bary (s/s^2) =  N/A
# P_orb (s)        =  N/A
# asin(i)/c (s)    =  N/A
# eccentricity     =  N/A
# w (rad)          =  N/A
# T_peri           =  N/A
######################################################
   0  1009.684
   1  996.2013
   2  1064.75
   3  925.9935
   4  785.6378
   5  679.2118
   6  764.2908
   7  1019.019
   8  1093.067
   9  962.118
  10  981.3521
  11  931.9057
  12  926.1086
  13  888.3076
  14  984.4077
  15  1032.522
  16  1125.498
  17  988.9319
  18  847.0079
  19  810.2668
  20  758.7325
  21  778.3191
  22  974.244
  23  1203.465
  24  1080.605
  25  797.9492
  26  724.6287
  27  774.2239
  28  836.9694
  29  867.2214
  30  717.1011
  31  681.0885
  32  714.2708
  33  829.0234
  34  950.0372
  35  1021.272
  36  1006.043
  37  1053.825
  38  1020.25
  39  1070.199
  40  971.6309
  41  1139
  42  1131.752
  43  999.8903
  44  952.2976
  45  998.3541
  46  967.2342
  47  1018.966
  48  905.5912
  49  815.34
  50  925.856
  51  991.0989
  52  921.5562
  53  881.0662
  54  953.4022
  55  1147.659
  56  1196.736
  57  1162.78
  58  1007.154
  59  906.1649
  60  897.3888
  61  823.7096
  62  958.8793
  63  968.9082
  64  914.8011
  65  863.3573
  66  839.1813
  67  742.9769
  68  625.702
  69  737.2787
  70  883.2455
  71  845.5312
  72  872.588
  73  925.7874
  74  953.0039
  75  1127.401
  76  1020.674
  77  916.5828
  78  921.1391
  79  888.1189
  80  929.7458
  81  970.3685
  82  1082.256
  83  1008.696
  84  953.7741
  85  1031.912
  86  1036.448
  87  1203.063
  88  1155.986
  89  1013.962
  90  751.3801
  91  607.9078
  92  750.9251
  93  838.951
  94  921.0079
  95  836.6139
  96  756.7492
  97  766.4947
  98  850.2493
  99  928.4707
 100  1143.166
 101  1118.278
 102  1193.925
 103  1154.213
 104  1209.085
 105  1083.358
 106  1094.499
 107  915.8134
 108  805.1544
 109  734.3212
 110  791.6611
 111  757.873
 112  879.5959
 113  850.5921
 114  779.891
 115  849.6149
 116  974.5473
 117  1115.625
 118  1162.233
 119  1120.25
 120  945.1533
 121  933.2144
 122  991.1628
 123  1057.901
 124  990.0136
 125  1026.088
 126  920.1818
 127  777.9536
 128  790.8031
 129  888.3322
 130  1041.477
 131  1025.262
 132  929.7776
 133  735.2391
 134  668.13
 135  698.5688
 136  665.467
 137  800.3102
 138  851.3285
 139  996.7748
 140  1088.408
 141  1139.939
 142  910.5559
 143  869.8866
 144  875.0651
 145  949.9785
 146  1066.164
 147  1121.986
 148  980.5561
 149  875.7527
 150  847.8723
 151  1058.057
 152  1121.569
 153  1078.514
 154  916.0316
 155  837.8885
 156  938.9308
 157  809.5579
 158  719.3414
 159  731.1972
 160  863.2264
 161  847.5508
 162  959.3191
 163  888.5226
 164  905.8293
 165  1056.995
 166  1257.554
 167  1171.999
 168  1026.319
 169  937.5332
 170  955.4382
 171  856.4138
 172  820.9781
 173  726.0565
 174  919.4174
 175  924.7769
 176  859.4157
 177  764.5067
 178  789.0175
 179  816.1383
 180  1002.269
 181  1042.631
 182  1073.49
 183  985.9169
 184  1107.625
 185  1115.377
 186  896.3332
 187  826.4202
 188  824.4027
 189  970.3265
 190  1117.966
 191  1021.537
 192  872.6674
 193  829.6602
 194  795.4406
 195  803.8651
 196  884.444
 197  1008.228
 198  991.7676
 199  1001.033
 200  919.1268
 201  792.7673
 202  720.9916
 203  825.8395
 204  985.319
 205  1204.301
 206  1256.37
 207  1122.25
 208  1043.953
 209  917.2957
 210  921.1699
 211  954.9021
 212  1026.034
 213  1079.594
 214  991.3146
 215  937.9323
 216  915.8245
 217  931.3533
 218  1035.033
 219  945.4163
 220  798.7617
 221  984.0137
 222  1109.791
 223  913.1364
 224  848.2186
 225  830.294
 226  907.3384
 227  888.9645
 228  803.1947
 229  638.795
 230  652.5562
 231  708.6578
 232  750.6448
 233  791.7238
 234  991.4363
 235  1083.424
 236  1112.934
 237  1044.67
 238  949.3826
 239  1023.672
 240  1065.58
 241  1100.304
 242  934.5144
 243  763.7092
 244  605.5646
 245  517.6717
 246  631.6691
 247  699.9434
 248  744.7513
 249  899.4814
 250  842.3475
 251  855.8932
 252  905.1754
 253  1028.863
 254  1007.081
 255  1079.115
 256  1106.615
 257  999.8707
 258  806.9349
 259  650.7714
 260  526.9252
 261  682.1202
 262  638.9651
 263  724.8317
 264  833.7031
 265  989.716
 266  934.0439
 267  864.4025
 268  1005.026
 269  1075.419
 270  1248.172
 271  1244.042
 272  1187.185
 273  957.4293
 274  894.7418
 275  806.8515
 276  847.8376
 277  857.0446
 278  936.8141
 279  889.8913
 280  912.095
 281  884.7278
 282  737.5655
 283  756.8585
 284  763.4952
 285  829.7557
 286  868.6467
 287  800.9922
 288  786.2474
 289  910.8162
 290  977.0099
 291  1001.128
 292  981.5173
 293  1078.556
 294  1043.487
 295  972.1647
 296  970.4656
 297  900.7913
 298  1025.368
 299  1135.465
 300  1168.825
 301  1018.433
 302  784.8061
 303  763.4058
 304  915.4751
 305  1025.932
 306  929.424
 307  834.3666
 308  808.0682
 309  764.7688
 310  742.1487
 311  930.7664
 312  1101.031
 313  1107.887
 314  1223.968
 315  1121.977
 316  1066.622
 317  1045.061
 318  1022.828
 319  812.6743
 320  801.6381
 321  849.6085
 322  1004.788
 323  1057.409
 324  1033.128
 325  915.7661
 326  829.3845
 327  699.1661
 328  748.1896
 329  952.8605
 330  1121.182
 331  1095.584
 332  990.3124
 333  889.5204
 334  878.897
 335  835.7143
 336  981.6024
 337  1030.175
 338  1144.381
 339  1072.516
 340  1007.863
 341  976.8697
 342  1135.884
 343  1170.969
 344  1039.653
 345  975.2007
 346  909.773
 347  914.1811
 348  1003.457
 349  1006.425
 350  874.0245
 351  823.8438
 352  862.2418
 353  807.4473
 354  885.6685
 355  923.5519
 356  1071.834
 357  1116.598
 358  1089.579
 359  1062.043
 360  1004.874
 361  996.5785
 362  871.8696
 363  919.5586
 364  921.8608
 365  954.2603
 366  972.8558
 367  1050.786
 368  1027.844
 369  964.7689
 370  1064.321
 371  1124.202
 372  1092.485
 373  1170.735
 374  1125.287
 375  1018.312
 376  1009.232
 377  1021.04
 378  960.908
 379  964.4099
 380  917.082
 381  908.9191
 382  950.3909
 383  969.0659
 384  975.4807
 385  871.6541
 386  879.485
 387  727.5219
 388  742.9718
 389  829.0161
 390  977.226
 391  976.3969
 392  843.6195
 393  650.5026
 394  745.2172
 395  830.5574
 396  952.4512
 397  941.0403
 398  894.5948
 399  899.6172
 400  960.5966
 401  1178.927
 402  1179.915
 403  1101.43
 404  1175.595
 405  1146.381
 406  923.3141
 407  845.7379
 408  751.8539
 409  903.7849
 410  981.6818
 411  1093.552
 412  909.0422
 413  938.0092
 414  931.6193
 415  945.9346
 416  934.31
 417  996.4325
 418  977.0718
 419  1086.3
 420  1058.23
 421  1047.814
 422  1039.072
 423  991.3519
 424  1082.918
 425  1087.569
 426  1179.853
 427  909.5897
 428  725.301
 429  763.338
 430  941.0012
 431  1012.46
 432  1151.58
 433  1124.605
 434  862.0665
 435  723.1976
 436  720.6754
 437  943.6127
 438  1163.119
 439  1165.014
 440  1077.289
 441  969.7014
 442  1015.978
 443  922.9966
 444  1106.691
 445  1058.132
 446  945.219
 447  990.3764
 448  1046.112
 449  806.8804
 450  624.1625
 451  549.0279
 452  771.4718
 453  778.9839
 454  826.6324
 455  889.6277
 456  898.3692
 457  990.635
 458  910.0689
 459  937.0441
 460  959.4417
 461  953.8295
 462  927.2661
 463  989.9977
 464  891.0474
 465  684.5762
 466  702.5695
 467  782.983
 468  860.0187
 469  923.4926
 470  1065.767
 471  1021.69
 472  1141.313
 473  1032.802
 474  922.0439
 475  970.9191
 476  998.8293
 477  1069.635
 478  1098.283
 479  1116.806
 480  1085.035
 481  966.7875
 482  976.3782
 483  886.7867
 484  939.0109
 485  1080.339
 486  1069.823
 487  894.6821
 488  849.6552
 489  932.4209
 490  1135.624
 491  1235.837
 492  1253.841
 493  935.4877
 494  784.9803
 495  711.614
 496  771.5707
 497  933.1458
 498  1071.326
 499  1175.33
 500  1240.899
 501  1109.669
 502  892.7611
 503  853.5659
 504  862.1043
 505  885.3146
 506  869.5609
 507  1014.89
 508  999.2296
 509  953.9735
 510  892.0615
 511  939.5377
 512  1068.907
 513  1184.245
 514  1117.389
 515  1074.439
 516  976.6478
 517  1013.86
 518  949.4011
 519  1045.256
 520  1120.456
 521  1094.748
 522  1139.279
 523  1029.674
 524  778.3958
 525  714.278
 526  721.0449
 527  794.8051
 528  915.1991
 529  903.1517
 530  942.6079
 531  973.2897
 532  1092.463
 533  1091.914
 534  1210.777
 535  1237.052
 536  1137.706
 537  1095.489
 538  1029.841
 539  859.1512
 540  771.7026
 541  661.8052
 542  676.0278
 543  740.6556
 544  873.1176
 545  900.0544
 546  883.921
 547  912.0173
 548  952.5727
 549  941.7176
 550  1150.979
 551  1174.062
 552  1223.945
 553  1233.865
 554  1137.27
 555  903.0051
 556  776.3583
 557  785.2287
 558  820.201
 559  901.4711
 560  817.1042
 561  714.4373
 562  789.1859
 563  912.4895
 564  881.1321
 565  1100.272
 566  1314.483
 567  1453.279
 568  1272.33
 569  1178.182
 570  1131.971
 571  1183.906
 572  1112.701
 573  1015.641
 574  927.139
 575  928.2206
 576  811.2245
 577  717.1514
 578  658.8699
 579  747.6032
 580  760.3342
 581  976.8858
 582  960.3306
 583  937.45
 584  956.6396
 585  1143.973
 586  1107.736
 587  1117.168
 588  981.2327
 589  956.6876
 590  897.0378
 591  958.2563
 592  1058.857
 593  1111.73
 594  1096.665
 595  987.3102
 596  1044.623
 597  965.0281
 598  908.6718
 599  895.3176
 600  972.5489
 601  1009.252
 602  1120.836
 603  1221.214
 604  1209.594
 605  978.4311
 606  855.3365
 607  916.4842
 608  1055.637
 609  1140.611
 610  1137.226
 611  1172.578
 612  1178.144
 613  1071.2
 614  883.4441
 615  1078.844
 616  1074.03
 617  1069.032
 618  1031.996
 619  1100.27
 620  981.438
 621  972.3781
 622  939.7126
 623  916.6852
 624  966.1218
 625  1016.855
 626  973.2742
 627  935.3793
 628  1041.752
 629  1048.793
 630  1092.471
 631  1074.875
 632  1069.352
 633  1169.701
 634  1059.74
 635  1061.18
 636  1066.245
 637  1226.08
 638  1243.857
 639  1289.06
 640  1269.483
 641  1294.165
 642  1160.736
 643  1203.457
 644  1091.502
 645  1000.451
 646  1352.136
 647  1479.804
 648  1664.312
 649  1651.071
 650  1735.448
 651  1723.394
 652  1851.765
 653  1906.645
 654  1842.929
 655  1512.048
 656  1326.715
 657  1112.371
 658  1037.558
 659  1018.497
 660  1057.738
 661  1213.053
 662  1197.565
 663  1207.175
 664  1184.646
 665  1130.443
 666  1008.106
 667  993.1284
 668  1053.881
 669  1087.192
 670  888.4149
 671  893.1451
 672  766.9493
 673  768.5716
 674  832.2581
 675  970.3073
 676  963.6564
 677  1181.757
 678  1267.701
 679  1276.438
 680  1164.104
 681  1125.716
 682  1080.841
 683  1108.267
 684  945.51
 685  851.0753
 686  901.5591
 687  928.2045
 688  857.6323
 689  776.6287
 690  835.368
 691  852.4675
 692  967.0145
 693  988.2339
 694  913.3525
 695  853.0682
 696  1037.938
 697  1155.108
 698  1182.324
 699  1143.814
 700  1124.339
 701  1039.108
 702  1054.407
 703  999.4365
 704  1028.806
 705  991.0753
 706  1037.207
 707  924.8698
 708  963.147
 709  876.2493
 710  905.8152
 711  1037.254
 712  963.818
 713  811.0015
 714  713.1551
 715  906.8533
 716  937.2513
 717  1015.423
 718  1021.402
 719  1083.914
 720  1102.307
 721  1039.442
 722  919.0626
 723  755.6423
 724  632.0709
 725  702.5526
 726  840.7727
 727  963.5372
 728  781.1208
 729  762.2276
 730  858.2885
 731  981.9525
 732  865.5119
 733  1006.591
 734  1173.126
 735  1253.512
 736  1173.183
 737  1066.015
 738  955.2241
 739  945.2562
 740  772.3459
 741  758.1024
 742  928.3275
 743  1067.933
 744  1032.832
 745  1071.095
 746  1075.041
 747  942.6177
 748  926.0411
 749  937.5735
 750  990.5477
 751  890.174
 752  944.6592
 753  872.9095
 754  933.8088
 755  884.242
 756  884.0319
 757  992.267
 758  1061.697
 759  1115.156
 760  990.2751
 761  959.7506
 762  1034.069
 763  1164.875
 764  1264.035
 765  1123.262
 766  936.3367
 767  863.1897
 768  834.6628
 769  854.78
 770  1086.028
 771  1047.926
 772  994.2916
 773  950.2243
 774  1049.209
 775  1025.343
 776  1071.287
 777  1081.675
 778  1032.939
 779  943.6988
 780  888.1249
 781  845.3702
 782  905.7623
 783  993.917
 784  973.5411
 785  929.4974
 786  954.4753
 787  1117.397
 788  1025.402
 789  1021.907
 790  893.9664
 791  1040.89
 792  1118.992
 793  1068.962
 794  816.4371
 795  711.7443
 796  752.7785
 797  733.6185
 798  900.9472
 799  929.467
 800  1052.572
 801  1135.737
 802  1243.435
 803  950.6307
 804  815.4708
 805  751.7898
 806  925.0449
 807  1031.167
 808  1095.933
 809  1048.665
 810  942.8945
 811  861.6346
 812  900.0788
 813  941.6771
 814  908.9918
 815  864.5134
 816  916.7275
 817  964.1328
 818  1030.999
 819  936.2679
 820  992.5997
 821  814.791
 822  879.6095
 823  894.1793
 824  983.8141
 825  1001.449
 826  1079.801
 827  1149.263
 828  1056.86
 829  1110.623
 830  1064.763
 831  1067.466
 832  1062.403
 833  1086.703
 834  1076.415
 835  1212.514
 836  1135.447
 837  975.7849
 838  857.6879
 839  997.7017
 840  964.543
 841  1054.84
 842  1000.129
 843  977.5128
 844  988.0626
 845  1171.981
 846  1139.283
 847  955.319
 848  956.6371
 849  1021.811
 850  917.0281
 851  909.7332
 852  948.0013
 853  930.0809
 854  952.1099
 855  789.9629
 856  677.2425
 857  496.2787
 858  765.5284
 859  848.8666
 860  1008.349
 861  901.57
 862  906.7967
 863  951.9197
 864  940.8113
 865  881.0087
 866  1000.394
 867  1111.114
 868  1044.724
 869  939.5832
 870  975.6322
 871  894.2088
 872  943.2042
 873  828.0579
 874  863.5828
 875  803.6454
 876  938.7023
 877  974.2821
 878  1003.259
 879  886.6534
 880  794.4536
 881  683.7395
 882  819.1881
 883  873.972
 884  782.4109
 885  922.5843
 886  904.4677
 887  964.7837
 888  940.7029
 889  897.952
 890  904.2209
 891  974.848
 892  956.5523
 893  835.1293
 894  860.8506
 895  997.7335
 896  992.3125
 897  1055.115
 898  947.3759
 899  840.4725
 900  726.0529
 901  800.3475
 902  742.8871
 903  841.0822
 904  805.129
 905  935.5605
 906  875.6094
 907  847.5109
 908  782.9041
 909  701.898
 910  803.7701
 911  854.6454
 912  940.8527
 913  1030.635
 914  1015.929
 915  980.098
 916  1078.095
 917  961.7645
 918  860.6664
 919  778.0301
 920  883.8719
 921  990.5681
 922  978.6098
 923  753.9479
 924  570.821
 925  629.4231
 926  844.6807
 927  904.4047
 928  957.9409
 929  883.0948
 930  925.2294
 931  941.5
 932  998.4733
 933  954.9534
 934  1071.125
 935  1012.962
 936  945.1161
 937  774.6177
 938  791.7466
 939  869.5576
 940  917.5012
 941  1086.805
 942  1123.134
 943  1048.799
 944  1094.499
 945  1053.028
 946  976.5328
 947  958.4764
 948  920.4684
 949  840.3004
 950  925.3697
 951  940.5717
 952  1029.127
 953  1006.989
 954  988.4695
 955  947.9357
 956  962.822
 957  1054.735
 958  937.8096
 959  994.7871
 960  1118.841
 961  1169.549
 962  1255.472
 963  1289.894
 964  1189.007
 965  1026.322
 966  935.4214
 967  919.9844
 968  928.4066
 969  991.8748
 970  1080.304
 971  1128.111
 972  1164.773
 973  1087.065
 974  991.515
 975  1078.598
 976  936.8126
 977  893.7671
 978  1067.76
 979  1130.502
 980  961.2504
 981  751.267
 982  691.1813
 983  621.895
 984  828.4495
 985  884.7458
 986  918.1681
 987  886.2982
 988  938.3632
 989  909.8368
 990  828.5245
 991  953.1907
 992  984.608
 993  1258.232
 994  1165.393
 995  1065.046
 996  943.3286
 997  1012.925
 998  1038.452
 999  999.6802
1000  956.691
1001  1021.127
1002  877.041
1003  896.1005
1004  693.5165
1005  626.4373
1006  718.8481
1007  912.1693
1008  1025.504
1009  1144.634
1010  895.8372
1011  679.734
1012  608.9863
1013  731.046
1014  775.9783
1015  947.0894
1016  1065.958
1017  923.4146
1018  830.3582
1019  723.7406
1020  738.345
1021  881.9164
1022  1070.692
1023  1057.333
