# Input file       =  1184645147.110282_cleaned.dat
# Candidate        =  PSR_0332+5434
# Telescope        =  AR
# Epoch_topo       =  57955.170904054190
# Epoch_bary       =  N/A
# T_sample         =  0.002
# Data Folded      =  7340032
# Data Avg         =  0.101534656197016
# Data StdDev      =  3.10779701278928 
# Profile Bins     =  512
# Profile Avg      =  1454.33230053134 
# Profile StdDev   =  372.105972783904 
# Reduced chi-sqr  =  1.847
# Prob(Noise)      <  3.61e-28   (~10.9 sigma)
# P_topo (ms)      =  714.475040119196  +/- 0.000454
# P'_topo (s/s)    =  -0                +/- 2.4e-10
# P''_topo (s/s^2) =  0                 +/- 1.06e-13
# P_bary (ms)      =  N/A
# P'_bary (s/s)    =  N/A
# P''_bary (s/s^2) =  N/A
# P_orb (s)        =  N/A
# asin(i)/c (s)    =  N/A
# eccentricity     =  N/A
# w (rad)          =  N/A
# T_peri           =  N/A
######################################################
   0  1081.817
   1  880.9717
   2  1205.518
   3  1501.938
   4  1517.396
   5  1520.058
   6  1475.311
   7  1143.119
   8  928.7416
   9  1173.06
  10  1080.651
  11  1006.641
  12  1057.663
  13  1118.523
  14  1263.722
  15  1267.685
  16  924.8578
  17  1106.917
  18  975.6489
  19  812.418
  20  1073.6
  21  971.9198
  22  1147.505
  23  1125.481
  24  1067.344
  25  1199.775
  26  1325.856
  27  1407.577
  28  1336.686
  29  1303.213
  30  1321.463
  31  1400.511
  32  1331.363
  33  1431.023
  34  1570.367
  35  1700.093
  36  1400.183
  37  1203.165
  38  1119.203
  39  1325.39
  40  1436.783
  41  1243.508
  42  1272.409
  43  1323.067
  44  1420.275
  45  1258.396
  46  1132.453
  47  1229.07
  48  1528.929
  49  1218.968
  50  877.5924
  51  956.7322
  52  1363.884
  53  1416.804
  54  1311.618
  55  1301.844
  56  1367.424
  57  1560
  58  1384.384
  59  1149.597
  60  1175.844
  61  1145.149
  62  1336.329
  63  1322.309
  64  1369.831
  65  1240.698
  66  1647.897
  67  1676.569
  68  1494.064
  69  1456.646
  70  1494.228
  71  1596.795
  72  1518.669
  73  1552.692
  74  1778.002
  75  1587.295
  76  1445.149
  77  1265.865
  78  1324.992
  79  1403.329
  80  1359.018
  81  1095.265
  82  1094.613
  83  1324.818
  84  1601.709
  85  1570.072
  86  1738.993
  87  1438.667
  88  1275.791
  89  1553.564
  90  1724.598
  91  1711.889
  92  1873.523
  93  1455.66
  94  1467.181
  95  1770.592
  96  1829.095
  97  1734.844
  98  1690.485
  99  1902.929
 100  1857.033
 101  2049.086
 102  1924.796
 103  1713.579
 104  1670.184
 105  1669.775
 106  1748.43
 107  2053.319
 108  1933.777
 109  1874.072
 110  1784.746
 111  1657.334
 112  1721.936
 113  2182.919
 114  2120.113
 115  2220.55
 116  2463.385
 117  2511.315
 118  2885.168
 119  3647.609
 120  4248.823
 121  4226.028
 122  3671.348
 123  2721.799
 124  2292.92
 125  2175.963
 126  2095.665
 127  2002.475
 128  1902.03
 129  1770.825
 130  2042.154
 131  2403.298
 132  2224.527
 133  2078.134
 134  1872.235
 135  1834.075
 136  1969.513
 137  1973.295
 138  1874.601
 139  2000.136
 140  1984.236
 141  1643.397
 142  1663.139
 143  1377.725
 144  1355.045
 145  1460.727
 146  1547.882
 147  1367.276
 148  1603.809
 149  1834.142
 150  1927.587
 151  1675.594
 152  1838.5
 153  1858.685
 154  1499.51
 155  1417.236
 156  1509.836
 157  1349.946
 158  1232.625
 159  942.4979
 160  1193.739
 161  1453.171
 162  1479.819
 163  1451.157
 164  1452.474
 165  1460.033
 166  1309.427
 167  1536.075
 168  1559.799
 169  1496.842
 170  1704.656
 171  1410.7
 172  1450.064
 173  1467.233
 174  1492.104
 175  1522.196
 176  1428.726
 177  1446.128
 178  1634.73
 179  1826.444
 180  1836.413
 181  1521.486
 182  1453.781
 183  1489.069
 184  1517.37
 185  1475.309
 186  1603.35
 187  1764.454
 188  1615.404
 189  1653.03
 190  1649.083
 191  1365.239
 192  1752.931
 193  1693.569
 194  1596.07
 195  1284.483
 196  1414.671
 197  1574.063
 198  1641.383
 199  1615.335
 200  1552.125
 201  1478.224
 202  1347.29
 203  1252.044
 204  1282.727
 205  1265.38
 206  1296.872
 207  1093.596
 208  993.1547
 209  1102.194
 210  1073.662
 211  1304.79
 212  1535.477
 213  1381.452
 214  1501.4
 215  1522.508
 216  1355.576
 217  1213.678
 218  1287.528
 219  1283.954
 220  1410.382
 221  1411.652
 222  1361.676
 223  1279.724
 224  946.233
 225  955.5696
 226  983.8945
 227  934.4167
 228  1170.237
 229  1410.297
 230  1286.343
 231  854.477
 232  772.9271
 233  697.3542
 234  748.1737
 235  1035.186
 236  1361.399
 237  1375.147
 238  1156.908
 239  776.5607
 240  1015.777
 241  1152.254
 242  1110.178
 243  1339.021
 244  1391.176
 245  1562.552
 246  1647.2
 247  1633.964
 248  1523.832
 249  1479.366
 250  1576.804
 251  1451.363
 252  1411.19
 253  1589.152
 254  1459.706
 255  1372.688
 256  1306.836
 257  1353.757
 258  1082.097
 259  1206.173
 260  1522.227
 261  1172.746
 262  1198.114
 263  1116.007
 264  1228.406
 265  1409.568
 266  1465.768
 267  1548.182
 268  1708.678
 269  1723.208
 270  1431.681
 271  1207.571
 272  1335.517
 273  1509.397
 274  1473.705
 275  1428.119
 276  1669.109
 277  1546.585
 278  1626.247
 279  1546.258
 280  1376.704
 281  1294.27
 282  1198.842
 283  1329.245
 284  1210.906
 285  1098.999
 286  1054.845
 287  1362.768
 288  1653.431
 289  1295.328
 290  1662.335
 291  1709.296
 292  1603.366
 293  1582.479
 294  1631.296
 295  1696.863
 296  1744.683
 297  1567.208
 298  1602.743
 299  1364.508
 300  1495.062
 301  1863.608
 302  1647.625
 303  1824.954
 304  1719.944
 305  1625.042
 306  1708.116
 307  1569.849
 308  1503.886
 309  1319.825
 310  1185.341
 311  1199.283
 312  1388.869
 313  1371.018
 314  1105.401
 315  1591.503
 316  1799.58
 317  1638.808
 318  1628.632
 319  1538.564
 320  1440.444
 321  1229.503
 322  1441.008
 323  1578.272
 324  1586.268
 325  1294.914
 326  1190.783
 327  1526.006
 328  1474.651
 329  1157.451
 330  1217.979
 331  1365.488
 332  1281.04
 333  1424.989
 334  1633.534
 335  1505.731
 336  1408.446
 337  1378.829
 338  1467.089
 339  1681.553
 340  1727.984
 341  1941.566
 342  1683.394
 343  1866.714
 344  1754.628
 345  1736.925
 346  1879.472
 347  1809.177
 348  1720.214
 349  1758.977
 350  1399.188
 351  1216.515
 352  1232.521
 353  1499.392
 354  1435.54
 355  1279.06
 356  1031.039
 357  1272.54
 358  1858.279
 359  1574.342
 360  1401.384
 361  1475.167
 362  1515.578
 363  1507.836
 364  1498.646
 365  1633.594
 366  1623.003
 367  1402.717
 368  1497.243
 369  1700.857
 370  1900.651
 371  1694.254
 372  2032.46
 373  1661.872
 374  1440.442
 375  1479.512
 376  1456.025
 377  1455.694
 378  1221.861
 379  1319.107
 380  1438.205
 381  1497.707
 382  1484.566
 383  1145.335
 384  868.6408
 385  963.876
 386  1314.75
 387  1330.744
 388  1062.709
 389  1332.016
 390  1217.662
 391  840.4245
 392  1165.578
 393  1169.935
 394  1177.777
 395  1017.852
 396  1298.141
 397  1285.051
 398  1360.385
 399  1570.49
 400  1632.533
 401  1582.379
 402  1285.396
 403  1497.149
 404  1519.105
 405  1428.771
 406  1531.807
 407  1554.835
 408  1377.185
 409  1335.622
 410  1499.893
 411  1631.846
 412  1572.164
 413  1738.593
 414  1572.984
 415  1521.1
 416  1456.721
 417  1495.326
 418  1459.164
 419  1352.279
 420  1353.776
 421  1284.83
 422  1290.718
 423  1365.851
 424  1528.485
 425  1504.431
 426  1781.388
 427  1927.64
 428  1674.182
 429  1454.76
 430  1385.771
 431  1620.027
 432  1266.11
 433  1354.685
 434  1425.69
 435  1392.01
 436  1200.829
 437  1251.703
 438  1511.611
 439  1596.422
 440  1382.483
 441  1371.737
 442  1241.911
 443  1603.521
 444  1748.05
 445  1766.783
 446  1452.096
 447  1597.556
 448  1267.694
 449  1162.964
 450  1244.871
 451  1385.61
 452  1638.328
 453  1343.051
 454  1270.141
 455  1355.794
 456  1428.737
 457  1296.003
 458  1287.774
 459  1305.873
 460  1428.73
 461  1387.113
 462  1556.145
 463  1266.6
 464  1202.19
 465  1292.668
 466  1124.931
 467  1284.444
 468  1118.644
 469  1117.868
 470  1186.672
 471  972.8868
 472  1213.993
 473  1048.146
 474  1103.09
 475  1344.744
 476  1116.986
 477  1041.421
 478  1168.593
 479  1081.677
 480  1343.093
 481  1175.787
 482  1370.008
 483  1435.052
 484  1311.559
 485  1460.868
 486  1224.839
 487  1154.215
 488  1246.863
 489  1020.201
 490  1029.946
 491  1001.903
 492  1075.283
 493  1090.528
 494  1128.666
 495  968.9186
 496  931.1037
 497  1006.845
 498  1029.049
 499  972.4865
 500  874.2125
 501  845.0954
 502  1155.175
 503  1247.241
 504  1288.926
 505  1275.646
 506  1172.017
 507  1231.496
 508  1484.808
 509  1448.427
 510  1094.377
 511  1274.494
