# Input file       =  1184472772.105566_cleaned.dat
# Candidate        =  PSR_0332+5434
# Telescope        =  AR
# Epoch_topo       =  57953.175822981088
# Epoch_bary       =  N/A
# T_sample         =  0.002
# Data Folded      =  7340032
# Data Avg         =  0.135479007845528
# Data StdDev      =  3.25188413280502 
# Profile Bins     =  1024
# Profile Avg      =  970.887750666504 
# Profile StdDev   =  275.317654649569 
# Reduced chi-sqr  =  1.132
# Prob(Noise)      <  0.00205   (~2.9 sigma)
# P_topo (ms)      =  714.47624500042   +/- 0.000519
# P'_topo (s/s)    =  -0                +/- 2.74e-10
# P''_topo (s/s^2) =  0                 +/- 1.21e-13
# P_bary (ms)      =  N/A
# P'_bary (s/s)    =  N/A
# P''_bary (s/s^2) =  N/A
# P_orb (s)        =  N/A
# asin(i)/c (s)    =  N/A
# eccentricity     =  N/A
# w (rad)          =  N/A
# T_peri           =  N/A
######################################################
   0  811.4698
   1  773.0824
   2  827.0933
   3  840.1709
   4  863.1964
   5  758.7446
   6  733.9613
   7  630.8379
   8  601.3244
   9  546.1079
  10  635.6425
  11  763.9058
  12  885.348
  13  880.2811
  14  902.6703
  15  810.9815
  16  724.5999
  17  706.483
  18  800.0424
  19  869.9489
  20  908.4905
  21  891.8767
  22  906.2253
  23  965.0159
  24  1018.253
  25  855.2087
  26  682.4025
  27  620.7794
  28  748.1392
  29  746.7864
  30  701.34
  31  761.0886
  32  834.1745
  33  901.8367
  34  963.1119
  35  1002.401
  36  1021.883
  37  1097.428
  38  1153.345
  39  1195.27
  40  1003.983
  41  888.2461
  42  797.561
  43  815.3979
  44  827.8375
  45  868.6195
  46  876.0844
  47  779.0842
  48  773.3929
  49  855.8434
  50  1017.07
  51  1083.884
  52  1029.033
  53  863.3704
  54  802.0587
  55  802.1786
  56  780.3694
  57  685.3124
  58  779.1679
  59  894.904
  60  931.481
  61  880.2357
  62  849.5422
  63  928.8025
  64  876.3401
  65  918.439
  66  964.2354
  67  946.4059
  68  861.9601
  69  826.5731
  70  954.6227
  71  1037.734
  72  1031.269
  73  1013.237
  74  1013.175
  75  926.7911
  76  789.3837
  77  728.879
  78  811.5777
  79  873.0011
  80  935.3863
  81  998.577
  82  1004.217
  83  982.0887
  84  1038.044
  85  1097.454
  86  1188.606
  87  1205.728
  88  1239.963
  89  1178.566
  90  1082.284
  91  1079.091
  92  1067.119
  93  1146.561
  94  1041.963
  95  963.0591
  96  763.5908
  97  721.723
  98  793.6832
  99  971.4223
 100  1076.29
 101  1029.956
 102  1044.039
 103  971.5984
 104  1086.854
 105  1037.001
 106  1042.056
 107  971.5268
 108  958.4256
 109  907.2725
 110  820.5223
 111  752.1544
 112  791.7626
 113  893.6487
 114  974.6736
 115  977.4326
 116  942.8486
 117  971.8546
 118  1001.628
 119  1014.862
 120  989.4756
 121  891.5162
 122  734.6761
 123  706.7585
 124  772.3031
 125  849.0421
 126  845.994
 127  806.2139
 128  876.0858
 129  910.4374
 130  957.5002
 131  890.1294
 132  856.4163
 133  856.7685
 134  883.4534
 135  866.6844
 136  835.3964
 137  865.9751
 138  835.8404
 139  800.3554
 140  707.6461
 141  740.0535
 142  866.9908
 143  944.1635
 144  894.6988
 145  829.4497
 146  770.5957
 147  803.748
 148  808.3132
 149  919.4572
 150  865.0133
 151  789.3629
 152  676.3284
 153  680.9467
 154  684.8544
 155  787.988
 156  851.2925
 157  901.8827
 158  822.1578
 159  813.6414
 160  761.8163
 161  842.9058
 162  875.266
 163  898.7131
 164  868.6757
 165  904.3033
 166  892.5189
 167  882.8442
 168  848.3094
 169  913.8759
 170  868.0604
 171  963.6877
 172  1039.849
 173  1082.425
 174  1086.014
 175  1134.08
 176  1271.701
 177  1223.7
 178  1108.347
 179  1132.728
 180  1110.089
 181  979.3506
 182  911.71
 183  930.5601
 184  1027.685
 185  1003.362
 186  1113.517
 187  1127.596
 188  1155.202
 189  1191.417
 190  1118.301
 191  1038.792
 192  952.7161
 193  959.1882
 194  968.9783
 195  953.0533
 196  953.6142
 197  938.3209
 198  979.397
 199  1057.913
 200  1111.766
 201  1163.383
 202  1067.808
 203  1100.364
 204  1074.441
 205  1108.286
 206  1030.374
 207  1094.659
 208  1054.609
 209  955.1554
 210  919.0516
 211  992.1566
 212  1035.6
 213  1111.914
 214  1188.377
 215  1205.456
 216  1120.851
 217  998.521
 218  922.4284
 219  880.086
 220  987.7864
 221  1085.307
 222  1137.223
 223  974.9822
 224  939.1633
 225  921.2593
 226  1045.931
 227  1098.572
 228  1045.05
 229  1059.92
 230  1096.741
 231  1146.779
 232  1105.048
 233  1049.812
 234  1043.869
 235  1061.349
 236  984.7595
 237  960.6769
 238  927.3474
 239  906.0638
 240  848.4719
 241  884.6278
 242  934.5577
 243  1077.403
 244  1128.782
 245  1119.123
 246  958.7487
 247  900.913
 248  903.6834
 249  822.6795
 250  782.6219
 251  833.5219
 252  927.3016
 253  924.0622
 254  923.0005
 255  964.3481
 256  1001.816
 257  998.551
 258  1021.609
 259  963.2473
 260  918.3589
 261  855.0112
 262  876.3804
 263  876.3047
 264  881.8958
 265  865.8942
 266  898.3845
 267  824.9029
 268  802.0593
 269  837.0421
 270  941.3488
 271  980.8458
 272  998.1527
 273  950.4365
 274  848.6953
 275  762.372
 276  794.8176
 277  814.1609
 278  709.4728
 279  704.0269
 280  823.0471
 281  946.2445
 282  911.6189
 283  860.5959
 284  798.6728
 285  824.5432
 286  886.6577
 287  958.4927
 288  881.9884
 289  873.1604
 290  819.7824
 291  891.6526
 292  812.9404
 293  814.7473
 294  906.9094
 295  950.9783
 296  937.728
 297  859.8874
 298  837.1168
 299  863.4832
 300  864.6924
 301  940.6929
 302  874.4474
 303  839.1855
 304  875.5574
 305  917.3981
 306  1000.719
 307  967.4767
 308  978.9991
 309  1015.097
 310  965.5094
 311  902.4052
 312  925.107
 313  959.3389
 314  973.4698
 315  859.8007
 316  893.6074
 317  986.628
 318  943.4957
 319  945.2601
 320  962.6777
 321  1006.765
 322  930.918
 323  764.1813
 324  797.1979
 325  838.6194
 326  968.2968
 327  982.9456
 328  978.9703
 329  961.2734
 330  945.355
 331  997.5059
 332  934.556
 333  939.7606
 334  985.6483
 335  1005.414
 336  1034.538
 337  945.8462
 338  941.2482
 339  885.4727
 340  897.6074
 341  912.6986
 342  959.0854
 343  1009.248
 344  949.7404
 345  853.1766
 346  842.4993
 347  832.663
 348  887.571
 349  895.8094
 350  865.7507
 351  863.0902
 352  939.4231
 353  1066.875
 354  1162.505
 355  1120.167
 356  1088.484
 357  965.4451
 358  969.3329
 359  899.0557
 360  840.3443
 361  804.3093
 362  874.4867
 363  978.1152
 364  976.1373
 365  961.5471
 366  852.7769
 367  869.7646
 368  877.8898
 369  976.2368
 370  966.0166
 371  952.199
 372  1024.25
 373  1037.467
 374  1006.825
 375  957.3953
 376  946.93
 377  943.7756
 378  907.7751
 379  975.8208
 380  910.4262
 381  955.1998
 382  916.4041
 383  910.1764
 384  797.7651
 385  790.7217
 386  870.0477
 387  926.8358
 388  922.7914
 389  942.8981
 390  953.5289
 391  834.683
 392  813.8754
 393  803.958
 394  907.7688
 395  922.1243
 396  1004.787
 397  980.753
 398  983.6364
 399  926.3846
 400  1013.329
 401  1069.825
 402  1089.046
 403  1079.849
 404  1097.141
 405  1149.1
 406  1151.616
 407  1066.216
 408  955.4644
 409  930.0461
 410  895.514
 411  873.4683
 412  814.8926
 413  746.7955
 414  860.5353
 415  938.7123
 416  988.2657
 417  925.3087
 418  909.7446
 419  872.7514
 420  786.7116
 421  640.3898
 422  615.8534
 423  653.1188
 424  721.5724
 425  705.6381
 426  685.2697
 427  687.6942
 428  682.9956
 429  686.6669
 430  755.5402
 431  864.452
 432  957.8796
 433  937.0099
 434  817.644
 435  733.4063
 436  712.2308
 437  670.9424
 438  690.1194
 439  713.2565
 440  699.449
 441  651.5811
 442  698.8163
 443  739.7187
 444  865.9531
 445  911.5724
 446  905.106
 447  960.0465
 448  966.068
 449  882.4127
 450  710.6185
 451  678.1083
 452  830.1774
 453  872.1054
 454  880.6024
 455  755.3943
 456  862.6715
 457  876.2729
 458  985.7143
 459  971.7366
 460  1102.854
 461  1064.779
 462  1088.183
 463  1070.368
 464  1109.683
 465  1110.148
 466  1041.446
 467  984.2536
 468  952.5055
 469  980.6596
 470  963.416
 471  720.7928
 472  660.5453
 473  753.4597
 474  997.6334
 475  993.8394
 476  930.6327
 477  827.3652
 478  878.3716
 479  923.6193
 480  936.799
 481  875.2203
 482  856.6508
 483  914.0978
 484  849.0469
 485  723.0203
 486  748.2993
 487  832.079
 488  902.8335
 489  925.4857
 490  1030.649
 491  1039.718
 492  946.1237
 493  815.4242
 494  839.335
 495  905.7161
 496  910.5522
 497  878.5766
 498  916.012
 499  938.6439
 500  1011.951
 501  1042.506
 502  1134.231
 503  1191.179
 504  1179.014
 505  1195.403
 506  1119.103
 507  1034.466
 508  990.0219
 509  981.2789
 510  965.2624
 511  931.7687
 512  1004.329
 513  1015.48
 514  1055.456
 515  1051.896
 516  1014.881
 517  888.944
 518  891.0259
 519  956.2687
 520  1114.236
 521  1120.037
 522  1211.239
 523  1159.268
 524  1092.947
 525  1007.553
 526  911.5689
 527  882.0305
 528  906.4044
 529  977.3503
 530  1019.453
 531  1034.838
 532  986.3081
 533  882.5319
 534  851.4519
 535  943.382
 536  996.967
 537  1023.344
 538  960.7917
 539  993.6908
 540  945.856
 541  1018.807
 542  1056.713
 543  1019.125
 544  1004.554
 545  974.6396
 546  1076.286
 547  999.3051
 548  1006.188
 549  985.5744
 550  1085.73
 551  1125.494
 552  1061.911
 553  984.2955
 554  969.7047
 555  1084.786
 556  1010.441
 557  891.3137
 558  895.6833
 559  1043.3
 560  1132.147
 561  1095.953
 562  1125.546
 563  1154.083
 564  1098.164
 565  1016.919
 566  1046.12
 567  1114.707
 568  1173.056
 569  1146.721
 570  1198.119
 571  1111.359
 572  1030.361
 573  1009.514
 574  959.4687
 575  938.8831
 576  877.7107
 577  952.4539
 578  1006.689
 579  1063.314
 580  1082.488
 581  1041.102
 582  1027.524
 583  968.0967
 584  1050.663
 585  1068.981
 586  1003.852
 587  885.86
 588  892.5152
 589  1008.118
 590  1044.421
 591  1144.425
 592  1058.83
 593  989.5533
 594  904.8491
 595  981.531
 596  968.5875
 597  940.7679
 598  933.213
 599  936.9301
 600  918.1094
 601  853.4662
 602  883.5145
 603  911.0263
 604  989.8275
 605  1052.58
 606  1138.661
 607  1099.783
 608  1099.92
 609  1094.476
 610  1090.452
 611  1016.201
 612  1030.337
 613  1100.928
 614  1031.315
 615  983.5605
 616  974.8679
 617  1092.551
 618  1048.192
 619  1028.548
 620  1058.577
 621  1087.345
 622  975.1558
 623  889.0673
 624  958.4126
 625  917.1223
 626  968.5251
 627  920.7976
 628  1083.865
 629  1032.391
 630  1063.182
 631  1018.482
 632  1015.025
 633  962.7245
 634  946.8254
 635  1038.092
 636  1114.762
 637  1226.616
 638  1242.167
 639  1245.112
 640  1225.806
 641  1292.343
 642  1273.597
 643  1149.905
 644  1140.573
 645  1376.382
 646  1608.1
 647  1784.928
 648  1906.636
 649  1896.382
 650  1907
 651  1947.614
 652  2036.613
 653  2022.384
 654  1920.841
 655  1735.01
 656  1510.166
 657  1326.635
 658  1187.992
 659  1171.585
 660  1128.876
 661  1117.349
 662  1102.172
 663  1115.705
 664  1063.116
 665  1030.764
 666  1035.546
 667  1020.538
 668  967.6744
 669  969.993
 670  1027.526
 671  963.1678
 672  970.6213
 673  978.2339
 674  1058.081
 675  1097.809
 676  1182.688
 677  1248.122
 678  1353.598
 679  1396.544
 680  1356.84
 681  1143.598
 682  992.3607
 683  974.1716
 684  1025.422
 685  955.3606
 686  951.3687
 687  972.8014
 688  911.3755
 689  886.3473
 690  869.1919
 691  958.2805
 692  962.9453
 693  880.1438
 694  830.4384
 695  832.9885
 696  984.6673
 697  1017.84
 698  1025.721
 699  1023.148
 700  1059.268
 701  1094.69
 702  979.4197
 703  872.7555
 704  785.585
 705  833.063
 706  865.186
 707  884.3829
 708  904.3768
 709  963.72
 710  1008.008
 711  1096.651
 712  994.8181
 713  970.5352
 714  884.9344
 715  863.8119
 716  837.7155
 717  849.1602
 718  957.0842
 719  985.009
 720  972.6331
 721  966.5489
 722  894.3013
 723  947.6667
 724  875.3735
 725  994.637
 726  1059.106
 727  1141.606
 728  1046.412
 729  865.6823
 730  818.7242
 731  897.9211
 732  916.8041
 733  926.1246
 734  902.6447
 735  982.1141
 736  1135.926
 737  1144.884
 738  1154.049
 739  1131.985
 740  1174.885
 741  1048.798
 742  1025.548
 743  1040.603
 744  1089.161
 745  1075.25
 746  1144.734
 747  1117.961
 748  1082.327
 749  855.1155
 750  859.3146
 751  856.8599
 752  1067.57
 753  1140.242
 754  1010.694
 755  900.7028
 756  839.8877
 757  947.5773
 758  972.6597
 759  1019.907
 760  983.0297
 761  1022.578
 762  1023.881
 763  992.6768
 764  995.8422
 765  973.0665
 766  950.7034
 767  1040.44
 768  1213.971
 769  1260.07
 770  1078.449
 771  1008.28
 772  929.4794
 773  922.26
 774  910.7357
 775  1031.755
 776  1070.259
 777  1061.31
 778  963.3256
 779  992.9786
 780  1060.145
 781  1116.037
 782  1157.665
 783  1169.742
 784  1112.214
 785  1105.65
 786  1147.939
 787  1277.206
 788  1319.243
 789  1268.961
 790  1181.4
 791  1131.123
 792  1212.868
 793  1302.554
 794  1353.895
 795  1380.18
 796  1288.926
 797  1119.92
 798  1028.209
 799  1025.098
 800  1160.476
 801  1250.826
 802  1254.469
 803  1199.904
 804  1123.578
 805  1115.688
 806  1102.104
 807  1094.6
 808  1079.179
 809  1090.99
 810  1178.914
 811  1262.349
 812  1215.136
 813  1150.553
 814  972.1572
 815  953.7091
 816  1038.675
 817  1164.217
 818  1143.912
 819  1088.562
 820  1057.403
 821  1132.176
 822  1080.118
 823  1005.488
 824  1060.126
 825  1154.838
 826  1163.914
 827  1059.552
 828  1065.09
 829  1109.141
 830  1186.794
 831  1164.339
 832  1255.194
 833  1189.465
 834  1113.415
 835  1020.308
 836  1049.67
 837  1092.58
 838  1082.545
 839  1088.239
 840  1199.474
 841  1177.541
 842  1244.317
 843  1128.574
 844  1038.207
 845  981.3698
 846  1003.201
 847  1097.255
 848  1081.767
 849  1077.304
 850  1094.176
 851  1026.674
 852  972.1918
 853  903.3557
 854  946.7107
 855  967.0893
 856  982.5983
 857  1029.353
 858  998.6805
 859  1017.11
 860  936.8776
 861  948.3981
 862  1021.565
 863  1077.208
 864  1080.877
 865  1030.501
 866  1019.74
 867  1033.409
 868  997.4344
 869  1107.016
 870  1073.055
 871  1107.373
 872  1054.501
 873  1147.795
 874  1140.965
 875  1092.233
 876  1113.983
 877  1235.461
 878  1325.899
 879  1231.538
 880  1096.209
 881  1018.356
 882  1085.93
 883  1108.897
 884  1090.989
 885  957.5481
 886  972.7053
 887  951.3548
 888  981.6385
 889  917.9644
 890  992.7546
 891  941.7689
 892  1008.17
 893  998.0732
 894  1103.377
 895  1139.58
 896  1111.581
 897  1098.758
 898  1087.365
 899  1100.426
 900  1015.359
 901  1023.071
 902  1039.419
 903  1115.037
 904  995.6901
 905  951.1758
 906  902.379
 907  920.315
 908  917.7007
 909  982.9472
 910  1090.291
 911  1147.673
 912  1135.483
 913  1018.751
 914  907.9297
 915  854.0709
 916  813.9291
 917  864.8896
 918  819.5474
 919  866.684
 920  842.0984
 921  927.907
 922  943.1885
 923  917.667
 924  897.2241
 925  946.1111
 926  931.435
 927  938.6683
 928  883.0647
 929  953.5285
 930  857.9368
 931  891.9781
 932  829.4716
 933  872.9738
 934  827.5016
 935  848.3195
 936  899.1605
 937  965.67
 938  1039.323
 939  1057.418
 940  992.2189
 941  929.984
 942  979.8577
 943  964.0793
 944  1007.847
 945  934.6117
 946  882.3572
 947  830.1569
 948  910.0581
 949  998.111
 950  1001.914
 951  919.9101
 952  877.0156
 953  884.0326
 954  916.8716
 955  979.174
 956  972.2945
 957  1012.927
 958  1009.551
 959  968.9201
 960  840.8179
 961  879.2005
 962  812.0323
 963  841.3574
 964  798.2567
 965  773.6504
 966  786.5869
 967  791.1208
 968  784.0453
 969  725.0071
 970  737.1514
 971  870.2914
 972  900.8695
 973  945.1878
 974  865.5894
 975  814.5164
 976  798.9518
 977  838.0551
 978  891.8873
 979  823.633
 980  735.0531
 981  617.6787
 982  646.7417
 983  725.0974
 984  806.8723
 985  786.4812
 986  825.8249
 987  738.2784
 988  811.4171
 989  800.7557
 990  912.4865
 991  892.7059
 992  856.5111
 993  910.6643
 994  945.3228
 995  970.4464
 996  787.8405
 997  697.7383
 998  690.4451
 999  752.6337
1000  730.901
1001  676.7805
1002  747.8713
1003  871.5701
1004  934.9963
1005  926.1788
1006  916.4427
1007  940.666
1008  954.4291
1009  942.4527
1010  973.3947
1011  877.2245
1012  740.1922
1013  617.4835
1014  686.2618
1015  767.9323
1016  722.5736
1017  689.0723
1018  679.6795
1019  771.312
1020  804.6366
1021  926.3464
1022  969.0641
1023  915.6802
