# Input file       =  1184027341.112139_cleaned.dat
# Candidate        =  PSR_0332+5434
# Telescope        =  AR
# Epoch_topo       =  57948.020371668274
# Epoch_bary       =  N/A
# T_sample         =  0.002
# Data Folded      =  7208960
# Data Avg         =  0.126108186352279
# Data StdDev      =  4.16795549332768 
# Profile Bins     =  1024
# Profile Avg      =  887.483939112389 
# Profile StdDev   =  349.711088014517 
# Reduced chi-sqr  =  0.595
# Prob(Noise)      <  1   (~0.0 sigma)
# P_topo (ms)      =  714.479565933439  +/- 6.39e-05
# P'_topo (s/s)    =  -0                +/- 3.43e-11
# P''_topo (s/s^2) =  0                 +/- 1.54e-14
# P_bary (ms)      =  N/A
# P'_bary (s/s)    =  N/A
# P''_bary (s/s^2) =  N/A
# P_orb (s)        =  N/A
# asin(i)/c (s)    =  N/A
# eccentricity     =  N/A
# w (rad)          =  N/A
# T_peri           =  N/A
######################################################
   0  1123.516
   1  985.6241
   2  928.9858
   3  884.8478
   4  946.1443
   5  1066.287
   6  1131.477
   7  1104.883
   8  1027.592
   9  800.0276
  10  768.7626
  11  794.0513
  12  901.8663
  13  838.4741
  14  775.4553
  15  839.8839
  16  845.4324
  17  975.179
  18  892.7742
  19  873.3721
  20  870.9792
  21  1123.201
  22  1073.374
  23  1149.146
  24  932.8157
  25  900.3152
  26  780.0923
  27  818.6755
  28  696.3688
  29  876.5773
  30  906.137
  31  916.8419
  32  733.895
  33  810.8414
  34  890.5485
  35  1023.729
  36  983.7712
  37  924.8121
  38  826.2533
  39  809.5078
  40  872.119
  41  940.9164
  42  1085.968
  43  1017.199
  44  929.5411
  45  918.6219
  46  986.843
  47  920.1516
  48  1026.041
  49  953.5063
  50  931.2256
  51  921.742
  52  974.9658
  53  872.1577
  54  830.9009
  55  956.0762
  56  966.0128
  57  1004.006
  58  1030.695
  59  1044.25
  60  844.545
  61  690.2374
  62  559.8043
  63  657.2677
  64  713.3663
  65  875.2403
  66  920.7725
  67  999.0793
  68  830.5672
  69  787.8504
  70  763.0087
  71  998.1694
  72  1018.21
  73  947.5216
  74  792.6366
  75  757.1136
  76  761.6838
  77  655.8092
  78  515.1515
  79  601.7153
  80  735.0568
  81  758.8181
  82  702.0114
  83  759.4977
  84  736.7535
  85  934.741
  86  885.7985
  87  765.1142
  88  699.5414
  89  864.6177
  90  1012.98
  91  908.0698
  92  750.5038
  93  679.2332
  94  670.6555
  95  758.0276
  96  724.7521
  97  743.482
  98  731.2569
  99  682.674
 100  716.5133
 101  746.5134
 102  825.1169
 103  790.4176
 104  825.7733
 105  838.9037
 106  816.8156
 107  805.2068
 108  736.1332
 109  555.6829
 110  556.349
 111  586.3705
 112  585.5811
 113  654.3878
 114  713.3882
 115  760.146
 116  882.1747
 117  948.5662
 118  929.7963
 119  1040.707
 120  981.5965
 121  927.1921
 122  848.6394
 123  919.562
 124  861.8471
 125  748.9698
 126  728.1005
 127  693.3923
 128  723.2122
 129  744.8036
 130  820.7477
 131  846.8375
 132  846.4445
 133  918.0749
 134  846.0869
 135  867.2573
 136  862.4568
 137  1026.781
 138  1049.13
 139  973.2576
 140  895.1105
 141  840.454
 142  727.992
 143  632.9924
 144  735.9308
 145  783.6394
 146  816.251
 147  926.7924
 148  1088.26
 149  990.8122
 150  1108.318
 151  1079.518
 152  970.0657
 153  806.2802
 154  837.246
 155  946.0109
 156  1009.023
 157  1052.059
 158  985.0855
 159  761.0964
 160  669.5835
 161  721.4462
 162  818.4175
 163  839.1392
 164  885.8771
 165  828.0548
 166  852.3171
 167  888.3545
 168  887.894
 169  947.3796
 170  881.0972
 171  1010.957
 172  1235.694
 173  1294.837
 174  1141.742
 175  1097.709
 176  1133.099
 177  983.0073
 178  811.8962
 179  632.7573
 180  555.7019
 181  764.4493
 182  981.624
 183  1028.157
 184  1003.597
 185  996.6128
 186  955.8371
 187  943.4273
 188  949.2446
 189  956.8041
 190  957.6604
 191  1114.97
 192  1184.119
 193  954.8039
 194  740.6242
 195  620.6813
 196  571.8063
 197  735.959
 198  964.6602
 199  1084.866
 200  1150.227
 201  1032.477
 202  946.879
 203  881.7649
 204  892.4127
 205  916.0119
 206  1053.127
 207  1020.206
 208  977.6363
 209  900.1338
 210  979.939
 211  881.5927
 212  972.2122
 213  1070.936
 214  1156.299
 215  1115.907
 216  1090.858
 217  988.7874
 218  881.6545
 219  827.442
 220  814.222
 221  773.2468
 222  764.1757
 223  819.1621
 224  854.2212
 225  865.9487
 226  921.2516
 227  765.2053
 228  861.6318
 229  888.9678
 230  873.8
 231  909.752
 232  780.2823
 233  854.6631
 234  982.5317
 235  1219.424
 236  1124.38
 237  1151.155
 238  1059.768
 239  871.3617
 240  631.3407
 241  677.4736
 242  704.0185
 243  832.413
 244  745.6347
 245  737.9641
 246  800.5415
 247  966.5342
 248  1032.076
 249  1150.293
 250  1123.421
 251  994.9671
 252  849.737
 253  955.9552
 254  970.8459
 255  878.2692
 256  826.6812
 257  835.6174
 258  653.2137
 259  588.2925
 260  671.3693
 261  622.6264
 262  814.202
 263  863.7834
 264  907.0942
 265  886.1168
 266  830.3684
 267  778.3939
 268  690.6161
 269  692.5457
 270  798.8267
 271  957.8047
 272  1044.271
 273  786.4293
 274  705.1204
 275  619.002
 276  745.437
 277  747.9977
 278  957.812
 279  1027.252
 280  1030.557
 281  1047.284
 282  1081.17
 283  996.5709
 284  938.0835
 285  970.7404
 286  1033.194
 287  1097.448
 288  1131.263
 289  949.3081
 290  861.0361
 291  754.63
 292  789.2203
 293  996.3619
 294  1083.919
 295  1074.186
 296  1014.518
 297  942.6704
 298  849.4688
 299  788.4943
 300  983.8144
 301  965.897
 302  894.165
 303  855.0569
 304  835.4113
 305  792.0273
 306  815.2676
 307  881.4131
 308  990.7205
 309  789.819
 310  802.8185
 311  813.5684
 312  954.1919
 313  876.9407
 314  775.8137
 315  768.4473
 316  782.9807
 317  661.3796
 318  823.7348
 319  913.7608
 320  822.35
 321  792.9607
 322  933.3971
 323  1036.675
 324  928.3729
 325  878.1381
 326  797.7948
 327  767.0355
 328  710.7929
 329  732.381
 330  807.077
 331  873.0296
 332  846.0745
 333  912.4333
 334  806.9166
 335  795.8263
 336  867.313
 337  1099.707
 338  1196.64
 339  1186.647
 340  1057.925
 341  861.1129
 342  732.3304
 343  732.6138
 344  745.4622
 345  660.2329
 346  609.517
 347  644.2133
 348  562.2144
 349  654.2236
 350  814.4026
 351  940.8101
 352  1046.701
 353  982.0179
 354  983.1908
 355  899.8784
 356  872.1908
 357  718.5245
 358  872.1703
 359  919.9234
 360  954.8137
 361  950.4871
 362  913.916
 363  821.1887
 364  695.8505
 365  746.8117
 366  992.6063
 367  1007.331
 368  1052.62
 369  953.9791
 370  918.0182
 371  774.3052
 372  725.1409
 373  888.1348
 374  927.4428
 375  848.738
 376  817.5513
 377  922.9222
 378  969.2051
 379  904.6927
 380  978.9991
 381  1089.731
 382  931.2283
 383  895.9724
 384  845.1131
 385  844.61
 386  1000.748
 387  993.7461
 388  938.654
 389  766.2275
 390  813.5698
 391  729.6888
 392  820.0543
 393  794.5496
 394  797.2208
 395  770.4479
 396  799.8932
 397  931.9022
 398  1002.48
 399  994.8626
 400  843.2593
 401  874.9956
 402  989.4348
 403  1136.242
 404  1048.251
 405  966.277
 406  923.2767
 407  793.1561
 408  802.7409
 409  739.4596
 410  608.5413
 411  621.8437
 412  728.6902
 413  840.6469
 414  1034.992
 415  936.8671
 416  914.3913
 417  769.5967
 418  836.8391
 419  886.5988
 420  1092.322
 421  1136.83
 422  956.017
 423  694.6709
 424  741.0294
 425  741.6422
 426  850.69
 427  875.3412
 428  929.0073
 429  867.3923
 430  922.3576
 431  920.9236
 432  921.886
 433  842.6596
 434  966.6052
 435  897.7275
 436  918.5895
 437  813.2792
 438  830.2925
 439  858.7205
 440  882.8474
 441  973.7902
 442  985.517
 443  954.0479
 444  771.65
 445  853.6149
 446  810.2177
 447  794.6246
 448  823.2092
 449  1046.821
 450  984.9974
 451  1062.558
 452  993.1063
 453  1033.527
 454  974.7085
 455  917.652
 456  935.1873
 457  887.7116
 458  972.666
 459  952.6085
 460  881.5374
 461  805.7477
 462  825.567
 463  826.5907
 464  729.3983
 465  672.1642
 466  676.946
 467  866.0993
 468  947.9169
 469  958.3114
 470  928.1653
 471  903.6234
 472  871.4338
 473  896.5325
 474  935.5128
 475  872.1424
 476  796.9818
 477  835.1546
 478  917.7271
 479  977.9811
 480  909.037
 481  896.9106
 482  1035.917
 483  1099.436
 484  986.6009
 485  934.1656
 486  975.0976
 487  967.309
 488  893.1999
 489  825.9188
 490  687.4965
 491  676.3151
 492  798.3539
 493  1005.317
 494  892.5499
 495  784.095
 496  807.3015
 497  814.8619
 498  758.8219
 499  748.1862
 500  840.2476
 501  985.3768
 502  942.9029
 503  819.7187
 504  873.3961
 505  845.0015
 506  870.3195
 507  947.9814
 508  926.4203
 509  752.1656
 510  754.3588
 511  819.3229
 512  892.0806
 513  905.1212
 514  945.6476
 515  860.5492
 516  948.8186
 517  1099.143
 518  1084.706
 519  963.8934
 520  940.9818
 521  1033.684
 522  961.0066
 523  918.255
 524  880.9879
 525  797.3879
 526  886.8762
 527  908.158
 528  900.3643
 529  828.4068
 530  844.7592
 531  813.487
 532  926.7624
 533  954.9919
 534  978.6157
 535  966.2826
 536  985.9684
 537  847.1716
 538  839.392
 539  827.0598
 540  717.9716
 541  714.381
 542  780.3398
 543  951.2606
 544  980.964
 545  1079.432
 546  1033.906
 547  977.202
 548  887.1244
 549  803.7552
 550  847.5048
 551  869.6148
 552  889.9205
 553  860.5046
 554  882.8006
 555  780.9982
 556  637.3123
 557  601.4432
 558  704.4493
 559  731.3721
 560  805.3264
 561  861.3179
 562  677.1342
 563  615.8344
 564  460.7666
 565  586.6547
 566  584.7368
 567  603.3909
 568  537.4631
 569  723.5512
 570  759.478
 571  733.3665
 572  815.6965
 573  1056.761
 574  971.3839
 575  962.345
 576  909.3827
 577  848.7474
 578  772.5555
 579  767.4827
 580  822.3503
 581  730.3279
 582  761.5958
 583  801.2309
 584  774.3384
 585  734.8289
 586  837.8044
 587  826.064
 588  914.1697
 589  926.0049
 590  938.7264
 591  991.3032
 592  907.7638
 593  839.3209
 594  781.2401
 595  892.2636
 596  963.676
 597  1096.655
 598  928.3632
 599  676.5153
 600  559.0503
 601  695.8785
 602  706.8239
 603  878.957
 604  931.0437
 605  876.1076
 606  710.8846
 607  685.4883
 608  699.0953
 609  760.5373
 610  763.4813
 611  857.7918
 612  930.4173
 613  933.5818
 614  848.21
 615  879.9544
 616  986.1778
 617  1080.297
 618  945.6193
 619  1071.41
 620  1055.941
 621  876.8703
 622  803.1663
 623  868.9166
 624  851.7808
 625  815.3062
 626  783.5846
 627  887.7107
 628  923.4981
 629  892.4116
 630  920.5953
 631  857.9049
 632  908.0025
 633  817.8916
 634  902.0427
 635  878.8519
 636  805.0063
 637  957.8667
 638  1066.749
 639  1096.869
 640  1023.177
 641  1038.544
 642  1049.19
 643  1045.554
 644  1138.048
 645  1158.346
 646  1162.001
 647  1319.811
 648  1548.302
 649  1616.896
 650  1720.442
 651  1723.924
 652  1788.543
 653  1796.243
 654  1751.742
 655  1469.684
 656  1341.538
 657  1171.972
 658  971.9285
 659  832.5858
 660  787.7416
 661  926.191
 662  970.1157
 663  1049.964
 664  858.8644
 665  837.4124
 666  871.5552
 667  927.1473
 668  923.4901
 669  989.0864
 670  1013.786
 671  1022.317
 672  908.4299
 673  838.1011
 674  774.8978
 675  957.15
 676  1122.184
 677  1178.408
 678  1109.767
 679  990.2915
 680  840.5024
 681  895.3404
 682  1032.239
 683  1011.21
 684  1009.692
 685  907.5732
 686  913.2886
 687  775.3944
 688  746.3572
 689  608.0978
 690  733.987
 691  747.363
 692  844.3372
 693  868.3794
 694  953.1691
 695  790.1025
 696  689.1231
 697  757.5585
 698  1098.013
 699  1241.455
 700  1228.43
 701  1051.139
 702  1094.148
 703  1150.302
 704  1079.381
 705  835.8019
 706  710.2474
 707  833.1308
 708  895.1452
 709  986.2999
 710  868.9944
 711  795.1702
 712  835.5543
 713  1017.994
 714  967.7056
 715  1089.769
 716  1108.983
 717  1177.164
 718  1072.443
 719  1037.548
 720  934.2631
 721  1024.475
 722  1002.709
 723  910.586
 724  733.8246
 725  662.664
 726  722.5912
 727  781.1928
 728  796.2917
 729  846.8694
 730  780.4164
 731  889.7222
 732  825.3339
 733  881.2862
 734  830.3289
 735  916.2822
 736  987.1356
 737  979.5631
 738  1026.102
 739  939.3532
 740  1083.515
 741  1020.876
 742  1000.008
 743  909.814
 744  935.2179
 745  893.2767
 746  1036.343
 747  917.7351
 748  730.6416
 749  757.4925
 750  982.6946
 751  1061.724
 752  1078.923
 753  1005.914
 754  925.9229
 755  825.899
 756  748.3148
 757  809.001
 758  890.9487
 759  995.437
 760  967.5245
 761  918.2005
 762  749.2836
 763  670.9409
 764  723.8102
 765  898.3992
 766  910.6026
 767  766.6081
 768  827.4706
 769  858.9655
 770  792.8892
 771  835.6475
 772  842.1551
 773  809.5954
 774  821.1146
 775  712.3603
 776  677.1193
 777  747.1192
 778  832.6886
 779  798.2475
 780  881.6384
 781  1081.572
 782  1135.194
 783  1098.074
 784  1046.351
 785  997.5231
 786  1025.996
 787  990.6253
 788  957.8477
 789  929.0782
 790  1023.631
 791  1054.686
 792  1047.995
 793  967.4543
 794  876.2389
 795  728.1881
 796  780.098
 797  822.3561
 798  833.4597
 799  885.1163
 800  1017.882
 801  1015.916
 802  989.1802
 803  806.2653
 804  754.3667
 805  800.0945
 806  948.9954
 807  928.8288
 808  918.0469
 809  901.9544
 810  810.984
 811  849.8312
 812  832.3339
 813  813.5198
 814  844.1749
 815  919.3045
 816  954.3047
 817  931.5795
 818  903.2124
 819  883.9868
 820  845.8431
 821  861.2642
 822  820.17
 823  841.1717
 824  805.8504
 825  839.1334
 826  760.884
 827  705.1215
 828  705.1777
 829  648.214
 830  746.362
 831  759.3531
 832  906.0449
 833  988.3578
 834  1030.54
 835  921.1707
 836  931.9734
 837  701.4208
 838  599.2545
 839  562.1237
 840  734.6331
 841  867.7774
 842  950.2404
 843  1060.848
 844  972.8842
 845  884.9553
 846  959.7794
 847  1011.495
 848  1070.876
 849  969.9818
 850  903.4456
 851  817.0735
 852  727.547
 853  658.0757
 854  737.8419
 855  832.262
 856  936.0649
 857  868.3595
 858  932.8746
 859  971.5412
 860  935.8193
 861  975.0054
 862  1043.061
 863  874.1124
 864  867.0839
 865  846.1166
 866  951.3298
 867  1010.054
 868  975.6349
 869  881.1282
 870  895.063
 871  968.1757
 872  805.1039
 873  708.5963
 874  900.5077
 875  1025.432
 876  957.7451
 877  745.9525
 878  689.2557
 879  963.8
 880  1076.799
 881  1044.995
 882  772.4697
 883  728.6076
 884  847.6906
 885  795.1755
 886  841.9557
 887  769.567
 888  760.8423
 889  787.1473
 890  816.4185
 891  773.8983
 892  812.1949
 893  833.7958
 894  935.0649
 895  849.815
 896  991.2767
 897  988.5717
 898  1052.421
 899  860.7564
 900  614.7502
 901  676.1021
 902  793.4351
 903  846.3355
 904  908.5848
 905  969.2198
 906  947.8095
 907  898.2363
 908  967.4826
 909  965.6105
 910  913.588
 911  990.3298
 912  1131.677
 913  1122.817
 914  1087.603
 915  889.8401
 916  760.9532
 917  722.4304
 918  806.1852
 919  722.5438
 920  690.826
 921  782.7015
 922  817.3995
 923  803.8438
 924  777.3507
 925  740.842
 926  819.516
 927  955.3895
 928  976.7656
 929  1097.749
 930  888.9285
 931  814.8505
 932  809.0351
 933  1032.029
 934  976.0784
 935  1085.792
 936  1041.999
 937  1075.349
 938  1010.304
 939  1084.626
 940  1032.781
 941  914.3829
 942  881.2109
 943  938.3843
 944  835.507
 945  749.4803
 946  739.207
 947  679.9498
 948  674.501
 949  834.673
 950  860.5186
 951  970.6064
 952  933.0448
 953  839.6398
 954  810.484
 955  773.3386
 956  897.5716
 957  943.9512
 958  843.1125
 959  746.3732
 960  663.4648
 961  705.9202
 962  714.7752
 963  798.122
 964  982.7762
 965  990.8856
 966  905.7906
 967  813.173
 968  742.0467
 969  845.5021
 970  771.66
 971  692.066
 972  778.6106
 973  858.5671
 974  904.5143
 975  864.0676
 976  1021.016
 977  1032.119
 978  823.0988
 979  794.2401
 980  929.1527
 981  850.6334
 982  812.3038
 983  671.0053
 984  648.1529
 985  580.8016
 986  565.6266
 987  651.494
 988  691.3463
 989  735.4004
 990  626.5773
 991  714.6385
 992  757.5345
 993  868.9041
 994  940.6095
 995  993.6797
 996  933.795
 997  909.2819
 998  930.2189
 999  981.3695
1000  1009.941
1001  1052.354
1002  929.9089
1003  846.31
1004  842.7703
1005  937.3693
1006  978.6536
1007  1052.637
1008  1091.614
1009  1000.413
1010  1059.565
1011  1014.525
1012  908.5219
1013  830.5589
1014  936.8086
1015  1030.708
1016  1161.863
1017  1157.306
1018  966.0829
1019  803.3029
1020  626.0718
1021  588.7816
1022  814.1411
1023  1020.271
