# Input file       =  1184832292.10788_cleaned.dat
# Candidate        =  PSR_0332+5434
# Telescope        =  AR
# Epoch_topo       =  57957.336934118983
# Epoch_bary       =  N/A
# T_sample         =  0.002
# Data Folded      =  7340032
# Data Avg         =  0.0428424889621399
# Data StdDev      =  1.00047456118175 
# Profile Bins     =  512
# Profile Avg      =  614.106633424467 
# Profile StdDev   =  119.789857028003 
# Reduced chi-sqr  =  1.506
# Prob(Noise)      <  9.46e-13   (~7.0 sigma)
# P_topo (ms)      =  714.47412481902   +/- 0.000238
# P'_topo (s/s)    =  -0                +/- 1.25e-10
# P''_topo (s/s^2) =  0                 +/- 5.54e-14
# P_bary (ms)      =  N/A
# P'_bary (s/s)    =  N/A
# P''_bary (s/s^2) =  N/A
# P_orb (s)        =  N/A
# asin(i)/c (s)    =  N/A
# eccentricity     =  N/A
# w (rad)          =  N/A
# T_peri           =  N/A
######################################################
   0  591.7104
   1  496.6296
   2  506.3338
   3  638.6904
   4  688.6135
   5  544.7607
   6  526.6691
   7  544.1694
   8  562.055
   9  505.8146
  10  472.5142
  11  533.6672
  12  411.1725
  13  429.8348
  14  584.2286
  15  555.4551
  16  519.5015
  17  624.24
  18  605.3162
  19  515.4496
  20  558.0143
  21  589.3915
  22  531.2042
  23  462.6335
  24  506.6338
  25  512.9229
  26  548.3204
  27  551.3621
  28  696.1576
  29  655.7676
  30  606.6177
  31  631.5705
  32  489.8079
  33  533.083
  34  533.2019
  35  645.3705
  36  686.7576
  37  592.7305
  38  589.1969
  39  547.431
  40  458.0126
  41  484.4568
  42  599.9626
  43  561.6627
  44  509.9785
  45  606.6788
  46  625.8567
  47  592.8013
  48  679.68
  49  595.7844
  50  474.5132
  51  629.9674
  52  725.1719
  53  720.4246
  54  648.2647
  55  613.3427
  56  606.5001
  57  569.4006
  58  595.3356
  59  680.834
  60  710.2336
  61  627.5182
  62  629.2428
  63  660.3784
  64  633.7189
  65  527.5851
  66  483.5378
  67  526.0648
  68  578.5907
  69  566.0864
  70  578.3105
  71  630.624
  72  592.1846
  73  560.0916
  74  573.514
  75  675.9504
  76  582.7017
  77  456.913
  78  531.4506
  79  610.7272
  80  662.3196
  81  705.9877
  82  700.1907
  83  579.9249
  84  554.734
  85  702.5137
  86  587.7054
  87  550.5573
  88  717.3771
  89  739.6234
  90  630.4737
  91  565.8981
  92  602.9904
  93  634.4365
  94  698.4584
  95  806.5374
  96  711.8781
  97  662.0039
  98  582.2791
  99  676.7405
 100  750.4547
 101  825.5849
 102  870.8736
 103  811.2785
 104  793.3866
 105  713.2079
 106  801.936
 107  826.9972
 108  849.4684
 109  867.6533
 110  831.6606
 111  882.5295
 112  768.2628
 113  784.3727
 114  720.162
 115  657.4719
 116  658.9778
 117  679.124
 118  721.2264
 119  714.6141
 120  706.1268
 121  763.5702
 122  760.5128
 123  642.7137
 124  640.8676
 125  590.5141
 126  538.212
 127  695.2166
 128  636.2131
 129  554.6964
 130  568.23
 131  600.937
 132  671.984
 133  672.9277
 134  556.3363
 135  525.508
 136  594.3704
 137  627.5171
 138  571.9112
 139  588.4315
 140  601.2912
 141  691.903
 142  566.7397
 143  538.3596
 144  594.6116
 145  700.4562
 146  735.5554
 147  718.5501
 148  734.559
 149  647.2245
 150  651.1927
 151  689.3653
 152  649.4746
 153  689.9135
 154  779.8694
 155  688.2416
 156  684.6982
 157  678.8398
 158  776.9471
 159  785.7375
 160  680.337
 161  641.7562
 162  643.1878
 163  675.4605
 164  725.0416
 165  742.4756
 166  787.3447
 167  661.0475
 168  653.2017
 169  686.4789
 170  653.2551
 171  679.3376
 172  598.1831
 173  624.6514
 174  586.356
 175  635.9432
 176  670.0811
 177  624.6541
 178  692.4218
 179  759.7103
 180  692.6356
 181  607.035
 182  691.2232
 183  601.83
 184  652.1806
 185  732.6866
 186  696.6625
 187  539.4492
 188  622.4507
 189  690.5237
 190  595.7001
 191  621.5612
 192  701.9067
 193  651.985
 194  566.5804
 195  729.1715
 196  697.704
 197  558.4648
 198  617.1567
 199  604.768
 200  567.567
 201  552.6004
 202  525.9044
 203  650.402
 204  695.5865
 205  550.9662
 206  575.3097
 207  738.7366
 208  651.593
 209  639.2192
 210  518.3577
 211  568.1486
 212  680.4803
 213  703.9561
 214  631.8152
 215  670.3252
 216  798.1296
 217  866.7968
 218  675.6239
 219  703.8865
 220  657.425
 221  681.1878
 222  780.9967
 223  767.9195
 224  793.7878
 225  674.7136
 226  644.3391
 227  618.7577
 228  660.2231
 229  665.5139
 230  546.0213
 231  573.7362
 232  560.3345
 233  546.2592
 234  506.1327
 235  533.6205
 236  680.2192
 237  540.6729
 238  519.6981
 239  525.8397
 240  524.5457
 241  512.3726
 242  615.7148
 243  557.556
 244  618.642
 245  715.5712
 246  608.7294
 247  647.6354
 248  646.5501
 249  586.6218
 250  566.4612
 251  657.2653
 252  662.6806
 253  646.7967
 254  610.8929
 255  541.8979
 256  550.9016
 257  570.8264
 258  695.8644
 259  712.671
 260  660.8134
 261  570.244
 262  455.9181
 263  644.8503
 264  574.6232
 265  549.1601
 266  669.2219
 267  557.5294
 268  701.8331
 269  739.5349
 270  689.6266
 271  664.5822
 272  619.2294
 273  821.2953
 274  1027.465
 275  1225.676
 276  1228.362
 277  1137.585
 278  1069.786
 279  1028.604
 280  815.0816
 281  689.9646
 282  690.2072
 283  635.0201
 284  572.0646
 285  569.0998
 286  572.2059
 287  599.1199
 288  602.8722
 289  642.4709
 290  634.9219
 291  613.0799
 292  561.0198
 293  592.0394
 294  549.0439
 295  470.4571
 296  398.739
 297  500.5368
 298  622.5789
 299  600.7269
 300  513.0153
 301  529.233
 302  431.6931
 303  434.6624
 304  441.9887
 305  432.9136
 306  415.2556
 307  565.2607
 308  529.0201
 309  563.1557
 310  638.5541
 311  603.3088
 312  483.9053
 313  619.4407
 314  664.0746
 315  636.7488
 316  649.6446
 317  564.3931
 318  549.2861
 319  599.4312
 320  555.2629
 321  518.6398
 322  506.2894
 323  522.7486
 324  491.3232
 325  435.6254
 326  513.4658
 327  627.5436
 328  661.7794
 329  531.3707
 330  461.7908
 331  531.4737
 332  578.0023
 333  530.8394
 334  543.5474
 335  422.5863
 336  374.4947
 337  476.9757
 338  539.6853
 339  435.6143
 340  525.5445
 341  569.7751
 342  500.1084
 343  483.1526
 344  584.1698
 345  569.1094
 346  591.4452
 347  524.1322
 348  520.4311
 349  474.3649
 350  545.7498
 351  440.2552
 352  437.7914
 353  475.0241
 354  551.2946
 355  564.6413
 356  525.6198
 357  551.6419
 358  490.3781
 359  482.1502
 360  507.638
 361  586.8783
 362  525.9422
 363  464.7717
 364  468.8608
 365  462.1815
 366  579.7193
 367  654.0212
 368  600.2339
 369  649.9126
 370  594.5104
 371  561.6497
 372  594.2038
 373  599.918
 374  569.1207
 375  692.9828
 376  711.796
 377  587.1252
 378  584.1407
 379  516.9806
 380  600.1892
 381  452.0962
 382  479.2959
 383  629.9026
 384  653.3827
 385  525.6163
 386  516.0168
 387  553.475
 388  548.6835
 389  493.1049
 390  563.2759
 391  699.5447
 392  681.0208
 393  711.2276
 394  640.1249
 395  546.9676
 396  496.3868
 397  597.1656
 398  620.7682
 399  638.1832
 400  613.769
 401  558.0024
 402  488.787
 403  533.3022
 404  628.9164
 405  560.3204
 406  516.5643
 407  502.5179
 408  588.2582
 409  495.282
 410  379.8916
 411  569.6727
 412  525.7304
 413  334.3443
 414  483.4635
 415  626.1468
 416  750.7408
 417  690.6671
 418  634.5148
 419  648.0115
 420  632.3502
 421  477.5512
 422  469.9929
 423  606.9893
 424  688.7562
 425  635.487
 426  616.7676
 427  628.7944
 428  592.314
 429  510.3085
 430  621.7414
 431  613.4868
 432  693.2169
 433  727.6393
 434  627.9593
 435  606.7747
 436  670.7557
 437  695.6912
 438  695.0269
 439  805.0157
 440  768.8632
 441  678.3986
 442  626.026
 443  747.937
 444  750.8986
 445  723.5578
 446  684.4318
 447  532.7502
 448  532.9538
 449  612.6978
 450  604.671
 451  632.6046
 452  658.222
 453  613.0657
 454  560.4228
 455  595.8781
 456  593.2269
 457  614.6836
 458  495.4797
 459  545.9204
 460  643.3747
 461  601.4395
 462  603.433
 463  675.5123
 464  680.948
 465  484.1809
 466  500.7677
 467  546.1713
 468  564.7276
 469  598.0038
 470  559.7054
 471  534.7478
 472  456.3011
 473  448.0537
 474  425.2846
 475  472.8357
 476  577.818
 477  594.5145
 478  647.2114
 479  598.265
 480  600.0179
 481  651.5414
 482  620.3605
 483  630.3764
 484  582.7475
 485  592.3662
 486  569.9092
 487  681.4686
 488  712.9189
 489  733.1352
 490  691.5673
 491  756.7405
 492  727.2731
 493  674.1009
 494  629.0052
 495  529.2943
 496  748.6116
 497  750.077
 498  693.9512
 499  692.5179
 500  609.0511
 501  557.4766
 502  521.8412
 503  554.4277
 504  658.2904
 505  663.1576
 506  479.9621
 507  408.9541
 508  490.6177
 509  537.0897
 510  579.9027
 511  568.4492
