# Input file       =  1184989753.099401_cleaned.dat
# Candidate        =  PSR_0332+5434
# Telescope        =  AR
# Epoch_topo       =  57959.159399298624
# Epoch_bary       =  N/A
# T_sample         =  0.002
# Data Folded      =  7340032
# Data Avg         =  0.0361319625305238
# Data StdDev      =  1.00065625185139 
# Profile Bins     =  512
# Profile Avg      =  517.953021421757 
# Profile StdDev   =  119.811611403561 
# Reduced chi-sqr  =  1.525
# Prob(Noise)      <  1.71e-13   (~7.3 sigma)
# P_topo (ms)      =  714.472793427227  +/- 0.000288
# P'_topo (s/s)    =  -0                +/- 1.52e-10
# P''_topo (s/s^2) =  0                 +/- 6.7e-14
# P_bary (ms)      =  N/A
# P'_bary (s/s)    =  N/A
# P''_bary (s/s^2) =  N/A
# P_orb (s)        =  N/A
# asin(i)/c (s)    =  N/A
# eccentricity     =  N/A
# w (rad)          =  N/A
# T_peri           =  N/A
######################################################
   0  1254.221
   1  1193.009
   2  1012.885
   3  613.6122
   4  491.497
   5  477.8081
   6  482.6577
   7  482.9446
   8  460.9341
   9  578.5702
  10  675.3681
  11  615.825
  12  502.6141
  13  488.0237
  14  651.5012
  15  617.4319
  16  546.9064
  17  485.0247
  18  479.3945
  19  441.6565
  20  523.8497
  21  470.4935
  22  454.7214
  23  557.5854
  24  480.8484
  25  375.3269
  26  462.9683
  27  475.6894
  28  403.8784
  29  420.9695
  30  461.3627
  31  519.8253
  32  551.4724
  33  514.5247
  34  466.971
  35  467.989
  36  544.9624
  37  533.1692
  38  570.521
  39  502.0476
  40  498.727
  41  484.4327
  42  464.4603
  43  418.8228
  44  544.0829
  45  619.2564
  46  539.4369
  47  551.5286
  48  526.9617
  49  532.598
  50  488.2964
  51  468.7458
  52  465.0539
  53  488.5616
  54  426.7437
  55  495.2366
  56  537.5765
  57  535.5879
  58  493.4514
  59  485.2404
  60  598.8407
  61  592.5086
  62  423.0851
  63  378.2661
  64  450.9621
  65  570.2501
  66  703.115
  67  630.4321
  68  573.7311
  69  613.8469
  70  683.7855
  71  592.0727
  72  640.3548
  73  611.973
  74  640.7476
  75  614.9698
  76  516.4378
  77  567.7361
  78  649.4837
  79  582.9212
  80  506.5362
  81  595.6828
  82  499.6346
  83  416.0358
  84  567.3774
  85  599.5494
  86  552.6103
  87  500.226
  88  582.0936
  89  564.4873
  90  463.3167
  91  562.816
  92  584.2057
  93  612.7549
  94  532.3325
  95  572.064
  96  564.379
  97  563.7258
  98  475.5833
  99  401.0316
 100  381.5975
 101  436.3058
 102  429.0949
 103  509.0378
 104  442.8542
 105  426.2308
 106  544.6204
 107  517.3359
 108  469.0745
 109  566.801
 110  498.7016
 111  556.1603
 112  536.1047
 113  531.4721
 114  559.1443
 115  482.3275
 116  448.879
 117  574.5397
 118  655.5677
 119  677.9427
 120  606.5862
 121  607.6705
 122  617.8911
 123  614.5375
 124  486.647
 125  596.6199
 126  482.0465
 127  474.8357
 128  593.8061
 129  501.0823
 130  471.298
 131  460.5681
 132  417.5568
 133  469.8198
 134  484.8556
 135  582.5533
 136  583.1667
 137  510.8769
 138  549.881
 139  504.1007
 140  515.1368
 141  461.0978
 142  460.7696
 143  579.4974
 144  493.4854
 145  535.6641
 146  553.1348
 147  444.9385
 148  495.9093
 149  457.8008
 150  436.4654
 151  397.1402
 152  481.822
 153  561.9233
 154  588.4899
 155  518.4534
 156  462.2161
 157  362.3017
 158  434.4149
 159  460.8978
 160  494.7391
 161  452.0367
 162  434.1387
 163  434.344
 164  398.1146
 165  418.597
 166  368.9167
 167  417.6246
 168  411.1901
 169  450.3276
 170  507.9543
 171  369.008
 172  353.079
 173  336.4816
 174  386.8606
 175  406.5562
 176  479.6111
 177  518.6491
 178  484.1711
 179  558.4022
 180  633.6959
 181  517.3807
 182  429.6764
 183  503.0009
 184  629.1277
 185  639.7631
 186  546.5159
 187  607.2924
 188  512.9819
 189  649.9608
 190  658.6818
 191  650.7715
 192  619.4642
 193  485.2637
 194  524.819
 195  530.8873
 196  560.8994
 197  572.8585
 198  593.7156
 199  537.7479
 200  480.1248
 201  544.8817
 202  582.0805
 203  535.4619
 204  521.2725
 205  494.325
 206  558.119
 207  670.6597
 208  627.8931
 209  557.7917
 210  592.9871
 211  561.5505
 212  559.3361
 213  536.5509
 214  388.2028
 215  473.4113
 216  498.0241
 217  387.7195
 218  432.0138
 219  516.7947
 220  530.6412
 221  425.4972
 222  500.1089
 223  511.6872
 224  485.6354
 225  434.1898
 226  603.2678
 227  627.3743
 228  450.5443
 229  436.853
 230  516.1426
 231  564.7626
 232  587.1943
 233  618.0582
 234  541.1022
 235  524.4913
 236  580.9584
 237  631.8702
 238  748.1549
 239  678.1153
 240  622.5026
 241  647.1301
 242  663.649
 243  549.9421
 244  606.5191
 245  664.0181
 246  575.0565
 247  526.6292
 248  587.1779
 249  573.0595
 250  477.4057
 251  409.8085
 252  469.2811
 253  474.7404
 254  553.8737
 255  608.0383
 256  608.5955
 257  589.6544
 258  599.1303
 259  636.7314
 260  581.8147
 261  599.7357
 262  591.78
 263  597.973
 264  715.2203
 265  673.1111
 266  678.3163
 267  582.5261
 268  551.9869
 269  642.9574
 270  655.9332
 271  657.9029
 272  599.0367
 273  707.4291
 274  656.4702
 275  574.3247
 276  608.2928
 277  539.4751
 278  566.7274
 279  510.0421
 280  611.4818
 281  684.3687
 282  619.5879
 283  606.836
 284  694.7155
 285  687.2617
 286  691.3068
 287  660.6834
 288  576.5944
 289  649.7897
 290  667.7535
 291  556.9378
 292  617.6889
 293  655.2993
 294  696.0051
 295  651.269
 296  668.6757
 297  508.5471
 298  460.701
 299  588.3754
 300  610.6847
 301  570.9778
 302  476.1061
 303  593.1969
 304  646.2514
 305  552.0115
 306  562.7708
 307  620.6805
 308  664.0195
 309  581.7158
 310  559.3157
 311  612.6473
 312  472.3059
 313  410.6316
 314  380.2888
 315  497.5902
 316  457.4396
 317  444.2663
 318  482.8238
 319  460.8135
 320  602.65
 321  480.752
 322  449.7578
 323  539.8256
 324  529.9083
 325  644.4948
 326  556.5359
 327  508.7506
 328  468.5866
 329  426.0165
 330  489.3954
 331  422.026
 332  394.9957
 333  559.9594
 334  561.2779
 335  535.1157
 336  509.1218
 337  469.1665
 338  476.3468
 339  516.8015
 340  556.9028
 341  460.8308
 342  333.0115
 343  379.5575
 344  427.0779
 345  540.4644
 346  523.2485
 347  529.45
 348  474.6266
 349  597.6246
 350  680.5244
 351  540.1839
 352  470.6054
 353  447.6716
 354  488.607
 355  537.6351
 356  564.3231
 357  526.8385
 358  528.9283
 359  375.2907
 360  472.4019
 361  462.8028
 362  609.1415
 363  687.8627
 364  508.5658
 365  424.4454
 366  506.166
 367  558.3646
 368  417.9437
 369  443.3618
 370  354.4227
 371  367.3158
 372  440.4605
 373  411.7215
 374  525.7007
 375  467.504
 376  517.7897
 377  486.732
 378  424.1712
 379  439.1254
 380  269.1007
 381  342.2587
 382  421.3563
 383  443.4525
 384  404.6651
 385  480.0488
 386  482.498
 387  496.2072
 388  446.7798
 389  441.6741
 390  534.2407
 391  542.5665
 392  483.9213
 393  539.0863
 394  537.7863
 395  461.678
 396  413.2165
 397  425.6102
 398  518.3444
 399  467.5995
 400  495.8074
 401  508.937
 402  377.9361
 403  329.0706
 404  378.5247
 405  393.6595
 406  343.4758
 407  408.231
 408  353.679
 409  356.3632
 410  455.3406
 411  432.5922
 412  425.4536
 413  359.5884
 414  395.5116
 415  457.2094
 416  490.3749
 417  399.4416
 418  471.5822
 419  505.4062
 420  552.829
 421  521.477
 422  394.4141
 423  441.4179
 424  354.8597
 425  394.3187
 426  429.3795
 427  362.3687
 428  439.6319
 429  562.7272
 430  488.0141
 431  326.2801
 432  312.8958
 433  333.1252
 434  385.6466
 435  462.6847
 436  539.275
 437  500.5679
 438  506.4159
 439  489.3544
 440  511.027
 441  378.4187
 442  360.6314
 443  416.9319
 444  427.7103
 445  320.3005
 446  320.458
 447  450.0645
 448  496.161
 449  460.2967
 450  442.0345
 451  413.7132
 452  522.9955
 453  431.1729
 454  362.0386
 455  433.7495
 456  454.9036
 457  432.3951
 458  362.0655
 459  488.3976
 460  588.7932
 461  580.6226
 462  494.5952
 463  518.951
 464  556.4661
 465  550.9885
 466  436.5634
 467  478.5568
 468  484.1246
 469  582.6459
 470  588.561
 471  631.456
 472  700.5981
 473  528.0049
 474  431.4306
 475  342.2674
 476  597.2365
 477  644.2857
 478  457.9147
 479  463.7043
 480  451.5135
 481  408.405
 482  421.4079
 483  477.0137
 484  478.3798
 485  566.0972
 486  528.7388
 487  337.6908
 488  288.5822
 489  367.8742
 490  454.2767
 491  491.088
 492  369.3142
 493  432.6411
 494  410.5059
 495  458.6666
 496  501.9382
 497  436.3008
 498  385.0186
 499  463.9597
 500  504.9776
 501  475.9712
 502  391.2181
 503  410.0695
 504  415.1228
 505  431.203
 506  635.4006
 507  651.7725
 508  615.1994
 509  854.9681
 510  1050.377
 511  1109.026
