# Input file       =  1184300437.121662_cleaned.dat
# Candidate        =  PSR_0332+5434
# Telescope        =  AR
# Epoch_topo       =  57951.181205111825
# Epoch_bary       =  N/A
# T_sample         =  0.002
# Data Folded      =  7340032
# Data Avg         =  0.128410338083216
# Data StdDev      =  3.54253175166101 
# Profile Bins     =  1024
# Profile Avg      =  922.285142686354 
# Profile StdDev   =  299.925056846242 
# Reduced chi-sqr  =  0.934
# Prob(Noise)      <  0.936   (~0.0 sigma)
# P_topo (ms)      =  714.477499136693  +/- 0.000224
# P'_topo (s/s)    =  -0                +/- 1.18e-10
# P''_topo (s/s^2) =  0                 +/- 5.21e-14
# P_bary (ms)      =  N/A
# P'_bary (s/s)    =  N/A
# P''_bary (s/s^2) =  N/A
# P_orb (s)        =  N/A
# asin(i)/c (s)    =  N/A
# eccentricity     =  N/A
# w (rad)          =  N/A
# T_peri           =  N/A
######################################################
   0  907.642
   1  825.2442
   2  877.5579
   3  813.8817
   4  822.8167
   5  855.6732
   6  1015.315
   7  1057.939
   8  1017.763
   9  1025.932
  10  986.7714
  11  1011.324
  12  1026.476
  13  1102.143
  14  1138.237
  15  1108.149
  16  1115.364
  17  1012.121
  18  959.7677
  19  927.7916
  20  959.5497
  21  1020.484
  22  1021.96
  23  1066.39
  24  1125.631
  25  1114.296
  26  990.6483
  27  916.3737
  28  948.6872
  29  884.022
  30  845.3381
  31  736.5187
  32  722.7831
  33  695.5258
  34  683.3259
  35  633.1974
  36  662.1229
  37  759.6415
  38  863.0428
  39  901.7051
  40  831.2728
  41  790.5059
  42  836.1839
  43  872.7083
  44  778.6849
  45  659.9916
  46  615.0589
  47  712.7844
  48  861.618
  49  978.7446
  50  906.2015
  51  779.7643
  52  849.3117
  53  936.9277
  54  928.3936
  55  823.9149
  56  803.6337
  57  869.345
  58  973.1801
  59  1014.245
  60  980.9749
  61  915.4866
  62  920.4358
  63  918.2615
  64  916.8757
  65  928.1544
  66  1050.473
  67  1028.57
  68  1102.526
  69  1148.646
  70  1161.224
  71  1026.73
  72  997.8566
  73  970.1223
  74  1001.023
  75  916.4203
  76  919.231
  77  950.5042
  78  1002.174
  79  1060.72
  80  1061.108
  81  970.0889
  82  994.3016
  83  1025.232
  84  1034.076
  85  965.5238
  86  980.4418
  87  951.1664
  88  930.2938
  89  883.2471
  90  1009.549
  91  992.8665
  92  945.73
  93  898.1486
  94  969.6932
  95  1029.357
  96  1048.929
  97  1028.221
  98  962.208
  99  891.7364
 100  877.0213
 101  836.2073
 102  818.3264
 103  863.3235
 104  1021.644
 105  1101.418
 106  1163.01
 107  1176.998
 108  1196.828
 109  1102.605
 110  1100.413
 111  1019.039
 112  975.129
 113  936.2096
 114  948.6841
 115  1083.937
 116  1107.794
 117  1121.053
 118  990.2429
 119  932.1572
 120  1013.293
 121  1054.583
 122  1145.898
 123  1156.675
 124  1071.915
 125  952.3937
 126  926.2033
 127  910.39
 128  915.8466
 129  887.1626
 130  901.2346
 131  918.2494
 132  916.0562
 133  1006.472
 134  1128.308
 135  1106.826
 136  1036.641
 137  889.9549
 138  843.7252
 139  744.2618
 140  782.2789
 141  786.5891
 142  733.3474
 143  762.8077
 144  895.5942
 145  925.8389
 146  928.9203
 147  844.4156
 148  843.9172
 149  859.5045
 150  860.3668
 151  848.3913
 152  876.5537
 153  927.2238
 154  946.5115
 155  952.7042
 156  895.0731
 157  838.889
 158  844.1315
 159  854.3388
 160  953.0063
 161  1004.573
 162  1019.211
 163  992.183
 164  931.8112
 165  1004.846
 166  989.9283
 167  1018.26
 168  1000.412
 169  1015.714
 170  1082.913
 171  1077.49
 172  1060.82
 173  998.2648
 174  1015.25
 175  1025.896
 176  1053.459
 177  1115.316
 178  1153.845
 179  1128.107
 180  1008.892
 181  843.2875
 182  715.0756
 183  824.8226
 184  986.5713
 185  1099.468
 186  1144.12
 187  1186.27
 188  1212.163
 189  1052.89
 190  1021.72
 191  1079.643
 192  1144.605
 193  1167.18
 194  1209.005
 195  1151.592
 196  1085.915
 197  975.2913
 198  982.6136
 199  922.7112
 200  980.9813
 201  1110.337
 202  1137.608
 203  1154.608
 204  1063.886
 205  963.8599
 206  860.9844
 207  795.4152
 208  818.8126
 209  860.6776
 210  814.4848
 211  781.326
 212  749.5181
 213  777.1164
 214  882.7519
 215  864.7006
 216  797.2478
 217  699.0305
 218  732.3235
 219  745.6386
 220  709.9059
 221  744.7618
 222  779.5865
 223  813.1512
 224  810.7656
 225  883.2236
 226  953.9437
 227  972.7576
 228  1046.694
 229  1053.393
 230  1120.756
 231  1083.436
 232  965.0958
 233  839.5803
 234  813.5436
 235  839.0177
 236  864.5551
 237  855.9692
 238  919.9374
 239  866.6547
 240  732.2353
 241  662.3326
 242  691.875
 243  846.8104
 244  958.6846
 245  1000.445
 246  937.2264
 247  749.9387
 248  739.1982
 249  763.3952
 250  842.0974
 251  901.1774
 252  957.0158
 253  981.2573
 254  1003.495
 255  1035.456
 256  1139.867
 257  1168.344
 258  1181.071
 259  1113.389
 260  992.9776
 261  907.81
 262  975.3597
 263  1074.211
 264  1066.371
 265  1052.296
 266  1136.81
 267  1186.199
 268  1285.167
 269  1370.245
 270  1406.983
 271  1411.408
 272  1291.853
 273  1129.309
 274  1014.235
 275  1001.307
 276  1054.874
 277  993.21
 278  1022.816
 279  979.0665
 280  863.7373
 281  784.6448
 282  836.1932
 283  880.0214
 284  841.7811
 285  802.8472
 286  919.9151
 287  947.935
 288  897.3349
 289  838.1522
 290  856.4633
 291  792.8476
 292  788.0083
 293  834.3739
 294  855.5551
 295  782.472
 296  785.4186
 297  783.0521
 298  764.8915
 299  737.6441
 300  754.1652
 301  746.3755
 302  785.1047
 303  770.2159
 304  869.068
 305  894.8466
 306  945.2772
 307  901.3067
 308  869.8841
 309  901.1525
 310  895.4386
 311  940.3911
 312  843.9865
 313  812.063
 314  786.3859
 315  806.3843
 316  883.5442
 317  838.0964
 318  947.5299
 319  944.2753
 320  1022.076
 321  974.7679
 322  898.0466
 323  863.2361
 324  822.4559
 325  792.8124
 326  839.139
 327  822.2819
 328  825.9042
 329  785.6045
 330  906.1285
 331  1007.061
 332  1038.865
 333  908.7057
 334  928.1524
 335  918.59
 336  977.3458
 337  965.5863
 338  915.3721
 339  899.2206
 340  840.8639
 341  884.3348
 342  1064.461
 343  1153.599
 344  1078.587
 345  994.5983
 346  1015.935
 347  974.0015
 348  965.3531
 349  894.4381
 350  1048.064
 351  1085.949
 352  1193.257
 353  1094.887
 354  1134.86
 355  993.2755
 356  950.598
 357  927.8528
 358  1036.391
 359  1098.489
 360  1034.267
 361  973.3043
 362  911.0065
 363  897.9568
 364  906.6788
 365  963.7779
 366  983.2776
 367  1056.751
 368  904.3348
 369  892.5498
 370  829.2691
 371  894.7553
 372  868.5992
 373  854.7069
 374  825.4729
 375  798.1326
 376  902.5099
 377  1024.259
 378  1044.376
 379  956.8217
 380  890.6475
 381  859.5317
 382  910.4713
 383  839.2493
 384  823.7829
 385  787.1661
 386  878.6431
 387  932.892
 388  1027.97
 389  983.8401
 390  943.7985
 391  816.9783
 392  816.6259
 393  793.2717
 394  782.2711
 395  835.9603
 396  909.6198
 397  1001.519
 398  993.7092
 399  989.381
 400  1033.646
 401  1009.76
 402  1028.933
 403  1008.423
 404  1072.157
 405  1004.357
 406  865.7046
 407  834.3684
 408  843.3674
 409  909.2134
 410  955.587
 411  1089.315
 412  1097.823
 413  1032.389
 414  924.6565
 415  942.4304
 416  947.0851
 417  862.6411
 418  861.5211
 419  992.3175
 420  1116.318
 421  1079.343
 422  910.1326
 423  854.2229
 424  806.2391
 425  891.7916
 426  882.1921
 427  955.536
 428  913.132
 429  933.3641
 430  886.6804
 431  846.0948
 432  947.7465
 433  993.5438
 434  1040.877
 435  1000.181
 436  974.7949
 437  1047.067
 438  1092.215
 439  1172.764
 440  1155.843
 441  1115.454
 442  1185.303
 443  1177.84
 444  1172.969
 445  1171.64
 446  1165.745
 447  1104.435
 448  987.1334
 449  960.3948
 450  1035.961
 451  1072.65
 452  1078.148
 453  1044.15
 454  1089.235
 455  1083.258
 456  1013.277
 457  906.9605
 458  924.8871
 459  960.0931
 460  1002.119
 461  938.7388
 462  1011.003
 463  1011.44
 464  1037.758
 465  977.9813
 466  1024.118
 467  1105.821
 468  1011.178
 469  930.4792
 470  813.1873
 471  843.283
 472  980.4862
 473  921.0705
 474  938.4819
 475  905.5465
 476  1009.898
 477  969.3524
 478  857.4355
 479  788.4869
 480  830.701
 481  839.3196
 482  871.6044
 483  834.0726
 484  900.0362
 485  855.8491
 486  818.7131
 487  724.2725
 488  801.4349
 489  850.0653
 490  814.8411
 491  763.8239
 492  711.744
 493  615.9636
 494  652.208
 495  678.5073
 496  868.5379
 497  851.9412
 498  811.3568
 499  738.3721
 500  731.6728
 501  720.8482
 502  815.364
 503  888.6014
 504  878.9096
 505  748.4857
 506  742.3351
 507  799.6761
 508  800.3772
 509  844.1497
 510  899.8757
 511  938.5925
 512  987.5256
 513  977.8118
 514  1017.079
 515  938.513
 516  938.267
 517  992.8769
 518  1109.408
 519  1145.258
 520  1156.446
 521  1182.929
 522  1087.986
 523  992.4738
 524  847.6513
 525  892.7752
 526  827.2402
 527  869.272
 528  778.5512
 529  835.4691
 530  843.3089
 531  986.9905
 532  969.6503
 533  1018.576
 534  1027.492
 535  1005.593
 536  893.2265
 537  821.3242
 538  902.3575
 539  1041.797
 540  1078.376
 541  994.3566
 542  939.066
 543  877.1111
 544  822.7071
 545  770.7172
 546  790.423
 547  769.5919
 548  784.7401
 549  841.6241
 550  966.8887
 551  891.0067
 552  808.1923
 553  687.3722
 554  566.4052
 555  637.2305
 556  659.0162
 557  665.6033
 558  551.2108
 559  638.4547
 560  873.6445
 561  934.4288
 562  852.3746
 563  856.2607
 564  904.4806
 565  950.0131
 566  937.8087
 567  1003.666
 568  1027.08
 569  936.0688
 570  885.9824
 571  821.754
 572  760.2446
 573  774.3771
 574  823.5482
 575  932.5165
 576  922.965
 577  887.8669
 578  862.8346
 579  763.6587
 580  661.9903
 581  718.297
 582  896.1161
 583  871.0804
 584  848.0991
 585  848.2437
 586  950.1655
 587  892.6196
 588  898.9529
 589  863.8871
 590  853.2327
 591  874.5211
 592  892.9952
 593  1022.548
 594  954.0672
 595  952.9183
 596  946.901
 597  965.8967
 598  1057.772
 599  1067.525
 600  1170.832
 601  1202.798
 602  1196.934
 603  1224.771
 604  1291.483
 605  1296.492
 606  1328.921
 607  1302.292
 608  1281.191
 609  1139.676
 610  1069.549
 611  1062.232
 612  1140.313
 613  1085.336
 614  1059.604
 615  1131.382
 616  1134.427
 617  1112.131
 618  1063.927
 619  1041.344
 620  953.0566
 621  829.9171
 622  897.3504
 623  1032.511
 624  1155.713
 625  1083.805
 626  954.266
 627  835.8941
 628  901.8624
 629  867.4252
 630  887.1888
 631  839.5219
 632  863.7408
 633  874.0341
 634  911.3748
 635  980.3998
 636  941.0833
 637  918.9659
 638  865.214
 639  798.3944
 640  725.457
 641  660.5029
 642  756.2726
 643  893.673
 644  1011.403
 645  1140.031
 646  1238.565
 647  1411.903
 648  1492.774
 649  1570.524
 650  1718.663
 651  1858.501
 652  1849.679
 653  1850.881
 654  1829.235
 655  1839.281
 656  1554.063
 657  1391.021
 658  1123.579
 659  1012.937
 660  842.2605
 661  752.4687
 662  759.9156
 663  853.8647
 664  943.3427
 665  949.342
 666  878.1128
 667  883.0333
 668  886.0759
 669  850.1881
 670  756.6722
 671  672.3604
 672  746.5766
 673  847.1461
 674  847.5962
 675  838.1881
 676  768.6009
 677  755.6738
 678  733.9804
 679  836.5204
 680  1067.691
 681  1179.893
 682  1243.081
 683  1217.042
 684  1192.753
 685  1086.155
 686  982.4351
 687  876.3595
 688  947.2505
 689  917.6101
 690  1002.993
 691  1025.151
 692  1075.986
 693  1109.549
 694  1114.416
 695  1141.082
 696  1049.36
 697  975.8403
 698  992.3715
 699  1020.322
 700  1104.556
 701  1017.512
 702  905.8664
 703  843.5458
 704  800.9215
 705  844.2231
 706  771.6587
 707  857.1953
 708  885.2288
 709  909.821
 710  902.049
 711  932.8928
 712  1018.758
 713  971.92
 714  917.0435
 715  831.764
 716  784.8561
 717  745.4751
 718  802.0474
 719  868.8114
 720  961.7659
 721  1059.664
 722  1088.706
 723  1030.073
 724  913.9706
 725  998.6187
 726  1078.939
 727  1044.183
 728  889.798
 729  881.0978
 730  959.4683
 731  965.4305
 732  921.6826
 733  968.4691
 734  1036.4
 735  1119.96
 736  1119.173
 737  1050.005
 738  963.0771
 739  964.1558
 740  988.1566
 741  986.4669
 742  964.4427
 743  932.0452
 744  884.1877
 745  738.1342
 746  620.5735
 747  697.6992
 748  882.5375
 749  1027.084
 750  1033.08
 751  986.4667
 752  960.6951
 753  996.4752
 754  1061.155
 755  980.2004
 756  864.9599
 757  762.2507
 758  721.5344
 759  708.7982
 760  838.6936
 761  918.3699
 762  956.786
 763  922.026
 764  901.5256
 765  951.6025
 766  983.3556
 767  1038.477
 768  1077.213
 769  1067.158
 770  973.3711
 771  776.1916
 772  719.3549
 773  819.6635
 774  913.7145
 775  961.845
 776  920.6132
 777  911.4864
 778  981.8358
 779  1055.25
 780  1079.761
 781  1069.248
 782  1049.523
 783  1039.278
 784  953.3557
 785  936.6852
 786  961.8444
 787  889.6202
 788  959.0163
 789  1012.077
 790  1120.642
 791  1075.34
 792  916.3379
 793  816.8489
 794  827.9484
 795  874.1621
 796  1002.498
 797  1033.336
 798  1030.236
 799  863.7172
 800  844.7585
 801  720.4326
 802  635.7833
 803  609.9607
 804  670.1415
 805  796.3811
 806  833.2039
 807  849.0352
 808  793.4514
 809  821.5167
 810  863.1564
 811  818.15
 812  793.7254
 813  825.463
 814  872.9254
 815  958.7797
 816  1062.955
 817  1099.637
 818  1164.162
 819  1136
 820  1014.744
 821  825.0206
 822  689.8776
 823  623.4457
 824  755.5526
 825  760.9731
 826  770.8249
 827  857.5558
 828  941.7452
 829  969.0864
 830  1000.387
 831  1097.096
 832  1178.094
 833  1146.707
 834  1113.414
 835  1050.561
 836  986.1342
 837  881.6776
 838  729.9278
 839  707.1405
 840  699.7717
 841  757.9722
 842  679.5958
 843  691.6536
 844  700.7187
 845  712.0447
 846  726.3254
 847  752.7922
 848  869.0742
 849  800.8474
 850  780.9536
 851  929.8688
 852  1032.439
 853  916.6134
 854  726.2763
 855  676.5268
 856  774.4884
 857  869.3748
 858  904.5495
 859  955.0905
 860  940.6
 861  902.9319
 862  781.89
 863  802.1522
 864  833.3311
 865  888.671
 866  939.8808
 867  970.4111
 868  920.3254
 869  986.564
 870  1067.505
 871  1086.246
 872  979.3116
 873  1001.4
 874  990.1757
 875  1007.852
 876  893.697
 877  933.9479
 878  934.166
 879  969.3115
 880  963.802
 881  921.0192
 882  911.7702
 883  967.9592
 884  975.8785
 885  890.8114
 886  896.5974
 887  889.6626
 888  809.5416
 889  717.0231
 890  736.6625
 891  729.8428
 892  751.0356
 893  721.5281
 894  864.3305
 895  882.5717
 896  955.7277
 897  882.2027
 898  822.2443
 899  831.6975
 900  795.2004
 901  851.2701
 902  822.5004
 903  873.7693
 904  870.2563
 905  867.5096
 906  855.0917
 907  814.3754
 908  747.8133
 909  743.2505
 910  841.1301
 911  884.8201
 912  908.8967
 913  901.3006
 914  960.2621
 915  949.0496
 916  921.9233
 917  936.438
 918  1052.947
 919  1012.484
 920  906.747
 921  774.246
 922  730.5891
 923  744.8145
 924  789.0066
 925  801.9361
 926  804.0562
 927  731.4138
 928  720.1172
 929  772.5663
 930  936.4018
 931  893.5402
 932  763.3729
 933  593.8698
 934  658.1464
 935  783.539
 936  764.7272
 937  773.0532
 938  822.7978
 939  887.7977
 940  903.8682
 941  812.3702
 942  898.4464
 943  860.7508
 944  865.9055
 945  923.3311
 946  959.5552
 947  968.2397
 948  912.6118
 949  948.1362
 950  884.9109
 951  808.1586
 952  793.4761
 953  902.8248
 954  970.1783
 955  968.4644
 956  944.6868
 957  955.2672
 958  853.293
 959  768.4654
 960  779.4047
 961  836.3075
 962  826.9017
 963  823.5028
 964  888.1484
 965  866.9667
 966  832.623
 967  758.3979
 968  771.2388
 969  718.3387
 970  803.7513
 971  885.6788
 972  880.1586
 973  820.7391
 974  796.387
 975  750.9947
 976  691.2457
 977  686.0406
 978  689.6487
 979  746.6111
 980  743.8015
 981  803.3311
 982  704.2566
 983  677.9526
 984  569.793
 985  683.6164
 986  678.8527
 987  661.5643
 988  616.5834
 989  741.4645
 990  742.6664
 991  744.5346
 992  626.3751
 993  653.9952
 994  525.6528
 995  513.2577
 996  552.0432
 997  549.5743
 998  560.0354
 999  534.0897
1000  696.9406
1001  672.8876
1002  719.7775
1003  655.4316
1004  709.2794
1005  656.4017
1006  632.6873
1007  595.1005
1008  640.0471
1009  616.3127
1010  637.9847
1011  638.4438
1012  613.0062
1013  566.9228
1014  587.988
1015  671.118
1016  709.4813
1017  710.8696
1018  851.4429
1019  873.5541
1020  829.9531
1021  812.3736
1022  970.026
1023  978.0092
