# Input file       =  1184199632.104209_cleaned.dat
# Candidate        =  PSR_0332+5434
# Telescope        =  AR
# Epoch_topo       =  57950.014480372789
# Epoch_bary       =  N/A
# T_sample         =  0.002
# Data Folded      =  7143424
# Data Avg         =  0.107129807901192
# Data StdDev      =  4.0931930987707  
# Profile Bins     =  512
# Profile Avg      =  1494.66713335031 
# Profile StdDev   =  483.482174837743 
# Reduced chi-sqr  =  0.819
# Prob(Noise)      <  0.999   (~0.0 sigma)
# P_topo (ms)      =  714.478241694488  +/- 0.000171
# P'_topo (s/s)    =  -0                +/- 9.27e-11
# P''_topo (s/s^2) =  0                 +/- 4.2e-14
# P_bary (ms)      =  N/A
# P'_bary (s/s)    =  N/A
# P''_bary (s/s^2) =  N/A
# P_orb (s)        =  N/A
# asin(i)/c (s)    =  N/A
# eccentricity     =  N/A
# w (rad)          =  N/A
# T_peri           =  N/A
######################################################
   0  1628.026
   1  1400.447
   2  1251.9
   3  1459.149
   4  1242.5
   5  1222.544
   6  1419.375
   7  1477.885
   8  1172.591
   9  1532.562
  10  1846.741
  11  1918.154
  12  2056.834
  13  1714.931
  14  1705.162
  15  1512.757
  16  1568.254
  17  1426.454
  18  1373.083
  19  1696.116
  20  1705.152
  21  1616.386
  22  1411.238
  23  1350.67
  24  1251.698
  25  1389.184
  26  1604.194
  27  1569.921
  28  1763.171
  29  1772.302
  30  2032.366
  31  2086.53
  32  1827.544
  33  1770.981
  34  1511.18
  35  1253.287
  36  1299.818
  37  1372.816
  38  1404.095
  39  1113.755
  40  1218.613
  41  1531.766
  42  1398.37
  43  1682.711
  44  1551.957
  45  1566.61
  46  1320.747
  47  1649.559
  48  1748.802
  49  1513.449
  50  1376.345
  51  1493.85
  52  1453.779
  53  1762.733
  54  1734.294
  55  1256.914
  56  1188.504
  57  1271.215
  58  1446.412
  59  1483.65
  60  1646.279
  61  1553.868
  62  1623.231
  63  1767.722
  64  1547.327
  65  1504.374
  66  1374.047
  67  1376.244
  68  1388.406
  69  1267.263
  70  1399.878
  71  1238.628
  72  1240.506
  73  1496.208
  74  1826.623
  75  1665.326
  76  1637.946
  77  1886.888
  78  1433.257
  79  1230.909
  80  1175.913
  81  1302.739
  82  912.6143
  83  1546.292
  84  1718.246
  85  1770.522
  86  1587.376
  87  1498.135
  88  1690.334
  89  1477.048
  90  1502.128
  91  1170.281
  92  1656.608
  93  1698.511
  94  1828.451
  95  1914.601
  96  1821.217
  97  1396.005
  98  1154.609
  99  1422.906
 100  1351.311
 101  1450.205
 102  1488.481
 103  1747.685
 104  1219.215
 105  1761.558
 106  1820.824
 107  2090.263
 108  1803.841
 109  1518.415
 110  1595.345
 111  1322.5
 112  1191.108
 113  1314.374
 114  1742.321
 115  1237.82
 116  1225.001
 117  1163.191
 118  1380.06
 119  1373.457
 120  1511.591
 121  1415.247
 122  1384.242
 123  1538.955
 124  1404.369
 125  1316.287
 126  1150.217
 127  1605.341
 128  1673.512
 129  1529.939
 130  1594.979
 131  1212.751
 132  968.4673
 133  496.3475
 134  991.8762
 135  1125.878
 136  1243.452
 137  1354.965
 138  1503.945
 139  1332.033
 140  1528.317
 141  1681.275
 142  1406.364
 143  1396.517
 144  1448.313
 145  1592.582
 146  1783.186
 147  2172.098
 148  1956.082
 149  1406.969
 150  1678.015
 151  1427.388
 152  1305.203
 153  1465.52
 154  1363.24
 155  1517.697
 156  1476.27
 157  1487.282
 158  1577.005
 159  1518.782
 160  1427.891
 161  1496.344
 162  1526.113
 163  1713.502
 164  1720.842
 165  1347.492
 166  1340.362
 167  1533.298
 168  1504.546
 169  1318.346
 170  1603.549
 171  1636.266
 172  1541.933
 173  1537.198
 174  1556.657
 175  1571.727
 176  1575.823
 177  1454.374
 178  1901.852
 179  1876.366
 180  1800.259
 181  1597.371
 182  1519.261
 183  1751.373
 184  1303.907
 185  1222.934
 186  1541.828
 187  1580.062
 188  1719.468
 189  1241.376
 190  1097.806
 191  1057.672
 192  1417.055
 193  1463.535
 194  1422.439
 195  1181.636
 196  984.6616
 197  949.3176
 198  781.4359
 199  1104.407
 200  1209.244
 201  1668.91
 202  1552.023
 203  1581.398
 204  1308.939
 205  1113.662
 206  948.3085
 207  762.5543
 208  887.2325
 209  1103.697
 210  1701.217
 211  1637.752
 212  1807.999
 213  2050.643
 214  1555.766
 215  1168.737
 216  1090.885
 217  955.1766
 218  1156.809
 219  1132.701
 220  1273.645
 221  1234.033
 222  1192.06
 223  1020.577
 224  1391.937
 225  1388.3
 226  1243.616
 227  1590.686
 228  1785.842
 229  1684.295
 230  1296.268
 231  1315.05
 232  1269.693
 233  1388.708
 234  1765.719
 235  1204.518
 236  1383.871
 237  1630.736
 238  1797.476
 239  1786.823
 240  1765.256
 241  1632.53
 242  1325.761
 243  1608.165
 244  1893.838
 245  2058.827
 246  1842.105
 247  1699.944
 248  1386.397
 249  1597.783
 250  1486.728
 251  1283.542
 252  1281.137
 253  1343.554
 254  1734.954
 255  1715.032
 256  1572.856
 257  1450.468
 258  1484.163
 259  1613.8
 260  1186.028
 261  1388.332
 262  971.2606
 263  909.7701
 264  1368.042
 265  1233.889
 266  1460.287
 267  1307.285
 268  1437.505
 269  1334.572
 270  1382.134
 271  1222.353
 272  1206.11
 273  1063.752
 274  932.8049
 275  1073.165
 276  1786.57
 277  1794.257
 278  1728.731
 279  1659.342
 280  1409.464
 281  1100.895
 282  670.8727
 283  990.4583
 284  1536.712
 285  1769.017
 286  1508.651
 287  1018.852
 288  1053.03
 289  1054.029
 290  1305.532
 291  1193.374
 292  1278.478
 293  1221.461
 294  1428.897
 295  1437.942
 296  1407.499
 297  1165.583
 298  1152.586
 299  1143.327
 300  1225.657
 301  1280.364
 302  859.2946
 303  1100.903
 304  1406.409
 305  1862.125
 306  1687.059
 307  1638.665
 308  1406.021
 309  1784.874
 310  2068.094
 311  2016.24
 312  2301.763
 313  1831.94
 314  1466.224
 315  1629.02
 316  1655.657
 317  1771.675
 318  1857.666
 319  1573.344
 320  1696.393
 321  2202.184
 322  2316.893
 323  2658.298
 324  3033.003
 325  3107.784
 326  3179.809
 327  2987.101
 328  2990.601
 329  2637.068
 330  2231.477
 331  1991.389
 332  1592.21
 333  1286.574
 334  1117.314
 335  1409.126
 336  1373.168
 337  1442.755
 338  1318.933
 339  1906.418
 340  1680.931
 341  1358.913
 342  1464.037
 343  1584.92
 344  1705.106
 345  1564.762
 346  1040.263
 347  1202.331
 348  1360.642
 349  1414.357
 350  1446.307
 351  1655.259
 352  1515.497
 353  1567.167
 354  1337.789
 355  1316.695
 356  1044.005
 357  1580.446
 358  1399.234
 359  1472.684
 360  1647.311
 361  2078.005
 362  1684.042
 363  1430.794
 364  1487.704
 365  1241.799
 366  1143.245
 367  888.4139
 368  1298.126
 369  1317.493
 370  1385.995
 371  1759.453
 372  1768.131
 373  1339.718
 374  1387.302
 375  1627.448
 376  1432.035
 377  1475.829
 378  1477.095
 379  1710.802
 380  1652.694
 381  1516.939
 382  1341.053
 383  1551.253
 384  1600.464
 385  1550.574
 386  1970.375
 387  1782.742
 388  2007.332
 389  1707.279
 390  1770.363
 391  1608.939
 392  1679.848
 393  1959.539
 394  1736.237
 395  1817.477
 396  1872.92
 397  1816.959
 398  1692.831
 399  1358.467
 400  1104.925
 401  991.8206
 402  1291.126
 403  1480.405
 404  1630.553
 405  1446.407
 406  1661.857
 407  1238.95
 408  1274.828
 409  1583.021
 410  1344.24
 411  1634.773
 412  1652.445
 413  1307.769
 414  1102.405
 415  1856.721
 416  1472.238
 417  1263.984
 418  1249.501
 419  1107.546
 420  1260.403
 421  1502.405
 422  1386.223
 423  1413.076
 424  1708.119
 425  1827.697
 426  1685.538
 427  1882.291
 428  1843.012
 429  1499.487
 430  1303.196
 431  1199.242
 432  1272.652
 433  1076.435
 434  1273.942
 435  1372.858
 436  1373.15
 437  1151.655
 438  1526.322
 439  1883.652
 440  1536.667
 441  1387.343
 442  1495.814
 443  1438.696
 444  1184.696
 445  1504.69
 446  1436.502
 447  976.4774
 448  1287.887
 449  907.0891
 450  1321.503
 451  1196.329
 452  1448.213
 453  1841.908
 454  1484.743
 455  1390.077
 456  1275.678
 457  1742.878
 458  1433.37
 459  2208.491
 460  2144.057
 461  1701.143
 462  1336.52
 463  1189.229
 464  1607.614
 465  1518.068
 466  1874.218
 467  1663.49
 468  1533.462
 469  1607.704
 470  1469.417
 471  1591.336
 472  1719.391
 473  1531.18
 474  1395.001
 475  1790.16
 476  1500.779
 477  1250.975
 478  1555.265
 479  1660.204
 480  1431.469
 481  1254.725
 482  1511.799
 483  1716.904
 484  1242.946
 485  1489.841
 486  1510.955
 487  1459.601
 488  1097.548
 489  1371.285
 490  1706.145
 491  1568.977
 492  1435.99
 493  1790.901
 494  1779.789
 495  1042.724
 496  1127.145
 497  1311.373
 498  1501.626
 499  1529.073
 500  1104.812
 501  1123.5
 502  1353.486
 503  1709.761
 504  1536.926
 505  1562.25
 506  1224.278
 507  1057.114
 508  1677.867
 509  1463.374
 510  1477.258
 511  1534.672
