# Input file       =  1184487677.105509_cleaned.dat
# Candidate        =  PSR_0332+5434
# Telescope        =  AR
# Epoch_topo       =  57953.348334554503
# Epoch_bary       =  N/A
# T_sample         =  0.002
# Data Folded      =  7340032
# Data Avg         =  0.199143074682589
# Data StdDev      =  4.60319079312767 
# Profile Bins     =  1024
# Profile Avg      =  1427.29046416987 
# Profile StdDev   =  389.724738431936 
# Reduced chi-sqr  =  0.677
# Prob(Noise)      <  1   (~0.0 sigma)
# P_topo (ms)      =  714.476472919303  +/- 0.000522
# P'_topo (s/s)    =  -0                +/- 2.76e-10
# P''_topo (s/s^2) =  0                 +/- 1.22e-13
# P_bary (ms)      =  N/A
# P'_bary (s/s)    =  N/A
# P''_bary (s/s^2) =  N/A
# P_orb (s)        =  N/A
# asin(i)/c (s)    =  N/A
# eccentricity     =  N/A
# w (rad)          =  N/A
# T_peri           =  N/A
######################################################
   0  1439.95
   1  1392.295
   2  1185.356
   3  1040.994
   4  1119.795
   5  1175.283
   6  1175.089
   7  1112.884
   8  1278.317
   9  1339.54
  10  1405.314
  11  1387.036
  12  1395.705
  13  1459.521
  14  1422.092
  15  1460.162
  16  1416.238
  17  1420.829
  18  1309.641
  19  1193.185
  20  1096.971
  21  1169.766
  22  1206.857
  23  1242.254
  24  1192.52
  25  1137.114
  26  1182.355
  27  1249.363
  28  1322.332
  29  1372.092
  30  1327.46
  31  1271.39
  32  1213.512
  33  1145.726
  34  1132.388
  35  1192.533
  36  1205.154
  37  1250.937
  38  1274.782
  39  1359.064
  40  1430.916
  41  1511.913
  42  1525.575
  43  1384.774
  44  1246.27
  45  1285.911
  46  1386.201
  47  1423.858
  48  1254.635
  49  1303.136
  50  1453.134
  51  1473.775
  52  1380.123
  53  1249.437
  54  1195.325
  55  1274.739
  56  1453.817
  57  1569.727
  58  1555.521
  59  1481.735
  60  1348.598
  61  1298.476
  62  1230.545
  63  1182.572
  64  1142.865
  65  1265.443
  66  1389.956
  67  1337.914
  68  1365.067
  69  1293.873
  70  1245.045
  71  1191.411
  72  1374.873
  73  1556.523
  74  1617.939
  75  1538.799
  76  1496.381
  77  1474.162
  78  1400.299
  79  1204.101
  80  1120.426
  81  1147.396
  82  1189.033
  83  1212.371
  84  1102.803
  85  1163.374
  86  1152.479
  87  1181.379
  88  1099.095
  89  1130.194
  90  1248.534
  91  1323.252
  92  1379.119
  93  1448.957
  94  1356.551
  95  1286.638
  96  1192.184
  97  1187.572
  98  1160.188
  99  1334.331
 100  1342.409
 101  1405.92
 102  1375.709
 103  1340.17
 104  1274.679
 105  1273.911
 106  1363.405
 107  1277.568
 108  1298.993
 109  1297.822
 110  1400.64
 111  1470.173
 112  1515.279
 113  1554.61
 114  1528.854
 115  1680.589
 116  1789.074
 117  1865.008
 118  1707.238
 119  1481.93
 120  1279.628
 121  1272.298
 122  1398.984
 123  1435.702
 124  1362.342
 125  1240.021
 126  1215.364
 127  1219.141
 128  1204.398
 129  1267.459
 130  1355.812
 131  1443.571
 132  1388.515
 133  1410.705
 134  1325.671
 135  1372.203
 136  1358.414
 137  1428.499
 138  1402.738
 139  1322.024
 140  1308.932
 141  1303.848
 142  1469.558
 143  1412.991
 144  1320.421
 145  1152.765
 146  1280.752
 147  1384.905
 148  1541.407
 149  1512.439
 150  1473.212
 151  1365.249
 152  1332.817
 153  1261.158
 154  1257.523
 155  1277.022
 156  1264.461
 157  1278.122
 158  1345.808
 159  1358.19
 160  1294.786
 161  1309.352
 162  1405.849
 163  1485.171
 164  1500.595
 165  1539.447
 166  1498.283
 167  1440.141
 168  1305.936
 169  1317.785
 170  1392.619
 171  1508.952
 172  1441.315
 173  1397.973
 174  1307.896
 175  1317.943
 176  1336.39
 177  1289.214
 178  1394.265
 179  1419.677
 180  1584.503
 181  1452.693
 182  1446.004
 183  1395.132
 184  1387.769
 185  1371.726
 186  1459.917
 187  1567.536
 188  1544.908
 189  1411.495
 190  1424.895
 191  1444.829
 192  1406.676
 193  1334.248
 194  1327.846
 195  1431.014
 196  1349.383
 197  1407.772
 198  1487.781
 199  1591.311
 200  1524.612
 201  1509.756
 202  1526.204
 203  1525.199
 204  1589.689
 205  1612.001
 206  1657.117
 207  1664.483
 208  1622.181
 209  1529.065
 210  1398.568
 211  1416.969
 212  1405.87
 213  1479.578
 214  1387.995
 215  1383.808
 216  1345.325
 217  1234.92
 218  1207.506
 219  1330.797
 220  1469.178
 221  1294.256
 222  1270.851
 223  1311.314
 224  1395.02
 225  1363.225
 226  1393.431
 227  1339.38
 228  1336.499
 229  1279.851
 230  1353.588
 231  1363.231
 232  1319.798
 233  1273.151
 234  1294.003
 235  1427.31
 236  1424.533
 237  1343.499
 238  1042.441
 239  991.7849
 240  1113.029
 241  1163.49
 242  1267.897
 243  1271.819
 244  1375.249
 245  1318.45
 246  1338.165
 247  1406.751
 248  1491.534
 249  1479.884
 250  1406.158
 251  1485.624
 252  1570.136
 253  1528.266
 254  1333.818
 255  1259.596
 256  1227.87
 257  1305.592
 258  1357.397
 259  1426.955
 260  1482.522
 261  1486.94
 262  1445.393
 263  1390.634
 264  1434.954
 265  1555.193
 266  1547.272
 267  1509.321
 268  1434.163
 269  1427.226
 270  1512.133
 271  1511.045
 272  1541.98
 273  1517.307
 274  1541.702
 275  1574.212
 276  1561.097
 277  1601.096
 278  1554.907
 279  1562.482
 280  1527.896
 281  1468.896
 282  1462.795
 283  1498.211
 284  1532.896
 285  1541.907
 286  1536.359
 287  1583.32
 288  1623.114
 289  1620.465
 290  1667.495
 291  1602.415
 292  1644.204
 293  1559.374
 294  1646.25
 295  1666.469
 296  1671.412
 297  1576.319
 298  1541.874
 299  1558.511
 300  1616.915
 301  1727.843
 302  1611.698
 303  1545.306
 304  1515.82
 305  1583.713
 306  1550.972
 307  1517.849
 308  1538.158
 309  1481.445
 310  1468.468
 311  1525.498
 312  1449.469
 313  1342.553
 314  1312.035
 315  1518.212
 316  1632.749
 317  1590.229
 318  1532.717
 319  1679.09
 320  1748.636
 321  1678.345
 322  1386.755
 323  1262.272
 324  1296.722
 325  1437.171
 326  1298.881
 327  1369.313
 328  1432.351
 329  1603.756
 330  1519.116
 331  1415.487
 332  1452.646
 333  1551.038
 334  1527.333
 335  1467.363
 336  1434.637
 337  1520.53
 338  1499.858
 339  1525.805
 340  1498.23
 341  1580.263
 342  1564.383
 343  1531.81
 344  1436.059
 345  1444.421
 346  1523.046
 347  1517.82
 348  1456.514
 349  1501.157
 350  1547.757
 351  1566.839
 352  1512.467
 353  1525.645
 354  1449.707
 355  1429.981
 356  1483.329
 357  1394.837
 358  1345.612
 359  1285.665
 360  1386.365
 361  1315.245
 362  1166.224
 363  1182.867
 364  1182.612
 365  1187.53
 366  1208.433
 367  1243.13
 368  1294.001
 369  1202.361
 370  1212.106
 371  1226.546
 372  1294.195
 373  1348.544
 374  1313.722
 375  1417.714
 376  1357.236
 377  1358.31
 378  1394.062
 379  1339.227
 380  1292.706
 381  1157.016
 382  1067.596
 383  1059.966
 384  1082.871
 385  1197.957
 386  1232.37
 387  1284.624
 388  1350.721
 389  1365.85
 390  1298.391
 391  1272.928
 392  1392.265
 393  1478.552
 394  1408.11
 395  1196.213
 396  1207.268
 397  1247.975
 398  1285.182
 399  1294.321
 400  1499.952
 401  1575.594
 402  1613.656
 403  1505.318
 404  1601.5
 405  1574.927
 406  1601.969
 407  1545.375
 408  1607.452
 409  1583.09
 410  1553.177
 411  1516.191
 412  1485.618
 413  1497.537
 414  1474.976
 415  1614.072
 416  1572.786
 417  1476.531
 418  1367.017
 419  1326.23
 420  1427.285
 421  1477.477
 422  1427.049
 423  1279.515
 424  1288.903
 425  1279.79
 426  1344.682
 427  1272.96
 428  1383.795
 429  1452.949
 430  1593.428
 431  1562.368
 432  1411.325
 433  1222.85
 434  1234.286
 435  1212.078
 436  1144.034
 437  984.3725
 438  1059.981
 439  1196.887
 440  1347.362
 441  1318.615
 442  1273.541
 443  1279.735
 444  1313.042
 445  1340.984
 446  1404.628
 447  1404.623
 448  1502.856
 449  1483.292
 450  1391.701
 451  1362.729
 452  1355.03
 453  1399.979
 454  1389.289
 455  1469.16
 456  1574.991
 457  1551.635
 458  1444.259
 459  1409.494
 460  1347.64
 461  1367.902
 462  1294.324
 463  1300.18
 464  1261.504
 465  1290.197
 466  1475.339
 467  1480.786
 468  1479.893
 469  1403.181
 470  1442.408
 471  1470.685
 472  1443.147
 473  1562.215
 474  1512.318
 475  1472.297
 476  1378.569
 477  1375.569
 478  1350.356
 479  1292.49
 480  1368.258
 481  1398.961
 482  1380.412
 483  1245.281
 484  1243.433
 485  1355.235
 486  1425.249
 487  1383.729
 488  1363.9
 489  1467.702
 490  1377.597
 491  1205.671
 492  1189.27
 493  1222.269
 494  1262.937
 495  1168.21
 496  1165.786
 497  1146.719
 498  1149.385
 499  1306.059
 500  1318.374
 501  1401.698
 502  1480.606
 503  1472.252
 504  1341.686
 505  1109.573
 506  1041.384
 507  992.2374
 508  1132.38
 509  1266.348
 510  1149.648
 511  1028.799
 512  998.9515
 513  1127.543
 514  1205.644
 515  1257.345
 516  1299.662
 517  1272.138
 518  1243.015
 519  1303.895
 520  1266.132
 521  1233.448
 522  1142.86
 523  1190.199
 524  1264.115
 525  1313.721
 526  1374.8
 527  1304.828
 528  1233.115
 529  1187.901
 530  1199.57
 531  1263.561
 532  1266.92
 533  1420.731
 534  1531.987
 535  1637.259
 536  1457.593
 537  1351.432
 538  1261.506
 539  1293.703
 540  1387.12
 541  1393.549
 542  1505.548
 543  1441.007
 544  1473.528
 545  1425.56
 546  1345.37
 547  1246.659
 548  1236.862
 549  1336.314
 550  1447.985
 551  1479.261
 552  1433.492
 553  1335.9
 554  1321.642
 555  1280.127
 556  1334.304
 557  1523.829
 558  1592.14
 559  1586.017
 560  1499.926
 561  1390.185
 562  1314.105
 563  1224.129
 564  1312.156
 565  1389.169
 566  1342.181
 567  1271.737
 568  1240.743
 569  1277.389
 570  1285.724
 571  1333.903
 572  1212.323
 573  1160.479
 574  1215.794
 575  1236.351
 576  1200.066
 577  1158.357
 578  1264.263
 579  1281.708
 580  1204.544
 581  1243.585
 582  1219.258
 583  1210.623
 584  1251.625
 585  1492.368
 586  1532.253
 587  1405.44
 588  1314.666
 589  1376.614
 590  1363.22
 591  1266.07
 592  1225.682
 593  1210.34
 594  1235.523
 595  1328.871
 596  1383.451
 597  1437.908
 598  1351.406
 599  1481.928
 600  1588.943
 601  1680.437
 602  1627.955
 603  1488.821
 604  1353.577
 605  1165.939
 606  1165.391
 607  1281.33
 608  1263.463
 609  1237.927
 610  1300.691
 611  1337.215
 612  1393.871
 613  1404.928
 614  1524.834
 615  1543.815
 616  1487.271
 617  1442.922
 618  1460.062
 619  1437.929
 620  1463.845
 621  1390.081
 622  1502.835
 623  1370.522
 624  1304.859
 625  1147.972
 626  1178.083
 627  1249.886
 628  1278.917
 629  1308.04
 630  1279.283
 631  1328.044
 632  1342.168
 633  1400.926
 634  1454.325
 635  1483.504
 636  1525.965
 637  1480.871
 638  1412.081
 639  1362.682
 640  1322.91
 641  1419.256
 642  1522.372
 643  1536.217
 644  1559.855
 645  1712.434
 646  1871.501
 647  1970.497
 648  1993.162
 649  2146.099
 650  2288.76
 651  2195.058
 652  2189.783
 653  2149.474
 654  2148.814
 655  2056.207
 656  1974.697
 657  1890.074
 658  1729.706
 659  1605.765
 660  1485.971
 661  1321.327
 662  1378.414
 663  1394.884
 664  1475.778
 665  1332.759
 666  1415.802
 667  1432.368
 668  1639.781
 669  1675.633
 670  1698.028
 671  1723.936
 672  1677.46
 673  1505.329
 674  1498.411
 675  1474.993
 676  1456.924
 677  1337.932
 678  1366.916
 679  1479.742
 680  1448.209
 681  1472.014
 682  1496.411
 683  1555.451
 684  1558.337
 685  1621.625
 686  1657.155
 687  1597.146
 688  1502.07
 689  1455.404
 690  1485.812
 691  1440.481
 692  1328.049
 693  1293.587
 694  1336.556
 695  1434.207
 696  1306.847
 697  1215.089
 698  1350.058
 699  1503.239
 700  1600.897
 701  1627.949
 702  1562.628
 703  1440.793
 704  1415.782
 705  1397.247
 706  1452.717
 707  1424.738
 708  1433.289
 709  1339.554
 710  1316.177
 711  1340.042
 712  1275.157
 713  1217.172
 714  1148.756
 715  1335.924
 716  1393.075
 717  1494.941
 718  1362.264
 719  1284.169
 720  1278.686
 721  1294.012
 722  1402.938
 723  1337.316
 724  1314.224
 725  1468.141
 726  1594.723
 727  1632.939
 728  1483.646
 729  1546.312
 730  1567.474
 731  1685.301
 732  1657.453
 733  1610.002
 734  1534.288
 735  1627.276
 736  1645.85
 737  1509.251
 738  1492.794
 739  1523.916
 740  1654.642
 741  1603.789
 742  1553.227
 743  1588.112
 744  1551.283
 745  1662.067
 746  1699.404
 747  1757.979
 748  1654.926
 749  1525.251
 750  1558.84
 751  1597.916
 752  1500.305
 753  1429.822
 754  1337.485
 755  1359.194
 756  1393.859
 757  1494.834
 758  1607.687
 759  1574.531
 760  1565.787
 761  1573.36
 762  1594.959
 763  1599.218
 764  1631.384
 765  1582.99
 766  1700.022
 767  1666.448
 768  1620.786
 769  1447.48
 770  1417.525
 771  1491.379
 772  1511.81
 773  1543.67
 774  1612.496
 775  1801.872
 776  1783.658
 777  1686.33
 778  1571.355
 779  1594.385
 780  1578.244
 781  1595.617
 782  1444.764
 783  1502.369
 784  1586.979
 785  1620.631
 786  1556.838
 787  1585.886
 788  1587.364
 789  1482.014
 790  1456.691
 791  1489.587
 792  1605.503
 793  1587.351
 794  1518.885
 795  1443.112
 796  1445.919
 797  1462.122
 798  1415.558
 799  1437.909
 800  1516.12
 801  1569.106
 802  1477.538
 803  1503.632
 804  1447.034
 805  1620.343
 806  1634.064
 807  1649.743
 808  1597.306
 809  1480.03
 810  1483.803
 811  1398.802
 812  1397.051
 813  1414.126
 814  1446.453
 815  1418.456
 816  1449.341
 817  1455.715
 818  1401.889
 819  1316.669
 820  1390.709
 821  1549.071
 822  1664.741
 823  1649.365
 824  1662.679
 825  1529.556
 826  1528.518
 827  1364.337
 828  1343.283
 829  1342.744
 830  1429.509
 831  1450.653
 832  1353.016
 833  1406.724
 834  1447.482
 835  1582.555
 836  1546.825
 837  1514.222
 838  1548.347
 839  1614.962
 840  1676.228
 841  1565.164
 842  1561.344
 843  1576.548
 844  1650.883
 845  1637.659
 846  1610.695
 847  1469.629
 848  1395.024
 849  1562.784
 850  1686.357
 851  1679.171
 852  1592.464
 853  1689.059
 854  1690.694
 855  1728.267
 856  1760.098
 857  1834.938
 858  1833.098
 859  1693.711
 860  1527.016
 861  1479.886
 862  1380.244
 863  1317.359
 864  1409.98
 865  1524.832
 866  1609.986
 867  1628.411
 868  1674.612
 869  1713.889
 870  1712.547
 871  1717.245
 872  1701.47
 873  1581.415
 874  1629.839
 875  1615.582
 876  1683.035
 877  1617.792
 878  1511.968
 879  1449.308
 880  1484.415
 881  1550.56
 882  1597.799
 883  1605.342
 884  1642.208
 885  1608.728
 886  1625.168
 887  1521.267
 888  1637.127
 889  1705.321
 890  1792.904
 891  1624.169
 892  1499.382
 893  1429.691
 894  1469.919
 895  1437.946
 896  1494.209
 897  1545.448
 898  1552.125
 899  1496.339
 900  1545.036
 901  1544.13
 902  1650.361
 903  1751.571
 904  1840.743
 905  1738.072
 906  1593.237
 907  1469.004
 908  1662.617
 909  1778.851
 910  1816.437
 911  1514.012
 912  1342.41
 913  1328.325
 914  1525.33
 915  1670.846
 916  1778.233
 917  1729.204
 918  1586.031
 919  1349.62
 920  1417.647
 921  1520.537
 922  1614.009
 923  1597.695
 924  1635.393
 925  1624.63
 926  1578.033
 927  1486.241
 928  1456.668
 929  1395.583
 930  1439.243
 931  1378.499
 932  1431.316
 933  1356.173
 934  1351.237
 935  1350.846
 936  1393.869
 937  1368.885
 938  1315.344
 939  1379.232
 940  1307.458
 941  1227.09
 942  1148.626
 943  1090.416
 944  1059.13
 945  1106.903
 946  1288.865
 947  1247.433
 948  1153.48
 949  1102.15
 950  1124.715
 951  1050.649
 952  946.58
 953  1033.542
 954  1160.822
 955  1071.721
 956  1066.985
 957  1143.497
 958  1151.259
 959  979.2625
 960  893.7834
 961  925.7299
 962  1001.999
 963  1074.767
 964  1136.307
 965  1120.52
 966  1064.979
 967  1194.557
 968  1272.685
 969  1375.921
 970  1372.398
 971  1472.321
 972  1542.129
 973  1653.563
 974  1625.354
 975  1538.505
 976  1400.626
 977  1319.498
 978  1280.758
 979  1333.533
 980  1510.751
 981  1679.152
 982  1623.245
 983  1628.823
 984  1599.67
 985  1681.326
 986  1629.46
 987  1550.183
 988  1688.062
 989  1704.804
 990  1714.642
 991  1614.907
 992  1618.21
 993  1578.834
 994  1628.173
 995  1647.987
 996  1764.835
 997  1680.752
 998  1623.799
 999  1529.546
1000  1580.259
1001  1606.514
1002  1591.411
1003  1742.436
1004  1838.507
1005  1802.465
1006  1643.887
1007  1650.165
1008  1598.66
1009  1573.351
1010  1556.055
1011  1588.429
1012  1431.194
1013  1348.825
1014  1359.328
1015  1446.475
1016  1460.799
1017  1519.232
1018  1528.418
1019  1526.663
1020  1336.526
1021  1380.799
1022  1360.131
1023  1451.086
