# Input file       =  1184300437.121662_cleaned.dat
# Candidate        =  PSR_0332+5434
# Telescope        =  AR
# Epoch_topo       =  57951.181205111825
# Epoch_bary       =  N/A
# T_sample         =  0.002
# Data Folded      =  7340032
# Data Avg         =  0.128410338083216
# Data StdDev      =  3.54253175166101 
# Profile Bins     =  512
# Profile Avg      =  1844.57028625919 
# Profile StdDev   =  424.158083087477 
# Reduced chi-sqr  =  1.036
# Prob(Noise)      <  0.279   (~0.6 sigma)
# P_topo (ms)      =  714.477499273919  +/- 0.000227
# P'_topo (s/s)    =  -0                +/- 1.2e-10
# P''_topo (s/s^2) =  0                 +/- 5.28e-14
# P_bary (ms)      =  N/A
# P'_bary (s/s)    =  N/A
# P''_bary (s/s^2) =  N/A
# P_orb (s)        =  N/A
# asin(i)/c (s)    =  N/A
# eccentricity     =  N/A
# w (rad)          =  N/A
# T_peri           =  N/A
######################################################
   0  1811.776
   1  1700.714
   2  1632.271
   3  1998.182
   4  2055.686
   5  1999.98
   6  2073.212
   7  2260.861
   8  2193.983
   9  1900.298
  10  1921.946
  11  2068.125
  12  2245.51
  13  1997.008
  14  1854.428
  15  1651.867
  16  1447.774
  17  1345.023
  18  1348.397
  19  1705.36
  20  1674.359
  21  1643.588
  22  1573.268
  23  1287.51
  24  1715.196
  25  1784.478
  26  1700.081
  27  1824.82
  28  1633.518
  29  1921.074
  30  1950.237
  31  1826.459
  32  1825.258
  33  2030.368
  34  2193.241
  35  2276.746
  36  1966.545
  37  1952.734
  38  1862.455
  39  2001.634
  40  2092.428
  41  1971.332
  42  2021.028
  43  1940.181
  44  1850.406
  45  1970.687
  46  1875.059
  47  1933.532
  48  2097.289
  49  1922.045
  50  1742.642
  51  1649.889
  52  2012.365
  53  2291.962
  54  2349.706
  55  2159.879
  56  1948.273
  57  1941.377
  58  2237.188
  59  2007.813
  60  1993.046
  61  2276.41
  62  2131.194
  63  1818.799
  64  1811.284
  65  1812.465
  66  1874.988
  67  2219.502
  68  2025.173
  69  1657.446
  70  1550.894
  71  1479.732
  72  1759.19
  73  1823.264
  74  1674.339
  75  1747.032
  76  1748.01
  77  1889.448
  78  1788.723
  79  1682.933
  80  1870.154
  81  2044.772
  82  1922.961
  83  2000.792
  84  2001.788
  85  2133.674
  86  2101.384
  87  2011.446
  88  2122.454
  89  2290.671
  90  2031.609
  91  1508.993
  92  1950.974
  93  2296.58
  94  2352.65
  95  2048.381
  96  2293.617
  97  2381.933
  98  2138.677
  99  1940.051
 100  1978.603
 101  2280.717
 102  2127.84
 103  1739.8
 104  1637.578
 105  1637.284
 106  1520.998
 107  1708.751
 108  1578.299
 109  1455.848
 110  1448.781
 111  1562.829
 112  1643.18
 113  1887.083
 114  2065.271
 115  2189.145
 116  1930.512
 117  1648.057
 118  1728.038
 119  1780.255
 120  1492.576
 121  1426.703
 122  1914.12
 123  1822.283
 124  1460.13
 125  1686.767
 126  1879.457
 127  2003.479
 128  2272.389
 129  2325.261
 130  1977.98
 131  1967.049
 132  2151.315
 133  2248.777
 134  2550.092
 135  2820.38
 136  2573.375
 137  2060.766
 138  2057.82
 139  1999.288
 140  1765.178
 141  1669.283
 142  1671.267
 143  1805.329
 144  1765.008
 145  1685.056
 146  1576.468
 147  1676.544
 148  1570.103
 149  1533.316
 150  1497.049
 151  1537.335
 152  1710.734
 153  1845.343
 154  1754.015
 155  1820.627
 156  1719.312
 157  1592.165
 158  1702.105
 159  1844.101
 160  2000.331
 161  1807.39
 162  1650.851
 163  1654.594
 164  1613.846
 165  1796.618
 166  2016.799
 167  1830.255
 168  1933.676
 169  1854.624
 170  1703.132
 171  2104.798
 172  2142.386
 173  2005.002
 174  1870.834
 175  2043.177
 176  2307.588
 177  2180.655
 178  1900.264
 179  2041.811
 180  2101.195
 181  1834.432
 182  1831.492
 183  2013.619
 184  1860.43
 185  1712.961
 186  1747.643
 187  1652.572
 188  1801.528
 189  2065.307
 190  1784.45
 191  1758.61
 192  1629.049
 193  1738.823
 194  2004.184
 195  1845.44
 196  1610.511
 197  1590.239
 198  1826.798
 199  2014.462
 200  2004.94
 201  2033.406
 202  2107.905
 203  1780.32
 204  1715.28
 205  1937.065
 206  2174.403
 207  1901.463
 208  1853.106
 209  1764.413
 210  2185.416
 211  1872.733
 212  1675.042
 213  1811.144
 214  1868.861
 215  1771.318
 216  1852.336
 217  2041.848
 218  1981.59
 219  2211.139
 220  2295.61
 221  2340.209
 222  2357.219
 223  2318.515
 224  1999.644
 225  2040.231
 226  2134.853
 227  2165.941
 228  2014.068
 229  1846.82
 230  1953.667
 231  1994.87
 232  2032.678
 233  2064.318
 234  2049.992
 235  1668.536
 236  1879.614
 237  1831.711
 238  1982.056
 239  1709.902
 240  1645.281
 241  1708.129
 242  1758.657
 243  1598.547
 244  1573.216
 245  1634.032
 246  1422.414
 247  1257.445
 248  1662.878
 249  1613.443
 250  1457.889
 251  1615.737
 252  1708.574
 253  1503.388
 254  1623.731
 255  1770.778
 256  1961.644
 257  1990.882
 258  1887.666
 259  2182.13
 260  2322.651
 261  2185.721
 262  1762.147
 263  1722.179
 264  1634.413
 265  1748.343
 266  1973.199
 267  2049.639
 268  1790.055
 269  1818.68
 270  2125.737
 271  1869.634
 272  1639.903
 273  1573.594
 274  1580.258
 275  1856.674
 276  1606.889
 277  1197.334
 278  1328.885
 279  1149.487
 280  1697.375
 281  1741.018
 282  1818.534
 283  1913.205
 284  2002.72
 285  1762.923
 286  1555.048
 287  1677.8
 288  1830.716
 289  1700.641
 290  1368.181
 291  1724.364
 292  1697.738
 293  1834.744
 294  1783.204
 295  1705.314
 296  1815.168
 297  1962.949
 298  1898.731
 299  2077.284
 300  2295.542
 301  2433.144
 302  2556.535
 303  2607.065
 304  2515.322
 305  2161.333
 306  2219.761
 307  2151.967
 308  2273.447
 309  2141.166
 310  1888.924
 311  1800.358
 312  2261.03
 313  1896.82
 314  1766.775
 315  1718.972
 316  1732.132
 317  1835.066
 318  1895.001
 319  1729.708
 320  1456.136
 321  1512.224
 322  2036.508
 323  2495.145
 324  2985.338
 325  3444.085
 326  3691.855
 327  3700.86
 328  3186.004
 329  2313.54
 330  1714.022
 331  1568.858
 332  1859.673
 333  1786.178
 334  1748.417
 335  1514.591
 336  1482.069
 337  1708.415
 338  1569.677
 339  1510.749
 340  2074.635
 341  2449.867
 342  2358.23
 343  1953.917
 344  1851.867
 345  1964.329
 346  2154.63
 347  2234.825
 348  2113.153
 349  1961.027
 350  2156.054
 351  1836.915
 352  1641.831
 353  1614.304
 354  1763.166
 355  1809.128
 356  2001.179
 357  1805.76
 358  1565.784
 359  1615.465
 360  1915.395
 361  2175.041
 362  1870.851
 363  2156.349
 364  1832.318
 365  1879.184
 366  1870.684
 367  2104.538
 368  2216.678
 369  1944.949
 370  1974.346
 371  1919.711
 372  1733.833
 373  1303.191
 374  1755.006
 375  2066.24
 376  1932.227
 377  2061.93
 378  1738.025
 379  1451.807
 380  1632.948
 381  1877.411
 382  1846.62
 383  1982.615
 384  2143.5
 385  1906.448
 386  1500.371
 387  1803.913
 388  1859.543
 389  1950.89
 390  2141.713
 391  2113.97
 392  1936.186
 393  1900.393
 394  1870.192
 395  2178.646
 396  1871.088
 397  1654.616
 398  1986.363
 399  1986.119
 400  1620.905
 401  1288.852
 402  1352.744
 403  1684.077
 404  1617.029
 405  1687.183
 406  1609.006
 407  1773.964
 408  2091.925
 409  2292.104
 410  2010.566
 411  1382.776
 412  1459.755
 413  1558.51
 414  1877.859
 415  2017.704
 416  2300.618
 417  2218.438
 418  1975.14
 419  1509.589
 420  1437.89
 421  1395.406
 422  1399.688
 423  1442.289
 424  1671.035
 425  1615.802
 426  1987.998
 427  1494.088
 428  1550.037
 429  1829.352
 430  1866.154
 431  1626.277
 432  1663.978
 433  1880.265
 434  1895.237
 435  2132.342
 436  2017.34
 437  1997.549
 438  1850.162
 439  1891.041
 440  1911.054
 441  1851.226
 442  1929.619
 443  1780.3
 444  1606.928
 445  1457.321
 446  1473.668
 447  1674.429
 448  1836.361
 449  1676.158
 450  1654.99
 451  1672.417
 452  1730.313
 453  1696.727
 454  1532.973
 455  1661.374
 456  1810.326
 457  1874.651
 458  1854.692
 459  2024.205
 460  1832.867
 461  1466.944
 462  1544.818
 463  1581.584
 464  1455.467
 465  1804.67
 466  1517.071
 467  1312.305
 468  1556.359
 469  1656.035
 470  1744.823
 471  1730.901
 472  1760.273
 473  1924.028
 474  1859.731
 475  1767.142
 476  1616.815
 477  1934.779
 478  1909.892
 479  1726.988
 480  1562.609
 481  1648.154
 482  1746.232
 483  1640.517
 484  1535.781
 485  1583.17
 486  1731.756
 487  1587.787
 488  1402.098
 489  1403.268
 490  1524.347
 491  1442.929
 492  1232.416
 493  1367.56
 494  1311.128
 495  1511.781
 496  1324.826
 497  1098.256
 498  1078.444
 499  1089.914
 500  1302.648
 501  1399.598
 502  1366.703
 503  1246.676
 504  1252.376
 505  1260.638
 506  1220.823
 507  1192.724
 508  1384.826
 509  1668.818
 510  1643.705
 511  1891.457
