# Input file       =  1184300437.121662_cleaned.dat
# Candidate        =  PSR_0332+5434
# Telescope        =  AR
# Epoch_topo       =  57951.181205111825
# Epoch_bary       =  N/A
# T_sample         =  0.002
# Data Folded      =  7340032
# Data Avg         =  0.128410338083216
# Data StdDev      =  3.54253175166101 
# Profile Bins     =  512
# Profile Avg      =  1844.57028537271 
# Profile StdDev   =  424.158083087477 
# Reduced chi-sqr  =  1.035
# Prob(Noise)      <  0.285   (~0.6 sigma)
# P_topo (ms)      =  714.477499136693  +/- 0.000227
# P'_topo (s/s)    =  -0                +/- 1.2e-10
# P''_topo (s/s^2) =  0                 +/- 5.29e-14
# P_bary (ms)      =  N/A
# P'_bary (s/s)    =  N/A
# P''_bary (s/s^2) =  N/A
# P_orb (s)        =  N/A
# asin(i)/c (s)    =  N/A
# eccentricity     =  N/A
# w (rad)          =  N/A
# T_peri           =  N/A
######################################################
   0  1777.338
   1  2028.207
   2  1825.342
   3  1930.103
   4  1861.967
   5  1707.238
   6  2075.705
   7  2158.473
   8  2005.399
   9  1882.581
  10  2025.483
  11  2302.277
  12  2193.808
  13  1903.73
  14  2026.143
  15  2110.928
  16  1842.322
  17  1828.075
  18  1999.146
  19  1883.186
  20  1709.87
  21  1749.181
  22  1661.733
  23  1776.925
  24  2070.672
  25  1795.278
  26  1759.244
  27  1639.393
  28  1721.158
  29  1998.491
  30  1864.753
  31  1611.896
  32  1584.229
  33  1811.829
  34  2012.773
  35  2008.224
  36  2035.143
  37  2103.975
  38  1795.725
  39  1707.942
  40  1920.523
  41  2178.143
  42  1910.713
  43  1862.668
  44  1753.747
  45  2176.328
  46  1888.899
  47  1675.406
  48  1806.346
  49  1868.358
  50  1778.929
  51  1844.833
  52  2034.672
  53  1981.132
  54  2194.714
  55  2307.491
  56  2331.111
  57  2357.085
  58  2324.65
  59  2014.635
  60  2031.631
  61  2132.985
  62  2164.769
  63  2030.289
  64  1842.155
  65  1956.477
  66  1988.753
  67  2032.257
  68  2049.364
  69  2067.683
  70  1679.746
  71  1873.106
  72  1833.8
  73  1972.979
  74  1727.223
  75  1642.487
  76  1710.912
  77  1752.781
  78  1606.292
  79  1564.672
  80  1643.568
  81  1436.276
  82  1253.036
  83  1645.642
  84  1623.296
  85  1456.662
  86  1603.385
  87  1720.728
  88  1501.429
  89  1620.453
  90  1761.811
  91  1957.573
  92  1994.28
  93  1882.622
  94  2166.657
  95  2315.24
  96  2201.52
  97  1776.095
  98  1721.354
  99  1637.687
 100  1736.821
 101  1972.986
 102  2051.356
 103  1807.191
 104  1794.873
 105  2132.234
 106  1880.506
 107  1649.808
 108  1570.699
 109  1576.817
 110  1849.746
 111  1625.06
 112  1200.091
 113  1329.943
 114  1152.224
 115  1666.722
 116  1750.447
 117  1809.463
 118  1908.732
 119  2010.696
 120  1772.036
 121  1558.47
 122  1662.109
 123  1838.702
 124  1711.178
 125  1373.601
 126  1709.089
 127  1701.259
 128  1828.506
 129  1784.737
 130  1704.736
 131  1801.469
 132  1972.933
 133  1895.792
 134  2065.957
 135  2285.089
 136  2430.797
 137  2551.621
 138  2605.171
 139  2528.371
 140  2171.432
 141  2218.129
 142  2145.823
 143  2272.157
 144  2148.685
 145  1911.276
 146  1783.956
 147  2250.052
 148  1922.018
 149  1762.432
 150  1721.596
 151  1731.866
 152  1821.135
 153  1905.096
 154  1738.541
 155  1464.715
 156  1495.992
 157  2013.576
 158  2468.513
 159  2971.75
 160  3418.622
 161  3695.094
 162  3701.723
 163  3222.198
 164  2351.248
 165  1734.017
 166  1563.76
 167  1852.352
 168  1786.086
 169  1752.601
 170  1534.457
 171  1466.465
 172  1707.442
 173  1575.619
 174  1504.679
 175  2045.145
 176  2444.662
 177  2372.012
 178  1973.457
 179  1844.817
 180  1961.227
 181  2139.613
 182  2235.659
 183  2128.292
 184  1958.469
 185  2150.261
 186  1853.182
 187  1642.387
 188  1613.337
 189  1758.955
 190  1808.834
 191  1993.019
 192  1824.957
 193  1571.19
 194  1600.874
 195  1904.078
 196  2174.199
 197  1876.36
 198  2148.418
 199  1848.736
 200  1872.394
 201  1871.004
 202  2087.855
 203  2218.309
 204  1959.001
 205  1971.195
 206  1925.43
 207  1751.063
 208  1308.691
 209  1724.175
 210  2070.788
 211  1930.257
 212  2061.272
 213  1760.854
 214  1455.03
 215  1616.333
 216  1874.928
 217  1840.458
 218  1979.48
 219  2140.562
 220  1933.384
 221  1494.722
 222  1790.23
 223  1865.659
 224  1940.614
 225  2134.308
 226  2123.749
 227  1944.058
 228  1901.559
 229  1860.669
 230  2171.887
 231  1894.213
 232  1651.936
 233  1970.552
 234  2002.604
 235  1631.982
 236  1298.912
 237  1338.584
 238  1676.993
 239  1618.239
 240  1692.687
 241  1605.16
 242  1762.63
 243  2077.787
 244  2286.011
 245  2041.18
 246  1405.047
 247  1442.841
 248  1548.5
 249  1870.128
 250  2007.416
 251  2295.749
 252  2228.78
 253  1987.803
 254  1522.398
 255  1430.303
 256  1404.484
 257  1401.807
 258  1439.528
 259  1664.929
 260  1603.334
 261  1986.807
 262  1517.978
 263  1533.434
 264  1822.877
 265  1867.775
 266  1638.309
 267  1654.276
 268  1873.462
 269  1895.249
 270  2120.692
 271  2023.765
 272  1999.726
 273  1856.008
 274  1888.436
 275  1914.767
 276  1848.102
 277  1936.37
 278  1779.1
 279  1625.743
 280  1454.424
 281  1478.468
 282  1655.627
 283  1833.253
 284  1683.044
 285  1651.986
 286  1672.143
 287  1730.481
 288  1701.034
 289  1538.75
 290  1650.763
 291  1807.99
 292  1871.855
 293  1854.508
 294  2018.311
 295  1851.968
 296  1468.527
 297  1544.543
 298  1587.199
 299  1450.971
 300  1791.094
 301  1549.073
 302  1288.042
 303  1561.295
 304  1647.277
 305  1749.92
 306  1728.774
 307  1753.594
 308  1916.666
 309  1861.182
 310  1781.262
 311  1612.443
 312  1930.236
 313  1905.576
 314  1744.741
 315  1558.227
 316  1650.296
 317  1739.679
 318  1650.232
 319  1536.049
 320  1569.978
 321  1744.296
 322  1589.135
 323  1405.574
 324  1399.956
 325  1517.563
 326  1452.115
 327  1232.974
 328  1371.984
 329  1302.443
 330  1510.502
 331  1334.449
 332  1110.488
 333  1076.974
 334  1091.582
 335  1287.791
 336  1401.127
 337  1368.922
 338  1251.124
 339  1252.81
 340  1256.684
 341  1226.138
 342  1185.827
 343  1384.406
 344  1649.535
 345  1651.538
 346  1874.299
 347  1826.405
 348  1701.662
 349  1630.408
 350  1977.442
 351  2057.833
 352  2002.826
 353  2064.415
 354  2262.364
 355  2199.331
 356  1909.554
 357  1914.139
 358  2064.166
 359  2237.932
 360  2017.719
 361  1853.658
 362  1667.657
 363  1450.202
 364  1352.925
 365  1336.764
 366  1691.102
 367  1681.839
 368  1641.166
 369  1588.998
 370  1283.389
 371  1689.33
 372  1806.736
 373  1683.399
 374  1835.652
 375  1629.1
 376  1910.896
 377  1956.331
 378  1826.086
 379  1828.134
 380  2022.66
 381  2175.723
 382  2289.003
 383  1973.781
 384  1957.252
 385  1855.705
 386  1993.641
 387  2104.55
 388  1965.296
 389  2025.932
 390  1944.286
 391  1853.697
 392  1958.052
 393  1885.86
 394  1919.786
 395  2097.186
 396  1935.297
 397  1750.562
 398  1644.29
 399  1992.837
 400  2285.855
 401  2353.944
 402  2169.338
 403  1953.064
 404  1929.742
 405  2234.075
 406  2023.088
 407  1987.193
 408  2263.734
 409  2149.981
 410  1824.791
 411  1811.886
 412  1807.688
 413  1868.781
 414  2207.937
 415  2048.676
 416  1671.291
 417  1540.898
 418  1482.439
 419  1746.436
 420  1829.696
 421  1674.573
 422  1744.477
 423  1743.243
 424  1887.474
 425  1796.788
 426  1684.547
 427  1857.018
 428  2043.571
 429  1922.308
 430  1999.771
 431  2003.618
 432  2126.686
 433  2110.607
 434  2008.339
 435  2112.807
 436  2290.174
 437  2058.167
 438  1507.799
 439  1931.087
 440  2286.701
 441  2363.256
 442  2050.153
 443  2283.282
 444  2381.216
 445  2159.527
 446  1942.151
 447  1957.724
 448  2279.519
 449  2145.025
 450  1753.124
 451  1633.88
 452  1644.803
 453  1520.991
 454  1702.089
 455  1591.339
 456  1451.485
 457  1447.768
 458  1558.17
 459  1638.406
 460  1880.734
 461  2054.899
 462  2186.821
 463  1954.545
 464  1648.089
 465  1725.574
 466  1775.024
 467  1513.615
 468  1408.893
 469  1902.365
 470  1844.943
 471  1459.597
 472  1671.362
 473  1874.634
 474  2000.921
 475  2255.114
 476  2332.013
 477  2000.542
 478  1949.388
 479  2154.393
 480  2233.874
 481  2537.397
 482  2811.808
 483  2600.588
 484  2073.991
 485  2058.014
 486  2000.113
 487  1783.84
 488  1656.882
 489  1681.881
 490  1790.549
 491  1776.437
 492  1690.223
 493  1569.33
 494  1681.921
 495  1570.786
 496  1539.993
 497  1491.852
 498  1537.248
 499  1697.991
 500  1846.302
 501  1753.875
 502  1816.361
 503  1729.475
 504  1595.764
 505  1700.271
 506  1834.514
 507  1995.901
 508  1813.347
 509  1661.44
 510  1652.055
 511  1615.087
