# Input file       =  1184544337.111032_cleaned.dat
# Candidate        =  PSR_0332+5434
# Telescope        =  AR
# Epoch_topo       =  57954.004121655460
# Epoch_bary       =  N/A
# T_sample         =  0.002
# Data Folded      =  7208960
# Data Avg         =  0.228534381789028
# Data StdDev      =  6.75736267755848 
# Profile Bins     =  1024
# Profile Avg      =  1608.59211461758 
# Profile StdDev   =  566.974541321447 
# Reduced chi-sqr  =  0.362
# Prob(Noise)      <  1   (~0.0 sigma)
# P_topo (ms)      =  714.475725105252  +/- 6.59e-05
# P'_topo (s/s)    =  -0                +/- 3.54e-11
# P''_topo (s/s^2) =  0                 +/- 1.59e-14
# P_bary (ms)      =  N/A
# P'_bary (s/s)    =  N/A
# P''_bary (s/s^2) =  N/A
# P_orb (s)        =  N/A
# asin(i)/c (s)    =  N/A
# eccentricity     =  N/A
# w (rad)          =  N/A
# T_peri           =  N/A
######################################################
   0  1639.762
   1  1372.22
   2  1292.794
   3  1299.022
   4  1478.486
   5  1295.794
   6  1464.9
   7  1603.6
   8  1661.918
   9  1539.517
  10  1644.451
  11  1758.883
  12  2073.486
  13  1974.156
  14  1743.318
  15  1470.399
  16  1448.812
  17  1224.351
  18  1409.623
  19  1462.196
  20  1467.867
  21  1518.176
  22  1461.502
  23  1386.668
  24  1597.621
  25  1943.372
  26  2064.783
  27  1801.127
  28  1665.052
  29  1699.814
  30  1536.62
  31  1595.23
  32  1590.51
  33  1404.752
  34  1269.906
  35  1446.812
  36  1506.474
  37  1637.109
  38  1421.479
  39  1317.298
  40  1628.548
  41  2094.087
  42  2101.735
  43  2168.907
  44  1985.603
  45  1770.199
  46  1580.835
  47  1465.914
  48  1540.856
  49  1604.599
  50  1725.342
  51  1823.869
  52  1801.73
  53  1606.494
  54  1483.191
  55  1610.889
  56  1728.44
  57  1526.13
  58  1554.779
  59  1679.205
  60  1796.773
  61  1583.922
  62  1600.354
  63  1559.026
  64  1451.395
  65  1594.835
  66  1692.421
  67  1520.565
  68  1587.699
  69  1883.933
  70  1943.114
  71  2006.021
  72  1831.944
  73  1880.824
  74  1652.482
  75  1604.071
  76  1565.629
  77  1849.15
  78  1786.353
  79  1727.463
  80  1667.784
  81  1622.35
  82  1547.689
  83  1657.446
  84  1622.277
  85  1532.939
  86  1435.464
  87  1524.49
  88  1556.557
  89  1694.821
  90  1935.946
  91  2012.437
  92  1735.502
  93  1722.589
  94  1773.01
  95  1698.943
  96  1604.739
  97  1588.661
  98  1378.489
  99  1499.514
 100  1722.457
 101  1753.673
 102  1955.309
 103  1891.962
 104  1754.487
 105  1608.398
 106  1725.569
 107  1733.456
 108  1888.737
 109  1842.368
 110  1756.85
 111  1489.952
 112  1363.518
 113  1334.966
 114  1415.916
 115  1425.079
 116  1513.073
 117  1492.443
 118  1623.108
 119  1579.287
 120  1640.518
 121  1641.321
 122  1725.346
 123  1609.588
 124  1833.754
 125  1847.063
 126  1679.592
 127  1630.212
 128  1592.657
 129  1442.135
 130  1443.884
 131  1621.616
 132  1475.383
 133  1487.217
 134  1288.217
 135  1335.294
 136  1488.757
 137  1650.325
 138  1537.807
 139  1552.344
 140  1684.904
 141  1882.079
 142  1882.224
 143  1890.253
 144  1746.629
 145  1701.225
 146  1634.022
 147  1605.849
 148  1549.742
 149  1541.993
 150  1571.018
 151  1606.102
 152  1600.949
 153  1615.712
 154  1551.225
 155  1648.794
 156  1674.289
 157  1534.732
 158  1773.477
 159  1724.541
 160  1645.282
 161  1800.593
 162  1762.688
 163  1436.981
 164  1445.862
 165  1541.366
 166  1698.858
 167  1511.195
 168  1568.838
 169  1380.525
 170  1402.327
 171  1333.31
 172  1454.369
 173  1548.195
 174  1807.471
 175  1869.164
 176  1933.553
 177  1867.858
 178  1707.925
 179  1717.89
 180  1708.604
 181  1776.475
 182  1614.259
 183  1647.229
 184  1627.945
 185  1458.49
 186  1429.75
 187  1416.287
 188  1352.918
 189  1594.962
 190  1681.448
 191  1690.739
 192  1821.837
 193  1858.381
 194  1652.997
 195  1699.583
 196  1666.042
 197  1399.585
 198  1348.677
 199  1397.812
 200  1438.542
 201  1477.844
 202  1502.652
 203  1637.282
 204  1648.109
 205  1722.18
 206  1856.33
 207  1900.705
 208  1914.218
 209  1864.848
 210  1770.198
 211  1648.284
 212  1516.274
 213  1395.783
 214  1677.37
 215  1781.987
 216  1703.026
 217  1517.59
 218  1533.842
 219  1542.861
 220  1666.409
 221  1608.603
 222  1536.871
 223  1646.207
 224  1661.945
 225  1580.838
 226  1754.832
 227  1644.821
 228  1421.139
 229  1309.542
 230  1385.694
 231  1391.553
 232  1437.026
 233  1639.938
 234  1597.313
 235  1502.908
 236  1429.002
 237  1555.138
 238  1558.604
 239  1780.051
 240  1817.78
 241  1852.504
 242  1614.899
 243  1778.667
 244  1648.816
 245  1789.785
 246  1625.154
 247  1587.885
 248  1516.475
 249  1634.43
 250  1594.226
 251  1826.96
 252  1578.517
 253  1399.133
 254  1531.988
 255  1820.205
 256  1807.839
 257  1858.293
 258  1645.193
 259  1507.708
 260  1457.075
 261  1523.817
 262  1515.261
 263  1424.238
 264  1563.282
 265  1542.603
 266  1540.761
 267  1353.992
 268  1519.172
 269  1618.894
 270  2032.086
 271  1896.797
 272  1706.726
 273  1434.722
 274  1651.248
 275  1466.485
 276  1560.841
 277  1430.311
 278  1514.104
 279  1482.448
 280  1663.22
 281  1530.287
 282  1486.768
 283  1242.233
 284  1355.913
 285  1678.964
 286  1638.384
 287  1430.714
 288  1609.14
 289  1775.426
 290  1771.269
 291  1758.025
 292  1810.033
 293  1706.88
 294  1569.837
 295  1541.08
 296  1510.135
 297  1507.025
 298  1583.16
 299  1812.729
 300  1528.519
 301  1453.002
 302  1329.996
 303  1544.56
 304  1616.917
 305  1648.747
 306  1567.428
 307  1758.724
 308  1869.98
 309  1818.763
 310  1795.813
 311  1542.229
 312  1357.365
 313  1641.899
 314  1792.537
 315  1642.063
 316  1537.16
 317  1517.727
 318  1414.422
 319  1381.312
 320  1394.843
 321  1426.263
 322  1642.613
 323  1764.448
 324  1792.631
 325  1684.574
 326  1607.852
 327  1416.031
 328  1426.898
 329  1434.29
 330  1552.063
 331  1337.867
 332  1494.757
 333  1411.784
 334  1484.675
 335  1604.083
 336  1885.463
 337  1664.925
 338  1664.557
 339  1759.318
 340  1702.845
 341  1576.789
 342  1514.38
 343  1544.643
 344  1782.032
 345  1714.386
 346  1432.621
 347  1292.187
 348  1285.438
 349  1421.663
 350  1620.085
 351  1572.946
 352  1558.58
 353  1745.847
 354  1890.503
 355  1823.641
 356  1714.338
 357  1968.117
 358  1972.128
 359  1901.613
 360  1705.22
 361  1596.508
 362  1330.097
 363  1520.656
 364  1592.756
 365  1374.184
 366  1406.604
 367  1563.201
 368  1697.542
 369  1651.707
 370  1729.086
 371  1576.056
 372  1680.099
 373  1632.759
 374  1621.913
 375  1575.189
 376  1641.667
 377  1484.225
 378  1561.324
 379  1476.058
 380  1507.04
 381  1547.701
 382  1655.844
 383  1475.369
 384  1534.269
 385  1496.594
 386  1607.101
 387  1554.003
 388  1738.918
 389  1648.822
 390  1674.527
 391  1565.385
 392  1602.673
 393  1340.601
 394  1396.81
 395  1557.025
 396  1552.674
 397  1669.312
 398  1684.467
 399  1586.523
 400  1510.781
 401  1355.569
 402  1301.332
 403  1683.433
 404  1759.173
 405  1655.192
 406  1444.517
 407  1514.85
 408  1425.772
 409  1667.615
 410  1735.02
 411  1732.588
 412  1362.488
 413  1280.337
 414  1299.092
 415  1518.047
 416  1378.995
 417  1437.49
 418  1597.398
 419  1762.388
 420  1667.784
 421  1597.3
 422  1780.671
 423  1872.195
 424  1787.649
 425  1752.798
 426  1727.141
 427  1425.95
 428  1492.568
 429  1551.985
 430  1390.068
 431  1469.826
 432  1555.685
 433  1651.424
 434  1652.051
 435  1524.16
 436  1615.222
 437  1795.42
 438  2011.493
 439  1731.109
 440  1710.528
 441  1609.868
 442  1533.403
 443  1384.474
 444  1328.757
 445  1372.931
 446  1616.531
 447  1686.832
 448  1706.341
 449  1519.132
 450  1541.303
 451  1533.623
 452  1408.025
 453  1497.107
 454  1587.711
 455  1690.87
 456  1819.326
 457  1713.352
 458  1409.868
 459  1610.781
 460  1738.688
 461  1552.504
 462  1482.675
 463  1599.348
 464  1508.811
 465  1561.829
 466  1344.682
 467  1370.318
 468  1421.456
 469  1737.244
 470  1725.681
 471  1692.504
 472  1495.778
 473  1437.703
 474  1394.505
 475  1479.512
 476  1494.593
 477  1444.406
 478  1532.737
 479  1596.465
 480  1685.875
 481  1625.345
 482  1724.792
 483  1691.937
 484  1745.979
 485  1509.412
 486  1337.876
 487  1302.051
 488  1497.769
 489  1442.466
 490  1792.871
 491  1824.914
 492  1724.634
 493  1621.592
 494  1516.291
 495  1259.939
 496  1481.52
 497  1615.561
 498  1672.618
 499  1644.049
 500  1764.188
 501  1690.602
 502  1553.007
 503  1466.807
 504  1557.708
 505  1708.969
 506  1691.701
 507  1765.974
 508  1571.885
 509  1443.056
 510  1236.245
 511  1331.998
 512  1374.95
 513  1345.973
 514  1232.286
 515  1501.07
 516  1645.734
 517  1540.385
 518  1510.997
 519  1645.598
 520  1599.115
 521  1895.896
 522  1824.035
 523  1657.966
 524  1576.37
 525  1393.356
 526  1303.444
 527  1380.634
 528  1597.5
 529  1715.406
 530  1743.143
 531  1749.302
 532  1550.657
 533  1505.426
 534  1600.809
 535  1583.706
 536  1488.807
 537  1528.352
 538  1756.424
 539  1662.15
 540  1543.711
 541  1479.505
 542  1675.63
 543  1665.414
 544  1674.871
 545  1419.36
 546  1388.249
 547  1349.384
 548  1422.566
 549  1492.358
 550  1401.58
 551  1284.655
 552  1643.065
 553  1687.4
 554  1463.603
 555  1495.503
 556  1593.264
 557  1441.632
 558  1339.148
 559  1349.935
 560  1260.895
 561  1306.515
 562  1493.999
 563  1646.521
 564  1508.522
 565  1476.62
 566  1525.41
 567  1674.784
 568  1612.92
 569  1909.401
 570  1973.646
 571  2111.594
 572  1915.297
 573  1801.092
 574  1676.522
 575  1501.635
 576  1370.364
 577  1516.75
 578  1482.646
 579  1394.137
 580  1412.827
 581  1580.229
 582  1253.87
 583  1301.75
 584  1411.078
 585  1532.929
 586  1814.964
 587  1842.25
 588  1874.948
 589  1903.402
 590  1805.16
 591  1522.955
 592  1520.719
 593  1466.959
 594  1569.807
 595  1528.56
 596  1726.274
 597  1560.07
 598  1472.049
 599  1523.192
 600  1705.669
 601  1738.134
 602  1814.547
 603  1980.651
 604  1857.45
 605  1520.857
 606  1473.91
 607  1380.17
 608  1579.835
 609  1426.033
 610  1320.607
 611  1324.04
 612  1360.56
 613  1471.479
 614  1747.593
 615  1687.13
 616  1512.276
 617  1631.349
 618  1618.267
 619  1678.41
 620  1605.626
 621  1655.518
 622  1495.709
 623  1524.372
 624  1441.121
 625  1462.891
 626  1309.65
 627  1473.495
 628  1385.328
 629  1387.337
 630  1460.486
 631  1701.702
 632  1702.623
 633  1717.896
 634  1625.685
 635  1607.736
 636  1630.589
 637  1796.234
 638  1731.965
 639  1753.993
 640  1653.365
 641  1548.769
 642  1659.749
 643  1651.381
 644  1775.302
 645  2120.956
 646  2389.314
 647  2334.507
 648  2390.221
 649  2346.573
 650  2295.408
 651  2332.78
 652  2607.278
 653  2541.611
 654  2533.342
 655  2244.009
 656  2187.13
 657  2072.319
 658  1947.93
 659  1692.151
 660  1454.328
 661  1533.748
 662  1678.651
 663  1563.289
 664  1725.373
 665  1497.887
 666  1577.659
 667  1773.014
 668  2148.093
 669  2044.001
 670  1781.925
 671  1752.031
 672  1642.702
 673  1657.467
 674  1381.865
 675  1311.864
 676  1424.387
 677  1704.474
 678  1720.173
 679  1923.719
 680  1718.916
 681  1604.926
 682  1662.577
 683  1737.832
 684  1572.78
 685  1602.949
 686  1708.376
 687  1673.681
 688  1456.442
 689  1366.895
 690  1334.008
 691  1216.876
 692  1376.662
 693  1515.603
 694  1534.245
 695  1620.279
 696  1817.397
 697  1762.689
 698  1736.241
 699  1571.673
 700  1473.839
 701  1444.463
 702  1569.547
 703  1487.316
 704  1669.25
 705  1678.972
 706  1596.287
 707  1600.711
 708  1582.343
 709  1451.369
 710  1663.25
 711  1663.13
 712  1906.009
 713  1850.852
 714  1858.122
 715  1624.625
 716  1563.616
 717  1544.567
 718  1660.174
 719  1777.284
 720  1846.787
 721  1699.498
 722  1476.763
 723  1528.156
 724  1450.747
 725  1401.356
 726  1489.426
 727  1688.3
 728  1461.768
 729  1527.636
 730  1526.677
 731  1447.357
 732  1542.668
 733  1750.526
 734  1845.988
 735  1940.729
 736  1945.69
 737  1945.593
 738  1717.821
 739  1590.379
 740  1401.42
 741  1564.017
 742  1437.761
 743  1403.431
 744  1457.504
 745  1622.967
 746  1497.555
 747  1568.554
 748  1540.059
 749  1706.964
 750  1804.448
 751  2038.091
 752  2067.119
 753  1844.531
 754  1794.777
 755  1610.971
 756  1489.04
 757  1369.352
 758  1567.396
 759  1270.511
 760  1414.202
 761  1344.743
 762  1474.539
 763  1636.151
 764  1784.495
 765  1636.34
 766  1728.116
 767  1755.291
 768  1752.131
 769  1736.101
 770  1793.199
 771  1671.786
 772  1529.808
 773  1418.346
 774  1511.261
 775  1469.017
 776  1381.199
 777  1348.543
 778  1536.871
 779  1657.486
 780  1538.047
 781  1540.95
 782  1544.944
 783  1651
 784  1616.627
 785  1980.263
 786  1911.059
 787  1778.937
 788  1629.01
 789  1633.073
 790  1378.429
 791  1398.455
 792  1429.249
 793  1409.756
 794  1438.046
 795  1422.015
 796  1349.288
 797  1493.225
 798  1522.034
 799  1550.491
 800  1852.527
 801  2109.54
 802  2030.286
 803  1716.573
 804  1578.988
 805  1652.02
 806  1608.574
 807  1549.124
 808  1561.506
 809  1598.297
 810  1692.382
 811  1533.975
 812  1577.124
 813  1382.751
 814  1525.75
 815  1475.483
 816  1684.432
 817  1525.828
 818  1384.923
 819  1517.838
 820  1605.122
 821  1461.345
 822  1507.937
 823  1529.604
 824  1356.937
 825  1443.266
 826  1433.755
 827  1403.017
 828  1451.307
 829  1640.21
 830  1579.828
 831  1417.546
 832  1364.709
 833  1588.058
 834  1619.784
 835  1741.779
 836  1607.132
 837  1683.247
 838  1510.695
 839  1518.64
 840  1528.9
 841  1657.162
 842  1591.238
 843  1518.029
 844  1430.31
 845  1533.166
 846  1455.068
 847  1647.181
 848  1549.536
 849  1533.481
 850  1646.017
 851  1767.652
 852  1579.935
 853  1651.897
 854  1592.416
 855  1372.874
 856  1352.976
 857  1323.778
 858  1267.412
 859  1370.73
 860  1634.751
 861  1543.091
 862  1455.433
 863  1345.978
 864  1415.021
 865  1476.956
 866  1643.688
 867  1855.359
 868  1969.416
 869  1779.948
 870  1793.39
 871  1707.141
 872  1791.877
 873  1554.422
 874  1562.659
 875  1580.366
 876  1711.971
 877  1684.136
 878  1783.531
 879  1724.733
 880  1523.975
 881  1577.908
 882  1678.149
 883  1598.31
 884  1811.819
 885  1819.331
 886  1721.291
 887  1738.083
 888  1691.592
 889  1550.536
 890  1403.183
 891  1537.605
 892  1395.891
 893  1512.245
 894  1390.309
 895  1513.635
 896  1430.823
 897  1592.944
 898  1658.22
 899  1747.439
 900  1793.361
 901  1900.699
 902  1841.654
 903  1761.8
 904  1691.001
 905  1591.162
 906  1574.868
 907  1390.969
 908  1326.01
 909  1436.291
 910  1630.572
 911  1637.543
 912  1782.008
 913  1686.287
 914  1617.119
 915  1787
 916  2094.072
 917  1902.008
 918  2029.056
 919  1800.845
 920  1660.861
 921  1439.817
 922  1442.366
 923  1350.687
 924  1476.09
 925  1550.666
 926  1712.285
 927  1555.061
 928  1484.71
 929  1470.513
 930  1630.841
 931  1813.699
 932  1843.419
 933  1735.951
 934  1853.45
 935  1844.434
 936  1657.396
 937  1573.112
 938  1538.822
 939  1389.641
 940  1348.295
 941  1404.006
 942  1282.97
 943  1334.595
 944  1303.35
 945  1421.457
 946  1537.725
 947  1652.993
 948  1495.809
 949  1797.391
 950  1809.064
 951  1842.448
 952  1714.362
 953  1698.985
 954  1596.832
 955  1556.349
 956  1586.259
 957  1551.07
 958  1419.88
 959  1451.392
 960  1629.818
 961  1576.175
 962  1520.564
 963  1454.229
 964  1520.815
 965  1564.509
 966  1785.555
 967  1659.583
 968  1633.848
 969  1600.85
 970  1608.907
 971  1554.559
 972  1436.297
 973  1202.351
 974  1422.512
 975  1414.626
 976  1576.709
 977  1610.709
 978  1668.711
 979  1537.207
 980  1563.536
 981  1401.417
 982  1344.843
 983  1510.295
 984  1732.665
 985  1645.251
 986  1605.184
 987  1545.337
 988  1498.673
 989  1405.271
 990  1399.99
 991  1384.913
 992  1277.66
 993  1527.726
 994  1606.418
 995  1506.703
 996  1507.662
 997  1716.986
 998  1635.966
 999  1863.576
1000  2169.011
1001  2249.88
1002  1965.023
1003  1790.849
1004  1470.936
1005  1466.479
1006  1328.621
1007  1457.465
1008  1571.049
1009  1538.422
1010  1283.21
1011  1465.041
1012  1566.959
1013  1570.332
1014  1493.771
1015  1555.199
1016  1642.312
1017  1735.55
1018  1860.388
1019  1905.583
1020  1914.484
1021  1889.669
1022  1862.314
1023  1603.946
