# Input file       =  1184573858.104995_cleaned.dat
# Candidate        =  PSR_0332+5434
# Telescope        =  AR
# Epoch_topo       =  57954.345799826333
# Epoch_bary       =  N/A
# T_sample         =  0.002
# Data Folded      =  7340032
# Data Avg         =  0.0487257000807877
# Data StdDev      =  1.00013830669717 
# Profile Bins     =  512
# Profile Avg      =  698.508354642797 
# Profile StdDev   =  119.74959625757  
# Reduced chi-sqr  =  1.286
# Prob(Noise)      <  1.26e-05   (~4.2 sigma)
# P_topo (ms)      =  714.475865663666  +/- 0.000312
# P'_topo (s/s)    =  -0                +/- 1.65e-10
# P''_topo (s/s^2) =  0                 +/- 7.28e-14
# P_bary (ms)      =  N/A
# P'_bary (s/s)    =  N/A
# P''_bary (s/s^2) =  N/A
# P_orb (s)        =  N/A
# asin(i)/c (s)    =  N/A
# eccentricity     =  N/A
# w (rad)          =  N/A
# T_peri           =  N/A
######################################################
   0  1322.24
   1  1209.81
   2  985.2105
   3  797.8634
   4  707.6547
   5  723.1683
   6  681.4844
   7  636.1439
   8  609.1935
   9  624.3557
  10  629.4394
  11  712.0365
  12  677.5112
  13  711.5095
  14  713.904
  15  596.4868
  16  678.2077
  17  749.2175
  18  743.1482
  19  632.3849
  20  635.032
  21  681.0818
  22  641.9045
  23  548.4988
  24  550.0955
  25  643.8832
  26  778.2148
  27  820.0286
  28  730.6644
  29  752.3283
  30  637.5403
  31  686.2863
  32  645.6951
  33  553.9207
  34  657.8483
  35  711.3652
  36  734.2347
  37  703.3229
  38  594.6096
  39  633.2593
  40  581.682
  41  601.0902
  42  588.6473
  43  655.8824
  44  602.0014
  45  555.9335
  46  530.6992
  47  524.3727
  48  655.7579
  49  676.0703
  50  554.1534
  51  632.002
  52  684.8229
  53  600.5864
  54  570.7787
  55  623.2358
  56  722.6025
  57  630.1597
  58  494.6696
  59  562.6002
  60  518.6959
  61  542.8122
  62  635.7288
  63  589.1832
  64  529.7566
  65  597.4285
  66  524.9366
  67  560.1844
  68  608.5618
  69  590.8951
  70  695.1328
  71  666.9239
  72  544.9343
  73  555.0448
  74  566.0519
  75  593.1185
  76  614.9162
  77  709.7307
  78  722.2859
  79  647.2528
  80  530.5477
  81  613.4185
  82  490.2406
  83  477.8935
  84  583.3314
  85  618.3649
  86  651.1571
  87  529.4504
  88  550.3041
  89  586.9514
  90  544.6238
  91  537.4532
  92  639.0543
  93  691.7873
  94  598.4115
  95  507.8203
  96  562.451
  97  567.1297
  98  467.889
  99  438.3264
 100  519.9002
 101  612.6429
 102  623.4995
 103  548.6082
 104  553.3771
 105  638.916
 106  645.666
 107  689.1243
 108  639.1695
 109  626.3463
 110  740.8279
 111  853.2264
 112  851.0608
 113  714.8848
 114  718.5726
 115  766.4962
 116  652.9486
 117  615.5501
 118  700.2676
 119  747.761
 120  688.2505
 121  730.1491
 122  803.202
 123  746.1484
 124  737.425
 125  743.0654
 126  653.0831
 127  643.9036
 128  644.7762
 129  619.3898
 130  509.2246
 131  570.4747
 132  590.0303
 133  579.3165
 134  648.327
 135  687.7758
 136  770.3311
 137  671.0511
 138  576.6587
 139  584.3768
 140  548.2122
 141  617.8842
 142  572.944
 143  657.9305
 144  761.7501
 145  696.242
 146  683.7149
 147  632.226
 148  584.8107
 149  668.9664
 150  686.6838
 151  704.9199
 152  699.6884
 153  692.4883
 154  676.9962
 155  631.8554
 156  757.0457
 157  833.7231
 158  717.51
 159  579.9844
 160  622.4069
 161  744.764
 162  743.4185
 163  702.3311
 164  673.3963
 165  703.7368
 166  633.0399
 167  685.2101
 168  827.7745
 169  777.4923
 170  702.7647
 171  708.6586
 172  710.6847
 173  611.9063
 174  542.9421
 175  599.73
 176  603.1597
 177  596.1674
 178  741.3369
 179  745.3193
 180  660.678
 181  689.9641
 182  788.7859
 183  773.1222
 184  628.4973
 185  594.0293
 186  635.0068
 187  604.174
 188  615.7006
 189  772.6589
 190  737.7899
 191  692.1778
 192  715.941
 193  675.246
 194  645.5435
 195  562.5212
 196  565.9769
 197  668.6255
 198  719.9532
 199  673.9233
 200  750.6555
 201  766.3018
 202  703.1356
 203  711.7894
 204  759.4868
 205  801.7872
 206  773.89
 207  720.0922
 208  664.5457
 209  692.5754
 210  687.9901
 211  713.1539
 212  665.0602
 213  591.4117
 214  541.6248
 215  589.9085
 216  680.0578
 217  684.7623
 218  656.012
 219  712.0906
 220  785.4905
 221  732.2016
 222  774.1321
 223  659.9562
 224  608.3209
 225  720.5685
 226  670.9836
 227  713.0568
 228  649.9969
 229  584.6912
 230  634.4832
 231  696.063
 232  643.8613
 233  628.1432
 234  621.0212
 235  628.5062
 236  648.8165
 237  674.5225
 238  667.4188
 239  602.2761
 240  678.5231
 241  762.1346
 242  743.4175
 243  812.3627
 244  832.1734
 245  749.166
 246  772.2186
 247  760.3049
 248  731.081
 249  675.0902
 250  652.3185
 251  720.2323
 252  636.227
 253  630.8522
 254  714.0592
 255  747.7969
 256  791.1033
 257  680.7162
 258  624.1717
 259  687.4863
 260  713.8618
 261  740.5396
 262  709.4287
 263  678.0247
 264  631.7106
 265  725.5324
 266  712.9053
 267  739.6208
 268  761.7095
 269  725.9921
 270  770.8828
 271  689.0601
 272  765.8636
 273  752.6758
 274  794.7281
 275  717.4872
 276  625.3019
 277  846.2945
 278  880.031
 279  686.9494
 280  553.2126
 281  646.5775
 282  719.9167
 283  585.6604
 284  572.6922
 285  617.2682
 286  779.2585
 287  785.772
 288  636.0943
 289  693.5426
 290  712.1458
 291  647.5074
 292  622.6046
 293  758.7341
 294  686.8528
 295  575.7734
 296  652.7421
 297  644.4021
 298  700.5699
 299  704.1846
 300  700.9084
 301  718.0254
 302  798.9019
 303  739.2166
 304  790.6255
 305  833.7479
 306  775.3968
 307  826.1002
 308  702.9019
 309  608.3135
 310  574.4852
 311  593.9547
 312  550.4857
 313  569.2584
 314  699.7049
 315  660.4089
 316  579.9777
 317  703.4752
 318  843.345
 319  810.476
 320  725.4401
 321  741.6171
 322  715.38
 323  693.9847
 324  668.6656
 325  814.0267
 326  874.3429
 327  890.7985
 328  825.5806
 329  705.2438
 330  778.7375
 331  823.2572
 332  901.477
 333  842.0573
 334  792.2814
 335  760.6753
 336  793.4051
 337  746.0773
 338  712.3723
 339  714.4196
 340  663.5827
 341  801.5202
 342  765.9106
 343  706.3228
 344  799.6152
 345  805.0158
 346  741.546
 347  635.4333
 348  593.869
 349  688.0811
 350  759.572
 351  772.0649
 352  708.4843
 353  820.6675
 354  755.6099
 355  797.8647
 356  689.0585
 357  666.5971
 358  825.8065
 359  850.7133
 360  773.0818
 361  677.7216
 362  826.5391
 363  799.3811
 364  725.5798
 365  698.1141
 366  644.5286
 367  703.5368
 368  728.8472
 369  671.7755
 370  652.3412
 371  733.9066
 372  757.8193
 373  759.3757
 374  660.092
 375  729.9569
 376  738.4588
 377  695.645
 378  797.9772
 379  833.2639
 380  855.5347
 381  872.1218
 382  796.0563
 383  866.5526
 384  863.6575
 385  825.5639
 386  858.2094
 387  821.3353
 388  806.0746
 389  817.3353
 390  877.3819
 391  784.0418
 392  718.389
 393  774.3064
 394  883.1099
 395  864.3436
 396  697.4834
 397  710.946
 398  714.6629
 399  735.5457
 400  721.0453
 401  615.9924
 402  688.6052
 403  660.7492
 404  724.6592
 405  704.9397
 406  716.3275
 407  628.6016
 408  715.9434
 409  683.366
 410  708.0941
 411  723.361
 412  678.4639
 413  712.2074
 414  677.2128
 415  727.7874
 416  775.851
 417  805.4207
 418  766.4951
 419  734.9692
 420  773.1351
 421  730.3216
 422  675.6422
 423  748.7345
 424  756.6254
 425  723.8489
 426  685.2397
 427  711.217
 428  837.4644
 429  767.0627
 430  739.6395
 431  806.0891
 432  734.7032
 433  685.6504
 434  766.5378
 435  794.7827
 436  712.332
 437  641.0975
 438  743.454
 439  764.6516
 440  671.2783
 441  667.9318
 442  693.0428
 443  677.4388
 444  740.7535
 445  674.7344
 446  764.7486
 447  766.1166
 448  726.552
 449  661.8215
 450  738.7987
 451  727.0404
 452  683.2987
 453  671.9081
 454  638.4047
 455  643.2778
 456  651.0217
 457  611.9517
 458  587.3028
 459  686.2343
 460  737.303
 461  787.0054
 462  705.9609
 463  847.8879
 464  775.0614
 465  741.3959
 466  806.0376
 467  852.1848
 468  796.5677
 469  865.9547
 470  873.5397
 471  753.9647
 472  741.7232
 473  802.1761
 474  845.7565
 475  859.6944
 476  786.664
 477  772.259
 478  800.7978
 479  721.5888
 480  741.6469
 481  709.0073
 482  760.9641
 483  691.5938
 484  621.0428
 485  681.3605
 486  551.9994
 487  556.887
 488  671.9227
 489  802.4268
 490  804.9016
 491  589.9091
 492  604.7507
 493  804.3619
 494  953.8751
 495  794.1508
 496  702.2785
 497  674.5027
 498  754.6068
 499  739.9597
 500  649.0584
 501  597.206
 502  592.6305
 503  613.7114
 504  669.8007
 505  753.3555
 506  648.6624
 507  697.2065
 508  763.9019
 509  932.8286
 510  1090.765
 511  1228.98
