# Input file       =  1184802742.097903_cleaned.dat
# Candidate        =  PSR_0332+5434
# Telescope        =  AR
# Epoch_topo       =  57956.994920114616
# Epoch_bary       =  N/A
# T_sample         =  0.002
# Data Folded      =  7208960
# Data Avg         =  0.324140604100698
# Data StdDev      =  6.44931755941313 
# Profile Bins     =  256
# Profile Avg      =  9128.3596166969  
# Profile StdDev   =  1082.25621135546 
# Reduced chi-sqr  =  0.602
# Prob(Noise)      <  1   (~0.0 sigma)
# P_topo (ms)      =  714.473972133478  +/- 5.18e-05
# P'_topo (s/s)    =  -0                +/- 2.79e-11
# P''_topo (s/s^2) =  0                 +/- 1.25e-14
# P_bary (ms)      =  N/A
# P'_bary (s/s)    =  N/A
# P''_bary (s/s^2) =  N/A
# P_orb (s)        =  N/A
# asin(i)/c (s)    =  N/A
# eccentricity     =  N/A
# w (rad)          =  N/A
# T_peri           =  N/A
######################################################
   0  9021.633
   1  9399.757
   2  10192.72
   3  9745.281
   4  8405.194
   5  8429.382
   6  9050.78
   7  8572.891
   8  8976.602
   9  8866.122
  10  10563.48
  11  9222.675
  12  7658.865
  13  8085.349
  14  10057.93
  15  8608.819
  16  7559.329
  17  9173.937
  18  9369.032
  19  8912.404
  20  9102.442
  21  9286.252
  22  8820.31
  23  8486.983
  24  8610.555
  25  8345.058
  26  9520.917
  27  9702.636
  28  8919.502
  29  7807.762
  30  8989.999
  31  9762.635
  32  9890.834
  33  8413.244
  34  9496.833
  35  10321.44
  36  10036.53
  37  8741.917
  38  9305.174
  39  9412.939
  40  9149.095
  41  9343.116
  42  8530.882
  43  9953.35
  44  8786.553
  45  8558.679
  46  8905.671
  47  9603.723
  48  9034.875
  49  8318.946
  50  9870.915
  51  10004.48
  52  9297.21
  53  8970.255
  54  8366.582
  55  8899.467
  56  9635.27
  57  8437.396
  58  8944.87
  59  10139.69
  60  9848.911
  61  8311.325
  62  8087.444
  63  8762.471
  64  8710.244
  65  9048.439
  66  8479.409
  67  8886.251
  68  9390.059
  69  9916.827
  70  8270.932
  71  8624.09
  72  8617.232
  73  9442.918
  74  8723.248
  75  8970.015
  76  10018.28
  77  9350.512
  78  8728.073
  79  8480.426
  80  9512.074
  81  8436.626
  82  8215.102
  83  8710.525
  84  9595.948
  85  9757.385
  86  9530.364
  87  8223.572
  88  8744.96
  89  9469.575
  90  8692.976
  91  8807.327
  92  9488.858
  93  9663.266
  94  9135.346
  95  8737.812
  96  8948.479
  97  9074.404
  98  9059.09
  99  8137.182
 100  10150.42
 101  9474.097
 102  8657.984
 103  7996.822
 104  8972.717
 105  9501.607
 106  8859.925
 107  8582.54
 108  9531.796
 109  9484
 110  8797.735
 111  8700.468
 112  9100.339
 113  9229.388
 114  9096.17
 115  9364.734
 116  7997.471
 117  10174.77
 118  10125.24
 119  8224.979
 120  7362.683
 121  9300.697
 122  9976.447
 123  8813.159
 124  7981.844
 125  8940.333
 126  9886.641
 127  9477.928
 128  8606.242
 129  8957.351
 130  9486.532
 131  8912.547
 132  8773.958
 133  9478.843
 134  9942.142
 135  8285.762
 136  7625.327
 137  8932.359
 138  9403.807
 139  9312.874
 140  8909.059
 141  8713.889
 142  8819.084
 143  9222.589
 144  8696.5
 145  8276.675
 146  9865.536
 147  9563.627
 148  8490.051
 149  8942.658
 150  9925.119
 151  9591.747
 152  8831.868
 153  9270.706
 154  9815.662
 155  8913.552
 156  9038.629
 157  8423.153
 158  10372.81
 159  10967.41
 160  9945.221
 161  10087.24
 162  12338.73
 163  13206.84
 164  10365.11
 165  9124.953
 166  9240.111
 167  9760.266
 168  7565.901
 169  8368.942
 170  8956.153
 171  9116.442
 172  8205.133
 173  8674.059
 174  9057.059
 175  9966.567
 176  9719.74
 177  7774.756
 178  8276.265
 179  8807.372
 180  9059.164
 181  8457.105
 182  9114.776
 183  9192.097
 184  9101.432
 185  8549.7
 186  9005.83
 187  9545.591
 188  9067.418
 189  8304.146
 190  8425.554
 191  9992.277
 192  10246.38
 193  9375.01
 194  7622.334
 195  8980.046
 196  9898.871
 197  8827.241
 198  8099.413
 199  8963.631
 200  9783.604
 201  9203.643
 202  8775.74
 203  8885.485
 204  9337.09
 205  9161.225
 206  9017.564
 207  10241.7
 208  10617.54
 209  9585.462
 210  8042.533
 211  9023.099
 212  10322.75
 213  9364.342
 214  8541.993
 215  9153.672
 216  9594.959
 217  9564.255
 218  9233.579
 219  8270.521
 220  8879.219
 221  9222.773
 222  8705.264
 223  8934.626
 224  9723.295
 225  9822.009
 226  8522.573
 227  7884.336
 228  9219.026
 229  10139.72
 230  8656.45
 231  8251.295
 232  9289.15
 233  9896.143
 234  9378.488
 235  8620.377
 236  8209.07
 237  9231.618
 238  9400.514
 239  8872.659
 240  9463.774
 241  9853.764
 242  8824.884
 243  8789.346
 244  9859.271
 245  9789.377
 246  9115.839
 247  9024.619
 248  9432.611
 249  10764.94
 250  10103.01
 251  9193.917
 252  8365.605
 253  9272.99
 254  10073.88
 255  9631.861
