# Input file       =  1184386621.103557_cleaned.dat
# Candidate        =  PSR_0332+5434
# Telescope        =  AR
# Epoch_topo       =  57952.178704902282
# Epoch_bary       =  N/A
# T_sample         =  0.002
# Data Folded      =  7340032
# Data Avg         =  0.147547092245077
# Data StdDev      =  3.85461140891382 
# Profile Bins     =  1024
# Profile Avg      =  1054.30688219131 
# Profile StdDev   =  326.346982040905 
# Reduced chi-sqr  =  1.030
# Prob(Noise)      <  0.244   (~0.7 sigma)
# P_topo (ms)      =  714.476866409967  +/- 0.000395
# P'_topo (s/s)    =  -0                +/- 2.09e-10
# P''_topo (s/s^2) =  0                 +/- 9.21e-14
# P_bary (ms)      =  N/A
# P'_bary (s/s)    =  N/A
# P''_bary (s/s^2) =  N/A
# P_orb (s)        =  N/A
# asin(i)/c (s)    =  N/A
# eccentricity     =  N/A
# w (rad)          =  N/A
# T_peri           =  N/A
######################################################
   0  932.4406
   1  931.1319
   2  989.6678
   3  967.9366
   4  951.4793
   5  1019.962
   6  1079.218
   7  1071.132
   8  1022.986
   9  990.3604
  10  1011.132
  11  1168.813
  12  1323.577
  13  1333.078
  14  1352.66
  15  1284.12
  16  1299.557
  17  1162.35
  18  1160.598
  19  1152.59
  20  1099.819
  21  1132.995
  22  1157.904
  23  1162.75
  24  1050.785
  25  1006.599
  26  1013.291
  27  1165.762
  28  1212.261
  29  1211.877
  30  1151.531
  31  1086.615
  32  1104.531
  33  1092.224
  34  974.8495
  35  863.3952
  36  871.0527
  37  977.0312
  38  924.7449
  39  797.3598
  40  761.6455
  41  832.8167
  42  866.414
  43  880.7673
  44  815.5729
  45  858.6875
  46  872.14
  47  883.7855
  48  926.3638
  49  963.723
  50  1003.493
  51  975.2973
  52  901.8035
  53  878.5122
  54  900.0652
  55  981.2129
  56  1052.019
  57  941.6323
  58  754.8851
  59  700.256
  60  806.1956
  61  884.9949
  62  823.0339
  63  768.5977
  64  912.5652
  65  1007.15
  66  1014.442
  67  916.0997
  68  924.6469
  69  962.2557
  70  1040.904
  71  1018.408
  72  1072.54
  73  1060.147
  74  1011.351
  75  993.8644
  76  918.8314
  77  823.2462
  78  855.7361
  79  1076.044
  80  1249.844
  81  1235.715
  82  1182.588
  83  1170.484
  84  1116.503
  85  1010.241
  86  915.2427
  87  877.8106
  88  899.3802
  89  939.9653
  90  1029.834
  91  1086.405
  92  1238.917
  93  1122.761
  94  1102.057
  95  1097.739
  96  1154.728
  97  1173.417
  98  1215.255
  99  1251.107
 100  1161.708
 101  1143.982
 102  1117.653
 103  1122.749
 104  1156.212
 105  1141.061
 106  1085.103
 107  1071.191
 108  1080.964
 109  1058.674
 110  1099.276
 111  1154.832
 112  1245.163
 113  1199.27
 114  1143.968
 115  1179.627
 116  1166.363
 117  1126.304
 118  1156.484
 119  1195.679
 120  1202.746
 121  1057.115
 122  1024.296
 123  981.9863
 124  1063.43
 125  1052.118
 126  1039.968
 127  956.3074
 128  984.4075
 129  962.6503
 130  999.8284
 131  1077.187
 132  1092.457
 133  1069.756
 134  1033.508
 135  1033.123
 136  1103.213
 137  1146.101
 138  1187.603
 139  1079.024
 140  1118.74
 141  1080.123
 142  1049.849
 143  1012.795
 144  1028.79
 145  1060.956
 146  1101.869
 147  1105.935
 148  1201.591
 149  1231.079
 150  1176.876
 151  1166.625
 152  1197.197
 153  1226.77
 154  1178.523
 155  1213.494
 156  1257.997
 157  1295.414
 158  1161.433
 159  1074.514
 160  966.9878
 161  1048.715
 162  1126.807
 163  1204.889
 164  1240.238
 165  1189.793
 166  1171.592
 167  1185.81
 168  1197.955
 169  1133.349
 170  1145.191
 171  1187.588
 172  1204.947
 173  1183.41
 174  1179.458
 175  1199.146
 176  1161.432
 177  1072.436
 178  997.7962
 179  1073.918
 180  1140.688
 181  1194.121
 182  1142.324
 183  1160.223
 184  1128.629
 185  1120.854
 186  1061.203
 187  1073.622
 188  1023.824
 189  1082.064
 190  1093.189
 191  1197.528
 192  1205.604
 193  1250.597
 194  1234.401
 195  1332.154
 196  1387.11
 197  1315.222
 198  1249.991
 199  1209.264
 200  1254.941
 201  1167.896
 202  1110.978
 203  1058.566
 204  1234.108
 205  1316.551
 206  1310.871
 207  1199.223
 208  1209.462
 209  1207.23
 210  1164.505
 211  1141.562
 212  1181.149
 213  1102.333
 214  985.1744
 215  908.7877
 216  789.8432
 217  756.6032
 218  847.4208
 219  947.0458
 220  1024.3
 221  1028.273
 222  1020.321
 223  1077.219
 224  1164.209
 225  1133.234
 226  1172.791
 227  1117.425
 228  1128.979
 229  1010.404
 230  1014.47
 231  1059.324
 232  1084.237
 233  1049.613
 234  1028.366
 235  1043.117
 236  1015.687
 237  1118.547
 238  1154.814
 239  1171.977
 240  1111.217
 241  1092.517
 242  1131.247
 243  1207.256
 244  1252.785
 245  1231.569
 246  1143.82
 247  1228.929
 248  1312.959
 249  1442.058
 250  1408.759
 251  1428.331
 252  1334.018
 253  1298.126
 254  1258.834
 255  1265.704
 256  1212.411
 257  1184.855
 258  1145.991
 259  1124.82
 260  1078.32
 261  1123.487
 262  1056.276
 263  990.7392
 264  945.3322
 265  1076.547
 266  1165.455
 267  1226.508
 268  1160.068
 269  1040.233
 270  976.2337
 271  960.6924
 272  979.621
 273  939.5452
 274  960.8077
 275  902.511
 276  939.7551
 277  929.6795
 278  989.9723
 279  1034.041
 280  1061.292
 281  1060.802
 282  1009.901
 283  1011.725
 284  1007.886
 285  1027.427
 286  1080.014
 287  1051.687
 288  1081.512
 289  1049.799
 290  1159.088
 291  1197.934
 292  1229.122
 293  1202.981
 294  1216.477
 295  1131.635
 296  1002.774
 297  989.6782
 298  999.5388
 299  1019.679
 300  1003.306
 301  984.7526
 302  1124.356
 303  1080.143
 304  943.8832
 305  821.014
 306  842.2722
 307  949.327
 308  961.0672
 309  1001.323
 310  1076.086
 311  1078.532
 312  993.1097
 313  941.6502
 314  897.0223
 315  951.3518
 316  935.3876
 317  949.7939
 318  835.5505
 319  804.1231
 320  944.7289
 321  1040.781
 322  1063.944
 323  1029.46
 324  1047.098
 325  1058.164
 326  977.9554
 327  1008.472
 328  1135.903
 329  1059.087
 330  1010.555
 331  847.3605
 332  840.2972
 333  810.83
 334  776.3214
 335  843.3294
 336  847.0385
 337  908.4519
 338  879.8086
 339  864.3131
 340  770.0218
 341  844.4904
 342  830.6234
 343  865.2947
 344  849.2604
 345  939.4061
 346  1054.187
 347  1021.91
 348  955.7644
 349  926.363
 350  983.0411
 351  963.0877
 352  884.0333
 353  778.7997
 354  839.3209
 355  904.3235
 356  977.9478
 357  1010.461
 358  1036.501
 359  996.8585
 360  926.3286
 361  927.6907
 362  1029.25
 363  1105.528
 364  1087.177
 365  1030.674
 366  940.9363
 367  894.3488
 368  926.4796
 369  1000.139
 370  1038.838
 371  1122.058
 372  1063.688
 373  1078.185
 374  1056.19
 375  1055.864
 376  998.6999
 377  953.0478
 378  1029.713
 379  985.6332
 380  960.8854
 381  978.5615
 382  1045.443
 383  1102.269
 384  1118.145
 385  1137.973
 386  1113.531
 387  1185.548
 388  1132.841
 389  1137.843
 390  1137.075
 391  1162.518
 392  1157.444
 393  1196.24
 394  1157.365
 395  1149.061
 396  1150.191
 397  1164.286
 398  1172.135
 399  1152.474
 400  1172.206
 401  1156.498
 402  1118.446
 403  1151.397
 404  1134.562
 405  1242.682
 406  1266.802
 407  1328.269
 408  1327.589
 409  1326.728
 410  1278.818
 411  1296.299
 412  1247.203
 413  1265.518
 414  1222.441
 415  1163.165
 416  1148.351
 417  1196.926
 418  1275.669
 419  1327.614
 420  1256.295
 421  1159.452
 422  1095.242
 423  1150.339
 424  1186.456
 425  1264.531
 426  1214.25
 427  1220.352
 428  1250.875
 429  1344.524
 430  1279.365
 431  1103.602
 432  1151.951
 433  1136.305
 434  1217.334
 435  1180.733
 436  1273.12
 437  1250.541
 438  1304.844
 439  1300.959
 440  1235.063
 441  1238.219
 442  1151.838
 443  1248.713
 444  1217.853
 445  1267.787
 446  1220.073
 447  1240.678
 448  1268.212
 449  1311.306
 450  1233.897
 451  1165.83
 452  1201.515
 453  1222.594
 454  1202.504
 455  1116.539
 456  1178.44
 457  1204.201
 458  1312.579
 459  1279.393
 460  1277.452
 461  1206.279
 462  1233.321
 463  1150.521
 464  1181.25
 465  1223.868
 466  1300.196
 467  1313.123
 468  1272.364
 469  1311.141
 470  1268.948
 471  1187.358
 472  1054.361
 473  999.0787
 474  959.8603
 475  927.7417
 476  961.6989
 477  936.0824
 478  831.6487
 479  801.1183
 480  847.3293
 481  812.044
 482  743.1753
 483  744.3535
 484  864.7305
 485  904.0928
 486  920.439
 487  905.9539
 488  867.9477
 489  816.2225
 490  819.4139
 491  880.6722
 492  995.062
 493  1133.902
 494  1229.011
 495  1229.393
 496  1164.435
 497  1117.01
 498  1066.91
 499  1108.256
 500  1155.24
 501  1224.338
 502  1255.293
 503  1257.263
 504  1295.264
 505  1195.457
 506  1176.583
 507  1128.007
 508  1127.517
 509  1124.883
 510  1170.341
 511  1238.404
 512  1229.794
 513  1140.744
 514  1147.272
 515  1207.508
 516  1228.76
 517  1135.08
 518  1115.881
 519  1253.208
 520  1215.055
 521  1084.842
 522  963.4893
 523  1014.284
 524  1194.222
 525  1345.125
 526  1263.715
 527  1121.182
 528  1071.701
 529  1118.779
 530  1242.07
 531  1270.349
 532  1276.6
 533  1195.153
 534  1096.61
 535  1052.562
 536  1030.903
 537  1128.221
 538  1086.714
 539  1071.762
 540  1054.462
 541  1057.607
 542  1120.142
 543  1146.093
 544  1208.803
 545  1098.918
 546  1049.227
 547  1046.175
 548  1120.953
 549  1101.764
 550  1169.215
 551  1265.691
 552  1361.86
 553  1279.905
 554  1262.589
 555  1182.668
 556  1195.9
 557  1113.323
 558  1156.318
 559  1111.642
 560  1074.946
 561  1081.95
 562  1156.252
 563  1166.327
 564  1074.502
 565  1133.237
 566  1134.903
 567  1144.838
 568  1145.901
 569  1147.389
 570  1173.805
 571  1122.902
 572  1189.995
 573  1216.063
 574  1159.221
 575  1134.404
 576  1039.075
 577  1048.588
 578  1086.43
 579  1096.371
 580  1079.694
 581  1049.175
 582  1018.035
 583  974.6801
 584  974.7715
 585  1037.782
 586  1173.584
 587  1243.729
 588  1256.1
 589  1192.782
 590  1233.988
 591  1266.318
 592  1242.479
 593  1222.218
 594  1248.977
 595  1352.783
 596  1280.138
 597  1199.799
 598  1141.22
 599  1210.94
 600  1135.414
 601  1122.37
 602  1243.967
 603  1385.79
 604  1309.636
 605  1324.032
 606  1300.458
 607  1252.074
 608  1138.191
 609  1155.22
 610  1255.17
 611  1389.589
 612  1410.263
 613  1439.153
 614  1503.784
 615  1625.536
 616  1646.966
 617  1537.437
 618  1446.863
 619  1367.64
 620  1411.986
 621  1446.065
 622  1527.635
 623  1528.082
 624  1372.045
 625  1286.395
 626  1319.652
 627  1420.733
 628  1462.22
 629  1353.369
 630  1318.912
 631  1334.582
 632  1241.427
 633  1210.61
 634  1148.14
 635  1255.203
 636  1331.649
 637  1328.252
 638  1227.556
 639  1150.647
 640  1088.781
 641  1167.672
 642  1176.607
 643  1269.517
 644  1239.545
 645  1298.164
 646  1425.571
 647  1657.926
 648  1820.201
 649  1948.679
 650  2043.579
 651  2136.825
 652  2093.885
 653  1986.61
 654  1814.05
 655  1691.262
 656  1559.931
 657  1438.279
 658  1419.045
 659  1250.885
 660  1087.705
 661  982.5688
 662  871.6351
 663  855.017
 664  793.3289
 665  745.1671
 666  737.5268
 667  758.47
 668  764.142
 669  694.2367
 670  727.9802
 671  741.9766
 672  778.9604
 673  792.5815
 674  860.2014
 675  877.504
 676  942.6812
 677  974.3134
 678  1044.011
 679  1011.517
 680  1028.604
 681  1049.421
 682  1051.404
 683  974.0893
 684  887.1896
 685  921.5974
 686  952.7555
 687  882.383
 688  821.3666
 689  805.3145
 690  881.6273
 691  940.6826
 692  971.9027
 693  958.721
 694  988.2172
 695  908.6078
 696  895.7629
 697  859.0135
 698  969.2595
 699  1000.712
 700  1009.837
 701  925.6458
 702  806.9088
 703  866.1262
 704  909.2535
 705  840.8612
 706  825.5866
 707  846.3588
 708  923.9695
 709  903.6099
 710  925.3162
 711  923.7407
 712  814.9725
 713  813.6076
 714  723.7554
 715  687.8042
 716  751.5683
 717  834.8857
 718  907.0784
 719  874.5414
 720  926.3399
 721  1053.351
 722  1025.521
 723  1067.713
 724  1005.94
 725  1056.958
 726  1055.599
 727  985.7082
 728  929.6928
 729  912.6891
 730  950.1705
 731  911.927
 732  837.2603
 733  811.8915
 734  950.2336
 735  1032.578
 736  1036.557
 737  994.5019
 738  986.5706
 739  1044.031
 740  1080.838
 741  1083.097
 742  1069.05
 743  1035.266
 744  1094.958
 745  1189.907
 746  1212.72
 747  1108.178
 748  915.6005
 749  872.7759
 750  925.4924
 751  939.8091
 752  960.3406
 753  1008.04
 754  1125.729
 755  1135.567
 756  1149.042
 757  1030.161
 758  991.5349
 759  947.9186
 760  961.2212
 761  992.642
 762  1048.839
 763  1038.839
 764  1088.537
 765  973.7152
 766  919.4282
 767  826.3024
 768  797.1089
 769  833.7684
 770  1013.299
 771  1099.807
 772  1037.03
 773  1012.519
 774  1049.546
 775  985.0212
 776  873.7432
 777  858.2622
 778  893.4091
 779  1011.722
 780  945.533
 781  989.6876
 782  921.8069
 783  962.3738
 784  830.5612
 785  771.4356
 786  843.7046
 787  905.1756
 788  909.1168
 789  848.7898
 790  818.2989
 791  847.3698
 792  888.5612
 793  938.9011
 794  1001.528
 795  926.0651
 796  960.1642
 797  1020.548
 798  1052.473
 799  981.2219
 800  813.9667
 801  787.9485
 802  825.3151
 803  920.5558
 804  990.2119
 805  934.4011
 806  913.2562
 807  851.5226
 808  839.9866
 809  866.6713
 810  920.4857
 811  918.4463
 812  947.937
 813  906.611
 814  1001.134
 815  918.561
 816  955.799
 817  1005.324
 818  1133.223
 819  1041.879
 820  983.7788
 821  999.2767
 822  1044.278
 823  1024.045
 824  880.4719
 825  825.0232
 826  862.075
 827  925.6298
 828  870.5928
 829  885.0425
 830  1008.923
 831  1003.447
 832  955.4612
 833  864.9308
 834  972.5499
 835  923.6476
 836  902.1447
 837  851.2574
 838  769.9164
 839  715.6911
 840  644.3866
 841  676.161
 842  728.5925
 843  830.5671
 844  874.5565
 845  766.682
 846  710.3745
 847  707.7125
 848  723.6235
 849  660.2737
 850  561.0857
 851  634.696
 852  609.7383
 853  553.416
 854  600.0542
 855  738.0211
 856  795.1355
 857  893.6877
 858  893.9302
 859  959.215
 860  822.8334
 861  785.0987
 862  709.5804
 863  680.2755
 864  754.4287
 865  760.0732
 866  831.683
 867  780.081
 868  860.3278
 869  903.7535
 870  978.5665
 871  944.6728
 872  896.4347
 873  953.9701
 874  947.5115
 875  883.3828
 876  847.098
 877  899.3495
 878  933.6637
 879  935.6284
 880  903.8232
 881  876.2729
 882  916.2754
 883  846.0945
 884  835.4662
 885  819.6865
 886  896.588
 887  911.3374
 888  873.6096
 889  870.1839
 890  849.9767
 891  813.7396
 892  794.044
 893  901.1546
 894  970.7618
 895  902.0991
 896  844.9673
 897  793.3839
 898  816.3048
 899  844.3041
 900  954.181
 901  968.407
 902  925.0465
 903  841.6151
 904  824.9736
 905  828.6695
 906  865.7139
 907  847.2454
 908  806.2371
 909  824.3422
 910  845.2061
 911  865.0953
 912  857.6606
 913  906.2489
 914  997.1503
 915  971.6274
 916  961.2371
 917  962.7915
 918  908.5137
 919  874.8734
 920  920.8652
 921  1071.173
 922  1116.838
 923  1084.218
 924  985.5853
 925  1014.516
 926  1086.643
 927  1141.053
 928  1024.395
 929  924.2432
 930  991.3222
 931  1095.065
 932  1132.259
 933  1104.152
 934  1019.027
 935  1010.491
 936  913.3365
 937  867.9807
 938  912.0449
 939  1121.802
 940  1171.332
 941  1161.179
 942  1046.296
 943  971.0812
 944  1046.128
 945  1043.657
 946  1172.852
 947  1176.814
 948  1125.251
 949  1046.505
 950  1077.077
 951  1081.184
 952  1056.258
 953  993.7822
 954  1025.532
 955  1098.306
 956  1112.167
 957  1148.047
 958  1194.258
 959  1157.418
 960  1133.897
 961  1113.158
 962  1260.641
 963  1357.572
 964  1275.383
 965  1129.908
 966  1099.921
 967  1119.66
 968  1036.797
 969  864.4887
 970  783.0835
 971  892.4729
 972  980.9822
 973  898.0598
 974  884.5833
 975  870.7772
 976  871.2242
 977  856.5988
 978  860.1854
 979  899.8036
 980  845.0306
 981  843.3474
 982  859.7329
 983  824.0405
 984  823.3416
 985  871.2488
 986  865.0886
 987  825.9956
 988  687.9808
 989  719.7302
 990  694.8983
 991  793.481
 992  895.2062
 993  1006.137
 994  1125.643
 995  1028.069
 996  966.2759
 997  935.1702
 998  1056.262
 999  1058.515
1000  1007.218
1001  1020.893
1002  1015.152
1003  957.0184
1004  886.0889
1005  915.4822
1006  973.6072
1007  1041.352
1008  995.694
1009  909.0635
1010  928.0944
1011  957.942
1012  1056.946
1013  1099.696
1014  1050.734
1015  941.0206
1016  1007.64
1017  1056.929
1018  1037.754
1019  920.5576
1020  887.216
1021  942.7495
1022  1035.806
1023  982.2817
