# Input file       =  1184645147.110282_cleaned.dat
# Candidate        =  PSR_0332+5434
# Telescope        =  AR
# Epoch_topo       =  57955.170904054190
# Epoch_bary       =  N/A
# T_sample         =  0.002
# Data Folded      =  7340032
# Data Avg         =  0.101534656197016
# Data StdDev      =  3.10779701278928 
# Profile Bins     =  512
# Profile Avg      =  1454.33230055965 
# Profile StdDev   =  372.105972783904 
# Reduced chi-sqr  =  1.848
# Prob(Noise)      <  3.36e-28   (~10.9 sigma)
# P_topo (ms)      =  714.475040223508  +/- 0.000454
# P'_topo (s/s)    =  -0                +/- 2.4e-10
# P''_topo (s/s^2) =  0                 +/- 1.06e-13
# P_bary (ms)      =  N/A
# P'_bary (s/s)    =  N/A
# P''_bary (s/s^2) =  N/A
# P_orb (s)        =  N/A
# asin(i)/c (s)    =  N/A
# eccentricity     =  N/A
# w (rad)          =  N/A
# T_peri           =  N/A
######################################################
   0  1678.914
   1  1555.055
   2  1432.097
   3  1242.815
   4  1123.18
   5  1297.056
   6  1406.442
   7  1225.839
   8  1248.692
   9  1826.444
  10  1698.911
  11  1628.687
  12  1584.016
  13  1512.282
  14  1315.819
  15  1298.92
  16  1549.93
  17  1599.778
  18  1507.167
  19  1130.517
  20  1367.392
  21  1525.658
  22  1373.032
  23  1105.747
  24  1351.087
  25  1247.485
  26  1358.386
  27  1518.298
  28  1656.188
  29  1403.837
  30  1401.875
  31  1365.954
  32  1612.169
  33  1651.228
  34  1903.397
  35  1794.799
  36  1760.728
  37  1867.178
  38  1687.089
  39  1869.97
  40  1824.047
  41  1777.545
  42  1698.354
  43  1664.196
  44  1219.642
  45  1244.032
  46  1347.045
  47  1542.24
  48  1339.396
  49  1136.262
  50  1061.195
  51  1621.145
  52  1810.154
  53  1401.119
  54  1439.183
  55  1466.762
  56  1572.028
  57  1492.978
  58  1552.101
  59  1691.613
  60  1470.578
  61  1440.952
  62  1544.441
  63  1857.076
  64  1786.925
  65  1835.053
  66  1963.863
  67  1451.949
  68  1521.116
  69  1388.412
  70  1534.489
  71  1328.867
  72  1237.586
  73  1364.184
  74  1470.033
  75  1527.287
  76  1328.346
  77  1007.741
  78  834.7069
  79  1145.024
  80  1379.493
  81  1181.647
  82  1167.933
  83  1388.872
  84  945.2365
  85  956.6485
  86  1205.29
  87  1187.651
  88  1097.392
  89  1123.234
  90  1334.452
  91  1293.003
  92  1475.734
  93  1607.702
  94  1628.491
  95  1444.29
  96  1285.157
  97  1624.338
  98  1393.623
  99  1507.618
 100  1558.1
 101  1464.441
 102  1340.043
 103  1355.5
 104  1624.485
 105  1546.174
 106  1710.211
 107  1677.405
 108  1533.344
 109  1504.253
 110  1432.614
 111  1531.167
 112  1347.933
 113  1421.952
 114  1287.405
 115  1312.112
 116  1286.074
 117  1433.789
 118  1531.083
 119  1581.599
 120  1908.661
 121  1871.485
 122  1539.104
 123  1391.751
 124  1501.825
 125  1494.498
 126  1233.824
 127  1439.672
 128  1418.354
 129  1272.076
 130  1198.782
 131  1337.919
 132  1683.02
 133  1449.567
 134  1407.72
 135  1223.657
 136  1403.329
 137  1673.092
 138  1848.748
 139  1588.694
 140  1492.915
 141  1463.007
 142  1169.492
 143  1222.839
 144  1295.227
 145  1539.008
 146  1502.892
 147  1278.43
 148  1307.526
 149  1434.564
 150  1352.403
 151  1299.407
 152  1258.532
 153  1389.924
 154  1400.957
 155  1479.306
 156  1434.971
 157  1185.698
 158  1242.324
 159  1277.978
 160  1134.264
 161  1280.713
 162  1029.014
 163  1213.132
 164  1067.706
 165  1060.546
 166  1208.907
 167  983.1071
 168  1249.508
 169  1260.105
 170  1013.266
 171  1141.236
 172  1096.125
 173  1223.604
 174  1293.383
 175  1217.253
 176  1497.204
 177  1314.687
 178  1391.434
 179  1380.271
 180  1099.944
 181  1274.09
 182  1132.875
 183  1022.065
 184  1013.486
 185  1035.369
 186  1075.854
 187  1129.392
 188  1047.051
 189  957.9635
 190  939.2249
 191  1055.242
 192  989.3038
 193  920.5505
 194  827.7221
 195  967.1884
 196  1241.785
 197  1274.376
 198  1267.701
 199  1239.775
 200  1153.19
 201  1374.941
 202  1549.399
 203  1220.591
 204  1177.693
 205  1228.46
 206  937.4629
 207  1011.508
 208  1364.865
 209  1556.981
 210  1478.054
 211  1525.59
 212  1361.567
 213  944.0625
 214  1079.995
 215  1150.14
 216  1022.942
 217  1017.735
 218  1098.205
 219  1172.745
 220  1369.015
 221  1011.92
 222  999.941
 223  1089.759
 224  845.1546
 225  946.3572
 226  1053.779
 227  1013.587
 228  1199.656
 229  1065.922
 230  1118.093
 231  1253.576
 232  1351.695
 233  1388.113
 234  1328.162
 235  1308.183
 236  1387.895
 237  1345.134
 238  1363.878
 239  1465.4
 240  1704.03
 241  1557.603
 242  1300.092
 243  1137.012
 244  1196.215
 245  1464.46
 246  1300.472
 247  1240.708
 248  1268.861
 249  1434.293
 250  1328.043
 251  1216.894
 252  1093.147
 253  1432.673
 254  1425.661
 255  1035.731
 256  816.1473
 257  1222.43
 258  1395.009
 259  1402.922
 260  1256.835
 261  1333.986
 262  1447.566
 263  1546.409
 264  1225.141
 265  1184.942
 266  1116.652
 267  1263.811
 268  1280.674
 269  1403.971
 270  1270.726
 271  1391.444
 272  1755.493
 273  1559.32
 274  1484.452
 275  1449.812
 276  1553.926
 277  1570.854
 278  1496.151
 279  1689.024
 280  1723.703
 281  1523.339
 282  1322.2
 283  1301.893
 284  1324.599
 285  1455.377
 286  1195.099
 287  1063.139
 288  1198.62
 289  1470.839
 290  1613.43
 291  1635.235
 292  1686.041
 293  1255.266
 294  1406.45
 295  1624.45
 296  1743.086
 297  1800.801
 298  1729.356
 299  1347.497
 300  1638.456
 301  1829.4
 302  1791.99
 303  1676.25
 304  1784.991
 305  1912.533
 306  1934.37
 307  2057.012
 308  1788.315
 309  1680.355
 310  1670.899
 311  1640.61
 312  1954.676
 313  2001.379
 314  1918.68
 315  1856.863
 316  1733.236
 317  1614.405
 318  1918.98
 319  2267.682
 320  2034.542
 321  2445.8
 322  2417.912
 323  2652.308
 324  3222.934
 325  3999.974
 326  4316.368
 327  4010.329
 328  3222.558
 329  2409.708
 330  2281.755
 331  2102.365
 332  2065.303
 333  1954.405
 334  1812.455
 335  1857.747
 336  2273.44
 337  2347.92
 338  2137.624
 339  1964.338
 340  1823.016
 341  1911.173
 342  2015.883
 343  1892.633
 344  1902.396
 345  2044.444
 346  1826.239
 347  1625.063
 348  1551.811
 349  1315.398
 350  1404.511
 351  1520.231
 352  1501.89
 353  1412.076
 354  1754.274
 355  1872.239
 356  1808.765
 357  1694.633
 358  1954.656
 359  1659.468
 360  1448.043
 361  1466.814
 362  1454.724
 363  1286.353
 364  1071.843
 365  993.1028
 366  1373.413
 367  1479.417
 368  1465.297
 369  1442.174
 370  1438.764
 371  1413.809
 372  1359.599
 373  1672.124
 374  1444.935
 375  1640.37
 376  1564.6
 377  1367.932
 378  1499.933
 379  1473.899
 380  1519.911
 381  1471.21
 382  1391.552
 383  1574.44
 384  1719.392
 385  1891.615
 386  1655.121
 387  1465.851
 388  1496.016
 389  1518.744
 390  1485.505
 391  1502.379
 392  1660.306
 393  1740.277
 394  1548.896
 395  1748.834
 396  1492.694
 397  1520.137
 398  1792.138
 399  1620.14
 400  1455.794
 401  1248.879
 402  1547.063
 403  1553.187
 404  1698.851
 405  1561.33
 406  1546.689
 407  1382.103
 408  1340.406
 409  1232.638
 410  1321.812
 411  1237.247
 412  1238.524
 413  1011.532
 414  1040.378
 415  1106.156
 416  1119.433
 417  1489.344
 418  1430.349
 419  1448.526
 420  1539.381
 421  1442.583
 422  1263.259
 423  1196.166
 424  1352.545
 425  1329.638
 426  1434.285
 427  1361.048
 428  1359.3
 429  1110.931
 430  898.6993
 431  998.4634
 432  927.1874
 433  1023.531
 434  1297.447
 435  1445.349
 436  1047.994
 437  829.046
 438  690.1974
 439  775.6389
 440  788.1187
 441  1251.877
 442  1376.841
 443  1297.131
 444  957.6802
 445  793.6896
 446  1184.823
 447  1089.679
 448  1211.716
 449  1382.398
 450  1440.361
 451  1641.577
 452  1672.252
 453  1565.264
 454  1480.01
 455  1535.906
 456  1551.31
 457  1379.758
 458  1496.668
 459  1556.808
 460  1416.358
 461  1307.323
 462  1343.472
 463  1241.707
 464  1072.325
 465  1429.726
 466  1367.612
 467  1139.624
 468  1175.948
 469  1156.675
 470  1292.063
 471  1492.157
 472  1463.77
 473  1647.963
 474  1728.838
 475  1625.826
 476  1277.548
 477  1242.397
 478  1407.845
 479  1574.13
 480  1362.662
 481  1621.998
 482  1566.994
 483  1585.724
 484  1619.242
 485  1445.955
 486  1362.631
 487  1174.908
 488  1313.772
 489  1264.882
 490  1193.776
 491  1012.67
 492  1197.115
 493  1542.964
 494  1517.928
 495  1363.763
 496  1816.888
 497  1580.808
 498  1601.928
 499  1583.149
 500  1705.246
 501  1719.307
 502  1664.066
 503  1559.438
 504  1543.916
 505  1285.301
 506  1757.303
 507  1753.332
 508  1712.015
 509  1811.94
 510  1642.941
 511  1663.32
