# Input file       =  1184660059.09953_cleaned.dat
# Candidate        =  PSR_0332+5434
# Telescope        =  AR
# Epoch_topo       =  57955.343496522335
# Epoch_bary       =  N/A
# T_sample         =  0.002
# Data Folded      =  7340032
# Data Avg         =  0.345237227597473
# Data StdDev      =  6.11491337415678 
# Profile Bins     =  512
# Profile Avg      =  4949.32826702326 
# Profile StdDev   =  732.157145468688 
# Reduced chi-sqr  =  1.039
# Prob(Noise)      <  0.264   (~0.6 sigma)
# P_topo (ms)      =  714.475273207844  +/- 0.000997
# P'_topo (s/s)    =  -0                +/- 5.26e-10
# P''_topo (s/s^2) =  0                 +/- 2.32e-13
# P_bary (ms)      =  N/A
# P'_bary (s/s)    =  N/A
# P''_bary (s/s^2) =  N/A
# P_orb (s)        =  N/A
# asin(i)/c (s)    =  N/A
# eccentricity     =  N/A
# w (rad)          =  N/A
# T_peri           =  N/A
######################################################
   0  5536.941
   1  5536.657
   2  5446.046
   3  5473.765
   4  5754.865
   5  5263.23
   6  4970.141
   7  5323.962
   8  5318.589
   9  5375.579
  10  5420.542
  11  5574.866
  12  5192.419
  13  5095.823
  14  4973.676
  15  4981.783
  16  5361.604
  17  5414.095
  18  5231.304
  19  5608.861
  20  5713.734
  21  5898.4
  22  5606.976
  23  5166.991
  24  5369.773
  25  5428.935
  26  5047.028
  27  5095.113
  28  5268.261
  29  5101.537
  30  5352.526
  31  5142.524
  32  5001.397
  33  4958.102
  34  4767.518
  35  5284.173
  36  5208.244
  37  5207.636
  38  4986.753
  39  4734.775
  40  4594.292
  41  4753.406
  42  4769.438
  43  4779.49
  44  4908.496
  45  4831.506
  46  4522.826
  47  4593.833
  48  4523.73
  49  4380.756
  50  4810.271
  51  4757.316
  52  4333.781
  53  4611.56
  54  4494.261
  55  4724.714
  56  4725.073
  57  4873.399
  58  4662.456
  59  4581.101
  60  4807.57
  61  5146.061
  62  5051.972
  63  4538.686
  64  4444.989
  65  4106.048
  66  4517.474
  67  4921.199
  68  5461.497
  69  5363.126
  70  5202.919
  71  5180.578
  72  4995.167
  73  4745.308
  74  4743.718
  75  4773.729
  76  4574.138
  77  4797.056
  78  4715.121
  79  4278.543
  80  4458.738
  81  4419.013
  82  4655.168
  83  4563.04
  84  4369.751
  85  3868.062
  86  3953.047
  87  4296.98
  88  4334.778
  89  4307.305
  90  4704.995
  91  4610.608
  92  4083.561
  93  4116.667
  94  4743.684
  95  5026.031
  96  5171.361
  97  4736.216
  98  4326.504
  99  4375.705
 100  4573.419
 101  4755.283
 102  4901.869
 103  4871.199
 104  4670.49
 105  4819.657
 106  4511.309
 107  4413.606
 108  4493.031
 109  4708.363
 110  4545.308
 111  4411.216
 112  4908.167
 113  4670.615
 114  4573.354
 115  4650.376
 116  4280.691
 117  4215.333
 118  4190.223
 119  4257.235
 120  4275.921
 121  4406.501
 122  4199.72
 123  4486.189
 124  4526.771
 125  4812.994
 126  4822.303
 127  4460.618
 128  4768.531
 129  4933.715
 130  5371.602
 131  5495.234
 132  5158.6
 133  5245.197
 134  5079.937
 135  5155.972
 136  5162.694
 137  5191.516
 138  5276.317
 139  4835.274
 140  5028.567
 141  5066.582
 142  4957.355
 143  4952.493
 144  4898.524
 145  5183.594
 146  5204.726
 147  4631.151
 148  4384.709
 149  4398.922
 150  4361.537
 151  4648.362
 152  4767.524
 153  4876.324
 154  4437.509
 155  4231.925
 156  4163.365
 157  4203.012
 158  4449.386
 159  4707.724
 160  4644.986
 161  4369.337
 162  4520.512
 163  4707.541
 164  4662.089
 165  4998.448
 166  4686.104
 167  4596.538
 168  4176.146
 169  4407.798
 170  4240.617
 171  4431.823
 172  3835.86
 173  3648.586
 174  3691.905
 175  3595.568
 176  3934.272
 177  3953.229
 178  4002.862
 179  3694.924
 180  4058.487
 181  3696.498
 182  3860.343
 183  3962.007
 184  3731.438
 185  3798.495
 186  3701.127
 187  3940.359
 188  3916.516
 189  4167.89
 190  4446.833
 191  4381.939
 192  4295.901
 193  4675.321
 194  4647.5
 195  4735.139
 196  4448.71
 197  4427.064
 198  4708.547
 199  4705.104
 200  4624.017
 201  4512.649
 202  4300.347
 203  4197.456
 204  4634.179
 205  4356.272
 206  4155.767
 207  4003.702
 208  4038.001
 209  4307.947
 210  4488.914
 211  4252.884
 212  4165.982
 213  3980.456
 214  4286.376
 215  3952.248
 216  4032.323
 217  3838.442
 218  4090.722
 219  4199.122
 220  3919.283
 221  3982.411
 222  4131.794
 223  4140.94
 224  4156.967
 225  4010.469
 226  4120.609
 227  4400.981
 228  4650.495
 229  4659.301
 230  4683.153
 231  4728.721
 232  5032.556
 233  5202.027
 234  5174.506
 235  5060.517
 236  4892.293
 237  5030.423
 238  5372.56
 239  5455.722
 240  5609.036
 241  5620.807
 242  5354.933
 243  4830.319
 244  4947.705
 245  5403.342
 246  5525.062
 247  5201.525
 248  5281.705
 249  5313.016
 250  5617.878
 251  5410.704
 252  5342.543
 253  5258.519
 254  4974.694
 255  5049.497
 256  4860.394
 257  4892.679
 258  4904.137
 259  4849.552
 260  4880.266
 261  4738.76
 262  5233.522
 263  5357.333
 264  5202.166
 265  4799.52
 266  4903.044
 267  4822.214
 268  5225.335
 269  5288.195
 270  5330.521
 271  5128.277
 272  5059.059
 273  4778.185
 274  5027.589
 275  5234.416
 276  5222.804
 277  5073.174
 278  4789.96
 279  5014.894
 280  4759.449
 281  4884.352
 282  4633.645
 283  4477.7
 284  4653.209
 285  4780.208
 286  4822.25
 287  5069.113
 288  5270.729
 289  5044.171
 290  4621.965
 291  4454.74
 292  4777.781
 293  5233.942
 294  5211.916
 295  4940.458
 296  4644.407
 297  4679.084
 298  4969.738
 299  5309.891
 300  5117.191
 301  4768.454
 302  4710.666
 303  4832.556
 304  4751.541
 305  4617.757
 306  4953.95
 307  4960.542
 308  4885.749
 309  4757.519
 310  4731.411
 311  4631.026
 312  4672.537
 313  4978.248
 314  5225.901
 315  4822.347
 316  5124.486
 317  5017.146
 318  5109.816
 319  4976.922
 320  4632.075
 321  4949.58
 322  5113.923
 323  5423.758
 324  5448.8
 325  5746.696
 326  6134.646
 327  6073.838
 328  5520.805
 329  4879.069
 330  4377.613
 331  4320.619
 332  4307.958
 333  4280.409
 334  4534.609
 335  4916.197
 336  5029.988
 337  5056.697
 338  4716.689
 339  4390.036
 340  4470.348
 341  4760.655
 342  4742.993
 343  4597.161
 344  4530.574
 345  4556.233
 346  4275.893
 347  4212.104
 348  4594.459
 349  4578.147
 350  4481.743
 351  4971.55
 352  5093.134
 353  4868.283
 354  4541.778
 355  4560.762
 356  4761.792
 357  4950.834
 358  4879.625
 359  4579.758
 360  4683.78
 361  4690.906
 362  5301.539
 363  5286.388
 364  5212.344
 365  5069.662
 366  5199.013
 367  5248.122
 368  5174.476
 369  5078.23
 370  4920.865
 371  4977.401
 372  4735.271
 373  4546.651
 374  4455.356
 375  4574.633
 376  4738.926
 377  4795.275
 378  4969.61
 379  4597.29
 380  4420.758
 381  4752.421
 382  4968.93
 383  4768.947
 384  4528.514
 385  4854.686
 386  5066.789
 387  5401.863
 388  5316.396
 389  4979.417
 390  5223.398
 391  4923.729
 392  4591.989
 393  5020.793
 394  5001.369
 395  5169.757
 396  5421.531
 397  5552.54
 398  5347.251
 399  4813.029
 400  5165.272
 401  5447.048
 402  5677.78
 403  5665.283
 404  5670.991
 405  5401.534
 406  5511.095
 407  5541.261
 408  5851.336
 409  5685.607
 410  6108.585
 411  5885.782
 412  5331.417
 413  5202.55
 414  5312.352
 415  5229.621
 416  5176.196
 417  4889.325
 418  4900.502
 419  5113.284
 420  4851.902
 421  4806.848
 422  4732.871
 423  4901.49
 424  4907.434
 425  5113.081
 426  4926.12
 427  4753.79
 428  5191.858
 429  5120.267
 430  5108.378
 431  5327.341
 432  5795.165
 433  5563.633
 434  5333.091
 435  5252.128
 436  5550.22
 437  5666.14
 438  5880.901
 439  5376.616
 440  5237.412
 441  5394.711
 442  5316.157
 443  5416.468
 444  5486.312
 445  5487.761
 446  5469.647
 447  5309.927
 448  5162.666
 449  5309.712
 450  5577.326
 451  5812.696
 452  5828.55
 453  5655.387
 454  5423.014
 455  5678.932
 456  6120.498
 457  6054.46
 458  5773.255
 459  6244.721
 460  6403.638
 461  5908.253
 462  5781.958
 463  5722.378
 464  5855.5
 465  5733.355
 466  5647.737
 467  5811.573
 468  5580.119
 469  5834.782
 470  5714.7
 471  5778.351
 472  5782.647
 473  5635.594
 474  5162.639
 475  4989.674
 476  5144.25
 477  5506.218
 478  5602.595
 479  5542.604
 480  5430.599
 481  5552.646
 482  5334.277
 483  5299.709
 484  5737.921
 485  6128.838
 486  6305.196
 487  6089.404
 488  5905.217
 489  6096.038
 490  6350.277
 491  5981.576
 492  5910.67
 493  6226.561
 494  5991.46
 495  5929.633
 496  5788.738
 497  5728.671
 498  5656.35
 499  5632.412
 500  5804.881
 501  5793.855
 502  5704.79
 503  5644.336
 504  5439.384
 505  5638.754
 506  6134.768
 507  5943.455
 508  5842.652
 509  5848.558
 510  5567.866
 511  5428.341
