# Input file       =  1184199632.104209_cleaned.dat
# Candidate        =  PSR_0332+5434
# Telescope        =  AR
# Epoch_topo       =  57950.014480372789
# Epoch_bary       =  N/A
# T_sample         =  0.002
# Data Folded      =  7143424
# Data Avg         =  0.107129807901192
# Data StdDev      =  4.0931930987707  
# Profile Bins     =  512
# Profile Avg      =  1494.66713343219 
# Profile StdDev   =  483.482174837743 
# Reduced chi-sqr  =  0.819
# Prob(Noise)      <  0.999   (~0.0 sigma)
# P_topo (ms)      =  714.478241653618  +/- 0.000171
# P'_topo (s/s)    =  -0                +/- 9.28e-11
# P''_topo (s/s^2) =  0                 +/- 4.21e-14
# P_bary (ms)      =  N/A
# P'_bary (s/s)    =  N/A
# P''_bary (s/s^2) =  N/A
# P_orb (s)        =  N/A
# asin(i)/c (s)    =  N/A
# eccentricity     =  N/A
# w (rad)          =  N/A
# T_peri           =  N/A
######################################################
   0  1530.407
   1  1449.049
   2  1585.715
   3  1531.275
   4  1421.929
   5  1511.96
   6  1483.843
   7  1723.305
   8  1714.649
   9  1379.059
  10  1333.53
  11  1529.901
  12  1513.874
  13  1314.866
  14  1590.337
  15  1626.555
  16  1563.517
  17  1520.166
  18  1589.16
  19  1532.686
  20  1609.164
  21  1438.37
  22  1886.675
  23  1867.744
  24  1818.849
  25  1624.184
  26  1478.1
  27  1767.817
  28  1347.872
  29  1207.987
  30  1512.732
  31  1573.991
  32  1738.517
  33  1262.401
  34  1113.843
  35  1047.16
  36  1370.274
  37  1482.771
  38  1443.128
  39  1204.073
  40  997.0999
  41  956.1555
  42  783.1861
  43  1057.999
  44  1204.822
  45  1634.078
  46  1580.026
  47  1577.204
  48  1333.618
  49  1137.282
  50  952.4443
  51  780.6498
  52  873.452
  53  1065.272
  54  1638.479
  55  1683.827
  56  1736.51
  57  2059.346
  58  1637.254
  59  1173.311
  60  1109.667
  61  928.3075
  62  1162.943
  63  1135.361
  64  1267.365
  65  1226.125
  66  1215.084
  67  1005.553
  68  1344.053
  69  1454.898
  70  1204.948
  71  1559.498
  72  1778.973
  73  1722.717
  74  1323.133
  75  1297.701
  76  1277.661
  77  1353.928
  78  1772.415
  79  1242.894
  80  1364.711
  81  1597.927
  82  1768.935
  83  1812.509
  84  1750.382
  85  1673.706
  86  1337.518
  87  1559.868
  88  1866.931
  89  2065.403
  90  1858.727
  91  1726.674
  92  1382.128
  93  1590.876
  94  1520.692
  95  1278.146
  96  1292.152
  97  1318.967
  98  1737.141
  99  1692.822
 100  1610.877
 101  1442.236
 102  1470.397
 103  1625.439
 104  1209.198
 105  1373.412
 106  1025.212
 107  882.468
 108  1349.776
 109  1219.875
 110  1435.132
 111  1344.336
 112  1400.585
 113  1368.881
 114  1397.152
 115  1224.666
 116  1211.587
 117  1070.001
 118  963.9847
 119  986.6446
 120  1756.716
 121  1794.011
 122  1760.553
 123  1645.287
 124  1441.655
 125  1163.78
 126  672.2221
 127  950.2924
 128  1486.721
 129  1782.219
 130  1533.773
 131  1056.994
 132  1039.813
 133  1038.128
 134  1307.984
 135  1177.771
 136  1296.2
 137  1179.412
 138  1439.225
 139  1439.984
 140  1418.032
 141  1149.387
 142  1173.664
 143  1144.281
 144  1197.093
 145  1334.702
 146  846.276
 147  1101.33
 148  1340.271
 149  1864.682
 150  1686.813
 151  1665.603
 152  1408.215
 153  1739.212
 154  2070.08
 155  1991.883
 156  2312.836
 157  1876.526
 158  1472.959
 159  1608.65
 160  1675.926
 161  1729.981
 162  1882.311
 163  1606.861
 164  1637.221
 165  2170.229
 166  2306.933
 167  2597.996
 168  3016.785
 169  3097.58
 170  3200.261
 171  3001.598
 172  2985.808
 173  2706.36
 174  2266.208
 175  1994.731
 176  1654.385
 177  1286.009
 178  1121.629
 179  1371.194
 180  1404.478
 181  1445.06
 182  1288.961
 183  1886.839
 184  1711.448
 185  1380.009
 186  1417.396
 187  1624.777
 188  1670.984
 189  1615.343
 190  1066.004
 191  1174.522
 192  1330.949
 193  1426.606
 194  1427.896
 195  1646.474
 196  1526.319
 197  1555.084
 198  1372.762
 199  1320.614
 200  1054.48
 201  1537.94
 202  1413.778
 203  1467.112
 204  1614.386
 205  2064.456
 206  1710.288
 207  1474.649
 208  1480.052
 209  1249.224
 210  1184.198
 211  874.3622
 212  1267.953
 213  1301.017
 214  1384.197
 215  1730.102
 216  1796.479
 217  1345.897
 218  1398.185
 219  1585.117
 220  1461.152
 221  1465.228
 222  1472.86
 223  1684.142
 224  1672.246
 225  1550.869
 226  1337.253
 227  1537.022
 228  1582.659
 229  1554.242
 230  1928.735
 231  1803.549
 232  2000.259
 233  1729.568
 234  1754.457
 235  1646.458
 236  1642.01
 237  1941.235
 238  1778.722
 239  1802.608
 240  1872.677
 241  1819.47
 242  1724.222
 243  1396.492
 244  1116.757
 245  953.8821
 246  1295.422
 247  1435.16
 248  1639.675
 249  1444.33
 250  1660.566
 251  1280.513
 252  1271.22
 253  1563.885
 254  1350.775
 255  1593.072
 256  1685.699
 257  1358.381
 258  1054.364
 259  1831.326
 260  1510.516
 261  1279.19
 262  1219.668
 263  1167.717
 264  1185.472
 265  1521.383
 266  1383.44
 267  1422.009
 268  1670.247
 269  1834.012
 270  1701.845
 271  1833.884
 272  1877.134
 273  1508.471
 274  1354.513
 275  1154.974
 276  1306.193
 277  1079.465
 278  1246.73
 279  1356.697
 280  1394.742
 281  1162.982
 282  1448.424
 283  1915.726
 284  1557.979
 285  1393.957
 286  1475.108
 287  1458.747
 288  1212.103
 289  1445.95
 290  1508.472
 291  955.6115
 292  1302.644
 293  901.4019
 294  1321.283
 295  1185.725
 296  1399.075
 297  1835.203
 298  1527.434
 299  1392.988
 300  1249.62
 301  1731.802
 302  1447.143
 303  2125.686
 304  2194.565
 305  1751.537
 306  1353.374
 307  1195.823
 308  1564.739
 309  1514.505
 310  1833.211
 311  1719.938
 312  1535.223
 313  1594.281
 314  1497.906
 315  1546.465
 316  1744.459
 317  1526.958
 318  1400.591
 319  1769.348
 320  1556.825
 321  1225.987
 322  1534.651
 323  1657.85
 324  1446.544
 325  1277.21
 326  1459.425
 327  1741.885
 328  1270.787
 329  1442.896
 330  1528.361
 331  1468.906
 332  1139.577
 333  1305.318
 334  1693.234
 335  1585.478
 336  1449.347
 337  1746.617
 338  1816.231
 339  1102.997
 340  1090.28
 341  1315.351
 342  1479.455
 343  1559.876
 344  1121.306
 345  1118.619
 346  1304.645
 347  1707.638
 348  1550.008
 349  1557.054
 350  1286.802
 351  997.8162
 352  1663.581
 353  1472.252
 354  1487.243
 355  1496.473
 356  1664.907
 357  1415.78
 358  1242.244
 359  1448.772
 360  1274.253
 361  1212.76
 362  1387.316
 363  1510.589
 364  1179.915
 365  1491.77
 366  1813.496
 367  1935.923
 368  2033.908
 369  1754.89
 370  1713.754
 371  1526.989
 372  1555.422
 373  1440.285
 374  1379.799
 375  1637.439
 376  1760.114
 377  1579.99
 378  1484.727
 379  1298.815
 380  1294.14
 381  1357.19
 382  1576.581
 383  1572.449
 384  1741.783
 385  1801.227
 386  1947.869
 387  2160.13
 388  1803.278
 389  1798.544
 390  1551.839
 391  1235.359
 392  1326.246
 393  1331.713
 394  1439.251
 395  1141.764
 396  1196.025
 397  1484.661
 398  1428.949
 399  1642.147
 400  1575.204
 401  1577.132
 402  1325.265
 403  1620.004
 404  1747.769
 405  1566.277
 406  1337.584
 407  1510.338
 408  1428.102
 409  1731.215
 410  1781.036
 411  1255.334
 412  1219.163
 413  1229.063
 414  1451.674
 415  1491.408
 416  1618.067
 417  1572.077
 418  1601.488
 419  1792.796
 420  1539.254
 421  1532.753
 422  1356.146
 423  1404.045
 424  1365.19
 425  1298.369
 426  1376.949
 427  1257.265
 428  1228.415
 429  1469.065
 430  1809.893
 431  1673.72
 432  1646.915
 433  1859.008
 434  1497.438
 435  1240.276
 436  1148.491
 437  1335.086
 438  898.9029
 439  1493.664
 440  1708.055
 441  1789.984
 442  1582.299
 443  1517.715
 444  1663.572
 445  1515.571
 446  1494.463
 447  1189.188
 448  1599.28
 449  1720.523
 450  1814.337
 451  1880.127
 452  1871.137
 453  1422.233
 454  1177.001
 455  1379.715
 456  1364.087
 457  1461.777
 458  1441.416
 459  1786.597
 460  1202.821
 461  1750.584
 462  1760.054
 463  2132.874
 464  1798.356
 465  1545.254
 466  1575.915
 467  1374.577
 468  1190.991
 469  1269.339
 470  1753.239
 471  1280.389
 472  1226.022
 473  1151.215
 474  1366.742
 475  1375.69
 476  1486.341
 477  1454.438
 478  1353.078
 479  1553.149
 480  1408.179
 481  1330.061
 482  1141.445
 483  1558.479
 484  1700.97
 485  1526.559
 486  1622.008
 487  1215.756
 488  1046.072
 489  456.4831
 490  968.8556
 491  1103.071
 492  1257.23
 493  1328.429
 494  1512.405
 495  1328.686
 496  1503.351
 497  1680.939
 498  1447.241
 499  1388.14
 500  1428.42
 501  1588.522
 502  1764.455
 503  2140.812
 504  2004.012
 505  1437.881
 506  1651.432
 507  1458.883
 508  1312.5
 509  1435.206
 510  1387.064
 511  1464.669
