# Input file       =  1184458115.111231_cleaned.dat
# Candidate        =  PSR_0332+5434
# Telescope        =  AR
# Epoch_topo       =  57953.006181842953
# Epoch_bary       =  N/A
# T_sample         =  0.002
# Data Folded      =  7208960
# Data Avg         =  0.116541836955796
# Data StdDev      =  4.48003675930363 
# Profile Bins     =  1024
# Profile Avg      =  820.475620591894 
# Profile StdDev   =  375.896175462814 
# Reduced chi-sqr  =  0.570
# Prob(Noise)      <  1   (~0.0 sigma)
# P_topo (ms)      =  714.476337403202  +/- 6.71e-05
# P'_topo (s/s)    =  -0                +/- 3.61e-11
# P''_topo (s/s^2) =  0                 +/- 1.62e-14
# P_bary (ms)      =  N/A
# P'_bary (s/s)    =  N/A
# P''_bary (s/s^2) =  N/A
# P_orb (s)        =  N/A
# asin(i)/c (s)    =  N/A
# eccentricity     =  N/A
# w (rad)          =  N/A
# T_peri           =  N/A
######################################################
   0  610.2525
   1  536.6205
   2  593.9221
   3  749.0291
   4  783.7515
   5  868.4827
   6  930.8913
   7  959.4829
   8  964.3535
   9  861.8804
  10  907.1187
  11  894.9223
  12  848.5322
  13  752.4398
  14  786.0229
  15  717.5984
  16  556.4659
  17  702.6054
  18  939.2155
  19  932.1624
  20  825.0681
  21  864.0223
  22  800.3564
  23  785.7219
  24  776.8106
  25  842.9752
  26  741.3818
  27  780.3253
  28  867.1321
  29  797.051
  30  799.7432
  31  735.4191
  32  709.4716
  33  873.8437
  34  872.3123
  35  919.2855
  36  817.9994
  37  802.6588
  38  526.1027
  39  564.7031
  40  613.1965
  41  817.6021
  42  921.7198
  43  1016.519
  44  876.3893
  45  722.4006
  46  626.9349
  47  702.6555
  48  778.3558
  49  779.7177
  50  872.1397
  51  930.32
  52  829.8425
  53  627.2667
  54  644.032
  55  959.0427
  56  1102.839
  57  1038.223
  58  1072.572
  59  1025.051
  60  881.3579
  61  847.2608
  62  814.8509
  63  696.2274
  64  753.0454
  65  649.3809
  66  712.7826
  67  564.3203
  68  695.3544
  69  572.5492
  70  719.1067
  71  709.0181
  72  876.7235
  73  982.7907
  74  972.7556
  75  750.051
  76  751.6725
  77  807.8036
  78  898.5661
  79  998.4213
  80  917.0392
  81  742.8011
  82  570.6561
  83  736.8693
  84  784.9164
  85  802.4637
  86  640.2173
  87  674.4225
  88  620.2419
  89  802.3197
  90  740.788
  91  706.6071
  92  814.2065
  93  807.747
  94  612.5308
  95  589.3855
  96  670.4943
  97  786.4054
  98  849.8266
  99  820.1862
 100  770.6576
 101  763.1994
 102  844.8663
 103  782.9711
 104  669.9022
 105  707.2619
 106  762.9817
 107  946.1831
 108  936.4815
 109  860.8109
 110  840.0907
 111  863.0007
 112  910.4969
 113  910.0344
 114  780.9449
 115  692.7885
 116  517.2728
 117  539.1602
 118  431.5352
 119  419.1702
 120  594.7285
 121  690.9284
 122  742.9583
 123  870.2824
 124  848.0236
 125  802.6924
 126  905.5557
 127  955.1289
 128  869.0826
 129  760.5449
 130  804.2438
 131  644.8495
 132  448.1209
 133  310.6311
 134  311.764
 135  344.7786
 136  527.5784
 137  695.3248
 138  929.934
 139  941.3603
 140  910.0394
 141  923.9529
 142  878.5212
 143  787.0021
 144  766.2665
 145  857.3318
 146  855.8268
 147  764.5046
 148  664.2689
 149  619.4293
 150  503.712
 151  606.1183
 152  676.8532
 153  628.9051
 154  633.2794
 155  558.2299
 156  599.4033
 157  788.8287
 158  885.3405
 159  778.0741
 160  871.6427
 161  911.788
 162  967.191
 163  923.4807
 164  878.0646
 165  806.1858
 166  830.5496
 167  816.2739
 168  657.7048
 169  543.2623
 170  689.6458
 171  791.6884
 172  761.7599
 173  723.5078
 174  877.8647
 175  926.4823
 176  951.5898
 177  894.9875
 178  867.1158
 179  814.0811
 180  859.2379
 181  908.9355
 182  963.5159
 183  674.7423
 184  631.6365
 185  774.7433
 186  753.9556
 187  605.0234
 188  644.4005
 189  774.1692
 190  629.1003
 191  688.1291
 192  816.7838
 193  822.9442
 194  755.0133
 195  719.343
 196  744.8807
 197  815.7827
 198  874.7906
 199  974.7545
 200  800.9836
 201  758.1762
 202  779.3796
 203  945.9505
 204  931.3644
 205  818.2961
 206  726.4424
 207  766.3829
 208  819.5037
 209  921.6489
 210  1005.683
 211  1002.783
 212  856.0315
 213  847.9282
 214  858.8243
 215  788.09
 216  889.4862
 217  868.2286
 218  871.8694
 219  806.5899
 220  751.0702
 221  643.2853
 222  762.896
 223  797.7749
 224  921.1154
 225  994.0371
 226  1044.014
 227  813.1193
 228  683.4378
 229  669.6943
 230  637.6792
 231  586.0132
 232  681.887
 233  581.7897
 234  474.5056
 235  486.2143
 236  744.8519
 237  688.0637
 238  769.462
 239  827.9812
 240  1104.916
 241  1086.27
 242  1097.581
 243  1039.159
 244  1005.849
 245  894.6752
 246  729.3482
 247  804.1804
 248  713.0283
 249  581.3501
 250  637.4258
 251  639.7234
 252  636.2281
 253  694.8506
 254  836.9559
 255  955.6658
 256  1058.648
 257  972.9547
 258  818.5516
 259  750.0625
 260  836.8708
 261  773.0426
 262  678.0842
 263  696.4108
 264  739.8876
 265  815.6884
 266  794.2066
 267  863.1472
 268  720.9758
 269  882.2136
 270  997.6227
 271  938.6465
 272  939.2926
 273  786.6113
 274  848.5645
 275  934.3768
 276  1026.621
 277  914.2819
 278  862.6491
 279  864.8378
 280  825.6805
 281  747.1124
 282  665.9985
 283  488.096
 284  586.1825
 285  581.2219
 286  654.4984
 287  709.4894
 288  870.1498
 289  816.8879
 290  847.6234
 291  999.7862
 292  992.8074
 293  1029.899
 294  1045.313
 295  977.6575
 296  640.7006
 297  591.485
 298  625.4397
 299  594.516
 300  659.1991
 301  634.1519
 302  566.0226
 303  571.5965
 304  765.4334
 305  949.03
 306  934.096
 307  875.0594
 308  864.361
 309  976.3566
 310  924.2039
 311  841.2598
 312  946.1952
 313  953.2701
 314  921.0821
 315  1024.242
 316  1037.344
 317  822.9763
 318  810.6045
 319  876.0649
 320  881.7894
 321  703.0127
 322  759.4327
 323  802.4143
 324  722.5806
 325  657.3526
 326  709.0396
 327  647.869
 328  686.0798
 329  637.5555
 330  744.4074
 331  742.6691
 332  825.9651
 333  733.0476
 334  900.4379
 335  843.5568
 336  755.9573
 337  755.6981
 338  834.0181
 339  798.941
 340  844.2799
 341  861.4366
 342  894.2717
 343  880.8253
 344  993.048
 345  968.2003
 346  968.2842
 347  857.1635
 348  740.3845
 349  724.9679
 350  569.7282
 351  520.4569
 352  665.7595
 353  901.7992
 354  856.704
 355  772.4327
 356  829.7429
 357  859.9092
 358  784.806
 359  884.4692
 360  839.4984
 361  653.0095
 362  627.2136
 363  705.6038
 364  833.2919
 365  900.6229
 366  887.4109
 367  695.8162
 368  677.5862
 369  870.9863
 370  938.0257
 371  1019.868
 372  911.2579
 373  1050.06
 374  1095.729
 375  1043.799
 376  819.4226
 377  847.6469
 378  913.5422
 379  798.2508
 380  734.1879
 381  722.0681
 382  641.0469
 383  697.9427
 384  814.5893
 385  815.2869
 386  697.459
 387  717.5553
 388  946.9185
 389  868.3376
 390  856.4988
 391  787.2394
 392  864.0295
 393  929.733
 394  851.5136
 395  753.2062
 396  809.9647
 397  858.9629
 398  758.04
 399  724.3051
 400  746.6874
 401  789.4011
 402  892.3048
 403  1064.714
 404  1087.297
 405  1036.583
 406  920.554
 407  871.0378
 408  989.2527
 409  1019.773
 410  956.3339
 411  863.7887
 412  703.0854
 413  698.2501
 414  681.8268
 415  793.5102
 416  723.4741
 417  742.2329
 418  808.0433
 419  739.9951
 420  691.6373
 421  832.1917
 422  924.8412
 423  901.2321
 424  969.7539
 425  996.92
 426  888.4039
 427  869.976
 428  835.2621
 429  725.6401
 430  709.2099
 431  723.9117
 432  774.8214
 433  716.1835
 434  672.6857
 435  650.9408
 436  746.1105
 437  840.8451
 438  989.1843
 439  1110.286
 440  1102.394
 441  977.6006
 442  934.6132
 443  958.6901
 444  956.8523
 445  984.4285
 446  994.8741
 447  990.7251
 448  853.3528
 449  817.4475
 450  659.7497
 451  642.4235
 452  772.4788
 453  833.9541
 454  703.5151
 455  660.5979
 456  638.3223
 457  587.8425
 458  790.2353
 459  864.6733
 460  846.549
 461  837.8669
 462  806.9945
 463  845.5157
 464  719.3187
 465  725.5622
 466  691.5725
 467  745.1268
 468  796.1243
 469  703.2137
 470  812.6437
 471  905.886
 472  891.3029
 473  876.2947
 474  789.3392
 475  923.1077
 476  864.9589
 477  773.1708
 478  609.6279
 479  544.8373
 480  649.4448
 481  658.4647
 482  659.2929
 483  676.9376
 484  730.8871
 485  787.0728
 486  966.8535
 487  895.7649
 488  886.9072
 489  948.1274
 490  1015.783
 491  751.33
 492  656.4775
 493  704.6059
 494  701.3143
 495  520.6046
 496  554.6808
 497  623.5475
 498  823.0627
 499  863.6197
 500  933.8554
 501  993.4838
 502  959.3722
 503  997.3265
 504  1056.841
 505  1093.213
 506  1073.435
 507  947.7536
 508  875.3164
 509  794.3724
 510  693.3115
 511  812.6722
 512  876.1373
 513  763.1515
 514  795.6992
 515  798.0325
 516  658.3519
 517  718.6821
 518  692.2729
 519  835.5273
 520  835.942
 521  852.4037
 522  729.2106
 523  790.4156
 524  707.1031
 525  877.3522
 526  944.4225
 527  971.7543
 528  732.4153
 529  635.2009
 530  807.5314
 531  805.2042
 532  805.4554
 533  938.2744
 534  1010.515
 535  1045.246
 536  949.9999
 537  979.399
 538  947.4211
 539  977.8235
 540  1155.653
 541  1185.414
 542  923.3814
 543  683.4067
 544  692.0653
 545  843.1999
 546  755.9918
 547  619.991
 548  768.9966
 549  788.0755
 550  715.2189
 551  794.6341
 552  932.0309
 553  885.7297
 554  884.0494
 555  808.9565
 556  768.0116
 557  771.5613
 558  843.0122
 559  852.8918
 560  772.8166
 561  717.3235
 562  679.0775
 563  656.9543
 564  729.2877
 565  770.5456
 566  898.6785
 567  913.1613
 568  903.0034
 569  787.7809
 570  829.6114
 571  819.3348
 572  834.309
 573  948.4844
 574  989.3771
 575  917.5014
 576  893.8985
 577  836.2886
 578  766.7176
 579  820.347
 580  814.705
 581  751.7459
 582  770.0314
 583  714.1033
 584  726.5944
 585  780.9326
 586  907.0419
 587  873.7689
 588  892.7904
 589  895.0731
 590  849.9708
 591  822.2856
 592  930.6577
 593  976.324
 594  866.6141
 595  753.9549
 596  755.3496
 597  650.9166
 598  708.3334
 599  857.5092
 600  1085.651
 601  1105.885
 602  1011.092
 603  935.0336
 604  928.8821
 605  902.6069
 606  1029.435
 607  1061.784
 608  972.2062
 609  751.9604
 610  832.3962
 611  721.6268
 612  575.5748
 613  832.5652
 614  1076.287
 615  1063.069
 616  888.5101
 617  784.4636
 618  798.3068
 619  837.3635
 620  933.5109
 621  950.6869
 622  864.7505
 623  848.7737
 624  793.481
 625  801.7012
 626  761.2764
 627  777.3572
 628  732.4069
 629  858.9891
 630  895.129
 631  831.585
 632  747.0827
 633  705.8975
 634  751.189
 635  965.9779
 636  1062.871
 637  1096.054
 638  1084.928
 639  1074.951
 640  896.036
 641  899.0303
 642  942.8629
 643  999.3315
 644  1097.555
 645  1107.537
 646  1147.357
 647  1247.354
 648  1363.988
 649  1416.51
 650  1629.228
 651  1758.21
 652  1719.113
 653  1736.081
 654  1746.989
 655  1670.18
 656  1354.06
 657  1188.796
 658  974.9958
 659  757.4693
 660  824.0909
 661  765.7039
 662  597.625
 663  547.6393
 664  657.029
 665  732.3913
 666  712.4801
 667  867.9803
 668  1057.625
 669  1131.237
 670  1054.109
 671  1026.582
 672  1018.955
 673  878.2463
 674  787.6085
 675  913.4056
 676  904.0947
 677  676.3042
 678  687.1782
 679  649.1471
 680  588.7545
 681  620.5469
 682  795.6216
 683  841.9052
 684  715.0992
 685  854.9849
 686  875.8521
 687  823.6458
 688  875.224
 689  997.7289
 690  948.9398
 691  829.8673
 692  750.6292
 693  695.9084
 694  735.9527
 695  809.0897
 696  925.1171
 697  986.9355
 698  835.7565
 699  713.5011
 700  836.7576
 701  952.0195
 702  945.374
 703  1044.339
 704  1114.149
 705  1025.555
 706  971.5203
 707  942.5397
 708  924.5428
 709  993.4353
 710  999.6518
 711  954.1808
 712  892.2924
 713  793.8757
 714  760.0629
 715  720.7236
 716  695.5724
 717  678.5638
 718  783.3406
 719  967.5606
 720  1049.658
 721  992.8332
 722  1089.514
 723  968.6032
 724  784.7064
 725  867.7958
 726  941.1944
 727  886.4998
 728  813.1926
 729  876.8222
 730  893.4124
 731  915.3201
 732  959.3996
 733  1058.232
 734  1079.613
 735  956.3221
 736  883.653
 737  925.6022
 738  960.7955
 739  929.9678
 740  1004.028
 741  1006.377
 742  875.3857
 743  796.5634
 744  778.4
 745  747.0436
 746  748.1705
 747  860.7064
 748  889.2997
 749  775.7558
 750  702.551
 751  566.3929
 752  481.6116
 753  602.2235
 754  658.6999
 755  696.6087
 756  899.7405
 757  909.1503
 758  852.2593
 759  870.4146
 760  978.3434
 761  894.538
 762  860.4586
 763  911.6009
 764  939.9868
 765  789.1004
 766  793.892
 767  693.4025
 768  810.956
 769  719.1954
 770  869.5156
 771  883.1072
 772  837.4802
 773  888.7949
 774  1033.625
 775  1158.35
 776  993.2946
 777  953.4898
 778  864.4959
 779  728.4943
 780  669.2878
 781  729.7067
 782  683.2597
 783  609.0587
 784  750.6748
 785  836.9717
 786  583.1088
 787  756.8606
 788  900.6526
 789  896.4252
 790  792.7544
 791  616.0051
 792  658.0486
 793  635.7997
 794  767.7205
 795  756.3578
 796  735.7933
 797  639.0787
 798  646.7498
 799  815.2175
 800  991.2455
 801  1054.202
 802  1105.254
 803  987.074
 804  777.689
 805  790.2621
 806  931.5363
 807  984.3184
 808  905.5991
 809  808.6469
 810  743.8563
 811  677.3708
 812  808.1218
 813  788.0132
 814  658.0362
 815  698.1219
 816  739.3077
 817  681.6522
 818  839.799
 819  845.2726
 820  914.7288
 821  845.5087
 822  778.0248
 823  641.1516
 824  706.2327
 825  593.1878
 826  602.9767
 827  680.5205
 828  768.2465
 829  636.0969
 830  638.3529
 831  780.665
 832  726.2159
 833  672.0135
 834  731.2828
 835  928.0248
 836  956.7245
 837  870.4396
 838  899.853
 839  873.61
 840  850.6066
 841  813.2095
 842  891.8486
 843  1013.348
 844  942.1255
 845  896.2043
 846  941.7253
 847  824.2232
 848  690.5462
 849  826.0908
 850  875.9839
 851  849.7052
 852  756.7465
 853  857.1731
 854  691.2852
 855  645.6534
 856  697.3871
 857  842.345
 858  898.0794
 859  912.9713
 860  990.1635
 861  944.4623
 862  915.111
 863  905.9429
 864  920.7381
 865  950.3842
 866  922.204
 867  987.0732
 868  864.8636
 869  710.4622
 870  770.0766
 871  965.993
 872  1008.36
 873  950.019
 874  1058.111
 875  1040.009
 876  828.9661
 877  755.1329
 878  767.9539
 879  759.9744
 880  878.5098
 881  866.3613
 882  714.0941
 883  825.7382
 884  904.598
 885  917.7132
 886  871.8943
 887  897.0521
 888  837.4988
 889  827.3932
 890  930.346
 891  885.6483
 892  739.7288
 893  738.8486
 894  761.3891
 895  684.2298
 896  597.5917
 897  594.2504
 898  562.2163
 899  556.1927
 900  596.9305
 901  686.1328
 902  770.0193
 903  911.9659
 904  966.4406
 905  909.2021
 906  755.3767
 907  768.0817
 908  854.1374
 909  663.4244
 910  387.3975
 911  658.796
 912  802.5348
 913  796.1906
 914  816.0472
 915  912.9495
 916  737.538
 917  748.6662
 918  847.7498
 919  888.2225
 920  798.7478
 921  691.71
 922  759.9373
 923  773.1124
 924  870.9406
 925  803.2959
 926  781.4392
 927  762.8727
 928  717.8289
 929  602.8474
 930  680.7288
 931  745.0818
 932  782.2899
 933  899.8696
 934  922.9036
 935  910.1012
 936  1000.262
 937  979.4911
 938  896.6702
 939  811.8271
 940  847.1349
 941  857.9354
 942  893.42
 943  761.5797
 944  630.5576
 945  709.6023
 946  678.6903
 947  664.9819
 948  591.5464
 949  681.7745
 950  697.698
 951  872.8782
 952  946.9566
 953  827.9956
 954  794.5405
 955  831.2966
 956  755.7435
 957  509.4219
 958  442.4694
 959  557.4637
 960  544.3084
 961  744.9008
 962  798.3826
 963  782.1733
 964  818.3519
 965  798.1307
 966  857.9553
 967  886.2834
 968  914.6369
 969  928.0886
 970  794.074
 971  777.0977
 972  626.4675
 973  674.7779
 974  645.3464
 975  632.4656
 976  881.0296
 977  866.615
 978  854.7011
 979  851.4454
 980  953.1931
 981  784.5383
 982  784.8302
 983  925.9112
 984  954.2738
 985  758.1669
 986  819.4764
 987  844.0129
 988  674.0115
 989  531.1967
 990  503.014
 991  476.372
 992  530.6412
 993  524.1889
 994  591.5287
 995  633.1746
 996  680.0108
 997  650.9985
 998  861.4506
 999  1011.982
1000  1130.447
1001  1235.67
1002  1121.56
1003  953.5043
1004  847.8926
1005  971.4964
1006  893.4272
1007  841.5017
1008  662.3975
1009  657.6529
1010  572.5654
1011  531.2027
1012  522.9779
1013  754.1424
1014  983.0656
1015  975.9965
1016  908.9865
1017  943.3744
1018  846.3584
1019  835.0113
1020  952.9015
1021  966.8848
1022  730.9268
1023  641.645
