# Input file       =  1184558949.114869_cleaned.dat
# Candidate        =  PSR_0332+5434
# Telescope        =  AR
# Epoch_topo       =  57954.173242070246
# Epoch_bary       =  N/A
# T_sample         =  0.002
# Data Folded      =  7340032
# Data Avg         =  0.231341087598205
# Data StdDev      =  4.44775076211297 
# Profile Bins     =  1024
# Profile Avg      =  1658.38729566385 
# Profile StdDev   =  376.564557124766 
# Reduced chi-sqr  =  0.782
# Prob(Noise)      <  1   (~0.0 sigma)
# P_topo (ms)      =  714.475636144683  +/- 0.00055
# P'_topo (s/s)    =  -0                +/- 2.9e-10
# P''_topo (s/s^2) =  0                 +/- 1.28e-13
# P_bary (ms)      =  N/A
# P'_bary (s/s)    =  N/A
# P''_bary (s/s^2) =  N/A
# P_orb (s)        =  N/A
# asin(i)/c (s)    =  N/A
# eccentricity     =  N/A
# w (rad)          =  N/A
# T_peri           =  N/A
######################################################
   0  1685.672
   1  1660.749
   2  1616.473
   3  1585.634
   4  1596.117
   5  1577.295
   6  1546.564
   7  1498.151
   8  1648.48
   9  1805.646
  10  1887.049
  11  1861.114
  12  1739.12
  13  1629.919
  14  1641.401
  15  1593.242
  16  1604.25
  17  1619.529
  18  1770.403
  19  1851.113
  20  1858.995
  21  1788.106
  22  1634.829
  23  1652.131
  24  1593.827
  25  1600.815
  26  1512.846
  27  1522.518
  28  1493.882
  29  1594.824
  30  1666.232
  31  1693.567
  32  1582.243
  33  1505.698
  34  1370.341
  35  1384.372
  36  1455.394
  37  1510.314
  38  1506.549
  39  1453.642
  40  1515.82
  41  1616.119
  42  1684.032
  43  1614.46
  44  1498.231
  45  1504.244
  46  1541.205
  47  1593.638
  48  1646.477
  49  1667.01
  50  1580.8
  51  1522.038
  52  1696.607
  53  1679.282
  54  1645.106
  55  1569.583
  56  1649.321
  57  1703.353
  58  1804.971
  59  1780.722
  60  1701.474
  61  1584.448
  62  1496.176
  63  1510.738
  64  1564.288
  65  1697.285
  66  1776.76
  67  1783.253
  68  1798.328
  69  1717.77
  70  1693.548
  71  1645.63
  72  1723
  73  1755.469
  74  1677.458
  75  1596.714
  76  1506.027
  77  1538.653
  78  1519.222
  79  1576.524
  80  1656.505
  81  1756.183
  82  1713.404
  83  1700.436
  84  1705.813
  85  1752.14
  86  1757.791
  87  1660.803
  88  1649.534
  89  1768.629
  90  1865.127
  91  1811.15
  92  1638.333
  93  1566.065
  94  1533.698
  95  1528.47
  96  1561.35
  97  1549.236
  98  1543.036
  99  1424.712
 100  1346.984
 101  1272.965
 102  1382.938
 103  1496.351
 104  1521.873
 105  1525.098
 106  1437.649
 107  1493.579
 108  1522.674
 109  1528.178
 110  1544.456
 111  1526.969
 112  1541.778
 113  1449.337
 114  1389.996
 115  1341.532
 116  1284.344
 117  1324.623
 118  1397.265
 119  1483.002
 120  1519.05
 121  1432.52
 122  1512.58
 123  1675.746
 124  1733.505
 125  1652.86
 126  1724.014
 127  1706.019
 128  1642.641
 129  1516.596
 130  1485.738
 131  1510.062
 132  1487.002
 133  1569.481
 134  1647.018
 135  1747.216
 136  1793.918
 137  1753.518
 138  1658.683
 139  1652.028
 140  1614.251
 141  1685.669
 142  1662.625
 143  1687.908
 144  1648.302
 145  1684.254
 146  1619.769
 147  1578.216
 148  1502.965
 149  1563.69
 150  1605.524
 151  1558.478
 152  1441.415
 153  1471.124
 154  1520.259
 155  1602.063
 156  1593.512
 157  1630.528
 158  1661.445
 159  1625.514
 160  1569.369
 161  1519.938
 162  1516.452
 163  1436.852
 164  1443.474
 165  1429.566
 166  1442.178
 167  1315.784
 168  1283.692
 169  1407.479
 170  1638.583
 171  1701.432
 172  1663.525
 173  1582.824
 174  1494.28
 175  1368.377
 176  1310.172
 177  1313.828
 178  1349.758
 179  1268.107
 180  1325.767
 181  1296.578
 182  1386.501
 183  1455.98
 184  1490.808
 185  1415.06
 186  1296.162
 187  1210.881
 188  1175.451
 189  1325.112
 190  1463.425
 191  1538.042
 192  1512.091
 193  1421.603
 194  1389.16
 195  1394.389
 196  1458.265
 197  1521.486
 198  1551.668
 199  1595.976
 200  1582.929
 201  1619.983
 202  1637.622
 203  1586.665
 204  1500.236
 205  1460.941
 206  1476.329
 207  1629.579
 208  1589.65
 209  1553.727
 210  1492.944
 211  1525.763
 212  1455.774
 213  1348.373
 214  1428.673
 215  1500.906
 216  1650.478
 217  1665.985
 218  1691.689
 219  1637.738
 220  1555.735
 221  1469.406
 222  1469.156
 223  1507.802
 224  1559.294
 225  1569.98
 226  1586.814
 227  1556.502
 228  1604.944
 229  1687.257
 230  1745.104
 231  1707.257
 232  1668.426
 233  1581.442
 234  1597.299
 235  1502.821
 236  1479.649
 237  1490.681
 238  1608.563
 239  1592.564
 240  1514.596
 241  1495.837
 242  1531.509
 243  1632.423
 244  1634.51
 245  1705.697
 246  1730.85
 247  1754.141
 248  1682.598
 249  1576.083
 250  1530.692
 251  1580.416
 252  1619.719
 253  1737.663
 254  1765.15
 255  1688.017
 256  1541.839
 257  1450.481
 258  1498.505
 259  1511.667
 260  1601.045
 261  1556.536
 262  1663.835
 263  1653.044
 264  1593.242
 265  1574.124
 266  1584.868
 267  1705.229
 268  1637.921
 269  1693.853
 270  1801.449
 271  1812.791
 272  1744.399
 273  1699.808
 274  1789.43
 275  1707.106
 276  1706.827
 277  1720.689
 278  1766.831
 279  1713.479
 280  1701.968
 281  1715.159
 282  1758.978
 283  1717.572
 284  1718.398
 285  1654.944
 286  1683.6
 287  1719.353
 288  1729.224
 289  1683.489
 290  1577.04
 291  1585.231
 292  1653.939
 293  1604.421
 294  1498.663
 295  1497.094
 296  1636.303
 297  1738.168
 298  1724.384
 299  1713.246
 300  1700.05
 301  1727.247
 302  1537.41
 303  1519.154
 304  1452.333
 305  1444.412
 306  1335.034
 307  1372.865
 308  1389.433
 309  1373.564
 310  1417.272
 311  1351.294
 312  1243.226
 313  1203.412
 314  1343.115
 315  1447.425
 316  1421.303
 317  1314.016
 318  1315.639
 319  1290.763
 320  1350.98
 321  1342.607
 322  1351.424
 323  1421.754
 324  1446.542
 325  1475.011
 326  1452.806
 327  1518.586
 328  1618.746
 329  1463.972
 330  1323.315
 331  1354.612
 332  1556.825
 333  1567.63
 334  1551.394
 335  1557.467
 336  1652.687
 337  1634.343
 338  1586.713
 339  1673.174
 340  1673.986
 341  1658.785
 342  1578.831
 343  1568.796
 344  1701.42
 345  1769.781
 346  1750.171
 347  1678.891
 348  1555.009
 349  1601.094
 350  1722.166
 351  1793.236
 352  1897.894
 353  1865.442
 354  1838.56
 355  1769.601
 356  1755.622
 357  1713.2
 358  1688.826
 359  1656.342
 360  1662.224
 361  1668.81
 362  1629.428
 363  1599.14
 364  1508.12
 365  1514.757
 366  1682.039
 367  1764.721
 368  1691.264
 369  1622.531
 370  1678.334
 371  1715.439
 372  1798.084
 373  1672.639
 374  1612.572
 375  1513.239
 376  1600.062
 377  1538.301
 378  1550.598
 379  1610.25
 380  1757.189
 381  1741.911
 382  1818.308
 383  1864.647
 384  1803.123
 385  1617.42
 386  1564.364
 387  1544.669
 388  1510.469
 389  1542.151
 390  1574.498
 391  1530.041
 392  1400.461
 393  1377.916
 394  1460.529
 395  1449.167
 396  1625.867
 397  1732.293
 398  1861.997
 399  1803.37
 400  1706.153
 401  1568.328
 402  1520.42
 403  1636.968
 404  1718.479
 405  1733.16
 406  1731.012
 407  1690.208
 408  1644.143
 409  1717.673
 410  1746.013
 411  1692.008
 412  1656.649
 413  1672.954
 414  1587.156
 415  1493.424
 416  1435.282
 417  1503.824
 418  1423.678
 419  1468.238
 420  1444.714
 421  1412.16
 422  1282.553
 423  1260.833
 424  1308.472
 425  1390.782
 426  1363.664
 427  1336.989
 428  1314.435
 429  1297.331
 430  1315.334
 431  1265.566
 432  1248.035
 433  1233.145
 434  1322.243
 435  1432.941
 436  1400.896
 437  1221.621
 438  1103.259
 439  1173.295
 440  1157.741
 441  1340.437
 442  1380.924
 443  1436.276
 444  1440.023
 445  1443.804
 446  1497.22
 447  1446.239
 448  1564.066
 449  1618.219
 450  1614.215
 451  1654.036
 452  1624.839
 453  1609.989
 454  1511.729
 455  1579.899
 456  1610.958
 457  1615.566
 458  1474.692
 459  1539.499
 460  1590.375
 461  1647.708
 462  1663.74
 463  1729.413
 464  1818.578
 465  1760.251
 466  1794.025
 467  1748.023
 468  1732.781
 469  1722.264
 470  1657.71
 471  1669.031
 472  1593.189
 473  1746.39
 474  1834.955
 475  1873.061
 476  1773.817
 477  1816.2
 478  1832.262
 479  1793.504
 480  1770.817
 481  1812.305
 482  1831.161
 483  1777.109
 484  1771.631
 485  1792.254
 486  1811.768
 487  1839.782
 488  1897.884
 489  1722.873
 490  1644.462
 491  1670.081
 492  1835.762
 493  1819.081
 494  1929.291
 495  1892.07
 496  1939.111
 497  1894.398
 498  1899.984
 499  1925.385
 500  1830.594
 501  1735.417
 502  1604.835
 503  1616.417
 504  1628.679
 505  1698.211
 506  1794.112
 507  1908.765
 508  1917.313
 509  1840.397
 510  1897.886
 511  1944.288
 512  1948.405
 513  1915.295
 514  1883.509
 515  1715.507
 516  1621.399
 517  1549.942
 518  1720.604
 519  1850.605
 520  1926.001
 521  1903.397
 522  1759.556
 523  1646.149
 524  1690.036
 525  1645.001
 526  1625.521
 527  1531.298
 528  1516.009
 529  1523.779
 530  1526.954
 531  1626.511
 532  1585.697
 533  1588.792
 534  1516.057
 535  1558.833
 536  1553.365
 537  1700.46
 538  1844.754
 539  1859.445
 540  1678.576
 541  1541.31
 542  1520.869
 543  1613.191
 544  1597.934
 545  1664.281
 546  1627.355
 547  1670.836
 548  1582.629
 549  1632.557
 550  1689.674
 551  1628.425
 552  1541.81
 553  1541.953
 554  1696.28
 555  1859.385
 556  1871.026
 557  1822.126
 558  1675.898
 559  1577.213
 560  1559.507
 561  1674.48
 562  1679.482
 563  1664.832
 564  1542.848
 565  1530.685
 566  1443.366
 567  1413.336
 568  1446.684
 569  1500.85
 570  1510.719
 571  1608.799
 572  1588.709
 573  1612.403
 574  1577.89
 575  1591.159
 576  1618.953
 577  1616.201
 578  1640.468
 579  1660.245
 580  1672.649
 581  1673.63
 582  1811.09
 583  1841.441
 584  1762.674
 585  1665.033
 586  1649.229
 587  1661.837
 588  1580.488
 589  1618.97
 590  1643.424
 591  1660.076
 592  1704.855
 593  1757.72
 594  1787.025
 595  1731.158
 596  1758.499
 597  1725.325
 598  1763.455
 599  1762.066
 600  1697.607
 601  1661.686
 602  1606.293
 603  1674.677
 604  1717.251
 605  1682.447
 606  1610.535
 607  1601.293
 608  1665.759
 609  1766.479
 610  1837.223
 611  1829.481
 612  1779.294
 613  1784.266
 614  1843.555
 615  1836.242
 616  1798.073
 617  1745.294
 618  1748.745
 619  1693.483
 620  1531.776
 621  1473.345
 622  1467.627
 623  1690.142
 624  1683.393
 625  1722.295
 626  1702.484
 627  1812.511
 628  1779.667
 629  1714.787
 630  1614.979
 631  1661.276
 632  1774.123
 633  1805.055
 634  1823.983
 635  1856.807
 636  1935.453
 637  1893.219
 638  2014.692
 639  2115.006
 640  2188.039
 641  2141.351
 642  2095.259
 643  2132.035
 644  2067.153
 645  2113.624
 646  2130.613
 647  2299.762
 648  2495.148
 649  2626.635
 650  2709.102
 651  2637.438
 652  2652.699
 653  2525.7
 654  2533.577
 655  2427.593
 656  2352.718
 657  2252.106
 658  1981.349
 659  1853.769
 660  1728.132
 661  1710.877
 662  1710.229
 663  1563.592
 664  1397.261
 665  1306.058
 666  1478.807
 667  1578.101
 668  1613.157
 669  1652.137
 670  1655.578
 671  1630.735
 672  1614.593
 673  1572.87
 674  1534.589
 675  1572.572
 676  1609.644
 677  1647.042
 678  1711.793
 679  1733.629
 680  1723.791
 681  1761.243
 682  1876.369
 683  2030.05
 684  2134.361
 685  2081.703
 686  1969.203
 687  1889.3
 688  1798.478
 689  1718.216
 690  1714.397
 691  1883.401
 692  1918.548
 693  1862.951
 694  1779.579
 695  1843.922
 696  1885.908
 697  1887.446
 698  1825.73
 699  1782.139
 700  1786.025
 701  1694.975
 702  1807.937
 703  1869.327
 704  1903.792
 705  1851.064
 706  1952.535
 707  1960.843
 708  1942.273
 709  1875.891
 710  1911.533
 711  1723.375
 712  1669.276
 713  1723.625
 714  1842.508
 715  1917.354
 716  1836.102
 717  1919.376
 718  1985.728
 719  2147.884
 720  2179.637
 721  2057.672
 722  1937.624
 723  1800.807
 724  1842.247
 725  1766.399
 726  1657.453
 727  1675.25
 728  1787.843
 729  1897.375
 730  1869.753
 731  1837.172
 732  1902.449
 733  1845.975
 734  1806.054
 735  1727.496
 736  1739.488
 737  1764.131
 738  1749.848
 739  1786.806
 740  1746.074
 741  1732.24
 742  1747.819
 743  1799.171
 744  1784.69
 745  1708.238
 746  1706.391
 747  1717.333
 748  1768.908
 749  1754.579
 750  1707.645
 751  1756.896
 752  1836.216
 753  1806.817
 754  1699.688
 755  1610.509
 756  1663.081
 757  1656.99
 758  1658.594
 759  1604.915
 760  1660.219
 761  1732.172
 762  1763.141
 763  1669.75
 764  1617.236
 765  1590.251
 766  1708.994
 767  1646.737
 768  1666.989
 769  1583.735
 770  1615.931
 771  1497.317
 772  1447.59
 773  1543.638
 774  1641.369
 775  1699.5
 776  1664.391
 777  1688.749
 778  1604.225
 779  1574.584
 780  1566.803
 781  1762.937
 782  1830.632
 783  1814.261
 784  1752.56
 785  1773.288
 786  1716.067
 787  1682.681
 788  1830.677
 789  1990.061
 790  1894.802
 791  1758.282
 792  1710.574
 793  1707.711
 794  1723.751
 795  1885.166
 796  1868.093
 797  1833.415
 798  1671.145
 799  1704.913
 800  1744.368
 801  1744.349
 802  1752.728
 803  1682.789
 804  1618.738
 805  1651.578
 806  1643.621
 807  1680.405
 808  1618.345
 809  1648.443
 810  1707.308
 811  1813.42
 812  1852.41
 813  1758.906
 814  1656.081
 815  1657.251
 816  1739.741
 817  1622.278
 818  1675.796
 819  1755.81
 820  1914.767
 821  1859.153
 822  1861.817
 823  1841.748
 824  1871.042
 825  1804.452
 826  1763.811
 827  1683.786
 828  1683.124
 829  1641.878
 830  1567.093
 831  1446.308
 832  1514.863
 833  1668.971
 834  1781.02
 835  1789.311
 836  1779.038
 837  1780.688
 838  1732.177
 839  1777.863
 840  1803.131
 841  1757.898
 842  1703.395
 843  1792.296
 844  1851.149
 845  1858.626
 846  1811.273
 847  1789.971
 848  1733.342
 849  1796.231
 850  1728.393
 851  1735.83
 852  1620.284
 853  1665.717
 854  1527.596
 855  1444.355
 856  1416.815
 857  1519.182
 858  1521.436
 859  1575.534
 860  1614.83
 861  1740.484
 862  1734.685
 863  1690.179
 864  1613.799
 865  1635.937
 866  1528.33
 867  1473.182
 868  1364.033
 869  1370.911
 870  1357.787
 871  1349.402
 872  1516.207
 873  1659.067
 874  1714.486
 875  1677.653
 876  1680.661
 877  1723.013
 878  1721.011
 879  1748.051
 880  1789.909
 881  1799.615
 882  1648.251
 883  1616.901
 884  1607.858
 885  1605.516
 886  1689.505
 887  1753.493
 888  1781.857
 889  1781.84
 890  1775.804
 891  1832.451
 892  1783.939
 893  1743.775
 894  1663.33
 895  1561.616
 896  1457.765
 897  1490.829
 898  1487.885
 899  1514.575
 900  1561.547
 901  1733.439
 902  1881.795
 903  1992.248
 904  1942.056
 905  1849.436
 906  1729.482
 907  1649.881
 908  1604.603
 909  1648.422
 910  1778.867
 911  1759.057
 912  1770.895
 913  1659.329
 914  1776.695
 915  1925.207
 916  2080.521
 917  2011.702
 918  1943.144
 919  1944.614
 920  1901.115
 921  1781.509
 922  1816.496
 923  1899.766
 924  1983.774
 925  1989.755
 926  1857.151
 927  1897.632
 928  1793.163
 929  1713.658
 930  1671.172
 931  1695.94
 932  1641.827
 933  1556.595
 934  1487.981
 935  1590.629
 936  1730.966
 937  1834.842
 938  1757.531
 939  1771.542
 940  1846.56
 941  1799.528
 942  1675.453
 943  1621.407
 944  1608.408
 945  1489.734
 946  1508.672
 947  1591.419
 948  1699.898
 949  1696.09
 950  1683.572
 951  1763.733
 952  1852.599
 953  1891.479
 954  1794.118
 955  1731.994
 956  1669.349
 957  1670.644
 958  1599.859
 959  1563.452
 960  1530.608
 961  1556.423
 962  1647.33
 963  1633.913
 964  1684.935
 965  1729.174
 966  1805.394
 967  1739.848
 968  1730.921
 969  1801.931
 970  1907.474
 971  1866.683
 972  1781.499
 973  1669.842
 974  1627.696
 975  1579.516
 976  1648.123
 977  1699.494
 978  1679.472
 979  1672.48
 980  1647.091
 981  1573.848
 982  1579.527
 983  1572.674
 984  1687.089
 985  1686.844
 986  1690.229
 987  1584.889
 988  1664.379
 989  1672.765
 990  1704.9
 991  1575.216
 992  1504.385
 993  1412.145
 994  1508.419
 995  1484.449
 996  1471.548
 997  1429.394
 998  1547.606
 999  1590.728
1000  1541.314
1001  1524.155
1002  1374.829
1003  1422.662
1004  1466.725
1005  1630.062
1006  1639.394
1007  1635.712
1008  1569.213
1009  1579.565
1010  1601.325
1011  1600.913
1012  1544.039
1013  1541.551
1014  1520.129
1015  1402.058
1016  1333.337
1017  1386.603
1018  1500.662
1019  1534.859
1020  1612.789
1021  1703.596
1022  1761.558
1023  1758.622
