# Input file       =  1184802742.097903_cleaned.dat
# Candidate        =  PSR_0332+5434
# Telescope        =  AR
# Epoch_topo       =  57956.994920114616
# Epoch_bary       =  N/A
# T_sample         =  0.002
# Data Folded      =  7208960
# Data Avg         =  0.324140604100698
# Data StdDev      =  6.44931755941313 
# Profile Bins     =  1024
# Profile Avg      =  2282.08990418922 
# Profile StdDev   =  541.128105677729 
# Reduced chi-sqr  =  0.468
# Prob(Noise)      <  1   (~0.0 sigma)
# P_topo (ms)      =  714.473972115484  +/- 4.79e-05
# P'_topo (s/s)    =  -0                +/- 2.57e-11
# P''_topo (s/s^2) =  0                 +/- 1.16e-14
# P_bary (ms)      =  N/A
# P'_bary (s/s)    =  N/A
# P''_bary (s/s^2) =  N/A
# P_orb (s)        =  N/A
# asin(i)/c (s)    =  N/A
# eccentricity     =  N/A
# w (rad)          =  N/A
# T_peri           =  N/A
######################################################
   0  2319.469
   1  2266.811
   2  2302.331
   3  2164.24
   4  2326.206
   5  2335.531
   6  2369.728
   7  2534.03
   8  2563.06
   9  2514.942
  10  2596.735
  11  2581.837
  12  2528.294
  13  2351.857
  14  2361.507
  15  2333.573
  16  2056.968
  17  1987.794
  18  2103.24
  19  2238.662
  20  2167.21
  21  2097.055
  22  2074.039
  23  1898.869
  24  2074.642
  25  2320.596
  26  2472.764
  27  2397.936
  28  2276.875
  29  2071.361
  30  2006.182
  31  2166.334
  32  2307.601
  33  2287.266
  34  2173.953
  35  2183.405
  36  2228.274
  37  2153.588
  38  2266.426
  39  2308.702
  40  2554.55
  41  2666.99
  42  2805.894
  43  2717.629
  44  2440.621
  45  2230.848
  46  2156.245
  47  2020.513
  48  1935.632
  49  1852.659
  50  1979.769
  51  1822.997
  52  1870.541
  53  1900.486
  54  2221.05
  55  2437.433
  56  2649.625
  57  2469.837
  58  2512.493
  59  2308.734
  60  2089.471
  61  2046.851
  62  2239.522
  63  2131.631
  64  1860.931
  65  1747.875
  66  1927.301
  67  2056.104
  68  2199.938
  69  2359.656
  70  2362.224
  71  2357.933
  72  2426.926
  73  2414.458
  74  2222.511
  75  2264.549
  76  2249.444
  77  2285.352
  78  2126.897
  79  2206.854
  80  2172.648
  81  2253.262
  82  2315.682
  83  2496.341
  84  2375.763
  85  2224.289
  86  2266.997
  87  2345.931
  88  2130.354
  89  2162.153
  90  2244.787
  91  2167.553
  92  2037.318
  93  2088.479
  94  2243.321
  95  2155.37
  96  2227.699
  97  2163.99
  98  2138.054
  99  2002.161
 100  2167.116
 101  2039.669
 102  2101.244
 103  2130.027
 104  2311.544
 105  2368.962
 106  2525.564
 107  2431.39
 108  2332.222
 109  2340.921
 110  2545.293
 111  2578.471
 112  2355.46
 113  2151.507
 114  2108.932
 115  2015.675
 116  1919.393
 117  1915.039
 118  1986.051
 119  1991.915
 120  2123.017
 121  2250.253
 122  2334.158
 123  2536.026
 124  2517.389
 125  2420.753
 126  2338.588
 127  2457.402
 128  2468.495
 129  2462.17
 130  2455.587
 131  2491.193
 132  2094.941
 133  2046.305
 134  2000.447
 135  2067.192
 136  2175.287
 137  2508.019
 138  2547.875
 139  2459.813
 140  2427.253
 141  2650.71
 142  2695.192
 143  2589.871
 144  2600.392
 145  2489.861
 146  2491.582
 147  2357.793
 148  2301.705
 149  2150.016
 150  2056.24
 151  2211.157
 152  2410.494
 153  2301.516
 154  2307.848
 155  2364.978
 156  2408.538
 157  2301.305
 158  2328.239
 159  2262.133
 160  2291.949
 161  2210.291
 162  2388.686
 163  2373.2
 164  2416.715
 165  2401.664
 166  2246.444
 167  2072.645
 168  2153.272
 169  2125.818
 170  2152.621
 171  2317.625
 172  2470.94
 173  2576.055
 174  2468.567
 175  2405.584
 176  2225.145
 177  2122.652
 178  2106.255
 179  2295.254
 180  2134.077
 181  2143.32
 182  2035.558
 183  2191.932
 184  2116.792
 185  2286.26
 186  2206.413
 187  2343.236
 188  2430.889
 189  2557.054
 190  2349.129
 191  2217.833
 192  2314.004
 193  2354.577
 194  2190.042
 195  2139.344
 196  2223.807
 197  2022.219
 198  1935.962
 199  2226.727
 200  2402.765
 201  2463.243
 202  2537.73
 203  2583.905
 204  2466.425
 205  2386.913
 206  2589.836
 207  2507.079
 208  2343.515
 209  2140.539
 210  2390.437
 211  2368.091
 212  2364.659
 213  2166.583
 214  2228.325
 215  2044.093
 216  2139.364
 217  2086.685
 218  2107.139
 219  2120.056
 220  2218.579
 221  2273.863
 222  2183.568
 223  2336.93
 224  2381.276
 225  2451.801
 226  2380.742
 227  2410.746
 228  2107.623
 229  2056.115
 230  2051.984
 231  2060.209
 232  2125.992
 233  2263.904
 234  2316.162
 235  2407.22
 236  2460.875
 237  2627.131
 238  2545.792
 239  2578.743
 240  2545.398
 241  2559.045
 242  2333.897
 243  2211.665
 244  2034.894
 245  2082.207
 246  2032.044
 247  2122.194
 248  1977.291
 249  1962.235
 250  2022.51
 251  2172.994
 252  2184.837
 253  2162.767
 254  2184.053
 255  2225.811
 256  2169.16
 257  2151.276
 258  2203.246
 259  2175.66
 260  2238.961
 261  2362.729
 262  2291.959
 263  2145.343
 264  2202.884
 265  2074.939
 266  2093.946
 267  2141.344
 268  2241.385
 269  2269.956
 270  2174.025
 271  2270.496
 272  2302.717
 273  2326.011
 274  2402.699
 275  2424.142
 276  2567.061
 277  2517.274
 278  2444.582
 279  2294.352
 280  2046.974
 281  2030.166
 282  2053.616
 283  2058.068
 284  2031.843
 285  2197.153
 286  2237.297
 287  2170.789
 288  2055.767
 289  2227.656
 290  2114.414
 291  2325.726
 292  2370.281
 293  2363.29
 294  2339.403
 295  2383.374
 296  2223.528
 297  2144.701
 298  2047.382
 299  2222.063
 300  2133.432
 301  2252.926
 302  2314.615
 303  2327.564
 304  2423.758
 305  2518.452
 306  2596.851
 307  2553.465
 308  2417.35
 309  2271.464
 310  2292.738
 311  2217.457
 312  2277.386
 313  2156.393
 314  2161.843
 315  2040.527
 316  2050.261
 317  2099.632
 318  2204.544
 319  2314.685
 320  2476.422
 321  2339.666
 322  2384.219
 323  2246.282
 324  2104.476
 325  2051.73
 326  2115.16
 327  2119.63
 328  2069.646
 329  2117.775
 330  2035.171
 331  1952.056
 332  2110.404
 333  2210.127
 334  2244.386
 335  2264.665
 336  2354.175
 337  2444.767
 338  2391.793
 339  2619.945
 340  2530.709
 341  2461.543
 342  2246.72
 343  2423.65
 344  2551.874
 345  2487.934
 346  2158.358
 347  2048.965
 348  1972.302
 349  2036.275
 350  2128.034
 351  2232.801
 352  2149.911
 353  2117.998
 354  2215.598
 355  2235.677
 356  2358.402
 357  2444.415
 358  2371.625
 359  2331.498
 360  2253.205
 361  2146.573
 362  2090.875
 363  2159.38
 364  2238.146
 365  2234.234
 366  2098.767
 367  2233.062
 368  2216.424
 369  2380.047
 370  2546.757
 371  2496.109
 372  2407.614
 373  2352.994
 374  2489.49
 375  2298.318
 376  2244.766
 377  2243.126
 378  2383.653
 379  2309.739
 380  2219.875
 381  2220.223
 382  2114.947
 383  2069.202
 384  2203.492
 385  2350.099
 386  2206.116
 387  2283.873
 388  2321.323
 389  2343.898
 390  2149.444
 391  2236.073
 392  2239.613
 393  2286.482
 394  2276.786
 395  2216.036
 396  2047.335
 397  1951.215
 398  2001.417
 399  2206.599
 400  2402.526
 401  2618.957
 402  2643.216
 403  2573.715
 404  2507.444
 405  2428.936
 406  2201.455
 407  2153.113
 408  2166.048
 409  2224.421
 410  2128.363
 411  2104.406
 412  2109.797
 413  2003.779
 414  1897.959
 415  1894.149
 416  2062.393
 417  2222.974
 418  2499.594
 419  2448.997
 420  2392.411
 421  2334.757
 422  2439.063
 423  2183.926
 424  2191.243
 425  2288.477
 426  2269.765
 427  2137.667
 428  2120.245
 429  2142.264
 430  2178.019
 431  2181.598
 432  2454.539
 433  2361.583
 434  2374.224
 435  2472.294
 436  2435.119
 437  2324.488
 438  2339.306
 439  2340.5
 440  2307.269
 441  2088.258
 442  2125.167
 443  2160.924
 444  2131.612
 445  2194.756
 446  2159.551
 447  2302.82
 448  2204.189
 449  2356.261
 450  2254.195
 451  2232.754
 452  2228.811
 453  2443.61
 454  2277.88
 455  2251.963
 456  2218.316
 457  2281.795
 458  2327.759
 459  2381.854
 460  2565.256
 461  2347.128
 462  2208.681
 463  2008.686
 464  1872.178
 465  1925.677
 466  2091.222
 467  2280.621
 468  2453.908
 469  2563.841
 470  2708.94
 471  2550.221
 472  2553.292
 473  2535.761
 474  2577.645
 475  2319.802
 476  2157.545
 477  2049.11
 478  2004.308
 479  1776.381
 480  1833.079
 481  1823.861
 482  1856.939
 483  2000.481
 484  2267.562
 485  2371.348
 486  2475.218
 487  2403.517
 488  2552.334
 489  2488.975
 490  2493.603
 491  2365.843
 492  2305.184
 493  2210.656
 494  2147.115
 495  1996.292
 496  1952.241
 497  2079.912
 498  1972.434
 499  1949.228
 500  2148.557
 501  2341.744
 502  2315.972
 503  2357.762
 504  2523.32
 505  2578.674
 506  2386.582
 507  2385.065
 508  2366.14
 509  2390.61
 510  2337.614
 511  2344.992
 512  2176.493
 513  2050.559
 514  2125.942
 515  2161.894
 516  2164.99
 517  2208.982
 518  2356.584
 519  2310.961
 520  2344.299
 521  2447.885
 522  2394.391
 523  2223.089
 524  2224.378
 525  2247.004
 526  2234.789
 527  2302.895
 528  2459.266
 529  2117.105
 530  1992.3
 531  2163.515
 532  2308.382
 533  2373.929
 534  2414.541
 535  2539.536
 536  2579.786
 537  2500.93
 538  2434.869
 539  2258.105
 540  2114.649
 541  2087.12
 542  2001.095
 543  1929.183
 544  1890.822
 545  1955.515
 546  1908.459
 547  1847.56
 548  2100.176
 549  2354.302
 550  2416.406
 551  2264.413
 552  2330.707
 553  2298.458
 554  2413.05
 555  2507.332
 556  2424.796
 557  2303.878
 558  2144.369
 559  2341.014
 560  2108.118
 561  2212.986
 562  2256.104
 563  2230.186
 564  2121.821
 565  2235.92
 566  2206.041
 567  2110.413
 568  2138.992
 569  2257.297
 570  2291.753
 571  2140.937
 572  2294.55
 573  2341.355
 574  2384.84
 575  2259.937
 576  2293.088
 577  2162.199
 578  2077.888
 579  2078.523
 580  2123.434
 581  2040.516
 582  2065.824
 583  2102.891
 584  2298.241
 585  2441.463
 586  2733.984
 587  2552.54
 588  2514.844
 589  2379.158
 590  2385.388
 591  2047.567
 592  2146.552
 593  2233.166
 594  2116.976
 595  1964.79
 596  2163.615
 597  2226.292
 598  2382.676
 599  2437.313
 600  2514.285
 601  2452.364
 602  2433.317
 603  2559.263
 604  2487.923
 605  2392.988
 606  2295.626
 607  2225.827
 608  2105.616
 609  2175.621
 610  2280.686
 611  2348.041
 612  2200.318
 613  2275.822
 614  2384.772
 615  2512.332
 616  2500.315
 617  2481.409
 618  2445.744
 619  2244.442
 620  2170.608
 621  2236.888
 622  2192.758
 623  2340.719
 624  2384.529
 625  2269.208
 626  2148.69
 627  2169.541
 628  2097.143
 629  2040.883
 630  2073.327
 631  2247.399
 632  2343.79
 633  2528.449
 634  2908.068
 635  2920.445
 636  2873.879
 637  2689.998
 638  2731.631
 639  2471.746
 640  2489.304
 641  2461.478
 642  2534.396
 643  2431.721
 644  2523.637
 645  2509.07
 646  2568.264
 647  2629.316
 648  2953.115
 649  3113.428
 650  3250.285
 651  3384.098
 652  3523.364
 653  3287.556
 654  3174.756
 655  2945.791
 656  2579.583
 657  2468.77
 658  2595.462
 659  2510.873
 660  2338.442
 661  2215.366
 662  2248.867
 663  2182.205
 664  2238.973
 665  2340.926
 666  2331.165
 667  2445.106
 668  2466.333
 669  2548.712
 670  2341.387
 671  2284.664
 672  1934.712
 673  1838.788
 674  1777.834
 675  1889.609
 676  2040.25
 677  2155.734
 678  2150.501
 679  2100.448
 680  2136.705
 681  2237.754
 682  2321.109
 683  2362.248
 684  2289.057
 685  2347.063
 686  2265.237
 687  2066.457
 688  1996.267
 689  2103.284
 690  2061.95
 691  2060.37
 692  2227.764
 693  2226.326
 694  2122.709
 695  2156.042
 696  2208.438
 697  2306.501
 698  2255.126
 699  2446.193
 700  2448.262
 701  2404.569
 702  2581.607
 703  2587.987
 704  2693.406
 705  2379.142
 706  2282.838
 707  2161.265
 708  2019.741
 709  1902.501
 710  1818.433
 711  1946.509
 712  2053.819
 713  2135.124
 714  2065.377
 715  2056.958
 716  2136.496
 717  2310.451
 718  2149.042
 719  2333.542
 720  2353.186
 721  2265.7
 722  2189.035
 723  2218.564
 724  2088.785
 725  1992.915
 726  2062.659
 727  2340.345
 728  2216.97
 729  2197.906
 730  2368.293
 731  2299.721
 732  2258.748
 733  2222.903
 734  2426.555
 735  2236.811
 736  2301.479
 737  2331.617
 738  2324.642
 739  2074.387
 740  2070.26
 741  2139.418
 742  2205.456
 743  2207.83
 744  2284.344
 745  2242.592
 746  2236.777
 747  2379.475
 748  2534.007
 749  2385.551
 750  2305.349
 751  2246.117
 752  2349.969
 753  2265.885
 754  2246.686
 755  2078.317
 756  2051.845
 757  2113.452
 758  2112.451
 759  2063.881
 760  2038.123
 761  2126.804
 762  2105.4
 763  2257.349
 764  2457.767
 765  2583.709
 766  2507.518
 767  2655.567
 768  2581.471
 769  2494.757
 770  2499.266
 771  2666.136
 772  2528.798
 773  2303.399
 774  2113.91
 775  2068.49
 776  1851.303
 777  1804.958
 778  1888.492
 779  2153.158
 780  2064.704
 781  2269.474
 782  2336.297
 783  2409.835
 784  2441.483
 785  2600.808
 786  2461.624
 787  2372.872
 788  2372.102
 789  2272.831
 790  2052.274
 791  1911.501
 792  2126.354
 793  2044.34
 794  1975.393
 795  2021.426
 796  2069.752
 797  2228.932
 798  2429.279
 799  2518.467
 800  2486.515
 801  2387.264
 802  2455.93
 803  2381.178
 804  2356.774
 805  2267.928
 806  2262.221
 807  2210.757
 808  2200.531
 809  2181.528
 810  2247.296
 811  2109.345
 812  2177.802
 813  2186.783
 814  2276.47
 815  2383.351
 816  2385.896
 817  2368.129
 818  2265.598
 819  2287.931
 820  2222.662
 821  2225.18
 822  2305.721
 823  2395.62
 824  2151.788
 825  2224.169
 826  2295.273
 827  2397.973
 828  2333.798
 829  2678.269
 830  2643.745
 831  2649.249
 832  2625.8
 833  2772.776
 834  2659.236
 835  2525.934
 836  2497.175
 837  2494.494
 838  2266.168
 839  2105.48
 840  2096.173
 841  2000.248
 842  1880.728
 843  2064.923
 844  2144.019
 845  2210.186
 846  2358.055
 847  2571.543
 848  2646.124
 849  2494.384
 850  2585.67
 851  2529.509
 852  2543.858
 853  2351.791
 854  2221.964
 855  2008.993
 856  2113.354
 857  2211.4
 858  2165.135
 859  2118.24
 860  2394.679
 861  2307.196
 862  2313.097
 863  2206.346
 864  2316.787
 865  2408.428
 866  2478.76
 867  2576.648
 868  2392.154
 869  2251.491
 870  2359.401
 871  2544.17
 872  2554.383
 873  2273.169
 874  2053.719
 875  2158.688
 876  2090.093
 877  2122.868
 878  2003.174
 879  1929.677
 880  2083.791
 881  2222.351
 882  2404.484
 883  2392.871
 884  2331.157
 885  2342
 886  2222.963
 887  2286.991
 888  2196.26
 889  2145.767
 890  2064.555
 891  2282.003
 892  2095.496
 893  2182.577
 894  2276.85
 895  2427.634
 896  2372.047
 897  2425.529
 898  2499.774
 899  2414.913
 900  2514.237
 901  2483.992
 902  2488.084
 903  2219.162
 904  2224.842
 905  2141.686
 906  2126.867
 907  1943.482
 908  1987.699
 909  1938.619
 910  1973.228
 911  2071.801
 912  2330.962
 913  2327.409
 914  2360.582
 915  2388.126
 916  2542.844
 917  2488.403
 918  2544.737
 919  2537.418
 920  2261.401
 921  2058.247
 922  2099.713
 923  2017.902
 924  1979.075
 925  2111.881
 926  2118.991
 927  2087.746
 928  2138.768
 929  2369.468
 930  2453.181
 931  2580.098
 932  2544.549
 933  2589.969
 934  2297.146
 935  2333.828
 936  2289.647
 937  2412.992
 938  2322.499
 939  2296.752
 940  2241.096
 941  2180.426
 942  2045.362
 943  1994.858
 944  1901.61
 945  2034.884
 946  2141.768
 947  2336.929
 948  2347.474
 949  2364.108
 950  2234.642
 951  2232.746
 952  2332.029
 953  2453.338
 954  2347.392
 955  2354.521
 956  2435.638
 957  2135.954
 958  2054.311
 959  2153.623
 960  2336.045
 961  2334.566
 962  2419.787
 963  2497.422
 964  2526.358
 965  2464.696
 966  2473.897
 967  2261.591
 968  2280.492
 969  2156.678
 970  2230.454
 971  2129.686
 972  2192.159
 973  2215.021
 974  2210.145
 975  2220.03
 976  2361.569
 977  2580.546
 978  2566.232
 979  2510.487
 980  2407.312
 981  2472.87
 982  2378.803
 983  2508.985
 984  2392.023
 985  2224.4
 986  2126.198
 987  2199.758
 988  2081.323
 989  2180.944
 990  2378.481
 991  2509.136
 992  2338.648
 993  2310.768
 994  2347.099
 995  2520.238
 996  2672.35
 997  2850.27
 998  2663.637
 999  2487.457
1000  2480.159
1001  2693.851
1002  2511.243
1003  2402.081
1004  2299.219
1005  2400.615
1006  2212.28
1007  2153.51
1008  2149.908
1009  2079.425
1010  2013.67
1011  2119.531
1012  2268.444
1013  2277.893
1014  2422.197
1015  2486.757
1016  2534.499
1017  2437.77
1018  2616.505
1019  2470.5
1020  2566.591
1021  2440.18
1022  2327.838
1023  2135.055
