# Input file       =  1184372028.105099_cleaned.dat
# Candidate        =  PSR_0332+5434
# Telescope        =  AR
# Epoch_topo       =  57952.009804457164
# Epoch_bary       =  N/A
# T_sample         =  0.002
# Data Folded      =  7143424
# Data Avg         =  0.107962619240926
# Data StdDev      =  4.39315371114754 
# Profile Bins     =  1024
# Profile Avg      =  753.193384171123 
# Profile StdDev   =  366.926970281105 
# Reduced chi-sqr  =  0.606
# Prob(Noise)      <  1   (~0.0 sigma)
# P_topo (ms)      =  714.476959324488  +/- 3.28e-05
# P'_topo (s/s)    =  -0                +/- 1.78e-11
# P''_topo (s/s^2) =  0                 +/- 8.08e-15
# P_bary (ms)      =  N/A
# P'_bary (s/s)    =  N/A
# P''_bary (s/s^2) =  N/A
# P_orb (s)        =  N/A
# asin(i)/c (s)    =  N/A
# eccentricity     =  N/A
# w (rad)          =  N/A
# T_peri           =  N/A
######################################################
   0  720.7887
   1  449.1001
   2  440.3725
   3  423.2605
   4  574.1427
   5  626.1206
   6  763.973
   7  869.6263
   8  911.85
   9  815.0265
  10  684.1081
  11  900.8745
  12  997.6118
  13  941.7512
  14  758.035
  15  778.3267
  16  741.9041
  17  745.8045
  18  962.1642
  19  875.4358
  20  631.8082
  21  705.2888
  22  705.1919
  23  794.8458
  24  755.6572
  25  776.6318
  26  535.0132
  27  530.8956
  28  644.6204
  29  699.2692
  30  767.0449
  31  785.9061
  32  581.8099
  33  548.4071
  34  555.2823
  35  614.4492
  36  813.0037
  37  844.8129
  38  876.9939
  39  789.3931
  40  941.7592
  41  875.1666
  42  969.0471
  43  1037.176
  44  983.6846
  45  781.1176
  46  717.8952
  47  537.6422
  48  687.9627
  49  807.2891
  50  904.7512
  51  695.2617
  52  764.9098
  53  677.5159
  54  680.6228
  55  665.9937
  56  728.9604
  57  663.445
  58  863.8428
  59  941.6087
  60  828.5839
  61  778.7273
  62  800.829
  63  679.3067
  64  687.9661
  65  715.52
  66  650.9093
  67  665.9162
  68  612.3715
  69  750.1156
  70  675.4235
  71  759.9363
  72  726.5439
  73  978.7305
  74  1064.576
  75  864.7013
  76  822.9189
  77  1022.96
  78  1018.902
  79  934.3819
  80  784.0917
  81  821.3436
  82  580.3654
  83  660.8586
  84  431.4012
  85  345.407
  86  531.5082
  87  709.1801
  88  730.472
  89  782.613
  90  814.267
  91  686.3921
  92  671.1291
  93  607.363
  94  553.1805
  95  580.6149
  96  665.2037
  97  515.1606
  98  527.9831
  99  608.0436
 100  627.3037
 101  778.5258
 102  988.567
 103  883.9243
 104  817.1306
 105  826.8179
 106  912.1519
 107  792.8798
 108  732.3664
 109  661.7103
 110  638.5569
 111  680.6166
 112  664.3846
 113  612.15
 114  716.9954
 115  697.3041
 116  536.8533
 117  676.7278
 118  756.4305
 119  750.9972
 120  701.435
 121  852.8318
 122  793.5224
 123  963.9452
 124  862.1222
 125  717.1705
 126  561.0675
 127  680.4113
 128  578.1159
 129  635.2542
 130  725.2077
 131  718.5317
 132  606.0884
 133  607.77
 134  607.3157
 135  598.7156
 136  717.4334
 137  788.6224
 138  908.3489
 139  1020.177
 140  917.8633
 141  901.8973
 142  896.1276
 143  850.2169
 144  775.9095
 145  873.8436
 146  856.0568
 147  617.6063
 148  576.4364
 149  489.8713
 150  494.9609
 151  577.6955
 152  846.0927
 153  824.8139
 154  899.8456
 155  722.4526
 156  602.8607
 157  561.4698
 158  614.2619
 159  506.2206
 160  660.9338
 161  796.0771
 162  832.7884
 163  678.2885
 164  806.8109
 165  734.4308
 166  695.2207
 167  756.0971
 168  699.2856
 169  687.7427
 170  691.0673
 171  687.4329
 172  622.8
 173  710.847
 174  670.6816
 175  671.1157
 176  850.1984
 177  950.4213
 178  750.3221
 179  842.2714
 180  897.0637
 181  1013.813
 182  1042.144
 183  1115.412
 184  874.5904
 185  690.6517
 186  650.8773
 187  690.9183
 188  778.7755
 189  880.8885
 190  698.8887
 191  606.7504
 192  696.9505
 193  727.3192
 194  718.5001
 195  680.7558
 196  691.1813
 197  786.1925
 198  908.1829
 199  787.3077
 200  580.2402
 201  684.6132
 202  733.3331
 203  719.9572
 204  861.0505
 205  864.4507
 206  884.4924
 207  982.1419
 208  942.1625
 209  656.5278
 210  529.7281
 211  744.5976
 212  748.6198
 213  732.8913
 214  754.2802
 215  819.2682
 216  746.0577
 217  687.337
 218  620.8817
 219  846.7284
 220  934.9854
 221  860.5427
 222  938.6751
 223  961.3057
 224  867.903
 225  761.0521
 226  896.9356
 227  825.9485
 228  768.4252
 229  857.4512
 230  963.1152
 231  768.5401
 232  721.5507
 233  796.2849
 234  843.2815
 235  920.5638
 236  792.4814
 237  733.7001
 238  690.1291
 239  685.6095
 240  733.8242
 241  838.0399
 242  829.845
 243  675.1439
 244  644.3712
 245  627.6971
 246  388.0761
 247  555.8767
 248  740.9985
 249  760.2219
 250  626.252
 251  768.9111
 252  715.247
 253  640.7308
 254  691.572
 255  722.097
 256  730.8187
 257  669.1428
 258  688.8622
 259  601.1862
 260  649.4591
 261  512.306
 262  579.8244
 263  693.8279
 264  782.4052
 265  640.3469
 266  559.9493
 267  443.78
 268  368.5367
 269  696.6212
 270  894.047
 271  916.0535
 272  908.8037
 273  1111.009
 274  1031.884
 275  1057.775
 276  961.4281
 277  887.78
 278  873.4946
 279  904.4885
 280  737.3029
 281  601.9878
 282  507.2893
 283  571.0345
 284  672.2819
 285  860.5137
 286  710.3918
 287  761.7401
 288  697.4174
 289  708.0955
 290  721.7562
 291  976.9227
 292  901.2932
 293  803.856
 294  891.9096
 295  987.3055
 296  825.2151
 297  782.3138
 298  634.5903
 299  557.1661
 300  455.6086
 301  602.4193
 302  571.5865
 303  674.8853
 304  630.8896
 305  707.4722
 306  836.0443
 307  918.2957
 308  842.4619
 309  918.0905
 310  920.7581
 311  677.0618
 312  722.7357
 313  794.7141
 314  807.5465
 315  676.4189
 316  811.7034
 317  764.0919
 318  785.3145
 319  724.2235
 320  697.9706
 321  619.7858
 322  697.585
 323  726.6327
 324  703.1232
 325  724.7581
 326  722.8261
 327  682.418
 328  814.5249
 329  788.3041
 330  630.0416
 331  722.0505
 332  855.1091
 333  667.0576
 334  602.9495
 335  678.8391
 336  672.7749
 337  618.8502
 338  769.6135
 339  882.2275
 340  853.2724
 341  724.3646
 342  563.4767
 343  605.9822
 344  635.5414
 345  787.8487
 346  791.7025
 347  861.6808
 348  647.0851
 349  605.2302
 350  704.3768
 351  724.8189
 352  728.97
 353  789.803
 354  801.1279
 355  672.1276
 356  842.838
 357  907.4782
 358  710.8251
 359  720.5765
 360  879.8466
 361  893.2767
 362  760.8578
 363  715.6022
 364  793.7271
 365  855.8073
 366  858.3854
 367  815.3995
 368  851.3124
 369  832.3061
 370  787.278
 371  766.7991
 372  671.0447
 373  457.8856
 374  659.0711
 375  935.3651
 376  901.8889
 377  746.6723
 378  838.48
 379  896.0846
 380  759.6023
 381  736.3611
 382  723.4737
 383  604.7551
 384  631.0241
 385  547.3273
 386  478.3607
 387  400.5018
 388  499.411
 389  592.661
 390  778.0591
 391  771.9324
 392  724.9841
 393  732.0251
 394  752.0002
 395  722.376
 396  754.8657
 397  812.2386
 398  637.1534
 399  702.0978
 400  854.861
 401  902.3611
 402  893.0804
 403  1033.088
 404  995.4567
 405  768.7701
 406  634.1005
 407  598.3716
 408  662.9427
 409  725.8231
 410  728.5604
 411  693.0585
 412  736.5471
 413  681.4169
 414  627.204
 415  728.3002
 416  735.8716
 417  770.0805
 418  1046.085
 419  1196.43
 420  1033.843
 421  932.3773
 422  874.4929
 423  676.5615
 424  693.4133
 425  719.339
 426  737.2065
 427  727.8106
 428  833.8288
 429  746.6555
 430  636.7631
 431  580.7416
 432  636.272
 433  797.8148
 434  916.2712
 435  880.8859
 436  889.8504
 437  923.3776
 438  816.2364
 439  890.7185
 440  1059.648
 441  1076.548
 442  925.9944
 443  979.4097
 444  906.2125
 445  845.2957
 446  913.0978
 447  842.2006
 448  551.0298
 449  618.9373
 450  680.5217
 451  833.974
 452  742.4819
 453  927.8287
 454  717.637
 455  806.3871
 456  740.9829
 457  706.8826
 458  623.2665
 459  655.6995
 460  685.1713
 461  881.9396
 462  992.1999
 463  839.8905
 464  682.7648
 465  802.6483
 466  813.6685
 467  724.7318
 468  729.7816
 469  790.1956
 470  722.1025
 471  756.9839
 472  602.9397
 473  534.062
 474  592.3052
 475  641.8024
 476  743.6157
 477  866.3551
 478  906.9561
 479  737.9919
 480  806.2284
 481  626.8657
 482  619.9213
 483  749.9993
 484  962.0157
 485  740.845
 486  730.8707
 487  881.4883
 488  785.901
 489  728.1264
 490  785.3317
 491  731.2311
 492  528.4604
 493  519.3063
 494  576.1451
 495  668.5701
 496  651.5404
 497  615.2789
 498  722.9028
 499  907.5252
 500  828.1665
 501  796.7962
 502  800.8854
 503  751.928
 504  736.8312
 505  846.4115
 506  807.728
 507  634.3862
 508  694.3087
 509  762.5695
 510  571.6584
 511  682.5709
 512  755.4683
 513  739.8499
 514  642.9294
 515  661.0507
 516  632.0842
 517  612.0355
 518  636.0489
 519  595.4512
 520  687.5264
 521  633.0355
 522  698.2907
 523  707.65
 524  826.7736
 525  750.3967
 526  813.9517
 527  957.9368
 528  843.2421
 529  748.7416
 530  736.6285
 531  640.1116
 532  567.3157
 533  567.5898
 534  706.5028
 535  582.3132
 536  717.2886
 537  713.3505
 538  603.1288
 539  445.4014
 540  531.2384
 541  634.9241
 542  917.5575
 543  927.4803
 544  937.9737
 545  952.7458
 546  777.9921
 547  519.0106
 548  402.6368
 549  652.7828
 550  565.3924
 551  597.0064
 552  692.2343
 553  760.7746
 554  786.6457
 555  898.2137
 556  898.6591
 557  847.004
 558  780.5513
 559  811.1124
 560  813.08
 561  806.5331
 562  624.8875
 563  576.8428
 564  620.257
 565  728.8975
 566  663.6984
 567  848.7495
 568  820.6741
 569  873.623
 570  981.4645
 571  1039.174
 572  792.9333
 573  712.8972
 574  718.5755
 575  510.0416
 576  599.3377
 577  746.9366
 578  735.9223
 579  627.555
 580  704.3909
 581  747.6459
 582  879.4739
 583  789.6237
 584  797.8534
 585  772.7125
 586  888.373
 587  762.3124
 588  622.4362
 589  588.7936
 590  560.6994
 591  548.7844
 592  782.6555
 593  737.2392
 594  713.6511
 595  804.3998
 596  893.3087
 597  748.8326
 598  606.6569
 599  588.2828
 600  593.4699
 601  608.7172
 602  645.6569
 603  649.8044
 604  811.7293
 605  857.7493
 606  627.7505
 607  730.2849
 608  758.4276
 609  814.3264
 610  865.1982
 611  969.8448
 612  895.7783
 613  720.6116
 614  754.4571
 615  740.564
 616  758.5778
 617  940.4401
 618  952.7379
 619  843.4986
 620  616.4318
 621  504.1997
 622  498.0658
 623  737.3096
 624  648.0413
 625  580.2531
 626  634.4535
 627  798.334
 628  853.1156
 629  830.6569
 630  912.9739
 631  801.0121
 632  1022.906
 633  1039.638
 634  1011.729
 635  878.2479
 636  832.4457
 637  657.1014
 638  780.8318
 639  883.2757
 640  948.9432
 641  890.3167
 642  952.0076
 643  843.8215
 644  908.988
 645  1000.246
 646  1129.356
 647  1389.55
 648  1653.415
 649  1687.232
 650  1705.7
 651  1810.758
 652  1655.853
 653  1519.284
 654  1616.083
 655  1632.251
 656  1297.821
 657  1089.952
 658  940.6772
 659  850.8185
 660  786.9049
 661  885.968
 662  801.8381
 663  684.1552
 664  554.1831
 665  570.4108
 666  673.9786
 667  859.9617
 668  830.5722
 669  1004.081
 670  1025.784
 671  876.0793
 672  895.6403
 673  883.5408
 674  768.2311
 675  775.2911
 676  941.2165
 677  876.7111
 678  616.1299
 679  616.5175
 680  681.3163
 681  726.0076
 682  826.6634
 683  752.635
 684  666.8829
 685  616.3527
 686  625.8617
 687  502.6343
 688  563.7134
 689  630.4352
 690  854.3256
 691  932.1061
 692  1058.505
 693  888.5657
 694  995.5618
 695  915.5193
 696  664.4289
 697  519.2281
 698  541.4422
 699  492.1146
 700  560.9303
 701  708.3624
 702  737.5475
 703  728.3045
 704  722.963
 705  740.5329
 706  720.9266
 707  697.5721
 708  677.5568
 709  693.7344
 710  664.7436
 711  535.8197
 712  490.0968
 713  763.5764
 714  635.233
 715  670.7015
 716  723.0308
 717  844.1728
 718  647.829
 719  888.7776
 720  977.9694
 721  940.9163
 722  848.2164
 723  1111.866
 724  864.0869
 725  711.2151
 726  589.8367
 727  730.9075
 728  764.077
 729  663.5268
 730  631.4462
 731  563.9005
 732  668.8154
 733  713.3371
 734  1033.909
 735  1088.444
 736  966.9114
 737  776.7095
 738  933.2394
 739  762.468
 740  714.5674
 741  847.9486
 742  986.5259
 743  710.2682
 744  638.2339
 745  612.7202
 746  674.8859
 747  618.7951
 748  775.8205
 749  703.6663
 750  909.0299
 751  953.8754
 752  1050.368
 753  990.6127
 754  919.2935
 755  700.9749
 756  755.9549
 757  747.4883
 758  571.3494
 759  637.9669
 760  792.1669
 761  905.0497
 762  871.5903
 763  1026.414
 764  810.0004
 765  795.3997
 766  806.6005
 767  826.1606
 768  601.3491
 769  608.8177
 770  671.7234
 771  789.8491
 772  719.7728
 773  680.1136
 774  553.6299
 775  708.9331
 776  667.7209
 777  639.7326
 778  822.6164
 779  795.9548
 780  703.3248
 781  764.3067
 782  723.9242
 783  524.6262
 784  434.3014
 785  550.524
 786  413.3567
 787  426.8304
 788  596.0932
 789  616.0255
 790  597.6268
 791  644.6739
 792  730.3047
 793  698.7017
 794  728.7948
 795  644.2927
 796  616.4161
 797  553.1115
 798  444.2794
 799  388.0609
 800  661.9045
 801  667.1945
 802  748.9569
 803  783.258
 804  831.886
 805  694.9698
 806  886.7585
 807  881.593
 808  804.1006
 809  808.6959
 810  947.3599
 811  836.4874
 812  676.9928
 813  570.8215
 814  566.2228
 815  705.1575
 816  677.803
 817  470.1928
 818  448.928
 819  492.626
 820  457.8071
 821  595.926
 822  671.0499
 823  691.9938
 824  724.7487
 825  846.9033
 826  624.464
 827  485.2361
 828  602.6724
 829  753.0541
 830  648.5331
 831  782.5015
 832  789.7812
 833  838.9272
 834  742.9543
 835  761.8207
 836  640.2807
 837  616.9691
 838  578.8008
 839  676.1554
 840  743.0253
 841  688.296
 842  723.9628
 843  960.1683
 844  890.335
 845  501.7718
 846  564.2923
 847  767.9273
 848  807.4308
 849  699.7935
 850  834.2153
 851  703.4113
 852  776.5443
 853  825.802
 854  874.3724
 855  590.6458
 856  634.1968
 857  621.5223
 858  672.3739
 859  627.2559
 860  547.9278
 861  633.2788
 862  640.4536
 863  608.8976
 864  651.3235
 865  819.9138
 866  912.6055
 867  926.9301
 868  1099.236
 869  959.0631
 870  613.4873
 871  719.5458
 872  862.3698
 873  826.1328
 874  687.999
 875  866.1621
 876  944.8903
 877  932.4967
 878  791.6419
 879  723.8595
 880  624.2729
 881  686.8351
 882  550.6871
 883  721.2462
 884  746.4326
 885  849.5925
 886  834.3163
 887  843.8486
 888  571.8322
 889  505.4731
 890  691.3658
 891  825.3722
 892  819.2599
 893  868.6099
 894  867.7211
 895  733.8718
 896  821.3143
 897  849.0697
 898  978.5593
 899  965.2396
 900  872.1467
 901  701.785
 902  722.2514
 903  721.0015
 904  593.5486
 905  678.7111
 906  750.7438
 907  768.9292
 908  781.6395
 909  721.7448
 910  639.7219
 911  751.4555
 912  1026.013
 913  910.3308
 914  853.0226
 915  816.1519
 916  867.7723
 917  765.932
 918  820.0427
 919  766.6213
 920  608.8287
 921  598.7571
 922  583.6498
 923  607.2455
 924  680.8789
 925  737.72
 926  746.3941
 927  823.5859
 928  823.2214
 929  845.1861
 930  873.6038
 931  838.9434
 932  712.9429
 933  934.0546
 934  872.785
 935  654.4322
 936  553.8906
 937  791.0045
 938  721.9969
 939  790.7935
 940  794.6299
 941  797.9596
 942  785.2701
 943  818.8052
 944  778.8972
 945  749.8152
 946  827.0425
 947  813.8534
 948  751.674
 949  858.0105
 950  671.8696
 951  675.3474
 952  744.3641
 953  805.2347
 954  682.1987
 955  750.8927
 956  739.1987
 957  642.2589
 958  723.7127
 959  798.9006
 960  700.3866
 961  574.8113
 962  568.2825
 963  508.2611
 964  521.523
 965  522.0516
 966  584.6658
 967  636.3002
 968  673.4537
 969  627.4357
 970  844.2544
 971  831.7521
 972  781.0783
 973  769.4783
 974  895.9406
 975  859.8708
 976  828.9992
 977  953.4014
 978  725.0905
 979  536.7074
 980  582.0917
 981  678.0764
 982  728.3694
 983  633.1982
 984  667.0045
 985  704.6235
 986  849.9817
 987  932.9364
 988  790.1338
 989  837.6765
 990  732.2345
 991  797.8571
 992  969.4254
 993  913.498
 994  778.0521
 995  750.9424
 996  743.2002
 997  685.8381
 998  713.0682
 999  872.9517
1000  829.0289
1001  764.6172
1002  726.8983
1003  430.9616
1004  507.6813
1005  716.7471
1006  786.1194
1007  720.1928
1008  706.9483
1009  615.1829
1010  604.7067
1011  649.3864
1012  722.4064
1013  523.4755
1014  653.6239
1015  606.711
1016  657.8481
1017  737.0862
1018  910.1093
1019  787.1264
1020  817.079
1021  777.8365
1022  793.2518
1023  697.4427
