# Input file       =  1184888937.102792_cleaned.dat
# Candidate        =  PSR_0332+5434
# Telescope        =  AR
# Epoch_topo       =  57957.992547486021
# Epoch_bary       =  N/A
# T_sample         =  0.002
# Data Folded      =  7143424
# Data Avg         =  0.143915173999213
# Data StdDev      =  4.98386329952405 
# Profile Bins     =  1024
# Profile Avg      =  1003.94706226696 
# Profile StdDev   =  416.264483564331 
# Reduced chi-sqr  =  0.563
# Prob(Noise)      <  1   (~0.0 sigma)
# P_topo (ms)      =  714.473414433775  +/- 0.000178
# P'_topo (s/s)    =  -0                +/- 9.63e-11
# P''_topo (s/s^2) =  0                 +/- 4.37e-14
# P_bary (ms)      =  N/A
# P'_bary (s/s)    =  N/A
# P''_bary (s/s^2) =  N/A
# P_orb (s)        =  N/A
# asin(i)/c (s)    =  N/A
# eccentricity     =  N/A
# w (rad)          =  N/A
# T_peri           =  N/A
######################################################
   0  908.2555
   1  892.3102
   2  909.1254
   3  976.9542
   4  948.4827
   5  1033.253
   6  1109.353
   7  1131.101
   8  1101.396
   9  1000.17
  10  969.2441
  11  870.2109
  12  976.3373
  13  922.7756
  14  735.4566
  15  656.5863
  16  714.959
  17  802.7663
  18  787.4557
  19  875.9187
  20  1030.098
  21  1033.027
  22  1133.462
  23  1130.042
  24  1163.027
  25  1094.38
  26  1033.929
  27  975.0681
  28  848.0866
  29  631.6732
  30  656.1521
  31  782.7483
  32  756.8846
  33  745.0997
  34  811.3187
  35  999.3607
  36  1033.723
  37  1061.826
  38  1006.409
  39  872.1547
  40  871.141
  41  1058.741
  42  1204.496
  43  1190.753
  44  1163.462
  45  1079.282
  46  993.0754
  47  962.6245
  48  1000.44
  49  1114.101
  50  1004.16
  51  1087.883
  52  1035.224
  53  1119.793
  54  1054.279
  55  1056.319
  56  1068.797
  57  1024.053
  58  1028.511
  59  1035.73
  60  1028.483
  61  1013.982
  62  1089.679
  63  1012.839
  64  997.2317
  65  879.8615
  66  867.5434
  67  850.6742
  68  801.923
  69  798.1683
  70  844.7261
  71  942.2309
  72  1031.887
  73  1075.427
  74  1188.41
  75  1056.465
  76  944.0383
  77  991.1934
  78  1186.824
  79  1149.799
  80  981.1207
  81  970.1063
  82  950.6779
  83  809.8227
  84  788.5791
  85  954.2813
  86  970.2993
  87  887.2063
  88  796.7449
  89  754.0677
  90  770.1859
  91  862.1829
  92  1006.185
  93  1030.366
  94  1002.382
  95  1074.596
  96  1183.264
  97  1064.295
  98  926.2693
  99  991.808
 100  1140.358
 101  1142.993
 102  995.8911
 103  906.4998
 104  788.6536
 105  769.8195
 106  865.0015
 107  945.99
 108  977.9887
 109  975.971
 110  943.8502
 111  1023.928
 112  1059.277
 113  1192.512
 114  1266.794
 115  1249.749
 116  1175.733
 117  1080.013
 118  1003.041
 119  819.3486
 120  608.3524
 121  779.0664
 122  983.9598
 123  1142.445
 124  1088.886
 125  1085.459
 126  1085.715
 127  1053.896
 128  1092.578
 129  1110.809
 130  996.3536
 131  960.2498
 132  1050.855
 133  1057.147
 134  970.2667
 135  835.0566
 136  842.8427
 137  874.105
 138  950.0718
 139  938.275
 140  956.96
 141  843.8602
 142  815.0303
 143  890.3941
 144  912.0948
 145  933.8109
 146  933.8464
 147  929.7957
 148  894.173
 149  905.5653
 150  1076.882
 151  1075.408
 152  1006.968
 153  1013.792
 154  909.427
 155  833.0919
 156  801.7837
 157  863.4028
 158  892.509
 159  843.541
 160  987.6352
 161  1038.384
 162  1020.537
 163  914.2919
 164  933.425
 165  957.6467
 166  1033.683
 167  1071.347
 168  1175.115
 169  1092.201
 170  963.5961
 171  914.496
 172  901.8687
 173  913.2709
 174  1068.734
 175  1158.023
 176  1322.708
 177  1213.531
 178  1037.669
 179  854.366
 180  793.7787
 181  851.163
 182  892.3536
 183  1074.336
 184  1194.921
 185  1118.849
 186  1112.965
 187  1038.066
 188  992.1731
 189  787.847
 190  779.4767
 191  945.7732
 192  980.6413
 193  966.8708
 194  932.9144
 195  967.3057
 196  983.2869
 197  1084.508
 198  1113.643
 199  1193.123
 200  1157.821
 201  1206.814
 202  1096.955
 203  1122.347
 204  1081.487
 205  1258.691
 206  1091.996
 207  894.9528
 208  668.6046
 209  690.4669
 210  939.2137
 211  1173.385
 212  1275.995
 213  1116.866
 214  1003.547
 215  1055.39
 216  1073.532
 217  1052.696
 218  965.7689
 219  1069.741
 220  986.1437
 221  940.3857
 222  989.7452
 223  996.783
 224  1039.444
 225  1141.062
 226  1186.378
 227  1149.333
 228  916.2347
 229  851.5295
 230  914.983
 231  870.0011
 232  767.2035
 233  871.0029
 234  903.7532
 235  963.5232
 236  1037.324
 237  1020.839
 238  1081.677
 239  1050.832
 240  1165.89
 241  1107.853
 242  1028.98
 243  1016.652
 244  1022.131
 245  1201.337
 246  1171.809
 247  1123.138
 248  1108.3
 249  1028.798
 250  873.5417
 251  863.1044
 252  868.8411
 253  920.488
 254  915.0071
 255  1043.786
 256  1122.148
 257  1054.03
 258  1048.357
 259  1202.521
 260  1243.485
 261  1157.714
 262  1107.495
 263  1124.841
 264  1081.939
 265  896.1014
 266  972.8536
 267  1076.435
 268  916.7111
 269  811.6487
 270  841.5211
 271  905.9032
 272  944.7713
 273  1056.993
 274  1166.794
 275  1008.421
 276  998.7201
 277  1021.493
 278  1004.794
 279  854.9366
 280  997.2811
 281  1141.942
 282  1153.606
 283  1075.342
 284  1217.577
 285  1170.048
 286  977.5275
 287  712.2877
 288  725.5325
 289  869.3338
 290  940.0431
 291  964.4333
 292  950.2658
 293  950.8654
 294  911.02
 295  980.9205
 296  1017.324
 297  1031.588
 298  968.7891
 299  1006.047
 300  1021.078
 301  1195.388
 302  1075.663
 303  1082.629
 304  887.6827
 305  1072.415
 306  1157.459
 307  1299.735
 308  1347.339
 309  1315.148
 310  1272.916
 311  1222.695
 312  1121.477
 313  1154.024
 314  1145.95
 315  1213.081
 316  1130.593
 317  1063.701
 318  987.804
 319  900.7975
 320  818.3839
 321  988.278
 322  964.3914
 323  1025.317
 324  1062.548
 325  1156.854
 326  1218.048
 327  960.4412
 328  854.8044
 329  940.5128
 330  1017.782
 331  1200.519
 332  1262.061
 333  1267.466
 334  1120.042
 335  1076.336
 336  1154.646
 337  1111.232
 338  963.477
 339  882.7946
 340  792.8861
 341  735.9172
 342  784.7499
 343  857.4457
 344  925.7136
 345  974.1848
 346  913.7242
 347  769.6138
 348  877.8868
 349  1043.163
 350  1252.781
 351  1099.214
 352  961.625
 353  907.711
 354  870.6433
 355  946.3525
 356  855.1728
 357  972.7285
 358  952.3336
 359  978.7089
 360  978.517
 361  963.3772
 362  979.107
 363  1178.29
 364  1145.399
 365  1131.015
 366  952.7971
 367  1046.538
 368  1130.453
 369  1031.83
 370  960.5779
 371  911.7899
 372  857.418
 373  943.8774
 374  906.8483
 375  1038.167
 376  1038.011
 377  940.1165
 378  1010.631
 379  1148.371
 380  1233.861
 381  999.3762
 382  841.7322
 383  896.9952
 384  857.7529
 385  945.4653
 386  1120.447
 387  1155.928
 388  1004.358
 389  850.2158
 390  865.1768
 391  975.1915
 392  919.7152
 393  1045.105
 394  1127.069
 395  1071.356
 396  1075.415
 397  992.374
 398  946.4575
 399  857.8318
 400  888.7188
 401  924.7272
 402  861.1525
 403  910.0591
 404  967.1717
 405  1043.852
 406  1034.386
 407  1045.877
 408  938.3962
 409  943.4977
 410  1052.061
 411  1202.195
 412  1179.583
 413  997.5714
 414  928.0667
 415  886.4232
 416  908.3262
 417  977.083
 418  904.0106
 419  1068.446
 420  944.5251
 421  905.0321
 422  964.3787
 423  1126.194
 424  1140.296
 425  1115.86
 426  1026.697
 427  1053.027
 428  1047.549
 429  998.2811
 430  968.5663
 431  751.3975
 432  732.1939
 433  786.6613
 434  886.4082
 435  876.0667
 436  912.9793
 437  997.0506
 438  1123.546
 439  1204.164
 440  1295.876
 441  1314.807
 442  1112.764
 443  880.5368
 444  892.4795
 445  853.821
 446  786.5149
 447  765.684
 448  891.6801
 449  890.863
 450  822.0734
 451  830.0528
 452  880.1768
 453  870.726
 454  933.1893
 455  883.4637
 456  881.9205
 457  817.3367
 458  936.7983
 459  1051.792
 460  977.0302
 461  1033.92
 462  943.7279
 463  924.1874
 464  835.679
 465  816.0646
 466  827.5892
 467  658.3739
 468  714.741
 469  774.657
 470  764.8275
 471  749.4265
 472  575.9895
 473  479.7806
 474  523.3365
 475  928.9652
 476  1219.932
 477  1400.936
 478  1322.642
 479  1264.093
 480  938.2628
 481  897.762
 482  859.0623
 483  829.1144
 484  716.3457
 485  606.0986
 486  600.7809
 487  669.9281
 488  902.6948
 489  1127.985
 490  1129.594
 491  1017.674
 492  1137.094
 493  1183.513
 494  1386.527
 495  1181.054
 496  1116.756
 497  899.1462
 498  794.5401
 499  857.4165
 500  967.6227
 501  1042.179
 502  1002.178
 503  985.1376
 504  835.9631
 505  628.8824
 506  675.0759
 507  708.0505
 508  734.2341
 509  762.8601
 510  875.3975
 511  892.8004
 512  997.7133
 513  1113.969
 514  1086.52
 515  964.0561
 516  1015.788
 517  1012.146
 518  951.4953
 519  783.5204
 520  797.6158
 521  846.4873
 522  940.7212
 523  982.8934
 524  1049.566
 525  1056.958
 526  1091.034
 527  1118.346
 528  1170.342
 529  1106.096
 530  886.8156
 531  809.4519
 532  626.7899
 533  720.2286
 534  792.5278
 535  751.3074
 536  704.2292
 537  769.6673
 538  926.4133
 539  999.0426
 540  1081.983
 541  1118.935
 542  1098.531
 543  1113.508
 544  1185.996
 545  1053.649
 546  1069.328
 547  1019.666
 548  991.5977
 549  884.2633
 550  857.2337
 551  877.7402
 552  820.4304
 553  812.4442
 554  952.7144
 555  913.3886
 556  1017.396
 557  1040.031
 558  1237.075
 559  1390.096
 560  1318.599
 561  1241.893
 562  1030.632
 563  988.5046
 564  886.3998
 565  991.2379
 566  1018.051
 567  1040.206
 568  908.0825
 569  852.6938
 570  792.9766
 571  904.2908
 572  1013.477
 573  1072.025
 574  1022.009
 575  963.8246
 576  741.5197
 577  696.801
 578  696.7509
 579  867.1779
 580  928.5466
 581  835.8866
 582  797.0989
 583  863.882
 584  934.8534
 585  1004.651
 586  832.5499
 587  831.0731
 588  803.87
 589  1019.971
 590  1159.009
 591  1057.59
 592  850.5257
 593  799.4269
 594  837.6002
 595  691.379
 596  779.7642
 597  648.0395
 598  820.9299
 599  781.0408
 600  877.7838
 601  842.2021
 602  916.7307
 603  947.4778
 604  972.8982
 605  1008.07
 606  971.041
 607  967.3058
 608  1130.139
 609  1210.32
 610  1044.445
 611  718.0713
 612  652.2266
 613  638.2504
 614  762.9852
 615  802.0972
 616  909.5328
 617  951.3552
 618  1108.867
 619  1233.635
 620  1070.48
 621  939.2863
 622  972.0369
 623  978.7233
 624  975.5737
 625  942.7729
 626  984.7982
 627  1109.817
 628  951.4999
 629  1077.789
 630  992.5145
 631  1066.681
 632  1063.232
 633  1279.216
 634  1277.743
 635  1113.536
 636  951.6068
 637  1080.76
 638  1047.694
 639  1210.941
 640  1237.065
 641  1284.918
 642  1279.801
 643  1464.5
 644  1654.197
 645  1824.837
 646  1826.433
 647  1895.66
 648  1827.485
 649  1909.574
 650  1855.979
 651  1863.11
 652  1928.641
 653  2028.255
 654  2003.651
 655  1818.066
 656  1497.664
 657  1286.224
 658  1257.451
 659  1200.612
 660  1080.789
 661  1045.885
 662  1065.41
 663  1088.29
 664  1122.617
 665  1016.283
 666  844.6696
 667  700.2735
 668  841.0616
 669  980.1792
 670  1108.482
 671  966.0167
 672  1059.232
 673  1218.876
 674  1407.89
 675  1101.172
 676  872.4586
 677  947.292
 678  919.8122
 679  964.1428
 680  879.245
 681  1016.4
 682  887.4124
 683  847.8013
 684  972.675
 685  964.7236
 686  893.8693
 687  949.2772
 688  1057.823
 689  1210.593
 690  1099.219
 691  1107.115
 692  1084.709
 693  1092.099
 694  1101.343
 695  1289.648
 696  1336.042
 697  1327.059
 698  1170.265
 699  1185.187
 700  1023.382
 701  862.8545
 702  861.3702
 703  897.6877
 704  957.7945
 705  909.7358
 706  1077.61
 707  1134.423
 708  1122.052
 709  1029.899
 710  1031.699
 711  1076.207
 712  1156.527
 713  1263.547
 714  1262.427
 715  1074.853
 716  840.8295
 717  908.0009
 718  1128.292
 719  1173.136
 720  1283.967
 721  1235.243
 722  1237.052
 723  1230.348
 724  1198.313
 725  1088.248
 726  1065.511
 727  959.0698
 728  1022.133
 729  899.9265
 730  769.3792
 731  744.7415
 732  773.2564
 733  1071.201
 734  1150.559
 735  1277.42
 736  1172.674
 737  1049.935
 738  1031.073
 739  1052.771
 740  975.468
 741  963.2275
 742  1120.762
 743  1191.48
 744  862.9653
 745  732.8682
 746  878.6411
 747  947.2335
 748  840.1207
 749  928.8569
 750  1056.927
 751  1236.516
 752  1165.473
 753  1214.746
 754  1068.408
 755  991.7452
 756  1080.585
 757  1174.743
 758  1149.345
 759  1066.326
 760  1156.685
 761  1147.017
 762  1120.983
 763  1000.533
 764  974.7264
 765  956.8353
 766  1059.917
 767  1160.31
 768  1024.172
 769  834.1716
 770  915.3766
 771  1048.057
 772  1184.761
 773  1179.851
 774  1123.555
 775  1012.7
 776  983.6521
 777  955.0383
 778  1028.509
 779  1000.227
 780  891.9569
 781  766.5385
 782  921.8973
 783  989.0576
 784  964.9655
 785  1007.378
 786  1069.896
 787  1076.964
 788  1007.211
 789  942.1328
 790  1007.512
 791  1112.34
 792  1180.452
 793  1284.493
 794  1275.371
 795  1195.564
 796  1226.633
 797  1140.868
 798  1020.712
 799  845.1996
 800  775.3768
 801  980.748
 802  862.0655
 803  859.7968
 804  717.6129
 805  856.084
 806  926.1582
 807  1135.323
 808  1145.916
 809  1083.138
 810  1037.1
 811  1021.105
 812  1002.142
 813  1004.673
 814  1111.267
 815  1136.89
 816  1035.643
 817  868.3181
 818  875.6745
 819  992.8819
 820  1144.808
 821  1143.219
 822  1152.905
 823  1110.753
 824  1072.44
 825  1019.614
 826  1090.003
 827  1227.194
 828  1201.957
 829  1132.177
 830  977.2344
 831  935.8512
 832  1059.752
 833  1082.209
 834  994.7017
 835  893.0478
 836  1096.288
 837  1259.183
 838  1265.906
 839  1007.255
 840  1050.262
 841  1141.652
 842  1251.908
 843  1106.955
 844  1102.976
 845  1096.193
 846  956.5088
 847  969.2354
 848  908.0146
 849  873.4307
 850  729.907
 851  806.1125
 852  901.2437
 853  958.3651
 854  949.6558
 855  1190.576
 856  1235.794
 857  1209.238
 858  1003.109
 859  952.2604
 860  931.8699
 861  992.0541
 862  1101.588
 863  1176.445
 864  1054.833
 865  973.1683
 866  1051.681
 867  1034.327
 868  1098.276
 869  1131.762
 870  1093.167
 871  958.6616
 872  927.8824
 873  973.3403
 874  1056.144
 875  1048.27
 876  1152.464
 877  1061.798
 878  990.6671
 879  943.316
 880  1096.884
 881  1234.67
 882  1159.63
 883  1124.325
 884  1053.659
 885  1040.369
 886  1061.611
 887  1042.55
 888  1017.962
 889  1040.79
 890  1001.057
 891  1112.584
 892  994.4797
 893  932.3225
 894  894.1537
 895  957.6514
 896  1002.16
 897  1139.772
 898  1029.108
 899  1080.941
 900  978.5576
 901  1142.921
 902  1149.825
 903  1181.421
 904  1034.429
 905  1107.839
 906  1161.151
 907  1169.023
 908  976.9448
 909  974.0625
 910  883.7302
 911  806.724
 912  729.3115
 913  844.7769
 914  901.7559
 915  955.3576
 916  1028.638
 917  1034.152
 918  938.4701
 919  914.1401
 920  1048.911
 921  1047.321
 922  1029.176
 923  987.045
 924  841.1166
 925  751.5306
 926  771.8751
 927  899.8236
 928  999.8909
 929  822.376
 930  848.4518
 931  911.704
 932  904.9402
 933  836.6287
 934  862.4411
 935  883.649
 936  791.1599
 937  821.746
 938  965.0124
 939  898.7445
 940  726.8508
 941  764.0126
 942  916.1302
 943  962.7162
 944  1035.891
 945  1148.917
 946  1204.99
 947  1004.031
 948  966.9933
 949  960.3023
 950  900.9248
 951  766.0025
 952  767.5402
 953  994.0595
 954  1029.708
 955  1022.35
 956  1129.362
 957  1209.379
 958  1134.038
 959  1022.535
 960  939.1595
 961  1033.656
 962  959.2528
 963  947.5234
 964  903.9207
 965  935.2704
 966  874.7056
 967  921.754
 968  964.462
 969  999.4191
 970  971.5782
 971  1045.349
 972  1050.117
 973  879.014
 974  729.799
 975  864.1802
 976  893.0625
 977  950.2712
 978  813.7462
 979  913.4047
 980  905.7211
 981  994.5361
 982  961.6326
 983  839.0245
 984  752.6899
 985  952.4215
 986  1023.382
 987  1147.557
 988  1092.85
 989  1163.861
 990  1234.608
 991  1083.321
 992  1246.802
 993  1208.428
 994  1208.676
 995  998.143
 996  925.4741
 997  823.3139
 998  681.2166
 999  744.4239
1000  751.2659
1001  684.7537
1002  721.884
1003  941.3046
1004  1065.466
1005  1093.948
1006  1105.715
1007  1202.874
1008  1166.158
1009  1118.2
1010  984.4207
1011  915.0474
1012  863.3393
1013  789.1443
1014  766.2811
1015  860.5144
1016  971.3777
1017  966.2757
1018  997.7416
1019  1046.427
1020  998.2366
1021  958.046
1022  924.9679
1023  984.8551
