# Input file       =  1184903540.128384_cleaned.dat
# Candidate        =  PSR_0332+5434
# Telescope        =  AR
# Epoch_topo       =  57958.161563985930
# Epoch_bary       =  N/A
# T_sample         =  0.002
# Data Folded      =  7340032
# Data Avg         =  0.127588346552719
# Data StdDev      =  3.21914012948407 
# Profile Bins     =  1024
# Profile Avg      =  914.032435456866 
# Profile StdDev   =  272.545414978659 
# Reduced chi-sqr  =  1.197
# Prob(Noise)      <  1.35e-05   (~4.2 sigma)
# P_topo (ms)      =  714.473333381643  +/- 0.000338
# P'_topo (s/s)    =  -0                +/- 1.79e-10
# P''_topo (s/s^2) =  0                 +/- 7.88e-14
# P_bary (ms)      =  N/A
# P'_bary (s/s)    =  N/A
# P''_bary (s/s^2) =  N/A
# P_orb (s)        =  N/A
# asin(i)/c (s)    =  N/A
# eccentricity     =  N/A
# w (rad)          =  N/A
# T_peri           =  N/A
######################################################
   0  779.8757
   1  828.3219
   2  953.7418
   3  1007.548
   4  931.525
   5  809.8116
   6  855.4138
   7  901.0136
   8  890.0608
   9  844.833
  10  755.1371
  11  792.5367
  12  790.7741
  13  762.2688
  14  799.6534
  15  837.0752
  16  918.3774
  17  890.796
  18  898.86
  19  980.6195
  20  978.4903
  21  924.6453
  22  914.1179
  23  994.3875
  24  1037.524
  25  1018.28
  26  1034.055
  27  1023.472
  28  955.8215
  29  918.9926
  30  997.9534
  31  991.6264
  32  979.2036
  33  817.882
  34  832.2457
  35  928.012
  36  1065.486
  37  1069.497
  38  1013.577
  39  1012.729
  40  1020.304
  41  1042.747
  42  1082.854
  43  1186.467
  44  1216.266
  45  1146.703
  46  1098.204
  47  1089.691
  48  1138.414
  49  1078.088
  50  1075.748
  51  1033.416
  52  1012.876
  53  987.3146
  54  941.1522
  55  908.1329
  56  970.983
  57  1084.742
  58  1132.826
  59  1117.134
  60  1105.353
  61  1180.971
  62  1202.548
  63  1112.479
  64  1035.37
  65  1027.807
  66  1087.898
  67  969.0485
  68  996.3359
  69  931.7165
  70  1011.542
  71  911.1034
  72  857.8303
  73  749.3542
  74  677.5385
  75  718.4727
  76  718.6561
  77  722.484
  78  727.7852
  79  826.4072
  80  947.3866
  81  930.3093
  82  933.0003
  83  926.7221
  84  936.4236
  85  957.8019
  86  907.1606
  87  826.532
  88  798.4121
  89  812.5227
  90  886.4827
  91  893.467
  92  861.6796
  93  871.0771
  94  948.4247
  95  1067.286
  96  1045.148
  97  1036.296
  98  1006.31
  99  966.5451
 100  978.4222
 101  968.2917
 102  963.7605
 103  915.3148
 104  1031.923
 105  1065.677
 106  1065.155
 107  956.2954
 108  963.2173
 109  949.8909
 110  953.6325
 111  950.9651
 112  927.5615
 113  891.5995
 114  979.1546
 115  1093.581
 116  989.2264
 117  891.5739
 118  843.4523
 119  940.9996
 120  1013.894
 121  1006.128
 122  896.3145
 123  916.001
 124  897.4153
 125  804.591
 126  728.7774
 127  827.4766
 128  939.3666
 129  967.1655
 130  934.7404
 131  951.2619
 132  927.3667
 133  895.0483
 134  856.4833
 135  740.5789
 136  750.8312
 137  680.7435
 138  734.7878
 139  808.5042
 140  878.2313
 141  962.8325
 142  926.0517
 143  933.3066
 144  885.0606
 145  965.64
 146  936.1135
 147  893.4084
 148  799.3124
 149  790.1151
 150  750.841
 151  740.3094
 152  763.0294
 153  835.0129
 154  907.0466
 155  1017.334
 156  925.5073
 157  901.2709
 158  927.9526
 159  989.2457
 160  967.5007
 161  855.774
 162  856.1234
 163  962.1981
 164  988.6818
 165  951.4645
 166  906.1881
 167  954.5789
 168  948.8827
 169  1025.629
 170  1027.861
 171  1032.285
 172  1007.436
 173  1036.662
 174  1031.923
 175  990.73
 176  1002.051
 177  1087.416
 178  1103.074
 179  1031.136
 180  973.4418
 181  959.6511
 182  930.7703
 183  969.4825
 184  1025.544
 185  1151.825
 186  1178.127
 187  1235.244
 188  1177.007
 189  1187.66
 190  1156.727
 191  1225.967
 192  1226.135
 193  1234.907
 194  1142.131
 195  1187.983
 196  1183.428
 197  1195.237
 198  1194.566
 199  1174.409
 200  1186.698
 201  1198.79
 202  1202.246
 203  1178.618
 204  1161.675
 205  1187.337
 206  1159.116
 207  1119.759
 208  1053.385
 209  1054.97
 210  1077.945
 211  1025.608
 212  951.2767
 213  994.5383
 214  1062.196
 215  1031.341
 216  1117.504
 217  1123.807
 218  1150.909
 219  1102.647
 220  1093.367
 221  1179.236
 222  1132.825
 223  1141.791
 224  930.814
 225  890.9406
 226  900.3362
 227  1013.668
 228  1009.418
 229  1012.029
 230  965.901
 231  1000.664
 232  987.9664
 233  1001.352
 234  1003.34
 235  932.4532
 236  839.7141
 237  857.5447
 238  951.001
 239  957.3567
 240  884.0271
 241  899.0739
 242  917.7927
 243  925.4105
 244  957.6496
 245  916.44
 246  946.1136
 247  918.7244
 248  987.8403
 249  901.9433
 250  807.854
 251  855.477
 252  896.5131
 253  924.1988
 254  885.2755
 255  914.2114
 256  941.2484
 257  935.0486
 258  953.5115
 259  1004.155
 260  1090.846
 261  1117.343
 262  1116.177
 263  1035.227
 264  980.5147
 265  867.7695
 266  930.3129
 267  987.1595
 268  1021.036
 269  1058.742
 270  1051.21
 271  1006.46
 272  916.1783
 273  867.9899
 274  899.0547
 275  937.9724
 276  986.6348
 277  1040.718
 278  976.6848
 279  936.7501
 280  817.3065
 281  810.5407
 282  915.978
 283  937.7656
 284  835.1135
 285  834.8766
 286  962.902
 287  1125.738
 288  1118.675
 289  1098.559
 290  998.4644
 291  942.0063
 292  888.1669
 293  902.7716
 294  890.5953
 295  894.037
 296  878.5216
 297  857.8685
 298  841.7465
 299  862.6063
 300  986.0154
 301  1021.524
 302  1035.484
 303  1051.324
 304  1016.666
 305  982.4286
 306  890.0844
 307  987.332
 308  976.8945
 309  995.8384
 310  1018.021
 311  1081.957
 312  1070.257
 313  927.702
 314  842.0082
 315  748.03
 316  894.0401
 317  1028.519
 318  1103.708
 319  1113.712
 320  1050.951
 321  1067.311
 322  1004.98
 323  984.0895
 324  1030.98
 325  1037.278
 326  989.5645
 327  1018.685
 328  1062.499
 329  1151.632
 330  1045.575
 331  1003.596
 332  935.0245
 333  896.1284
 334  934.8158
 335  917.9948
 336  1009.455
 337  1100.361
 338  1170.305
 339  1110.054
 340  1029.112
 341  954.6943
 342  1007.347
 343  1051.211
 344  1077.442
 345  1009.096
 346  989.653
 347  940.8693
 348  899.9715
 349  898.5693
 350  931.7222
 351  964.1755
 352  993.8526
 353  1058.371
 354  1113.779
 355  1114.108
 356  1103.196
 357  1085.154
 358  1036.764
 359  923.5566
 360  915.1841
 361  1003.706
 362  1028.452
 363  867.7567
 364  818.9102
 365  842.5438
 366  1014.424
 367  1046.383
 368  1086.059
 369  1056.838
 370  1022.437
 371  927.8115
 372  890.2667
 373  898.0886
 374  940.5365
 375  988.4868
 376  955.1872
 377  781.9526
 378  716.272
 379  797.4366
 380  989.5867
 381  1051.406
 382  970.0019
 383  868.2124
 384  852.0506
 385  850.4933
 386  869.8579
 387  865.1204
 388  850.8214
 389  825.514
 390  828.3295
 391  850.9229
 392  799.1025
 393  783.0323
 394  821.2642
 395  858.967
 396  811.6564
 397  737.3029
 398  703.0733
 399  726.9396
 400  746.9457
 401  827.1441
 402  884.2829
 403  890.0712
 404  910.6525
 405  940.8863
 406  986.4253
 407  871.5775
 408  845.9452
 409  798.2635
 410  866.5193
 411  897.403
 412  912.7974
 413  803.1744
 414  837.1489
 415  824.9474
 416  887.6296
 417  858.8232
 418  900.7067
 419  876.8235
 420  807.3982
 421  808.0095
 422  836.9597
 423  834.9641
 424  806.6025
 425  778.4575
 426  722.138
 427  641.3698
 428  588.711
 429  715.5452
 430  766.5391
 431  793.2831
 432  689.9814
 433  703.0461
 434  744.5791
 435  774.8419
 436  779.4943
 437  725.1694
 438  795.1273
 439  765.4918
 440  703.0159
 441  594.5818
 442  582.366
 443  564.8064
 444  534.2089
 445  496.3421
 446  570.2102
 447  562.4014
 448  597.267
 449  571.1215
 450  698.1014
 451  775.6724
 452  954.1056
 453  989.446
 454  864.3856
 455  688.0115
 456  547.1583
 457  548.34
 458  567.0099
 459  623.0682
 460  682.6892
 461  640.3513
 462  674.6963
 463  642.173
 464  720.678
 465  763.8135
 466  760.5427
 467  823.761
 468  820.7579
 469  893.0119
 470  836.2956
 471  834.0449
 472  788.4825
 473  789.2236
 474  855.3149
 475  874.3749
 476  866.972
 477  851.68
 478  896.2139
 479  946.6298
 480  947.3895
 481  839.2814
 482  822.386
 483  856.41
 484  883.8632
 485  856.484
 486  826.5452
 487  920.0844
 488  996.063
 489  1110.598
 490  1079.827
 491  1007.535
 492  900.156
 493  895.299
 494  947.5932
 495  953.0945
 496  825.3671
 497  715.9171
 498  719.9084
 499  793.7064
 500  875.4011
 501  858.8359
 502  829.5975
 503  922.3141
 504  993.9842
 505  1021.274
 506  905.9513
 507  886.6295
 508  906.4418
 509  965.4089
 510  973.0798
 511  902.779
 512  903.4855
 513  902.0384
 514  942.5438
 515  905.5974
 516  952.7408
 517  934.4396
 518  910.4116
 519  873.3779
 520  898.6337
 521  1001.434
 522  991.5084
 523  921.8151
 524  814.8183
 525  790.1921
 526  819.3445
 527  901.1996
 528  826.7295
 529  787.167
 530  776.8948
 531  719.077
 532  779.1267
 533  767.0126
 534  791.5002
 535  754.7651
 536  789.0893
 537  888.8793
 538  977.0622
 539  994.0395
 540  1035.167
 541  1031.348
 542  1047.826
 543  887.6486
 544  775.9297
 545  679.2583
 546  726.8036
 547  671.549
 548  668.2371
 549  646.0436
 550  699.0385
 551  700.4215
 552  659.8579
 553  701.2194
 554  779.321
 555  886.4881
 556  977.5995
 557  1046.484
 558  953.4582
 559  757.3265
 560  764.2911
 561  808.6185
 562  823.9568
 563  755.1821
 564  796.7671
 565  836.9136
 566  802.2105
 567  766.6988
 568  667.6092
 569  645.9178
 570  710.9008
 571  828.5455
 572  934.9914
 573  944.2924
 574  938.6915
 575  942.3618
 576  851.4771
 577  802.8051
 578  799.1523
 579  822.5643
 580  887.3676
 581  888.4855
 582  788.9473
 583  648.5668
 584  672.9446
 585  709.5806
 586  735.0706
 587  674.5263
 588  633.0378
 589  648.4939
 590  732.5537
 591  796.7534
 592  747.9904
 593  737.8261
 594  756.8384
 595  835.4938
 596  820.3322
 597  771.9421
 598  734.0587
 599  707.376
 600  714.8947
 601  639.8441
 602  651.9076
 603  708.9911
 604  844.6909
 605  989.4211
 606  1013.233
 607  1016.429
 608  939.6684
 609  885.5568
 610  833.0287
 611  784.1482
 612  752.0529
 613  760.4965
 614  893.5817
 615  955.9045
 616  1012.066
 617  967.3585
 618  1046.269
 619  1055.396
 620  1072.048
 621  954.2173
 622  934.5789
 623  974.0774
 624  1037.545
 625  1040.312
 626  1007.031
 627  1016.216
 628  968.8987
 629  1007.391
 630  981.1944
 631  1099.968
 632  1099.756
 633  1162.302
 634  1133.624
 635  1095.165
 636  1116.768
 637  1209.624
 638  1357.055
 639  1377.025
 640  1353.462
 641  1367.034
 642  1408.128
 643  1405.249
 644  1336.273
 645  1414.661
 646  1491.999
 647  1666.099
 648  1759.683
 649  1941.689
 650  2047.957
 651  2066.681
 652  2015.456
 653  1833.73
 654  1734.209
 655  1538.303
 656  1352.741
 657  1147.75
 658  1099.814
 659  1097.129
 660  1040.845
 661  1103.954
 662  1010.208
 663  925.1772
 664  761.8947
 665  786.9066
 666  870.1541
 667  975.1495
 668  1055.586
 669  978.9664
 670  903.5775
 671  852.1818
 672  820.8036
 673  836.8013
 674  845.1141
 675  956.5807
 676  982.0984
 677  1007.612
 678  1053.076
 679  1035.941
 680  1041.368
 681  1039.873
 682  1105.687
 683  1026.611
 684  1018.576
 685  958.952
 686  954.7064
 687  838.8135
 688  808.8795
 689  839.9886
 690  907.5811
 691  955.9136
 692  953.5991
 693  915.3043
 694  851.6507
 695  798.7568
 696  795.0061
 697  839.7034
 698  837.7457
 699  803.5981
 700  719.5897
 701  704.5451
 702  724.6209
 703  803.5442
 704  824.6076
 705  870.4796
 706  919.1213
 707  902.0238
 708  873.231
 709  736.7859
 710  770.8754
 711  778.0187
 712  902.4326
 713  854.1589
 714  737.752
 715  617.0185
 716  653.1722
 717  722.1977
 718  705.0222
 719  656.0554
 720  702.9892
 721  744.2197
 722  783.5766
 723  780.0559
 724  726.3666
 725  678.4647
 726  680.8209
 727  846.9753
 728  893.2557
 729  914.7411
 730  862.6543
 731  802.4838
 732  800.005
 733  806.9368
 734  863.2165
 735  726.0295
 736  665.9544
 737  658.678
 738  683.6117
 739  634.2339
 740  691.4087
 741  759.66
 742  834.7197
 743  875.2838
 744  870.2661
 745  800.3205
 746  629.5881
 747  633.5803
 748  719.2792
 749  864.3106
 750  953.2052
 751  1003.643
 752  1012.489
 753  798.2326
 754  730.04
 755  706.7573
 756  706.8306
 757  743.4343
 758  781.7256
 759  834.8642
 760  753.9764
 761  734.7551
 762  718.3339
 763  709.478
 764  800.4496
 765  870.2806
 766  967.1271
 767  887.1105
 768  935.6871
 769  947.877
 770  1011.426
 771  894.7609
 772  813.5861
 773  745.6902
 774  829.7752
 775  921.0717
 776  1076.266
 777  1160.438
 778  1107.931
 779  1139.323
 780  1045.327
 781  1085.786
 782  967.4374
 783  1039.541
 784  1023.715
 785  1067.855
 786  1050.122
 787  1042.679
 788  1091.763
 789  1136.502
 790  1217.488
 791  1194.126
 792  1116.129
 793  1000.738
 794  869.6194
 795  912.8727
 796  910.1765
 797  961.6514
 798  970.9304
 799  1049.497
 800  1079.033
 801  968.9133
 802  925.6684
 803  924.2812
 804  995.3787
 805  1007.582
 806  1015.626
 807  994.7036
 808  1002.531
 809  983.8088
 810  902.2753
 811  733.1121
 812  633.2922
 813  641.1889
 814  694.9325
 815  771.5524
 816  938.827
 817  1036.962
 818  1088.654
 819  977.4619
 820  922.5333
 821  929.7857
 822  1024.28
 823  997.8051
 824  927.5229
 825  835.8195
 826  807.2467
 827  805.2815
 828  818.4058
 829  911.4976
 830  1000.141
 831  1070.164
 832  1062.049
 833  1031.713
 834  868.175
 835  800.064
 836  794.1755
 837  873.6984
 838  1001.79
 839  1014.405
 840  925.8099
 841  848.1749
 842  841.3975
 843  877.0418
 844  862.9316
 845  815.8743
 846  806.9453
 847  840.2076
 848  898.2861
 849  820.5319
 850  743.6096
 851  718.1806
 852  811.9757
 853  850.6465
 854  884.5527
 855  892.3774
 856  886.127
 857  839.4392
 858  809.879
 859  807.3726
 860  869.2695
 861  827.4734
 862  815.5348
 863  837.3024
 864  886.1012
 865  800.6986
 866  815.5121
 867  769.2703
 868  824.4354
 869  787.129
 870  765.9612
 871  784.8903
 872  809.1887
 873  825.5183
 874  808.897
 875  799.5373
 876  765.4901
 877  671.6557
 878  603.832
 879  640.9337
 880  702.623
 881  788.966
 882  819.2174
 883  794.3111
 884  804.5685
 885  806.684
 886  779.7433
 887  630.6746
 888  663.5486
 889  761.6744
 890  808.9689
 891  652.001
 892  655.2509
 893  783.0228
 894  888.0589
 895  887.9871
 896  1055.673
 897  1073.448
 898  1107.701
 899  877.7877
 900  811.4756
 901  832.8717
 902  870.4312
 903  923.8943
 904  866.8961
 905  862.4991
 906  900.1979
 907  901.8378
 908  905.374
 909  833.6241
 910  759.8735
 911  826.7129
 912  885.1871
 913  941.645
 914  862.4789
 915  827.5502
 916  826.1004
 917  934.2472
 918  944.6266
 919  931.7411
 920  887.9543
 921  931.6093
 922  981.5172
 923  1037.432
 924  1018.377
 925  1069.187
 926  1028.763
 927  1005.975
 928  950.6159
 929  913.9489
 930  882.5195
 931  875.5381
 932  904.6785
 933  918.0317
 934  874.017
 935  889.4107
 936  831.4067
 937  871.9169
 938  955.2421
 939  1118.716
 940  1096.303
 941  926.4317
 942  814.2623
 943  818.1378
 944  864.7576
 945  856.6416
 946  902.7967
 947  969.7955
 948  955.5477
 949  902.7999
 950  899.3781
 951  884.8383
 952  883.2516
 953  975.3403
 954  1072.218
 955  1060.664
 956  872.862
 957  716.2576
 958  725.2051
 959  743.0371
 960  871.5859
 961  928.3419
 962  898.3425
 963  898.4951
 964  960.0581
 965  1133.67
 966  1029.999
 967  898.6886
 968  758.4033
 969  818.366
 970  751.9526
 971  782.3187
 972  810.4711
 973  787.2333
 974  736.6533
 975  814.6604
 976  864.5939
 977  898.4361
 978  872.0707
 979  896.885
 980  859.2227
 981  865.543
 982  890.1237
 983  902.9547
 984  918.5678
 985  897.7469
 986  916.1441
 987  899.2745
 988  846.9481
 989  761.4047
 990  794.3721
 991  875.1737
 992  904.4511
 993  862.1538
 994  877.1778
 995  843.4246
 996  878.8705
 997  838.6838
 998  882.6043
 999  832.7938
1000  808.0375
1001  817.1339
1002  818.5074
1003  742.528
1004  678.0109
1005  793.4108
1006  886.5372
1007  853.9859
1008  846.627
1009  789.2034
1010  738.4722
1011  724.9389
1012  783.8255
1013  785.816
1014  855.395
1015  791.4101
1016  837.9297
1017  836.8039
1018  807.9374
1019  844.8883
1020  901.0428
1021  1012.12
1022  915.092
1023  847.0455
