# Input file       =  1184660059.09953_cleaned.dat
# Candidate        =  PSR_0332+5434
# Telescope        =  AR
# Epoch_topo       =  57955.343496522335
# Epoch_bary       =  N/A
# T_sample         =  0.002
# Data Folded      =  7340032
# Data Avg         =  0.0430908420283416
# Data StdDev      =  1.00042450757584 
# Profile Bins     =  512
# Profile Avg      =  617.753369602551 
# Profile StdDev   =  119.783863957786 
# Reduced chi-sqr  =  1.345
# Prob(Noise)      <  2.72e-07   (~5.0 sigma)
# P_topo (ms)      =  714.475273240728  +/- 0.000464
# P'_topo (s/s)    =  -0                +/- 2.45e-10
# P''_topo (s/s^2) =  0                 +/- 1.08e-13
# P_bary (ms)      =  N/A
# P'_bary (s/s)    =  N/A
# P''_bary (s/s^2) =  N/A
# P_orb (s)        =  N/A
# asin(i)/c (s)    =  N/A
# eccentricity     =  N/A
# w (rad)          =  N/A
# T_peri           =  N/A
######################################################
   0  529.8953
   1  561.3628
   2  654.9805
   3  682.2648
   4  695.4498
   5  576.2013
   6  570.7699
   7  635.7228
   8  675.52
   9  666.5868
  10  637.4656
  11  581.5084
  12  519.6908
  13  508.6082
  14  649.3502
  15  617.7424
  16  558.8934
  17  560.0663
  18  655.1404
  19  693.0176
  20  585.8913
  21  551.3213
  22  482.9967
  23  621.2585
  24  649.6708
  25  583.0399
  26  589.3752
  27  632.1049
  28  699.8098
  29  793.9188
  30  717.6974
  31  690.0665
  32  696.2723
  33  763.344
  34  747.8137
  35  674.1999
  36  632.3909
  37  611.6003
  38  673.4263
  39  615.4926
  40  501.7737
  41  514.1343
  42  553.231
  43  612.7285
  44  700.4727
  45  739.8508
  46  537.5081
  47  488.0569
  48  564.0607
  49  581.6346
  50  554.3387
  51  547.4235
  52  639.7173
  53  677.0081
  54  732.1918
  55  678.0073
  56  726.1553
  57  662.9765
  58  580.1508
  59  607.0748
  60  694.0986
  61  613.5082
  62  662.5299
  63  713.7423
  64  780.5364
  65  681.5522
  66  626.3834
  67  660.6208
  68  716.4756
  69  722.2504
  70  797.0797
  71  724.1407
  72  700.8903
  73  720.5227
  74  774.2256
  75  707.9399
  76  751.1732
  77  880.5386
  78  753.4619
  79  660.6425
  80  676.2963
  81  692.1284
  82  666.6869
  83  682.0616
  84  531.2343
  85  590.8629
  86  642.9373
  87  627.194
  88  618.7795
  89  637.0502
  90  627.9052
  91  673.0057
  92  640.7167
  93  560.825
  94  593.6229
  95  708.5255
  96  629.4537
  97  659.5626
  98  804.9771
  99  796.6505
 100  701.0653
 101  678.5644
 102  650.235
 103  642.9749
 104  727.0773
 105  726.1912
 106  612.8419
 107  673.9304
 108  664.5013
 109  628.43
 110  616.6349
 111  644.1964
 112  667.5717
 113  632.7839
 114  621.6318
 115  590.0335
 116  661.4662
 117  674.2651
 118  773.8031
 119  776.3362
 120  676.3677
 121  683.7505
 122  782.989
 123  820.9446
 124  663.7365
 125  730.4822
 126  873.8054
 127  745.7321
 128  620.4243
 129  643.8698
 130  730.4694
 131  746.1428
 132  650.1414
 133  618.9224
 134  663.3552
 135  642.6709
 136  746.0553
 137  697.3413
 138  799.6188
 139  742.3044
 140  648.7516
 141  608.3105
 142  625.4736
 143  734.6268
 144  758.5416
 145  714.8487
 146  636.7524
 147  702.4618
 148  726.2495
 149  608.4471
 150  600.9171
 151  755.1094
 152  779.5402
 153  744.5981
 154  726.9918
 155  677.0338
 156  703.4587
 157  754.739
 158  615.6534
 159  697.9709
 160  735.2607
 161  656.4819
 162  624.4547
 163  663.7269
 164  604.0344
 165  598.5472
 166  671.2868
 167  688.7275
 168  691.1491
 169  690.3809
 170  673.8411
 171  554.9293
 172  745.8917
 173  779.1824
 174  710.4225
 175  767.8124
 176  713.4582
 177  624.6189
 178  650.2459
 179  738.0051
 180  726.0955
 181  649.6393
 182  729.4471
 183  675.6006
 184  557.8032
 185  572.057
 186  682.5012
 187  648.6462
 188  638.1953
 189  663.3238
 190  656.9726
 191  551.413
 192  571.3394
 193  590.1979
 194  665.144
 195  663.6593
 196  586.5486
 197  654.5104
 198  766.5811
 199  779.0518
 200  794.6088
 201  649.2097
 202  589.4173
 203  573.2873
 204  563.1378
 205  550.1778
 206  660.7458
 207  600.1463
 208  600.2958
 209  654.765
 210  576.7379
 211  622.5255
 212  583.0176
 213  615.2517
 214  741.8336
 215  662.6416
 216  698.6641
 217  634.6556
 218  603.236
 219  611.2676
 220  624.9727
 221  555.3564
 222  614.3137
 223  652.4999
 224  662.6077
 225  561.5261
 226  543.1106
 227  424.1337
 228  554.5199
 229  605.5828
 230  591.5007
 231  547.317
 232  605.5227
 233  554.8856
 234  647.5746
 235  696.1718
 236  655.4931
 237  596.7617
 238  580.9221
 239  679.5078
 240  668.2488
 241  610.6404
 242  578.5955
 243  544.3428
 244  489.7304
 245  623.1027
 246  747.6105
 247  749.7736
 248  763.7764
 249  790.825
 250  777.6539
 251  642.9347
 252  641.5853
 253  610.8148
 254  558.6036
 255  625.3237
 256  632.3687
 257  551.7603
 258  575.2949
 259  624.4869
 260  572.1396
 261  612.8577
 262  578.3497
 263  460.631
 264  459.2651
 265  537.9855
 266  615.2221
 267  498.7633
 268  554.6743
 269  630.3671
 270  524.334
 271  469.538
 272  473.9606
 273  621.1476
 274  603.0045
 275  687.1237
 276  503.8765
 277  517.9043
 278  483.1649
 279  542.9985
 280  626.6328
 281  662.335
 282  627.081
 283  630.0474
 284  671.3512
 285  580.079
 286  621.3602
 287  605.4695
 288  643.9963
 289  525.1121
 290  587.0688
 291  683.2665
 292  559.2546
 293  608.5785
 294  579.6617
 295  501.1016
 296  479.8895
 297  463.4726
 298  467.5323
 299  598.6421
 300  549.3401
 301  543.4946
 302  505.4519
 303  565.8039
 304  700.3356
 305  551.9665
 306  584.1454
 307  555.3682
 308  548.2744
 309  649.2112
 310  636.9573
 311  613.1559
 312  607.47
 313  538.5157
 314  563.7221
 315  546.8349
 316  587.1957
 317  589.605
 318  466.2619
 319  593.1357
 320  518.8188
 321  536.2192
 322  568.302
 323  556.4953
 324  696.7538
 325  599.8303
 326  494.0822
 327  417.0423
 328  468.4254
 329  485.0207
 330  553.4405
 331  544.6897
 332  544.8552
 333  445.9728
 334  456.2072
 335  412.657
 336  455.5134
 337  573.3222
 338  635.2554
 339  612.8914
 340  536.3912
 341  553.9362
 342  509.1757
 343  568.7059
 344  648.7727
 345  548.2562
 346  534.6512
 347  445.2589
 348  501.2876
 349  529.3743
 350  514.0217
 351  416.2274
 352  384.0496
 353  411.4217
 354  385.8307
 355  459.5507
 356  466.9763
 357  442.8059
 358  488.9506
 359  505.7719
 360  391.6701
 361  473.5041
 362  430.2071
 363  459.6749
 364  423.3867
 365  415.2014
 366  457.1844
 367  500.7315
 368  557.1869
 369  590.5847
 370  507.6829
 371  489.1762
 372  612.0582
 373  622.655
 374  617.405
 375  427.6844
 376  522.5574
 377  488.2553
 378  535.754
 379  519.8471
 380  542.8476
 381  416.3507
 382  517.6499
 383  534.9566
 384  458.189
 385  451.456
 386  434.094
 387  522.7756
 388  606.5322
 389  582.5893
 390  509.7132
 391  410.4196
 392  480.4784
 393  458.2403
 394  422.6295
 395  426.9004
 396  387.8748
 397  484.6373
 398  463.3215
 399  417.9695
 400  426.9326
 401  423.5641
 402  455.9477
 403  449.2112
 404  465.5203
 405  484.7088
 406  543.6555
 407  488.4097
 408  481.4751
 409  486.4902
 410  500.5557
 411  620.3683
 412  610.315
 413  542.3189
 414  500.0383
 415  523.2519
 416  627.1902
 417  632.2911
 418  710.7769
 419  693.6165
 420  630.9057
 421  536.1692
 422  540.6066
 423  631.8817
 424  707.0121
 425  586.4911
 426  573.9399
 427  630.3982
 428  711.9359
 429  750.3461
 430  681.4465
 431  669.6315
 432  588.8781
 433  610.7964
 434  640.8501
 435  570.366
 436  617.2597
 437  543.9717
 438  638.5208
 439  583.821
 440  648.7388
 441  722.6302
 442  703.103
 443  631.7026
 444  632.8047
 445  620.0906
 446  664.0338
 447  702.71
 448  696.5651
 449  678.6063
 450  612.2656
 451  604.2703
 452  586.07
 453  625.1511
 454  672.9291
 455  671.9815
 456  630.0497
 457  647.2787
 458  682.6133
 459  622.2048
 460  665.1138
 461  503.6829
 462  566.0326
 463  601.6412
 464  542.7203
 465  611.0577
 466  723.6016
 467  731.0779
 468  635.0627
 469  552.1584
 470  510.9774
 471  574.3365
 472  632.916
 473  679.7769
 474  562.7916
 475  551.7029
 476  659.8506
 477  717.9227
 478  718.2023
 479  696.041
 480  638.112
 481  716.0942
 482  679.8215
 483  605.3286
 484  639.7825
 485  735.6313
 486  690.9444
 487  647.7368
 488  611.1639
 489  632.0981
 490  576.8885
 491  653.7103
 492  751.5883
 493  669.6009
 494  634.3113
 495  701.049
 496  736.17
 497  780.8085
 498  686.8672
 499  713.9066
 500  752.3828
 501  851.7053
 502  915.7925
 503  1005.798
 504  1089.11
 505  1080.259
 506  989.7018
 507  774.6913
 508  663.151
 509  570.4168
 510  551.2986
 511  508.8332
