# Input file       =  1184113454.097065_cleaned.dat
# Candidate        =  PSR_0332+5434
# Telescope        =  AR
# Epoch_topo       =  57949.017049734546
# Epoch_bary       =  N/A
# T_sample         =  0.002
# Data Folded      =  7208960
# Data Avg         =  0.306835462755143
# Data StdDev      =  6.51037664049457 
# Profile Bins     =  1024
# Profile Avg      =  2160.12672902273 
# Profile StdDev   =  546.251250037678 
# Reduced chi-sqr  =  0.441
# Prob(Noise)      <  1   (~0.0 sigma)
# P_topo (ms)      =  714.478899247129  +/- 7.64e-05
# P'_topo (s/s)    =  -0                +/- 4.1e-11
# P''_topo (s/s^2) =  0                 +/- 1.84e-14
# P_bary (ms)      =  N/A
# P'_bary (s/s)    =  N/A
# P''_bary (s/s^2) =  N/A
# P_orb (s)        =  N/A
# asin(i)/c (s)    =  N/A
# eccentricity     =  N/A
# w (rad)          =  N/A
# T_peri           =  N/A
######################################################
   0  1928.582
   1  1730.987
   2  1699.888
   3  1685.333
   4  1847.149
   5  1986.665
   6  2245.691
   7  2201.037
   8  2105.537
   9  2057.022
  10  2112.806
  11  2174.793
  12  2275.871
  13  2315.897
  14  2331.367
  15  2394.268
  16  2219.125
  17  2039.753
  18  2007.704
  19  1956.17
  20  1761.733
  21  1852.975
  22  2005.024
  23  2167.78
  24  2195.607
  25  2118.359
  26  1695.548
  27  1921.577
  28  1946.758
  29  1940.512
  30  1983.122
  31  2065.716
  32  1978.554
  33  1963.782
  34  2029.773
  35  2135.863
  36  2111.209
  37  2186.407
  38  2354.751
  39  2380.834
  40  2423.062
  41  2395.303
  42  2361.018
  43  2242.965
  44  1976.974
  45  1929.433
  46  2065.209
  47  2105.414
  48  2117.318
  49  2245.02
  50  2327.641
  51  2097.739
  52  2173.297
  53  2180.356
  54  2093.084
  55  2193.93
  56  2147.819
  57  1909.202
  58  2080.153
  59  2107.98
  60  2109.516
  61  2092.908
  62  2097.769
  63  1946.115
  64  2080.482
  65  2108.716
  66  2195.521
  67  2061.827
  68  2238.719
  69  2208.968
  70  2064.98
  71  2242.622
  72  2389.862
  73  2513.473
  74  2431.298
  75  2267.281
  76  2115.24
  77  2171.524
  78  2157.411
  79  2217.11
  80  2315.326
  81  2317.726
  82  2273.696
  83  2412.589
  84  2390.05
  85  2171.82
  86  2252.341
  87  2411.652
  88  2396.971
  89  2500.249
  90  2322.619
  91  2060.543
  92  2170.055
  93  2183.199
  94  2035.291
  95  1848.319
  96  1842.178
  97  1875.62
  98  1969.943
  99  2086.969
 100  2151.592
 101  2047.667
 102  2151.114
 103  2108.274
 104  2131.032
 105  2418.115
 106  2557.273
 107  2550.625
 108  2439.058
 109  2209.898
 110  1948.047
 111  1919.492
 112  2046.009
 113  1940.668
 114  2069.859
 115  2019.336
 116  2034.52
 117  2188.026
 118  2256.41
 119  2228.044
 120  2418.875
 121  2395.974
 122  2202.462
 123  2245.463
 124  2318.976
 125  2184.098
 126  2078.995
 127  2091.778
 128  2007.514
 129  2002.826
 130  2034.481
 131  1985.291
 132  1822.239
 133  1960.709
 134  1925
 135  1720.452
 136  1913.757
 137  2137.957
 138  2387.469
 139  2573.023
 140  2552.824
 141  2324.177
 142  2150.25
 143  2112.208
 144  1974.562
 145  2083.194
 146  2076.351
 147  2016.676
 148  1922.167
 149  1789.073
 150  1784.469
 151  2110.356
 152  2294.59
 153  2210.361
 154  2358.79
 155  2373.935
 156  2243.006
 157  2180.265
 158  2172.684
 159  1985.886
 160  1802.119
 161  1912.359
 162  1978.521
 163  1714.923
 164  1798.957
 165  1817.045
 166  1881.582
 167  1831.621
 168  1945.956
 169  2083.936
 170  2338.466
 171  2417.839
 172  2354.508
 173  2466.206
 174  2436.251
 175  2213.852
 176  2197.651
 177  2232.612
 178  2206.82
 179  2369.544
 180  2314.611
 181  2204.691
 182  2163.21
 183  2068.622
 184  1859.665
 185  1919.876
 186  2050.417
 187  2277.568
 188  2335.828
 189  2540.004
 190  2374.031
 191  2362.982
 192  2290.604
 193  2126.798
 194  2020.76
 195  2225.05
 196  2211.71
 197  2227.467
 198  2272.949
 199  2303.643
 200  2021.667
 201  2173.953
 202  2270.54
 203  2215.106
 204  2426.778
 205  2568.626
 206  2497.406
 207  2388.194
 208  2378.165
 209  2131.629
 210  2135.362
 211  2006.258
 212  2117.24
 213  2327.159
 214  2371.251
 215  2178.445
 216  2127.618
 217  2056.94
 218  1969.274
 219  1999.781
 220  2368.523
 221  2410.682
 222  2503.764
 223  2362.135
 224  2254.762
 225  1949.947
 226  2021.475
 227  2023.048
 228  2038.218
 229  2202.968
 230  2226.356
 231  2077.623
 232  2083.046
 233  2112.334
 234  2005.342
 235  2289.032
 236  2356.748
 237  2375.179
 238  2343.612
 239  2382.334
 240  2132.229
 241  2152.733
 242  2251.757
 243  2287.717
 244  2327.331
 245  2379.084
 246  2225.862
 247  2189.004
 248  2138.666
 249  2079.657
 250  2044.731
 251  1968.607
 252  1926.772
 253  1942.396
 254  2083.402
 255  2198.698
 256  2149.875
 257  2397.998
 258  2321.959
 259  2215.363
 260  2237.417
 261  2153.354
 262  1918.923
 263  2058.064
 264  2178.688
 265  1987.12
 266  1941.273
 267  1930.329
 268  1987.705
 269  2112.705
 270  2475.767
 271  2518.759
 272  2622.465
 273  2319.85
 274  2167.441
 275  2043.24
 276  1969.971
 277  1960.96
 278  2132.095
 279  2229.105
 280  2217.667
 281  2146.817
 282  2291.923
 283  2096.785
 284  2125.829
 285  2380.331
 286  2393.107
 287  2279.297
 288  2252.121
 289  2254.19
 290  1922.847
 291  1891.375
 292  1852.264
 293  1782.565
 294  1842.217
 295  2004.939
 296  2014.189
 297  2123.681
 298  1901.571
 299  1784.948
 300  1924.155
 301  2127.738
 302  2175.857
 303  2320.883
 304  2368.098
 305  2465.701
 306  2417.136
 307  2441.239
 308  2225.943
 309  2171.343
 310  2093.463
 311  1934.363
 312  1773.219
 313  1854.78
 314  2022.357
 315  2042.095
 316  2125.105
 317  2138.858
 318  2228.052
 319  2382.736
 320  2381.865
 321  2232.906
 322  2358.158
 323  2346.806
 324  2109.185
 325  2022.409
 326  1911.944
 327  1708.103
 328  1912.238
 329  2030.933
 330  2124.84
 331  2140.513
 332  2380.377
 333  2271.126
 334  2299.923
 335  2370.785
 336  2399.359
 337  2438.771
 338  2498.227
 339  2444.647
 340  2382.513
 341  2253.563
 342  2174.047
 343  1946.19
 344  1952.291
 345  2168.276
 346  2196.291
 347  2423.58
 348  2186.225
 349  1986.755
 350  1954.624
 351  1958.586
 352  1996.846
 353  2191.526
 354  2343.97
 355  2372.416
 356  2255.179
 357  2186.757
 358  1873.11
 359  2000.082
 360  2122.116
 361  2048.539
 362  2171.142
 363  2148.437
 364  2100.998
 365  2122.917
 366  2098.472
 367  2039.057
 368  2087.877
 369  2198.179
 370  2194.093
 371  2045.18
 372  2084.893
 373  2205.91
 374  2263.668
 375  2463.766
 376  2331.717
 377  2131.699
 378  2110.792
 379  2176.373
 380  2188.021
 381  2162.727
 382  2081.19
 383  1996.255
 384  2131.266
 385  2085.668
 386  1851.244
 387  2000.282
 388  2119.065
 389  2003.579
 390  2133.697
 391  2025.667
 392  1809.326
 393  1974.721
 394  2102.537
 395  2158.948
 396  2029.627
 397  2185.135
 398  2187.317
 399  2088.905
 400  2064.745
 401  2080.937
 402  2212.532
 403  2372.759
 404  2347.935
 405  2293.645
 406  2232.474
 407  2115.733
 408  1890.721
 409  1902.907
 410  1986.226
 411  2098.995
 412  2409.59
 413  2409.452
 414  2086.255
 415  2109.572
 416  2080.433
 417  2030.143
 418  2059.983
 419  2158.289
 420  2180.923
 421  2191.742
 422  2094.695
 423  1827.575
 424  1931.018
 425  1910.22
 426  1970.522
 427  2026.548
 428  2135.87
 429  1932.333
 430  1838.38
 431  1831.974
 432  1874.362
 433  1769.356
 434  2034.538
 435  2130.737
 436  2158.339
 437  2188.809
 438  2311.409
 439  2273.191
 440  2316.97
 441  2192.362
 442  1929.494
 443  1823.324
 444  1929.11
 445  1938.474
 446  2017.305
 447  2029.086
 448  1962.989
 449  2131.336
 450  2011.781
 451  2016.765
 452  2171.147
 453  2289.319
 454  2135.487
 455  2294.095
 456  2244.327
 457  2026.571
 458  1787.565
 459  1792.596
 460  1761.609
 461  1679.229
 462  1679.334
 463  1809.074
 464  1716.842
 465  2018.054
 466  2117.627
 467  2261.002
 468  2384.747
 469  2429.392
 470  2405.141
 471  2407.433
 472  2396.281
 473  2136.026
 474  2006.494
 475  1841.784
 476  1762.375
 477  1867.61
 478  2011.069
 479  2015.747
 480  2331.796
 481  2316.476
 482  2133.309
 483  2143.963
 484  2170.375
 485  2058.67
 486  2220.429
 487  2328.323
 488  2304.278
 489  2089.176
 490  1972.267
 491  1860.773
 492  1761.844
 493  1961.387
 494  2071.246
 495  2080.338
 496  2111.837
 497  1983.472
 498  1881.292
 499  2163.972
 500  2400.649
 501  2291.871
 502  2394.524
 503  2307.464
 504  2108.365
 505  2151.75
 506  2396.87
 507  2406.581
 508  2329.4
 509  2252.374
 510  2087.362
 511  2105.986
 512  2112.127
 513  2172.339
 514  2305.553
 515  2338.639
 516  2129.55
 517  2209.423
 518  2101.205
 519  2117.312
 520  2216.296
 521  2453.909
 522  2355.664
 523  2095.233
 524  2182.592
 525  2168.59
 526  2166.752
 527  2262.837
 528  2433.462
 529  2349.044
 530  2356.759
 531  2277.37
 532  2065.479
 533  2040.996
 534  1948.765
 535  1911.86
 536  2021.827
 537  2094.301
 538  2093.435
 539  2219.259
 540  2251.263
 541  2223.534
 542  2357.32
 543  2395.866
 544  2237.404
 545  2285.764
 546  2200.537
 547  2079.07
 548  1955.788
 549  2026.021
 550  1988.687
 551  2070.712
 552  2104.635
 553  2126.753
 554  1993.952
 555  1983.124
 556  1774.631
 557  1624.722
 558  1973.995
 559  2099.992
 560  2099.934
 561  2188.571
 562  2135.228
 563  1899.039
 564  2057.701
 565  2315.274
 566  2199.155
 567  2295.076
 568  2308.207
 569  2311.43
 570  2161.076
 571  2073.326
 572  1886.818
 573  1839.85
 574  1834.019
 575  1920.245
 576  2129.652
 577  2097.092
 578  1967.613
 579  2043.415
 580  2208.199
 581  2220.227
 582  2224.393
 583  2289.574
 584  2200.784
 585  2082.057
 586  2094.25
 587  1975.931
 588  1905.98
 589  1972.175
 590  1919.021
 591  1563.045
 592  1737.937
 593  1841.431
 594  1862.137
 595  2018.26
 596  2063.799
 597  2073.112
 598  2217.717
 599  2270.854
 600  2305.854
 601  2388.529
 602  2500.35
 603  2267.69
 604  2260.127
 605  2201.506
 606  2030.309
 607  1987.666
 608  2004.557
 609  2025.788
 610  2032.302
 611  2220.723
 612  2164.611
 613  2075.634
 614  2021.794
 615  2146.837
 616  2050.037
 617  2352.301
 618  2288.401
 619  2288.749
 620  2217.309
 621  2282.532
 622  2016.532
 623  2064.014
 624  1977.945
 625  1897.665
 626  1979.045
 627  2018.101
 628  1784.978
 629  1770.793
 630  1769.158
 631  1846.057
 632  2114.469
 633  2400.253
 634  2493.942
 635  2702.776
 636  2609.78
 637  2471.936
 638  2271.31
 639  2170.417
 640  2125.657
 641  2082.899
 642  2097.937
 643  2174.533
 644  2256.967
 645  2520.971
 646  2546.156
 647  2618.09
 648  2949.938
 649  2970.71
 650  3019.598
 651  3110.531
 652  3250.974
 653  3042
 654  3031.866
 655  2851.253
 656  2550.025
 657  2514.133
 658  2580.658
 659  2313.813
 660  2298.228
 661  2266.648
 662  2306.607
 663  2352.787
 664  2215.438
 665  2165.869
 666  2194.13
 667  2388.513
 668  2543.66
 669  2583.838
 670  2453.067
 671  2132.583
 672  2033.905
 673  2176.573
 674  2218.728
 675  2342.001
 676  2555.802
 677  2411.328
 678  2200.55
 679  2048.256
 680  2109.814
 681  2069.15
 682  2240.631
 683  2294.2
 684  2231.7
 685  2455.355
 686  2521.023
 687  2303.252
 688  2298.521
 689  2119.348
 690  1995.202
 691  2289.406
 692  2383.707
 693  2145.743
 694  1950.185
 695  2062.318
 696  2018.488
 697  2027.012
 698  2172.375
 699  2358.878
 700  2348.586
 701  2252.299
 702  2169.609
 703  1947.354
 704  1954.481
 705  1947.572
 706  2124.607
 707  2204.469
 708  2266.671
 709  2212.098
 710  2353.632
 711  2253.335
 712  2161.621
 713  2159.448
 714  2242.769
 715  2081.468
 716  2157.74
 717  2113.395
 718  1910.827
 719  1958.521
 720  2046.239
 721  1854.923
 722  1955.797
 723  2157.664
 724  2176.104
 725  2239.575
 726  2044.036
 727  2074.509
 728  2222.545
 729  2313.075
 730  2188.623
 731  2022.358
 732  2138.076
 733  2201.665
 734  2024.904
 735  2111.404
 736  2091.746
 737  2124.656
 738  2168.414
 739  2075.188
 740  2052.817
 741  2184.114
 742  2222.54
 743  2219.491
 744  2238.093
 745  2292.751
 746  2095.144
 747  2179.665
 748  2193.533
 749  2053.059
 750  2254.985
 751  2183.416
 752  2044.083
 753  2018.759
 754  2017.608
 755  1738.906
 756  1702.464
 757  1671.938
 758  1897.547
 759  1915.373
 760  2017.129
 761  1911.346
 762  1855.025
 763  2048.132
 764  2204.087
 765  2382.226
 766  2506.539
 767  2377.41
 768  2128.661
 769  2003.109
 770  2017.238
 771  2002.893
 772  2146.146
 773  2274.821
 774  2151.312
 775  2300.741
 776  2187.819
 777  2044.221
 778  2032.949
 779  2102.371
 780  2111.136
 781  2384.758
 782  2393.253
 783  2274.64
 784  2153.527
 785  2238.459
 786  2147.396
 787  2267.12
 788  2275.729
 789  2328.489
 790  2179.653
 791  2117.416
 792  2026.997
 793  2176.865
 794  2313.987
 795  2348.522
 796  2241.096
 797  2363.604
 798  2414.483
 799  2347.847
 800  2557.438
 801  2540.884
 802  2376.952
 803  2233.426
 804  2191.649
 805  2120.441
 806  2271.05
 807  2338.087
 808  2370.025
 809  2368.559
 810  2386.538
 811  2170.177
 812  2103.249
 813  1981.49
 814  2068.652
 815  2343.089
 816  2520.207
 817  2310.286
 818  2400.781
 819  2288.208
 820  2210.885
 821  1984.824
 822  2002.909
 823  1939.631
 824  1929.123
 825  2114.173
 826  2282.282
 827  2150.417
 828  2178.869
 829  2159.754
 830  2220.781
 831  2389.581
 832  2427.195
 833  2368.172
 834  2306.271
 835  2416.701
 836  2358.772
 837  2639.99
 838  2660.626
 839  2500.643
 840  2440.704
 841  2383.159
 842  2256.639
 843  2262.898
 844  2264.038
 845  2165.544
 846  2273.359
 847  2310.002
 848  2375.46
 849  2496.427
 850  2384.204
 851  2179.251
 852  1986.05
 853  2138.365
 854  2100.586
 855  2050.809
 856  2260.196
 857  2350.7
 858  2296.261
 859  2223.198
 860  2162.672
 861  1966.074
 862  2196.363
 863  2231.27
 864  2202.362
 865  2275.826
 866  2370.714
 867  2246.398
 868  2386.446
 869  2416.374
 870  2378.43
 871  2297.009
 872  2367.586
 873  2308.699
 874  2347.644
 875  2351.905
 876  2256.846
 877  2337.177
 878  2239.465
 879  2188.931
 880  2196.516
 881  2363.566
 882  2247.887
 883  2294.117
 884  2096.762
 885  2092.296
 886  1863.455
 887  2035.801
 888  1977.158
 889  2005.166
 890  2272.572
 891  2379.396
 892  2165.545
 893  2079.889
 894  1936.847
 895  1804.186
 896  1977.011
 897  2358.861
 898  2404.049
 899  2568.15
 900  2344.157
 901  2210.967
 902  2223.933
 903  2357.895
 904  2231.386
 905  2228.866
 906  2312.129
 907  2310.67
 908  2359.669
 909  2280.801
 910  2241.184
 911  2260.208
 912  2309.673
 913  2221.896
 914  2279.169
 915  2244.076
 916  2197.773
 917  2004.521
 918  2143.659
 919  2002.882
 920  1812.885
 921  2054.013
 922  2114.702
 923  1950.922
 924  2024.68
 925  2126.313
 926  2048.793
 927  1966.444
 928  2166.906
 929  2176.486
 930  2324.147
 931  2343.794
 932  2303.508
 933  2372.643
 934  2343.872
 935  2270.606
 936  2195.999
 937  2054.284
 938  1996.161
 939  2081.211
 940  2056.064
 941  2110.768
 942  2195.508
 943  2439.14
 944  2268.031
 945  2189.61
 946  2270.66
 947  2349.719
 948  2185.261
 949  2334.972
 950  2192.789
 951  2049.614
 952  1948.561
 953  1919.014
 954  1697.263
 955  1865.812
 956  2090.221
 957  2026.931
 958  2169.917
 959  2205.129
 960  2065.169
 961  1964.812
 962  2111.716
 963  2279.524
 964  2542.049
 965  2486.733
 966  2318.036
 967  2249.316
 968  2283.154
 969  2287.162
 970  2315.323
 971  2300.642
 972  2254.209
 973  2189.04
 974  2287.17
 975  2141.215
 976  2171.613
 977  2141.143
 978  2272.569
 979  2154.417
 980  2368.229
 981  2336.876
 982  2368.735
 983  2336.452
 984  2268.096
 985  2045.808
 986  2202.172
 987  2174.669
 988  1984.48
 989  1960.543
 990  1882.788
 991  1779.237
 992  1697.653
 993  1742.288
 994  1688.535
 995  1979.423
 996  2084.628
 997  2098.398
 998  2094.575
 999  2305.054
1000  2318.049
1001  2225.787
1002  2122.899
1003  1956.646
1004  1896.465
1005  2028.361
1006  2129.524
1007  2083.873
1008  2116.852
1009  2198.411
1010  2171.317
1011  2208.157
1012  2065.036
1013  1904.315
1014  2029.178
1015  2038.607
1016  1924.923
1017  1923.916
1018  1965.421
1019  1778.153
1020  1913.191
1021  1880.727
1022  1811.136
1023  1926.566
