# Input file       =  1184832292.10788_cleaned.dat
# Candidate        =  PSR_0332+5434
# Telescope        =  AR
# Epoch_topo       =  57957.336934118983
# Epoch_bary       =  N/A
# T_sample         =  0.002
# Data Folded      =  7340032
# Data Avg         =  0.273350360657788
# Data StdDev      =  4.97455436751787 
# Profile Bins     =  256
# Profile Avg      =  7837.03927116126 
# Profile StdDev   =  842.33175934864  
# Reduced chi-sqr  =  1.260
# Prob(Noise)      <  0.00302   (~2.7 sigma)
# P_topo (ms)      =  714.474124716226  +/- 0.000387
# P'_topo (s/s)    =  -0                +/- 2.04e-10
# P''_topo (s/s^2) =  0                 +/- 9.02e-14
# P_bary (ms)      =  N/A
# P'_bary (s/s)    =  N/A
# P''_bary (s/s^2) =  N/A
# P_orb (s)        =  N/A
# asin(i)/c (s)    =  N/A
# eccentricity     =  N/A
# w (rad)          =  N/A
# T_peri           =  N/A
######################################################
   0  7844.775
   1  6831.812
   2  7379.517
   3  7319.215
   4  6617.132
   5  6599.771
   6  7398.878
   7  7544.896
   8  7644.709
   9  7891.337
  10  7947.635
  11  7869.181
  12  8340.462
  13  8828.163
  14  9018.151
  15  7827.475
  16  8696.172
  17  8955.184
  18  8164.496
  19  7183.417
  20  8308.939
  21  7726.145
  22  6628.711
  23  7325.057
  24  7887.056
  25  7133.986
  26  7895.499
  27  7095.152
  28  7312.32
  29  7025.016
  30  6483.055
  31  6935.095
  32  7084.667
  33  7474.878
  34  7217.683
  35  7405.194
  36  7037.812
  37  7436.908
  38  8489.575
  39  8484.757
  40  7847.817
  41  7983.588
  42  8641.5
  43  8121.564
  44  7130.553
  45  7636.497
  46  7588.841
  47  8065.696
  48  7971.937
  49  6908.469
  50  8374.929
  51  8341.96
  52  7736.707
  53  7591.169
  54  8095.596
  55  7956.201
  56  7651.002
  57  7035.624
  58  7550.08
  59  7389.215
  60  7498.345
  61  7868.495
  62  7769.732
  63  7070.087
  64  8193.037
  65  8444.264
  66  7503.807
  67  7671.637
  68  8218.547
  69  8105.968
  70  7745.972
  71  8846.39
  72  9267.88
  73  8145.14
  74  9011.466
  75  9556.521
  76  9240.89
  77  9090.351
  78  9606.794
  79  9701.917
  80  9054.939
  81  8580.808
  82  8336.072
  83  8429.084
  84  8448.771
  85  8646.564
  86  8170.401
  87  7713.056
  88  7870.907
  89  7360.455
  90  7963.319
  91  7316.648
  92  7507.277
  93  7717.09
  94  7836.434
  95  7549.46
  96  7768.984
  97  8919.034
  98  8973.111
  99  8809.085
 100  9155.761
 101  9149.457
 102  8853.597
 103  9049.187
 104  8607.938
 105  8419.442
 106  8859.731
 107  8914.073
 108  8250.36
 109  8484.737
 110  8349.437
 111  8400.313
 112  8369.684
 113  8733.419
 114  8672.264
 115  8459.171
 116  8733.314
 117  8844.602
 118  8209.21
 119  8194.661
 120  8315.352
 121  8045.046
 122  8584.861
 123  7971.199
 124  7988.072
 125  7559.689
 126  8161.508
 127  8104.118
 128  8487.436
 129  7815.216
 130  8246.949
 131  8444.585
 132  9495.865
 133  9337.293
 134  8914.658
 135  8936.925
 136  9202.972
 137  8180.109
 138  8244.421
 139  7702.627
 140  7300.322
 141  6867.795
 142  7546.105
 143  7174.375
 144  7251.849
 145  7522.736
 146  8040.743
 147  8475.405
 148  8447.357
 149  7738.193
 150  8401.511
 151  8188.958
 152  7125.738
 153  8283.147
 154  8677.362
 155  7426.364
 156  7782.613
 157  8354.563
 158  8595.188
 159  8184.157
 160  7857.095
 161  10204.9
 162  11802.92
 163  10291.88
 164  8906.654
 165  8505.417
 166  7660.438
 167  7106.131
 168  7496.588
 169  7565.707
 170  7025.424
 171  6563.895
 172  6097.844
 173  7143.481
 174  6761.891
 175  6603.144
 176  6345.984
 177  6018.058
 178  6909.354
 179  7614.636
 180  6470.689
 181  7581.979
 182  8003.482
 183  7672.93
 184  7331.797
 185  6954.458
 186  6831.324
 187  6930.876
 188  7158.27
 189  6434.13
 190  7276.005
 191  7027.684
 192  6203.544
 193  7228.991
 194  7141.183
 195  6983.538
 196  6854.073
 197  7159.382
 198  6529.64
 199  6539.195
 200  6028.954
 201  6670.225
 202  6739.69
 203  6610.924
 204  7032.282
 205  7336.859
 206  6750.804
 207  6956.596
 208  7938.656
 209  8072.366
 210  7748.832
 211  7904.456
 212  8783.511
 213  7667.842
 214  7225.549
 215  6673.665
 216  7622.504
 217  6973.573
 218  7087.269
 219  7533.655
 220  8212.564
 221  8013.55
 222  7122.425
 223  7770.424
 224  7546.099
 225  6707.93
 226  7721.407
 227  7308.083
 228  6944.472
 229  6385.542
 230  6951.637
 231  6551.146
 232  8418.546
 233  8260.441
 234  7744.205
 235  6824.51
 236  7890.472
 237  8008.571
 238  7307.363
 239  7303.816
 240  7963.318
 241  8044.632
 242  7930.713
 243  8476.667
 244  8760.228
 245  7923.732
 246  8669.568
 247  8339.996
 248  7635.456
 249  7983.282
 250  8149.699
 251  7612.067
 252  7876.049
 253  7170.442
 254  7677.299
 255  7651.572
