# Input file       =  1184199632.104209_cleaned.dat
# Candidate        =  PSR_0332+5434
# Telescope        =  AR
# Epoch_topo       =  57950.014480372789
# Epoch_bary       =  N/A
# T_sample         =  0.002
# Data Folded      =  7143424
# Data Avg         =  0.107129807901192
# Data StdDev      =  4.0931930987707  
# Profile Bins     =  1024
# Profile Avg      =  747.333566716095 
# Profile StdDev   =  341.873524410588 
# Reduced chi-sqr  =  0.764
# Prob(Noise)      <  1   (~0.0 sigma)
# P_topo (ms)      =  714.478241653618  +/- 0.000169
# P'_topo (s/s)    =  -0                +/- 9.17e-11
# P''_topo (s/s^2) =  0                 +/- 4.16e-14
# P_bary (ms)      =  N/A
# P'_bary (s/s)    =  N/A
# P''_bary (s/s^2) =  N/A
# P_orb (s)        =  N/A
# asin(i)/c (s)    =  N/A
# eccentricity     =  N/A
# w (rad)          =  N/A
# T_peri           =  N/A
######################################################
   0  823.4675
   1  721.2199
   2  692.2244
   3  695.2092
   4  574.0728
   5  699.9114
   6  691.0981
   7  752.3228
   8  597.0487
   9  590.215
  10  619.5202
  11  654.1209
  12  660.9778
  13  778.9688
  14  757.1408
  15  642.6679
  16  577.3523
  17  665.2083
  18  777.1499
  19  799.3876
  20  933.9073
  21  988.5167
  22  985.3314
  23  921.7817
  24  1063.708
  25  1011.884
  26  812.5777
  27  815.6003
  28  906.3823
  29  779.6536
  30  792.2346
  31  744.6813
  32  771.1741
  33  769.2779
  34  685.2914
  35  716.9042
  36  683.4882
  37  690.9672
  38  867.2736
  39  975.3482
  40  855.2675
  41  682.7601
  42  826.1801
  43  891.1735
  44  734.133
  45  542.5463
  46  699.3906
  47  730.1381
  48  611.6259
  49  592.5798
  50  703.7659
  51  721.5288
  52  811.2723
  53  816.3359
  54  767.1967
  55  790.0961
  56  892.539
  57  969.7133
  58  897.9128
  59  808.801
  60  1000.558
  61  1194.513
  62  1063.097
  63  871.6794
  64  933.9202
  65  962.7108
  66  872.4446
  67  840.584
  68  736.9268
  69  600.7161
  70  629.4105
  71  683.9177
  72  682.1296
  73  614.995
  74  656.0653
  75  760.5629
  76  712.4994
  77  585.8917
  78  611.6212
  79  516.767
  80  653.1615
  81  642.1107
  82  768.8691
  83  769.2185
  84  691.4187
  85  716.8459
  86  867.9304
  87  893.4045
  88  755.8739
  89  753.1775
  90  796.5318
  91  675.2554
  92  683.195
  93  711.4196
  94  850.5757
  95  857.2613
  96  880.0577
  97  852.2475
  98  799.7252
  99  610.9709
 100  697.1841
 101  781.5906
 102  730.2519
 103  694.1182
 104  700.5078
 105  797.8338
 106  881.6622
 107  969.6116
 108  864.4435
 109  681.058
 110  592.3271
 111  675.6213
 112  592.139
 113  582.3997
 114  600.8973
 115  761.9706
 116  670.7
 117  767.7253
 118  728.0724
 119  751.7034
 120  850.7062
 121  845.5184
 122  750.3859
 123  787.0178
 124  773.3054
 125  874.4977
 126  933.4667
 127  772.962
 128  782.5682
 129  780.3275
 130  754.7368
 131  638.2665
 132  702.8134
 133  760.4172
 134  721.3533
 135  605.8542
 136  710.3748
 137  700.62
 138  616.9974
 139  599.7661
 140  750.2922
 141  683.049
 142  626.9487
 143  591.5714
 144  609.4692
 145  650.3311
 146  774.2619
 147  838.2103
 148  962.0516
 149  850.0541
 150  839.9926
 151  822.8098
 152  819.0163
 153  832.1074
 154  993.3867
 155  903.3033
 156  708.0954
 157  612.5354
 158  608.9138
 159  577.2274
 160  560.5394
 161  682.548
 162  681.5176
 163  512.7332
 164  382.9325
 165  621.0974
 166  769.2513
 167  855.2979
 168  867.2056
 169  910.9297
 170  879.3444
 171  833.112
 172  740.6255
 173  826.7662
 174  744.6175
 175  763.6259
 176  857.8301
 177  874.2576
 178  678.4705
 179  690.0212
 180  780.0436
 181  680.186
 182  586.9654
 183  631.7061
 184  854.6132
 185  899.9598
 186  847.989
 187  834.6279
 188  953.9592
 189  904.6941
 190  945.2407
 191  1038.845
 192  878.8558
 193  759.5159
 194  702.9342
 195  652.0634
 196  593.5917
 197  572.0568
 198  726.6324
 199  731.7036
 200  649.8926
 201  713.4342
 202  757.512
 203  663.8199
 204  744.275
 205  880.9778
 206  917.8954
 207  657.1354
 208  574.9598
 209  781.8199
 210  916.4433
 211  837.7605
 212  854.5294
 213  1131.459
 214  1032.726
 215  914.1506
 216  888.9244
 217  909.6928
 218  692.6777
 219  784.5411
 220  747.1262
 221  841.141
 222  608.1903
 223  615.3458
 224  588.3773
 225  579.0994
 226  638.4374
 227  840.6749
 228  869.9521
 229  780.7431
 230  600.7899
 231  612.0568
 232  610.8886
 233  580.2115
 234  563.4159
 235  629.5171
 236  698.6882
 237  712.1701
 238  676.7458
 239  703.5488
 240  732.533
 241  832.6619
 242  697.8931
 243  604.0993
 244  714.5051
 245  785.2634
 246  764.1594
 247  717.6198
 248  680.1215
 249  691.1573
 250  672.1077
 251  615.5406
 252  547.3124
 253  671.9557
 254  796.745
 255  882.1298
 256  822.9051
 257  790.9233
 258  776.8033
 259  820.6194
 260  816.17
 261  680.5516
 262  565.1744
 263  621.5701
 264  524.7483
 265  243.2094
 266  205.2587
 267  410.7329
 268  460.8647
 269  559.7659
 270  540.3351
 271  643.882
 272  634.6121
 273  624.4195
 274  641.5901
 275  777.4465
 276  737.476
 277  689.9415
 278  641.8977
 279  748.7462
 280  733.5396
 281  856.568
 282  830.6526
 283  780.6063
 284  696.5494
 285  657.9406
 286  711.306
 287  717.8499
 288  702.3641
 289  754.4626
 290  795.2209
 291  821.9944
 292  927.6978
 293  962.9946
 294  1132.314
 295  1089.399
 296  985.2352
 297  791.4946
 298  709.8955
 299  718.9586
 300  887.2583
 301  818.4513
 302  705.0827
 303  632.837
 304  654.069
 305  636.5991
 306  772.0891
 307  778.2122
 308  660.7173
 309  661.6432
 310  714.2839
 311  892.7925
 312  720.8582
 313  670.0096
 314  736.9641
 315  809.9196
 316  775.6282
 317  762.0583
 318  764.5532
 319  720.6332
 320  720.9047
 321  743.9539
 322  783.5888
 323  699.0851
 324  711.4647
 325  876.8795
 326  869.2099
 327  840.4443
 328  840.2072
 329  836.4544
 330  609.4178
 331  674.7029
 332  649.6845
 333  714.9811
 334  774.1877
 335  795.3994
 336  764.1506
 337  674.7735
 338  645.5406
 339  715.2973
 340  827.4722
 341  826.0659
 342  818.8144
 343  831.1078
 344  751.0613
 345  688.3093
 346  771.5192
 347  870.7515
 348  789.1457
 349  689.0643
 350  776.1628
 351  879.712
 352  773.7326
 353  687.7536
 354  760.9457
 355  840.0972
 356  998.0339
 357  902.6713
 358  958.325
 359  907.949
 360  944.2971
 361  823.1392
 362  833.7195
 363  697.026
 364  744.6481
 365  897.9435
 366  871.6223
 367  755.0615
 368  660.9569
 369  611.9294
 370  604.3947
 371  660.393
 372  771.0583
 373  789.4434
 374  814.3166
 375  860.1356
 376  885.135
 377  742.3373
 378  587.6369
 379  554.756
 380  529.9147
 381  539.846
 382  523.1073
 383  617.009
 384  690.9764
 385  821.0614
 386  674.5768
 387  734.2557
 388  713.1146
 389  618.9117
 390  626.4597
 391  509.4618
 392  503.909
 393  468.6968
 394  490.5865
 395  409.6044
 396  395.0698
 397  445.1919
 398  553.9481
 399  609.5915
 400  586.2164
 401  693.9269
 402  865.6669
 403  840.8503
 404  803.6152
 405  716.4385
 406  823.006
 407  733.0182
 408  653.9264
 409  597.0011
 410  585.1796
 411  505.5399
 412  456.734
 413  436.7649
 414  359.5775
 415  381.8454
 416  466.8206
 417  484.5823
 418  551.3231
 419  651.4415
 420  873.6499
 421  935.5771
 422  800.0598
 423  737.4286
 424  923.5906
 425  1040.558
 426  1008.543
 427  997.7377
 428  753.8245
 429  600.0403
 430  577.1124
 431  620.0049
 432  542.8376
 433  471.1806
 434  433.4365
 435  576.9593
 436  573.8928
 437  578.1681
 438  569.088
 439  604.5181
 440  648.2177
 441  600.2608
 442  598.6747
 443  643.1801
 444  605.8752
 445  524.6797
 446  491.3028
 447  600.788
 448  654.8633
 449  819.7347
 450  715.559
 451  545.7158
 452  624.9948
 453  731.8955
 454  776.0693
 455  880.3461
 456  860.493
 457  916.4662
 458  860.561
 459  731.543
 460  647.2628
 461  602.4653
 462  661.6313
 463  655.1979
 464  662.7194
 465  613.6187
 466  690.83
 467  867.0021
 468  902.3232
 469  750.601
 470  566.9465
 471  606.7286
 472  713.7997
 473  721.4466
 474  827.579
 475  882.933
 476  860.6486
 477  951.9034
 478  878.9125
 479  857.5495
 480  876.6566
 481  916.2144
 482  816.751
 483  695.5875
 484  641.5064
 485  700.131
 486  806.4548
 487  885.0806
 488  933.0647
 489  1053.296
 490  1003.164
 491  980.5124
 492  925.0737
 493  937.5012
 494  833.4189
 495  762.5955
 496  630.7519
 497  754.9341
 498  779.8804
 499  836.2325
 500  762.6796
 501  660.5559
 502  622.108
 503  679.2867
 504  615.5937
 505  599.6797
 506  684.556
 507  795.1558
 508  930.8217
 509  791.0457
 510  872.5026
 511  856.522
 512  809.239
 513  666.3395
 514  753.4292
 515  740.9631
 516  732.4607
 517  778.8619
 518  831.2551
 519  682.8557
 520  585.8508
 521  615.2847
 522  740.3612
 523  649.9228
 524  486.7018
 525  375.1617
 526  458.2469
 527  601.5966
 528  709.5303
 529  631.8726
 530  574.5427
 531  658.7504
 532  716.3428
 533  786.804
 534  626.5681
 535  659.6194
 536  701.4047
 537  769.4607
 538  623.6107
 539  682.9452
 540  728.405
 541  613.0594
 542  632.3879
 543  610.7844
 544  621.0922
 545  546.5814
 546  517.2114
 547  536.7249
 548  477.3657
 549  391.2454
 550  489.9759
 551  832.5177
 552  843.8115
 553  892.7684
 554  895.9077
 555  936.4996
 556  878.6912
 557  821.5146
 558  817.1351
 559  782.1716
 560  681.6097
 561  664.4685
 562  594.7682
 563  377.4817
 564  350.4851
 565  363.0488
 566  494.3052
 567  599.2339
 568  808.4558
 569  839.0923
 570  951.5203
 571  801.241
 572  774.1705
 573  639.7936
 574  489.1593
 575  439.4261
 576  572.5262
 577  509.5131
 578  535.6732
 579  580.7568
 580  679.9332
 581  566.0866
 582  606.0404
 583  669.4814
 584  660.6821
 585  568.7171
 586  579.1127
 587  726.3518
 588  707.2046
 589  694.3529
 590  733.1138
 591  761.9108
 592  666.1552
 593  645.3265
 594  514.5377
 595  638.4299
 596  555.3359
 597  598.7421
 598  564.2935
 599  568.4753
 600  576.0278
 601  753.5728
 602  621.6455
 603  456.6655
 604  411.6538
 605  534.644
 606  550.5396
 607  557.4637
 608  677.6241
 609  900.9459
 610  945.4729
 611  874.7906
 612  835.1345
 613  902.9489
 614  801.9465
 615  719.4861
 616  690.8816
 617  760.0644
 618  920.4557
 619  992.9711
 620  1062.85
 621  961.7524
 622  995.9023
 623  1106.993
 624  1201.996
 625  1064.197
 626  916.9766
 627  778.6949
 628  689.7043
 629  749.7344
 630  827.9427
 631  869.9371
 632  845.1723
 633  833.2403
 634  847.3552
 635  1001.814
 636  896.6251
 637  856.7357
 638  803.4081
 639  744.5014
 640  849.6714
 641  989.8007
 642  1092.438
 643  1140.821
 644  1123.764
 645  1236.951
 646  1287.303
 647  1512.978
 648  1471.201
 649  1584.221
 650  1497.011
 651  1633.761
 652  1589.72
 653  1553.133
 654  1470.755
 655  1492.161
 656  1476.978
 657  1454.973
 658  1351.303
 659  1160.061
 660  1165.767
 661  1026.898
 662  972.2928
 663  941.1732
 664  801.5854
 665  636.5477
 666  654.3698
 667  641.7552
 668  534.3495
 669  586.8328
 670  705.0423
 671  757.611
 672  676.9561
 673  698.0728
 674  765.8135
 675  634.8994
 676  633.7457
 677  809.8142
 678  983.4016
 679  913.1854
 680  875.3211
 681  755.3499
 682  680.7134
 683  626.7321
 684  728.2035
 685  851.1523
 686  811.0881
 687  714.2955
 688  895.7662
 689  889.3375
 690  790.8964
 691  573.85
 692  539.1111
 693  505.4187
 694  645.21
 695  627.7426
 696  672.3957
 697  748.7408
 698  688.1943
 699  684.5385
 700  710.1472
 701  805.9662
 702  827.8387
 703  813.8112
 704  724.3698
 705  749.7657
 706  779.0063
 707  813.2097
 708  632.1953
 709  659.0446
 710  654.978
 711  576.7119
 712  498.1639
 713  616.2387
 714  833.1173
 715  752.7189
 716  702.3904
 717  717.4634
 718  725.004
 719  755.647
 720  812.3015
 721  985.5497
 722  1053.09
 723  960.5417
 724  815.6838
 725  796.1857
 726  714.472
 727  675.038
 728  798.126
 729  690.1495
 730  609.7928
 731  605.4877
 732  596.729
 733  431.8359
 734  435.1877
 735  547.4072
 736  690.5536
 737  647.8642
 738  629.2626
 739  681.4079
 740  677.4136
 741  760.537
 742  931.3936
 743  950.3124
 744  903.7619
 745  721.9562
 746  634.9205
 747  685.1331
 748  699.5684
 749  700.9442
 750  847.62
 751  834.2598
 752  669.5517
 753  727.3394
 754  715.6291
 755  752.3514
 756  720.2526
 757  809.7399
 758  846.9384
 759  896.8387
 760  782.9037
 761  807.897
 762  763.899
 763  685.0137
 764  683.065
 765  699.03
 766  793.8277
 767  783.6926
 768  780.4642
 769  818.2976
 770  757.864
 771  854.4438
 772  985.5524
 773  1019.063
 774  852.8629
 775  911.0261
 776  1048.706
 777  981.3012
 778  813.5538
 779  839.0197
 780  869.7758
 781  880.1488
 782  809.1674
 783  751.2935
 784  859.1844
 785  934.6389
 786  961.8076
 787  1001.086
 788  835.0328
 789  846.5746
 790  919.9426
 791  970.3174
 792  942.1492
 793  901.4352
 794  899.9252
 795  872.9214
 796  874.4576
 797  721.7363
 798  750.8305
 799  583.1146
 800  564.9489
 801  459.4832
 802  461.897
 803  601.2869
 804  669.0229
 805  672.4371
 806  723.6545
 807  857.8191
 808  779.1824
 809  783.3404
 810  664.1398
 811  821.4534
 812  838.1448
 813  771.0304
 814  572.2187
 815  594.3251
 816  638.1031
 817  681.2867
 818  851.0782
 819  741.0657
 820  675.7272
 821  663.0309
 822  830.4717
 823  890.7
 824  820.5093
 825  769.7947
 826  677.098
 827  497.4889
 828  513.8041
 829  770.5917
 830  979.9243
 831  849.2283
 832  751.6156
 833  666.7036
 834  639.8696
 835  568.5768
 836  591.0308
 837  713.3922
 838  557.9717
 839  417.1801
 840  654.321
 841  815.9967
 842  742.1407
 843  657.9472
 844  712.1559
 845  690.0659
 846  747.5435
 847  727.9825
 848  883.1
 849  894.69
 850  930.5315
 851  850.3344
 852  877.3496
 853  820.0217
 854  962.5571
 855  1021.859
 856  898.8076
 857  779.812
 858  735.3924
 859  776.4778
 860  652.3267
 861  552.366
 862  581.4406
 863  705.9783
 864  617.4106
 865  549.5091
 866  527.657
 867  565.9149
 868  654.042
 869  668.23
 870  654.146
 871  756.0953
 872  657.9986
 873  639.9977
 874  558.7794
 875  622.7328
 876  735.7
 877  974.806
 878  932.661
 879  844.1957
 880  767.4736
 881  713.2449
 882  707.3433
 883  703.6355
 884  733.0908
 885  757.9285
 886  725.4326
 887  669.3643
 888  590.9534
 889  585.7321
 890  763.5797
 891  837.6628
 892  746.7499
 893  498.2569
 894  483.9998
 895  632.6998
 896  693.4713
 897  506.5122
 898  389.474
 899  578.6421
 900  710.3408
 901  573.4774
 902  622.7746
 903  619.0456
 904  690.7493
 905  879.6514
 906  931.2763
 907  839.6145
 908  761.1377
 909  705.8918
 910  703.569
 911  646.1061
 912  575.4603
 913  782.8309
 914  890.0707
 915  828.6369
 916  700.5725
 917  817.8713
 918  1125.033
 919  1191.107
 920  1070.014
 921  954.9307
 922  884.6166
 923  705.8577
 924  702.3061
 925  576.0436
 926  585.3459
 927  631.1182
 928  856.5581
 929  792.6844
 930  772.442
 931  823.2717
 932  928.0435
 933  987.9473
 934  805.816
 935  718.718
 936  820.5175
 937  737.5774
 938  849.6004
 939  785.46
 940  751.9622
 941  646.2877
 942  821.4578
 943  919.6819
 944  865.0969
 945  768.4449
 946  770.0085
 947  716.1547
 948  688.3613
 949  760.9137
 950  963.4164
 951  896.4919
 952  759.2112
 953  573.6534
 954  629.5809
 955  680.342
 956  811.7083
 957  815.8838
 958  858.9922
 959  778.1798
 960  669.9493
 961  705.476
 962  622.4473
 963  600.6247
 964  764.6492
 965  925.3791
 966  856.2742
 967  729.7596
 968  575.2084
 969  616.876
 970  771.22
 971  837.2161
 972  724.9036
 973  756.9332
 974  709.8149
 975  678.8484
 976  527.3835
 977  513.7742
 978  697.8089
 979  822.9115
 980  840.0256
 981  852.6235
 982  757.1647
 983  754.6658
 984  719.6552
 985  765.9777
 986  897.4064
 987  1002.571
 988  848.3823
 989  742.7151
 990  487.4032
 991  461.4259
 992  579.946
 993  683.3669
 994  638.4963
 995  639.7228
 996  774.9186
 997  771.0565
 998  829.9601
 999  605.7574
1000  569.322
1001  535.5914
1002  567.6434
1003  543.7025
1004  698.5361
1005  829.395
1006  876.9628
1007  804.9662
1008  761.9667
1009  745.6058
1010  792.884
1011  770.886
1012  628.8331
1013  414.0633
1014  527.067
1015  759.5905
1016  821.441
1017  813.799
1018  717.868
1019  747.643
1020  723.274
1021  738.298
1022  711.5839
1023  888.3736
