# Input file       =  1184041954.091831_cleaned.dat
# Candidate        =  PSR_0332+5434
# Telescope        =  AR
# Epoch_topo       =  57948.189503377675
# Epoch_bary       =  N/A
# T_sample         =  0.002
# Data Folded      =  7340032
# Data Avg         =  0.198376349862624
# Data StdDev      =  4.58715023493243 
# Profile Bins     =  1024
# Profile Avg      =  1422.03449159469 
# Profile StdDev   =  388.366679939927 
# Reduced chi-sqr  =  0.894
# Prob(Noise)      <  0.993   (~0.0 sigma)
# P_topo (ms)      =  714.47946502822   +/- 0.000358
# P'_topo (s/s)    =  -0                +/- 1.89e-10
# P''_topo (s/s^2) =  0                 +/- 8.34e-14
# P_bary (ms)      =  N/A
# P'_bary (s/s)    =  N/A
# P''_bary (s/s^2) =  N/A
# P_orb (s)        =  N/A
# asin(i)/c (s)    =  N/A
# eccentricity     =  N/A
# w (rad)          =  N/A
# T_peri           =  N/A
######################################################
   0  1448.144
   1  1327.683
   2  1258.86
   3  1233.048
   4  1243.599
   5  1229.525
   6  1245.894
   7  1166.786
   8  1135.223
   9  1232.694
  10  1296.046
  11  1353.084
  12  1284.092
  13  1244.081
  14  1149.58
  15  1144.372
  16  1232.521
  17  1377.501
  18  1361.044
  19  1387.54
  20  1404.459
  21  1374.805
  22  1286.177
  23  1272.248
  24  1293.616
  25  1302.277
  26  1364.941
  27  1449.039
  28  1446.71
  29  1382.964
  30  1260.101
  31  1206.279
  32  1172.364
  33  1190.815
  34  1194.847
  35  1226.379
  36  1183.141
  37  1113.498
  38  1082.799
  39  1249.171
  40  1250.593
  41  1170.518
  42  1097.835
  43  1043.613
  44  1100.208
  45  1144.356
  46  1245.448
  47  1095.547
  48  1100.565
  49  1149.698
  50  1194.813
  51  1215.288
  52  1194.871
  53  1193.638
  54  1243.031
  55  1207.502
  56  1243.538
  57  1209.148
  58  1199.294
  59  1180.615
  60  1269.53
  61  1318.739
  62  1308.24
  63  1320.199
  64  1400.388
  65  1457.891
  66  1605.835
  67  1688.665
  68  1644.331
  69  1572.28
  70  1553.778
  71  1542.53
  72  1484.949
  73  1543.918
  74  1629.927
  75  1830.251
  76  1834.828
  77  1745.644
  78  1664.743
  79  1705.785
  80  1707.896
  81  1586.388
  82  1481.556
  83  1405.141
  84  1356.11
  85  1360.563
  86  1476.617
  87  1550.739
  88  1513.244
  89  1504.726
  90  1477.883
  91  1392.341
  92  1247.678
  93  1268.537
  94  1318.665
  95  1517.496
  96  1511.245
  97  1482.33
  98  1348.295
  99  1415.885
 100  1411.565
 101  1284.361
 102  1156.96
 103  1202.572
 104  1291.15
 105  1325.356
 106  1196.498
 107  1207.175
 108  1275.987
 109  1289.701
 110  1359.43
 111  1414.055
 112  1390.874
 113  1323.686
 114  1347.851
 115  1487.426
 116  1543.93
 117  1639.115
 118  1539.894
 119  1431.549
 120  1265.955
 121  1178.323
 122  1310.491
 123  1337.574
 124  1317.142
 125  1257.713
 126  1227.989
 127  1199.538
 128  1089.917
 129  1078.111
 130  1071.748
 131  1076.356
 132  1082.883
 133  1036.33
 134  1015.233
 135  1138.481
 136  1185.177
 137  1184.367
 138  1142.231
 139  1158.014
 140  1225.252
 141  1276.728
 142  1311.432
 143  1271.818
 144  1371.979
 145  1455.692
 146  1429.025
 147  1316.555
 148  1324.692
 149  1357.787
 150  1407.121
 151  1376.243
 152  1302.65
 153  1363.219
 154  1289.395
 155  1350.326
 156  1359.022
 157  1494.839
 158  1609.864
 159  1675.247
 160  1685.073
 161  1651.264
 162  1606.191
 163  1702.532
 164  1850.934
 165  1909.291
 166  1888.813
 167  1746.298
 168  1677.662
 169  1534.231
 170  1567.219
 171  1624.558
 172  1718.651
 173  1648.949
 174  1485.99
 175  1347.916
 176  1271.249
 177  1252.683
 178  1215.754
 179  1201.634
 180  1320.119
 181  1309.123
 182  1288.337
 183  1203.157
 184  1286.435
 185  1340.533
 186  1384.741
 187  1265.835
 188  1180.219
 189  1082.747
 190  1064.52
 191  1113.612
 192  1220.931
 193  1214.23
 194  1169.236
 195  1095.826
 196  1208.589
 197  1263.115
 198  1251.037
 199  1214.34
 200  1352.439
 201  1410.475
 202  1366.992
 203  1241.185
 204  1302.993
 205  1443.12
 206  1497.208
 207  1489.62
 208  1480.433
 209  1394.173
 210  1387.748
 211  1265.951
 212  1299.153
 213  1413.939
 214  1476.681
 215  1456.151
 216  1246.613
 217  1169.735
 218  1164.112
 219  1288.172
 220  1314.865
 221  1333.831
 222  1452.496
 223  1365.007
 224  1250.893
 225  1224.734
 226  1214.245
 227  1337.885
 228  1445.362
 229  1502.37
 230  1453.597
 231  1486.897
 232  1539.942
 233  1559.671
 234  1711.23
 235  1737.403
 236  1640.125
 237  1535.787
 238  1550.677
 239  1576.008
 240  1584.552
 241  1593.734
 242  1569.381
 243  1514.384
 244  1417.758
 245  1446.258
 246  1488.748
 247  1494.817
 248  1512.822
 249  1615.874
 250  1618.349
 251  1604.489
 252  1569.465
 253  1602.69
 254  1657.862
 255  1609.156
 256  1471.87
 257  1332.903
 258  1501.923
 259  1537.673
 260  1479.627
 261  1267.215
 262  1253.011
 263  1179
 264  1264.294
 265  1330.167
 266  1387.306
 267  1359.585
 268  1350.911
 269  1350.69
 270  1316.468
 271  1350.219
 272  1354.849
 273  1348.585
 274  1316.132
 275  1370.041
 276  1289.174
 277  1278.391
 278  1266.672
 279  1325.395
 280  1375.939
 281  1375.092
 282  1525.662
 283  1606.473
 284  1656.062
 285  1531.783
 286  1445.306
 287  1415.264
 288  1380.784
 289  1287.926
 290  1213.869
 291  1228.997
 292  1241.876
 293  1305.011
 294  1317.645
 295  1371.754
 296  1297.403
 297  1252.641
 298  1293.899
 299  1340.631
 300  1411.873
 301  1448.216
 302  1525.033
 303  1463.115
 304  1400
 305  1378.083
 306  1568.138
 307  1496.354
 308  1539.732
 309  1464.124
 310  1469.359
 311  1500.04
 312  1450.621
 313  1397.284
 314  1326.654
 315  1417.297
 316  1490.366
 317  1576.734
 318  1697
 319  1684.268
 320  1661.171
 321  1660.655
 322  1622.636
 323  1535.154
 324  1363.562
 325  1297.643
 326  1365.18
 327  1448.745
 328  1494.15
 329  1513.729
 330  1629.842
 331  1604.427
 332  1539.657
 333  1621.975
 334  1727.779
 335  1648.431
 336  1557.453
 337  1610.567
 338  1675.016
 339  1620.184
 340  1620.565
 341  1671.366
 342  1681.969
 343  1590.547
 344  1545.957
 345  1575.275
 346  1508.997
 347  1541.967
 348  1637.75
 349  1727.107
 350  1581.083
 351  1513.15
 352  1580.479
 353  1665.764
 354  1647.731
 355  1555.619
 356  1578.675
 357  1615.898
 358  1691.358
 359  1680.907
 360  1624.807
 361  1646.516
 362  1653.166
 363  1674.099
 364  1760.72
 365  1786.759
 366  1819.14
 367  1764.02
 368  1769.024
 369  1702.487
 370  1670.995
 371  1613.028
 372  1576.134
 373  1707.764
 374  1804.736
 375  1841.743
 376  1684.577
 377  1629.666
 378  1613.562
 379  1666.845
 380  1684.99
 381  1655.22
 382  1713.213
 383  1871.781
 384  1899.046
 385  1781.749
 386  1670.339
 387  1639.763
 388  1623.219
 389  1685.87
 390  1782.447
 391  1833.622
 392  1739.656
 393  1783.745
 394  1813.933
 395  1856.104
 396  1822.84
 397  1787.752
 398  1748.931
 399  1641.14
 400  1593.511
 401  1583.311
 402  1631.218
 403  1540.554
 404  1497.881
 405  1465.255
 406  1571.68
 407  1779.805
 408  1827.563
 409  1713.218
 410  1618.528
 411  1636.077
 412  1675.442
 413  1609.678
 414  1649.655
 415  1645.496
 416  1679.258
 417  1664.987
 418  1604.563
 419  1536.964
 420  1525.064
 421  1555.675
 422  1466.688
 423  1255.115
 424  1188.886
 425  1281.563
 426  1419.991
 427  1369.293
 428  1365.077
 429  1360.188
 430  1405.586
 431  1401.402
 432  1458.494
 433  1477.188
 434  1464.152
 435  1445.927
 436  1287.924
 437  1233.133
 438  1247.786
 439  1404.893
 440  1406.858
 441  1374.395
 442  1297.734
 443  1393.723
 444  1565.453
 445  1604.434
 446  1692.296
 447  1753.797
 448  1780.087
 449  1525.603
 450  1347.829
 451  1308.368
 452  1450.64
 453  1439
 454  1470.507
 455  1419.348
 456  1485.344
 457  1310.443
 458  1351.524
 459  1352.781
 460  1410.171
 461  1360.805
 462  1485.798
 463  1512.429
 464  1514.162
 465  1476.2
 466  1439.941
 467  1374.901
 468  1439.922
 469  1462.621
 470  1526.998
 471  1442.705
 472  1341.624
 473  1292.355
 474  1239.479
 475  1391.135
 476  1396.915
 477  1456.691
 478  1472.692
 479  1443.604
 480  1516.645
 481  1552.984
 482  1585.992
 483  1554.408
 484  1554.547
 485  1523.801
 486  1388.82
 487  1458.236
 488  1511.329
 489  1499.653
 490  1414.17
 491  1518.628
 492  1635.004
 493  1762.686
 494  1684.707
 495  1661.529
 496  1666.364
 497  1746.886
 498  1733.029
 499  1661.894
 500  1612.757
 501  1643.026
 502  1619.703
 503  1607.665
 504  1582.231
 505  1657.299
 506  1727.24
 507  1652.255
 508  1655.954
 509  1721.857
 510  1657.663
 511  1463.276
 512  1479.341
 513  1529.1
 514  1537.453
 515  1398.976
 516  1443.647
 517  1514.99
 518  1596.326
 519  1585.079
 520  1531.804
 521  1430.386
 522  1246.328
 523  1317.14
 524  1226.153
 525  1264.97
 526  1239.348
 527  1270.508
 528  1332.628
 529  1316.039
 530  1357.043
 531  1202.098
 532  1174.19
 533  1269.084
 534  1368.996
 535  1294.672
 536  1147.886
 537  1150.355
 538  1258.939
 539  1272.357
 540  1175.737
 541  1127.6
 542  1174.127
 543  1272.361
 544  1273.494
 545  1253.427
 546  1150.138
 547  1143.136
 548  1201.244
 549  1184.848
 550  1075.01
 551  1178.134
 552  1233.142
 553  1313.079
 554  1266.268
 555  1246.811
 556  1227.189
 557  1180.092
 558  1188.219
 559  1129.336
 560  1130.325
 561  1101.578
 562  1166.167
 563  1219.571
 564  1229.615
 565  1228.185
 566  1301.79
 567  1321.771
 568  1343.935
 569  1223.568
 570  1278.822
 571  1300.878
 572  1321.177
 573  1331.941
 574  1363.924
 575  1414.62
 576  1416.963
 577  1389.246
 578  1392.606
 579  1440.623
 580  1460.737
 581  1414.15
 582  1362.928
 583  1391.244
 584  1494.622
 585  1613.532
 586  1608.431
 587  1544.106
 588  1500.764
 589  1575.913
 590  1511.459
 591  1377.762
 592  1216.016
 593  1254.436
 594  1348.061
 595  1431.628
 596  1349.206
 597  1321.739
 598  1262.901
 599  1357.491
 600  1402.52
 601  1387.693
 602  1313.475
 603  1231.963
 604  1251.492
 605  1198.252
 606  1134.587
 607  1182.594
 608  1230.026
 609  1255.309
 610  1147.623
 611  1158.07
 612  1125.869
 613  1329.751
 614  1340.522
 615  1315.865
 616  1183.709
 617  1203.362
 618  1301.646
 619  1330.646
 620  1309.982
 621  1319.509
 622  1360.402
 623  1387.053
 624  1374.878
 625  1284.197
 626  1254.464
 627  1285.844
 628  1337.879
 629  1317.858
 630  1218.092
 631  1251.221
 632  1307.234
 633  1251.495
 634  1154.866
 635  1215.466
 636  1305.651
 637  1431.926
 638  1430.972
 639  1509.881
 640  1507.813
 641  1603.457
 642  1739.242
 643  1767.716
 644  1729.418
 645  1752.398
 646  1800.561
 647  2022.419
 648  2170.222
 649  2318.796
 650  2242.036
 651  2438.285
 652  2569.416
 653  2630.583
 654  2443.347
 655  2253.43
 656  2111.718
 657  1956.393
 658  1795.925
 659  1698.202
 660  1675.485
 661  1692.243
 662  1698.724
 663  1727.497
 664  1673.871
 665  1622.635
 666  1610.725
 667  1613.189
 668  1588.286
 669  1515.037
 670  1414.3
 671  1412.907
 672  1498.219
 673  1546.669
 674  1538.34
 675  1514.611
 676  1489.594
 677  1467.355
 678  1422.587
 679  1405.84
 680  1454.55
 681  1535.865
 682  1500.479
 683  1463.874
 684  1399.988
 685  1341.511
 686  1315.153
 687  1280.358
 688  1217.581
 689  1188.71
 690  1304.772
 691  1328.77
 692  1401.511
 693  1385.962
 694  1368.746
 695  1249.725
 696  1254.539
 697  1213.252
 698  1182.798
 699  1173.179
 700  1169.759
 701  1155.796
 702  1080.42
 703  1064.301
 704  1095.426
 705  1215.554
 706  1258.659
 707  1338.3
 708  1292.378
 709  1261.153
 710  1245.123
 711  1342.543
 712  1438.931
 713  1387.727
 714  1243.162
 715  1066.024
 716  1023.138
 717  1105.343
 718  1317.04
 719  1465.328
 720  1489.745
 721  1457.82
 722  1302.774
 723  1178.805
 724  1116.258
 725  1190.076
 726  1251.209
 727  1200.836
 728  1305.564
 729  1319.592
 730  1333.988
 731  1171.581
 732  1154.462
 733  1165.726
 734  1175.732
 735  1194.656
 736  1162.57
 737  1174.266
 738  1084.29
 739  1065.364
 740  1056.244
 741  1189.579
 742  1236.862
 743  1284.174
 744  1388.635
 745  1372.155
 746  1381.57
 747  1335.282
 748  1426.725
 749  1298.167
 750  1364.349
 751  1396.666
 752  1607.517
 753  1648.621
 754  1670.078
 755  1663.436
 756  1645.832
 757  1643.994
 758  1585.518
 759  1604.926
 760  1650.795
 761  1660.571
 762  1602.049
 763  1468.466
 764  1380.16
 765  1302.361
 766  1277.504
 767  1334.448
 768  1350.099
 769  1357.012
 770  1382.894
 771  1407.614
 772  1393.401
 773  1394.472
 774  1380.97
 775  1336.773
 776  1278.379
 777  1273.921
 778  1286.13
 779  1210.306
 780  1146.861
 781  1157.733
 782  1214.961
 783  1254.254
 784  1360.93
 785  1444.171
 786  1468.595
 787  1400.703
 788  1433.057
 789  1437.002
 790  1561.87
 791  1450.259
 792  1371.928
 793  1344.556
 794  1302.512
 795  1354.129
 796  1354.038
 797  1572.799
 798  1641.959
 799  1647.532
 800  1521.138
 801  1471.716
 802  1517.336
 803  1521.982
 804  1390.21
 805  1367.552
 806  1384.533
 807  1417.881
 808  1416.041
 809  1487.744
 810  1465.528
 811  1383.159
 812  1403.379
 813  1424.684
 814  1561.496
 815  1488.566
 816  1440.298
 817  1265.939
 818  1174.44
 819  1199.028
 820  1352.119
 821  1481.965
 822  1403.304
 823  1431.974
 824  1395.927
 825  1450.603
 826  1383.761
 827  1519.044
 828  1649.359
 829  1808.647
 830  1796.948
 831  1773.717
 832  1673.009
 833  1609.535
 834  1535.572
 835  1562.114
 836  1602.639
 837  1603.44
 838  1637.492
 839  1686.321
 840  1785.234
 841  1777.251
 842  1784.622
 843  1695.29
 844  1573.909
 845  1485.526
 846  1594.363
 847  1597.925
 848  1564.819
 849  1456.425
 850  1445.913
 851  1585.798
 852  1660.99
 853  1681.612
 854  1508.039
 855  1487.894
 856  1454.958
 857  1443.29
 858  1436.838
 859  1496.122
 860  1489.016
 861  1620.084
 862  1673.37
 863  1751.205
 864  1635.003
 865  1546.484
 866  1471.543
 867  1489.581
 868  1516.434
 869  1644.663
 870  1747.656
 871  1816.315
 872  1772.365
 873  1629.575
 874  1469.935
 875  1312.456
 876  1309.01
 877  1379.999
 878  1384.221
 879  1298.621
 880  1263.422
 881  1367.641
 882  1422.861
 883  1363.01
 884  1333.065
 885  1353.843
 886  1284.481
 887  1198.842
 888  1258.102
 889  1275.476
 890  1299.934
 891  1313.175
 892  1383.05
 893  1423.212
 894  1504.05
 895  1503.443
 896  1463.374
 897  1475.921
 898  1488.145
 899  1543.14
 900  1515.818
 901  1458.967
 902  1441.805
 903  1508.662
 904  1480.385
 905  1491.803
 906  1466.358
 907  1474.536
 908  1426.712
 909  1489.61
 910  1545.378
 911  1566.909
 912  1571.099
 913  1563.368
 914  1529.371
 915  1445.302
 916  1319.748
 917  1220.9
 918  1219.604
 919  1337.354
 920  1301.548
 921  1306.587
 922  1281.415
 923  1292.285
 924  1396.985
 925  1349.969
 926  1286.634
 927  1202.717
 928  1272.36
 929  1234.773
 930  1188.167
 931  1130.304
 932  1231.259
 933  1302.851
 934  1344.559
 935  1385.045
 936  1278.972
 937  1146.26
 938  1143.516
 939  1199.641
 940  1177.922
 941  1125.396
 942  1214.141
 943  1382.206
 944  1512.244
 945  1471.863
 946  1366.138
 947  1224.593
 948  1148.597
 949  1163.834
 950  1211.244
 951  1242.303
 952  1236.978
 953  1318.83
 954  1312.38
 955  1248.962
 956  1140.458
 957  1183.924
 958  1182.237
 959  1213.243
 960  1198.142
 961  1297.682
 962  1345.45
 963  1338.93
 964  1292.716
 965  1276.674
 966  1336.266
 967  1285.461
 968  1172.034
 969  1109.08
 970  1108.353
 971  1077.801
 972  1154.344
 973  1211.391
 974  1175.863
 975  1139.68
 976  1157.935
 977  1189.565
 978  1190.414
 979  1219.151
 980  1215.596
 981  1165.609
 982  1176.345
 983  1165.224
 984  1248.155
 985  1322.605
 986  1302.427
 987  1269.378
 988  1224.679
 989  1344.576
 990  1459.189
 991  1569.427
 992  1613.708
 993  1553.554
 994  1515.688
 995  1425.825
 996  1438.107
 997  1437.975
 998  1502.642
 999  1462.598
1000  1472.431
1001  1471.549
1002  1616.428
1003  1730.18
1004  1884.527
1005  1774.414
1006  1648.04
1007  1573.916
1008  1627.06
1009  1539.345
1010  1420.531
1011  1390.884
1012  1433.207
1013  1331.453
1014  1278.109
1015  1292.111
1016  1367.436
1017  1338.273
1018  1347.998
1019  1385.196
1020  1360.528
1021  1305.302
1022  1357.843
1023  1491.185
