# Input file       =  1184143011.101692_cleaned.dat
# Candidate        =  PSR_0332+5434
# Telescope        =  AR
# Epoch_topo       =  57949.359144695511
# Epoch_bary       =  N/A
# T_sample         =  0.002
# Data Folded      =  7340032
# Data Avg         =  0.24410115547341 
# Data StdDev      =  5.49401269177132 
# Profile Bins     =  1024
# Profile Avg      =  1749.75629508987 
# Profile StdDev   =  465.145321032303 
# Reduced chi-sqr  =  0.545
# Prob(Noise)      <  1   (~0.0 sigma)
# P_topo (ms)      =  714.479018996767  +/- 0.00079
# P'_topo (s/s)    =  -0                +/- 4.17e-10
# P''_topo (s/s^2) =  0                 +/- 1.84e-13
# P_bary (ms)      =  N/A
# P'_bary (s/s)    =  N/A
# P''_bary (s/s^2) =  N/A
# P_orb (s)        =  N/A
# asin(i)/c (s)    =  N/A
# eccentricity     =  N/A
# w (rad)          =  N/A
# T_peri           =  N/A
######################################################
   0  1934.755
   1  1819.072
   2  1742.333
   3  1878.99
   4  2028.435
   5  1978.84
   6  2027.706
   7  2096.156
   8  2015.339
   9  1923.828
  10  1799.523
  11  1809.09
  12  1845.545
  13  1911.615
  14  1928.611
  15  1889.577
  16  1819.296
  17  1718.552
  18  1646.734
  19  1721.972
  20  1884.207
  21  2021.869
  22  2128.206
  23  2152.747
  24  2199.662
  25  2214.56
  26  2206.048
  27  2159.787
  28  2128.169
  29  2181.005
  30  2220.292
  31  2352.211
  32  2339.941
  33  2299.454
  34  2048.654
  35  1965.642
  36  2008.922
  37  2118.222
  38  2010.545
  39  1838.016
  40  1737.138
  41  1788.262
  42  1946.001
  43  1960.153
  44  1875.502
  45  1817.605
  46  1867.445
  47  1998.468
  48  1962.271
  49  1902.163
  50  1933.201
  51  1822.321
  52  1779.306
  53  1829.076
  54  1887.763
  55  1911.753
  56  1813.429
  57  1859.677
  58  1806.717
  59  1778.487
  60  1770.957
  61  1832.018
  62  1866.399
  63  1928.023
  64  1940.246
  65  2011.091
  66  2039.502
  67  2115.232
  68  2163.49
  69  2089.367
  70  2101.788
  71  2028.08
  72  2006.684
  73  1821.109
  74  1863.093
  75  1897.51
  76  1864.475
  77  1968.195
  78  1982.718
  79  2020.205
  80  1858.266
  81  1775.665
  82  1684.896
  83  1662.554
  84  1683.066
  85  1671.333
  86  1692.762
  87  1583.556
  88  1661.379
  89  1710.037
  90  1709.909
  91  1677.24
  92  1647.834
  93  1633.106
  94  1631.938
  95  1613.321
  96  1623.584
  97  1577.084
  98  1633.102
  99  1683.166
 100  1618.291
 101  1652.677
 102  1779.491
 103  2024.394
 104  2036.764
 105  1940.408
 106  1850.639
 107  1940.799
 108  1965.376
 109  1952.508
 110  1991.87
 111  2028.763
 112  1976.038
 113  1765.547
 114  1676.829
 115  1707.067
 116  1785.642
 117  1709.435
 118  1607.827
 119  1604.533
 120  1713.932
 121  1740.978
 122  1761.948
 123  1871.266
 124  1835.64
 125  1789.533
 126  1734.293
 127  1759.088
 128  1583.774
 129  1491.227
 130  1461.722
 131  1580.783
 132  1603.373
 133  1571.261
 134  1602.09
 135  1644.21
 136  1851.829
 137  1944.726
 138  1895.551
 139  1690.538
 140  1529.597
 141  1565.969
 142  1577.757
 143  1561.257
 144  1632.81
 145  1690.424
 146  1738.011
 147  1731.465
 148  1812.73
 149  1814.478
 150  1860.88
 151  1908.439
 152  1944.237
 153  1955.74
 154  1956.902
 155  1858.278
 156  1808.998
 157  1811.36
 158  1912.794
 159  1962.59
 160  1901.152
 161  1881.808
 162  1918.106
 163  1957.114
 164  1940.266
 165  1917.916
 166  1827.377
 167  1696.26
 168  1671.31
 169  1601.422
 170  1773.94
 171  1717.577
 172  1733.953
 173  1758.528
 174  1795.062
 175  1827.8
 176  1872.682
 177  1974.198
 178  2002.741
 179  1981.237
 180  2069.863
 181  2114.424
 182  2044.562
 183  1905.56
 184  1967.3
 185  1922.227
 186  1836.408
 187  1741.443
 188  1722.963
 189  1741.082
 190  1739.446
 191  1774.105
 192  1958.374
 193  1955.665
 194  1892.555
 195  1783.583
 196  1657.405
 197  1722.236
 198  1765.225
 199  1872.207
 200  1776.403
 201  1705.783
 202  1653.55
 203  1795.407
 204  1899.639
 205  1973.285
 206  1877.907
 207  1824.19
 208  1741.699
 209  1653.441
 210  1760.104
 211  1847.035
 212  1849.612
 213  1830.41
 214  1789.774
 215  1779.877
 216  1730.591
 217  1871.128
 218  2001.615
 219  2046.806
 220  1939.375
 221  1778.314
 222  1757.264
 223  1739.831
 224  1725.045
 225  1705.937
 226  1699.287
 227  1742.285
 228  1717.076
 229  1774.493
 230  1740.087
 231  1769.581
 232  1626.819
 233  1625.675
 234  1525.371
 235  1577.428
 236  1556.827
 237  1705.609
 238  1862.159
 239  1828.002
 240  1724.954
 241  1507.625
 242  1503.992
 243  1462.086
 244  1537.579
 245  1490.682
 246  1532.635
 247  1606.958
 248  1684.843
 249  1713.105
 250  1726.676
 251  1656.057
 252  1533.75
 253  1592.387
 254  1673.358
 255  1760.428
 256  1562.312
 257  1453.986
 258  1383.534
 259  1510.165
 260  1495.756
 261  1489.2
 262  1510.653
 263  1503.532
 264  1439.484
 265  1372.416
 266  1368.863
 267  1284.995
 268  1370.237
 269  1503.118
 270  1588.754
 271  1620.642
 272  1590.761
 273  1524.315
 274  1589.903
 275  1687.326
 276  1611.586
 277  1428.209
 278  1418.888
 279  1539.817
 280  1597.892
 281  1649.098
 282  1630.975
 283  1649.549
 284  1601.003
 285  1555.094
 286  1584.551
 287  1569.626
 288  1648.725
 289  1652.479
 290  1557.304
 291  1479.248
 292  1526.771
 293  1496.353
 294  1474.413
 295  1402.722
 296  1582.521
 297  1678.934
 298  1745.321
 299  1724.006
 300  1705.896
 301  1730.504
 302  1596.071
 303  1604.546
 304  1494.724
 305  1498.228
 306  1495.974
 307  1547.845
 308  1621.588
 309  1553.034
 310  1500.638
 311  1512.643
 312  1579.937
 313  1650.694
 314  1601.974
 315  1433.631
 316  1290.29
 317  1297.942
 318  1441.927
 319  1494.387
 320  1472.473
 321  1482.21
 322  1538.799
 323  1623.349
 324  1687.726
 325  1656.468
 326  1678.606
 327  1628.307
 328  1578.242
 329  1664.506
 330  1795.557
 331  1830.429
 332  1781.206
 333  1644.495
 334  1669.969
 335  1685.434
 336  1762.553
 337  1798.176
 338  1722.811
 339  1726.036
 340  1723.19
 341  1740.225
 342  1646.421
 343  1596.948
 344  1634.451
 345  1686.771
 346  1686.217
 347  1629.527
 348  1617.75
 349  1681.959
 350  1722.253
 351  1701.626
 352  1570.833
 353  1607.792
 354  1683.611
 355  1745.239
 356  1719.145
 357  1676.088
 358  1692.397
 359  1627.297
 360  1553.603
 361  1573.194
 362  1625.338
 363  1623.088
 364  1678.104
 365  1716.951
 366  1756.565
 367  1723.441
 368  1682.378
 369  1684.697
 370  1633.746
 371  1753.201
 372  1718.188
 373  1708.484
 374  1673.8
 375  1763.948
 376  1753.497
 377  1697.46
 378  1750.607
 379  1797.169
 380  1657.525
 381  1569.622
 382  1513.76
 383  1541.895
 384  1513.628
 385  1595.392
 386  1565.018
 387  1611.155
 388  1549.024
 389  1592.133
 390  1568.888
 391  1622.863
 392  1617.405
 393  1674.613
 394  1679.525
 395  1697.789
 396  1706.602
 397  1741.776
 398  1722.03
 399  1732.111
 400  1591.318
 401  1516.571
 402  1469.215
 403  1566.408
 404  1588.484
 405  1690.256
 406  1672.004
 407  1643.352
 408  1722.126
 409  1835.775
 410  1860.094
 411  1805.915
 412  1767.886
 413  1742.112
 414  1619.383
 415  1569.314
 416  1644.733
 417  1668.129
 418  1604.022
 419  1525.83
 420  1590.031
 421  1464.11
 422  1378.177
 423  1393.408
 424  1546.939
 425  1647.502
 426  1715.132
 427  1707.505
 428  1673.388
 429  1667.524
 430  1815.826
 431  1759.298
 432  1700.449
 433  1591.513
 434  1657.598
 435  1795.564
 436  1761.806
 437  1714.938
 438  1626.075
 439  1693.724
 440  1684.536
 441  1586.353
 442  1474.807
 443  1434.416
 444  1525.921
 445  1592.005
 446  1617.926
 447  1685.176
 448  1807.958
 449  1825.438
 450  1725.077
 451  1669.356
 452  1754.327
 453  1799.541
 454  1750.2
 455  1681.113
 456  1605.599
 457  1586.491
 458  1564.284
 459  1619.843
 460  1677.042
 461  1767.222
 462  1840.376
 463  1817.381
 464  1803.026
 465  1712.484
 466  1652.078
 467  1716.545
 468  1703.22
 469  1649.729
 470  1543.024
 471  1420.252
 472  1454.784
 473  1485.997
 474  1615.664
 475  1601.104
 476  1618.288
 477  1665.586
 478  1651.588
 479  1577.186
 480  1499.975
 481  1490.545
 482  1507.051
 483  1574.246
 484  1594.141
 485  1754.097
 486  1762.405
 487  1752.741
 488  1714.69
 489  1585.585
 490  1523.558
 491  1666.529
 492  1834.63
 493  1774.854
 494  1701.557
 495  1757.304
 496  1778.624
 497  1756.569
 498  1866.443
 499  1917.72
 500  1849.638
 501  1664.453
 502  1694.554
 503  1676.609
 504  1606.318
 505  1578.208
 506  1733.466
 507  1748.662
 508  1705.157
 509  1619.384
 510  1514.118
 511  1497.004
 512  1453.912
 513  1440.462
 514  1470.138
 515  1462.15
 516  1499.772
 517  1519.334
 518  1496.209
 519  1379.503
 520  1350.979
 521  1463.998
 522  1490.328
 523  1472.728
 524  1494.296
 525  1553.932
 526  1541.381
 527  1602.679
 528  1587.714
 529  1611.197
 530  1575.333
 531  1659.555
 532  1635.467
 533  1599.087
 534  1631.443
 535  1752.052
 536  1840.384
 537  1809.593
 538  1772.465
 539  1759.856
 540  1788.204
 541  1947.808
 542  1921.484
 543  1870.223
 544  1760.061
 545  1791.411
 546  1980.516
 547  1925.298
 548  1780.188
 549  1729.827
 550  1979.437
 551  2095.472
 552  2100.548
 553  2038.407
 554  2084.888
 555  2156.396
 556  2132.909
 557  2066.352
 558  2067.271
 559  2107.784
 560  2029.224
 561  1999.51
 562  1845
 563  1988.698
 564  1984.51
 565  2068.483
 566  2019.202
 567  1950.562
 568  1921.079
 569  2024.782
 570  2042.229
 571  2097.66
 572  2042.333
 573  2070.995
 574  2125.19
 575  2018.386
 576  1942.467
 577  1870.573
 578  1874.536
 579  1910.438
 580  1912.373
 581  1925.359
 582  1923.545
 583  1871.964
 584  1986.536
 585  1962.616
 586  1898.162
 587  1671.458
 588  1704.91
 589  1676.909
 590  1676.448
 591  1535.276
 592  1569.929
 593  1736.6
 594  1708.127
 595  1730.913
 596  1684.168
 597  1650.139
 598  1654.178
 599  1807.114
 600  1845.926
 601  1698.36
 602  1721.299
 603  1698.862
 604  1665.935
 605  1613.624
 606  1703.817
 607  1621.192
 608  1559.342
 609  1516.174
 610  1488.658
 611  1526.432
 612  1692.626
 613  1772.531
 614  1705.378
 615  1632.114
 616  1651.611
 617  1641.069
 618  1522.17
 619  1493.734
 620  1478.03
 621  1496.689
 622  1501.264
 623  1587.078
 624  1659.141
 625  1576.688
 626  1490.117
 627  1478.66
 628  1504.031
 629  1537.554
 630  1436.993
 631  1488.099
 632  1431.182
 633  1484.818
 634  1590.279
 635  1675.572
 636  1642.834
 637  1508.137
 638  1331.78
 639  1333.629
 640  1422.264
 641  1503.525
 642  1580.484
 643  1659.882
 644  1796.799
 645  1944.782
 646  2126.732
 647  2173.541
 648  2166.949
 649  2244.906
 650  2319.115
 651  2607.078
 652  2624.308
 653  2549.975
 654  2405.448
 655  2351.775
 656  2338.76
 657  2128.534
 658  2072.457
 659  1976.706
 660  1982.568
 661  1872.786
 662  1821.318
 663  1846.623
 664  1742.423
 665  1655.582
 666  1512.135
 667  1546.841
 668  1624.083
 669  1744.476
 670  1798.846
 671  1757.094
 672  1881.129
 673  1882.76
 674  1856.698
 675  1804.252
 676  1754.698
 677  1691.996
 678  1670.961
 679  1748.124
 680  1851.731
 681  1784.61
 682  1806.029
 683  1784.21
 684  1806.326
 685  1628.819
 686  1599.068
 687  1565.885
 688  1673.002
 689  1725.416
 690  1703.575
 691  1642.15
 692  1534.073
 693  1595.606
 694  1634.8
 695  1763.197
 696  1732.468
 697  1744.485
 698  1695.209
 699  1648.291
 700  1609.571
 701  1570.413
 702  1594.523
 703  1637.822
 704  1772.845
 705  1819.422
 706  1832.662
 707  1911.435
 708  2075.454
 709  2140.988
 710  2112.024
 711  1997.722
 712  1836.077
 713  1849.138
 714  1801.814
 715  1878.161
 716  1748.575
 717  1767.068
 718  1851.907
 719  1935.968
 720  1977.181
 721  1848.308
 722  1834.344
 723  1809.346
 724  1772.259
 725  1768.821
 726  1624.276
 727  1529.205
 728  1576.07
 729  1766.314
 730  1920.056
 731  1859.793
 732  1663.455
 733  1599.062
 734  1497.49
 735  1518.484
 736  1547.927
 737  1563.797
 738  1620.278
 739  1643.264
 740  1763.188
 741  1685.62
 742  1602.158
 743  1535.766
 744  1676.531
 745  1770.103
 746  1678.387
 747  1539.577
 748  1557.08
 749  1616.845
 750  1702.103
 751  1644.832
 752  1636.551
 753  1625.616
 754  1676.688
 755  1794.489
 756  1937.604
 757  1974.713
 758  1901.055
 759  1826.29
 760  1725.412
 761  1620.91
 762  1552.389
 763  1566.945
 764  1568.846
 765  1658.717
 766  1753.183
 767  1721.8
 768  1688.055
 769  1647.009
 770  1693.601
 771  1851.214
 772  1897.449
 773  1807.626
 774  1656.519
 775  1612.601
 776  1699.939
 777  1777.231
 778  1848.341
 779  1750.398
 780  1775.571
 781  1664.441
 782  1544.356
 783  1398.772
 784  1570.245
 785  1598.322
 786  1559.967
 787  1523.754
 788  1736.916
 789  1850.537
 790  1861.351
 791  1758.55
 792  1694.262
 793  1751.826
 794  1794.5
 795  1751.604
 796  1589.561
 797  1568.361
 798  1675.696
 799  1855.109
 800  1854.643
 801  1799.53
 802  1889.324
 803  1905.367
 804  1785.835
 805  1642.732
 806  1678.823
 807  1783.734
 808  1799.307
 809  1803.106
 810  1760.179
 811  1738.244
 812  1659.733
 813  1736.126
 814  1760.056
 815  1855.271
 816  1818.547
 817  1790.324
 818  1877.451
 819  1901.91
 820  1867.943
 821  1796.103
 822  1676.574
 823  1704.507
 824  1683.5
 825  1712.402
 826  1764.025
 827  1771.478
 828  1779.162
 829  1759.833
 830  1644.667
 831  1705.103
 832  1724.072
 833  1846.675
 834  1749.822
 835  1671.926
 836  1602.746
 837  1610.857
 838  1722.518
 839  1883.237
 840  1953.177
 841  1851.238
 842  1716.673
 843  1768.294
 844  1966.514
 845  2099.971
 846  1993.776
 847  1817.062
 848  1773.964
 849  1714.734
 850  1624.887
 851  1513.562
 852  1527.127
 853  1551.301
 854  1528.174
 855  1483.459
 856  1539.288
 857  1585.309
 858  1619.691
 859  1751.638
 860  1764.447
 861  1801.54
 862  1736.202
 863  1821.537
 864  1822.349
 865  1803.297
 866  1657.618
 867  1471.715
 868  1367.966
 869  1447.105
 870  1657.298
 871  1767.903
 872  1836.897
 873  1904.176
 874  1853.509
 875  1872.627
 876  1916.729
 877  1977.647
 878  1942.043
 879  1879.477
 880  1930.488
 881  1902.278
 882  1866.818
 883  1901.74
 884  1880.84
 885  1949.107
 886  2001.714
 887  2092.797
 888  2108.241
 889  2169.456
 890  2274.411
 891  2312.998
 892  2228.553
 893  2032.432
 894  1935.629
 895  1926.2
 896  1919.196
 897  1937.054
 898  1887.173
 899  1927.42
 900  1925.929
 901  1945.846
 902  1898.764
 903  1795.732
 904  1835.542
 905  1872.368
 906  1895.389
 907  1884.31
 908  1822.141
 909  1766.752
 910  1832.73
 911  1933.076
 912  1945.786
 913  1813.197
 914  1682.159
 915  1622.992
 916  1518.842
 917  1420.567
 918  1390.95
 919  1439.604
 920  1499.705
 921  1685.494
 922  1869.541
 923  1834.728
 924  1757.115
 925  1731.39
 926  1714.873
 927  1735.625
 928  1735.896
 929  1645.793
 930  1623.843
 931  1583.234
 932  1628.408
 933  1607.133
 934  1531.69
 935  1470.531
 936  1452.703
 937  1702.298
 938  1743.506
 939  1707.15
 940  1560.78
 941  1552.751
 942  1501.902
 943  1477.196
 944  1548.974
 945  1568.082
 946  1594.816
 947  1600.794
 948  1662.989
 949  1618.723
 950  1552.495
 951  1501.74
 952  1450.623
 953  1534.505
 954  1681.174
 955  1692.953
 956  1711.158
 957  1612.809
 958  1627.374
 959  1646.667
 960  1605.187
 961  1703.051
 962  1694.199
 963  1740.637
 964  1764.039
 965  1838.711
 966  1921.804
 967  1943.856
 968  1784.742
 969  1804.07
 970  1705.19
 971  1901.714
 972  1904.158
 973  1934.581
 974  1861.011
 975  1996.651
 976  2031.149
 977  1953.546
 978  2017.073
 979  2133.345
 980  2171.396
 981  2018.893
 982  1958.042
 983  1803.522
 984  1856.428
 985  1833.767
 986  1859.682
 987  1775.289
 988  1727.157
 989  1716.025
 990  1692.329
 991  1646.485
 992  1635.854
 993  1693.584
 994  1854.502
 995  1919.37
 996  1939.338
 997  1962.73
 998  1975.318
 999  1919.974
1000  1813.41
1001  1771.038
1002  1830.262
1003  1912.284
1004  1950.252
1005  2022.92
1006  2072.822
1007  2094.601
1008  2099.847
1009  2069.238
1010  1975.162
1011  1942.369
1012  2116.989
1013  2220.113
1014  2210.104
1015  2154.939
1016  2027.22
1017  2064.779
1018  2079.75
1019  2074.451
1020  1950.091
1021  1838.102
1022  1830.353
1023  1946.901
