# Input file       =  1184128104.119004_cleaned.dat
# Candidate        =  PSR_0332+5434
# Telescope        =  AR
# Epoch_topo       =  57949.186610173660
# Epoch_bary       =  N/A
# T_sample         =  0.002
# Data Folded      =  7340032
# Data Avg         =  0.0949005244775828
# Data StdDev      =  3.08773895541816 
# Profile Bins     =  512
# Profile Avg      =  1360.51496517505 
# Profile StdDev   =  369.704360671041 
# Reduced chi-sqr  =  1.204
# Prob(Noise)      <  0.00103   (~3.1 sigma)
# P_topo (ms)      =  714.478799009159  +/- 0.000286
# P'_topo (s/s)    =  -0                +/- 1.51e-10
# P''_topo (s/s^2) =  0                 +/- 6.66e-14
# P_bary (ms)      =  N/A
# P'_bary (s/s)    =  N/A
# P''_bary (s/s^2) =  N/A
# P_orb (s)        =  N/A
# asin(i)/c (s)    =  N/A
# eccentricity     =  N/A
# w (rad)          =  N/A
# T_peri           =  N/A
######################################################
   0  1136.85
   1  1142.266
   2  1047.606
   3  1113.714
   4  1145.144
   5  1120.953
   6  1459.133
   7  1437.268
   8  1246.76
   9  1095.648
  10  977.8461
  11  1122.023
  12  1312.982
  13  1246.319
  14  1255.153
  15  1228.256
  16  1308.374
  17  1191.782
  18  1449.497
  19  1426.827
  20  1086.067
  21  1044.15
  22  1225.068
  23  1266.823
  24  1159.359
  25  1038.414
  26  1302.165
  27  1560.885
  28  1543.942
  29  1177.722
  30  1018.822
  31  1168.384
  32  1006.424
  33  868.1396
  34  1000.195
  35  1060.098
  36  1007.584
  37  1023.524
  38  807.4617
  39  799.8961
  40  920.4576
  41  960.5741
  42  911.1827
  43  814.4178
  44  913.8136
  45  845.221
  46  768.167
  47  1133.579
  48  859.7859
  49  903.8421
  50  903.3053
  51  1006.258
  52  974.4197
  53  999.4507
  54  1166.046
  55  992.5885
  56  1140.497
  57  934.5441
  58  1230.894
  59  1664.739
  60  1648.961
  61  1672.619
  62  1478.512
  63  1224.582
  64  1361.117
  65  1132.711
  66  986.7048
  67  1189.996
  68  1014.414
  69  873.8459
  70  925.8347
  71  905.7329
  72  979.5842
  73  1005.253
  74  1031.9
  75  970.265
  76  624.5912
  77  1019.43
  78  1098.854
  79  692.765
  80  879.4042
  81  1048.809
  82  1500.481
  83  1594.441
  84  1310.451
  85  1253.209
  86  1316.704
  87  1230.962
  88  1143.66
  89  1056.911
  90  1257.444
  91  1193.937
  92  1259.311
  93  1527.429
  94  1325.351
  95  1057.528
  96  1480.651
  97  1498.873
  98  1329.377
  99  1227.974
 100  1394.565
 101  1212.797
 102  1205.584
 103  1182.197
 104  1246.505
 105  1357.423
 106  1463.795
 107  1312.484
 108  789.4776
 109  891.496
 110  1096.859
 111  1104.215
 112  1326.612
 113  1427.016
 114  1559.028
 115  1495.764
 116  1283.683
 117  1508.78
 118  1686.375
 119  1534.138
 120  1436.293
 121  1482.684
 122  1455.915
 123  1202.165
 124  1384.661
 125  1216.722
 126  1060.115
 127  1205.84
 128  1576.426
 129  1568.724
 130  1365.529
 131  1287.637
 132  1363.625
 133  1472.951
 134  1425.499
 135  1489.384
 136  1440.864
 137  1185.574
 138  1338.465
 139  1480.886
 140  1584.825
 141  1674.485
 142  1793.991
 143  1370.07
 144  1485.206
 145  1605.319
 146  1700.065
 147  1670.181
 148  1775.315
 149  1851.911
 150  1524.671
 151  1481.935
 152  1287.352
 153  1580.802
 154  1428.484
 155  1245.982
 156  1273.216
 157  1133.207
 158  1235.331
 159  1134.786
 160  1257.273
 161  1097.379
 162  1075.894
 163  1027.072
 164  1140.442
 165  1207.83
 166  1263.632
 167  1190.629
 168  1326.667
 169  1448.227
 170  1222.135
 171  1453.053
 172  1699.52
 173  1464.667
 174  1238.043
 175  1316.2
 176  1081.977
 177  957.2948
 178  925.9664
 179  1414.364
 180  1579.247
 181  1651.008
 182  1477.128
 183  1317.791
 184  1427.995
 185  1456.25
 186  1520.151
 187  1667.284
 188  1729.104
 189  1528.158
 190  1693.664
 191  1821.861
 192  1389.718
 193  1482.128
 194  1470.18
 195  1441.878
 196  1384.207
 197  1153.998
 198  1354.798
 199  1445.243
 200  1350.212
 201  1474.983
 202  1069.393
 203  1131.934
 204  1365.032
 205  1285.627
 206  1310.069
 207  1173.073
 208  1383.107
 209  1214.905
 210  1240.404
 211  1356.462
 212  1328.499
 213  1442.76
 214  1274.982
 215  1400.254
 216  1289.125
 217  1415.368
 218  1578.723
 219  1669.645
 220  1417.447
 221  1311.721
 222  1532.848
 223  1630.122
 224  1708.791
 225  1589.246
 226  1456.07
 227  1478.372
 228  1474.536
 229  1498.763
 230  1374.224
 231  1643.773
 232  1514.028
 233  1367.464
 234  1449.994
 235  1408.298
 236  1198.971
 237  1188.672
 238  1134.171
 239  1239.323
 240  1592.733
 241  1716.106
 242  1237.844
 243  1036.663
 244  1170.966
 245  1341.609
 246  1237.169
 247  1527.853
 248  1567.483
 249  1150.31
 250  1194.335
 251  1213.332
 252  1085.751
 253  1056.849
 254  1125.917
 255  1327.872
 256  1410.474
 257  1255.675
 258  1200.416
 259  1065.501
 260  1357.626
 261  1321.409
 262  1027.706
 263  1024.466
 264  1027.437
 265  1144.311
 266  1325.417
 267  1451.886
 268  1505.278
 269  1421.515
 270  1623.515
 271  1540.901
 272  1545.956
 273  1410.552
 274  1293.948
 275  1421.873
 276  1583.365
 277  1408.673
 278  1469.601
 279  1346.702
 280  1285.317
 281  1312.99
 282  1478.036
 283  1290.138
 284  1121.8
 285  1181.583
 286  1418.368
 287  1300.055
 288  1059.723
 289  1245.438
 290  1203.971
 291  1195.056
 292  1341.855
 293  1610.717
 294  1203.322
 295  1127.964
 296  1393.399
 297  1335.269
 298  1219.797
 299  1274.9
 300  1332.267
 301  1389.689
 302  1438.91
 303  1639.028
 304  1523.918
 305  1413.916
 306  1499.433
 307  1309.246
 308  1540.809
 309  1665.757
 310  1693.729
 311  1669.405
 312  1494.881
 313  1313.681
 314  1381.043
 315  1566.001
 316  1545.43
 317  1458.588
 318  1815.819
 319  1541.016
 320  1560.626
 321  1824.099
 322  2179.914
 323  2369.506
 324  2929.681
 325  3149.736
 326  3701.307
 327  3373.188
 328  2689.627
 329  2035.619
 330  1698.335
 331  1515.902
 332  1450.784
 333  1478.976
 334  1403.017
 335  1187.596
 336  1424.344
 337  1682.001
 338  1208.736
 339  1143.753
 340  1476.601
 341  1407.53
 342  1212.683
 343  1468.362
 344  1515.303
 345  1227.405
 346  1030.375
 347  1239.727
 348  1281.999
 349  1273.636
 350  1536.301
 351  1361.156
 352  1239.827
 353  1439.366
 354  1641.66
 355  1409.487
 356  1211.792
 357  1394.828
 358  1518.513
 359  1630.808
 360  1540.531
 361  1597.431
 362  1512.039
 363  1534.457
 364  1370.952
 365  1280.255
 366  1274.354
 367  1459.522
 368  1660.254
 369  1655.763
 370  1601.855
 371  1263.506
 372  794.7375
 373  1023.951
 374  1352.057
 375  1389.219
 376  1430.903
 377  1410.218
 378  1207.921
 379  1397.573
 380  1491.947
 381  1244.714
 382  1314.764
 383  1698.445
 384  1540.964
 385  1667.652
 386  1689.497
 387  1649.743
 388  1264.954
 389  1363
 390  1419.75
 391  1319.35
 392  1377.998
 393  1456.064
 394  1563.523
 395  1810.755
 396  1727.757
 397  1440.189
 398  1186.738
 399  1254.645
 400  1528.232
 401  1581.417
 402  1702.588
 403  1624.571
 404  1743.932
 405  1561.064
 406  1369.928
 407  1543.327
 408  1529.514
 409  1611.003
 410  1683.191
 411  1700.314
 412  1520.268
 413  1412.472
 414  1342.217
 415  1473.556
 416  1780.215
 417  1921.056
 418  1347.685
 419  1373.595
 420  1442.468
 421  1348.647
 422  1154.687
 423  1227.848
 424  1085.097
 425  1344.257
 426  1518.348
 427  1318.799
 428  1251.002
 429  1225.546
 430  1463.615
 431  1545.278
 432  1386.976
 433  1424.775
 434  1687.147
 435  1685.905
 436  1438.405
 437  1641.142
 438  1771.081
 439  1788.767
 440  1639.895
 441  1365.431
 442  1347.756
 443  1427.836
 444  1451.62
 445  1526.819
 446  1611.518
 447  1512.864
 448  1429.224
 449  1531.604
 450  1497.381
 451  1480.603
 452  1543.978
 453  1546.436
 454  1584.556
 455  1241.717
 456  1224.415
 457  1336.526
 458  1354.164
 459  1390.07
 460  1354.475
 461  1472.436
 462  1341.568
 463  1256.31
 464  1139.958
 465  1159.036
 466  1320.622
 467  1248.936
 468  1255.165
 469  1020.028
 470  1058.313
 471  1430.472
 472  1391.448
 473  1530.59
 474  1313.685
 475  1135.021
 476  1394.639
 477  1307.286
 478  1396.502
 479  1256.556
 480  1303.931
 481  1315.81
 482  1213.638
 483  1130.185
 484  1420.378
 485  1744.137
 486  1652.612
 487  1585.594
 488  1547.773
 489  1566.858
 490  1440.511
 491  1399.019
 492  1312.719
 493  1432.702
 494  1444.759
 495  1215.267
 496  1121.083
 497  1225.285
 498  1176.681
 499  1132.302
 500  1207.432
 501  1214.668
 502  1148.224
 503  1083.333
 504  929.2609
 505  1037.316
 506  1072.953
 507  1031.685
 508  1117.838
 509  1052.965
 510  1153.2
 511  1331.62
