# Input file       =  1184573858.104995_cleaned.dat
# Candidate        =  PSR_0332+5434
# Telescope        =  AR
# Epoch_topo       =  57954.345799826333
# Epoch_bary       =  N/A
# T_sample         =  0.002
# Data Folded      =  7340032
# Data Avg         =  0.0487257000807877
# Data StdDev      =  1.00013830669717 
# Profile Bins     =  512
# Profile Avg      =  698.508350477939 
# Profile StdDev   =  119.74959625757  
# Reduced chi-sqr  =  1.288
# Prob(Noise)      <  1.11e-05   (~4.2 sigma)
# P_topo (ms)      =  714.475866566402  +/- 0.000312
# P'_topo (s/s)    =  -0                +/- 1.65e-10
# P''_topo (s/s^2) =  0                 +/- 7.27e-14
# P_bary (ms)      =  N/A
# P'_bary (s/s)    =  N/A
# P''_bary (s/s^2) =  N/A
# P_orb (s)        =  N/A
# asin(i)/c (s)    =  N/A
# eccentricity     =  N/A
# w (rad)          =  N/A
# T_peri           =  N/A
######################################################
   0  795.3648
   1  690.3418
   2  818.3378
   3  762.0809
   4  788.0474
   5  720.446
   6  645.9259
   7  810.3373
   8  850.9857
   9  798.2802
  10  675.547
  11  794.0673
  12  824.0978
  13  722.2042
  14  716.2587
  15  643.2106
  16  702.5486
  17  728.1696
  18  686.2153
  19  644.3085
  20  714.7031
  21  755.4064
  22  769.0265
  23  672.3775
  24  706.6684
  25  757.1331
  26  684.8996
  27  779.7567
  28  839.0767
  29  841.7104
  30  887.6953
  31  792.4158
  32  852.8365
  33  861.1443
  34  846.057
  35  842.6774
  36  834.9253
  37  802.6691
  38  821.9207
  39  870.88
  40  809.5592
  41  713.7135
  42  758.243
  43  863.6288
  44  885.6367
  45  723.2909
  46  700.4417
  47  719.825
  48  722.9734
  49  728.6821
  50  635.0744
  51  673.1721
  52  671.5992
  53  706.1664
  54  708.7656
  55  718.5206
  56  641.991
  57  687.2493
  58  703.5229
  59  694.5401
  60  734.6694
  61  678.9489
  62  706.8741
  63  675.2111
  64  719.1022
  65  764.7054
  66  810.3998
  67  780.724
  68  732.4974
  69  769.6514
  70  739.0715
  71  678.7952
  72  731.4518
  73  760.6628
  74  731.1844
  75  699.2967
  76  693.3311
  77  821.869
  78  782.1552
  79  741.6574
  80  793.0157
  81  760.1352
  82  677.0581
  83  751.2918
  84  799.6168
  85  733.3928
  86  641.3834
  87  718.2136
  88  774.0678
  89  682.364
  90  666.4917
  91  694.2918
  92  668.9627
  93  745.8834
  94  672.663
  95  755.1963
  96  763.4988
  97  743.7657
  98  660.7808
  99  726.3643
 100  749.8566
 101  670.2186
 102  689.467
 103  624.479
 104  649.564
 105  645.5496
 106  632.2468
 107  584.4086
 108  665.8452
 109  723.0927
 110  796.5135
 111  697.152
 112  834.4916
 113  793.1108
 114  740.6056
 115  792.8749
 116  851.2084
 117  802.3364
 118  850.664
 119  879.0298
 120  782.6167
 121  728.7663
 122  802.6148
 123  825.313
 124  865.9459
 125  800.381
 126  762.7168
 127  805.1486
 128  731.4777
 129  740.4815
 130  714.6616
 131  749.0917
 132  716.0356
 133  620.897
 134  670.5151
 135  579.169
 136  544.1555
 137  653.9666
 138  769.3704
 139  835.4304
 140  620.9988
 141  586.6553
 142  759.7144
 143  955.4949
 144  824.666
 145  718.5844
 146  652.2097
 147  754.9176
 148  742.595
 149  675.9992
 150  595.5252
 151  596.4622
 152  609.6811
 153  649.8687
 154  755.767
 155  658.904
 156  689.5324
 157  738.4531
 158  900.1584
 159  1063.849
 160  1207.507
 161  1325.047
 162  1228.431
 163  1042.091
 164  813.977
 165  723.2754
 166  713.1252
 167  693.3279
 168  645.7732
 169  608.0535
 170  622.32
 171  625.2579
 172  695.4967
 173  687.3749
 174  701.7223
 175  730.6545
 176  616.9097
 177  651.6523
 178  738.8181
 179  756.2739
 180  646.132
 181  623.5674
 182  671.4619
 183  655.3505
 184  570.874
 185  534.5847
 186  634.507
 187  742.2086
 188  837.2452
 189  730.2239
 190  762.6425
 191  647.0162
 192  674.7163
 193  670.6196
 194  560.8165
 195  630.447
 196  701.2407
 197  727.8564
 198  718.784
 199  612.2269
 200  624.5544
 201  595.4133
 202  596.3547
 203  579.148
 204  657.34
 205  616.2737
 206  558.446
 207  534.7865
 208  515.7244
 209  631.1021
 210  690.1125
 211  571.3108
 212  601.8741
 213  692.0386
 214  609.918
 215  580.372
 216  595.4261
 217  722.5927
 218  652.0469
 219  517.5696
 220  543.1861
 221  529.0697
 222  530.8207
 223  621.9307
 224  612.465
 225  518.9221
 226  605.9741
 227  527.9236
 228  549.3638
 229  597.7474
 230  587.2283
 231  682.5333
 232  687.3671
 233  559.17
 234  552.6143
 235  569.8582
 236  576.823
 237  616.2788
 238  690.6469
 239  726.065
 240  672.2304
 241  521.7767
 242  621.9869
 243  509.3419
 244  469.5255
 245  569.4109
 246  605.2902
 247  656.9442
 248  543.7945
 249  545.2945
 250  576.5439
 251  565.8281
 252  520.0499
 253  625.8773
 254  690.1758
 255  627.3922
 256  513.1447
 257  548.8519
 258  577.0045
 259  483.63
 260  435.1284
 261  495.3647
 262  607.4042
 263  631.187
 264  551.2499
 265  546.3759
 266  626.8174
 267  645.8445
 268  680.3254
 269  659.8187
 270  612.4911
 271  720.1389
 272  835.975
 273  872.6304
 274  729.7082
 275  702.9395
 276  768.7218
 277  675.1235
 278  617.4066
 279  671.3742
 280  761.1088
 281  684.9848
 282  721.1187
 283  798.5466
 284  752.5958
 285  742.5533
 286  741.4448
 287  673.705
 288  637.3629
 289  647.3224
 290  632.0177
 291  529.5403
 292  540.4432
 293  604.8034
 294  566.6299
 295  642.4197
 296  671.753
 297  768.8722
 298  700.4329
 299  582.7498
 300  587.2411
 301  542.8907
 302  618.4694
 303  569.0501
 304  635.1083
 305  754.8745
 306  706.3931
 307  686.139
 308  650.8583
 309  581.1698
 310  654.4112
 311  684.7645
 312  707.9204
 313  702.353
 314  678.5401
 315  686.9407
 316  624.8062
 317  746.615
 318  833.8085
 319  735.6524
 320  600.2907
 321  595.4653
 322  729.7643
 323  754.7883
 324  714.4772
 325  674.5992
 326  696.9459
 327  652.8264
 328  650.8743
 329  821.5007
 330  792.9113
 331  711.3959
 332  704.2208
 333  713.7581
 334  635.5617
 335  551.4763
 336  579.5863
 337  618.0125
 338  578.3315
 339  714.0046
 340  763.4873
 341  665.2093
 342  685.3049
 343  769.6394
 344  793.8705
 345  647.7555
 346  578.9071
 347  645.1128
 348  604.8427
 349  604.1483
 350  739.0022
 351  771.356
 352  682.3359
 353  720.0596
 354  678.7741
 355  661.7385
 356  570.1127
 357  558.8708
 358  641.1746
 359  723.537
 360  677.0026
 361  732.483
 362  784.3583
 363  708.4684
 364  700.022
 365  756.0218
 366  788.4844
 367  787.9998
 368  726.6633
 369  671.1709
 370  689.4673
 371  686.8547
 372  711.0284
 373  683.7817
 374  600.1243
 375  549.946
 376  567.8497
 377  672.1976
 378  688.3597
 379  659.7369
 380  687.4175
 381  788.7816
 382  728.3766
 383  786.8652
 384  686.4114
 385  595.4922
 386  707.087
 387  679.1341
 388  700.3586
 389  670.6163
 390  593.3275
 391  618.2393
 392  693.203
 393  647.3872
 394  627.157
 395  627.858
 396  628.6389
 397  644.3683
 398  668.0148
 399  676.7525
 400  596.8923
 401  666.3503
 402  759.6238
 403  747.0203
 404  792.433
 405  839.7031
 406  759.4113
 407  761.4938
 408  772.692
 409  737.3773
 410  691.9634
 411  637.8474
 412  713.7454
 413  657.9269
 414  625.36
 415  699.7114
 416  737.9186
 417  790.2441
 418  702.2909
 419  627.5908
 420  672.1772
 421  708.6921
 422  749.7319
 423  695.4654
 424  704.9662
 425  619.7532
 426  719.2021
 427  714.2483
 428  726.0937
 429  779.3293
 430  715.7893
 431  779.7357
 432  691.1613
 433  751.5123
 434  756.9181
 435  781.4384
 436  752.3829
 437  616.393
 438  806.2971
 439  892.9139
 440  729.8629
 441  560.1656
 442  616.861
 443  730.8668
 444  598.5699
 445  570.9802
 446  607.4858
 447  741.6215
 448  815.8665
 449  647.3728
 450  678.064
 451  718.4741
 452  660.7366
 453  610.1281
 454  740.556
 455  712.9432
 456  578.0185
 457  643.126
 458  648.7631
 459  690.1655
 460  703.9827
 461  707.9605
 462  700.5712
 463  789.9756
 464  754.2242
 465  766.5389
 466  848.8102
 467  762.8011
 468  831.4645
 469  732.9293
 470  612.8575
 471  583.6072
 472  588.3095
 473  568.5263
 474  549.1497
 475  675.1238
 476  689.2969
 477  577.0686
 478  676.6254
 479  825.5444
 480  832.9816
 481  723.8123
 482  750.2203
 483  705.9045
 484  717.1743
 485  649.921
 486  791.0712
 487  860.9361
 488  896.1547
 489  846.5015
 490  717.4874
 491  766.0741
 492  804.9162
 493  904.3796
 494  848.4275
 495  806.4329
 496  755.058
 497  790.3203
 498  766.7647
 499  708.2263
 500  718.538
 501  652.9833
 502  774.7756
 503  796.7125
 504  695.8228
 505  792.2744
 506  803.9451
 507  762.8872
 508  658.5755
 509  582.5508
 510  680.0716
 511  736.9559
