# Input file       =  1185506739.105851_cleaned.dat
# Candidate        =  PSR_0332+5434
# Telescope        =  AR
# Epoch_topo       =  57965.143033632536
# Epoch_bary       =  N/A
# T_sample         =  0.002
# Data Folded      =  7340032
# Data Avg         =  0.134387696832294
# Data StdDev      =  3.52616816935548 
# Profile Bins     =  1024
# Profile Avg      =  958.878511001737 
# Profile StdDev   =  298.539649827407 
# Reduced chi-sqr  =  1.530
# Prob(Noise)      <  1.7e-25   (~10.4 sigma)
# P_topo (ms)      =  714.469868515142  +/- 0.000532
# P'_topo (s/s)    =  -0                +/- 2.81e-10
# P''_topo (s/s^2) =  0                 +/- 1.24e-13
# P_bary (ms)      =  N/A
# P'_bary (s/s)    =  N/A
# P''_bary (s/s^2) =  N/A
# P_orb (s)        =  N/A
# asin(i)/c (s)    =  N/A
# eccentricity     =  N/A
# w (rad)          =  N/A
# T_peri           =  N/A
######################################################
   0  1134.403
   1  1127.738
   2  1110.97
   3  1082.707
   4  1016.295
   5  958.5879
   6  945.0922
   7  1009.055
   8  943.809
   9  851.7766
  10  855.095
  11  915.4922
  12  940.8546
  13  820.4235
  14  752.7137
  15  783.1458
  16  959.7279
  17  1048.147
  18  1069.162
  19  1011.926
  20  1036.614
  21  1059.236
  22  1130.76
  23  1122.063
  24  1105.988
  25  1055.313
  26  1064.824
  27  1056.237
  28  1082.477
  29  1052.483
  30  1057.161
  31  1027.684
  32  1001.959
  33  955.3516
  34  1057.201
  35  1061.471
  36  1082.769
  37  1076.66
  38  1115.995
  39  1051.268
  40  974.7493
  41  967.7065
  42  997.3384
  43  1006.459
  44  1096.526
  45  1084.003
  46  1043.129
  47  1016.425
  48  976.5208
  49  962.0737
  50  959.5215
  51  998.2633
  52  1029.758
  53  952.8013
  54  896.3012
  55  961.9731
  56  1105.082
  57  1101.89
  58  1053.007
  59  1056.47
  60  1012.66
  61  969.514
  62  880.4589
  63  897.98
  64  900.0977
  65  902.8142
  66  906.0109
  67  985.8388
  68  1031.661
  69  1032.298
  70  939.3448
  71  860.4203
  72  801.0921
  73  713.8785
  74  822.9586
  75  861.3649
  76  828.5519
  77  841.0595
  78  838.6194
  79  897.2968
  80  956.3255
  81  1072.672
  82  1177.717
  83  1100.611
  84  1065.333
  85  1049.968
  86  1106.248
  87  1080.278
  88  1055.385
  89  1011.758
  90  1001.352
  91  1013.377
  92  978.999
  93  1067.671
  94  1033.391
  95  1154.542
  96  1124.265
  97  1198.379
  98  1147.846
  99  1082.464
 100  1092.69
 101  1049.779
 102  986.5475
 103  973.1306
 104  1046.258
 105  1128.539
 106  1098.298
 107  1142.7
 108  1092.056
 109  1273.537
 110  1368.646
 111  1480.555
 112  1241.262
 113  1061.499
 114  1061.911
 115  1139.456
 116  1162.247
 117  1150.256
 118  1109.879
 119  1119.146
 120  1139.613
 121  1131.653
 122  1172.403
 123  1273.005
 124  1289.233
 125  1248.368
 126  1135.971
 127  1275.157
 128  1311.12
 129  1330.504
 130  1250.422
 131  1260.211
 132  1181.17
 133  1152.477
 134  1093.325
 135  1031.178
 136  1077.602
 137  1087.699
 138  1163.294
 139  1085.278
 140  997.0091
 141  945.7967
 142  1000.566
 143  1017.647
 144  1074.631
 145  1123.665
 146  1239.007
 147  1249.945
 148  1219.736
 149  1146.606
 150  1127.278
 151  1094.375
 152  1107.933
 153  1121.975
 154  1155.133
 155  1156.579
 156  1165.034
 157  1283.11
 158  1389.048
 159  1364.662
 160  1307.022
 161  1296.564
 162  1215.867
 163  1178.814
 164  1158.156
 165  1237.049
 166  1285.963
 167  1193.957
 168  1119.781
 169  1152.556
 170  1185.683
 171  1256.836
 172  1247.151
 173  1283.976
 174  1272.664
 175  1195.413
 176  1246.107
 177  1151.642
 178  1226.335
 179  1198.903
 180  1251.557
 181  1252.166
 182  1230.435
 183  1202.163
 184  1181.763
 185  1253.818
 186  1290.439
 187  1217.384
 188  1236.647
 189  1311.031
 190  1382.523
 191  1267.357
 192  1211.835
 193  1276.588
 194  1313.985
 195  1367.029
 196  1250.334
 197  1251.692
 198  1166.886
 199  1181.826
 200  1141.421
 201  1151.465
 202  1213.743
 203  1300.174
 204  1289.989
 205  1137.013
 206  1097.361
 207  1116.935
 208  1283.168
 209  1266.192
 210  1345.18
 211  1240.487
 212  1189.257
 213  1126.487
 214  1043.293
 215  1030.268
 216  1025.058
 217  1095.14
 218  1106.741
 219  1170.881
 220  1260.997
 221  1324.59
 222  1262.158
 223  1186.907
 224  1037.266
 225  1079.259
 226  1116.257
 227  1198.045
 228  1078.607
 229  1031.433
 230  1005.631
 231  1001.101
 232  1017.318
 233  1090.944
 234  1177.156
 235  1154.228
 236  1133.186
 237  1070.249
 238  1057.65
 239  1057.636
 240  1129.593
 241  1168.06
 242  1132.039
 243  1146.936
 244  1100.405
 245  1089.942
 246  1052.966
 247  1002.863
 248  938.1605
 249  880.4067
 250  927.5181
 251  988.3692
 252  1014.75
 253  994.902
 254  990.3855
 255  961.6332
 256  878.3237
 257  910.5886
 258  887.3785
 259  940.3883
 260  970.2961
 261  1066.65
 262  1032.921
 263  921.3411
 264  1028.773
 265  1156.617
 266  1181.396
 267  1036.913
 268  1056.772
 269  1061.792
 270  1015.654
 271  896.2229
 272  902.9091
 273  937.4484
 274  1024.187
 275  1060.077
 276  1095.478
 277  1067.296
 278  1112.515
 279  1143.507
 280  1147.601
 281  1109.022
 282  1079.707
 283  1092.552
 284  1090.268
 285  1119.567
 286  1048.771
 287  928.129
 288  966.756
 289  1039.885
 290  1074.103
 291  1065.025
 292  1111.199
 293  1084.046
 294  1090.287
 295  966.812
 296  783.4556
 297  715.0952
 298  848.3771
 299  1024.61
 300  1081.189
 301  1055.091
 302  1008.735
 303  1047.175
 304  1046.182
 305  1102.304
 306  1026.835
 307  958.9938
 308  980.7245
 309  1094.909
 310  1026.668
 311  908.6732
 312  858.6501
 313  1018.992
 314  1021.557
 315  971.1897
 316  925.2535
 317  953.0505
 318  1030.158
 319  1069.688
 320  1098.087
 321  1042.216
 322  1025.289
 323  968.5767
 324  1021.863
 325  913.4643
 326  932.0372
 327  892.1835
 328  889.0883
 329  834.8336
 330  765.7147
 331  731.6402
 332  687.8457
 333  664.8157
 334  663.3846
 335  778.1521
 336  888.0441
 337  906.2963
 338  837.0302
 339  814.6941
 340  822.5967
 341  785.5415
 342  776.4449
 343  763.1938
 344  728.8543
 345  770.2182
 346  738.8779
 347  752.3082
 348  717.7463
 349  728.4952
 350  680.0942
 351  694.5687
 352  753.5642
 353  714.3834
 354  683.4694
 355  659.0913
 356  728.0054
 357  750.82
 358  738.4552
 359  754.1729
 360  729.8139
 361  697.2576
 362  719.6873
 363  761.5743
 364  876.0578
 365  868.1622
 366  851.4202
 367  727.1933
 368  672.4865
 369  590.2057
 370  540.3474
 371  435.5717
 372  354.7413
 373  373.4738
 374  424.6618
 375  497.3232
 376  544.3438
 377  613.1647
 378  667.7832
 379  759.7796
 380  751.5291
 381  774.4126
 382  797.5166
 383  735.4805
 384  620.621
 385  650.184
 386  739.3512
 387  732.7524
 388  700.4944
 389  753.327
 390  874.9696
 391  926.2567
 392  828.7096
 393  735.7424
 394  679.1576
 395  748.166
 396  757.4872
 397  706.0616
 398  581.9565
 399  620.8749
 400  646.6036
 401  649.3395
 402  559.7169
 403  656.3758
 404  809.6342
 405  874.4355
 406  788.9049
 407  688.9258
 408  644.8746
 409  680.1249
 410  718.8031
 411  748.6255
 412  754.9125
 413  733.4004
 414  766.4838
 415  830.459
 416  822.5181
 417  836.6171
 418  780.4213
 419  846.6655
 420  716.2493
 421  761.498
 422  669.2924
 423  655.7596
 424  683.8853
 425  698.6116
 426  760.9124
 427  722.0696
 428  803.7698
 429  763.5063
 430  809.9001
 431  799.5537
 432  721.9963
 433  683.9841
 434  725.0143
 435  851.222
 436  862.2342
 437  814.7761
 438  824.3761
 439  836.3759
 440  764.4998
 441  686.2629
 442  623.2515
 443  651.4816
 444  649.0417
 445  580.4007
 446  663.098
 447  752.8632
 448  776.4789
 449  787.4848
 450  765.2744
 451  724.5682
 452  606.517
 453  536.1791
 454  562.1094
 455  665.5053
 456  741.3036
 457  799.21
 458  826.6408
 459  828.56
 460  845.5102
 461  794.5612
 462  760.7708
 463  696.0996
 464  702.5292
 465  602.2875
 466  562.6559
 467  578.519
 468  721.4091
 469  771.642
 470  827.0122
 471  816.5524
 472  790.7317
 473  826.8273
 474  877.6308
 475  909.0541
 476  726.5535
 477  642.4267
 478  614.1712
 479  755.4396
 480  788.2338
 481  750.398
 482  718.935
 483  706.029
 484  671.5112
 485  710.6993
 486  780.3174
 487  869.555
 488  893.9775
 489  860.398
 490  753.5826
 491  645.014
 492  530.4177
 493  539.8049
 494  563.4018
 495  652.1595
 496  681.3882
 497  651.6296
 498  648.6986
 499  639.5853
 500  647.0975
 501  614.0596
 502  628.3076
 503  616.1894
 504  625.5634
 505  643.5915
 506  632.006
 507  656.6395
 508  488.9452
 509  511.6907
 510  451.5526
 511  512.3383
 512  521.9772
 513  591.5955
 514  723.8301
 515  672.176
 516  713.7294
 517  632.281
 518  734.6188
 519  681.0328
 520  767.6425
 521  821.4044
 522  904.9102
 523  866.1511
 524  851.0008
 525  946.8326
 526  993.1517
 527  940.1287
 528  923.1802
 529  1002.036
 530  1096.981
 531  1093.844
 532  959.2517
 533  943.3475
 534  955.8538
 535  1008.371
 536  1015.011
 537  1034.098
 538  970.0654
 539  917.0101
 540  910.4297
 541  959.1481
 542  939.8462
 543  877.678
 544  873.8356
 545  801.7405
 546  783.3196
 547  735.1708
 548  823.8267
 549  818.0137
 550  794.8499
 551  833.1763
 552  923.6489
 553  991.4148
 554  965.0708
 555  1000.975
 556  944.4634
 557  984.5603
 558  990.0311
 559  938.386
 560  890.6191
 561  909.9422
 562  924.5703
 563  902.9563
 564  852.7729
 565  793.0349
 566  813.8167
 567  881.0447
 568  928.9421
 569  912.8662
 570  871.0813
 571  951.551
 572  1002.215
 573  984.4174
 574  991.0412
 575  933.4255
 576  900.3613
 577  782.291
 578  796.3154
 579  735.2773
 580  785.7247
 581  810.9015
 582  922.3878
 583  923.0295
 584  894.8342
 585  949.2667
 586  930.6174
 587  1001.398
 588  1012.29
 589  967.5687
 590  838.7019
 591  799.1217
 592  841.7751
 593  923.2217
 594  992.0995
 595  1084.972
 596  1121.364
 597  1121.763
 598  1054.742
 599  985.2826
 600  887.9636
 601  912.3173
 602  934.9761
 603  1029.835
 604  917.4306
 605  893.3546
 606  898.5248
 607  990.1935
 608  998.1913
 609  963.4901
 610  913.0919
 611  927.705
 612  980.7039
 613  1039.731
 614  1105.93
 615  1072.62
 616  1055.28
 617  940.9453
 618  1007.102
 619  974.6014
 620  831.5013
 621  774.6111
 622  854.0262
 623  913.0647
 624  862.3947
 625  754.8845
 626  825.4728
 627  882.124
 628  926.9576
 629  890.4446
 630  902.4052
 631  967.5068
 632  988.2559
 633  964.4105
 634  997.1195
 635  934.1077
 636  974.7826
 637  885.3023
 638  924.2706
 639  913.853
 640  1015.863
 641  1095.949
 642  1092.585
 643  1260.125
 644  1474.159
 645  1649.371
 646  1770.16
 647  1776.214
 648  1879.562
 649  1854.926
 650  1919.14
 651  1841.376
 652  1787.077
 653  1756.292
 654  1774.656
 655  1714.348
 656  1548.269
 657  1357.365
 658  1276.038
 659  1189.208
 660  1103.807
 661  1049.103
 662  1037.189
 663  974.515
 664  928.0502
 665  979.3863
 666  1029.581
 667  1112.387
 668  1142.794
 669  1170.901
 670  1129.345
 671  1052.001
 672  968.2339
 673  1083.523
 674  1154.737
 675  1174.128
 676  1013.657
 677  958.8046
 678  994.163
 679  1054.421
 680  1123.435
 681  1104.634
 682  1136.319
 683  1022.505
 684  1097.608
 685  1124.795
 686  1257.427
 687  1170.601
 688  1106.653
 689  1026.942
 690  1008.53
 691  1092.839
 692  1034.955
 693  1003.889
 694  1001.684
 695  1056.216
 696  1054.078
 697  986.488
 698  943.3107
 699  931.5298
 700  1046.261
 701  1092.614
 702  1131.902
 703  1051.271
 704  1015.759
 705  1050.989
 706  1135.801
 707  1160.476
 708  1105.559
 709  1100.192
 710  1191.105
 711  1198.132
 712  1239.976
 713  1206.212
 714  1191.559
 715  1165.391
 716  1048.285
 717  1051.203
 718  1110.347
 719  1293.816
 720  1253.586
 721  1126.713
 722  965.653
 723  979.5366
 724  1046.481
 725  1003.822
 726  943.9902
 727  957.4616
 728  998.8074
 729  1025.886
 730  1022.862
 731  1161.398
 732  1162.983
 733  1140.269
 734  1077.749
 735  1025.176
 736  1014.738
 737  1065.116
 738  1149.999
 739  1257.577
 740  1260.475
 741  1241.115
 742  1184.941
 743  1140.583
 744  1042.015
 745  1009.997
 746  1081.559
 747  1219.427
 748  1164.935
 749  1098.534
 750  1063.97
 751  1119.345
 752  1207.588
 753  1244.496
 754  1163.432
 755  1035.045
 756  1001.262
 757  968.5099
 758  982.9598
 759  962.2686
 760  983.6288
 761  1020.08
 762  1063.093
 763  1048.545
 764  1096.443
 765  1163.273
 766  1238.161
 767  1213.506
 768  1193.292
 769  1100.358
 770  1220.172
 771  1140.141
 772  1114.306
 773  1006.687
 774  1134.62
 775  1067.54
 776  1011.555
 777  1026.747
 778  1164.652
 779  1244.913
 780  1138.821
 781  1091.551
 782  1100.167
 783  1154.238
 784  1104.015
 785  1142.489
 786  1154.477
 787  1210.606
 788  1186.794
 789  1282.948
 790  1359.064
 791  1388.376
 792  1219.755
 793  1156.58
 794  1084.99
 795  1047.376
 796  1012.648
 797  979.6967
 798  972.9202
 799  922.4559
 800  975.1948
 801  1003.7
 802  1096.324
 803  1130.397
 804  1158.241
 805  1195.337
 806  1166.586
 807  1247.708
 808  1352.301
 809  1270.386
 810  1161.029
 811  997.6407
 812  1095.387
 813  945.9226
 814  980.8759
 815  986.1835
 816  1030.468
 817  1054.837
 818  1132.826
 819  1173.872
 820  1014.195
 821  885.6197
 822  769.3479
 823  766.7602
 824  649.9849
 825  574.9259
 826  614.2028
 827  684.1465
 828  726.3845
 829  728.6737
 830  780.6128
 831  793.1047
 832  875.3138
 833  914.3942
 834  880.6422
 835  861.0883
 836  885.8812
 837  755.2589
 838  673.3368
 839  618.1102
 840  649.1811
 841  701.8262
 842  718.4811
 843  717.3085
 844  664.8002
 845  622.7712
 846  670.1243
 847  662.866
 848  701.1755
 849  794.7606
 850  907.4835
 851  943.1454
 852  795.7902
 853  718.7912
 854  679.5501
 855  705.2205
 856  807.1461
 857  934.6267
 858  871.8168
 859  834.4788
 860  807.7767
 861  874.2255
 862  859.8793
 863  857.4281
 864  858.1752
 865  819.5842
 866  817.6707
 867  857.9006
 868  861.826
 869  831.7692
 870  728.1363
 871  762.2336
 872  795.0918
 873  801.348
 874  753.9873
 875  824.6296
 876  935.9269
 877  993.597
 878  941.2413
 879  895.9692
 880  887.5918
 881  968.6368
 882  980.4047
 883  982.105
 884  904.7113
 885  818.5437
 886  720.5641
 887  690.8606
 888  723.6296
 889  803.1892
 890  831.3256
 891  899.3192
 892  904.8981
 893  842.0175
 894  749.1362
 895  713.4353
 896  760.9899
 897  805.9491
 898  873.8662
 899  822.3619
 900  758.9882
 901  751.4531
 902  818.8604
 903  803.628
 904  776.3173
 905  753.4203
 906  774.9445
 907  784.6908
 908  852.4321
 909  942.6849
 910  926.2866
 911  894.1558
 912  817.5556
 913  802.7204
 914  752.8826
 915  803.3762
 916  845.9569
 917  859.707
 918  858.4811
 919  776.1735
 920  747.5977
 921  760.3926
 922  771.264
 923  842.345
 924  760.6966
 925  818.6041
 926  789.7249
 927  896.3735
 928  815.313
 929  786.0271
 930  644.1782
 931  557.8547
 932  562.5677
 933  672.0977
 934  708.9519
 935  729.9146
 936  839.0876
 937  933.2245
 938  869.3701
 939  796.5536
 940  776.2848
 941  841.6326
 942  917.9577
 943  960.4885
 944  952.6027
 945  913.9847
 946  866.453
 947  845.9227
 948  833.5126
 949  949.1693
 950  1077.976
 951  1078.477
 952  952.5519
 953  844.2037
 954  820.0612
 955  811.4824
 956  699.477
 957  759.7877
 958  755.8416
 959  788.2505
 960  750.5944
 961  812.1906
 962  886.8172
 963  946.0312
 964  959.5662
 965  914.8974
 966  969.7079
 967  939.3962
 968  929.0466
 969  861.889
 970  799.1599
 971  822.3389
 972  857.3986
 973  938.3964
 974  917.3474
 975  887.7976
 976  932.3758
 977  875.539
 978  867.7616
 979  863.5685
 980  998.2175
 981  1052.784
 982  1103.593
 983  1088.221
 984  1062.231
 985  1099.151
 986  989.812
 987  898.4956
 988  938.8206
 989  1013.66
 990  968.6638
 991  864.03
 992  839.8877
 993  821.9174
 994  817.1196
 995  858.985
 996  858.4579
 997  902.8508
 998  900.825
 999  1008.682
1000  1002.381
1001  997.0383
1002  944.288
1003  959.346
1004  983.9304
1005  891.2121
1006  900.5679
1007  908.2159
1008  971.0361
1009  1026.7
1010  1053.484
1011  1040.174
1012  968.3397
1013  951.4909
1014  899.0396
1015  1016.651
1016  925.1567
1017  841.5224
1018  787.4585
1019  862.9928
1020  939.4445
1021  976.7537
1022  1114.728
1023  1095.856
