# Input file       =  1185349336.100742_cleaned.dat
# Candidate        =  PSR_0332+5434
# Telescope        =  AR
# Epoch_topo       =  57963.321239591925
# Epoch_bary       =  N/A
# T_sample         =  0.002
# Data Folded      =  7340032
# Data Avg         =  0.320539711735494
# Data StdDev      =  5.29042132226916 
# Profile Bins     =  256
# Profile Avg      =  9190.29636801552 
# Profile StdDev   =  895.816905566573 
# Reduced chi-sqr  =  2.752
# Prob(Noise)      <  2.2e-43   (~13.8 sigma)
# P_topo (ms)      =  714.471037633598  +/- 0.000186
# P'_topo (s/s)    =  -0                +/- 9.83e-11
# P''_topo (s/s^2) =  0                 +/- 4.34e-14
# P_bary (ms)      =  N/A
# P'_bary (s/s)    =  N/A
# P''_bary (s/s^2) =  N/A
# P_orb (s)        =  N/A
# asin(i)/c (s)    =  N/A
# eccentricity     =  N/A
# w (rad)          =  N/A
# T_peri           =  N/A
######################################################
   0  8262.183
   1  9542.385
   2  9313.247
   3  9059.854
   4  9464.612
   5  9741.654
   6  10226.66
   7  11354.6
   8  11724.18
   9  11624.29
  10  12227.79
  11  11836.61
  12  11311.62
  13  10744.29
  14  10415.91
  15  9458.207
  16  8998.019
  17  8720.315
  18  9065.871
  19  9371.39
  20  9218.638
  21  9217.431
  22  9142.682
  23  9368.574
  24  9371.612
  25  8086.728
  26  8199.129
  27  7421.747
  28  7375.68
  29  7037.583
  30  8187.848
  31  8456.606
  32  8566.962
  33  8902.685
  34  8249.131
  35  9009.091
  36  8355.594
  37  8563.339
  38  9546.347
  39  9624.195
  40  9847.74
  41  9893.382
  42  10795.94
  43  11504.92
  44  10880.75
  45  10835.39
  46  11424.01
  47  10873.1
  48  10075.81
  49  9600.466
  50  9778.519
  51  9770.584
  52  9173.958
  53  8673.325
  54  8720.054
  55  8617.474
  56  8494.761
  57  7950.67
  58  8275.075
  59  8854.967
  60  8545.378
  61  7652.932
  62  7504.526
  63  8857.706
  64  8355.848
  65  7572.601
  66  7860.678
  67  8206.949
  68  7678.495
  69  7877.395
  70  7869.629
  71  7843.717
  72  8051.51
  73  8511.778
  74  8413.155
  75  9009.286
  76  9085.021
  77  8975.176
  78  9037.678
  79  8714.548
  80  9061.879
  81  9292.562
  82  8692.145
  83  8283.891
  84  8796.832
  85  8767.857
  86  9069.557
  87  9337.211
  88  8567.321
  89  8262.146
  90  8794.674
  91  8356.395
  92  7462.523
  93  7362.361
  94  6826.469
  95  6901.664
  96  6763.316
  97  6751.06
  98  6341.705
  99  6299.382
 100  6805.321
 101  6579.236
 102  6734.744
 103  6962.14
 104  6910.927
 105  6950.815
 106  6910.319
 107  6633.898
 108  7306.936
 109  7887.304
 110  7282.845
 111  7617.762
 112  8182.903
 113  9552.573
 114  9926.246
 115  9776.147
 116  9766.753
 117  10228.67
 118  10747.71
 119  10124.71
 120  10100.33
 121  9644.408
 122  9813.085
 123  10675.09
 124  9597.836
 125  8996.826
 126  9578.564
 127  9668.247
 128  9672.312
 129  8603.014
 130  8225.613
 131  8132.296
 132  7935.289
 133  7193.827
 134  7212.566
 135  8178.908
 136  7704.206
 137  6883.048
 138  6755.777
 139  7083.492
 140  7258.561
 141  7718.781
 142  8424.534
 143  8136.662
 144  8388.342
 145  8157.846
 146  8722.869
 147  9058.181
 148  8823.349
 149  9350.685
 150  9425.402
 151  9765.65
 152  10570.81
 153  11273.83
 154  10295.38
 155  11188.55
 156  10516.33
 157  11230.22
 158  10735.46
 159  11552.11
 160  10742.2
 161  12538.65
 162  13301.89
 163  13277.54
 164  11241.92
 165  9715.663
 166  10193.76
 167  9900.794
 168  10093.84
 169  9668.831
 170  9408.632
 171  9599.069
 172  9835.844
 173  9736.461
 174  9717.764
 175  8920.662
 176  9031.103
 177  8965.701
 178  8825.794
 179  9178.157
 180  9555.357
 181  9041.944
 182  9477.352
 183  10019.89
 184  9919.43
 185  10172.59
 186  10689.17
 187  10460.47
 188  10937.33
 189  11078.94
 190  11969.48
 191  11555.09
 192  11053.9
 193  11189.94
 194  10416.74
 195  10714.98
 196  11027.39
 197  10380.36
 198  10277.31
 199  10070.8
 200  10382.11
 201  9732.812
 202  9411.478
 203  10476.81
 204  9352.246
 205  8995.219
 206  9257.642
 207  8825.281
 208  8917.207
 209  9076.939
 210  8196.41
 211  8943.973
 212  8667.626
 213  8422.243
 214  8671.559
 215  8921.921
 216  8745.349
 217  8620.923
 218  9893.723
 219  9723.894
 220  9846.952
 221  10398.01
 222  10425.8
 223  10449.38
 224  10080.09
 225  10624.83
 226  10400.65
 227  10868.12
 228  10511.24
 229  9644.13
 230  9215.049
 231  9782.62
 232  10395.49
 233  9051.168
 234  9450.664
 235  9432.791
 236  9482.857
 237  9165.681
 238  8979.573
 239  8567.76
 240  9114.406
 241  9069.272
 242  8152.114
 243  8528.477
 244  8478.932
 245  8695.537
 246  9516.091
 247  9193.233
 248  8552.369
 249  8243.907
 250  8579.651
 251  8958.399
 252  8407.97
 253  8583.819
 254  8970.646
 255  8602.716
