# Input file       =  1185780131.118868_cleaned.dat
# Candidate        =  PSR_0332+5434
# Telescope        =  AR
# Epoch_topo       =  57968.307293042453
# Epoch_bary       =  N/A
# T_sample         =  0.002
# Data Folded      =  7340032
# Data Avg         =  0.0113326224267699
# Data StdDev      =  2.88729556697215 
# Profile Bins     =  1024
# Profile Avg      =  81.2232521101116 
# Profile StdDev   =  244.450113015921 
# Reduced chi-sqr  =  1.363
# Prob(Noise)      <  6.41e-14   (~7.4 sigma)
# P_topo (ms)      =  714.468869898856  +/- 0.000256
# P'_topo (s/s)    =  -0                +/- 1.35e-10
# P''_topo (s/s^2) =  0                 +/- 5.96e-14
# P_bary (ms)      =  N/A
# P'_bary (s/s)    =  N/A
# P''_bary (s/s^2) =  N/A
# P_orb (s)        =  N/A
# asin(i)/c (s)    =  N/A
# eccentricity     =  N/A
# w (rad)          =  N/A
# T_peri           =  N/A
######################################################
   0  278.4019
   1  105.9363
   2  -24.93323
   3  -7.709743
   4  66.14729
   5  102.8574
   6  -5.177322
   7  67.02172
   8  41.43738
   9  61.17374
  10  127.533
  11  369.3936
  12  332.5823
  13  212.1659
  14  104.728
  15  129.96
  16  164.7917
  17  148.0712
  18  180.4925
  19  65.77508
  20  143.4466
  21  75.67992
  22  104.4552
  23  21.7965
  24  -11.2566
  25  -54.19674
  26  -42.5673
  27  -97.67507
  28  -205.8829
  29  -189.2159
  30  100.6902
  31  347.8098
  32  367.8787
  33  295.2842
  34  262.5121
  35  239.8973
  36  198.7314
  37  111.8751
  38  145.1823
  39  179.5731
  40  110.256
  41  90.63172
  42  103.8688
  43  231.5541
  44  214.0806
  45  187.0592
  46  221.7527
  47  226.0642
  48  282.2868
  49  194.6805
  50  19.43474
  51  -131.0552
  52  -232.8201
  53  28.59226
  54  103.4007
  55  220.7869
  56  178.6494
  57  210.3139
  58  162.6656
  59  132.3804
  60  72.72944
  61  -33.40368
  62  -102.9058
  63  -161.275
  64  -97.12804
  65  -134.7393
  66  -45.09719
  67  35.68131
  68  62.34935
  69  82.58842
  70  -50.73993
  71  15.32707
  72  -68.36266
  73  68.84457
  74  206.2982
  75  255.1779
  76  63.76918
  77  -153.6004
  78  -94.94752
  79  71.16854
  80  38.27842
  81  9.263371
  82  -49.13084
  83  141.1418
  84  215.0797
  85  239.4396
  86  130.7646
  87  193.8743
  88  216.0456
  89  96.56736
  90  -46.21368
  91  -12.62126
  92  161.3786
  93  249.1922
  94  59.78904
  95  -122.1926
  96  -109.3974
  97  37.29417
  98  131.7681
  99  66.93481
 100  118.0532
 101  178.3148
 102  267.0493
 103  198.2927
 104  64.71297
 105  -25.71538
 106  11.07498
 107  83.65454
 108  2.789679
 109  -60.11751
 110  16.86043
 111  168.2847
 112  206.0691
 113  99.11804
 114  49.8783
 115  55.32138
 116  139.7142
 117  117.0336
 118  99.4209
 119  25.47262
 120  144.9577
 121  76.1054
 122  106.1492
 123  -62.17027
 124  -91.28356
 125  -115.9608
 126  -54.35355
 127  24.94359
 128  10.79811
 129  60.79037
 130  -38.75489
 131  -26.75254
 132  62.18444
 133  113.6179
 134  -23.48524
 135  -168.7517
 136  -46.69225
 137  71.17239
 138  38.69618
 139  -38.65268
 140  55.45622
 141  155.318
 142  47.73447
 143  -124.0887
 144  22.0954
 145  352.121
 146  443.0416
 147  344.4368
 148  226.2146
 149  220.8503
 150  261.8676
 151  340.0118
 152  243.205
 153  100.2835
 154  98.74756
 155  204.8492
 156  164.6531
 157  -9.494538
 158  -33.81916
 159  -27.07446
 160  62.28358
 161  41.89017
 162  76.8728
 163  53.00026
 164  148.7532
 165  210.7509
 166  219.9856
 167  105.934
 168  67.76452
 169  137.1762
 170  418.2052
 171  388.8284
 172  282.9273
 173  104.2864
 174  123.1545
 175  114.58
 176  141.047
 177  197.1015
 178  127.7769
 179  31.42037
 180  29.29917
 181  86.57565
 182  157.7115
 183  186.6221
 184  170.4562
 185  67.26458
 186  -103.9305
 187  -27.63187
 188  72.59574
 189  42.13614
 190  112.3194
 191  25.7276
 192  42.51263
 193  -16.63291
 194  39.7247
 195  149.917
 196  127.4989
 197  72.57368
 198  -78.61295
 199  -205.4996
 200  -213.8247
 201  -256.8782
 202  -246.6659
 203  -131.6537
 204  -45.65979
 205  25.16773
 206  -112.682
 207  -50.67413
 208  65.40636
 209  121.061
 210  88.95779
 211  199.0733
 212  284.7399
 213  393.9878
 214  221.4344
 215  189.703
 216  190.6995
 217  107.0149
 218  -19.50597
 219  -38.08916
 220  -64.2553
 221  -43.32044
 222  43.90345
 223  221.9587
 224  202.8193
 225  -28.23543
 226  -122.3565
 227  -41.25621
 228  80.8772
 229  62.69404
 230  68.32001
 231  78.30238
 232  21.69064
 233  20.4638
 234  69.27267
 235  60.0956
 236  128.3531
 237  133.5353
 238  284.0521
 239  28.74296
 240  -75.13023
 241  -156.475
 242  -55.58582
 243  151.9714
 244  317.1707
 245  397.0261
 246  170.0341
 247  -36.58168
 248  -84.69695
 249  -79.69907
 250  -22.05952
 251  -149.8564
 252  -172.0814
 253  -213.4919
 254  -33.34856
 255  -20.36096
 256  60.88511
 257  -18.63544
 258  -26.5152
 259  -11.05426
 260  -43.46659
 261  113.058
 262  116.2081
 263  213.0236
 264  57.92195
 265  25.06988
 266  -14.7979
 267  91.17748
 268  81.56461
 269  63.34667
 270  -21.94638
 271  66.11
 272  124.7233
 273  139.1764
 274  -5.076032
 275  -198.4795
 276  -296.4926
 277  -211.0182
 278  -186.9348
 279  -151.741
 280  -104.1579
 281  93.65247
 282  163.8058
 283  72.4804
 284  -63.9589
 285  -47.70806
 286  47.96983
 287  63.4197
 288  50.92723
 289  -59.25275
 290  -127.9007
 291  -177.3324
 292  -93.10365
 293  -49.07797
 294  -15.07588
 295  -102.2621
 296  -99.55616
 297  -162.0155
 298  8.512627
 299  90.66058
 300  36.17976
 301  -39.76506
 302  10.39581
 303  -27.88583
 304  -64.20004
 305  -99.00641
 306  61.95523
 307  141.8163
 308  192.5078
 309  97.91232
 310  98.01714
 311  153.8119
 312  285.8662
 313  127.6077
 314  -20.83945
 315  -126.35
 316  -142.7274
 317  -90.82464
 318  -91.69003
 319  -93.16296
 320  -61.63003
 321  127.077
 322  190.4753
 323  271.9099
 324  264.2112
 325  297.1585
 326  244.8818
 327  174.7837
 328  85.77919
 329  -39.92862
 330  -122.6235
 331  -118.0373
 332  -134.1707
 333  -7.161095
 334  0.1287247
 335  -18.93534
 336  -190.9686
 337  -168.507
 338  -141.9205
 339  -82.00507
 340  13.80378
 341  116.1493
 342  132.0909
 343  51.79825
 344  78.50817
 345  54.34844
 346  -33.90609
 347  -49.13924
 348  84.00615
 349  154.2279
 350  117.21
 351  -7.476691
 352  60.8644
 353  117.141
 354  145.6989
 355  113.0875
 356  164.1905
 357  145.5515
 358  -94.13611
 359  -134.8483
 360  -79.64962
 361  89.05767
 362  87.47167
 363  56.73502
 364  -47.71342
 365  -133.2827
 366  80.3466
 367  300.2192
 368  330.1913
 369  226.2789
 370  239.4639
 371  136.7514
 372  29.92047
 373  -155.3798
 374  -90.31723
 375  -125.8757
 376  26.63867
 377  39.67458
 378  -33.04807
 379  -133.4297
 380  0.5201853
 381  18.14997
 382  -67.52769
 383  -91.21149
 384  -31.57594
 385  27.98694
 386  16.60201
 387  94.10143
 388  95.23811
 389  107.2832
 390  -17.9424
 391  -28.47928
 392  -113.9491
 393  -35.51362
 394  42.94918
 395  134.6483
 396  63.40302
 397  -36.03844
 398  -58.59597
 399  71.69134
 400  72.50025
 401  103.6411
 402  146.5976
 403  311.7393
 404  294.9149
 405  172.4876
 406  18.52207
 407  32.25743
 408  -46.71996
 409  42.21286
 410  30.2852
 411  129.6184
 412  163.3774
 413  214.3777
 414  162.4767
 415  115.3981
 416  113.7574
 417  179.1041
 418  136.4105
 419  3.345778
 420  -135.2256
 421  -45.0552
 422  94.34102
 423  276.2393
 424  86.87643
 425  20.13733
 426  -90.58618
 427  4.085142
 428  -39.30019
 429  41.36702
 430  22.01151
 431  2.423211
 432  92.07425
 433  92.47833
 434  110.8875
 435  -110.7788
 436  -193.1591
 437  -217.1196
 438  -6.363074
 439  126.5445
 440  51.58578
 441  -108.5549
 442  -112.6057
 443  -94.06081
 444  -205.7783
 445  -159.1548
 446  -138.8734
 447  27.96006
 448  11.26925
 449  103.3303
 450  106.8244
 451  94.38022
 452  71.01562
 453  88.53843
 454  124.6486
 455  102.0541
 456  106.3541
 457  228.2841
 458  242.5045
 459  113.2242
 460  -109.9778
 461  -127.6365
 462  68.7154
 463  119.4734
 464  180.5959
 465  138.8385
 466  257.3257
 467  124.0371
 468  93.61391
 469  76.91708
 470  206.7979
 471  240.9322
 472  180.2627
 473  119.9571
 474  36.60551
 475  73.80439
 476  205.321
 477  271.049
 478  142.4132
 479  -102.3578
 480  -51.19638
 481  86.35378
 482  267.1565
 483  70.74327
 484  -124.8791
 485  -257.812
 486  -87.37766
 487  46.48804
 488  221.6041
 489  98.84705
 490  72.61176
 491  -15.87672
 492  108.3835
 493  123.7383
 494  122.8652
 495  130.6156
 496  226.3611
 497  347.1995
 498  261.4366
 499  54.77128
 500  34.03506
 501  238.2325
 502  337.2712
 503  258.6827
 504  170.6565
 505  158.227
 506  284.362
 507  269.4811
 508  191.2855
 509  -2.180862
 510  -102.669
 511  10.25277
 512  9.454628
 513  90.83871
 514  -38.44706
 515  94.52767
 516  197.3754
 517  212.4963
 518  44.81192
 519  -11.35919
 520  109.2133
 521  256.2108
 522  308.7302
 523  174.5295
 524  -57.25056
 525  -107.0486
 526  -39.41162
 527  77.38661
 528  -103.4945
 529  -229.4299
 530  -287.849
 531  -221.5721
 532  -128.9193
 533  -5.880372
 534  80.25573
 535  113.9623
 536  24.14203
 537  44.07808
 538  41.44379
 539  83.81848
 540  75.50794
 541  35.10602
 542  -65.51579
 543  -41.01271
 544  -18.97224
 545  90.45945
 546  58.21063
 547  208.5433
 548  271.9314
 549  268.2281
 550  117.8592
 551  -41.25741
 552  -22.21515
 553  45.00252
 554  28.8439
 555  -5.090762
 556  -95.56403
 557  -72.77213
 558  -1.134317
 559  18.81482
 560  -2.343186
 561  16.52789
 562  162.1345
 563  296.2932
 564  196.4933
 565  208.657
 566  261.5037
 567  216.9537
 568  126.7638
 569  1.88938
 570  43.15847
 571  89.94112
 572  158.1029
 573  199.7371
 574  178.249
 575  54.09672
 576  -62.33841
 577  -134.086
 578  -76.87444
 579  -138.8806
 580  -125.259
 581  -131.8885
 582  89.60831
 583  63.66946
 584  4.859051
 585  -79.81388
 586  90.82556
 587  209.9002
 588  258.2977
 589  129.4321
 590  29.41172
 591  79.20262
 592  106.1399
 593  91.87839
 594  -19.24792
 595  4.608383
 596  -27.99295
 597  -163.2335
 598  -241.2259
 599  -320.2721
 600  -226.6696
 601  -94.83336
 602  68.55342
 603  158.3633
 604  93.75639
 605  49.86071
 606  -49.05618
 607  -37.5826
 608  121.3729
 609  266.3387
 610  345.5021
 611  83.93626
 612  -97.45092
 613  -159.7801
 614  -6.603395
 615  80.56488
 616  245.9112
 617  304.6977
 618  282.4097
 619  126.8295
 620  98.35566
 621  206.3436
 622  225.8748
 623  275.8899
 624  166.0688
 625  35.03918
 626  -73.05895
 627  106.3059
 628  341.3795
 629  333.5179
 630  127.9928
 631  -9.23323
 632  113.7331
 633  248.4554
 634  277.8191
 635  369.546
 636  487.6069
 637  500.3764
 638  561.7753
 639  406.2926
 640  336.9457
 641  351.1438
 642  469.6133
 643  599.4086
 644  482.8586
 645  570.8903
 646  711.8021
 647  971.9991
 648  1150.885
 649  1108.323
 650  952.3244
 651  766.2387
 652  639.9787
 653  566.3473
 654  623.7132
 655  563.1095
 656  480.1751
 657  271.8747
 658  59.04686
 659  -51.15489
 660  -67.53113
 661  109.54
 662  162.0271
 663  -32.00056
 664  -113.6218
 665  -217.0124
 666  -120.2741
 667  -173.1327
 668  -145.0858
 669  -80.49782
 670  -9.146268
 671  21.73414
 672  145.3225
 673  278.6704
 674  219.0503
 675  213.5336
 676  26.45353
 677  -36.5362
 678  -205.6958
 679  30.76282
 680  158.0709
 681  133.5382
 682  28.11078
 683  -70.26717
 684  10.69985
 685  12.71772
 686  -97.12513
 687  -101.3612
 688  -25.58169
 689  158.6989
 690  266.7489
 691  227.1028
 692  174.7897
 693  65.27953
 694  120.8274
 695  52.39746
 696  112.6403
 697  62.45996
 698  155.9788
 699  31.97813
 700  77.50507
 701  175.1449
 702  294.1851
 703  264.0133
 704  50.85482
 705  -69.74921
 706  8.351075
 707  90.70555
 708  142.6611
 709  177.8674
 710  206.7824
 711  186.3256
 712  216.5266
 713  332.1767
 714  370.94
 715  276.1436
 716  183.4181
 717  129.1733
 718  183.0987
 719  15.86581
 720  -175.4761
 721  -258.6433
 722  -131.0187
 723  71.7911
 724  141.3196
 725  191.5155
 726  70.30414
 727  -11.3208
 728  86.37277
 729  183.7965
 730  195.0195
 731  107.5882
 732  6.413644
 733  -28.69439
 734  -130.6841
 735  -127.7169
 736  -90.63898
 737  63.02018
 738  48.5075
 739  -3.120857
 740  -59.51308
 741  60.75525
 742  222.0787
 743  286.8231
 744  226.4225
 745  6.888486
 746  -55.96973
 747  -44.62434
 748  19.70308
 749  136.1342
 750  256.3872
 751  221.0658
 752  121.8611
 753  -128.3709
 754  -62.34964
 755  -133.9978
 756  -8.171102
 757  25.19592
 758  81.6442
 759  95.83993
 760  52.47952
 761  122.2099
 762  5.919377
 763  -1.441426
 764  -24.56049
 765  168.1151
 766  173.0349
 767  247.0633
 768  182.6045
 769  200.9332
 770  21.1671
 771  -110.2422
 772  -226.2408
 773  -144.1326
 774  -34.70911
 775  4.110474
 776  -67.0924
 777  -163.4128
 778  -85.78314
 779  -7.361206
 780  17.19579
 781  -81.10281
 782  -19.50542
 783  59.90563
 784  114.917
 785  -81.01323
 786  -59.82791
 787  24.96368
 788  131.0235
 789  69.29339
 790  -31.11248
 791  22.1043
 792  64.62608
 793  87.75111
 794  19.54774
 795  -18.73378
 796  58.52316
 797  220.4438
 798  53.59181
 799  -98.83515
 800  -227.9616
 801  -10.30516
 802  -53.05212
 803  23.27309
 804  141.0412
 805  252.2186
 806  140.8452
 807  34.27513
 808  56.34381
 809  62.18885
 810  44.60936
 811  50.05299
 812  92.70476
 813  128.4465
 814  -18.27443
 815  -145.6311
 816  -171.7719
 817  -76.25592
 818  61.65272
 819  118.1659
 820  169.0464
 821  150.1344
 822  58.24321
 823  62.57089
 824  -46.24432
 825  0.8961961
 826  -59.29229
 827  117.284
 828  240.1321
 829  243.1201
 830  139.5126
 831  108.6292
 832  130.7181
 833  312.3024
 834  361.2159
 835  394.4639
 836  188.0637
 837  205.0241
 838  235.0801
 839  189.5463
 840  120.4321
 841  97.47993
 842  104.9911
 843  38.78527
 844  25.26627
 845  57.34181
 846  -76.4835
 847  -102.1965
 848  8.876462
 849  179.3994
 850  162.7287
 851  137.5865
 852  133.857
 853  46.77085
 854  -34.75586
 855  36.27744
 856  159.2779
 857  285.2831
 858  175.4472
 859  160.2028
 860  -24.32276
 861  -26.06822
 862  23.96764
 863  111.736
 864  173.7627
 865  151.1315
 866  190.3707
 867  68.42806
 868  9.618358
 869  23.47023
 870  -4.474549
 871  104.6219
 872  50.22346
 873  46.70196
 874  91.62016
 875  28.35624
 876  161.2609
 877  221.4678
 878  377.1451
 879  329.1414
 880  278.7864
 881  367.0126
 882  287.0077
 883  133.0738
 884  -60.53123
 885  -10.43533
 886  3.383976
 887  -58.41117
 888  -47.36061
 889  146.5538
 890  286.3905
 891  191.4092
 892  83.48754
 893  23.82204
 894  9.467664
 895  41.51089
 896  144.7628
 897  216.6418
 898  128.0377
 899  127.356
 900  122.234
 901  228.9409
 902  163.7198
 903  197.2555
 904  158.6672
 905  82.03681
 906  39.481
 907  76.43393
 908  25.78615
 909  -42.5705
 910  -91.33636
 911  51.71732
 912  138.968
 913  207.4875
 914  199.4694
 915  193.9145
 916  124.61
 917  207.4559
 918  229.4137
 919  172.3185
 920  -0.3526087
 921  -95.18288
 922  -19.34445
 923  -31.08871
 924  29.26183
 925  4.356433
 926  181.6637
 927  260.3566
 928  268.0105
 929  156.8032
 930  54.92353
 931  104.7977
 932  151.0423
 933  111.1621
 934  48.69548
 935  44.01216
 936  110.8364
 937  133.719
 938  42.43943
 939  68.77406
 940  -1.681624
 941  -40.13042
 942  -251.6637
 943  -405.8599
 944  -385.1345
 945  -296.5203
 946  -43.68874
 947  58.88652
 948  60.38383
 949  66.97375
 950  113.0953
 951  222.8597
 952  104.6264
 953  70.33244
 954  35.5612
 955  174.7917
 956  253.3532
 957  269.5788
 958  134.2084
 959  -116.9096
 960  -37.63373
 961  78.02578
 962  334.6565
 963  355.5221
 964  331.9025
 965  264.1367
 966  186.7246
 967  95.74146
 968  31.46651
 969  23.56737
 970  158.8063
 971  114.0636
 972  5.878928
 973  -97.617
 974  -45.75243
 975  101.2738
 976  121.4851
 977  233.1217
 978  154.7418
 979  96.64796
 980  15.99939
 981  86.29995
 982  74.7299
 983  35.77692
 984  60.59124
 985  98.93932
 986  115.099
 987  85.14734
 988  101.8364
 989  6.391443
 990  -44.00211
 991  -20.96199
 992  46.83398
 993  188.7858
 994  270.4355
 995  319.8875
 996  332.6782
 997  370.687
 998  449.4433
 999  398.5322
1000  286.8645
1001  247.6553
1002  151.5192
1003  126.8358
1004  77.89965
1005  138.2213
1006  213.3368
1007  273.9372
1008  315.3759
1009  201.4036
1010  146.0796
1011  207.6176
1012  356.7307
1013  348.0872
1014  200.9498
1015  187.2488
1016  135.0701
1017  102.7388
1018  41.88182
1019  48.42452
1020  68.94762
1021  -73.2784
1022  51.92072
1023  110.9175
