# Input file       =  1185061324.110495_cleaned.dat
# Candidate        =  PSR_0332+5434
# Telescope        =  AR
# Epoch_topo       =  57959.987767482584
# Epoch_bary       =  N/A
# T_sample         =  0.002
# Data Folded      =  7143424
# Data Avg         =  0.0944394520569351
# Data StdDev      =  4.11628584422138 
# Profile Bins     =  512
# Profile Avg      =  1317.72103356124 
# Profile StdDev   =  486.209857242177 
# Reduced chi-sqr  =  0.687
# Prob(Noise)      <  1   (~0.0 sigma)
# P_topo (ms)      =  714.472343879818  +/- 6.7e-05
# P'_topo (s/s)    =  -0                +/- 3.63e-11
# P''_topo (s/s^2) =  0                 +/- 1.65e-14
# P_bary (ms)      =  N/A
# P'_bary (s/s)    =  N/A
# P''_bary (s/s^2) =  N/A
# P_orb (s)        =  N/A
# asin(i)/c (s)    =  N/A
# eccentricity     =  N/A
# w (rad)          =  N/A
# T_peri           =  N/A
######################################################
   0  1386.716
   1  1135.277
   2  1132.163
   3  721.2428
   4  847.9445
   5  637.1721
   6  951.1744
   7  951.7296
   8  1344.64
   9  1459.422
  10  1172.689
  11  1269.095
  12  1507.291
  13  1129.816
  14  964.8005
  15  1087.804
  16  1313.933
  17  1791.149
  18  1414.676
  19  1300.68
  20  1292.818
  21  1232.466
  22  967.5015
  23  886.6559
  24  1312.685
  25  1483.606
  26  1544.036
  27  1434.272
  28  1398.263
  29  1622.461
  30  1216.416
  31  1130.169
  32  1153.508
  33  1379.906
  34  1616.462
  35  1266.91
  36  1393.108
  37  1068.704
  38  925.0091
  39  706.6064
  40  915.0538
  41  1098.481
  42  843.6082
  43  1103.247
  44  1287.329
  45  1301.401
  46  1196.477
  47  1227.202
  48  1953.025
  49  1733.83
  50  1410.448
  51  1343.836
  52  1288.099
  53  1290.869
  54  885.8925
  55  1183.448
  56  1273.093
  57  1519.614
  58  1463.339
  59  1375.238
  60  1256.27
  61  1225.416
  62  1096.359
  63  1128.827
  64  1150.019
  65  1100.318
  66  1510.3
  67  1387.36
  68  1283.026
  69  1539.094
  70  1526.097
  71  1296.316
  72  1090.741
  73  1251.818
  74  1412.947
  75  1014.628
  76  1027.628
  77  1477.828
  78  1493.199
  79  1308.496
  80  1258.753
  81  1309.567
  82  1649.599
  83  1116.902
  84  1100.569
  85  1390.906
  86  1646.099
  87  1406.564
  88  1117.147
  89  1216.844
  90  1122.373
  91  1432.089
  92  1800.465
  93  2015.977
  94  1589.264
  95  1635.936
  96  1674.104
  97  970.1515
  98  883.2091
  99  1363.974
 100  1625.909
 101  1348.172
 102  1199.008
 103  1427.492
 104  1602.481
 105  1348.772
 106  1359.892
 107  1264.252
 108  1628.62
 109  1222.192
 110  1251.652
 111  1681.32
 112  1234.632
 113  1110.269
 114  1370.614
 115  1590.041
 116  1451.72
 117  1647.084
 118  1408.99
 119  996.3561
 120  1165.482
 121  1242.355
 122  1576.794
 123  1491.936
 124  1718.335
 125  1717.347
 126  1163.304
 127  1184.392
 128  708.5391
 129  1155.942
 130  1569.266
 131  1561.681
 132  1395.145
 133  1243.245
 134  1277.638
 135  1269.665
 136  1321.417
 137  1065.729
 138  1072.954
 139  1231.659
 140  1459.238
 141  1270.713
 142  1002.308
 143  1552.755
 144  1741.069
 145  1570.148
 146  1127.977
 147  1018.656
 148  1070.573
 149  1074.197
 150  1208.746
 151  1730.515
 152  1490.201
 153  1116.387
 154  1105.874
 155  1202.794
 156  1488.548
 157  1359.028
 158  1444.024
 159  1352.343
 160  1219.522
 161  1112.985
 162  901.353
 163  1071.397
 164  1084.759
 165  1245.691
 166  1180.119
 167  972.2188
 168  694.5803
 169  863.1473
 170  1303.329
 171  967.5131
 172  713.4305
 173  1080.203
 174  1395.833
 175  1229.238
 176  1503.688
 177  1797.584
 178  1368.614
 179  770.2465
 180  1120
 181  1111.108
 182  1281.568
 183  1194.368
 184  1278.796
 185  1205.87
 186  836.6302
 187  975.1467
 188  1179.429
 189  1401.137
 190  1287.532
 191  1392.901
 192  1374.439
 193  1271.136
 194  1092.618
 195  1095.828
 196  1695.537
 197  1723.889
 198  1731.036
 199  1578.843
 200  1268.117
 201  1100.577
 202  1031.918
 203  1126.429
 204  963.2586
 205  1234.87
 206  1590.5
 207  1503.832
 208  1153.296
 209  1363.165
 210  1454.289
 211  1166.695
 212  980.4541
 213  1196.301
 214  1779.427
 215  1379.099
 216  1137.602
 217  1013.281
 218  1519.079
 219  1383.774
 220  1085.025
 221  1037.549
 222  1062.106
 223  1138.483
 224  1199.001
 225  1433.193
 226  1447.363
 227  1468.406
 228  1465.794
 229  1569.8
 230  1811.015
 231  1323.67
 232  1483.918
 233  1240.573
 234  877.3182
 235  1221.018
 236  1367.917
 237  1121.413
 238  1374.468
 239  1448.179
 240  1730.039
 241  1122.028
 242  503.2351
 243  732.8401
 244  845.9089
 245  716.9474
 246  602.7684
 247  876.968
 248  1279.955
 249  941.5577
 250  1028.805
 251  1222.202
 252  1088.892
 253  918.8726
 254  1091.436
 255  1050.25
 256  1038.957
 257  909.7607
 258  1350.706
 259  1507.422
 260  1527.562
 261  1143.743
 262  1461.285
 263  1444.768
 264  1257.451
 265  1683.271
 266  1465.21
 267  1281.388
 268  874.2444
 269  1027.524
 270  1052.798
 271  1211.64
 272  1644.289
 273  1541.647
 274  1424.495
 275  1257.208
 276  1356.232
 277  1258.332
 278  880.1059
 279  1335.864
 280  1729.361
 281  1784.18
 282  1001.65
 283  1091.381
 284  1378.41
 285  1503.031
 286  1434.605
 287  1063.11
 288  1121.752
 289  863.1772
 290  1298.999
 291  1510.751
 292  1341.356
 293  1462.881
 294  1572.241
 295  1429.19
 296  1299.299
 297  1263.088
 298  1522.299
 299  1648.044
 300  1531.08
 301  1578.461
 302  1665.736
 303  1580.454
 304  1715.531
 305  1779.297
 306  1630.744
 307  1506.626
 308  1161.381
 309  1484.714
 310  1688.226
 311  1385.961
 312  1340.286
 313  1575.69
 314  1490.935
 315  1496.956
 316  1516.475
 317  1784.364
 318  1595.725
 319  1292.173
 320  1596.323
 321  1776.89
 322  1929.294
 323  2137.981
 324  2478.558
 325  3314.172
 326  2899.715
 327  2565.151
 328  2211.258
 329  1554.327
 330  1564.805
 331  1405.222
 332  1261.76
 333  1346.005
 334  1308.743
 335  1202.873
 336  1185.103
 337  1427.183
 338  1254.789
 339  1348.106
 340  1182.354
 341  953.0974
 342  1199.896
 343  1346.973
 344  832.7546
 345  1213.23
 346  1728.835
 347  1592.258
 348  1199.608
 349  1127.804
 350  1170.792
 351  1015.2
 352  889.7477
 353  1173.279
 354  1260.074
 355  1269.83
 356  1558.042
 357  1624.244
 358  1480.708
 359  1341.852
 360  1342.298
 361  1530.38
 362  1295.925
 363  1350.825
 364  1038.869
 365  1182.881
 366  1084.873
 367  978.8691
 368  1350.886
 369  1507.408
 370  1458.101
 371  1473.934
 372  1363.274
 373  1365.737
 374  1256.813
 375  1653.84
 376  1335.85
 377  1410.379
 378  1334.732
 379  1176.406
 380  1369.959
 381  1423.428
 382  1273.394
 383  1506.217
 384  1462.511
 385  1037.912
 386  915.1196
 387  1579.052
 388  1675.838
 389  1607.653
 390  1516.568
 391  1670.729
 392  1526.791
 393  846.5021
 394  1007.951
 395  1267.032
 396  1183.626
 397  985.864
 398  1042.21
 399  1310.717
 400  1362.526
 401  1434.134
 402  1084.25
 403  1098.963
 404  1635.587
 405  1536.269
 406  950.9984
 407  738.1354
 408  1312.662
 409  1877.327
 410  1187.114
 411  1294.071
 412  1456.291
 413  1688.692
 414  1076.896
 415  998.7633
 416  1410.989
 417  1290.529
 418  1062.671
 419  1058.267
 420  1709.489
 421  1786.838
 422  1508.764
 423  1428.489
 424  971.3101
 425  912.8867
 426  937.7216
 427  1207.346
 428  1235.875
 429  1513.802
 430  1580.151
 431  1014.983
 432  924.416
 433  1068.36
 434  819.4595
 435  1395.385
 436  1408.383
 437  1278.869
 438  1492.549
 439  1556.222
 440  1390.136
 441  1573.648
 442  1549.332
 443  1453.526
 444  1365.702
 445  1159.203
 446  911.3466
 447  1060.695
 448  1245.91
 449  1409.27
 450  1120.648
 451  1229.438
 452  1296.746
 453  1330.172
 454  1687.55
 455  1659.098
 456  1324.312
 457  1583.083
 458  1436.187
 459  1295.876
 460  1344.458
 461  1631.123
 462  1841.341
 463  1513.908
 464  1281.602
 465  1412.118
 466  1610.393
 467  1424.336
 468  1212.541
 469  1261.436
 470  1374.917
 471  1646.422
 472  1667.634
 473  1263.497
 474  1500.521
 475  1949.433
 476  1713.737
 477  846.0805
 478  1434.401
 479  1504.71
 480  1123.436
 481  1229.907
 482  1452.269
 483  1638.829
 484  1225.126
 485  1063.278
 486  1598.147
 487  1675.577
 488  1498.986
 489  1078.398
 490  1059.489
 491  1492.981
 492  1465.211
 493  1370.329
 494  1551.028
 495  1439.97
 496  1309.583
 497  1110.731
 498  884.3484
 499  893.4423
 500  1271.126
 501  1257.487
 502  1437.225
 503  1214.823
 504  1196.868
 505  1431.447
 506  1258.659
 507  1175.353
 508  903.678
 509  1160.082
 510  1140.211
 511  1168.298
