# Input file       =  1185607824.109255_cleaned.dat
# Candidate        =  PSR_0332+5434
# Telescope        =  AR
# Epoch_topo       =  57966.312998949710
# Epoch_bary       =  N/A
# T_sample         =  0.002
# Data Folded      =  7340032
# Data Avg         =  0.391463496533106
# Data StdDev      =  6.27102658444315 
# Profile Bins     =  512
# Profile Avg      =  5612.01921112643 
# Profile StdDev   =  750.849054154799 
# Reduced chi-sqr  =  1.585
# Prob(Noise)      <  6.44e-16   (~8.0 sigma)
# P_topo (ms)      =  714.46969329304   +/- 0.000782
# P'_topo (s/s)    =  -0                +/- 4.13e-10
# P''_topo (s/s^2) =  0                 +/- 1.82e-13
# P_bary (ms)      =  N/A
# P'_bary (s/s)    =  N/A
# P''_bary (s/s^2) =  N/A
# P_orb (s)        =  N/A
# asin(i)/c (s)    =  N/A
# eccentricity     =  N/A
# w (rad)          =  N/A
# T_peri           =  N/A
######################################################
   0  4826.329
   1  4842.117
   2  4632.311
   3  4857.402
   4  4708.647
   5  4572.336
   6  4575.451
   7  4410.006
   8  4697.882
   9  5028.408
  10  5241.107
  11  5110.981
  12  5031.56
  13  5143.704
  14  5280.108
  15  5347.971
  16  5366.238
  17  4991.697
  18  4605.305
  19  4546.054
  20  4581.766
  21  4776.945
  22  4657.549
  23  4375.681
  24  4435.394
  25  4713.654
  26  4469.87
  27  4276.542
  28  4485.974
  29  4266.129
  30  4451.414
  31  4732.699
  32  4986.386
  33  4904.289
  34  4707.937
  35  5075.604
  36  5247.435
  37  5098.274
  38  5203.625
  39  5065.419
  40  5304.255
  41  5404.525
  42  5324.487
  43  5065.368
  44  4950.458
  45  5141.248
  46  5280.58
  47  5580.805
  48  5132.453
  49  4982.512
  50  5068.609
  51  5152.208
  52  4848.607
  53  4799.693
  54  4944.914
  55  4664.365
  56  4585.579
  57  4287.466
  58  4001.271
  59  3856.358
  60  4199.67
  61  4376.541
  62  4435.812
  63  4720.476
  64  4347.584
  65  4805.258
  66  4764.81
  67  5082.13
  68  5187.701
  69  5340.902
  70  5258.597
  71  5452.48
  72  5163.494
  73  5234.419
  74  5390.038
  75  5527.92
  76  5452.759
  77  5035.467
  78  5188.078
  79  5224.018
  80  5265.782
  81  5466.352
  82  5412.721
  83  5423.422
  84  5323.287
  85  5415.225
  86  5465.363
  87  5379.403
  88  5509.77
  89  5018.19
  90  5152.116
  91  5224.725
  92  5242.529
  93  5335.32
  94  5667.267
  95  5276.357
  96  4899.284
  97  4896.284
  98  4878.438
  99  4933.508
 100  5150.09
 101  5450.451
 102  5365.063
 103  5572.15
 104  6085.901
 105  5803.118
 106  5633.652
 107  5960.88
 108  5924.76
 109  5591.337
 110  5745.121
 111  5983.438
 112  6508.399
 113  5943.407
 114  5941.94
 115  5772.547
 116  5620.78
 117  5871.07
 118  5712.902
 119  5468.542
 120  5748.26
 121  5860.131
 122  5697.995
 123  5815.222
 124  6111.214
 125  6181.896
 126  6005.296
 127  5882.535
 128  6034.699
 129  6031.757
 130  6239.777
 131  6145.578
 132  5813.135
 133  5498.415
 134  5571.919
 135  5056.237
 136  5310.474
 137  5482.028
 138  5500.571
 139  5871.367
 140  5824.641
 141  5647.236
 142  5289.433
 143  5360.018
 144  5696.032
 145  5323.553
 146  5858.127
 147  5694.105
 148  5690.115
 149  5501.25
 150  5315.582
 151  5227.74
 152  5367.069
 153  5769.47
 154  5760.38
 155  6024.479
 156  6251.75
 157  6337.683
 158  6273.838
 159  5940.979
 160  6226.571
 161  6330.861
 162  6544.614
 163  6651.204
 164  6460.49
 165  6592.082
 166  6920.653
 167  7145.515
 168  7221.562
 169  6751.444
 170  6373.613
 171  6203.146
 172  6704.324
 173  6615.646
 174  7064.858
 175  7000.488
 176  6666.6
 177  6448.655
 178  6225.88
 179  6294.345
 180  6192.555
 181  6399.652
 182  6362.063
 183  6497.78
 184  6508.438
 185  6137.612
 186  6126.277
 187  6363.775
 188  6450.552
 189  6703.757
 190  6558.991
 191  6340.676
 192  6224.221
 193  6378.726
 194  5874.517
 195  6143.705
 196  6369.305
 197  6485.83
 198  6307.986
 199  6282.272
 200  6374.583
 201  6342.235
 202  6387.459
 203  7042.255
 204  6849.756
 205  6683.861
 206  6271.268
 207  5772.502
 208  6030.488
 209  6283.471
 210  6331.936
 211  6656.497
 212  6800.174
 213  6753.775
 214  6245.22
 215  6027.189
 216  6501.156
 217  6741.083
 218  6965.527
 219  6937.752
 220  7078.816
 221  6500.232
 222  6494.756
 223  6446.013
 224  6488.371
 225  6949.695
 226  6862.509
 227  6800.865
 228  6988.749
 229  7114.332
 230  6648.802
 231  6398.697
 232  6536.576
 233  6375.93
 234  6377.375
 235  7096.94
 236  7006.465
 237  6554.043
 238  5941.688
 239  6360.612
 240  6320.171
 241  5976.953
 242  6181.112
 243  6044.804
 244  5946.903
 245  5887.041
 246  5934.765
 247  5657.373
 248  5640.152
 249  6039.113
 250  6091.267
 251  5578.755
 252  5996.561
 253  6324.291
 254  6094.909
 255  6146.439
 256  6087.157
 257  6164.511
 258  5789.467
 259  5829.672
 260  5487.435
 261  5768.896
 262  5821.681
 263  5605.144
 264  5685.538
 265  5590.937
 266  5595.932
 267  5426.113
 268  5059.644
 269  5000.679
 270  5193.502
 271  5382.311
 272  5349.839
 273  4890.792
 274  4886.8
 275  5201.367
 276  5404.115
 277  5398.68
 278  5351.281
 279  5564.671
 280  5147.387
 281  4758.769
 282  4402.543
 283  4731.601
 284  4802.53
 285  4987.78
 286  5371.931
 287  5331.281
 288  5126.833
 289  5437.295
 290  5089.42
 291  5291.516
 292  5485.759
 293  5348.862
 294  5139.988
 295  5131.934
 296  5492.7
 297  5593.274
 298  5563.827
 299  5466.755
 300  5139.41
 301  5209.941
 302  4904.818
 303  5009.375
 304  5161.819
 305  5369.146
 306  5159.829
 307  4869.543
 308  4914.551
 309  4942.445
 310  5181.17
 311  5616.782
 312  5453.246
 313  5263.875
 314  5588.087
 315  5622.768
 316  5670.424
 317  5728.122
 318  6022.992
 319  6655.861
 320  6360.833
 321  6265.737
 322  6409.617
 323  6676.423
 324  7033.718
 325  7001.018
 326  6875.933
 327  6734.621
 328  6288.707
 329  5932.076
 330  5513.77
 331  5219.899
 332  5562.924
 333  5841.476
 334  5870.295
 335  5366.366
 336  5425.979
 337  6000.882
 338  6033.925
 339  6159.221
 340  5646.93
 341  5159.618
 342  5178.791
 343  5549.648
 344  5253.013
 345  5502.653
 346  5258.987
 347  4633.707
 348  4788.6
 349  4756.912
 350  5118.046
 351  5614.766
 352  5686.547
 353  5445.046
 354  5248.234
 355  5285.16
 356  5781.871
 357  5599.731
 358  5054.926
 359  5189.728
 360  5538.317
 361  5836.084
 362  6236.976
 363  6382.232
 364  6169.813
 365  5681.009
 366  5709.045
 367  6424.777
 368  6626.656
 369  5878.612
 370  6056.332
 371  6059.067
 372  6210.781
 373  6182.608
 374  5966.501
 375  5950.986
 376  5955.208
 377  5822.512
 378  6032.226
 379  6246.491
 380  6492.07
 381  5967.638
 382  5854.561
 383  6384.734
 384  6087.014
 385  6076.217
 386  6492.598
 387  6209.337
 388  6204.772
 389  5790.23
 390  5729.62
 391  5575.28
 392  6054.818
 393  6296.427
 394  6178.708
 395  6263.853
 396  6291.976
 397  6358.121
 398  6405.77
 399  6558.06
 400  6616.573
 401  6502.744
 402  6203.284
 403  6156.063
 404  6220.264
 405  6271.754
 406  6257.99
 407  5919.929
 408  5916.129
 409  6106.648
 410  6192.611
 411  6148.16
 412  6099.165
 413  5999.015
 414  6014.535
 415  5908.858
 416  6154.614
 417  5665.823
 418  5635.267
 419  5923.646
 420  6044.896
 421  6131.204
 422  5737.675
 423  5533.398
 424  5532.51
 425  5721.231
 426  6007.038
 427  6052.944
 428  5873.966
 429  6076.489
 430  5967.884
 431  6135.981
 432  6114.914
 433  6145.8
 434  5877.294
 435  5941.896
 436  5882.794
 437  5715.609
 438  5812.102
 439  5763.523
 440  5686.301
 441  5532.199
 442  5631.12
 443  5470.042
 444  5490.173
 445  5636.567
 446  5864.129
 447  5480.28
 448  5380.211
 449  5133.404
 450  5281.844
 451  5291.177
 452  5462.717
 453  5703.276
 454  5598.528
 455  5488.799
 456  5692.483
 457  5697.031
 458  5460.798
 459  5604.633
 460  5677.759
 461  5885.071
 462  5951.82
 463  5542.376
 464  5336.369
 465  5136.372
 466  5157.936
 467  4755.824
 468  5257.358
 469  5551.849
 470  4963.688
 471  4792.074
 472  4725.901
 473  4668.802
 474  4557.355
 475  4564.585
 476  5021.008
 477  4801.396
 478  5046.157
 479  4908.703
 480  4849.807
 481  4763.729
 482  4750.127
 483  4935.827
 484  5087.216
 485  5263.117
 486  5188.794
 487  5041.643
 488  5298.922
 489  4685.774
 490  4536.729
 491  4845.819
 492  5002.05
 493  4723.373
 494  4360.268
 495  4412.106
 496  4961.868
 497  4794.387
 498  4054.568
 499  3780.493
 500  4030.434
 501  4306.675
 502  4254.088
 503  4445.862
 504  4391.752
 505  3927.379
 506  3774.171
 507  3710.235
 508  3925.954
 509  4324.85
 510  4769.481
 511  4772.781
