# Input file       =  1185750573.115542_cleaned.dat
# Candidate        =  PSR_0332+5434
# Telescope        =  AR
# Epoch_topo       =  57967.965186522473
# Epoch_bary       =  N/A
# T_sample         =  0.002
# Data Folded      =  7208960
# Data Avg         =  0.309095695365052
# Data StdDev      =  5.04839556183323 
# Profile Bins     =  256
# Profile Avg      =  8704.19164888428 
# Profile StdDev   =  847.168309490178 
# Reduced chi-sqr  =  0.467
# Prob(Noise)      <  1   (~0.0 sigma)
# P_topo (ms)      =  714.468660445087  +/- 0.0001
# P'_topo (s/s)    =  -0                +/- 5.38e-11
# P''_topo (s/s^2) =  0                 +/- 2.42e-14
# P_bary (ms)      =  N/A
# P'_bary (s/s)    =  N/A
# P''_bary (s/s^2) =  N/A
# P_orb (s)        =  N/A
# asin(i)/c (s)    =  N/A
# eccentricity     =  N/A
# w (rad)          =  N/A
# T_peri           =  N/A
######################################################
   0  8493.213
   1  8233.722
   2  8200.166
   3  8274.942
   4  9240.243
   5  9326.731
   6  9105.469
   7  9353.777
   8  9014.534
   9  8959.015
  10  8275.358
  11  8828.343
  12  8506.762
  13  9196.566
  14  9250.617
  15  8251.565
  16  8018.45
  17  8986.464
  18  8969.669
  19  8394.38
  20  8504.292
  21  8872.571
  22  8966.972
  23  8409.845
  24  8120.832
  25  8103.909
  26  8495.224
  27  9537.292
  28  8782.202
  29  8522.842
  30  9370.477
  31  9618.439
  32  8709.491
  33  8653.765
  34  8440.769
  35  8558.17
  36  8631.455
  37  8516.856
  38  8863.884
  39  9158.902
  40  9081.746
  41  8501.564
  42  8429.215
  43  8562.765
  44  8327.366
  45  7899.327
  46  8298.88
  47  9030.465
  48  8465.739
  49  7566.101
  50  8536.573
  51  9427.403
  52  8310.593
  53  8198.177
  54  8381.766
  55  8778.948
  56  7839.59
  57  8425.236
  58  8592.17
  59  9202.31
  60  8511.454
  61  7930.023
  62  8398.257
  63  8538.418
  64  9002.296
  65  8340.383
  66  8373.799
  67  8581.867
  68  8654.158
  69  8952.725
  70  8018.205
  71  8295.072
  72  9199.968
  73  9083.933
  74  8507.396
  75  8616.401
  76  8989.363
  77  8702.222
  78  8488.157
  79  9594.265
  80  9365.59
  81  9237.395
  82  8377.336
  83  8067.319
  84  9091.959
  85  8614.719
  86  8397.641
  87  8188.426
  88  8735.456
  89  8902.794
  90  8376.026
  91  8542.739
  92  8995.528
  93  8069.555
  94  7847.325
  95  8736.09
  96  9046.897
  97  9071.394
  98  8885.697
  99  8963.266
 100  9374.052
 101  9307.043
 102  8105.5
 103  8538.763
 104  8781.296
 105  8823.611
 106  7816.608
 107  8493.479
 108  8830.716
 109  8485.232
 110  8913.368
 111  8742.276
 112  8057.589
 113  8688.511
 114  8853.856
 115  8309.725
 116  8461.715
 117  8651.408
 118  8455.84
 119  8171.044
 120  8669.37
 121  9067.964
 122  8638.421
 123  8531.935
 124  7900.069
 125  8601.788
 126  8598.776
 127  8718.406
 128  9103.225
 129  9606.948
 130  9745.501
 131  9012.052
 132  7913.708
 133  8084.936
 134  9362.431
 135  8787.296
 136  9253.103
 137  9075.725
 138  8899.697
 139  8505.229
 140  8638.452
 141  8986.616
 142  8859.72
 143  8855.485
 144  8961.004
 145  8915.861
 146  8669.692
 147  8618.057
 148  8422.878
 149  7945.253
 150  7910.801
 151  8384.934
 152  8976.136
 153  9105.521
 154  8030.814
 155  8399.511
 156  9087.734
 157  9096.167
 158  9286.264
 159  9049.094
 160  9368.316
 161  10962.42
 162  11591.03
 163  10532.36
 164  9455.536
 165  8761.843
 166  8805.987
 167  9116.384
 168  8181.624
 169  8413.945
 170  9242.507
 171  9251.92
 172  8894.401
 173  8692.968
 174  9113.149
 175  8849.795
 176  7924.101
 177  8945.192
 178  9185.21
 179  9305.621
 180  8832.567
 181  8518.66
 182  8972.201
 183  8983.7
 184  8328.035
 185  7751.059
 186  8524.453
 187  9126.055
 188  8643.01
 189  8707.671
 190  7608.17
 191  8451.272
 192  8733.86
 193  8480.515
 194  7936.167
 195  8505.33
 196  8949.891
 197  7678.962
 198  8573.165
 199  9438.617
 200  8398.297
 201  8152.899
 202  8409.721
 203  9146.032
 204  8836.677
 205  7561.107
 206  8936.125
 207  8804.571
 208  8477.047
 209  7826.119
 210  8137.835
 211  8202.401
 212  8716.204
 213  8527.394
 214  8326.383
 215  8981.4
 216  7974.354
 217  8637.08
 218  9347.556
 219  8473.286
 220  9075.419
 221  8966.975
 222  8380.507
 223  8220.527
 224  9270.432
 225  9137.698
 226  8323.055
 227  9172.433
 228  9153.055
 229  8536.926
 230  8685.84
 231  8556.329
 232  8992.33
 233  8973.381
 234  8623.882
 235  8151.096
 236  8853.535
 237  8901.197
 238  8400.879
 239  8465.924
 240  8715.38
 241  9214.92
 242  8481.234
 243  8757.997
 244  8411.565
 245  8932.565
 246  8600.952
 247  8942.082
 248  8302.766
 249  9252.171
 250  8570.275
 251  8347.467
 252  8603.229
 253  9219.287
 254  9380.373
 255  8485.406
