# Input file       =  1185177007.112782_cleaned.dat
# Candidate        =  PSR_0332+5434
# Telescope        =  AR
# Epoch_topo       =  57961.326691120164
# Epoch_bary       =  N/A
# T_sample         =  0.002
# Data Folded      =  7340032
# Data Avg         =  0.0477751408642317
# Data StdDev      =  1.00019595479653 
# Profile Bins     =  512
# Profile Avg      =  684.716854060506 
# Profile StdDev   =  119.756498639547 
# Reduced chi-sqr  =  1.243
# Prob(Noise)      <  0.000145   (~3.6 sigma)
# P_topo (ms)      =  714.47200659634   +/- 0.000372
# P'_topo (s/s)    =  -0                +/- 1.96e-10
# P''_topo (s/s^2) =  0                 +/- 8.66e-14
# P_bary (ms)      =  N/A
# P'_bary (s/s)    =  N/A
# P''_bary (s/s^2) =  N/A
# P_orb (s)        =  N/A
# asin(i)/c (s)    =  N/A
# eccentricity     =  N/A
# w (rad)          =  N/A
# T_peri           =  N/A
######################################################
   0  1137.343
   1  1131.834
   2  1048.383
   3  935.2844
   4  808.7011
   5  759.596
   6  605.5978
   7  682.0812
   8  901.1792
   9  811.6465
  10  688.7655
  11  746.7281
  12  778.4971
  13  821.7505
  14  809.4752
  15  835.746
  16  832.4871
  17  673.1922
  18  683.6706
  19  644.8907
  20  693.27
  21  807.2075
  22  866.7802
  23  980.4995
  24  752.7693
  25  686.0836
  26  641.0992
  27  563.7142
  28  600.2515
  29  724.3318
  30  798.9724
  31  663.2462
  32  552.6312
  33  642.7376
  34  550.5471
  35  559.0775
  36  674.0857
  37  690.7896
  38  719.2443
  39  577.8704
  40  578.0587
  41  647.9112
  42  794.2372
  43  745.4401
  44  753.5206
  45  670.8812
  46  658.4913
  47  682.0682
  48  688.377
  49  736.793
  50  765.8706
  51  763.4939
  52  710.4938
  53  758.6281
  54  707.9283
  55  639.0037
  56  733.5157
  57  765.9263
  58  683.6332
  59  648.0561
  60  597.8065
  61  564.2009
  62  576.2729
  63  670.3989
  64  722.2851
  65  680.8457
  66  685.2014
  67  680.4714
  68  660.4783
  69  598.8732
  70  631.825
  71  568.3215
  72  611.6716
  73  669.9584
  74  633.9553
  75  554.8533
  76  620.4063
  77  613.6471
  78  523.5109
  79  573.894
  80  549.1088
  81  563.385
  82  524.3107
  83  497.6901
  84  584.9756
  85  732.7361
  86  676.7667
  87  500.8135
  88  534.4427
  89  686.5426
  90  521.5142
  91  504.4425
  92  574.4287
  93  585.6865
  94  587.1852
  95  634.865
  96  605.1918
  97  603.0624
  98  685.8812
  99  732.8051
 100  689.288
 101  724.8239
 102  636.1032
 103  555.3817
 104  656.574
 105  733.9758
 106  616.3844
 107  598.7729
 108  611.1824
 109  660.675
 110  631.6933
 111  583.0684
 112  545.584
 113  450.2845
 114  426.3372
 115  562.1047
 116  690.9499
 117  686.6149
 118  590.3571
 119  552.2938
 120  611.1248
 121  580.6538
 122  593.1494
 123  607.1959
 124  598.1545
 125  583.2918
 126  623.0654
 127  728.9098
 128  625.2808
 129  495.8014
 130  488.1322
 131  549.6755
 132  578.1796
 133  541.8192
 134  585.5245
 135  591.8736
 136  626.5713
 137  637.363
 138  617.1565
 139  685.2019
 140  732.9786
 141  666.5035
 142  578.1232
 143  621.8852
 144  661.9552
 145  595.0189
 146  572.0132
 147  548.5461
 148  632.4886
 149  634.0054
 150  567.7463
 151  628.3082
 152  782.5637
 153  734.4026
 154  595.0186
 155  578.387
 156  487.0362
 157  548.3276
 158  567.1639
 159  680.6784
 160  682.2392
 161  597.3522
 162  617.6654
 163  642.0031
 164  651.5305
 165  742.6981
 166  684.157
 167  733.3325
 168  685.1466
 169  661.9697
 170  733.4816
 171  741.5589
 172  872.0034
 173  829.643
 174  586.6777
 175  525.7145
 176  655.1737
 177  696.3618
 178  627.1907
 179  573.5118
 180  634.0886
 181  678.7867
 182  655.8199
 183  692.6729
 184  684.0742
 185  658.6616
 186  680.5366
 187  584.2128
 188  573.2751
 189  562.8182
 190  663.0305
 191  668.1829
 192  679.7213
 193  640.952
 194  730.9929
 195  623.092
 196  567.6002
 197  632.8496
 198  641.7678
 199  527.9814
 200  597.3963
 201  599.5868
 202  601.0287
 203  624.1152
 204  558.3796
 205  546.6913
 206  563.7206
 207  591.8691
 208  549.9186
 209  500.9356
 210  534.4655
 211  670.5303
 212  665.4517
 213  626.0278
 214  704.2615
 215  625.0496
 216  657.1873
 217  665.8113
 218  750.2464
 219  670.3833
 220  666.4168
 221  662.6813
 222  785.1995
 223  674.6108
 224  654.931
 225  729.8177
 226  758.2051
 227  658.4037
 228  564.7495
 229  629.453
 230  649.7081
 231  472.6386
 232  530.3658
 233  701.7892
 234  715.7627
 235  657.9932
 236  594.7065
 237  672.8506
 238  640.3925
 239  673.6042
 240  596.8109
 241  573.3427
 242  648.6094
 243  677.5007
 244  670.4952
 245  718.2825
 246  705.1456
 247  782.386
 248  801.8139
 249  728.5003
 250  737.9305
 251  728.8195
 252  792.6823
 253  793.1837
 254  793.7104
 255  776.19
 256  774.3452
 257  707.566
 258  745.2295
 259  620.0942
 260  527.8761
 261  699.3521
 262  652.3749
 263  541.8804
 264  516.681
 265  639.6534
 266  711.3091
 267  621.2296
 268  571.291
 269  568.9636
 270  602.3773
 271  600.1584
 272  700.6625
 273  711.6871
 274  680.2941
 275  651.015
 276  698.4187
 277  725.2832
 278  746.1868
 279  704.8293
 280  772.6632
 281  755.2478
 282  789.8712
 283  775.157
 284  709.3854
 285  717.2165
 286  838.3963
 287  716.9314
 288  696.1132
 289  549.5357
 290  678.4315
 291  830.0875
 292  769.1694
 293  849.6514
 294  743.5046
 295  745.2032
 296  740.0591
 297  729.317
 298  701.4638
 299  704.2006
 300  779.4612
 301  927.6891
 302  784.4535
 303  744.9247
 304  755.1379
 305  711.955
 306  734.3569
 307  570.7998
 308  641.9767
 309  757.215
 310  774.6671
 311  762.8146
 312  747.744
 313  762.7306
 314  627.3674
 315  724.1672
 316  752.4491
 317  830.7861
 318  753.7812
 319  722.7988
 320  866.0705
 321  821.3822
 322  678.4138
 323  815.2988
 324  840.6009
 325  711.0484
 326  756.0482
 327  791.922
 328  771.7971
 329  823.762
 330  746.2408
 331  651.7919
 332  705.5827
 333  711.0573
 334  722.5761
 335  633.6921
 336  664.2943
 337  671.4114
 338  588.7383
 339  669.0543
 340  547.7925
 341  645.4486
 342  688.5619
 343  640.4175
 344  571.2332
 345  599.2823
 346  566.9077
 347  742.8038
 348  696.383
 349  755.9219
 350  679.7667
 351  798.2029
 352  750.6611
 353  801.3505
 354  761.7499
 355  719.9321
 356  808.8015
 357  795.2198
 358  710.562
 359  748.7039
 360  624.2073
 361  657.8051
 362  813.4609
 363  670.213
 364  649.0988
 365  655.7017
 366  692.3188
 367  842.7816
 368  740.5259
 369  679.7236
 370  707.4334
 371  627.7591
 372  703.1259
 373  699.7934
 374  649.9048
 375  575.8142
 376  606.9779
 377  653.6922
 378  673.9774
 379  626.5338
 380  793.6129
 381  786.6492
 382  737.0968
 383  705.4097
 384  667.6165
 385  707.997
 386  735.2289
 387  701.3649
 388  723.3603
 389  660.2673
 390  649.5875
 391  733.6276
 392  650.7805
 393  658.7754
 394  731.4607
 395  715.7376
 396  803.4219
 397  731.0468
 398  697.369
 399  616.9918
 400  641.2059
 401  739.7155
 402  700.3244
 403  576.2507
 404  609.073
 405  678.7093
 406  674.7081
 407  745.2242
 408  735.3215
 409  616.5201
 410  472.4759
 411  591.7196
 412  683.2317
 413  617.5289
 414  527.7802
 415  612.5724
 416  661.5286
 417  630.7834
 418  673.5608
 419  751.4875
 420  695.0934
 421  688.6073
 422  810.3655
 423  692.3536
 424  708.2112
 425  689.1169
 426  663.8522
 427  668.0991
 428  652.863
 429  583.4078
 430  559.7235
 431  598.7059
 432  654.3521
 433  638.7592
 434  710.1408
 435  576.7
 436  574.0215
 437  617.6625
 438  684.3734
 439  661.7737
 440  677.9006
 441  625.4131
 442  650.6758
 443  752.5668
 444  737.3994
 445  676.1137
 446  684.8777
 447  679.0491
 448  751.936
 449  722.4459
 450  723.7061
 451  868.344
 452  790.6952
 453  726.1715
 454  719.5867
 455  751.1075
 456  757.9599
 457  817.0636
 458  875.9753
 459  783.9387
 460  830.8768
 461  842.4443
 462  825.8753
 463  701.1311
 464  754.3328
 465  796.8359
 466  742.3397
 467  729.551
 468  676.2933
 469  676.4123
 470  678.8738
 471  757.6105
 472  768.1132
 473  647.6864
 474  655.3375
 475  708.6156
 476  719.1491
 477  748.0096
 478  764.521
 479  728.2408
 480  749.1395
 481  811.9043
 482  760.8469
 483  717.4084
 484  846.0482
 485  814.9738
 486  652.0889
 487  672.3147
 488  715.7333
 489  771.9344
 490  819.8677
 491  739.0637
 492  646.072
 493  664.6647
 494  756.4128
 495  733.4121
 496  805.069
 497  805.9722
 498  770.4379
 499  678.7158
 500  756.5233
 501  684.0448
 502  635.5796
 503  639.8737
 504  656.1222
 505  738.2968
 506  785.197
 507  816.5167
 508  920.5423
 509  1036.806
 510  1104.433
 511  1103.464
