# Input file       =  1185147448.112553_cleaned.dat
# Candidate        =  PSR_0332+5434
# Telescope        =  AR
# Epoch_topo       =  57960.984573061956
# Epoch_bary       =  N/A
# T_sample         =  0.002
# Data Folded      =  7208960
# Data Avg         =  0.121398227100938
# Data StdDev      =  4.96979464458417 
# Profile Bins     =  512
# Profile Avg      =  1709.2060882514  
# Profile StdDev   =  589.71173638946  
# Reduced chi-sqr  =  0.531
# Prob(Noise)      <  1   (~0.0 sigma)
# P_topo (ms)      =  714.471832170207  +/- 4.74e-05
# P'_topo (s/s)    =  -0                +/- 2.55e-11
# P''_topo (s/s^2) =  0                 +/- 1.14e-14
# P_bary (ms)      =  N/A
# P'_bary (s/s)    =  N/A
# P''_bary (s/s^2) =  N/A
# P_orb (s)        =  N/A
# asin(i)/c (s)    =  N/A
# eccentricity     =  N/A
# w (rad)          =  N/A
# T_peri           =  N/A
######################################################
   0  1791.245
   1  2248.209
   2  2104.174
   3  1436.516
   4  1663.751
   5  2281.27
   6  1898.281
   7  1774.809
   8  1832.314
   9  1596.997
  10  1028.016
  11  1263.651
  12  1633.268
  13  1837.302
  14  1911.535
  15  1803.841
  16  1892.626
  17  1712.153
  18  1949.231
  19  2170.86
  20  2073.295
  21  1923.102
  22  2169.501
  23  2212.979
  24  1655.686
  25  1289.732
  26  1776.732
  27  2156.013
  28  1880.708
  29  2105.432
  30  1889.056
  31  1604.775
  32  1147.775
  33  1526.949
  34  1815.564
  35  1777.691
  36  1762.715
  37  1662.007
  38  1881.94
  39  1721.351
  40  1370.503
  41  1612.991
  42  1944.03
  43  2249.01
  44  1813.488
  45  1865.355
  46  2194.8
  47  2113.115
  48  2097.19
  49  1954.596
  50  1929.932
  51  1479.954
  52  1985.329
  53  1829.184
  54  1912
  55  1924.403
  56  2018.942
  57  1986.984
  58  1737.485
  59  2045.67
  60  1480.511
  61  1267.124
  62  1085.625
  63  1935.557
  64  1775.07
  65  1320.475
  66  1633.979
  67  1875.621
  68  1943.077
  69  1603.154
  70  1774.727
  71  1856.944
  72  1339.231
  73  1592.372
  74  2008.208
  75  2197.775
  76  2064.109
  77  2086.625
  78  1954.346
  79  1645.103
  80  1381.379
  81  1332.739
  82  1611.963
  83  1742.259
  84  1741.697
  85  1999.776
  86  2264.481
  87  1992.578
  88  1852.161
  89  2012.644
  90  1607.267
  91  1537.092
  92  1516.911
  93  1655.302
  94  1575.028
  95  1375.672
  96  2029.658
  97  1931.234
  98  1803.499
  99  1442.291
 100  1612.354
 101  1937.341
 102  1894.071
 103  2137.187
 104  2520.135
 105  2063.221
 106  1243.846
 107  1362.527
 108  1724.922
 109  1702.185
 110  2030.221
 111  2389.082
 112  1884.757
 113  1565.095
 114  1726.703
 115  1515.38
 116  1531.471
 117  1753.493
 118  1787.573
 119  1800.125
 120  2058.951
 121  1807.339
 122  1750.115
 123  2085.064
 124  1592.331
 125  1349.124
 126  1549.781
 127  1239.754
 128  1467.327
 129  1855.798
 130  2336.998
 131  1876.615
 132  1911.208
 133  1876.552
 134  1570.741
 135  1652.098
 136  1843.969
 137  1987.065
 138  1847.086
 139  1635.457
 140  1674.805
 141  1745.016
 142  1638.095
 143  1418.339
 144  1394.736
 145  1284.494
 146  982.0367
 147  1658.267
 148  1766.224
 149  1598.782
 150  1652.998
 151  1909.224
 152  1538.105
 153  1768.116
 154  1488.41
 155  1700.302
 156  1730.954
 157  1030.265
 158  1562.81
 159  2012.221
 160  1634.4
 161  1415.118
 162  1514.968
 163  1670.178
 164  1306.875
 165  1576.013
 166  1690.948
 167  1609.448
 168  1649.872
 169  1669.547
 170  1707.377
 171  1720.347
 172  1602.549
 173  1554.743
 174  1855.475
 175  1742.869
 176  1401.922
 177  1558.612
 178  1765.155
 179  1717.866
 180  1734.425
 181  1276.081
 182  1512.885
 183  1785.838
 184  1544.205
 185  1779.311
 186  1631.409
 187  1626.262
 188  1422.443
 189  1431.303
 190  1414.251
 191  1348.521
 192  1779.081
 193  2021.332
 194  1716.597
 195  2087.296
 196  1972.481
 197  1347.587
 198  1207.407
 199  1538.409
 200  1927.226
 201  1746.443
 202  1790.993
 203  2338.312
 204  2274.409
 205  1583.134
 206  1674.815
 207  2089.373
 208  1903.087
 209  1616.235
 210  1811.514
 211  1956.54
 212  1710.308
 213  1332.697
 214  1851.034
 215  2037.947
 216  2015.98
 217  1845.024
 218  2106.98
 219  2250.604
 220  1992.384
 221  1634.124
 222  2092.539
 223  1910.215
 224  1609.061
 225  2019.547
 226  1480.084
 227  1757.192
 228  1979.982
 229  2075.83
 230  1896.872
 231  1358.887
 232  1275.476
 233  1847.567
 234  1635.531
 235  1833.425
 236  2022.203
 237  2277.091
 238  1815.958
 239  1226.575
 240  1675.544
 241  1505.169
 242  1231.636
 243  1216.295
 244  1374.864
 245  1016.27
 246  928.6205
 247  1540.5
 248  2149.275
 249  1961.139
 250  1627.07
 251  1239.846
 252  1701.911
 253  1572.955
 254  1386.715
 255  1723.41
 256  1854.966
 257  1875.799
 258  1525.371
 259  1783.318
 260  1449.675
 261  1363.074
 262  1757.057
 263  1424.864
 264  1325.626
 265  1708.403
 266  1828.06
 267  1109.403
 268  1269.93
 269  1617.078
 270  1534.252
 271  1080.053
 272  1080.23
 273  1217.562
 274  1799.493
 275  1280.194
 276  1276.975
 277  1453.345
 278  1483.914
 279  1516.504
 280  1611.243
 281  1843.369
 282  1565.122
 283  1429.707
 284  1366.265
 285  1930.803
 286  1839.263
 287  1703.604
 288  1855.769
 289  1886.419
 290  1792.955
 291  1442.626
 292  1759.602
 293  1717.841
 294  1688.987
 295  1561.666
 296  1473.045
 297  1358.867
 298  1800.441
 299  1943.501
 300  1970.009
 301  1823.725
 302  1709.45
 303  1669.578
 304  1590.852
 305  1535.353
 306  1653.647
 307  1490.478
 308  1218.19
 309  1222.258
 310  1607.238
 311  1744.384
 312  1373.408
 313  1370.713
 314  1554.322
 315  1628.784
 316  1564.951
 317  1597.916
 318  1759.655
 319  2130.927
 320  1574.068
 321  1236.909
 322  1631.546
 323  1241.119
 324  1522.553
 325  1522.463
 326  1173.73
 327  1404.02
 328  1510.657
 329  1704.404
 330  1520.657
 331  1514.039
 332  1585.969
 333  1424.851
 334  1179.501
 335  1656.737
 336  1345.825
 337  1152.09
 338  1195.36
 339  1313.3
 340  1643.324
 341  1420.957
 342  1271.979
 343  1468.639
 344  1402.321
 345  1166.24
 346  1375.174
 347  1715.003
 348  1897.239
 349  1699.599
 350  1479.483
 351  1779.544
 352  1704.123
 353  1682.282
 354  1808.091
 355  1731.725
 356  1282.17
 357  1510.55
 358  1605.859
 359  1859.513
 360  1618.62
 361  1481.385
 362  1419.32
 363  1249.866
 364  1495.875
 365  1849.397
 366  1626.356
 367  1285.694
 368  1520.692
 369  1943.227
 370  1711.275
 371  1160.76
 372  1282.486
 373  1501.113
 374  1525.179
 375  1454.438
 376  1471.998
 377  1932.823
 378  1845.049
 379  1515.944
 380  1541.11
 381  1422.952
 382  1424.038
 383  1365.717
 384  2018.981
 385  2074.097
 386  1594.618
 387  1728.055
 388  1764.75
 389  1805.237
 390  1369.249
 391  1223.557
 392  1413.501
 393  1849.353
 394  2100.981
 395  1786.009
 396  1996.548
 397  1618.691
 398  1657.699
 399  1791.258
 400  1300.381
 401  1749.239
 402  1707.579
 403  1694.407
 404  1423.498
 405  1677.354
 406  1840.764
 407  1573.073
 408  1326.044
 409  1561.898
 410  1801.648
 411  1753.608
 412  1735.676
 413  1766.788
 414  1987.039
 415  1906.447
 416  1919.028
 417  1772.796
 418  1463.055
 419  1187.918
 420  1252.199
 421  1586.224
 422  1868.367
 423  1706.223
 424  2161.285
 425  1774.454
 426  1897.405
 427  1543.99
 428  1528.001
 429  1553.237
 430  1577.762
 431  1741.112
 432  2210.816
 433  1848.425
 434  1799.885
 435  2115.334
 436  1847.642
 437  1764.823
 438  1588.889
 439  2105.169
 440  2015.482
 441  1792.748
 442  2552.07
 443  3188.177
 444  3167.224
 445  3152.795
 446  3334.349
 447  2986.175
 448  2445.324
 449  1934.392
 450  2023.255
 451  2140.935
 452  1897.131
 453  1602.401
 454  1691.274
 455  1361.631
 456  1433.423
 457  1412.88
 458  1632.865
 459  1821.037
 460  1967.612
 461  2083.071
 462  1624.845
 463  1934.975
 464  1887.385
 465  1636.311
 466  1591.198
 467  1444.168
 468  1801.845
 469  1770.305
 470  1493.127
 471  1467.654
 472  1901.951
 473  1691.251
 474  1342.313
 475  1621.673
 476  1939.832
 477  1817.494
 478  1660.229
 479  1867.155
 480  2213.456
 481  2002.844
 482  1797.25
 483  1880.341
 484  1753.077
 485  1456.68
 486  1427.351
 487  1966.172
 488  1991.718
 489  1565.677
 490  1556.615
 491  1718.33
 492  1752.545
 493  1890.419
 494  1643.972
 495  1640.929
 496  1799.202
 497  2155.986
 498  2219.867
 499  2162.879
 500  2016.211
 501  1948.862
 502  1970.334
 503  1574.27
 504  1780.424
 505  2098.801
 506  2165.093
 507  1458.433
 508  1944.734
 509  2080.982
 510  1695.061
 511  1483.605
