# Input file       =  1185263182.108499_cleaned.dat
# Candidate        =  PSR_0332+5434
# Telescope        =  AR
# Epoch_topo       =  57962.324086903922
# Epoch_bary       =  N/A
# T_sample         =  0.002
# Data Folded      =  7340032
# Data Avg         =  0.329675347419522
# Data StdDev      =  5.31806305432503 
# Profile Bins     =  1024
# Profile Avg      =  2362.62221298684 
# Profile StdDev   =  450.248713545748 
# Reduced chi-sqr  =  0.782
# Prob(Noise)      <  1   (~0.0 sigma)
# P_topo (ms)      =  714.47151537403   +/- 0.000677
# P'_topo (s/s)    =  -0                +/- 3.57e-10
# P''_topo (s/s^2) =  0                 +/- 1.58e-13
# P_bary (ms)      =  N/A
# P'_bary (s/s)    =  N/A
# P''_bary (s/s^2) =  N/A
# P_orb (s)        =  N/A
# asin(i)/c (s)    =  N/A
# eccentricity     =  N/A
# w (rad)          =  N/A
# T_peri           =  N/A
######################################################
   0  2648.225
   1  2536.564
   2  2394.666
   3  2375.197
   4  2411.833
   5  2414.233
   6  2480.815
   7  2604.571
   8  2665.092
   9  2667.382
  10  2632.472
  11  2507.913
  12  2431.75
  13  2358.839
  14  2412.081
  15  2361.031
  16  2389.653
  17  2577.479
  18  2590.098
  19  2537.716
  20  2480.915
  21  2587.292
  22  2528.231
  23  2526.691
  24  2393.984
  25  2442.001
  26  2382.362
  27  2405.995
  28  2461.455
  29  2536.209
  30  2535.889
  31  2606.506
  32  2589.154
  33  2627.285
  34  2500.581
  35  2450.995
  36  2328.938
  37  2345.504
  38  2416.221
  39  2387.615
  40  2326.232
  41  2410.267
  42  2527.286
  43  2607.095
  44  2515.866
  45  2509.328
  46  2422.581
  47  2502.435
  48  2423.415
  49  2322.194
  50  2165.727
  51  2170.654
  52  2138.338
  53  2251.015
  54  2248.348
  55  2423.322
  56  2399.598
  57  2499.067
  58  2429.477
  59  2522.61
  60  2441.876
  61  2487.849
  62  2469.832
  63  2515.266
  64  2550.069
  65  2514.309
  66  2450.156
  67  2434.095
  68  2482.267
  69  2514.071
  70  2432.006
  71  2510.786
  72  2500.317
  73  2467.451
  74  2404.999
  75  2352.298
  76  2383.764
  77  2280.648
  78  2299.455
  79  2351.893
  80  2476.611
  81  2594.877
  82  2513.386
  83  2448.322
  84  2487.993
  85  2574.161
  86  2646.077
  87  2521.948
  88  2472.511
  89  2449.382
  90  2441.253
  91  2437.262
  92  2405.703
  93  2489.651
  94  2433.755
  95  2467.578
  96  2437.149
  97  2521.067
  98  2651.955
  99  2612.005
 100  2635.939
 101  2629.661
 102  2587.521
 103  2676.218
 104  2789.566
 105  2673.78
 106  2523.518
 107  2440.969
 108  2532.326
 109  2561.303
 110  2690.955
 111  2803.007
 112  2868.154
 113  2743.362
 114  2566.214
 115  2448.479
 116  2572.009
 117  2720.907
 118  2641.866
 119  2513.847
 120  2367.854
 121  2362.831
 122  2353.207
 123  2442.674
 124  2483.863
 125  2519.955
 126  2225.884
 127  2133.52
 128  2222.101
 129  2440.399
 130  2465.94
 131  2398.455
 132  2372.482
 133  2373.236
 134  2373.991
 135  2363.847
 136  2271.621
 137  2371.29
 138  2342.702
 139  2396.583
 140  2381.391
 141  2339.206
 142  2343.176
 143  2361.523
 144  2450.108
 145  2446.563
 146  2461.448
 147  2434.635
 148  2289.586
 149  2259.525
 150  2214.517
 151  2298.719
 152  2287.082
 153  2223.038
 154  2214.38
 155  2274.945
 156  2409.927
 157  2350.862
 158  2217.366
 159  2169.985
 160  2249.002
 161  2165.08
 162  2134.736
 163  2047.2
 164  2040.425
 165  1964.948
 166  2091.368
 167  2093.039
 168  2137.761
 169  2171.708
 170  2129.607
 171  2051.124
 172  2035.537
 173  2106.859
 174  2091.836
 175  2058.05
 176  1941.546
 177  1882.998
 178  1912.174
 179  1875.888
 180  1915.101
 181  1957.657
 182  1992.207
 183  2051.088
 184  1993.717
 185  1941.08
 186  1880.137
 187  1946.657
 188  2074.778
 189  2193.166
 190  2250.24
 191  2331.265
 192  2423.28
 193  2590.36
 194  2563.832
 195  2406.448
 196  2324.398
 197  2291.669
 198  2230.125
 199  2162.015
 200  2283.273
 201  2294.702
 202  2264.502
 203  2232.368
 204  2290.34
 205  2314.593
 206  2167.562
 207  2133.716
 208  2276.406
 209  2372.138
 210  2273.945
 211  2241.153
 212  2231.84
 213  2258.496
 214  2204.979
 215  2175.302
 216  2303.33
 217  2286.13
 218  2254.806
 219  2285.357
 220  2289.688
 221  2321.619
 222  2296.722
 223  2257.103
 224  2331.834
 225  2284.722
 226  2207.696
 227  2254.458
 228  2300.194
 229  2427.798
 230  2551.173
 231  2624.271
 232  2658.978
 233  2587.49
 234  2588.723
 235  2568.594
 236  2371.295
 237  2510.689
 238  2511.835
 239  2496.919
 240  2360.199
 241  2370.892
 242  2529.83
 243  2555.684
 244  2637.726
 245  2565.023
 246  2606.118
 247  2462.734
 248  2436.74
 249  2341.125
 250  2277.323
 251  2442.709
 252  2566.658
 253  2550.951
 254  2530.223
 255  2581.396
 256  2615.815
 257  2460.777
 258  2319.479
 259  2435.227
 260  2482.194
 261  2620.892
 262  2486.303
 263  2447.601
 264  2429.007
 265  2391.378
 266  2427.848
 267  2373.735
 268  2274.952
 269  2277.302
 270  2367.247
 271  2415.073
 272  2382.439
 273  2296.587
 274  2347.256
 275  2382.802
 276  2511.175
 277  2459.188
 278  2473.314
 279  2477.867
 280  2474.135
 281  2332.935
 282  2192.989
 283  2306.266
 284  2358.578
 285  2383.959
 286  2265.522
 287  2224.058
 288  2261.592
 289  2406.279
 290  2497.518
 291  2462.455
 292  2326.354
 293  2233.884
 294  2323.661
 295  2433.802
 296  2534.736
 297  2431.121
 298  2307.227
 299  2310.192
 300  2356.725
 301  2343.253
 302  2314.592
 303  2148.448
 304  2122.062
 305  2211.478
 306  2250.394
 307  2340.137
 308  2345.465
 309  2522.247
 310  2525.265
 311  2487.128
 312  2454.933
 313  2540.969
 314  2556.711
 315  2563.49
 316  2460.652
 317  2405.416
 318  2322.41
 319  2348.708
 320  2335.812
 321  2282.386
 322  2199.957
 323  2270.512
 324  2377.995
 325  2446.629
 326  2423.25
 327  2535.191
 328  2536.436
 329  2637.766
 330  2477.74
 331  2415.077
 332  2353.526
 333  2503.589
 334  2627.081
 335  2675.599
 336  2592.313
 337  2447.636
 338  2415.507
 339  2396.55
 340  2365.254
 341  2264.659
 342  2159.865
 343  2235.889
 344  2381.338
 345  2576.123
 346  2523.562
 347  2432.368
 348  2341.51
 349  2279.149
 350  2181.284
 351  2060.575
 352  2053.43
 353  1998.454
 354  2122.169
 355  2196.945
 356  2336.612
 357  2340.7
 358  2222.005
 359  2231.049
 360  2157.697
 361  2144.772
 362  2088.282
 363  2253.679
 364  2442.803
 365  2433.409
 366  2468.922
 367  2621.423
 368  2602.491
 369  2497.361
 370  2431.547
 371  2501.941
 372  2649.088
 373  2736.289
 374  2746.24
 375  2850.77
 376  2871.379
 377  2949.742
 378  2982.146
 379  3020.069
 380  2947.814
 381  2835.569
 382  2766.582
 383  2781.765
 384  2847.982
 385  2799.816
 386  2799.907
 387  2737.455
 388  2713.27
 389  2658.304
 390  2718.609
 391  2709.227
 392  2744.285
 393  2675.516
 394  2809.985
 395  2845.854
 396  2879.006
 397  2752.994
 398  2686.915
 399  2626.75
 400  2604.188
 401  2585.81
 402  2668.253
 403  2709.433
 404  2721.44
 405  2559.312
 406  2516.385
 407  2430.124
 408  2475.083
 409  2499.966
 410  2456.501
 411  2341.549
 412  2320.814
 413  2363.981
 414  2398.383
 415  2469.091
 416  2392.597
 417  2450.057
 418  2393.826
 419  2382.702
 420  2512.573
 421  2529.928
 422  2551.197
 423  2439.54
 424  2426.832
 425  2479.172
 426  2518.309
 427  2581.27
 428  2580.6
 429  2527.022
 430  2482.469
 431  2497.381
 432  2372.725
 433  2330.481
 434  2293.878
 435  2406.921
 436  2349.916
 437  2314.455
 438  2417.897
 439  2489.284
 440  2601.666
 441  2550.315
 442  2439.812
 443  2284.774
 444  2296.593
 445  2345.231
 446  2404.551
 447  2419.376
 448  2352.969
 449  2305.337
 450  2188.767
 451  2224.146
 452  2191.823
 453  2260.24
 454  2306.029
 455  2320.726
 456  2360.282
 457  2321.681
 458  2254.206
 459  2242.086
 460  2280.226
 461  2286.672
 462  2204.329
 463  2236.24
 464  2166.57
 465  2169.246
 466  2224
 467  2273.51
 468  2293.792
 469  2205.586
 470  2125.213
 471  2060.483
 472  2183.805
 473  2343.954
 474  2360.958
 475  2149.961
 476  2063.347
 477  2017.576
 478  2108.701
 479  2065.812
 480  2131.757
 481  2334.549
 482  2342.956
 483  2297.605
 484  2321.816
 485  2405.294
 486  2358.344
 487  2242.683
 488  2119.877
 489  1940.779
 490  1926.912
 491  2075.108
 492  2048.29
 493  2033.736
 494  2005.587
 495  2112.359
 496  2126.979
 497  2066.655
 498  2015.475
 499  2147.897
 500  2339.164
 501  2341.406
 502  2193.095
 503  1875.438
 504  1765.436
 505  1908.534
 506  2171.015
 507  2224.217
 508  2086.528
 509  2001.333
 510  1915.487
 511  1912.215
 512  2068.464
 513  2015.075
 514  2086.594
 515  2032.574
 516  2147.021
 517  2129.002
 518  2299.627
 519  2320.09
 520  2435.838
 521  2522.879
 522  2588.205
 523  2527.193
 524  2427.773
 525  2307.543
 526  2288.239
 527  2226.422
 528  2299.64
 529  2255.515
 530  2290.78
 531  2312.867
 532  2315.684
 533  2282.88
 534  2368.502
 535  2420.087
 536  2431.144
 537  2322.36
 538  2229.159
 539  2334.906
 540  2268.936
 541  2311.785
 542  2162.494
 543  2175.299
 544  2227.139
 545  2351.278
 546  2364.313
 547  2283.466
 548  2269.041
 549  2293.918
 550  2311.148
 551  2181.356
 552  2164.191
 553  2186.163
 554  2265.507
 555  2273.795
 556  2268.138
 557  2214.331
 558  2190.963
 559  2180.621
 560  2219.418
 561  2205.411
 562  2312.051
 563  2368.04
 564  2361.721
 565  2252.33
 566  2213.205
 567  2179.712
 568  2216.13
 569  2164.116
 570  2250.677
 571  2119.004
 572  1997.372
 573  1808.015
 574  1852.77
 575  1944.682
 576  2145.694
 577  2202.29
 578  2269.323
 579  2303.061
 580  2227.744
 581  2122.27
 582  2016.867
 583  1946.208
 584  1939.131
 585  1815.026
 586  1824.253
 587  1887.817
 588  1963.541
 589  1981.715
 590  2033.852
 591  1979.047
 592  2039.623
 593  1974.646
 594  1999.58
 595  2015.237
 596  2094.79
 597  2108.013
 598  2056.773
 599  2094.287
 600  2104.207
 601  2035.556
 602  1936.249
 603  1933.569
 604  2055.488
 605  2095.413
 606  2214.905
 607  2176.234
 608  2175.754
 609  2207.379
 610  2113.226
 611  2002.155
 612  1939.508
 613  2155.761
 614  2238.865
 615  2199.865
 616  2174.176
 617  2286.288
 618  2207.422
 619  2215.175
 620  2193.511
 621  2291.379
 622  2185.864
 623  2099.615
 624  1963.53
 625  1948.386
 626  1793.8
 627  1752.89
 628  1810.344
 629  1878.979
 630  1928.677
 631  1841.965
 632  1875.075
 633  1798.328
 634  1924.558
 635  1969.759
 636  2106.868
 637  1993.141
 638  1953.029
 639  1970.834
 640  2057.75
 641  2164.967
 642  2105.758
 643  2304.923
 644  2295.549
 645  2318.732
 646  2443.097
 647  2566.658
 648  2647.733
 649  2673.6
 650  2790.436
 651  2846.162
 652  2895.342
 653  2912.192
 654  2919.39
 655  2654.473
 656  2359.718
 657  2262.047
 658  2323.518
 659  2361.925
 660  2283.64
 661  2270.586
 662  2242.453
 663  2300.633
 664  2318.339
 665  2413.852
 666  2396.878
 667  2392.565
 668  2308.807
 669  2300.058
 670  2400.502
 671  2507.35
 672  2479.346
 673  2417.061
 674  2406.876
 675  2446.392
 676  2437.223
 677  2384.8
 678  2476.523
 679  2632.93
 680  2724.627
 681  2699.255
 682  2569.063
 683  2517.718
 684  2424.52
 685  2359.677
 686  2352.415
 687  2393.291
 688  2279.577
 689  2199.722
 690  2210.792
 691  2262.097
 692  2288.299
 693  2389.394
 694  2459.622
 695  2388.117
 696  2207.495
 697  2090.469
 698  1960.27
 699  2015.64
 700  2061.306
 701  2083.767
 702  1984.812
 703  2002.112
 704  2037.969
 705  2148.849
 706  2138.631
 707  2158.323
 708  2070.888
 709  2053.021
 710  2027.352
 711  2021.344
 712  2091.058
 713  2103.392
 714  2044.508
 715  2069.208
 716  2095.188
 717  2136.472
 718  1993.882
 719  2008.063
 720  1976.887
 721  1921.585
 722  1937.967
 723  1961.751
 724  2173.968
 725  2303.256
 726  2383.417
 727  2310.116
 728  2164.42
 729  2079.402
 730  1996.259
 731  2044.632
 732  2076.175
 733  2001.174
 734  1893.728
 735  1959.941
 736  2031.11
 737  2104.981
 738  2048.034
 739  2085.314
 740  2126.99
 741  2187.725
 742  2108.436
 743  2193.605
 744  2146.849
 745  2142.93
 746  2055.489
 747  2205.804
 748  2354.849
 749  2305.459
 750  2371.362
 751  2286.73
 752  2287.608
 753  2223.809
 754  2263.959
 755  2243.063
 756  2124.004
 757  2203.415
 758  2315.123
 759  2270.35
 760  2215.927
 761  2249.788
 762  2356.284
 763  2384.415
 764  2299.849
 765  2293.396
 766  2174.123
 767  2343.597
 768  2332.275
 769  2409.817
 770  2369.072
 771  2352.76
 772  2311.352
 773  2281.607
 774  2347.74
 775  2384.755
 776  2352.557
 777  2254.897
 778  2057.151
 779  1986.163
 780  2032.988
 781  2216.503
 782  2229.637
 783  2175.099
 784  2062.408
 785  2097.432
 786  2184.188
 787  2328.472
 788  2354.427
 789  2314.656
 790  2336.397
 791  2430.802
 792  2413.541
 793  2427.049
 794  2405.616
 795  2410.548
 796  2333.566
 797  2268.527
 798  2150.038
 799  2122.668
 800  2201.82
 801  2375.07
 802  2474.295
 803  2492.284
 804  2422.735
 805  2424.096
 806  2325.331
 807  2341.274
 808  2343.12
 809  2438.824
 810  2465.834
 811  2406.711
 812  2290.76
 813  2270.613
 814  2294.495
 815  2347.103
 816  2268.536
 817  2341.751
 818  2552.469
 819  2574.456
 820  2480.413
 821  2387.81
 822  2350.515
 823  2268.455
 824  2120.809
 825  2019.282
 826  2083.147
 827  2192.075
 828  2285.761
 829  2300.859
 830  2275.45
 831  2372.672
 832  2395.016
 833  2281.016
 834  2261.873
 835  2340.109
 836  2281.866
 837  2216.484
 838  2175.57
 839  2335.483
 840  2482.546
 841  2539.141
 842  2434.281
 843  2333.517
 844  2329.42
 845  2452.362
 846  2488.167
 847  2478.331
 848  2339.181
 849  2231.16
 850  2286.733
 851  2343.367
 852  2271.042
 853  2335.47
 854  2448.243
 855  2633.5
 856  2642.414
 857  2454.663
 858  2325.958
 859  2365.361
 860  2404.584
 861  2445.668
 862  2468.155
 863  2557.947
 864  2633.692
 865  2641.153
 866  2666.75
 867  2608.231
 868  2537.473
 869  2419.013
 870  2394.009
 871  2540.605
 872  2659.784
 873  2596.293
 874  2523.814
 875  2517.456
 876  2503.135
 877  2542.839
 878  2503.21
 879  2633.108
 880  2609.15
 881  2595.326
 882  2418.889
 883  2528.329
 884  2472.102
 885  2556.58
 886  2597.466
 887  2703.569
 888  2604.186
 889  2556.339
 890  2591.948
 891  2648.417
 892  2698.271
 893  2630.538
 894  2698.457
 895  2478.188
 896  2509.812
 897  2400.843
 898  2381.326
 899  2307.635
 900  2270.392
 901  2305.302
 902  2274.348
 903  2261.497
 904  2341.987
 905  2327.736
 906  2236.777
 907  2265.116
 908  2229.372
 909  2333.951
 910  2370.676
 911  2484.966
 912  2388.173
 913  2464.056
 914  2543.872
 915  2445.299
 916  2319.317
 917  2331.597
 918  2506.802
 919  2451.171
 920  2360.214
 921  2411.317
 922  2356.837
 923  2319.405
 924  2303.986
 925  2367.792
 926  2425.804
 927  2459.537
 928  2455.352
 929  2507.397
 930  2426.095
 931  2498.213
 932  2427.508
 933  2414.057
 934  2344.727
 935  2379.686
 936  2367.08
 937  2341.29
 938  2409.728
 939  2530.936
 940  2463.759
 941  2352.635
 942  2256.974
 943  2315.755
 944  2398.782
 945  2460.518
 946  2630.766
 947  2687.093
 948  2674.58
 949  2640.066
 950  2642.476
 951  2682.893
 952  2661.53
 953  2615.471
 954  2604.79
 955  2585.244
 956  2627.958
 957  2655.535
 958  2606.514
 959  2550.857
 960  2604.229
 961  2730.337
 962  2914.351
 963  2795.791
 964  2678.053
 965  2536.457
 966  2709.193
 967  2780.47
 968  2817.319
 969  2756.467
 970  2714.813
 971  2686.817
 972  2709.843
 973  2651.726
 974  2540.365
 975  2557.067
 976  2714.558
 977  2772.705
 978  2799.649
 979  2778.422
 980  2660.32
 981  2782.818
 982  2800.903
 983  2857.67
 984  2793.32
 985  2810.527
 986  2790.333
 987  2776.493
 988  2800.017
 989  2693.544
 990  2731.488
 991  2774.499
 992  2848.669
 993  2736.334
 994  2785.063
 995  2689.395
 996  2786.534
 997  2778.272
 998  2734.73
 999  2633.988
1000  2610.878
1001  2591.483
1002  2559.981
1003  2509.789
1004  2619.608
1005  2695.663
1006  2719.306
1007  2601.427
1008  2512.075
1009  2616.562
1010  2491.833
1011  2429.677
1012  2412.685
1013  2515.382
1014  2533.238
1015  2505.592
1016  2585.135
1017  2609.769
1018  2483.985
1019  2394.93
1020  2537.877
1021  2614.85
1022  2629.067
1023  2622.639
