# Input file       =  1185506739.105851_cleaned.dat
# Candidate        =  PSR_0332+5434
# Telescope        =  AR
# Epoch_topo       =  57965.143033632536
# Epoch_bary       =  N/A
# T_sample         =  0.002
# Data Folded      =  7340032
# Data Avg         =  0.134387696832294
# Data StdDev      =  3.52616816935548 
# Profile Bins     =  512
# Profile Avg      =  1917.75702176796 
# Profile StdDev   =  422.198821692034 
# Reduced chi-sqr  =  1.742
# Prob(Noise)      <  5.72e-23   (~9.8 sigma)
# P_topo (ms)      =  714.469868620459  +/- 0.000533
# P'_topo (s/s)    =  -0                +/- 2.81e-10
# P''_topo (s/s^2) =  0                 +/- 1.24e-13
# P_bary (ms)      =  N/A
# P'_bary (s/s)    =  N/A
# P''_bary (s/s^2) =  N/A
# P_orb (s)        =  N/A
# asin(i)/c (s)    =  N/A
# eccentricity     =  N/A
# w (rad)          =  N/A
# T_peri           =  N/A
######################################################
   0  2247.088
   1  2229.618
   2  2029.906
   3  1910.502
   4  1903.082
   5  1726.764
   6  1813.608
   7  1534.927
   8  1893.035
   9  2093.173
  10  2061.432
  11  2237.457
  12  2205.096
  13  2120.488
  14  2131.656
  15  2088.677
  16  2000.502
  17  2048.358
  18  2146.221
  19  2196.168
  20  1968.073
  21  1994.629
  22  2162.137
  23  2092.448
  24  1966.564
  25  1913.202
  26  2019.913
  27  1839.981
  28  2157.272
  29  2124.37
  30  2036.113
  31  1793.602
  32  1800.622
  33  1846.913
  34  2057.558
  35  1893.561
  36  1565.49
  37  1615.452
  38  1701.259
  39  1695.103
  40  1920.38
  41  2289.755
  42  2130.489
  43  2185.477
  44  2099.238
  45  2019.764
  46  2000.962
  47  2138.325
  48  2311.156
  49  2273.282
  50  2187.49
  51  1962.564
  52  2122.841
  53  2226.795
  54  2283.838
  55  2786.461
  56  2511.957
  57  2127.178
  58  2304.168
  59  2251.392
  60  2268.115
  61  2360.269
  62  2594.188
  63  2368.151
  64  2625.302
  65  2529.594
  66  2417.865
  67  2176.63
  68  2125.678
  69  2255.587
  70  2011.495
  71  1978.351
  72  2129.663
  73  2431.351
  74  2430.864
  75  2256.833
  76  2199.666
  77  2290.019
  78  2380.424
  79  2734.318
  80  2636.873
  81  2448.883
  82  2357.101
  83  2509.763
  84  2279.861
  85  2392.655
  86  2521.206
  87  2516.717
  88  2422.231
  89  2407.042
  90  2474.051
  91  2466.295
  92  2382.627
  93  2543.052
  94  2494.167
  95  2709.087
  96  2456.822
  97  2633.902
  98  2553.899
  99  2389.758
 100  2298.085
 101  2437.136
 102  2535.52
 103  2207.741
 104  2471.851
 105  2621.996
 106  2364.559
 107  2095.665
 108  2085.554
 109  2242.981
 110  2522.577
 111  2531.507
 112  2158.81
 113  2255.516
 114  2203.787
 115  1996.103
 116  2055.421
 117  2313.582
 118  2260.446
 119  2105.308
 120  2248.425
 121  2287.536
 122  2227.366
 123  2094.482
 124  1863.177
 125  1868.327
 126  2006.227
 127  1986.958
 128  1799.571
 129  1812.959
 130  1975.928
 131  2046.677
 132  2039.979
 133  2307.614
 134  2086.294
 135  2014.799
 136  1798.475
 137  2023.625
 138  2162.599
 139  2208.834
 140  2277.794
 141  2189.435
 142  2190.886
 143  2070.142
 144  1948.432
 145  2130.048
 146  2198.069
 147  2138.72
 148  1589.23
 149  1709.049
 150  2127.741
 151  2046.43
 152  2120.067
 153  2066.718
 154  1999.425
 155  2047.672
 156  1799.472
 157  2049.24
 158  1860.466
 159  2041.701
 160  2168.894
 161  2031.686
 162  1967.533
 163  1837.376
 164  1758.988
 165  1541.36
 166  1378.841
 167  1365.581
 168  1759.718
 169  1686.554
 170  1632.817
 171  1540.217
 172  1488.787
 173  1506.32
 174  1452.319
 175  1394.039
 176  1478.331
 177  1358.318
 178  1426.32
 179  1483.428
 180  1455.704
 181  1442.904
 182  1702.063
 183  1681.378
 184  1314.995
 185  1047.651
 186  749.2775
 187  867.2458
 188  1105.343
 189  1332.507
 190  1514.432
 191  1579.402
 192  1310.969
 193  1440.351
 194  1413.423
 195  1738.678
 196  1666.299
 197  1400.206
 198  1495.389
 199  1225.952
 200  1305.667
 201  1188.631
 202  1597.002
 203  1565.034
 204  1326.534
 205  1426.097
 206  1506.618
 207  1554.908
 208  1642.55
 209  1622.928
 210  1520.067
 211  1376.665
 212  1346.004
 213  1477.01
 214  1560.679
 215  1584.419
 216  1455.399
 217  1498.499
 218  1708.946
 219  1643.645
 220  1541.055
 221  1279.176
 222  1274.819
 223  1310.518
 224  1547.856
 225  1530.527
 226  1233.62
 227  1155.713
 228  1471.548
 229  1656.809
 230  1664.91
 231  1495.36
 232  1369.32
 233  1109.69
 234  1399.333
 235  1648.436
 236  1603.474
 237  1760.701
 238  1510.308
 239  1267.283
 240  1576.329
 241  1439.838
 242  1374.701
 243  1567.869
 244  1760.451
 245  1525.297
 246  1111.881
 247  1157.631
 248  1334.992
 249  1283.914
 250  1279
 251  1241.58
 252  1251.138
 253  1294.826
 254  1060.59
 255  961.3159
 256  1064.641
 257  1372.076
 258  1371.109
 259  1390.903
 260  1500.239
 261  1782.951
 262  1736.401
 263  1956.398
 264  1859.977
 265  2180.384
 266  1962.666
 267  1925.305
 268  2046.441
 269  1934.982
 270  1836.091
 271  1875.323
 272  1720.672
 273  1540.316
 274  1617.153
 275  1601.09
 276  1841.786
 277  1967.669
 278  1937.932
 279  1958.81
 280  1811.089
 281  1840.106
 282  1685.36
 283  1619.987
 284  1844.879
 285  1786.854
 286  1996.452
 287  1942.627
 288  1768.677
 289  1564.02
 290  1549.697
 291  1774.342
 292  1833.121
 293  1895.774
 294  2035.58
 295  1695.029
 296  1692.759
 297  1987.85
 298  2245.299
 299  2122.412
 300  1808.024
 301  1914.451
 302  1895.971
 303  1825.153
 304  1989.15
 305  1842.563
 306  1960.016
 307  2178.602
 308  2067.279
 309  1970.424
 310  1693.891
 311  1698.595
 312  1704.251
 313  1620.902
 314  1824.443
 315  1825.118
 316  1969.559
 317  1951.213
 318  1883.663
 319  1811.035
 320  2025.016
 321  2249.462
 322  2919.658
 323  3483.459
 324  3724.961
 325  3774.951
 326  3574.199
 327  3519.612
 328  3076.359
 329  2558.584
 330  2216.976
 331  2050.487
 332  1887.873
 333  2089.662
 334  2271.863
 335  2260.921
 336  2000.071
 337  2310.29
 338  2074.538
 339  2000.015
 340  2210.347
 341  2195.575
 342  2158.871
 343  2435.084
 344  2202.518
 345  2049.089
 346  2099.106
 347  2010.313
 348  2082.521
 349  1902.529
 350  2062.988
 351  2201.806
 352  2065.739
 353  2246.052
 354  2219.208
 355  2352.144
 356  2462.202
 357  2365.963
 358  2160.433
 359  2271.41
 360  2495.547
 361  1985.81
 362  2051.612
 363  1902.231
 364  2003.766
 365  2109.399
 366  2323.273
 367  2164.149
 368  2049.413
 369  2308.151
 370  2515.501
 371  2385.842
 372  2113.473
 373  2198.481
 374  2326.196
 375  2146.731
 376  2422.666
 377  2297
 378  2006.193
 379  1940.003
 380  1970.74
 381  2075.977
 382  2214.359
 383  2442.944
 384  2335.392
 385  2347.017
 386  2189.867
 387  2181.404
 388  2028.441
 389  2323.507
 390  2292.818
 391  2227.313
 392  2258.837
 393  2323.283
 394  2427.33
 395  2714.945
 396  2484.642
 397  2192.69
 398  2013.614
 399  1913.359
 400  1933.168
 401  2165.785
 402  2338.757
 403  2369.653
 404  2643.293
 405  2273.035
 406  2087.728
 407  1942.65
 408  2049.168
 409  2248.291
 410  2048.12
 411  1592.66
 412  1310.155
 413  1234.973
 414  1443.206
 415  1538.947
 416  1743.423
 417  1751.281
 418  1712.895
 419  1343.209
 420  1302.666
 421  1453.848
 422  1339.26
 423  1294.85
 424  1406.108
 425  1794.964
 426  1629.428
 427  1388.914
 428  1626.07
 429  1758.731
 430  1677.476
 431  1715.884
 432  1696.012
 433  1664.438
 434  1717.896
 435  1507.711
 436  1586.277
 437  1540.331
 438  1852.281
 439  1901.613
 440  1810.374
 441  1975.344
 442  1805.126
 443  1463.295
 444  1458.469
 445  1685.714
 446  1789.793
 447  1522.477
 448  1494.858
 449  1707.496
 450  1547.846
 451  1611.569
 452  1543.134
 453  1533.403
 454  1709.197
 455  1868.912
 456  1665.861
 457  1533.628
 458  1698.476
 459  1672.958
 460  1513.798
 461  1572.621
 462  1581.381
 463  1639.812
 464  1675.404
 465  1321.774
 466  1146.108
 467  1419.994
 468  1668.536
 469  1756.423
 470  1578.586
 471  1823.083
 472  1905.485
 473  1737.067
 474  1707.574
 475  2121.424
 476  1895.739
 477  1657.634
 478  1473.575
 479  1527.431
 480  1552.118
 481  1774.023
 482  1889.072
 483  1900.249
 484  1843.382
 485  1632.278
 486  1742.199
 487  1820.509
 488  1820.528
 489  1720.125
 490  1963.18
 491  2177.6
 492  2155.914
 493  2001.784
 494  1878.172
 495  1919.031
 496  1666.623
 497  1664.864
 498  1739.974
 499  1853.425
 500  2031.187
 501  1904.902
 502  1914.675
 503  1786.328
 504  1937.323
 505  2093.815
 506  1968.707
 507  1865.009
 508  1890.371
 509  1611.383
 510  1855.214
 511  2155.465
