# Input file       =  1185435458.11371_cleaned.dat
# Candidate        =  PSR_0332+5434
# Telescope        =  AR
# Epoch_topo       =  57964.318022149419
# Epoch_bary       =  N/A
# T_sample         =  0.002
# Data Folded      =  7340032
# Data Avg         =  0.0489292713686267
# Data StdDev      =  1.00010895077058 
# Profile Bins     =  512
# Profile Avg      =  701.378670660335 
# Profile StdDev   =  119.746081383343 
# Reduced chi-sqr  =  2.023
# Prob(Noise)      <  1.13e-37   (~12.8 sigma)
# P_topo (ms)      =  714.470573954548  +/- 0.000314
# P'_topo (s/s)    =  -0                +/- 1.66e-10
# P''_topo (s/s^2) =  0                 +/- 7.31e-14
# P_bary (ms)      =  N/A
# P'_bary (s/s)    =  N/A
# P''_bary (s/s^2) =  N/A
# P_orb (s)        =  N/A
# asin(i)/c (s)    =  N/A
# eccentricity     =  N/A
# w (rad)          =  N/A
# T_peri           =  N/A
######################################################
   0  696.7
   1  805.4384
   2  757.3757
   3  813.9922
   4  652.4159
   5  666.5945
   6  676.4721
   7  667.6772
   8  705.1456
   9  689.0984
  10  727.9128
  11  746.3078
  12  639.9986
  13  829.3621
  14  830.6405
  15  675.7017
  16  840.187
  17  868.9336
  18  831.3705
  19  835.2053
  20  807.1717
  21  779.8433
  22  900.3098
  23  802.1174
  24  750.9669
  25  880.7726
  26  917.0249
  27  827.9958
  28  738.744
  29  733.6313
  30  765.0413
  31  766.9491
  32  699.2409
  33  699.0705
  34  763.7895
  35  788.6573
  36  692.5317
  37  658.1563
  38  639.069
  39  593.3981
  40  638.782
  41  674.1633
  42  578.6167
  43  519.4787
  44  608.5979
  45  657.592
  46  605.5688
  47  607.889
  48  639.2515
  49  651.5937
  50  575.7894
  51  692.2626
  52  625.4941
  53  582.7859
  54  547.7062
  55  660.8
  56  650.3906
  57  589.1673
  58  658.5595
  59  653.1707
  60  630.4892
  61  542.6249
  62  506.2953
  63  503.3603
  64  557.5229
  65  666.0831
  66  610.6165
  67  593.8613
  68  633.9981
  69  726.9972
  70  630.337
  71  481.7621
  72  537.632
  73  555.3118
  74  604.1185
  75  599.9482
  76  612.0995
  77  604.312
  78  571.4347
  79  583.3517
  80  653.0798
  81  591.8
  82  637.5289
  83  625.6089
  84  607.7231
  85  665.986
  86  709.758
  87  782.6042
  88  638.9291
  89  616.0074
  90  713.6933
  91  703.7351
  92  701.8485
  93  742.7081
  94  838.7648
  95  749.5604
  96  702.9043
  97  708.0833
  98  654.6549
  99  728.499
 100  643.0344
 101  645.008
 102  639.1483
 103  593.8954
 104  631.7584
 105  606.1437
 106  544.3029
 107  559.7484
 108  598.8295
 109  608.04
 110  560.1963
 111  594.976
 112  653.0337
 113  716.4222
 114  690.7449
 115  616.6736
 116  584.7982
 117  696.9869
 118  757.751
 119  715.2146
 120  692.4532
 121  694.3609
 122  607.0049
 123  550.4057
 124  577.8877
 125  560.1023
 126  502.3134
 127  463.6205
 128  582.275
 129  588.5042
 130  582.2105
 131  555.2938
 132  528.8154
 133  538.1266
 134  551.3267
 135  527.3685
 136  477.6489
 137  499.2209
 138  679.998
 139  634.829
 140  533.399
 141  549.6021
 142  569.4423
 143  609.5244
 144  656.3201
 145  591.1264
 146  655.343
 147  646.4135
 148  621.6048
 149  661.8256
 150  733.4138
 151  656.117
 152  593.3158
 153  733.3658
 154  726.1989
 155  714.3617
 156  731.5586
 157  746.826
 158  649.4787
 159  566.1106
 160  681.2258
 161  647.0201
 162  588.8121
 163  657.9669
 164  742.4471
 165  690.1414
 166  684.8862
 167  655.8095
 168  668.7604
 169  676.5605
 170  573.4307
 171  562.1041
 172  633.8305
 173  679.7747
 174  600.9311
 175  589.5828
 176  591.4968
 177  585.1586
 178  605.254
 179  600.4344
 180  549.7134
 181  536.4004
 182  659.7971
 183  625.6887
 184  557.3569
 185  590.1644
 186  672.2006
 187  524.4669
 188  471.84
 189  560.8578
 190  544.996
 191  514.0974
 192  543.1041
 193  483.7635
 194  381.8852
 195  519.2576
 196  560.2988
 197  599.7682
 198  593.1781
 199  603.9879
 200  617.9421
 201  544.9527
 202  598.9195
 203  588.1621
 204  519.0355
 205  612.9619
 206  590.0703
 207  566.7665
 208  618.1453
 209  675.137
 210  668.5864
 211  624.7964
 212  494.8718
 213  589.8646
 214  641.7376
 215  629.4294
 216  472.6501
 217  483.5856
 218  599.9997
 219  485.0201
 220  581.1247
 221  752.176
 222  729.3304
 223  676.9325
 224  665.7987
 225  678.0376
 226  596.4716
 227  661.3635
 228  738.6984
 229  774.7037
 230  704.7871
 231  732.4078
 232  792.4519
 233  752.5627
 234  753.6774
 235  757.2006
 236  783.9301
 237  789.5581
 238  724.0211
 239  752.1449
 240  757.0262
 241  707.0305
 242  844.4418
 243  934.1545
 244  868.8224
 245  885.9728
 246  862.5403
 247  847.8375
 248  845.0889
 249  866.8244
 250  931.9065
 251  894.358
 252  833.8148
 253  806.1803
 254  765.4933
 255  808.2416
 256  839.9253
 257  762.4171
 258  809.6417
 259  799.6627
 260  782.0351
 261  895.396
 262  808.0637
 263  732.5895
 264  717.2069
 265  831.2825
 266  853.6511
 267  812.1486
 268  819.7204
 269  792.9011
 270  867.5375
 271  832.8632
 272  793.3847
 273  810.5112
 274  812.9767
 275  723.898
 276  674.6978
 277  732.9645
 278  661.2434
 279  636.9147
 280  710.914
 281  791.9891
 282  740.2552
 283  740.1502
 284  635.8925
 285  650.8033
 286  815.9011
 287  846.0938
 288  811.6244
 289  783.0124
 290  783.8843
 291  848.2253
 292  920.9032
 293  837.5312
 294  845.8588
 295  919.7816
 296  837.656
 297  655.813
 298  662.6746
 299  824.4317
 300  936.9879
 301  924.3918
 302  956.0101
 303  950.4315
 304  934.8909
 305  845.3125
 306  873.8607
 307  939.7753
 308  1057.966
 309  1216.322
 310  1260.642
 311  1373.856
 312  1292.178
 313  1213.253
 314  1136.789
 315  952.1568
 316  882.1277
 317  934.2297
 318  891.7537
 319  939.4916
 320  868.5359
 321  796.8115
 322  805.5253
 323  851.1953
 324  811.5925
 325  812.1212
 326  920.8558
 327  839.8015
 328  811.7968
 329  820.7603
 330  876.1775
 331  856.5494
 332  793.4273
 333  676.2561
 334  714.9293
 335  733.6515
 336  747.0646
 337  669.9096
 338  695.4477
 339  775.2117
 340  655.3072
 341  546.772
 342  661.9252
 343  698.0504
 344  672.9338
 345  673.658
 346  719.4751
 347  816.3074
 348  743.893
 349  735.5467
 350  658.1304
 351  704.4893
 352  717.6521
 353  771.2949
 354  788.7382
 355  704.9086
 356  668.8357
 357  745.3339
 358  732.583
 359  715.4893
 360  692.434
 361  742.3361
 362  825.7493
 363  785.4756
 364  780.7788
 365  772.5234
 366  838.5599
 367  807.7185
 368  804.4595
 369  811.685
 370  728.3698
 371  715.4503
 372  663.6429
 373  680.6057
 374  703.9644
 375  729.3014
 376  704.0703
 377  709.1168
 378  766.915
 379  808.5948
 380  785.5945
 381  748.3569
 382  751.4414
 383  708.9625
 384  765.5115
 385  804.8479
 386  818.7263
 387  791.2157
 388  705.5546
 389  845.0093
 390  865.0216
 391  870.7282
 392  893.1072
 393  923.346
 394  830.7899
 395  800.64
 396  670.6917
 397  630.1522
 398  687.14
 399  767.3214
 400  762.8772
 401  753.5476
 402  841.7565
 403  719.0723
 404  707.1055
 405  660.2097
 406  704.9622
 407  661.8264
 408  503.9977
 409  567.554
 410  714.7225
 411  690.7024
 412  706.5955
 413  628.9526
 414  587.3148
 415  599.6171
 416  602.2292
 417  699.9306
 418  584.7175
 419  539.3126
 420  602.9992
 421  581.13
 422  537.6565
 423  666.3585
 424  666.3851
 425  696.3721
 426  641.2961
 427  600.0834
 428  696.8945
 429  717.0023
 430  756.8335
 431  716.7817
 432  688.7198
 433  579.1128
 434  634.2231
 435  729.0704
 436  678.9664
 437  685.7281
 438  691.2808
 439  703.9414
 440  592.8571
 441  592.1194
 442  659.8158
 443  717.4485
 444  702.8548
 445  705.7988
 446  843.6101
 447  858.673
 448  740.4267
 449  640.6426
 450  660.2374
 451  604.1975
 452  722.8851
 453  850.5287
 454  832.6194
 455  765.6047
 456  735.6284
 457  787.0635
 458  834.8397
 459  799.1787
 460  746.21
 461  734.2742
 462  864.1306
 463  756.0102
 464  699.4659
 465  691.1898
 466  767.7797
 467  785.8342
 468  695.3452
 469  683.563
 470  681.918
 471  782.0496
 472  727.3229
 473  632.8762
 474  568.4747
 475  565.7689
 476  719.1979
 477  706.3215
 478  593.4667
 479  618.5912
 480  621.2615
 481  668.6191
 482  706.6455
 483  738.5507
 484  650.5343
 485  619.8917
 486  716.7189
 487  691.8531
 488  611.0513
 489  571.8838
 490  561.5441
 491  580.807
 492  661.6686
 493  648.4795
 494  599.2921
 495  558.75
 496  647.3571
 497  678.1467
 498  587.7682
 499  453.4757
 500  417.9974
 501  543.9368
 502  531.4777
 503  593.8242
 504  705.041
 505  752.381
 506  674.465
 507  675.2746
 508  679.4594
 509  560.7247
 510  510.5646
 511  599.1406
