# Input file       =  1185765225.132344_cleaned.dat
# Candidate        =  PSR_0332+5434
# Telescope        =  AR
# Epoch_topo       =  57968.134770050281
# Epoch_bary       =  N/A
# T_sample         =  0.002
# Data Folded      =  7340032
# Data Avg         =  0.0260781412258179
# Data StdDev      =  2.49859469594942 
# Profile Bins     =  1024
# Profile Avg      =  187.001194530186 
# Profile StdDev   =  211.541126164071 
# Reduced chi-sqr  =  1.644
# Prob(Noise)      <  7.03e-35   (~12.3 sigma)
# P_topo (ms)      =  714.46860448507   +/- 0.00017
# P'_topo (s/s)    =  -0                +/- 8.97e-11
# P''_topo (s/s^2) =  0                 +/- 3.96e-14
# P_bary (ms)      =  N/A
# P'_bary (s/s)    =  N/A
# P''_bary (s/s^2) =  N/A
# P_orb (s)        =  N/A
# asin(i)/c (s)    =  N/A
# eccentricity     =  N/A
# w (rad)          =  N/A
# T_peri           =  N/A
######################################################
   0  385.0563
   1  317.863
   2  290.9127
   3  314.5358
   4  324.1366
   5  357.3524
   6  257.1573
   7  208.7699
   8  177.3648
   9  277.6483
  10  312.1971
  11  356.5226
  12  266.6668
  13  366.1321
  14  339.0775
  15  380.3158
  16  273.8055
  17  300.6951
  18  214.8315
  19  148.9969
  20  215.5572
  21  274.7553
  22  254.5844
  23  229.5274
  24  198.3632
  25  236.3521
  26  140.4682
  27  152.0029
  28  188.5053
  29  142.3235
  30  127.0262
  31  80.0925
  32  168.1319
  33  218.8052
  34  242.4644
  35  253.9503
  36  203.7041
  37  375.2311
  38  317.027
  39  265.3201
  40  203.9641
  41  345.2831
  42  254.2755
  43  126.2139
  44  28.32686
  45  83.95134
  46  78.83544
  47  38.49561
  48  93.76546
  49  89.3111
  50  91.71748
  51  2.025527
  52  6.563822
  53  200.0993
  54  287.4707
  55  326.2178
  56  276.4373
  57  212.3225
  58  185.1885
  59  164.0083
  60  148.7983
  61  196.2338
  62  187.7831
  63  348.8368
  64  359.219
  65  375.9236
  66  320.6655
  67  346.1969
  68  217.3777
  69  183.0573
  70  140.9073
  71  205.3336
  72  224.3291
  73  309.0277
  74  525.9945
  75  549.4054
  76  489.0399
  77  423.4343
  78  355.3731
  79  304.6589
  80  137.56
  81  157.3315
  82  101.0192
  83  100.1562
  84  216.4667
  85  395.5591
  86  284.0946
  87  73.46653
  88  86.19555
  89  370.7762
  90  447.1988
  91  356.8008
  92  143.6338
  93  -76.17067
  94  -162.2513
  95  -52.85581
  96  70.98516
  97  -4.373281
  98  41.23975
  99  56.8428
 100  130.7539
 101  69.21497
 102  94.87418
 103  102.3277
 104  95.68614
 105  160.6429
 106  62.68469
 107  -28.47822
 108  -93.52441
 109  97.3427
 110  164.9245
 111  192.0067
 112  176.8234
 113  207.9665
 114  307.9799
 115  283.4326
 116  190.6719
 117  67.86897
 118  -36.30303
 119  -57.5381
 120  19.35581
 121  205.4991
 122  337.5933
 123  397.7866
 124  320.0655
 125  208.0167
 126  116.1817
 127  129.9601
 128  207.7687
 129  222.5518
 130  162.1071
 131  137.403
 132  68.23281
 133  93.316
 134  45.76875
 135  23.02848
 136  -46.38354
 137  47.99923
 138  133.196
 139  216.4789
 140  55.77886
 141  -15.5905
 142  15.4423
 143  64.28709
 144  106.8163
 145  12.81497
 146  194.828
 147  203.3553
 148  214.1497
 149  133.2587
 150  219.2926
 151  319.0321
 152  289.6534
 153  326.2348
 154  325.7396
 155  274.2688
 156  160.6959
 157  136.5801
 158  120.2911
 159  35.34136
 160  13.62799
 161  -5.596076
 162  -13.26535
 163  -42.51249
 164  -4.486766
 165  -35.959
 166  -67.57819
 167  -104.9863
 168  -35.83019
 169  86.03614
 170  102.3547
 171  121.0941
 172  38.984
 173  26.70627
 174  -21.24418
 175  -10.82282
 176  78.8409
 177  138.8871
 178  195.8878
 179  194.7522
 180  232.5589
 181  181.5165
 182  52.41987
 183  -93.45846
 184  -21.55478
 185  25.83955
 186  138.4117
 187  50.04647
 188  65.97612
 189  88.01104
 190  259.1751
 191  214.0655
 192  139.3697
 193  15.80499
 194  34.53323
 195  7.130224
 196  108.6891
 197  211.0368
 198  244.0841
 199  158.9853
 200  22.88492
 201  -51.25392
 202  17.79424
 203  50.85533
 204  -2.966071
 205  -3.945951
 206  100.6783
 207  305.3163
 208  244.498
 209  181.7669
 210  95.13024
 211  213.5686
 212  264.0622
 213  251.3887
 214  146.1987
 215  99.37119
 216  103.2774
 217  266.7924
 218  324.4438
 219  328.3969
 220  258.0217
 221  191.6981
 222  143.7737
 223  119.5535
 224  201.7852
 225  295.148
 226  369.7539
 227  332.3595
 228  254.0727
 229  188.1383
 230  60.9333
 231  93.32008
 232  40.64303
 233  122.9638
 234  44.97147
 235  66.9071
 236  140.3759
 237  222.7203
 238  245.2037
 239  145.8129
 240  122.8771
 241  118.7998
 242  170.3728
 243  111.6176
 244  61.56312
 245  111.721
 246  164.1817
 247  148.5605
 248  119.488
 249  117.6455
 250  160.0419
 251  176.9145
 252  277.7787
 253  256.6906
 254  292.9167
 255  212.4196
 256  172.0265
 257  -18.53189
 258  -48.63595
 259  -47.14904
 260  6.18237
 261  -49.25998
 262  -12.354
 263  185.2938
 264  261.6644
 265  213.3469
 266  101.8432
 267  119.3175
 268  113.7489
 269  88.27228
 270  99.88493
 271  142.7088
 272  127.6368
 273  185.0181
 274  280.2377
 275  298.5911
 276  166.8446
 277  71.13155
 278  78.83588
 279  112.5226
 280  129.9847
 281  220.4555
 282  259.4345
 283  242.0473
 284  127.3704
 285  41.72308
 286  57.81124
 287  71.36625
 288  152.7753
 289  144.4269
 290  167.2316
 291  123.2843
 292  143.796
 293  189.335
 294  110.757
 295  -12.96748
 296  -102.3553
 297  96.32685
 298  139.4114
 299  71.57342
 300  -105.0684
 301  7.463463
 302  193.5055
 303  330.9559
 304  381.8298
 305  362.5931
 306  261.8395
 307  116.5913
 308  -16.84771
 309  -24.25769
 310  60.3504
 311  89.69308
 312  130.7837
 313  143.0588
 314  111.1924
 315  67.63182
 316  122.899
 317  246.2797
 318  247.7803
 319  191.462
 320  225.7098
 321  132.963
 322  100.0123
 323  110.4116
 324  103.6558
 325  111.7384
 326  184.7921
 327  212.4525
 328  255.2191
 329  196.5011
 330  209.2358
 331  259.8617
 332  354.0968
 333  386.6614
 334  306.9373
 335  210.3352
 336  261.7309
 337  373.6433
 338  455.636
 339  290.5866
 340  152.6935
 341  232.0488
 342  349.1908
 343  301.1025
 344  152.7609
 345  217.5661
 346  294.3197
 347  261.6328
 348  80.37553
 349  32.48595
 350  21.52365
 351  113.3596
 352  207.3349
 353  290.0266
 354  294.4672
 355  336.131
 356  433.0839
 357  375.7278
 358  272.9769
 359  167.9851
 360  245.5238
 361  256.8388
 362  220.3526
 363  74.97184
 364  14.00132
 365  18.14584
 366  82.01778
 367  106.552
 368  311.1601
 369  325.1177
 370  306.1609
 371  220.386
 372  214.7011
 373  111.6429
 374  -3.755237
 375  46.38983
 376  117.4233
 377  100.1038
 378  -108.9766
 379  -94.52352
 380  -0.3756147
 381  141.7279
 382  128.5565
 383  153.5729
 384  176.4753
 385  166.2681
 386  194.9167
 387  109.4924
 388  95.91599
 389  86.53005
 390  199.8609
 391  220.1991
 392  252.7056
 393  292.7305
 394  216.601
 395  72.33273
 396  51.06359
 397  68.61317
 398  131.8886
 399  193.3428
 400  147.0885
 401  132.9665
 402  109.9379
 403  287.3426
 404  331.9077
 405  297.5073
 406  210.2309
 407  299.6931
 408  351.746
 409  354.9099
 410  220.5101
 411  119.4752
 412  110.8901
 413  207.4588
 414  229.443
 415  131.3076
 416  144.7887
 417  86.85515
 418  168.298
 419  219.2846
 420  242.9676
 421  194.4529
 422  95.65494
 423  123.0472
 424  95.58907
 425  117.5831
 426  63.12112
 427  49.33763
 428  16.6211
 429  5.572524
 430  44.68491
 431  26.54977
 432  66.64697
 433  65.16205
 434  178.1983
 435  316.1292
 436  338.7761
 437  245.0507
 438  249.3542
 439  294.5988
 440  276.4917
 441  119.8877
 442  107.1055
 443  47.54663
 444  57.92971
 445  25.30375
 446  71.654
 447  53.55588
 448  56.12795
 449  94.7626
 450  210.4449
 451  212.262
 452  257.0175
 453  148.2533
 454  136.4157
 455  67.3577
 456  197.9748
 457  163.1993
 458  159.9417
 459  128.1766
 460  153.4141
 461  128.5635
 462  103.2422
 463  173.7014
 464  196.3878
 465  161.9662
 466  152.2449
 467  138.2949
 468  162.3113
 469  169.0136
 470  199.9392
 471  106.6003
 472  216.8235
 473  204.0444
 474  209.6393
 475  153.6771
 476  119.2173
 477  17.7366
 478  -52.96217
 479  -58.98862
 480  -37.49308
 481  -21.84942
 482  78.92532
 483  177.4368
 484  254.1268
 485  242.0491
 486  324.3731
 487  275.1971
 488  269.8437
 489  241.2434
 490  332.3549
 491  404.8854
 492  256.0769
 493  250.8814
 494  179.7563
 495  445.4334
 496  379.2261
 497  381.5511
 498  254.5627
 499  225.6395
 500  182.1202
 501  -14.06145
 502  42.11804
 503  174.8584
 504  327.1807
 505  248.4661
 506  263.7466
 507  362.525
 508  324.4484
 509  215.2243
 510  154.7089
 511  335.6526
 512  235.2795
 513  8.62616
 514  -50.12346
 515  151.9977
 516  274.8981
 517  206.0136
 518  232.8375
 519  266.098
 520  269.7726
 521  210.3685
 522  209.4637
 523  161.9352
 524  108.5878
 525  87.07354
 526  89.32602
 527  18.52583
 528  23.96718
 529  91.1468
 530  192.1332
 531  133.165
 532  52.46654
 533  27.14036
 534  52.94091
 535  102.3611
 536  188.2968
 537  158.6807
 538  66.44425
 539  -62.31602
 540  -60.17046
 541  32.86862
 542  262.6936
 543  378.6183
 544  448.3726
 545  374.5119
 546  366.2224
 547  319.3125
 548  177.6452
 549  170.6444
 550  176.5667
 551  240.7661
 552  193.8752
 553  207.9444
 554  246.9486
 555  343.7593
 556  449.0481
 557  336.2543
 558  214.706
 559  44.62928
 560  48.52986
 561  -76.92454
 562  -30.2571
 563  57.84183
 564  111.5611
 565  116.7167
 566  146.4914
 567  256.7011
 568  213.7338
 569  151.0735
 570  127.2408
 571  136.4617
 572  85.22972
 573  174.9907
 574  298.7658
 575  324.5256
 576  328.9261
 577  358.2125
 578  503.8889
 579  396.6119
 580  307.6383
 581  166.5362
 582  116.1585
 583  93.78952
 584  57.07176
 585  112.9046
 586  18.62654
 587  57.5154
 588  73.73756
 589  138.6503
 590  171.2718
 591  154.3846
 592  136.5067
 593  74.1944
 594  31.30073
 595  111.7018
 596  181.6411
 597  155.6034
 598  138.6397
 599  191.8391
 600  265.256
 601  225.1381
 602  177.0487
 603  165.3778
 604  134.6721
 605  207.4554
 606  218.7227
 607  270.6859
 608  225.7567
 609  284.8029
 610  249.8325
 611  320.9335
 612  405.3318
 613  305.6259
 614  228.9602
 615  214.3345
 616  374.9596
 617  256.9499
 618  131.8735
 619  108.8519
 620  156.5719
 621  101.4887
 622  87.02543
 623  134.6821
 624  105.7246
 625  123.7642
 626  157.7984
 627  224.2377
 628  161.2652
 629  161.9509
 630  315.2919
 631  341.2571
 632  288.3175
 633  192.4943
 634  252.25
 635  295.7242
 636  441.0934
 637  457.4701
 638  541.4216
 639  453.1376
 640  408.0653
 641  451.5067
 642  556.0266
 643  572.2776
 644  530.7578
 645  600.4297
 646  774.0489
 647  963.5384
 648  1071.752
 649  1202.263
 650  1164.812
 651  1187.816
 652  1146.348
 653  1185.346
 654  1050.941
 655  817.4672
 656  679.1508
 657  615.5216
 658  500.2932
 659  381.6219
 660  373.8066
 661  329.6048
 662  218.7955
 663  79.41109
 664  153.6892
 665  127.3994
 666  59.06991
 667  56.00296
 668  216.3142
 669  321.027
 670  161.6531
 671  147.9602
 672  221.0823
 673  299.0939
 674  254.9139
 675  189.1226
 676  249.4162
 677  278.6762
 678  378.2202
 679  442.9417
 680  494.5939
 681  351.5117
 682  260.8214
 683  299.9661
 684  421.1786
 685  491.4753
 686  385.2299
 687  337.9414
 688  225.4747
 689  324.1726
 690  340.5187
 691  293.9091
 692  228.1814
 693  201.509
 694  345.9051
 695  341.9252
 696  375.7838
 697  315.5084
 698  273.3181
 699  161.2289
 700  112.4607
 701  192.0206
 702  162.7619
 703  199.9379
 704  299.2994
 705  400.2454
 706  370.7624
 707  252.3384
 708  202.5132
 709  246.6723
 710  244.973
 711  228.4084
 712  222.7762
 713  221.4725
 714  231.8791
 715  178.7321
 716  178.6885
 717  238.0997
 718  400.5423
 719  383.7621
 720  348.7907
 721  200.4967
 722  197.1975
 723  130.6283
 724  205.3837
 725  280.6349
 726  304.7433
 727  248.3688
 728  241.7689
 729  274.3631
 730  219.2689
 731  187.7706
 732  212.9318
 733  169.8428
 734  72.48399
 735  72.26186
 736  111.2249
 737  120.9327
 738  180.7206
 739  145.6781
 740  128.067
 741  97.69999
 742  179.9328
 743  183.1029
 744  148.3508
 745  134.8047
 746  78.59739
 747  130.2463
 748  123.8198
 749  260.1134
 750  320.0437
 751  538.6038
 752  565.5814
 753  515.4558
 754  366.2138
 755  274.687
 756  281.6988
 757  305.8739
 758  171.0629
 759  77.17046
 760  49.87603
 761  239.3662
 762  207.0642
 763  194.7652
 764  116.9449
 765  212.8256
 766  249.823
 767  271.502
 768  328.3556
 769  288.647
 770  230.3833
 771  116.9668
 772  190.1353
 773  272.5266
 774  233.9445
 775  208.0643
 776  271.2715
 777  381.5018
 778  419.0625
 779  294.7669
 780  252.4194
 781  244.1128
 782  273.4394
 783  240.4854
 784  160.5629
 785  163.118
 786  148.1159
 787  189.8129
 788  145.401
 789  129.2578
 790  87.54407
 791  139.4148
 792  130.556
 793  119.5113
 794  50.64181
 795  93.25384
 796  137.1871
 797  196.4416
 798  114.1545
 799  118.9484
 800  73.57828
 801  112.5498
 802  114.3423
 803  155.6971
 804  173.6133
 805  120.696
 806  138.0949
 807  126.75
 808  101.82
 809  62.77666
 810  83.19892
 811  146.578
 812  164.7574
 813  205.2539
 814  195.17
 815  191.9561
 816  133.0565
 817  31.34893
 818  18.70515
 819  93.34741
 820  158.4875
 821  156.3777
 822  195.3351
 823  303.7609
 824  297.9189
 825  321.6903
 826  250.7812
 827  258.9646
 828  212.3544
 829  174.9149
 830  78.49851
 831  24.3506
 832  -4.288811
 833  62.46149
 834  202.6799
 835  276.4798
 836  229.0161
 837  117.1948
 838  -5.723184
 839  -71.31792
 840  -61.6857
 841  30.41264
 842  47.71878
 843  21.38216
 844  43.23626
 845  256.295
 846  283.8444
 847  121.8564
 848  -35.96827
 849  54.53877
 850  207.8808
 851  243.727
 852  245.0486
 853  171.7492
 854  182.6221
 855  167.6219
 856  229.4508
 857  228.8863
 858  314.5286
 859  361.0076
 860  182.6768
 861  152.5514
 862  85.62518
 863  211.1271
 864  191.8019
 865  167.717
 866  98.51617
 867  74.985
 868  151.1104
 869  168.9295
 870  132.1323
 871  85.06142
 872  64.37812
 873  33.79586
 874  89.3737
 875  172.6053
 876  312.8025
 877  314.0578
 878  228.357
 879  184.9102
 880  148.0807
 881  68.06941
 882  -70.53865
 883  -134.6433
 884  42.53325
 885  237.3595
 886  233.6065
 887  82.55066
 888  -48.67902
 889  8.708111
 890  109.6549
 891  176.0282
 892  124.4275
 893  -27.09488
 894  -16.60047
 895  45.72646
 896  207.4186
 897  247.6428
 898  292.4275
 899  221.9636
 900  109.2354
 901  4.198567
 902  -24.62023
 903  19.77916
 904  72.76367
 905  90.58375
 906  -9.358205
 907  -86.58698
 908  -34.74297
 909  0.06471425
 910  90.03999
 911  73.10641
 912  26.17575
 913  32.33372
 914  87.88461
 915  182.1604
 916  170.2353
 917  274.8586
 918  330.7113
 919  397.858
 920  330.5927
 921  312.6683
 922  227.9558
 923  287.909
 924  311.379
 925  286.2607
 926  154.1568
 927  56.21038
 928  136.2577
 929  267.1788
 930  286.2368
 931  257.1348
 932  143.4613
 933  48.30403
 934  -23.22564
 935  63.90085
 936  191.9361
 937  291.61
 938  332.105
 939  400.6631
 940  315.0294
 941  134.565
 942  25.30605
 943  165.6397
 944  274.6959
 945  287.0614
 946  168.4518
 947  126.2654
 948  151.7451
 949  175.4413
 950  208.175
 951  79.43771
 952  -33.83968
 953  -53.39463
 954  14.22182
 955  79.44566
 956  75.96135
 957  163.9489
 958  171.3826
 959  220.8885
 960  168.8318
 961  79.03441
 962  -34.43697
 963  1.681014
 964  125.7084
 965  177.2393
 966  191.3473
 967  205.1045
 968  270.7491
 969  269.336
 970  291.0747
 971  212.8664
 972  131.6772
 973  84.52944
 974  140.5644
 975  161.0751
 976  145.9602
 977  60.04997
 978  55.08482
 979  62.88996
 980  177.5224
 981  216.3381
 982  215.7408
 983  238.4566
 984  240.0376
 985  233.3064
 986  269.0599
 987  274.7269
 988  302.6769
 989  146.9207
 990  115.4525
 991  34.30389
 992  12.28774
 993  71.77158
 994  222.028
 995  283.6143
 996  81.59217
 997  -49.78113
 998  45.73446
 999  143.533
1000  157.8144
1001  158.8654
1002  156.007
1003  179.4701
1004  112.3498
1005  113.4014
1006  102.1851
1007  128.4618
1008  272.9463
1009  378.6592
1010  414.8352
1011  384.5167
1012  314.8513
1013  375.7729
1014  226.3076
1015  183.3829
1016  29.2361
1017  92.91934
1018  128.5341
1019  106.4735
1020  70.60307
1021  17.73377
1022  188.4478
1023  282.4326
