# Input file       =  1185578274.108979_cleaned.dat
# Candidate        =  PSR_0332+5434
# Telescope        =  AR
# Epoch_topo       =  57965.970985057626
# Epoch_bary       =  N/A
# T_sample         =  0.002
# Data Folded      =  7208960
# Data Avg         =  0.146777216357772
# Data StdDev      =  4.74019270899246 
# Profile Bins     =  512
# Profile Avg      =  2066.70955972939 
# Profile StdDev   =  562.467359951549 
# Reduced chi-sqr  =  0.513
# Prob(Noise)      <  1   (~0.0 sigma)
# P_topo (ms)      =  714.469492963275  +/- 9.39e-05
# P'_topo (s/s)    =  -0                +/- 5.04e-11
# P''_topo (s/s^2) =  0                 +/- 2.27e-14
# P_bary (ms)      =  N/A
# P'_bary (s/s)    =  N/A
# P''_bary (s/s^2) =  N/A
# P_orb (s)        =  N/A
# asin(i)/c (s)    =  N/A
# eccentricity     =  N/A
# w (rad)          =  N/A
# T_peri           =  N/A
######################################################
   0  1913.871
   1  2124.725
   2  2181.293
   3  1767.156
   4  1974.778
   5  2165.788
   6  2533.799
   7  2406.017
   8  1878.026
   9  1593.403
  10  1767.377
  11  2238.636
  12  1946.934
  13  2017.242
  14  2398.665
  15  2336.264
  16  2095.992
  17  1644.975
  18  1898.959
  19  1840.744
  20  2049.835
  21  2003.534
  22  2005.353
  23  2617.839
  24  2109.615
  25  2183.394
  26  1926.525
  27  2061.043
  28  1711.085
  29  1800.458
  30  1856.443
  31  1832.369
  32  1972.276
  33  1957.493
  34  2601.363
  35  2120.637
  36  1979.253
  37  2142.84
  38  2032.426
  39  1660.972
  40  1772.909
  41  1678.165
  42  2079.935
  43  2041.415
  44  1968.04
  45  2003.554
  46  1651.505
  47  1749.839
  48  1957.329
  49  2181.566
  50  2044.719
  51  1705.928
  52  1704.393
  53  1548.531
  54  2081.957
  55  2584.362
  56  2643.807
  57  2265.118
  58  2032.299
  59  1917.296
  60  1837.786
  61  1882.956
  62  1997.228
  63  2016.007
  64  2269.243
  65  1949.214
  66  2008.864
  67  2129.453
  68  2072.236
  69  1993.017
  70  1843.475
  71  2120.585
  72  1901.817
  73  2204.238
  74  2063.769
  75  2012.902
  76  2218.317
  77  2124.359
  78  2084.925
  79  1909.968
  80  2231.772
  81  2556.315
  82  2071.441
  83  1697.007
  84  1454.731
  85  1687.242
  86  1987.818
  87  2218.221
  88  2712.818
  89  2527.261
  90  2680.72
  91  2328.907
  92  2036.573
  93  1827.24
  94  1592.28
  95  1891.865
  96  1910.378
  97  1898.103
  98  2340.725
  99  2181.345
 100  2188.459
 101  1964.891
 102  1722.799
 103  1884.182
 104  1680.27
 105  2156.053
 106  2329.887
 107  2664.775
 108  2461.734
 109  2067.58
 110  2066.514
 111  1694.706
 112  1679.533
 113  1866.767
 114  2229.225
 115  1962.953
 116  2387.466
 117  2233.757
 118  1843.846
 119  1689.273
 120  2160.03
 121  2462.18
 122  2400.797
 123  2393.142
 124  2133.412
 125  2007.564
 126  1933.049
 127  1968.122
 128  2052.232
 129  2346.751
 130  2229.941
 131  2368.401
 132  2173.974
 133  2012.309
 134  1643.052
 135  1303.528
 136  1896.613
 137  2477.733
 138  2538.217
 139  2304.172
 140  2158.202
 141  2310.854
 142  2305.305
 143  2054.038
 144  2021.276
 145  2293.958
 146  2165.787
 147  1842.735
 148  2024.517
 149  1644.687
 150  2114.17
 151  2319.129
 152  1944.589
 153  1892.011
 154  2106.046
 155  2481.92
 156  2346.612
 157  2069.852
 158  1885.12
 159  1539.886
 160  1632.773
 161  2111.401
 162  2317.938
 163  2451.349
 164  2318.786
 165  2236.976
 166  2099.465
 167  1777.896
 168  1699.76
 169  1771.731
 170  2142.269
 171  2142.736
 172  2524.312
 173  2526.204
 174  2334.323
 175  1967.696
 176  1705.312
 177  1528.328
 178  1584.224
 179  2058.096
 180  1922.547
 181  2168.259
 182  2286.241
 183  1642.374
 184  2057.18
 185  2339.814
 186  2131.715
 187  2085.597
 188  2003.917
 189  2085.899
 190  1847.441
 191  1895.417
 192  1928.718
 193  1913.925
 194  1798.403
 195  1968.685
 196  2274.604
 197  2303.731
 198  2385.911
 199  1985.274
 200  2016.481
 201  1727.292
 202  1479.212
 203  1902.411
 204  1925.398
 205  2265.598
 206  2150.765
 207  2046.127
 208  1889.102
 209  1668.402
 210  1830.309
 211  1975.765
 212  2061.64
 213  2456.953
 214  2504.284
 215  2183.934
 216  1816.64
 217  1635.491
 218  1969.673
 219  2097.076
 220  2245.306
 221  1973.54
 222  1815.653
 223  2101.969
 224  2152.318
 225  2234.151
 226  1860.327
 227  1773.401
 228  2358.37
 229  2093.443
 230  1951.906
 231  1948.894
 232  2090.161
 233  1792.849
 234  1839.552
 235  2170.945
 236  1782.164
 237  2135.55
 238  2308.6
 239  2310.548
 240  2164.048
 241  2197.405
 242  2150.942
 243  1537.418
 244  1740.021
 245  1874.853
 246  2097.485
 247  1827.507
 248  2211.607
 249  2479.403
 250  2189.727
 251  1762.798
 252  1738.95
 253  1632.357
 254  1939.967
 255  2092.116
 256  2143.419
 257  2101.33
 258  2312.828
 259  2312.441
 260  2103.468
 261  2024.544
 262  1792.425
 263  1852.817
 264  1824.074
 265  1854.759
 266  2167.718
 267  2056.839
 268  2154.002
 269  2422.854
 270  2488.053
 271  2297.255
 272  2221.301
 273  1901.828
 274  1455.278
 275  1345.505
 276  1760.479
 277  2168.787
 278  2366.713
 279  1765.125
 280  1831.39
 281  2076.865
 282  2087.367
 283  1582.843
 284  1606.234
 285  1812.129
 286  2007.742
 287  2292.557
 288  2399.107
 289  2404.893
 290  2300.898
 291  1862.927
 292  2165.103
 293  1581.225
 294  2063.708
 295  2187.299
 296  1896.851
 297  2006.599
 298  1851.798
 299  1739.45
 300  1730.635
 301  1790.949
 302  2141.539
 303  2312.277
 304  2244.912
 305  2480.572
 306  2223.379
 307  1731.393
 308  2054.782
 309  1979.553
 310  1600.23
 311  1965.552
 312  1977.606
 313  2216.407
 314  2258.216
 315  2019.55
 316  2248.039
 317  2045.893
 318  1898.976
 319  2015.531
 320  2068.833
 321  2576.184
 322  2609.263
 323  2391.962
 324  2454.217
 325  2409.531
 326  1997.167
 327  2081.502
 328  2296.076
 329  2386.38
 330  2303.502
 331  2366.725
 332  2302.249
 333  1952.578
 334  2145.845
 335  2467.8
 336  2459.914
 337  2137.274
 338  2251.225
 339  2287.84
 340  2361.411
 341  2182.42
 342  2169.377
 343  2327.629
 344  2191.609
 345  2290.873
 346  2095.856
 347  2209.192
 348  1892.339
 349  1883.321
 350  2366.772
 351  2072.407
 352  2282.562
 353  2442.483
 354  2520.998
 355  2245.308
 356  1920.898
 357  2182.515
 358  1731.975
 359  1800.812
 360  1934.525
 361  2373.264
 362  2237.745
 363  2092.073
 364  2134.421
 365  1945.705
 366  2194.558
 367  2173.411
 368  2184.492
 369  2297.56
 370  2118.029
 371  1784.48
 372  1907.483
 373  1453.193
 374  1776.31
 375  1687.254
 376  1919.053
 377  2062.936
 378  1817.182
 379  1645.945
 380  2095.315
 381  2236.207
 382  2140.826
 383  1611.99
 384  1691.769
 385  1895.339
 386  2068.04
 387  2083.148
 388  2230.434
 389  2254.174
 390  2342.297
 391  2119.001
 392  1763.434
 393  1784.66
 394  1960.181
 395  1928.894
 396  2224.859
 397  2230.693
 398  2310.382
 399  2032.843
 400  1801.912
 401  1904.884
 402  2112.791
 403  2398.25
 404  2159.31
 405  2088.702
 406  2173.17
 407  2130.542
 408  2088.722
 409  2099.471
 410  2262.995
 411  2046.037
 412  2372.434
 413  2443.034
 414  2259.026
 415  1982.937
 416  2057.809
 417  2206.253
 418  2269.699
 419  2427.986
 420  2525.224
 421  2168.579
 422  1942.736
 423  2085.882
 424  1999.819
 425  1649.91
 426  1896.036
 427  2127.323
 428  2259.161
 429  2193.295
 430  2436.03
 431  2541.192
 432  2673.606
 433  3082.812
 434  3496.342
 435  3761.007
 436  3527.032
 437  3037.626
 438  2343.335
 439  2332.052
 440  2334.741
 441  2159.101
 442  2085.607
 443  2035.124
 444  1985.268
 445  1682.551
 446  1786.961
 447  1724.573
 448  2226.115
 449  2375.67
 450  2227.106
 451  2106.484
 452  2463.77
 453  2495.463
 454  2160.492
 455  1653.456
 456  1704.14
 457  1449.224
 458  1621.861
 459  1687.596
 460  1490.623
 461  2183.943
 462  1753.016
 463  2125.52
 464  2334.848
 465  2090.556
 466  2015.86
 467  1542.905
 468  1908.244
 469  1440.19
 470  1720.649
 471  2275.265
 472  2492.112
 473  2059.968
 474  2096.441
 475  1863.46
 476  2041.001
 477  2127.403
 478  2170.221
 479  1982.166
 480  1892.426
 481  1696.38
 482  1855.657
 483  1969.761
 484  1970.043
 485  2201.817
 486  2221.481
 487  1689.864
 488  1600.405
 489  1691.01
 490  1639.483
 491  1629.045
 492  1972.213
 493  2388.764
 494  2385.304
 495  2134.847
 496  2022.756
 497  1994.445
 498  1576.132
 499  1530.851
 500  1861.725
 501  2074.037
 502  2503.043
 503  2336.319
 504  2246.558
 505  2157.743
 506  2351.308
 507  2004.456
 508  1766.16
 509  1874.061
 510  1823.776
 511  1929.225
