# Input file       =  1185922931.11324_cleaned.dat
# Candidate        =  PSR_0332+5434
# Telescope        =  AR
# Epoch_topo       =  57969.960070755093
# Epoch_bary       =  N/A
# T_sample         =  0.002
# Data Folded      =  7208960
# Data Avg         =  0.141734984873753
# Data StdDev      =  4.90431643479535 
# Profile Bins     =  1024
# Profile Avg      =  997.869714548688 
# Profile StdDev   =  411.495237683172 
# Reduced chi-sqr  =  0.445
# Prob(Noise)      <  1   (~0.0 sigma)
# P_topo (ms)      =  714.467885083095  +/- 0.000144
# P'_topo (s/s)    =  -0                +/- 7.73e-11
# P''_topo (s/s^2) =  0                 +/- 3.47e-14
# P_bary (ms)      =  N/A
# P'_bary (s/s)    =  N/A
# P''_bary (s/s^2) =  N/A
# P_orb (s)        =  N/A
# asin(i)/c (s)    =  N/A
# eccentricity     =  N/A
# w (rad)          =  N/A
# T_peri           =  N/A
######################################################
   0  1108.844
   1  995.5605
   2  1056.574
   3  959.7753
   4  1042.14
   5  840.0129
   6  841.7939
   7  925.9087
   8  1106.03
   9  1126.373
  10  1099.786
  11  1111.883
  12  1023.939
  13  1047.354
  14  1004.375
  15  907.1078
  16  893.6447
  17  952.0645
  18  1106.668
  19  1128.933
  20  1165.656
  21  1190.252
  22  953.5701
  23  837.613
  24  901.0502
  25  1046.65
  26  1115.54
  27  1048.72
  28  1038.803
  29  924.9748
  30  917.0458
  31  1056.529
  32  1062.282
  33  928.3183
  34  786.1373
  35  956.7609
  36  1082.49
  37  1159.469
  38  1140.204
  39  1111.312
  40  972.8585
  41  1012.683
  42  993.9767
  43  962.1641
  44  886.8624
  45  1031.806
  46  1112.905
  47  1153.597
  48  965.9512
  49  990.7915
  50  945.1767
  51  961.5608
  52  810.8668
  53  910.504
  54  1055.272
  55  1149.621
  56  1104.683
  57  971.2984
  58  1107.408
  59  1266.713
  60  1476.945
  61  1409.057
  62  1317.716
  63  1211.272
  64  1129.568
  65  991.7939
  66  968.3726
  67  1141.57
  68  1105.772
  69  937.9186
  70  770.34
  71  667.4271
  72  797.4069
  73  747.0259
  74  884.9202
  75  882.27
  76  968.5092
  77  893.5107
  78  997.5595
  79  1139.841
  80  1196.214
  81  1079.845
  82  1089.362
  83  1153.193
  84  1125.24
  85  1040.544
  86  965.6038
  87  929.3146
  88  863.6834
  89  966.3417
  90  1006.323
  91  1028.115
  92  1002.272
  93  1122.7
  94  1015.99
  95  911.3436
  96  938.0902
  97  1209.733
  98  1343.573
  99  1156.012
 100  1051.387
 101  1069.369
 102  1110.083
 103  978.2476
 104  707.2147
 105  700.486
 106  816.8824
 107  981.8215
 108  998.2495
 109  1099.83
 110  1220.718
 111  1293.474
 112  1295.416
 113  1203.903
 114  1053.096
 115  998.1361
 116  1068.585
 117  1020.983
 118  901.7388
 119  855.2842
 120  990.8198
 121  925.5836
 122  804.9954
 123  821.0644
 124  1007.33
 125  1095.915
 126  1109.642
 127  1128.724
 128  1165.528
 129  1149.669
 130  1183.163
 131  1131.772
 132  1052.954
 133  1025.904
 134  1009.654
 135  975.1212
 136  907.4752
 137  1105.538
 138  1161.902
 139  1090.703
 140  957.7927
 141  944.1694
 142  891.4382
 143  892.0861
 144  938.1235
 145  865.3063
 146  856.3226
 147  937.6125
 148  1184.745
 149  1099.097
 150  1013.261
 151  1069.802
 152  1124.551
 153  1148.213
 154  1089.923
 155  1241.925
 156  1073.31
 157  946.8537
 158  794.0978
 159  922.8787
 160  995.5236
 161  989.0648
 162  1019.477
 163  1020.758
 164  1047.837
 165  957.0458
 166  979.639
 167  881.9775
 168  957.8166
 169  918.5066
 170  906.1013
 171  833.2578
 172  993.9135
 173  1068.889
 174  1157.376
 175  1048.529
 176  953.9763
 177  837.1691
 178  928.7875
 179  956.6932
 180  886.4724
 181  761.6244
 182  845.9972
 183  1000.057
 184  1214.289
 185  1295.541
 186  1295.764
 187  1228.696
 188  1210.153
 189  1199.144
 190  1031.541
 191  942.0115
 192  990.6295
 193  919.6129
 194  858.6199
 195  869.7988
 196  995.3146
 197  985.67
 198  851.0969
 199  900.3221
 200  882.9373
 201  957.1142
 202  946.0635
 203  864.6227
 204  751.929
 205  724.8766
 206  832.9344
 207  933.2443
 208  1006.139
 209  1129.179
 210  1128.632
 211  1153.371
 212  1099.123
 213  1106.311
 214  961.2208
 215  855.8798
 216  844.2656
 217  834.8617
 218  957.6371
 219  906.0253
 220  910.3961
 221  915.4737
 222  1121.406
 223  1182.851
 224  1112.089
 225  1171.711
 226  1273.635
 227  1238.112
 228  964.3442
 229  740.2782
 230  862.1674
 231  1032.982
 232  1011.635
 233  994.8677
 234  967.6892
 235  966.4344
 236  926.5953
 237  908.5737
 238  972.4978
 239  861.2947
 240  894.959
 241  810.2752
 242  819.6198
 243  802.8292
 244  946.0233
 245  934.9106
 246  984.6444
 247  828.6127
 248  738.7847
 249  761.6965
 250  891.8913
 251  1054.192
 252  1000.433
 253  1085.078
 254  1045.842
 255  1072.153
 256  1035.314
 257  1118.256
 258  1029.992
 259  948.171
 260  851.3247
 261  954.0037
 262  986.2629
 263  981.5323
 264  1021.46
 265  971.1957
 266  966.501
 267  1001.584
 268  945.0826
 269  875.3572
 270  782.7258
 271  919.5026
 272  1008.003
 273  1015.697
 274  1001.087
 275  1012.092
 276  1116.516
 277  1065.326
 278  1100.627
 279  1110.473
 280  1235.876
 281  1198.248
 282  1033.095
 283  933.7235
 284  971.1323
 285  1044.398
 286  980.0084
 287  909.8029
 288  906.8633
 289  853.5106
 290  899.6949
 291  1006.455
 292  1105.351
 293  1073.735
 294  1052.258
 295  1135.522
 296  1176.335
 297  1155.426
 298  1096.01
 299  1031.513
 300  921.0986
 301  825.592
 302  798.5657
 303  902.6139
 304  909.8314
 305  902.4873
 306  773.8395
 307  703.7946
 308  849.6526
 309  1027.034
 310  1066.374
 311  1061.783
 312  1164.758
 313  1167.076
 314  1159.531
 315  908.5037
 316  951.638
 317  929.7424
 318  997.7125
 319  894.8441
 320  744.5359
 321  738.0115
 322  877.1083
 323  896.257
 324  705.7127
 325  628.7053
 326  852.791
 327  1022.395
 328  1002.271
 329  849.4739
 330  848.4886
 331  947.3612
 332  1099.198
 333  1042.681
 334  1022.315
 335  979.0151
 336  1136.86
 337  1041.614
 338  1114.051
 339  1190.968
 340  1297.177
 341  1105.158
 342  963.845
 343  837.5231
 344  846.5533
 345  947.2249
 346  1083.227
 347  1038.893
 348  749.478
 349  659.9283
 350  786.4641
 351  907.8064
 352  898.743
 353  826.4755
 354  802.0854
 355  890.15
 356  987.0148
 357  1004.128
 358  931.3557
 359  898.0363
 360  969.3329
 361  918.838
 362  910.9171
 363  971.1589
 364  960.274
 365  966.3336
 366  821.7196
 367  820.3887
 368  663.5268
 369  705.6205
 370  831.2083
 371  806.2012
 372  730.8862
 373  770.7852
 374  918.787
 375  927.2846
 376  918.0294
 377  997.8839
 378  1041.079
 379  1025.546
 380  1104.029
 381  1098.914
 382  1091.801
 383  989.8459
 384  1001.483
 385  867.6703
 386  779.8096
 387  933.1176
 388  913.6786
 389  848.3899
 390  738.9429
 391  809.9828
 392  835.8557
 393  819.452
 394  975.0635
 395  1004.547
 396  939.9684
 397  920.2894
 398  993.1172
 399  1113.049
 400  1148.463
 401  1205.251
 402  1111.179
 403  879.1746
 404  886.4943
 405  1080.879
 406  1113.435
 407  1032.212
 408  886.4249
 409  920.6848
 410  862.59
 411  830.9875
 412  780.9036
 413  832.8738
 414  933.7835
 415  1093.93
 416  993.7486
 417  974.3405
 418  934.5984
 419  1053.917
 420  1067.785
 421  1151.473
 422  1155.918
 423  1058.969
 424  1010.916
 425  1027.487
 426  942.4625
 427  868.0392
 428  995.9796
 429  1066.586
 430  1001.586
 431  759.5548
 432  760.6699
 433  719.6094
 434  640.0876
 435  765.3941
 436  904.7657
 437  1004.178
 438  1047.265
 439  1141.589
 440  1074.123
 441  1129.78
 442  1214.813
 443  1299.057
 444  1118.535
 445  1106.902
 446  1295.176
 447  1200.976
 448  844.1897
 449  611.7029
 450  720.4396
 451  755.6516
 452  830.3202
 453  974.5419
 454  1016.572
 455  948.9575
 456  881.8478
 457  1035.158
 458  989.7462
 459  1015.651
 460  1082.071
 461  1257.776
 462  1073.382
 463  987.782
 464  947.8344
 465  1110.962
 466  1101.033
 467  1075.512
 468  986.4656
 469  1043.334
 470  1013.926
 471  942.0652
 472  850.0287
 473  905.4512
 474  1017.897
 475  1137.197
 476  1076.89
 477  951.7954
 478  997.7565
 479  1215.999
 480  1430.909
 481  1164.838
 482  972.8141
 483  885.3441
 484  1029.835
 485  1006.881
 486  972.1554
 487  869.1531
 488  880.678
 489  948.002
 490  1102.077
 491  952.3394
 492  715.3477
 493  667.7477
 494  752.8436
 495  804.5336
 496  798.1021
 497  998.7064
 498  1068.655
 499  957.8557
 500  887.6412
 501  979.5353
 502  1075.36
 503  1025.289
 504  957.6288
 505  872.8528
 506  911.6022
 507  908.7704
 508  891.5559
 509  793.6407
 510  811.0223
 511  965.0245
 512  1024.34
 513  1023.502
 514  910.2101
 515  938.7244
 516  991.9004
 517  902.5685
 518  805.8926
 519  757.2422
 520  858.3898
 521  1010.853
 522  1094.116
 523  1051.013
 524  1006.633
 525  984.9807
 526  1056.53
 527  1091.282
 528  1055.014
 529  1051.875
 530  795.9572
 531  738.9385
 532  679.7194
 533  887.7901
 534  956.9946
 535  947.4792
 536  763.7418
 537  724.1802
 538  859.5733
 539  1046.081
 540  1073.813
 541  1044.506
 542  1034.886
 543  968.9137
 544  928.1742
 545  942.5421
 546  964.22
 547  995.5491
 548  1109.788
 549  1006.909
 550  936.0545
 551  974.9814
 552  1240.344
 553  1113.089
 554  871.2333
 555  725.5627
 556  790.6968
 557  828.9851
 558  838.5825
 559  629.2089
 560  592.368
 561  713.3516
 562  932.5782
 563  1075.412
 564  1049.937
 565  1063.57
 566  1051.186
 567  979.9989
 568  977.9362
 569  888.4657
 570  948.5861
 571  889.8965
 572  874.6495
 573  847.8577
 574  877.7856
 575  855.3943
 576  946.4791
 577  836.3282
 578  897.624
 579  817.1677
 580  984.9158
 581  1003.817
 582  926.2092
 583  769.5256
 584  775.2308
 585  927.4487
 586  976.7917
 587  1012.077
 588  893.4475
 589  893.2512
 590  904.8749
 591  1095.344
 592  1046.073
 593  995.5309
 594  942.1411
 595  935.4259
 596  959.5942
 597  736.6588
 598  755.449
 599  793.6796
 600  856.3105
 601  757.8434
 602  771.9467
 603  930.5205
 604  998.6602
 605  1031.231
 606  1061.012
 607  997.4055
 608  752.4226
 609  823.926
 610  916.8807
 611  945.625
 612  918.0015
 613  1122.981
 614  1124.036
 615  959.251
 616  813.9224
 617  1070.991
 618  1121.107
 619  1031.089
 620  995.2974
 621  1089.456
 622  1186.054
 623  1155.288
 624  1007.316
 625  910.783
 626  806.0228
 627  1008.966
 628  1062.134
 629  1004.056
 630  866.3536
 631  973.4719
 632  1015.799
 633  1127.765
 634  1030.626
 635  1107.897
 636  1097.14
 637  1167.188
 638  1072.427
 639  1041.254
 640  1127.946
 641  1204.943
 642  1245.909
 643  1302.022
 644  1401.533
 645  1496.874
 646  1585.828
 647  1685.933
 648  1727.191
 649  1705.738
 650  1683.626
 651  1595.091
 652  1592.449
 653  1516.717
 654  1369.037
 655  1129.418
 656  1081.255
 657  1094.651
 658  1150.176
 659  980.5416
 660  955.4822
 661  942.7393
 662  938.191
 663  1016.324
 664  1139.491
 665  1190.383
 666  1036.096
 667  801.7974
 668  924.6199
 669  878.7348
 670  904.0822
 671  1058.563
 672  1192.501
 673  1112.663
 674  929.8636
 675  949.5543
 676  901.0435
 677  884.2891
 678  944.8495
 679  1014.407
 680  964.7392
 681  1036.084
 682  1126.069
 683  1097.96
 684  1022.047
 685  1178.364
 686  1265.242
 687  1169.135
 688  1154.829
 689  1095.413
 690  928.2403
 691  703.1042
 692  629.7007
 693  710.246
 694  828.0026
 695  1068.336
 696  1278.013
 697  1129.683
 698  893.2586
 699  789.5599
 700  985.6339
 701  1070.831
 702  1084.045
 703  971.367
 704  938.2801
 705  1042.978
 706  1164.64
 707  1110.187
 708  1045.38
 709  1008.226
 710  986.4197
 711  909.1727
 712  846.9252
 713  832.0994
 714  947.1553
 715  1050.069
 716  1157.76
 717  1167.352
 718  1331.839
 719  1375.879
 720  1276.003
 721  1087.292
 722  976.2767
 723  851.676
 724  797.9885
 725  795.1678
 726  1044.018
 727  1004.386
 728  1031.73
 729  1071.547
 730  1103.783
 731  1049.51
 732  870.1093
 733  1048.485
 734  1028.991
 735  1038.987
 736  997.1982
 737  1126.201
 738  1079.069
 739  1129.716
 740  1100.726
 741  1184.901
 742  1139.386
 743  1169.798
 744  1135.735
 745  941.0951
 746  827.5313
 747  937.7502
 748  957.651
 749  932.7477
 750  856.3931
 751  961.0275
 752  966.8427
 753  918.028
 754  1033.98
 755  934.4382
 756  955.9139
 757  814.5979
 758  873.5419
 759  739.9234
 760  851.3998
 761  1012.426
 762  1154.473
 763  987.6478
 764  960.1393
 765  966.1863
 766  1019.985
 767  995.8179
 768  1143.042
 769  1218.528
 770  1192.036
 771  983.6772
 772  796.3145
 773  662.6229
 774  667.1588
 775  746.1268
 776  891.8851
 777  883.7493
 778  887.0515
 779  837.9559
 780  969.6208
 781  1066.745
 782  1008.672
 783  1029.024
 784  1132.77
 785  1213.221
 786  918.9428
 787  783.5105
 788  863.6031
 789  960.8215
 790  990.0953
 791  1067.247
 792  1032.911
 793  924.5008
 794  780.8155
 795  881.5197
 796  873.7585
 797  835.0919
 798  911.3914
 799  901.5775
 800  877.7807
 801  880.356
 802  973.2314
 803  1018.547
 804  941.1689
 805  1151.946
 806  1212.501
 807  1138.216
 808  800.6195
 809  846.0082
 810  828.4379
 811  692.2269
 812  598.3793
 813  591.2563
 814  662.9479
 815  859.5813
 816  1024.396
 817  1020.245
 818  793.7678
 819  903.0083
 820  1046.567
 821  1141.548
 822  1014.567
 823  974.9556
 824  946.421
 825  976.7293
 826  1027.633
 827  1070.804
 828  1079.807
 829  1095.177
 830  1065.04
 831  891.5675
 832  939.7206
 833  1034.81
 834  1257.198
 835  1169.234
 836  1098.027
 837  935.6327
 838  969.4142
 839  900.4747
 840  887.1375
 841  801.0825
 842  1021.899
 843  1070.53
 844  948.9336
 845  838.5356
 846  876.3391
 847  957.9513
 848  1070.842
 849  1175.04
 850  1194.55
 851  1100.522
 852  1107.032
 853  1176.711
 854  964.7988
 855  809.737
 856  728.0289
 857  873.2341
 858  999.5779
 859  925.771
 860  844.7457
 861  769.0131
 862  885.8892
 863  1080.188
 864  1073.182
 865  984.5677
 866  1108.791
 867  1222.607
 868  1127.216
 869  1035.629
 870  1190.645
 871  1312.542
 872  1204.451
 873  803.2682
 874  769.1811
 875  852.7479
 876  1112.405
 877  1197.136
 878  1065.81
 879  882.6257
 880  898.0421
 881  1016.027
 882  1179.843
 883  1189.601
 884  1205.964
 885  1153.891
 886  1074.601
 887  980.3213
 888  979.6373
 889  1075.348
 890  1128.894
 891  1098.426
 892  986.5961
 893  868.2512
 894  876.795
 895  1006.709
 896  1036.251
 897  1045.167
 898  960.4132
 899  1069.766
 900  1181.978
 901  1168.627
 902  1084.176
 903  1080.099
 904  1037.842
 905  1100.996
 906  1116.458
 907  1282.89
 908  1215.599
 909  984.8966
 910  953.4108
 911  1018.44
 912  1031.385
 913  983.6231
 914  994.2015
 915  1019.123
 916  1034.879
 917  1064.143
 918  1179.924
 919  1168.534
 920  1069.376
 921  1014.817
 922  986.5467
 923  987.8878
 924  1058.113
 925  1070.713
 926  1020.843
 927  772.5751
 928  861.3516
 929  944.8785
 930  1103.377
 931  1099.179
 932  1205.135
 933  1244.863
 934  1227.762
 935  1206.146
 936  1279.691
 937  1326.936
 938  1242.409
 939  1123.925
 940  940.2318
 941  892.5248
 942  875.1417
 943  1050.196
 944  1152.498
 945  1120.637
 946  930.3052
 947  825.3681
 948  956.4393
 949  1138.353
 950  1133.612
 951  1066.48
 952  998.0876
 953  1044.485
 954  1169.569
 955  1203.661
 956  1068.498
 957  989.2305
 958  952.7073
 959  1073.62
 960  905.5592
 961  963.6003
 962  824.9499
 963  829.3911
 964  616.1024
 965  733.2111
 966  847.2897
 967  1020.759
 968  1127.414
 969  1104.152
 970  1025.256
 971  831.3818
 972  963.6699
 973  1150.302
 974  1138.597
 975  1048.755
 976  897.0004
 977  915.0698
 978  899.1076
 979  929.9109
 980  855.2531
 981  822.5754
 982  898.9991
 983  1092.525
 984  1135.384
 985  1054.397
 986  1057.774
 987  1002.943
 988  947.1838
 989  999.016
 990  1162.93
 991  1241.234
 992  1126.775
 993  968.9948
 994  874.9765
 995  880.4032
 996  1089.8
 997  1053.505
 998  1026.792
 999  979.2784
1000  1186.678
1001  1371.456
1002  1239.409
1003  1122.417
1004  1020.703
1005  1026.827
1006  1125.686
1007  1208.001
1008  1312.974
1009  1229.633
1010  1049.021
1011  942.5299
1012  886.1405
1013  1060.824
1014  1107.821
1015  1223.777
1016  1218.586
1017  1310.782
1018  1387.51
1019  1378.583
1020  1232.679
1021  1073.888
1022  1023.572
1023  1024.307
