# Input file       =  1185349336.100742_cleaned.dat
# Candidate        =  PSR_0332+5434
# Telescope        =  AR
# Epoch_topo       =  57963.321239591925
# Epoch_bary       =  N/A
# T_sample         =  0.002
# Data Folded      =  7340032
# Data Avg         =  0.0474146541808692
# Data StdDev      =  1.00030517651447 
# Profile Bins     =  512
# Profile Avg      =  679.693999009815 
# Profile StdDev   =  119.769576087475 
# Reduced chi-sqr  =  1.847
# Prob(Noise)      <  3.49e-28   (~10.9 sigma)
# P_topo (ms)      =  714.47103686109   +/- 0.000237
# P'_topo (s/s)    =  -0                +/- 1.25e-10
# P''_topo (s/s^2) =  0                 +/- 5.52e-14
# P_bary (ms)      =  N/A
# P'_bary (s/s)    =  N/A
# P''_bary (s/s^2) =  N/A
# P_orb (s)        =  N/A
# asin(i)/c (s)    =  N/A
# eccentricity     =  N/A
# w (rad)          =  N/A
# T_peri           =  N/A
######################################################
   0  1222.866
   1  1250.239
   2  1006.752
   3  907.2412
   4  848.3725
   5  694.9572
   6  732.9323
   7  773.5685
   8  780.1914
   9  739.5239
  10  764.9594
  11  756.8998
  12  747.8875
  13  719.9743
  14  784.8004
  15  720.067
  16  702.4885
  17  657.7391
  18  655.9211
  19  716.2775
  20  769.9157
  21  784.333
  22  717.7395
  23  780.345
  24  745.8528
  25  615.7076
  26  663.2816
  27  624.7978
  28  666.9492
  29  639.11
  30  635.4164
  31  611.1601
  32  664.6489
  33  623.916
  34  698.494
  35  682.1622
  36  738.97
  37  663.6429
  38  595.662
  39  603.502
  40  662.8887
  41  691.3418
  42  760.0513
  43  733.3361
  44  731.1033
  45  748.9542
  46  784.7419
  47  861.6443
  48  778.5419
  49  754.9526
  50  789.4813
  51  791.7299
  52  896.2944
  53  825.6159
  54  854.5227
  55  911.2703
  56  827.8099
  57  859.4691
  58  900.8596
  59  775.0156
  60  764.488
  61  830.2096
  62  705.1567
  63  677.4861
  64  758.1382
  65  788.4317
  66  870.9167
  67  833.2398
  68  758.8051
  69  730.0602
  70  777.4752
  71  833.1447
  72  850.9075
  73  763.1672
  74  751.369
  75  754.1509
  76  762.7213
  77  673.8519
  78  612.4653
  79  644.4428
  80  656.0886
  81  780.8815
  82  817.6613
  83  682.8847
  84  643.9446
  85  632.931
  86  657.1522
  87  642.4103
  88  651.4565
  89  583.1743
  90  632.6581
  91  605.5253
  92  577.613
  93  614.7563
  94  561.2007
  95  495.0003
  96  500.6346
  97  637.952
  98  651.6984
  99  576.8012
 100  624.8217
 101  649.2581
 102  583.4902
 103  647.2132
 104  636.7486
 105  611.8605
 106  655.3655
 107  644.6387
 108  499.1689
 109  599.0287
 110  716.6063
 111  784.5783
 112  792.5575
 113  744.7576
 114  697.5352
 115  662.6358
 116  718.7545
 117  774.3967
 118  794.6228
 119  756.4364
 120  752.9388
 121  785.8121
 122  719.873
 123  671.6691
 124  623.1718
 125  725.1325
 126  727.8696
 127  703.916
 128  764.3066
 129  811.5723
 130  812.434
 131  768.4485
 132  736.1569
 133  703.4019
 134  668.5934
 135  627.1245
 136  730.9724
 137  769.2227
 138  700.9312
 139  745.6526
 140  704.9158
 141  603.6521
 142  589.9012
 143  708.4713
 144  676.0106
 145  636.5923
 146  681.5939
 147  656.064
 148  605.588
 149  585.355
 150  647.8704
 151  641.1107
 152  625.498
 153  588.9109
 154  686.5257
 155  677.9227
 156  563.1132
 157  691.2855
 158  614.9105
 159  471.3752
 160  561.791
 161  556.8077
 162  595.6928
 163  590.7238
 164  607.5541
 165  598.8297
 166  652.7949
 167  734.2156
 168  775.5652
 169  702.7394
 170  680.6446
 171  692.2286
 172  564.0026
 173  558.1852
 174  559.283
 175  597.8268
 176  654.4908
 177  661.3652
 178  653.1575
 179  613.8986
 180  608.991
 181  650.91
 182  672.8016
 183  617.5537
 184  686.3219
 185  628.8259
 186  463.015
 187  588.071
 188  698.8411
 189  728.0942
 190  683.1201
 191  684.9193
 192  607.9098
 193  637.4037
 194  664.7613
 195  646.0122
 196  724.5458
 197  748.9559
 198  752.1101
 199  730.8619
 200  800.0298
 201  847.0043
 202  906.9888
 203  915.3538
 204  880.0272
 205  876.2683
 206  928.4796
 207  925.2596
 208  903.8058
 209  908.6824
 210  875.8335
 211  794.8304
 212  839.1841
 213  807.3809
 214  675.4237
 215  802.9694
 216  784.9807
 217  642.8563
 218  652.7603
 219  687.2084
 220  674.9461
 221  664.2828
 222  712.8612
 223  761.1304
 224  719.3271
 225  753.6581
 226  716.5717
 227  667.2655
 228  679.7206
 229  699.0129
 230  693.3134
 231  682.8394
 232  771.2338
 233  600.4647
 234  658.6761
 235  742.0474
 236  688.6758
 237  600.5773
 238  598.8231
 239  700.1796
 240  592.4285
 241  540.0101
 242  475.3009
 243  536.9286
 244  513.7261
 245  479.6039
 246  553.0042
 247  704.6147
 248  733.6857
 249  686.3915
 250  611.4305
 251  620.4749
 252  717.5149
 253  731.4896
 254  677.4047
 255  555.0714
 256  794.0626
 257  801.9103
 258  703.8196
 259  629.851
 260  597.2061
 261  578.8927
 262  646.8075
 263  699.819
 264  775.6058
 265  722.1608
 266  766.2292
 267  721.8365
 268  696.8943
 269  685.5359
 270  678.2244
 271  763.7603
 272  831.6725
 273  880.4432
 274  829.1172
 275  814.4705
 276  879.7445
 277  835.6624
 278  757.7061
 279  833.7343
 280  963.4991
 281  813.5856
 282  748.2537
 283  788.1683
 284  747.0251
 285  717.8357
 286  771.4639
 287  728.7068
 288  707.0391
 289  785.7734
 290  764.676
 291  754.5166
 292  689.3346
 293  723.4973
 294  701.9197
 295  648.0845
 296  696.7358
 297  679.583
 298  686.5414
 299  669.1614
 300  638.0985
 301  699.6196
 302  746.5938
 303  689.3328
 304  655.5922
 305  680.5804
 306  706.8196
 307  739.0768
 308  686.0915
 309  623.4595
 310  531.1467
 311  504.5117
 312  579.8512
 313  666.9675
 314  721.5129
 315  665.7269
 316  629.6285
 317  614.962
 318  597.655
 319  636.1913
 320  561.7352
 321  617.0016
 322  633.6432
 323  618.8267
 324  531.3217
 325  600.0135
 326  686.1564
 327  566.3794
 328  460.128
 329  561.4216
 330  614.6162
 331  557.1817
 332  671.7055
 333  696.1195
 334  637.7573
 335  600.771
 336  724.8099
 337  712.8471
 338  730.1762
 339  769.231
 340  673.152
 341  680.617
 342  616.2066
 343  703.4682
 344  715.2607
 345  669.167
 346  682.9799
 347  742.1608
 348  793.079
 349  770.8277
 350  680.9705
 351  651.068
 352  638.1418
 353  606.2767
 354  586.4683
 355  705.6016
 356  667.0386
 357  706.4776
 358  642.9824
 359  728.4757
 360  751.5233
 361  704.5313
 362  662.3029
 363  623.3703
 364  620.6309
 365  624.1409
 366  674.8731
 367  694.4498
 368  691.6874
 369  680.7841
 370  568.7183
 371  521.4921
 372  557.0243
 373  601.2116
 374  523.6763
 375  471.7174
 376  499.5011
 377  507.4706
 378  425.692
 379  409.3415
 380  481.9763
 381  506.8659
 382  447.3603
 383  484.9877
 384  469.7623
 385  443.903
 386  505.8061
 387  573.6109
 388  540.9427
 389  508.682
 390  534.3436
 391  556.647
 392  553.5037
 393  568.5068
 394  601.8524
 395  545.3547
 396  505.5505
 397  557.3038
 398  571.6846
 399  597.2047
 400  471.654
 401  451.3302
 402  522.2474
 403  569.7869
 404  583.5188
 405  616.5048
 406  543.3179
 407  521.988
 408  468.0964
 409  579.6822
 410  603.3984
 411  621.9961
 412  700.2124
 413  716.7838
 414  724.5381
 415  658.0045
 416  714.1771
 417  759.7667
 418  730.7551
 419  744.5082
 420  672.2286
 421  731.5096
 422  904.1747
 423  856.3128
 424  707.7193
 425  708.6084
 426  695.9694
 427  795.8853
 428  703.9509
 429  732.8395
 430  696.7387
 431  670.1835
 432  677.6667
 433  812.6058
 434  708.8079
 435  635.6192
 436  570.9567
 437  629.196
 438  613.3189
 439  674.333
 440  700.5494
 441  693.5496
 442  606.7921
 443  622.7336
 444  686.7614
 445  565.5186
 446  486.4554
 447  603.3629
 448  461.3986
 449  492.8724
 450  608.9576
 451  542.309
 452  478.3847
 453  531.1981
 454  513.7662
 455  454.9568
 456  535.3306
 457  583.0145
 458  618.0229
 459  618.5059
 460  534.3289
 461  520.5389
 462  449.6249
 463  400.9502
 464  447.2431
 465  420.7149
 466  384.0918
 467  490.4413
 468  577.6787
 469  555.1283
 470  546.3969
 471  700.3858
 472  639.3784
 473  524.1661
 474  582.2393
 475  652.9838
 476  598.108
 477  568.9843
 478  586.6096
 479  585.4294
 480  699.1066
 481  630.5913
 482  537.5974
 483  557.1112
 484  609.9097
 485  604.1232
 486  700.0399
 487  646.5139
 488  602.7266
 489  668.8105
 490  666.4284
 491  816.8818
 492  820.8442
 493  856.737
 494  749.8862
 495  664.8003
 496  784.8785
 497  851.2659
 498  689.806
 499  706.3254
 500  838.9407
 501  890.8665
 502  876.7069
 503  777.9568
 504  796.2645
 505  942.3488
 506  774.6107
 507  795.5859
 508  902.399
 509  1102.022
 510  1254.807
 511  1211.322
