# Input file       =  1185521650.102601_cleaned.dat
# Candidate        =  PSR_0332+5434
# Telescope        =  AR
# Epoch_topo       =  57965.315614613435
# Epoch_bary       =  N/A
# T_sample         =  0.002
# Data Folded      =  7340032
# Data Avg         =  0.0490593613576915
# Data StdDev      =  1.00030562542218 
# Profile Bins     =  512
# Profile Avg      =  703.200366881053 
# Profile StdDev   =  119.769629836557 
# Reduced chi-sqr  =  1.306
# Prob(Noise)      <  3.62e-06   (~4.5 sigma)
# P_topo (ms)      =  714.470125723463  +/- 0.000431
# P'_topo (s/s)    =  -0                +/- 2.27e-10
# P''_topo (s/s^2) =  0                 +/- 1e-13
# P_bary (ms)      =  N/A
# P'_bary (s/s)    =  N/A
# P''_bary (s/s^2) =  N/A
# P_orb (s)        =  N/A
# asin(i)/c (s)    =  N/A
# eccentricity     =  N/A
# w (rad)          =  N/A
# T_peri           =  N/A
######################################################
   0  1232.078
   1  1220.24
   2  1205.096
   3  953.8719
   4  700.1358
   5  780.0287
   6  752.8726
   7  589.9452
   8  559.0856
   9  629.2765
  10  594.4446
  11  655.8651
  12  638.9678
  13  713.9929
  14  739.2467
  15  712.1174
  16  637.6614
  17  677.8561
  18  678.9299
  19  578.9437
  20  593.3894
  21  738.5709
  22  767.1744
  23  677.6208
  24  601.7203
  25  561.0848
  26  719.2473
  27  807.1465
  28  780.6863
  29  693.7368
  30  691.8087
  31  801.5793
  32  700.5208
  33  761.174
  34  797.5167
  35  799.8758
  36  813.7031
  37  805.0451
  38  747.8332
  39  743.9952
  40  684.2499
  41  680.3856
  42  741.9802
  43  658.1996
  44  678.2422
  45  733.2715
  46  687.5909
  47  554.2126
  48  698.0065
  49  801.8049
  50  857.0955
  51  774.0601
  52  686.6153
  53  871.3762
  54  874.1803
  55  719.4699
  56  619.0508
  57  725.5903
  58  797.4011
  59  690.098
  60  647.4745
  61  618.4303
  62  676.1993
  63  627.5357
  64  733.735
  65  827.1674
  66  573.5946
  67  533.2499
  68  604.5622
  69  726.5297
  70  784.9073
  71  765.916
  72  658.5555
  73  624.3646
  74  615.7098
  75  662.2561
  76  809.3494
  77  619.9456
  78  561.0468
  79  591.7851
  80  471.9272
  81  540.5849
  82  689.6264
  83  668.8084
  84  662.1038
  85  605.1001
  86  693.5519
  87  668.9824
  88  706.1036
  89  781.2722
  90  746.0344
  91  628.7495
  92  602.3782
  93  696.4401
  94  746.7881
  95  715.317
  96  650.0721
  97  653.4385
  98  704.8887
  99  689.2759
 100  682.5997
 101  685.2291
 102  672.6721
 103  632.4278
 104  749.2352
 105  759.5678
 106  671.7974
 107  684.8983
 108  687.6559
 109  644.1127
 110  617.5324
 111  569.1882
 112  560.3316
 113  549.4349
 114  791.0831
 115  815.3051
 116  745.4731
 117  670.8713
 118  634.4516
 119  762.8112
 120  635.4319
 121  589.115
 122  675.3113
 123  653.0435
 124  662.8381
 125  725.6833
 126  744.3781
 127  671.6153
 128  625.3088
 129  663.9994
 130  712.4854
 131  713.3055
 132  728.1085
 133  811.5696
 134  725.0479
 135  640.7689
 136  620.5229
 137  606.6216
 138  667.8886
 139  727.476
 140  708.2034
 141  667.4059
 142  654.2513
 143  720.7742
 144  652.4287
 145  569.7881
 146  538.0499
 147  667.936
 148  798.6822
 149  807.9774
 150  783.2525
 151  859.6574
 152  722.6058
 153  802.4421
 154  761.0187
 155  709.803
 156  671.0302
 157  732.0563
 158  808.3975
 159  751.2202
 160  708.0097
 161  717.1479
 162  703.8324
 163  771.7666
 164  669.3663
 165  775.7042
 166  820.9705
 167  783.4645
 168  784.6265
 169  768.373
 170  797.671
 171  839.0858
 172  790.8715
 173  728.7663
 174  843.0788
 175  811.3254
 176  737.8304
 177  690.451
 178  760.9114
 179  741.4413
 180  823.2025
 181  776.8353
 182  729.2964
 183  725.2357
 184  785.2521
 185  920.885
 186  936.3348
 187  839.5693
 188  723.1059
 189  848.7419
 190  888.8731
 191  816.902
 192  892.1382
 193  942.7943
 194  926.5289
 195  888.5519
 196  807.9694
 197  843.8967
 198  826.5783
 199  777.0106
 200  816.8427
 201  832.5029
 202  754.2965
 203  685.4907
 204  675.7378
 205  803.2687
 206  839.1998
 207  776.3061
 208  690.4713
 209  724.1122
 210  731.4565
 211  672.7056
 212  697.9024
 213  777.7151
 214  755.6801
 215  730.7757
 216  782.861
 217  758.7706
 218  762.8813
 219  730.8737
 220  736.3448
 221  781.8698
 222  764.3923
 223  758.4224
 224  673.0808
 225  679.3303
 226  719.9529
 227  714.9272
 228  742.2984
 229  764.7112
 230  718.3943
 231  818.3831
 232  758.0164
 233  741.0728
 234  802.5934
 235  692.9736
 236  620.1962
 237  679.9269
 238  668.0447
 239  652.7939
 240  628.5199
 241  692.012
 242  759.3109
 243  730.6354
 244  646.4807
 245  582.218
 246  627.5427
 247  663.6069
 248  674.0103
 249  646.787
 250  576.3101
 251  643.9974
 252  754.3358
 253  704.2565
 254  701.3632
 255  698.1358
 256  639.3954
 257  674.2643
 258  574.5161
 259  624.5533
 260  614.2631
 261  745.0873
 262  788.623
 263  735.424
 264  813.5519
 265  836.8474
 266  721.7325
 267  683.0419
 268  609.4435
 269  611.7953
 270  682.6349
 271  593.4163
 272  564.4739
 273  632.5964
 274  573.9404
 275  712.5801
 276  638.6157
 277  605.9361
 278  619.0446
 279  628.2383
 280  505.6375
 281  616.4341
 282  663.2635
 283  688.7081
 284  748.6755
 285  710.9883
 286  690.5882
 287  687.3791
 288  688.3754
 289  688.4647
 290  748.3952
 291  828.9697
 292  678.2449
 293  632.3785
 294  661.1531
 295  781.3118
 296  782.7719
 297  691.2561
 298  666.6107
 299  607.472
 300  616.6315
 301  711.3281
 302  656.2686
 303  572.595
 304  561.0742
 305  554.1552
 306  541.4126
 307  577.1376
 308  714.7267
 309  758.6314
 310  731.1881
 311  684.9257
 312  586.7677
 313  530.7932
 314  652.5122
 315  540.9818
 316  508.8291
 317  597.515
 318  689.9057
 319  704.6595
 320  652.0072
 321  642.6796
 322  594.7836
 323  597.9869
 324  551.1288
 325  649.8106
 326  619.9299
 327  616.4017
 328  602.9537
 329  475.9418
 330  580.3186
 331  663.7072
 332  694.5149
 333  601.4492
 334  557.6263
 335  603.1652
 336  695.6793
 337  653.4456
 338  565.2094
 339  588.3091
 340  692.1124
 341  584.5692
 342  590.6388
 343  620.6088
 344  682.647
 345  625.5438
 346  700.34
 347  668.6317
 348  553.0661
 349  643.9422
 350  673.2629
 351  766.063
 352  626.4559
 353  587.5806
 354  628.0891
 355  678.426
 356  670.9658
 357  533.4724
 358  462.4756
 359  568.3248
 360  656.6141
 361  550.8466
 362  463.4124
 363  541.92
 364  582.218
 365  596.5117
 366  581.0275
 367  537.8635
 368  635.6927
 369  622.0767
 370  526.6317
 371  558.5887
 372  519.2778
 373  522.9775
 374  561.5751
 375  596.436
 376  587.4154
 377  689.6957
 378  725.267
 379  644.2235
 380  653.5284
 381  706.6459
 382  709.1395
 383  665.365
 384  584.2106
 385  639.2877
 386  735.05
 387  638.3591
 388  627.7723
 389  609.8391
 390  627.2471
 391  671.373
 392  772.4343
 393  790.9055
 394  706.1039
 395  655.9199
 396  727.1096
 397  763.6687
 398  686.894
 399  712.6575
 400  580.2042
 401  627.493
 402  807.2949
 403  827.3419
 404  760.5231
 405  823.9324
 406  749.9028
 407  851.0398
 408  799.5784
 409  714.7731
 410  737.6958
 411  672.9545
 412  668.9419
 413  724.8218
 414  649.7963
 415  700.7238
 416  651.7958
 417  664.1024
 418  681.0981
 419  821.8406
 420  775.9733
 421  679.1114
 422  629.7202
 423  649.5407
 424  765.8138
 425  774.5341
 426  780.9152
 427  773.4437
 428  822.1794
 429  799.264
 430  706.5583
 431  681.2943
 432  656.5143
 433  660.1158
 434  728.6223
 435  658.6722
 436  662.0947
 437  636.6547
 438  595.5095
 439  565.5813
 440  672.5595
 441  670.3828
 442  677.2426
 443  679.454
 444  602.1843
 445  568.4816
 446  609.1447
 447  807.4521
 448  755.707
 449  652.0482
 450  689.5151
 451  683.4373
 452  726.7839
 453  662.2346
 454  613.0345
 455  649.3084
 456  742.6267
 457  836.7245
 458  823.7628
 459  730.0974
 460  848.3969
 461  846.3002
 462  785.5776
 463  784.0899
 464  782.7246
 465  888.803
 466  901.2158
 467  795.1628
 468  708.1379
 469  727.7319
 470  662.9557
 471  681.357
 472  714.8045
 473  761.0678
 474  764.6595
 475  716.1575
 476  748.1555
 477  675.9025
 478  719.2302
 479  830.6069
 480  737.7892
 481  677.441
 482  616.9783
 483  789.7287
 484  792.2013
 485  750.4144
 486  701.9694
 487  761.2878
 488  772.9916
 489  682.0427
 490  694.1978
 491  831.3688
 492  909.6077
 493  829.499
 494  847.9902
 495  846.8163
 496  784.9045
 497  752.0825
 498  724.3464
 499  735.3252
 500  703.4121
 501  728.65
 502  727.9657
 503  759.8817
 504  807.0836
 505  841.0851
 506  794.8808
 507  807.9836
 508  804.2089
 509  794.0068
 510  1040.068
 511  1219.612
