# Input file       =  1185004668.102813_cleaned.dat
# Candidate        =  PSR_0332+5434
# Telescope        =  AR
# Epoch_topo       =  57959.332026652926
# Epoch_bary       =  N/A
# T_sample         =  0.002
# Data Folded      =  7340032
# Data Avg         =  0.195991736495801
# Data StdDev      =  4.38772757645758 
# Profile Bins     =  256
# Profile Avg      =  5619.59504996568 
# Profile StdDev   =  742.965503232442 
# Reduced chi-sqr  =  0.931
# Prob(Noise)      <  0.779   (~0.0 sigma)
# P_topo (ms)      =  714.473036678054  +/- 0.000778
# P'_topo (s/s)    =  -0                +/- 4.1e-10
# P''_topo (s/s^2) =  0                 +/- 1.81e-13
# P_bary (ms)      =  N/A
# P'_bary (s/s)    =  N/A
# P''_bary (s/s^2) =  N/A
# P_orb (s)        =  N/A
# asin(i)/c (s)    =  N/A
# eccentricity     =  N/A
# w (rad)          =  N/A
# T_peri           =  N/A
######################################################
   0  6056.225
   1  6327.62
   2  5816.84
   3  5918.583
   4  5765.514
   5  5925.746
   6  6138.216
   7  5597.421
   8  5586.488
   9  5099.092
  10  4952.935
  11  4960.434
  12  5897.675
  13  6091.239
  14  5390.956
  15  4422.055
  16  5804.913
  17  5918.686
  18  5841.166
  19  5150.763
  20  6656.639
  21  6211.647
  22  6268.915
  23  5806.64
  24  6485.139
  25  6338.119
  26  5367.434
  27  5984.379
  28  6921.275
  29  6548.558
  30  6578.356
  31  6299.025
  32  6007.336
  33  6036.106
  34  6134.675
  35  6014.568
  36  6360.269
  37  6506.751
  38  5904.174
  39  6749.728
  40  5781.575
  41  6017.764
  42  5655.331
  43  6161.229
  44  5633.801
  45  5386.336
  46  6210.353
  47  5431.777
  48  5391.833
  49  6222.05
  50  6454.414
  51  6067.639
  52  6316.165
  53  5853
  54  6120.601
  55  5737.251
  56  5537.224
  57  5896.547
  58  5985.13
  59  5720.19
  60  5943.708
  61  5308.103
  62  4511.649
  63  5786.985
  64  5765.411
  65  5642.749
  66  5868.796
  67  5803.434
  68  6154.417
  69  6481.258
  70  5837.512
  71  5374.101
  72  5710.144
  73  6119.567
  74  5914.823
  75  5280.637
  76  6190.225
  77  5911.172
  78  5589.971
  79  6083.557
  80  5504.592
  81  6124.738
  82  5652.559
  83  6109.573
  84  6171.177
  85  6246.16
  86  6231.455
  87  6412.269
  88  6425.114
  89  5733.546
  90  6084.644
  91  5827.215
  92  5858.847
  93  4898.176
  94  5580.395
  95  5647.179
  96  5883.94
  97  5361.904
  98  4260.313
  99  5302.859
 100  5868.097
 101  5819.879
 102  5383.895
 103  6081.605
 104  5773.142
 105  5316.741
 106  4533.587
 107  4617.092
 108  5639.063
 109  4779.746
 110  5307.435
 111  5823.995
 112  6021.67
 113  5924.882
 114  5045.786
 115  4959.086
 116  4598.389
 117  5958.641
 118  5445.708
 119  5734.119
 120  6329.029
 121  6771.679
 122  5003.559
 123  4315.117
 124  5206.612
 125  4530.622
 126  4829.729
 127  5831.631
 128  5046.455
 129  5164.822
 130  4939.636
 131  5256.343
 132  5815.782
 133  4892.35
 134  4974.601
 135  4983.181
 136  5210.678
 137  5773.215
 138  5817.379
 139  5744.82
 140  5767.745
 141  6010.153
 142  6398.676
 143  5268.152
 144  5783.56
 145  6600.145
 146  6142.086
 147  4963.81
 148  4957.818
 149  5418.414
 150  4963.213
 151  5073.244
 152  5212.677
 153  6069.502
 154  6758.386
 155  6295.564
 156  6074.413
 157  6157.959
 158  5960.577
 159  6727.548
 160  6637.01
 161  6651.562
 162  7735.601
 163  7473.293
 164  6414.235
 165  4381.203
 166  5390.551
 167  5148.393
 168  5425.096
 169  5302.56
 170  5425.353
 171  5828.889
 172  4966.788
 173  4860.69
 174  4818.78
 175  5275.321
 176  4858.39
 177  4033.986
 178  3978.74
 179  4873.707
 180  5057.22
 181  4940.648
 182  4729.449
 183  4023.568
 184  5017.417
 185  4872.34
 186  4954.56
 187  5381.538
 188  5005.836
 189  5476.337
 190  5760.686
 191  4909.974
 192  4506.095
 193  4968.364
 194  5825.116
 195  5509.341
 196  5545.847
 197  6014.436
 198  6159.522
 199  5635.938
 200  5761.052
 201  5977.978
 202  5308.192
 203  5281.999
 204  5344.712
 205  4590.233
 206  4511.258
 207  4203.277
 208  4085.23
 209  4314.458
 210  4667.241
 211  5089.041
 212  5147.509
 213  5662.109
 214  6284.724
 215  5511.365
 216  5460.821
 217  6079.258
 218  6715.368
 219  6042.932
 220  5504.824
 221  5849.09
 222  5485.25
 223  5489.213
 224  5419.958
 225  5782.667
 226  5245.204
 227  5645.38
 228  5592.008
 229  6056.953
 230  5929.223
 231  5690.4
 232  5405.489
 233  5234.031
 234  5709.897
 235  5538.374
 236  4908.983
 237  5805.198
 238  5384.719
 239  5236.955
 240  5576.513
 241  5630.685
 242  4583.532
 243  5122.573
 244  5669.417
 245  6270.312
 246  5560.473
 247  4638.432
 248  6167.747
 249  6236.234
 250  5765.814
 251  5609.351
 252  6592.501
 253  6342.991
 254  5228.81
 255  5203.176
