# Input file       =  1185334429.098027_cleaned.dat
# Candidate        =  PSR_0332+5434
# Telescope        =  AR
# Epoch_topo       =  57963.148704838277
# Epoch_bary       =  N/A
# T_sample         =  0.002
# Data Folded      =  7340032
# Data Avg         =  0.196780962756228
# Data StdDev      =  4.02133077044824 
# Profile Bins     =  1024
# Profile Avg      =  1409.90185300048 
# Profile StdDev   =  340.46211706041  
# Reduced chi-sqr  =  1.310
# Prob(Noise)      <  7.54e-11   (~6.4 sigma)
# P_topo (ms)      =  714.470784554526  +/- 0.000553
# P'_topo (s/s)    =  -0                +/- 2.92e-10
# P''_topo (s/s^2) =  0                 +/- 1.29e-13
# P_bary (ms)      =  N/A
# P'_bary (s/s)    =  N/A
# P''_bary (s/s^2) =  N/A
# P_orb (s)        =  N/A
# asin(i)/c (s)    =  N/A
# eccentricity     =  N/A
# w (rad)          =  N/A
# T_peri           =  N/A
######################################################
   0  1558.916
   1  1587.438
   2  1650.769
   3  1587.743
   4  1410.762
   5  1250.218
   6  1253.376
   7  1206.418
   8  1150.292
   9  1073.204
  10  1114.538
  11  1199.49
  12  1302.359
  13  1479.463
  14  1437.725
  15  1418.945
  16  1266.028
  17  1185.602
  18  1110.994
  19  1195.806
  20  1155.769
  21  1118.762
  22  1129.369
  23  1199.081
  24  1249.2
  25  1245.426
  26  1168.805
  27  1184.188
  28  1130.448
  29  1257.766
  30  1214.377
  31  1312.673
  32  1315.938
  33  1355.329
  34  1292.103
  35  1267.012
  36  1295.285
  37  1337.534
  38  1352.513
  39  1329.765
  40  1276.099
  41  1305.569
  42  1279.244
  43  1266.113
  44  1274.829
  45  1324.706
  46  1429.192
  47  1462.419
  48  1447.515
  49  1285.034
  50  1254.421
  51  1247.242
  52  1257.014
  53  1305.252
  54  1418.349
  55  1434.058
  56  1310.642
  57  1174.396
  58  1272.594
  59  1345.357
  60  1321.208
  61  1161.306
  62  1080.534
  63  1097.465
  64  1097.921
  65  1187.096
  66  1251.148
  67  1388.743
  68  1415.443
  69  1436.666
  70  1391.844
  71  1398.59
  72  1496.368
  73  1478.816
  74  1457.468
  75  1372.851
  76  1414.853
  77  1432.416
  78  1495.845
  79  1530.239
  80  1633.112
  81  1575.721
  82  1524.755
  83  1407.274
  84  1377.606
  85  1373.514
  86  1443.201
  87  1506.124
  88  1475.293
  89  1411.856
  90  1440.688
  91  1571.203
  92  1635.414
  93  1589.987
  94  1560.923
  95  1614.418
  96  1603.53
  97  1582.471
  98  1584.993
  99  1639.515
 100  1690.175
 101  1613.428
 102  1706.399
 103  1676.38
 104  1788.283
 105  1806.133
 106  1822.585
 107  1776.135
 108  1717.758
 109  1637.896
 110  1542.791
 111  1482.703
 112  1376.358
 113  1386.396
 114  1507.648
 115  1684.068
 116  1758.264
 117  1703.474
 118  1799.21
 119  1819
 120  1782.327
 121  1745.466
 122  1800.68
 123  1775.751
 124  1700.821
 125  1623.211
 126  1607.412
 127  1595.33
 128  1602.433
 129  1588.238
 130  1594.607
 131  1588.965
 132  1542.184
 133  1427.318
 134  1465.15
 135  1673.706
 136  1878.578
 137  1890.946
 138  1950.653
 139  1888.573
 140  1889.006
 141  1750.417
 142  1691.345
 143  1725.674
 144  1719.327
 145  1661.735
 146  1516.568
 147  1513.768
 148  1542.802
 149  1541.247
 150  1522.067
 151  1574.176
 152  1660.088
 153  1723.029
 154  1695.995
 155  1685.508
 156  1750.301
 157  1763.738
 158  1728.819
 159  1695.054
 160  1665.269
 161  1678.537
 162  1736.192
 163  1785.684
 164  1713.773
 165  1688.209
 166  1597.459
 167  1690.353
 168  1677.731
 169  1615.161
 170  1567.383
 171  1482.769
 172  1478.792
 173  1428.144
 174  1487.416
 175  1415.359
 176  1458.265
 177  1502.23
 178  1675.894
 179  1694.504
 180  1753.097
 181  1763.456
 182  1747.719
 183  1714.422
 184  1580.296
 185  1430.328
 186  1293.979
 187  1419.415
 188  1610.49
 189  1683.203
 190  1612.434
 191  1525.33
 192  1467.47
 193  1489.776
 194  1558.654
 195  1612.483
 196  1478.585
 197  1392.265
 198  1356.041
 199  1443.543
 200  1426.492
 201  1585.275
 202  1597.149
 203  1678.667
 204  1596.936
 205  1686.348
 206  1681.023
 207  1654.128
 208  1748.359
 209  1714.965
 210  1625.314
 211  1440.212
 212  1426.506
 213  1474.6
 214  1465.831
 215  1535.023
 216  1581.309
 217  1628.865
 218  1725.533
 219  1708.55
 220  1645.299
 221  1599.889
 222  1733.897
 223  1826.692
 224  1703.098
 225  1633.445
 226  1560.334
 227  1566.793
 228  1542.39
 229  1620.243
 230  1746.713
 231  1776.267
 232  1629.948
 233  1553.5
 234  1557.229
 235  1605.469
 236  1706.285
 237  1673.492
 238  1692.895
 239  1635.688
 240  1689.114
 241  1735.069
 242  1744.832
 243  1780.103
 244  1781.463
 245  1840.1
 246  1782.644
 247  1831.743
 248  1769.05
 249  1718.959
 250  1647.952
 251  1751.141
 252  1764.144
 253  1740.859
 254  1661.923
 255  1615.022
 256  1579.124
 257  1536.062
 258  1564.736
 259  1519.273
 260  1576.19
 261  1628.421
 262  1664.179
 263  1483.282
 264  1418.399
 265  1408.4
 266  1510.442
 267  1561.841
 268  1678.662
 269  1684.125
 270  1578.972
 271  1439.989
 272  1469.21
 273  1564.148
 274  1565.231
 275  1526.189
 276  1425.105
 277  1403.68
 278  1420.811
 279  1476.242
 280  1530.771
 281  1547
 282  1580.163
 283  1539.689
 284  1477.547
 285  1499.514
 286  1548.449
 287  1621.57
 288  1696.723
 289  1684.305
 290  1538.741
 291  1480.318
 292  1519.52
 293  1676.376
 294  1586.382
 295  1402.111
 296  1419.087
 297  1507.02
 298  1654.579
 299  1631.406
 300  1660.578
 301  1567.583
 302  1453.754
 303  1475.064
 304  1485.363
 305  1432.173
 306  1334.244
 307  1334.972
 308  1307.341
 309  1289.453
 310  1227.773
 311  1210.444
 312  1275.042
 313  1386.347
 314  1388.708
 315  1333.402
 316  1369.915
 317  1438.104
 318  1405.113
 319  1281.719
 320  1188.941
 321  1213.834
 322  1172.957
 323  1212.378
 324  1205.35
 325  1246.072
 326  1275.991
 327  1318.029
 328  1345.914
 329  1345.717
 330  1159.444
 331  1179.826
 332  1268.304
 333  1447.951
 334  1418.517
 335  1317.717
 336  1223.733
 337  1264.301
 338  1331.709
 339  1484.233
 340  1469.088
 341  1495.323
 342  1407.325
 343  1388.984
 344  1356.479
 345  1290.776
 346  1358.475
 347  1391.229
 348  1324.259
 349  1364.355
 350  1371.849
 351  1449.32
 352  1449.057
 353  1401.938
 354  1358.81
 355  1338.527
 356  1462.106
 357  1522.503
 358  1540.303
 359  1586.569
 360  1603.149
 361  1570.725
 362  1405.123
 363  1302.649
 364  1317.758
 365  1459.049
 366  1545.914
 367  1539.063
 368  1494.278
 369  1548.05
 370  1420.028
 371  1355.683
 372  1314.225
 373  1334.226
 374  1412.095
 375  1521.848
 376  1573.931
 377  1522.814
 378  1521.643
 379  1584.982
 380  1573.835
 381  1524.32
 382  1586.871
 383  1612.94
 384  1509.151
 385  1485.08
 386  1604.84
 387  1654.863
 388  1647.01
 389  1617.592
 390  1658.321
 391  1595.542
 392  1544.263
 393  1612.456
 394  1611.974
 395  1565.637
 396  1548.989
 397  1637.417
 398  1573.99
 399  1533.092
 400  1597.315
 401  1760.816
 402  1784.743
 403  1767.293
 404  1624.138
 405  1613.563
 406  1470.537
 407  1421.922
 408  1445.864
 409  1580.032
 410  1616.33
 411  1521.858
 412  1584.332
 413  1513.704
 414  1486.978
 415  1489.521
 416  1716.338
 417  1757.953
 418  1807.826
 419  1812.225
 420  1860.478
 421  1682.126
 422  1477.841
 423  1443.839
 424  1504.156
 425  1490.567
 426  1432.843
 427  1441.728
 428  1486.782
 429  1417.259
 430  1400.439
 431  1405.857
 432  1475.05
 433  1485.892
 434  1529.801
 435  1565.749
 436  1612.193
 437  1594.375
 438  1593.372
 439  1602.284
 440  1549.106
 441  1524.778
 442  1603.581
 443  1591.766
 444  1584.965
 445  1599.501
 446  1595.561
 447  1507.232
 448  1427.253
 449  1460.408
 450  1376.348
 451  1330.048
 452  1190.932
 453  1144.076
 454  1256.139
 455  1354.49
 456  1437.235
 457  1382.641
 458  1372.878
 459  1406.386
 460  1450.906
 461  1518.796
 462  1527.861
 463  1536.746
 464  1427.226
 465  1354.199
 466  1316.883
 467  1244.323
 468  1235.493
 469  1144.363
 470  1072.525
 471  1128.947
 472  1221.841
 473  1316.868
 474  1281.894
 475  1247.135
 476  1237.23
 477  1165.438
 478  1085.176
 479  1095.912
 480  1172.051
 481  1279.743
 482  1169.116
 483  1178.095
 484  1270.931
 485  1382.762
 486  1335.758
 487  1334.057
 488  1285.467
 489  1222.443
 490  1077.198
 491  1020.369
 492  1104.362
 493  1119.222
 494  1219.43
 495  1242.308
 496  1195.293
 497  1157.713
 498  1250.337
 499  1390.128
 500  1464.141
 501  1583.821
 502  1669.563
 503  1672.008
 504  1588.654
 505  1502.627
 506  1409.505
 507  1348.988
 508  1320.087
 509  1457.53
 510  1469.175
 511  1522.765
 512  1540.589
 513  1571.212
 514  1709.076
 515  1708.341
 516  1819.125
 517  1742.547
 518  1677.241
 519  1525.433
 520  1456.309
 521  1466.765
 522  1547.184
 523  1663.815
 524  1642.582
 525  1618.376
 526  1598.84
 527  1666.697
 528  1708.129
 529  1637.57
 530  1549.564
 531  1531.194
 532  1533.791
 533  1429.92
 534  1470.111
 535  1444.533
 536  1483.647
 537  1457.765
 538  1511.174
 539  1611.931
 540  1545.128
 541  1550.573
 542  1556.645
 543  1650.93
 544  1649.748
 545  1580.638
 546  1511.718
 547  1552.087
 548  1614.946
 549  1705.428
 550  1670.096
 551  1534.273
 552  1602.769
 553  1639.969
 554  1640.865
 555  1617.056
 556  1643.05
 557  1640.377
 558  1593.087
 559  1622.854
 560  1604.115
 561  1541.811
 562  1514.174
 563  1506.582
 564  1527.387
 565  1567.885
 566  1596.875
 567  1608.257
 568  1562.132
 569  1574.127
 570  1524.508
 571  1525.619
 572  1501.115
 573  1598.429
 574  1662.274
 575  1646.188
 576  1527.823
 577  1508.432
 578  1484.274
 579  1525.845
 580  1453.217
 581  1455.442
 582  1440.817
 583  1430.233
 584  1447.58
 585  1390.12
 586  1385.52
 587  1333.708
 588  1359.835
 589  1423.325
 590  1413.493
 591  1423.882
 592  1330.493
 593  1208.203
 594  1168.729
 595  1218.996
 596  1299.534
 597  1294.13
 598  1246.967
 599  1342.461
 600  1433.416
 601  1421.813
 602  1362.837
 603  1308.698
 604  1354.956
 605  1398.004
 606  1416.087
 607  1324.641
 608  1229.616
 609  1197.027
 610  1243.049
 611  1247.744
 612  1322.752
 613  1362.292
 614  1381.693
 615  1322.152
 616  1292.072
 617  1191.256
 618  1182.182
 619  1169.479
 620  1263.959
 621  1322.276
 622  1357.081
 623  1381.099
 624  1394.205
 625  1396.53
 626  1478.745
 627  1530.203
 628  1526.776
 629  1451.764
 630  1301.035
 631  1246.95
 632  1209.986
 633  1244.795
 634  1280.63
 635  1455.297
 636  1507.769
 637  1512.59
 638  1504.401
 639  1459.926
 640  1508.897
 641  1492.248
 642  1533.615
 643  1529.133
 644  1548.569
 645  1634.795
 646  1811.528
 647  1993.206
 648  2025.468
 649  2017.503
 650  2071.165
 651  2115.567
 652  2045.444
 653  1996.696
 654  1993.538
 655  1814.79
 656  1599.786
 657  1395.522
 658  1379.775
 659  1353.297
 660  1264.671
 661  1086.138
 662  1150.048
 663  1182.402
 664  1294.865
 665  1357.122
 666  1430.618
 667  1429.342
 668  1456.301
 669  1382.198
 670  1358.699
 671  1271.953
 672  1269.579
 673  1357.959
 674  1430.858
 675  1430.061
 676  1307.677
 677  1292.999
 678  1352.241
 679  1407.187
 680  1377.01
 681  1467.204
 682  1523.297
 683  1540.67
 684  1421.385
 685  1289.826
 686  1157.214
 687  1131.612
 688  1143.415
 689  1295.582
 690  1318.427
 691  1300.646
 692  1197.947
 693  1175.441
 694  1111.754
 695  1049.998
 696  980.6293
 697  1111.753
 698  1155.794
 699  1317.955
 700  1352.46
 701  1230.561
 702  1191.666
 703  1125.564
 704  1264.853
 705  1326.59
 706  1465.354
 707  1481.534
 708  1424.037
 709  1325.636
 710  1247.127
 711  1143.449
 712  1128.783
 713  1148.523
 714  1227.95
 715  1251.7
 716  1225.751
 717  1290.216
 718  1324.048
 719  1323.64
 720  1291.581
 721  1273.218
 722  1317.927
 723  1436.063
 724  1474.392
 725  1443.814
 726  1348.363
 727  1200.537
 728  1150.285
 729  1169.067
 730  1217.156
 731  1244
 732  1276.766
 733  1285.327
 734  1225.321
 735  1244.653
 736  1308.4
 737  1271.26
 738  1114.924
 739  1097.037
 740  1197.902
 741  1350.969
 742  1290.429
 743  1288.068
 744  1239.314
 745  1263.978
 746  1309.577
 747  1303.016
 748  1317.051
 749  1296.637
 750  1391.063
 751  1319.433
 752  1227.146
 753  1204.776
 754  1270.791
 755  1341.672
 756  1274.182
 757  1249.48
 758  1172.799
 759  1201.281
 760  1181.177
 761  1178.974
 762  1144.198
 763  1168.128
 764  1219.984
 765  1199.286
 766  1154.661
 767  1024.714
 768  1084.094
 769  1031.76
 770  1041.729
 771  936.0563
 772  884.3063
 773  935.7411
 774  1056.417
 775  1181.084
 776  1116.759
 777  1093.552
 778  1065.022
 779  1094.595
 780  1121.895
 781  1148.066
 782  1119.274
 783  1203.113
 784  1130.331
 785  1083.683
 786  917.2811
 787  935.121
 788  1040.035
 789  1128.33
 790  1142.655
 791  1061.362
 792  1069.657
 793  1205.51
 794  1279.061
 795  1188.218
 796  1129.609
 797  1098.889
 798  1131.405
 799  1168.6
 800  1265.692
 801  1254.239
 802  1145.232
 803  1076.719
 804  1125.421
 805  1140.529
 806  1155.996
 807  1190.711
 808  1276.441
 809  1243.104
 810  1201.223
 811  1100.149
 812  1162.364
 813  1189.871
 814  1205.162
 815  1169.224
 816  1155.995
 817  1153.434
 818  1128.095
 819  1158.301
 820  1192.991
 821  1191.627
 822  1078.25
 823  1064.445
 824  1120.898
 825  1221.469
 826  1286.97
 827  1146.671
 828  1051.892
 829  1015.549
 830  1072.701
 831  1212.521
 832  1217.856
 833  1305.318
 834  1358.361
 835  1370.716
 836  1345.73
 837  1207.586
 838  1142.621
 839  1121.249
 840  1094.15
 841  1115.51
 842  1115.475
 843  1120.886
 844  1217.473
 845  1277.658
 846  1347.267
 847  1300.49
 848  1200.098
 849  1151.105
 850  1182.861
 851  1149.361
 852  1110.114
 853  1081.207
 854  1124.31
 855  1161.792
 856  1176.879
 857  1124.749
 858  1141.975
 859  1134.341
 860  1177.732
 861  1104.79
 862  1104.056
 863  1186.897
 864  1155.03
 865  1157.022
 866  1095.607
 867  1097.406
 868  1140.284
 869  1171.787
 870  1225.344
 871  1179.996
 872  1122.175
 873  1134.946
 874  1213.395
 875  1332.674
 876  1318.67
 877  1314.852
 878  1149.2
 879  1154.427
 880  1301.382
 881  1416.204
 882  1300.798
 883  1197.705
 884  1319.483
 885  1380.11
 886  1384.23
 887  1344.827
 888  1334.982
 889  1200.748
 890  1218.917
 891  1281.34
 892  1243.741
 893  1156.909
 894  1169.423
 895  1182.831
 896  1227.102
 897  1194.65
 898  1262.345
 899  1136.602
 900  1043.999
 901  1103.348
 902  1142.373
 903  1081.266
 904  927.6302
 905  918.1158
 906  923.4598
 907  964.6323
 908  1007.267
 909  1132.789
 910  1122.267
 911  1160.807
 912  1127.747
 913  1160.739
 914  1098.546
 915  1049.209
 916  1129.426
 917  1227.282
 918  1263.264
 919  1250.27
 920  1177.445
 921  1222.901
 922  1127.036
 923  1158.232
 924  1090.668
 925  1031.035
 926  902.9706
 927  980.3787
 928  1083.139
 929  1170.711
 930  1188.928
 931  1200.167
 932  1155.633
 933  1209.608
 934  1135.252
 935  1150.607
 936  1064.385
 937  1040.435
 938  1109.221
 939  1097.919
 940  1110.959
 941  1169.423
 942  1135.854
 943  1126.27
 944  1003.899
 945  1060.691
 946  964.9713
 947  1039.034
 948  1121.172
 949  1271.17
 950  1265.226
 951  1310.892
 952  1249.058
 953  1148.537
 954  1101.375
 955  1162.91
 956  1187.621
 957  1183.798
 958  1161.34
 959  1122.794
 960  1143.009
 961  1263.845
 962  1393.859
 963  1492.551
 964  1467.774
 965  1476.899
 966  1350.153
 967  1314.039
 968  1347.289
 969  1432.698
 970  1432.76
 971  1428.315
 972  1411.453
 973  1346.222
 974  1377.069
 975  1454.529
 976  1528.197
 977  1557.354
 978  1610.912
 979  1659.161
 980  1626.309
 981  1557.661
 982  1497.82
 983  1460.629
 984  1406.964
 985  1438.691
 986  1522.496
 987  1611.607
 988  1608.46
 989  1626.662
 990  1532.508
 991  1571.203
 992  1645.577
 993  1763.243
 994  1740.673
 995  1710.192
 996  1742.253
 997  1842.474
 998  1785.181
 999  1710.59
1000  1600.905
1001  1608.543
1002  1544.509
1003  1476.164
1004  1545.059
1005  1626.282
1006  1757.502
1007  1801.825
1008  1816.264
1009  1777.91
1010  1663.91
1011  1644.797
1012  1683.458
1013  1729.487
1014  1737.789
1015  1711.619
1016  1732.245
1017  1653.602
1018  1597.098
1019  1570.803
1020  1540.833
1021  1552.68
1022  1554.693
1023  1573.826
