# Input file       =  1185319809.105933_cleaned.dat
# Candidate        =  PSR_0332+5434
# Telescope        =  AR
# Epoch_topo       =  57962.979491966813
# Epoch_bary       =  N/A
# T_sample         =  0.002
# Data Folded      =  7208960
# Data Avg         =  0.230302656913939
# Data StdDev      =  5.84841248178073 
# Profile Bins     =  1024
# Profile Avg      =  1621.31572749421 
# Profile StdDev   =  490.709340691231 
# Reduced chi-sqr  =  0.357
# Prob(Noise)      <  1   (~0.0 sigma)
# P_topo (ms)      =  714.470851755571  +/- 7.9e-05
# P'_topo (s/s)    =  -0                +/- 4.25e-11
# P''_topo (s/s^2) =  0                 +/- 1.91e-14
# P_bary (ms)      =  N/A
# P'_bary (s/s)    =  N/A
# P''_bary (s/s^2) =  N/A
# P_orb (s)        =  N/A
# asin(i)/c (s)    =  N/A
# eccentricity     =  N/A
# w (rad)          =  N/A
# T_peri           =  N/A
######################################################
   0  1652.393
   1  1710.662
   2  1698.705
   3  1660.145
   4  1525.911
   5  1563.789
   6  1640.865
   7  1837.895
   8  1749.253
   9  1680.508
  10  1718.955
  11  1710.444
  12  1774.197
  13  1649.586
  14  1635.934
  15  1580.45
  16  1724.973
  17  1711.019
  18  1621.889
  19  1671.426
  20  1738.512
  21  1688.248
  22  1596.898
  23  1633.108
  24  1634.139
  25  1626.729
  26  1727.748
  27  1786.561
  28  1791.403
  29  1834.748
  30  1938.696
  31  1722.577
  32  1503.024
  33  1347.572
  34  1616.775
  35  1600.129
  36  1665.766
  37  1536.576
  38  1679.032
  39  1664.87
  40  1682.796
  41  1660.266
  42  1622.013
  43  1726.207
  44  1820.184
  45  1918.973
  46  1837.434
  47  1740.271
  48  1584.417
  49  1566.493
  50  1619.526
  51  1648.878
  52  1668.362
  53  1668.476
  54  1807.967
  55  1924.753
  56  2040.795
  57  2058.057
  58  1950.058
  59  1843.69
  60  1913.397
  61  1980.519
  62  2015.074
  63  1800.382
  64  1694.803
  65  1672.534
  66  1577.318
  67  1480.5
  68  1457.664
  69  1488.268
  70  1588.7
  71  1591.835
  72  1670.318
  73  1589.344
  74  1581.907
  75  1619.117
  76  1678.313
  77  1732.274
  78  1717.198
  79  1746.826
  80  1900.744
  81  1993.071
  82  1865.242
  83  1642.002
  84  1486.197
  85  1550.724
  86  1459.517
  87  1386.33
  88  1474.992
  89  1540.448
  90  1504.106
  91  1443.123
  92  1577.171
  93  1794.543
  94  1830.939
  95  1867.76
  96  1748.974
  97  1680.565
  98  1631.964
  99  1611.256
 100  1448.003
 101  1303.823
 102  1253.353
 103  1411.739
 104  1506.904
 105  1468.745
 106  1472.033
 107  1464.227
 108  1662.878
 109  1676.997
 110  1697.814
 111  1567.761
 112  1705.383
 113  1715.809
 114  1823.252
 115  1776.482
 116  1827.558
 117  1624.035
 118  1481.226
 119  1382.632
 120  1332.095
 121  1349.286
 122  1364.571
 123  1309.054
 124  1257.34
 125  1449.922
 126  1775.495
 127  1783.242
 128  1819.669
 129  1681.093
 130  1771.035
 131  1649.856
 132  1752.217
 133  1857.667
 134  1761.4
 135  1672.137
 136  1608.777
 137  1540.017
 138  1419.407
 139  1394.355
 140  1538.87
 141  1502.854
 142  1450.37
 143  1544.858
 144  1587.49
 145  1529.113
 146  1611.816
 147  1677.383
 148  1636.691
 149  1430.602
 150  1438.839
 151  1458.842
 152  1438.018
 153  1512.829
 154  1388.161
 155  1516.422
 156  1554.179
 157  1615.672
 158  1435.421
 159  1418.169
 160  1314.144
 161  1346.006
 162  1295.437
 163  1430.09
 164  1491.097
 165  1395.787
 166  1471.591
 167  1516.914
 168  1775.671
 169  1846.241
 170  1697.164
 171  1599.924
 172  1538.594
 173  1672.899
 174  1602.383
 175  1449.539
 176  1347.005
 177  1373.55
 178  1463.427
 179  1418.515
 180  1540.767
 181  1569.597
 182  1674.866
 183  1620.896
 184  1672.463
 185  1702.292
 186  1911.038
 187  1867.928
 188  1717.433
 189  1546.132
 190  1641.209
 191  1765.075
 192  1573.771
 193  1518.276
 194  1616.295
 195  1823.103
 196  1678.479
 197  1662.201
 198  1656.752
 199  1710.321
 200  1721.247
 201  1699.032
 202  1721.535
 203  1591.087
 204  1630.223
 205  1562.446
 206  1533.956
 207  1553.614
 208  1710.118
 209  1812.405
 210  1711.329
 211  1623.749
 212  1547.845
 213  1500.322
 214  1546.484
 215  1674.917
 216  1570.509
 217  1344.027
 218  1330.249
 219  1378.459
 220  1546.209
 221  1641.286
 222  1854.57
 223  1796.039
 224  1763.594
 225  1711.765
 226  1768.906
 227  1886.049
 228  1997.709
 229  1896.565
 230  1575.922
 231  1457.827
 232  1538.861
 233  1691.183
 234  1570.303
 235  1506.167
 236  1425.368
 237  1536.4
 238  1538.685
 239  1589.31
 240  1633.357
 241  1694.911
 242  1788.477
 243  1790.195
 244  1855.793
 245  1949.534
 246  1987.575
 247  1776.985
 248  1623.73
 249  1601.125
 250  1533.027
 251  1563.607
 252  1445.341
 253  1448.279
 254  1351.174
 255  1699.013
 256  1902.21
 257  1875.689
 258  1712.224
 259  1879.876
 260  1958.99
 261  1886.267
 262  1737.189
 263  1753.275
 264  1662.243
 265  1652.104
 266  1580.537
 267  1690.626
 268  1543.163
 269  1627.982
 270  1543.287
 271  1487.692
 272  1368.022
 273  1476.585
 274  1788.294
 275  1775.409
 276  1840.921
 277  1779.686
 278  1753.826
 279  1666.58
 280  1773.952
 281  1772.198
 282  1711.945
 283  1500.977
 284  1418.42
 285  1332.359
 286  1392.99
 287  1576.181
 288  1537.869
 289  1513.417
 290  1448.592
 291  1478.816
 292  1696.513
 293  1787.648
 294  2036.245
 295  2032.681
 296  2139.972
 297  1936.223
 298  1809.217
 299  1629.415
 300  1536.995
 301  1541.814
 302  1388.413
 303  1370.361
 304  1506.554
 305  1656.325
 306  1613.615
 307  1596.182
 308  1612.774
 309  1713.873
 310  1807.475
 311  2004.152
 312  1918.825
 313  1799.427
 314  1805.829
 315  1769.716
 316  1667.854
 317  1444.424
 318  1520.103
 319  1549.568
 320  1657.393
 321  1731.47
 322  1640.206
 323  1707.673
 324  1758.695
 325  1931.125
 326  1790.928
 327  1817.97
 328  1848.899
 329  1901.871
 330  1800.577
 331  1606.8
 332  1597.845
 333  1396.35
 334  1451.247
 335  1528.396
 336  1661.491
 337  1536.284
 338  1503.194
 339  1692.337
 340  1778.873
 341  1750.298
 342  1789.712
 343  1922.346
 344  1885.364
 345  1824.146
 346  1837.636
 347  1828.211
 348  1800.082
 349  1602.104
 350  1559.925
 351  1608.224
 352  1646.428
 353  1599.398
 354  1604.434
 355  1659.917
 356  1667.869
 357  1606.45
 358  1597.932
 359  1568.592
 360  1553.224
 361  1648.226
 362  1698.997
 363  1713.405
 364  1660.266
 365  1702.16
 366  1835.464
 367  1739.509
 368  1665.921
 369  1604.083
 370  1599.314
 371  1548.104
 372  1565.868
 373  1624.941
 374  1669.853
 375  1681.307
 376  1689.472
 377  1635.056
 378  1681.275
 379  1862.642
 380  1908.765
 381  1824.57
 382  1710.509
 383  1681.534
 384  1639.441
 385  1570.436
 386  1585.66
 387  1565.138
 388  1576.502
 389  1602.654
 390  1681.26
 391  1587.173
 392  1636.888
 393  1681.083
 394  1833.728
 395  1623.927
 396  1511.18
 397  1511.985
 398  1678.382
 399  1793.441
 400  1636.912
 401  1566.243
 402  1438.561
 403  1605.124
 404  1621.213
 405  1604.396
 406  1549.509
 407  1597.645
 408  1711.042
 409  1659.838
 410  1661.436
 411  1655.176
 412  1633.527
 413  1744.908
 414  1764.015
 415  1851.265
 416  1723.765
 417  1710.188
 418  1557.73
 419  1525.953
 420  1603.429
 421  1776.784
 422  1760.784
 423  1711.667
 424  1591.858
 425  1598.847
 426  1664.807
 427  1708.769
 428  1734.618
 429  1753.229
 430  1802.576
 431  1741.139
 432  1630.253
 433  1570.431
 434  1449.746
 435  1424.923
 436  1387.253
 437  1457.572
 438  1426.821
 439  1374.756
 440  1485.777
 441  1599.197
 442  1724.594
 443  1699.463
 444  1760.446
 445  1759.185
 446  1638.829
 447  1567.674
 448  1599.504
 449  1562.258
 450  1540.645
 451  1546.011
 452  1653.141
 453  1730.104
 454  1713.846
 455  1683.459
 456  1597.303
 457  1656.351
 458  1687.936
 459  1708.238
 460  1756.251
 461  1733.981
 462  1796.413
 463  1744.293
 464  1749.866
 465  1639.48
 466  1553.884
 467  1470.189
 468  1503.758
 469  1486.953
 470  1552.228
 471  1681.737
 472  1825.942
 473  1795.413
 474  1751.006
 475  1779.672
 476  1721.604
 477  1680.103
 478  1784.098
 479  1790.187
 480  1622.904
 481  1404.306
 482  1514.893
 483  1437.166
 484  1523.643
 485  1623.354
 486  1879.769
 487  1991.297
 488  2025.228
 489  1845.756
 490  1716.146
 491  1609.356
 492  1861.232
 493  1937.409
 494  1942.5
 495  1790.143
 496  1597.531
 497  1447.507
 498  1364.767
 499  1401.338
 500  1608.558
 501  1666.802
 502  1586.021
 503  1464.661
 504  1454.523
 505  1631.991
 506  1765.15
 507  1627.721
 508  1482.429
 509  1546.857
 510  1697.095
 511  1794.763
 512  1616.774
 513  1594.733
 514  1511.088
 515  1588.917
 516  1560.424
 517  1500.213
 518  1500.717
 519  1599.984
 520  1615.664
 521  1676.113
 522  1761.246
 523  1820.922
 524  1797.869
 525  1714.354
 526  1651.962
 527  1684.251
 528  1639.603
 529  1708.514
 530  1618.723
 531  1704.432
 532  1767.124
 533  1811.187
 534  1934.755
 535  1799
 536  1709.956
 537  1555.093
 538  1651.269
 539  1672.958
 540  1803.072
 541  1719.56
 542  1666.307
 543  1563.265
 544  1524.662
 545  1474.328
 546  1505.099
 547  1547.269
 548  1465.268
 549  1289.032
 550  1272.131
 551  1350.638
 552  1492.125
 553  1416.241
 554  1521.566
 555  1545.8
 556  1815.123
 557  1694.516
 558  1737.738
 559  1625.263
 560  1792.108
 561  1677.621
 562  1652.748
 563  1648.419
 564  1524.543
 565  1421.992
 566  1336.053
 567  1390.169
 568  1414.051
 569  1425.503
 570  1569.477
 571  1658.484
 572  1516.873
 573  1436.52
 574  1420.902
 575  1585.195
 576  1654.908
 577  1631.271
 578  1576.816
 579  1370.485
 580  1328.342
 581  1448.75
 582  1397.906
 583  1408.547
 584  1358.279
 585  1431.341
 586  1345.949
 587  1403.016
 588  1470.972
 589  1463.931
 590  1370.986
 591  1528.205
 592  1550.624
 593  1591.612
 594  1495.745
 595  1530.333
 596  1567.405
 597  1620.272
 598  1621.983
 599  1694.412
 600  1604.667
 601  1561.402
 602  1379.936
 603  1278.686
 604  1190.825
 605  1268.517
 606  1472.676
 607  1492.131
 608  1507.953
 609  1553.824
 610  1636.095
 611  1552.138
 612  1412.568
 613  1317.804
 614  1325.871
 615  1455.111
 616  1531.054
 617  1512.894
 618  1539.959
 619  1657.437
 620  1752.4
 621  1668.252
 622  1634.017
 623  1590.309
 624  1663.607
 625  1654.017
 626  1561.057
 627  1420.959
 628  1419.298
 629  1360.08
 630  1455.918
 631  1414.72
 632  1341.377
 633  1403.765
 634  1595.993
 635  1717.296
 636  1661.059
 637  1689.04
 638  1724.521
 639  1685.25
 640  1665.053
 641  1606.962
 642  1603.233
 643  1578.344
 644  1768.072
 645  1900.557
 646  2081.312
 647  1959.16
 648  2164.724
 649  2243.391
 650  2400.427
 651  2162.585
 652  2144.226
 653  2081.791
 654  2062.963
 655  1979.188
 656  2092.687
 657  2004.76
 658  1918.259
 659  1865.241
 660  1836.278
 661  1791.494
 662  1670.109
 663  1682.068
 664  1734.101
 665  1574.533
 666  1588.347
 667  1537.39
 668  1503.585
 669  1434.73
 670  1329.075
 671  1416.63
 672  1451.771
 673  1638.333
 674  1705.866
 675  1531.106
 676  1637.367
 677  1673.469
 678  1676.332
 679  1371.239
 680  1302.181
 681  1474.849
 682  1604.63
 683  1752.083
 684  1758.485
 685  1600.131
 686  1450.124
 687  1527.2
 688  1611.011
 689  1794.562
 690  1722.847
 691  1673.334
 692  1590.541
 693  1591.735
 694  1525.998
 695  1534.735
 696  1479.753
 697  1399.575
 698  1277.959
 699  1216.057
 700  1337.763
 701  1378.857
 702  1463.796
 703  1429.752
 704  1455.764
 705  1473.235
 706  1515.711
 707  1568.618
 708  1649.052
 709  1640.121
 710  1682.568
 711  1723.515
 712  1715.807
 713  1484.197
 714  1462.292
 715  1583.228
 716  1598.293
 717  1493.607
 718  1398.801
 719  1256.402
 720  1351.189
 721  1557.277
 722  1899.536
 723  1792.105
 724  1718.69
 725  1542.457
 726  1683.441
 727  1624.944
 728  1580.63
 729  1668.882
 730  1623.258
 731  1644.332
 732  1502.849
 733  1410.866
 734  1203.648
 735  1102.874
 736  1369.064
 737  1525.514
 738  1646.35
 739  1677.105
 740  1630.472
 741  1545.586
 742  1588.659
 743  1717.172
 744  1686.191
 745  1588.397
 746  1599.8
 747  1708.657
 748  1629.129
 749  1573.58
 750  1404.203
 751  1439.688
 752  1508.042
 753  1719.252
 754  1748.353
 755  1699.368
 756  1589.504
 757  1605.522
 758  1612.063
 759  1651.364
 760  1639.904
 761  1621.24
 762  1554.38
 763  1572.186
 764  1538.731
 765  1508.568
 766  1424.623
 767  1507.254
 768  1431.797
 769  1491.478
 770  1457.48
 771  1487.774
 772  1553.556
 773  1730.808
 774  1694.636
 775  1677.312
 776  1651.707
 777  1504.398
 778  1298.606
 779  1272.377
 780  1395.001
 781  1344.054
 782  1412.536
 783  1571.958
 784  1583.555
 785  1486.569
 786  1594.837
 787  1770.526
 788  1781.044
 789  1951.147
 790  2040.168
 791  1985.497
 792  1811.708
 793  1800.512
 794  1916.791
 795  1712.949
 796  1595.657
 797  1460.127
 798  1443.48
 799  1341.312
 800  1382.485
 801  1578.88
 802  1509.718
 803  1490.365
 804  1615.646
 805  1795.283
 806  1707.834
 807  1661.094
 808  1609.367
 809  1550.448
 810  1416.84
 811  1535.079
 812  1684.108
 813  1581.412
 814  1534.04
 815  1406.169
 816  1590.992
 817  1580.135
 818  1602.255
 819  1552.035
 820  1689.62
 821  1681.188
 822  1740.644
 823  1645.697
 824  1639.53
 825  1614.502
 826  1606.541
 827  1590.984
 828  1480.372
 829  1402.413
 830  1417.893
 831  1419.532
 832  1496.472
 833  1561.552
 834  1627.472
 835  1773.013
 836  1711.495
 837  1738.735
 838  1683.463
 839  1589.735
 840  1575.884
 841  1641.07
 842  1669.811
 843  1505.696
 844  1448.294
 845  1513.437
 846  1442.268
 847  1541.589
 848  1660.848
 849  1689.2
 850  1562.518
 851  1567.376
 852  1513.824
 853  1514.009
 854  1525.347
 855  1680.485
 856  1656.114
 857  1537.187
 858  1560.986
 859  1666.296
 860  1576.849
 861  1540.959
 862  1478.166
 863  1713.94
 864  1603.043
 865  1520.883
 866  1300.951
 867  1241.432
 868  1433.95
 869  1599.993
 870  1677.819
 871  1566.794
 872  1613.032
 873  1776.564
 874  1762.438
 875  1652.185
 876  1604.455
 877  1630.842
 878  1657.757
 879  1596.917
 880  1571.292
 881  1632.496
 882  1644.309
 883  1622.178
 884  1675.495
 885  1693.647
 886  1729.671
 887  1664.818
 888  1697.014
 889  1597.188
 890  1656.509
 891  1665.796
 892  1801.704
 893  1674.821
 894  1644.532
 895  1647.786
 896  1675.889
 897  1672.054
 898  1580.127
 899  1578.608
 900  1602.621
 901  1598.662
 902  1523.696
 903  1567.569
 904  1670.016
 905  1786.769
 906  1841.927
 907  1858.953
 908  1864.182
 909  1822.466
 910  1768.24
 911  1478.356
 912  1194.555
 913  1266.978
 914  1420.801
 915  1582.554
 916  1580.888
 917  1682.625
 918  1742.587
 919  1790.303
 920  1807.896
 921  1698.073
 922  1554.332
 923  1608.998
 924  1543.776
 925  1449.33
 926  1300.903
 927  1288.211
 928  1399.163
 929  1393.284
 930  1394.174
 931  1435.324
 932  1486.454
 933  1629.083
 934  1700.639
 935  1771.872
 936  1729.186
 937  1738.944
 938  1799.688
 939  1737.532
 940  1689.737
 941  1671.934
 942  1615.573
 943  1650.474
 944  1685.14
 945  1634.919
 946  1546.231
 947  1471.58
 948  1477.316
 949  1552.611
 950  1618.968
 951  1659.931
 952  1585.727
 953  1689.174
 954  1829.223
 955  1966.239
 956  2016.787
 957  2045.263
 958  1882.521
 959  1653.427
 960  1495.835
 961  1495.514
 962  1619.7
 963  1576.316
 964  1654.893
 965  1493.915
 966  1447.133
 967  1360.393
 968  1493.977
 969  1668.428
 970  1695.254
 971  1715.064
 972  1719.459
 973  1657.071
 974  1754.946
 975  1905.376
 976  1774.553
 977  1601.046
 978  1608.088
 979  1702.325
 980  1610.101
 981  1313.85
 982  1530.31
 983  1605.71
 984  1711.699
 985  1585.037
 986  1649.357
 987  1662.792
 988  1676.75
 989  1662.411
 990  1688.874
 991  1661.525
 992  1560.401
 993  1553.997
 994  1458.779
 995  1256.62
 996  1173.373
 997  1165.448
 998  1358.262
 999  1453.901
1000  1514.937
1001  1554.291
1002  1549.667
1003  1682.1
1004  1607.577
1005  1660.466
1006  1628.384
1007  1662.215
1008  1609.268
1009  1729.867
1010  1625.528
1011  1687.635
1012  1557.863
1013  1668.704
1014  1531.959
1015  1520.683
1016  1449.299
1017  1479.339
1018  1541.461
1019  1635.799
1020  1556.484
1021  1624.366
1022  1595.953
1023  1646.141
