# Input file       =  1185090823.101021_cleaned.dat
# Candidate        =  PSR_0332+5434
# Telescope        =  AR
# Epoch_topo       =  57960.329190984041
# Epoch_bary       =  N/A
# T_sample         =  0.002
# Data Folded      =  7340032
# Data Avg         =  0.327187012760467
# Data StdDev      =  5.61108604188992 
# Profile Bins     =  256
# Profile Avg      =  9379.46819209156 
# Profile StdDev   =  950.114448116895 
# Reduced chi-sqr  =  1.215
# Prob(Noise)      <  0.0107   (~2.3 sigma)
# P_topo (ms)      =  714.472514357392  +/- 0.00042
# P'_topo (s/s)    =  -0                +/- 2.22e-10
# P''_topo (s/s^2) =  0                 +/- 9.78e-14
# P_bary (ms)      =  N/A
# P'_bary (s/s)    =  N/A
# P''_bary (s/s^2) =  N/A
# P_orb (s)        =  N/A
# asin(i)/c (s)    =  N/A
# eccentricity     =  N/A
# w (rad)          =  N/A
# T_peri           =  N/A
######################################################
   0  10149.41
   1  10715.58
   2  10585.83
   3  11094.78
   4  11679.16
   5  11719.73
   6  10609.51
   7  10613.96
   8  10207.43
   9  10040.01
  10  10095.83
  11  9685.89
  12  9330.095
  13  9082.512
  14  8502.275
  15  8753.655
  16  9047.721
  17  10109.32
  18  9515.533
  19  9336.06
  20  9196.787
  21  9342.384
  22  9612.246
  23  8820.145
  24  9868.396
  25  11897.55
  26  10900.45
  27  10526.23
  28  10647.47
  29  10780.66
  30  10626.17
  31  10096.03
  32  9584.553
  33  9648.249
  34  10487.3
  35  10771.58
  36  9784.262
  37  9250.053
  38  9291.831
  39  9848.022
  40  10534.09
  41  9865.539
  42  9020.017
  43  8760.414
  44  9519.646
  45  9741.293
  46  10055.34
  47  9226.559
  48  9643.921
  49  10706.1
  50  9197.111
  51  9252.578
  52  9613.347
  53  10044.57
  54  9886.079
  55  9993.671
  56  9693.03
  57  9153.728
  58  9283.982
  59  9643.106
  60  10255.57
  61  9793.554
  62  10778.48
  63  10372.95
  64  10113.62
  65  10095.94
  66  10424.06
  67  10149.62
  68  9125.235
  69  9191.501
  70  9734.555
  71  9099.361
  72  7809.209
  73  7858.236
  74  8514.947
  75  9370.733
  76  8208.589
  77  8300.155
  78  9040.092
  79  8959.144
  80  8814.612
  81  9858.891
  82  10499.56
  83  10803.05
  84  10979.14
  85  10697.52
  86  10575.5
  87  10300.02
  88  9981.132
  89  10740.25
  90  10818.31
  91  10521.27
  92  10136.16
  93  10343.45
  94  10814.68
  95  10271.59
  96  9591.047
  97  10008.39
  98  9371.517
  99  9042.428
 100  9633.912
 101  9773.319
 102  9614.808
 103  9410.161
 104  9766.812
 105  8370.673
 106  8914.534
 107  8763.842
 108  8323.907
 109  8276.471
 110  8649.933
 111  8281.863
 112  8655.934
 113  9216.328
 114  10187.53
 115  10424.52
 116  9913.189
 117  9489.026
 118  8936.852
 119  9113.336
 120  9396.933
 121  9169.324
 122  9062.675
 123  8394.808
 124  8782.157
 125  9320.996
 126  9578.046
 127  9078.606
 128  9362.354
 129  9029.882
 130  9921.521
 131  8810.23
 132  8742.518
 133  8854.091
 134  9388.982
 135  8388.636
 136  7845.816
 137  8029.377
 138  8249.765
 139  8793.715
 140  8755.894
 141  8753.582
 142  8568.497
 143  9074.719
 144  8154.39
 145  8912.195
 146  9108.962
 147  8550.226
 148  9537.689
 149  9179.294
 150  9549.301
 151  10280.14
 152  9749.37
 153  9287.885
 154  8661.671
 155  8972.6
 156  8177.8
 157  8971.637
 158  9473.805
 159  8898.944
 160  9589.239
 161  11574.82
 162  12692.38
 163  12640.8
 164  10857.12
 165  10268.16
 166  9910.43
 167  8710.614
 168  8672.667
 169  8596.406
 170  9007.021
 171  8626.851
 172  9120.504
 173  8696.288
 174  8210.393
 175  8928.689
 176  9477.667
 177  8809.018
 178  8970.39
 179  9704.523
 180  9870.113
 181  9820.078
 182  10515.56
 183  9198.153
 184  8626.324
 185  8451.062
 186  9387.581
 187  8674.858
 188  8103.971
 189  8744.386
 190  8328.575
 191  8173.526
 192  8422.405
 193  7475.149
 194  6973.332
 195  7587.973
 196  7670.321
 197  7081.78
 198  8176.292
 199  8781.48
 200  8719.387
 201  8717.333
 202  9801.061
 203  8937.649
 204  9652.654
 205  9371.848
 206  9364.23
 207  9555.778
 208  9060.717
 209  9127.176
 210  8285.663
 211  7933.878
 212  7783.394
 213  8013.247
 214  7871.86
 215  7801.739
 216  7967.573
 217  8665.436
 218  8929.236
 219  8471.69
 220  8466.829
 221  8462.438
 222  8614.831
 223  8709.848
 224  9014.266
 225  8842.604
 226  9381.865
 227  9496.679
 228  9806.106
 229  9769.539
 230  8572.826
 231  8403.338
 232  8836.253
 233  8458.134
 234  7995.77
 235  9520.347
 236  9311.304
 237  9376.868
 238  9578.128
 239  9631.126
 240  10106.14
 241  10662.65
 242  9889.657
 243  9348.305
 244  9340.549
 245  9275.854
 246  9279.865
 247  9880.84
 248  10087.63
 249  8445.385
 250  9437.346
 251  9798.838
 252  9395.119
 253  9753.432
 254  10322.36
 255  10123.51
