# Input file       =  1185177007.112782_cleaned.dat
# Candidate        =  PSR_0332+5434
# Telescope        =  AR
# Epoch_topo       =  57961.326691120164
# Epoch_bary       =  N/A
# T_sample         =  0.002
# Data Folded      =  7340032
# Data Avg         =  0.320454461853452
# Data StdDev      =  5.15210693280542 
# Profile Bins     =  512
# Profile Avg      =  4593.56228743365 
# Profile StdDev   =  616.877406802581 
# Reduced chi-sqr  =  0.716
# Prob(Noise)      <  1   (~0.0 sigma)
# P_topo (ms)      =  714.472007403448  +/- 0.000494
# P'_topo (s/s)    =  -0                +/- 2.61e-10
# P''_topo (s/s^2) =  0                 +/- 1.15e-13
# P_bary (ms)      =  N/A
# P'_bary (s/s)    =  N/A
# P''_bary (s/s^2) =  N/A
# P_orb (s)        =  N/A
# asin(i)/c (s)    =  N/A
# eccentricity     =  N/A
# w (rad)          =  N/A
# T_peri           =  N/A
######################################################
   0  4330.524
   1  4059.327
   2  4020.631
   3  4139.574
   4  4438.799
   5  4513.752
   6  4531.073
   7  4746.804
   8  4698.602
   9  4277.138
  10  4220.857
  11  4515.843
  12  4291.145
  13  4396.547
  14  4575.904
  15  4246.644
  16  4383.113
  17  4333.323
  18  4250.475
  19  4357.302
  20  4465.955
  21  4407.613
  22  4035.146
  23  4052.194
  24  4559.712
  25  4819.979
  26  4487.057
  27  4733.578
  28  4458.291
  29  4416.422
  30  4508.446
  31  4790.75
  32  4701.337
  33  4628.509
  34  4627.822
  35  4743.911
  36  4855.28
  37  4632.931
  38  4811.822
  39  5035.079
  40  5056.027
  41  4582.735
  42  4283.266
  43  4464.574
  44  4232.696
  45  3790.95
  46  4402.941
  47  4673.668
  48  4749.562
  49  4419.074
  50  4568.511
  51  4437.11
  52  4550.235
  53  4441.818
  54  4356.564
  55  4444.378
  56  4769.837
  57  4573.983
  58  4633.352
  59  4697.971
  60  4828.594
  61  5179.22
  62  5150.321
  63  5247.756
  64  5322.444
  65  5151.954
  66  5169.398
  67  4966.268
  68  4985.745
  69  4989.817
  70  4823.689
  71  4793.938
  72  4818.601
  73  4334.451
  74  4533.815
  75  4787.083
  76  4210.873
  77  3841.824
  78  4103.565
  79  4564.467
  80  4511.936
  81  4398.013
  82  4304.062
  83  4128.365
  84  4334.863
  85  4548.694
  86  4757.078
  87  4717.939
  88  4828.594
  89  4809.746
  90  5084.56
  91  5102.477
  92  4921.596
  93  5012.377
  94  5207.895
  95  5162.337
  96  5257.499
  97  5176.067
  98  5051.703
  99  5284.781
 100  5313.637
 101  5056.792
 102  4722.902
 103  4289.582
 104  5092.265
 105  5255.724
 106  5537.903
 107  5540.337
 108  5113.974
 109  5105.424
 110  4862.025
 111  4705.473
 112  4660.351
 113  4683.411
 114  5332.287
 115  5430.018
 116  5179.099
 117  5321.542
 118  5066.441
 119  5033.489
 120  4844.334
 121  4728.552
 122  5166.781
 123  5328.368
 124  5209.363
 125  5122.825
 126  5278.645
 127  4973.369
 128  4955.149
 129  5249.161
 130  5347.099
 131  5146.979
 132  4977.84
 133  5144.205
 134  5406.213
 135  4930.646
 136  5042.387
 137  5297.246
 138  4730.085
 139  4838.58
 140  4828.012
 141  4824.744
 142  4607.897
 143  4749.97
 144  4349.873
 145  4302.846
 146  4401.708
 147  4358.99
 148  4237.791
 149  4092.771
 150  4315.769
 151  4236.671
 152  4276.385
 153  4184.956
 154  4188.919
 155  4580.16
 156  4666.088
 157  4447.843
 158  4342.451
 159  4275.074
 160  4344.315
 161  4641.354
 162  4889.01
 163  4722.118
 164  4926.061
 165  4983.133
 166  5080.723
 167  5180.621
 168  5074.268
 169  5020.82
 170  5124.552
 171  4661.331
 172  4853.974
 173  4643.815
 174  4417.813
 175  4994.595
 176  5047.333
 177  4811.192
 178  4630.259
 179  4649.57
 180  5066.793
 181  5221.083
 182  4751.516
 183  4785.535
 184  4664.547
 185  4423.179
 186  4672.566
 187  4557.135
 188  4551.847
 189  4530.077
 190  4497.161
 191  4620.887
 192  4726.029
 193  4942.637
 194  5095.049
 195  4873.079
 196  4656.153
 197  4514.848
 198  4562.86
 199  4874.658
 200  4812.342
 201  4895.33
 202  4837.507
 203  4468.282
 204  4636.629
 205  4565.455
 206  4340.34
 207  4684.152
 208  4776.663
 209  4802.007
 210  4602.592
 211  4511.292
 212  4525.354
 213  4286.333
 214  4396.724
 215  4627.563
 216  4333.756
 217  4222.179
 218  4148.217
 219  4508.41
 220  4582.359
 221  4707.84
 222  4343.176
 223  4022.052
 224  4039.783
 225  4403.34
 226  4429.596
 227  4116.136
 228  4146.951
 229  4328.495
 230  4242.174
 231  4456.344
 232  4532.568
 233  4741.876
 234  4497.382
 235  4678.083
 236  4729.578
 237  4374.589
 238  4507.015
 239  4300.176
 240  4354.379
 241  4434.873
 242  4346.214
 243  4184.903
 244  4181.166
 245  4258.393
 246  4081.889
 247  4159.926
 248  4085.74
 249  4017.872
 250  4334.428
 251  4338.503
 252  4332.058
 253  4228.549
 254  4266.688
 255  4199.25
 256  4473.502
 257  4637.862
 258  4337.213
 259  4447.626
 260  4428.746
 261  4435.476
 262  4725.477
 263  4707.285
 264  5203.516
 265  5141.319
 266  4954.939
 267  4747.977
 268  4807.245
 269  4850.438
 270  5068.974
 271  5313.85
 272  5210.447
 273  5061.885
 274  5004.135
 275  5052.7
 276  4785.61
 277  4553.715
 278  4740.47
 279  4395.934
 280  4244.923
 281  4255.851
 282  4098.02
 283  4223.966
 284  4304.884
 285  4296.239
 286  4301.111
 287  4178.674
 288  4423.662
 289  4508.281
 290  4547.568
 291  4679.743
 292  4455.705
 293  4652.37
 294  5070.393
 295  5086.521
 296  4647.454
 297  4689.614
 298  4929.247
 299  4588.461
 300  4305.812
 301  4545.068
 302  4572.159
 303  4619.9
 304  4689.36
 305  4386.902
 306  4284.514
 307  4451.523
 308  4556.704
 309  4589.514
 310  4632.408
 311  4880.709
 312  4314.123
 313  4480.866
 314  4293.83
 315  3975.518
 316  3745.571
 317  3773.186
 318  4060.521
 319  4728.91
 320  4731.874
 321  4724.592
 322  5104.499
 323  5614.573
 324  5771.215
 325  5825.805
 326  5958.568
 327  5845.759
 328  5480.383
 329  4986.363
 330  4890.281
 331  4386.271
 332  4099.897
 333  4690.195
 334  4958.08
 335  4443.896
 336  4430.322
 337  4727.956
 338  4847.912
 339  4884.606
 340  4997.662
 341  5148.313
 342  4624.127
 343  4469.465
 344  4306.199
 345  4485.162
 346  4787.775
 347  5258.491
 348  5447.664
 349  5374.94
 350  4495.554
 351  4500.318
 352  4211.407
 353  4216.82
 354  4491.854
 355  4850.061
 356  4744.72
 357  4034.521
 358  4091.475
 359  4054.083
 360  3961.022
 361  4208.945
 362  4266.105
 363  4409.428
 364  4316.981
 365  4172.015
 366  4411.958
 367  4505.083
 368  4714.005
 369  4710.636
 370  4571.214
 371  4475.8
 372  4514.521
 373  4620.472
 374  4800.922
 375  4858.366
 376  4875.96
 377  4559.84
 378  4649.476
 379  4640.71
 380  4478.649
 381  4465.865
 382  4898.93
 383  4627.793
 384  4382.048
 385  4305.667
 386  4115.636
 387  4294.857
 388  4361.469
 389  4781.87
 390  4560.282
 391  4712.666
 392  4696.232
 393  4629.003
 394  4354.748
 395  4361.429
 396  4368.131
 397  4065.607
 398  4323.64
 399  4296.716
 400  4158.715
 401  4094.857
 402  4291.096
 403  4031.458
 404  3993.983
 405  3932.421
 406  3808.168
 407  3910.417
 408  3759.365
 409  3815.648
 410  4460.519
 411  4268.015
 412  3790.656
 413  3478.531
 414  4297.399
 415  4414.754
 416  3866.413
 417  3972.683
 418  4068.142
 419  4081.104
 420  4234.705
 421  4328.537
 422  4274.78
 423  4500.646
 424  4918.555
 425  4672.974
 426  4643.042
 427  4575.167
 428  4147.761
 429  4200.272
 430  4570.473
 431  4435.16
 432  3930.505
 433  4157.923
 434  4201.907
 435  4386.556
 436  4153.281
 437  3947.821
 438  3818.542
 439  3662.089
 440  4146.367
 441  4418.755
 442  4559.381
 443  4410.729
 444  3899.763
 445  4370.083
 446  4502.566
 447  4508.604
 448  4412.692
 449  4429.096
 450  4216.935
 451  4087.438
 452  4429.095
 453  4489.267
 454  4113.294
 455  3938.149
 456  4271.888
 457  4300.856
 458  4212.666
 459  4164.223
 460  4315.551
 461  4279.542
 462  4413.729
 463  4645.724
 464  4755.026
 465  4917.403
 466  4822.202
 467  4480.832
 468  4639.696
 469  4936.737
 470  5069.487
 471  4591.124
 472  4611.638
 473  4517.499
 474  4775.625
 475  4566.924
 476  4625.905
 477  5036.09
 478  5217.068
 479  4817.228
 480  4605.989
 481  4456.545
 482  4489.823
 483  4658.934
 484  4864.525
 485  4920.212
 486  4548.206
 487  4430.781
 488  4464.499
 489  4595.496
 490  4960.576
 491  4952.954
 492  4852
 493  4777.911
 494  4595.141
 495  4853.395
 496  4939.872
 497  5115.16
 498  5255.814
 499  4742.081
 500  4118.818
 501  4392.319
 502  4739.969
 503  4752.465
 504  4469.502
 505  4321.051
 506  4460.383
 507  4386.032
 508  4741.189
 509  4756.198
 510  4401.82
 511  4465.572
