# Input file       =  1185349336.100742_cleaned.dat
# Candidate        =  PSR_0332+5434
# Telescope        =  AR
# Epoch_topo       =  57963.321239591925
# Epoch_bary       =  N/A
# T_sample         =  0.002
# Data Folded      =  7340032
# Data Avg         =  0.320539711735494
# Data StdDev      =  5.29042132226916 
# Profile Bins     =  512
# Profile Avg      =  4595.14818400776 
# Profile StdDev   =  633.438208627673 
# Reduced chi-sqr  =  2.012
# Prob(Noise)      <  4.79e-37   (~12.7 sigma)
# P_topo (ms)      =  714.471037633598  +/- 0.000186
# P'_topo (s/s)    =  -0                +/- 9.82e-11
# P''_topo (s/s^2) =  0                 +/- 4.34e-14
# P_bary (ms)      =  N/A
# P'_bary (s/s)    =  N/A
# P''_bary (s/s^2) =  N/A
# P_orb (s)        =  N/A
# asin(i)/c (s)    =  N/A
# eccentricity     =  N/A
# w (rad)          =  N/A
# T_peri           =  N/A
######################################################
   0  3938.133
   1  4324.05
   2  4746.906
   3  4795.479
   4  4699.681
   5  4613.566
   6  4477.651
   7  4582.203
   8  4674.699
   9  4789.913
  10  4940.702
  11  4800.952
  12  4957.68
  13  5268.982
  14  5594.136
  15  5760.469
  16  5959.006
  17  5765.175
  18  5725.006
  19  5899.285
  20  6143.204
  21  6084.589
  22  6042.588
  23  5794.018
  24  5715.989
  25  5595.631
  26  5618.803
  27  5125.487
  28  5093.006
  29  5322.9
  30  4832.461
  31  4625.746
  32  4560.226
  33  4437.793
  34  4404.29
  35  4316.026
  36  4492.373
  37  4573.498
  38  4677.265
  39  4694.124
  40  4548.447
  41  4670.19
  42  4700.36
  43  4517.07
  44  4352.115
  45  4790.566
  46  4736.682
  47  4631.892
  48  4847.679
  49  4523.933
  50  4185.178
  51  3901.551
  52  4180.349
  53  4018.78
  54  3795.036
  55  3626.711
  56  3651.085
  57  3724.595
  58  3538.496
  59  3499.086
  60  4023.552
  61  4164.295
  62  4293.109
  63  4163.497
  64  4257.081
  65  4309.881
  66  4559.067
  67  4343.617
  68  3952.933
  69  4296.198
  70  4591.427
  71  4417.665
  72  4217.347
  73  4138.247
  74  4207.401
  75  4355.938
  76  4706.434
  77  4839.913
  78  4745.591
  79  4878.604
  80  4891.009
  81  4956.731
  82  4927.359
  83  4966.022
  84  5279.51
  85  5516.433
  86  5750.157
  87  5754.765
  88  5443.564
  89  5437.19
  90  5552.142
  91  5283.245
  92  5438.631
  93  5985.381
  94  5844.036
  95  5029.064
  96  5120.917
  97  4954.891
  98  4844.882
  99  4755.584
 100  4998.99
 101  4779.529
 102  4869.565
 103  4901.019
 104  4752.112
 105  4421.846
 106  4289.162
 107  4384.164
 108  4338.295
 109  4381.759
 110  4356.747
 111  4260.728
 112  4463.914
 113  4030.847
 114  3864.624
 115  4086.047
 116  3997.327
 117  4277.748
 118  4352.058
 119  4502.908
 120  4291.44
 121  4253.938
 122  3975.918
 123  3677.013
 124  3586.316
 125  3918.21
 126  4315.106
 127  4542.599
 128  4330.128
 129  4025.72
 130  3834.519
 131  3738.081
 132  3922.201
 133  3938.477
 134  4073.597
 135  4133.352
 136  3897.041
 137  3781.454
 138  3739.37
 139  4138.024
 140  4126.719
 141  3742.911
 142  3776.308
 143  4067.409
 144  3939.987
 145  4111.523
 146  4416.02
 147  4095.759
 148  4029.58
 149  4383.575
 150  4590.269
 151  4419.017
 152  4568.154
 153  4516.868
 154  4492.264
 155  4482.912
 156  4450.016
 157  4587.662
 158  4465.401
 159  4249.146
 160  4457.909
 161  4603.969
 162  4752.925
 163  4539.637
 164  4341.69
 165  4350.455
 166  4202.823
 167  4081.068
 168  4407.178
 169  4389.655
 170  4444.373
 171  4323.485
 172  4330.398
 173  4739.158
 174  4745.299
 175  4591.912
 176  4430.137
 177  4137.184
 178  4091.982
 179  4170.164
 180  4343.71
 181  4450.964
 182  4279.515
 183  4076.88
 184  3683.782
 185  3778.741
 186  3745.237
 187  3617.124
 188  3417.913
 189  3408.556
 190  3553.105
 191  3348.559
 192  3373.672
 193  3389.645
 194  3560.193
 195  3190.867
 196  3196.22
 197  3145.485
 198  3077.59
 199  3221.793
 200  3313.799
 201  3491.522
 202  3154.122
 203  3425.114
 204  3416.719
 205  3318.025
 206  3431.586
 207  3530.555
 208  3718.622
 209  3192.305
 210  3462.797
 211  3488.018
 212  3608.409
 213  3301.91
 214  3338.925
 215  3294.973
 216  3599.875
 217  3707.06
 218  3974.474
 219  3912.83
 220  3704.522
 221  3578.323
 222  3668.361
 223  3949.401
 224  3939.923
 225  4242.98
 226  4694.525
 227  4858.049
 228  5027.91
 229  4898.336
 230  4906.729
 231  4869.419
 232  4891.835
 233  4874.918
 234  4837.014
 235  5391.657
 236  5524.568
 237  5223.14
 238  5101.011
 239  5023.696
 240  5189.965
 241  4910.371
 242  4811.995
 243  4832.414
 244  4872.105
 245  4940.98
 246  5320.562
 247  5354.526
 248  4911.293
 249  4686.543
 250  4491.297
 251  4505.529
 252  4702.116
 253  4876.448
 254  4928.188
 255  4740.059
 256  4651.322
 257  5020.99
 258  4558.728
 259  4044.286
 260  4116.362
 261  4109.252
 262  3777.56
 263  4354.736
 264  4214.619
 265  3720.669
 266  3565.691
 267  3628.135
 268  3460.202
 269  3752.364
 270  4079.8
 271  4099.109
 272  3998.254
 273  3705.952
 274  3472.928
 275  3410.12
 276  3329.459
 277  3426.318
 278  3718.693
 279  3364.799
 280  3527.048
 281  3731.513
 282  3894.655
 283  3824.125
 284  4130.726
 285  4293.808
 286  4169.056
 287  3967.606
 288  4251.385
 289  4136.957
 290  4072.282
 291  4085.564
 292  4141.964
 293  4580.905
 294  4678.626
 295  4379.555
 296  4350.423
 297  4472.926
 298  4410.968
 299  4939.716
 300  4832.46
 301  4592.942
 302  4790.218
 303  4975.432
 304  5128.277
 305  5442.535
 306  5575.084
 307  5698.741
 308  5036.774
 309  5258.607
 310  5681.33
 311  5507.222
 312  5056.086
 313  5460.241
 314  5592.946
 315  5637.278
 316  5410.506
 317  5324.952
 318  5896.037
 319  5656.071
 320  5303.059
 321  5439.143
 322  5964.139
 323  6574.514
 324  6710.584
 325  6591.304
 326  6992.612
 327  6284.928
 328  5719.39
 329  5522.532
 330  4959.273
 331  4756.39
 332  5069.637
 333  5124.127
 334  4923.501
 335  4977.293
 336  5046.073
 337  5047.765
 338  4766.746
 339  4902.085
 340  4750.892
 341  4657.74
 342  4850.642
 343  4748.427
 344  4859.116
 345  4976.728
 346  4988.465
 347  4747.996
 348  4836.27
 349  4881.494
 350  4485.146
 351  4435.516
 352  4596.54
 353  4434.562
 354  4548.49
 355  4417.211
 356  4415.918
 357  4409.876
 358  4505.984
 359  4672.173
 360  4816.205
 361  4739.152
 362  4590.888
 363  4451.056
 364  4494.731
 365  4982.62
 366  4946.95
 367  5072.941
 368  4988.773
 369  4930.657
 370  5042.957
 371  5129.637
 372  5359.792
 373  5329.373
 374  5189.15
 375  5271.318
 376  5327.012
 377  5610.321
 378  5627.008
 379  5451.936
 380  5967.942
 381  6001.535
 382  5702.201
 383  5852.891
 384  5595.663
 385  5458.24
 386  5722.482
 387  5467.456
 388  5183.301
 389  5233.435
 390  5393.658
 391  5321.322
 392  5669.413
 393  5357.973
 394  5189.385
 395  5190.979
 396  5127.795
 397  5149.512
 398  5042.575
 399  5028.221
 400  5119.396
 401  5262.718
 402  5074.095
 403  4658.717
 404  4635.629
 405  4775.848
 406  5186.534
 407  5290.277
 408  4873.66
 409  4478.585
 410  4371.724
 411  4623.495
 412  4630.999
 413  4626.643
 414  4450.023
 415  4375.258
 416  4573.692
 417  4343.515
 418  4569.324
 419  4507.615
 420  4256.445
 421  3939.965
 422  4424.093
 423  4519.879
 424  4376.481
 425  4291.146
 426  4318.104
 427  4104.14
 428  4221.229
 429  4450.331
 430  4429.672
 431  4492.249
 432  4558.579
 433  4186.769
 434  3998.196
 435  4622.727
 436  4954.457
 437  4939.266
 438  4865.889
 439  4858.004
 440  4858.438
 441  4988.515
 442  5141.756
 443  5256.25
 444  5282.322
 445  5143.48
 446  5306.302
 447  5143.077
 448  5148.689
 449  4931.397
 450  5319.036
 451  5305.798
 452  5220.991
 453  5179.655
 454  5450.623
 455  5417.498
 456  5378.663
 457  5132.576
 458  4941.762
 459  4702.367
 460  4650.992
 461  4564.058
 462  4913.506
 463  4869.114
 464  5230.879
 465  5164.607
 466  4771.612
 467  4279.556
 468  4696.536
 469  4754.127
 470  4715.317
 471  4717.474
 472  4843.329
 473  4639.529
 474  4592.514
 475  4573.167
 476  4448.084
 477  4531.489
 478  4231.173
 479  4336.586
 480  4675.818
 481  4438.588
 482  4488.019
 483  4581.253
 484  4056.02
 485  4096.094
 486  4179.491
 487  4348.985
 488  4219.858
 489  4259.074
 490  4190.842
 491  4504.695
 492  4727.309
 493  4788.782
 494  4785.645
 495  4407.589
 496  4441.315
 497  4111.054
 498  4085.364
 499  4158.543
 500  4175.885
 501  4403.767
 502  4443.455
 503  4514.944
 504  4281.135
 505  4126.835
 506  4222.902
 507  4360.918
 508  4439.525
 509  4531.12
 510  4594.984
 511  4007.732
