# Input file       =  1185664428.103452_cleaned.dat
# Candidate        =  PSR_0332+5434
# Telescope        =  AR
# Epoch_topo       =  57966.968137771437
# Epoch_bary       =  N/A
# T_sample         =  0.002
# Data Folded      =  7208960
# Data Avg         =  0.114587684522848
# Data StdDev      =  4.42216890341484 
# Profile Bins     =  1024
# Profile Avg      =  806.691748327664 
# Profile StdDev   =  371.040789920351 
# Reduced chi-sqr  =  0.622
# Prob(Noise)      <  1   (~0.0 sigma)
# P_topo (ms)      =  714.46906937444   +/- 2.97e-05
# P'_topo (s/s)    =  -0                +/- 1.59e-11
# P''_topo (s/s^2) =  0                 +/- 7.17e-15
# P_bary (ms)      =  N/A
# P'_bary (s/s)    =  N/A
# P''_bary (s/s^2) =  N/A
# P_orb (s)        =  N/A
# asin(i)/c (s)    =  N/A
# eccentricity     =  N/A
# w (rad)          =  N/A
# T_peri           =  N/A
######################################################
   0  550.9305
   1  612.9227
   2  734.9108
   3  908.2378
   4  973.7534
   5  844.1094
   6  800.3781
   7  802.032
   8  713.3738
   9  632.3547
  10  577.9962
  11  649.1594
  12  719.6382
  13  805.7047
  14  780.7493
  15  548.4047
  16  551.4829
  17  664.0673
  18  741.9849
  19  924.9475
  20  947.2526
  21  1024.428
  22  837.65
  23  963.4763
  24  1086.618
  25  933.8721
  26  724.2294
  27  727.4313
  28  804.623
  29  630.3322
  30  604.9735
  31  576.8319
  32  594.5286
  33  651.9641
  34  805.4854
  35  702.033
  36  546.2651
  37  759.0075
  38  976.0637
  39  902.8027
  40  879.2075
  41  895.8558
  42  764.6465
  43  501.5029
  44  577.2164
  45  672.1557
  46  717.6796
  47  718.7453
  48  918.7695
  49  915.2267
  50  869.5414
  51  902.2354
  52  851.124
  53  692.957
  54  652.8815
  55  903.2433
  56  873.7071
  57  848.2896
  58  883.3442
  59  915.9555
  60  701.6528
  61  699.8934
  62  722.1118
  63  768.8864
  64  752.8533
  65  992.4226
  66  968.5081
  67  886.3862
  68  911.9
  69  843.6484
  70  780.9124
  71  825.973
  72  1007.24
  73  956.1151
  74  854.2397
  75  840.2874
  76  712.3723
  77  583.3167
  78  572.3486
  79  597.7635
  80  525.9777
  81  510.88
  82  651.5797
  83  671.8591
  84  655.8308
  85  658.8233
  86  795.6061
  87  844.1428
  88  981.2901
  89  1084
  90  1030.971
  91  824.6125
  92  861.1182
  93  731.4824
  94  679.3159
  95  711.4415
  96  806.9528
  97  677.7183
  98  649.3781
  99  852.4284
 100  902.6156
 101  840.3347
 102  966.7245
 103  1078.774
 104  936.1483
 105  845.1503
 106  928.9667
 107  915.0304
 108  815.9544
 109  857.0206
 110  928.329
 111  645.0193
 112  534.1076
 113  666.9908
 114  834.9615
 115  841.4419
 116  810.803
 117  897.9913
 118  673.6505
 119  728.3127
 120  877.3276
 121  864.1691
 122  861.2781
 123  977.2778
 124  1093.445
 125  896.7433
 126  690.8068
 127  790.7731
 128  740.8608
 129  667.8605
 130  724.79
 131  740.9463
 132  667.0997
 133  656.4439
 134  639.0353
 135  645.3455
 136  710.275
 137  850.3865
 138  756.2885
 139  795.1088
 140  816.8135
 141  753.4412
 142  570.8328
 143  679.0485
 144  840.434
 145  744.3497
 146  672.4021
 147  758.3549
 148  819.0017
 149  822.751
 150  816.6215
 151  790.8857
 152  669.0981
 153  827.686
 154  1085.091
 155  951.979
 156  634.415
 157  635.2936
 158  672.3074
 159  667.0116
 160  758.7434
 161  961.5748
 162  772.9169
 163  597.7382
 164  695.8629
 165  776.8629
 166  635.1368
 167  611.9629
 168  871.8788
 169  852.9716
 170  781.2756
 171  931.0119
 172  969.7778
 173  900.3844
 174  844.4976
 175  904.3466
 176  743.1608
 177  654.9278
 178  713.0568
 179  886.5208
 180  863.1205
 181  956.0262
 182  921.4431
 183  758.9019
 184  738.9391
 185  855.9286
 186  967.4788
 187  938.2784
 188  1039.415
 189  1032.027
 190  971.2762
 191  897.9393
 192  907.5005
 193  671.5441
 194  666.6434
 195  833.2576
 196  1065.108
 197  959.7348
 198  986.4769
 199  913.0519
 200  771.3259
 201  753.4236
 202  930.6811
 203  1038.229
 204  964.1965
 205  981.9386
 206  875.8486
 207  653.5593
 208  611.8313
 209  710.69
 210  730.9145
 211  740.625
 212  877.1144
 213  938.9501
 214  701.8271
 215  617.4718
 216  733.3746
 217  802.0209
 218  930.2102
 219  1076.283
 220  1048.59
 221  990.3831
 222  909.0452
 223  948.0855
 224  650.5115
 225  571.4227
 226  630.1965
 227  671.436
 228  581.3742
 229  715.2671
 230  698.3347
 231  659.0234
 232  705.8794
 233  987.567
 234  1001.402
 235  930.908
 236  935.4423
 237  944.1063
 238  874.5679
 239  838.2023
 240  777.426
 241  601.2206
 242  558.5102
 243  735.0757
 244  747.609
 245  691.4639
 246  890.9807
 247  865.5204
 248  788.8651
 249  607.1473
 250  812.5647
 251  736.2026
 252  678.4222
 253  842.5263
 254  1068.104
 255  1002.632
 256  911.2578
 257  833.3478
 258  773.3177
 259  651.6906
 260  773.7901
 261  799.682
 262  876.8478
 263  891.742
 264  869.2521
 265  565.2552
 266  513.1608
 267  622.0383
 268  721.987
 269  736.9888
 270  770.4896
 271  793.8961
 272  688.6471
 273  845.3204
 274  826.5161
 275  775.8873
 276  736.2703
 277  865.6621
 278  751.7663
 279  596.0929
 280  476.8909
 281  626.8774
 282  632.9506
 283  690.6017
 284  668.3989
 285  749.1373
 286  825.9568
 287  1012.391
 288  1017.337
 289  791.0776
 290  679.0834
 291  760.6783
 292  833.0536
 293  739.6854
 294  668.2638
 295  575.8036
 296  466.8856
 297  554.7386
 298  673.4223
 299  650.9914
 300  792.3469
 301  960.7285
 302  948.5234
 303  629.7964
 304  638.5783
 305  750.3627
 306  702.8602
 307  545.1408
 308  597.5684
 309  698.5094
 310  676.4202
 311  677.9353
 312  628.4617
 313  659.087
 314  805.138
 315  983.7087
 316  1065.891
 317  897.0154
 318  860.4565
 319  765.7325
 320  745.8188
 321  827.4152
 322  936.9094
 323  906.6461
 324  781.2741
 325  764.8203
 326  771.686
 327  714.621
 328  795.9449
 329  817.2906
 330  779.0676
 331  632.3478
 332  772.7086
 333  750.9749
 334  793.4682
 335  914.6397
 336  923.0518
 337  700.296
 338  434.0366
 339  516.6267
 340  433.4643
 341  451.4717
 342  581.0837
 343  652.9354
 344  655.827
 345  714.9076
 346  870.0682
 347  799.6624
 348  706.2585
 349  951.5146
 350  1071.474
 351  1056.866
 352  1014.013
 353  1020.37
 354  906.6839
 355  702.5906
 356  779.2126
 357  779.7241
 358  632.9695
 359  705.5629
 360  764.9741
 361  754.4756
 362  608.4448
 363  656.4462
 364  756.5929
 365  745.828
 366  768.0179
 367  713.8077
 368  581.6075
 369  631.5056
 370  673.8446
 371  710.4148
 372  745.765
 373  872.8088
 374  714.852
 375  509.7884
 376  471.9929
 377  603.3256
 378  496.5919
 379  737.4188
 380  885.0563
 381  1058.075
 382  840.5614
 383  852.078
 384  839.2703
 385  925.1348
 386  1039.721
 387  1180.498
 388  1013.405
 389  835.7376
 390  746.7177
 391  717.7857
 392  423.7773
 393  522.3263
 394  648.1209
 395  713.2855
 396  632.1132
 397  676.2279
 398  559.4737
 399  510.6217
 400  710.7615
 401  907.0146
 402  947.2938
 403  836.9619
 404  913.1692
 405  618.1432
 406  424.4981
 407  406.9995
 408  513.3556
 409  563.5433
 410  627.4106
 411  830.4302
 412  769.4829
 413  716.961
 414  636.1964
 415  673.2936
 416  758.2501
 417  931.8821
 418  1237.35
 419  1161.02
 420  1070.778
 421  932.0839
 422  818.9327
 423  623.8281
 424  762.7304
 425  892.3267
 426  862.6758
 427  645.0318
 428  653.3193
 429  600.8472
 430  620.9467
 431  644.569
 432  777.3983
 433  802.5056
 434  931.0782
 435  1022.266
 436  953.1785
 437  887.9898
 438  824.5438
 439  877.452
 440  841.093
 441  831.4191
 442  854.7656
 443  762.3326
 444  692.0166
 445  735.2076
 446  706.2476
 447  674.1614
 448  701.1714
 449  715.5229
 450  616.1646
 451  653.2708
 452  862.8711
 453  880.954
 454  854.4958
 455  948.0972
 456  941.538
 457  730.853
 458  656.0573
 459  774.1373
 460  786.705
 461  777.0994
 462  854.1451
 463  843.9447
 464  839.9067
 465  849.138
 466  945.408
 467  815.9921
 468  863.0108
 469  949.0297
 470  935.0882
 471  618.6873
 472  661.3857
 473  689.2493
 474  766.4735
 475  683.2856
 476  803.9224
 477  818.4689
 478  873.9408
 479  921.4623
 480  965.0497
 481  751.8902
 482  772.8754
 483  904.0829
 484  949.1609
 485  833.1547
 486  716.3968
 487  688.6932
 488  495.8731
 489  528.1844
 490  694.3582
 491  726.739
 492  706.0903
 493  709.2324
 494  749.2015
 495  739.4481
 496  844.4775
 497  829.4095
 498  821.318
 499  894.5955
 500  1002.744
 501  805.1675
 502  749.1848
 503  706.3036
 504  715.8014
 505  635.0161
 506  720.8813
 507  817.0528
 508  617.8359
 509  559.5175
 510  707.2111
 511  700.1447
 512  718.6293
 513  836.0817
 514  939.0262
 515  742.6429
 516  599.3212
 517  749.8749
 518  809.2394
 519  712.2568
 520  887.1865
 521  939.8388
 522  919.9236
 523  858.3033
 524  1006.617
 525  927.7836
 526  724.1192
 527  800.8456
 528  913.8547
 529  825.1129
 530  756.189
 531  855.3613
 532  851.4034
 533  760.3926
 534  731.59
 535  710.1963
 536  566.9368
 537  639.2048
 538  660.2208
 539  676.4924
 540  516.7479
 541  629.9092
 542  723.2857
 543  714.4377
 544  771.3499
 545  823.0132
 546  815.7524
 547  880.2581
 548  934.2479
 549  1025.949
 550  966.2109
 551  1055.124
 552  970.7386
 553  722.3344
 554  579.3909
 555  532.4867
 556  575.0767
 557  567.2946
 558  715.1968
 559  797.7628
 560  673.8999
 561  715.1147
 562  648.701
 563  668.7183
 564  695.7029
 565  995.5884
 566  1001.556
 567  957.4841
 568  847.6617
 569  790.0164
 570  657.7841
 571  642.2795
 572  666.2115
 573  494.3553
 574  456.2817
 575  653.2773
 576  692.1583
 577  536.2808
 578  521.2942
 579  575.3442
 580  653.286
 581  643.5906
 582  877.4233
 583  853.5623
 584  858.6315
 585  911.5541
 586  935.8571
 587  793.6594
 588  645.471
 589  757.2557
 590  672.4022
 591  438.8917
 592  477.6765
 593  638.0505
 594  731.3388
 595  827.4252
 596  887.3726
 597  822.6896
 598  720.7188
 599  853.7756
 600  901.1333
 601  886.0176
 602  1008.572
 603  980.3738
 604  812.3108
 605  726.4902
 606  847.367
 607  761.2347
 608  573.745
 609  619.6822
 610  840.1271
 611  767.7541
 612  715.8999
 613  718.8943
 614  791.7704
 615  827.6438
 616  1004.479
 617  1166.497
 618  929.0683
 619  753.15
 620  657.548
 621  665.98
 622  597.6235
 623  785.468
 624  886.9064
 625  776.206
 626  644.9833
 627  611.6898
 628  770.2515
 629  954.4438
 630  1128.608
 631  987.7609
 632  916.233
 633  1005.934
 634  921.8332
 635  768.074
 636  882.2155
 637  1031.662
 638  954.4812
 639  915.5371
 640  1099.832
 641  1078.703
 642  854.3319
 643  997.7008
 644  1201.487
 645  1257.243
 646  1400.598
 647  1748.146
 648  1845.564
 649  1615.705
 650  1593.773
 651  1590.884
 652  1416.695
 653  1280.393
 654  1388.849
 655  1257.404
 656  871.5432
 657  866.3217
 658  963.8105
 659  887.7484
 660  750.6385
 661  904.388
 662  925.311
 663  845.825
 664  785.8312
 665  832.3569
 666  785.1406
 667  949.8366
 668  1142.61
 669  1043.066
 670  905.2577
 671  775.1022
 672  845.1028
 673  862.0165
 674  899.6464
 675  965.6678
 676  1006.984
 677  1063.661
 678  950.8003
 679  728.6998
 680  687.23
 681  789.3818
 682  934.3023
 683  902.7791
 684  981.6036
 685  988.1686
 686  778.9906
 687  618.1682
 688  741.2213
 689  764.5463
 690  840.3698
 691  956.2067
 692  1026.906
 693  796.9451
 694  779.783
 695  793.8931
 696  675.5392
 697  579.6359
 698  909.13
 699  1074.655
 700  858.021
 701  656.8928
 702  739.1464
 703  745.5776
 704  701.2961
 705  841.7081
 706  821.5361
 707  665.3748
 708  647.9114
 709  865.1978
 710  932.818
 711  827.8097
 712  922.0217
 713  975.3807
 714  956.9114
 715  967.7598
 716  1063.655
 717  944.9872
 718  815.6237
 719  969.7967
 720  1012.705
 721  869.8301
 722  623.4216
 723  550.6914
 724  556.2123
 725  682.6467
 726  856.7538
 727  858.0751
 728  768.7778
 729  1014.481
 730  1032.65
 731  954.8649
 732  902.7606
 733  1026.354
 734  996.5854
 735  856.767
 736  866.8987
 737  806.467
 738  654.1745
 739  513.6757
 740  578.1814
 741  736.37
 742  793.2339
 743  812.4181
 744  750.9902
 745  759.3544
 746  911.3694
 747  909.1
 748  891.7422
 749  875.9862
 750  1166.416
 751  1187.945
 752  1069.503
 753  923.2527
 754  918.611
 755  772.4311
 756  864.2806
 757  845.0226
 758  762.9912
 759  599.1031
 760  767.92
 761  824.5546
 762  831.8094
 763  949.921
 764  1114.438
 765  1102.789
 766  966.402
 767  930.274
 768  681.251
 769  606.7195
 770  666.203
 771  787.7233
 772  671.7901
 773  639.6081
 774  710.409
 775  710.2781
 776  659.468
 777  832.6226
 778  1021.809
 779  1033.771
 780  999.5615
 781  975.8267
 782  886.3984
 783  750.4294
 784  857.7708
 785  909.8912
 786  865.9188
 787  856.7384
 788  920.2502
 789  719.9802
 790  668.0062
 791  813.0497
 792  956.0098
 793  898.3101
 794  866.0718
 795  839.2869
 796  725.6793
 797  817.9498
 798  906.1302
 799  913.4859
 800  825.1431
 801  827.3026
 802  763.294
 803  664.8651
 804  795.1002
 805  813.9128
 806  795.8817
 807  788.4739
 808  1001.744
 809  1001.61
 810  857.0945
 811  811.5364
 812  863.1609
 813  810.33
 814  757.044
 815  824.8015
 816  825.6143
 817  673.1111
 818  752.4935
 819  810.1823
 820  654.7343
 821  660.9362
 822  848.5242
 823  996.7723
 824  882.9619
 825  937.5779
 826  813.3049
 827  683.6894
 828  668.4576
 829  810.4927
 830  742.7405
 831  705.8385
 832  852.5895
 833  953.0336
 834  810.4528
 835  743.0872
 836  735.9083
 837  678.1419
 838  727.337
 839  834.3807
 840  872.8558
 841  735.2914
 842  737.7487
 843  868.0299
 844  978.9589
 845  990.9473
 846  979.4012
 847  861.1341
 848  833.5066
 849  841.7737
 850  877.577
 851  832.8446
 852  890.9661
 853  950.9329
 854  718.4655
 855  617.2135
 856  602.2291
 857  814.0788
 858  928.0624
 859  1161.256
 860  1133.594
 861  933.4899
 862  938.0154
 863  985.0889
 864  890.5188
 865  1022.829
 866  1071.789
 867  1032.845
 868  649.4827
 869  651.5217
 870  644.3954
 871  534.1318
 872  569.2449
 873  848.7051
 874  834.9433
 875  687.2944
 876  687.6599
 877  982.0141
 878  1024.161
 879  983.2982
 880  1143.563
 881  1128.171
 882  1026.06
 883  1064.158
 884  899.5886
 885  681.454
 886  405.1907
 887  725.6917
 888  834.6172
 889  660.4476
 890  717.0143
 891  792.8433
 892  870.7571
 893  794.884
 894  857.033
 895  796.3366
 896  740.3671
 897  911.8881
 898  1032.241
 899  938.8963
 900  901.5522
 901  827.0193
 902  735.9487
 903  659.451
 904  672.0214
 905  579.8539
 906  543.8077
 907  721.4034
 908  872.9677
 909  899.2827
 910  995.7333
 911  999.3431
 912  937.7167
 913  867.5765
 914  1012.497
 915  1021.779
 916  851.6029
 917  822.3653
 918  799.4631
 919  688.0833
 920  592.582
 921  709.9957
 922  770.2734
 923  653.1824
 924  696.6871
 925  668.6784
 926  627.5536
 927  606.2497
 928  826.0217
 929  927.3583
 930  897.7407
 931  999.1304
 932  1052.11
 933  998.7036
 934  835.6956
 935  809.3505
 936  709.7255
 937  654.2205
 938  638.4502
 939  653.3032
 940  624.6274
 941  814.4742
 942  992.3901
 943  911.3072
 944  688.439
 945  767.6249
 946  897.0678
 947  1048.961
 948  1146.136
 949  1160.07
 950  970.2983
 951  751.6809
 952  756.3433
 953  601.3897
 954  471.9052
 955  646.666
 956  879.7065
 957  862.1519
 958  722.4344
 959  682.4525
 960  764.1
 961  835.4933
 962  1055.984
 963  1014.664
 964  864.0484
 965  787.2485
 966  837.7678
 967  715.3278
 968  668.7202
 969  617.4651
 970  563.5254
 971  659.9631
 972  792.604
 973  1043.724
 974  849.3607
 975  790.0059
 976  781.7928
 977  857.0461
 978  957.1921
 979  1070.724
 980  1066.295
 981  917.5149
 982  792.7152
 983  934.8942
 984  812.3684
 985  876.8134
 986  923.209
 987  906.7014
 988  729.5837
 989  794.6208
 990  759.7745
 991  755.7778
 992  776.7142
 993  1036.854
 994  939.678
 995  829.6815
 996  863.123
 997  809.9406
 998  765.5972
 999  864.8228
1000  1077.396
1001  864.1517
1002  595.7355
1003  551.2569
1004  593.332
1005  588.2935
1006  713.0237
1007  847.9243
1008  818.9862
1009  745.3971
1010  932.6341
1011  928.3758
1012  797.3472
1013  750.6202
1014  932.8393
1015  935.5678
1016  808.101
1017  791.1891
1018  774.0129
1019  624.2609
1020  770.2727
1021  849.5813
1022  826.0123
1023  570.8107
