# Input file       =  1185420549.118118_cleaned.dat
# Candidate        =  PSR_0332+5434
# Telescope        =  AR
# Epoch_topo       =  57964.145464330068
# Epoch_bary       =  N/A
# T_sample         =  0.002
# Data Folded      =  7340032
# Data Avg         =  0.207219863200277
# Data StdDev      =  4.10206703590409 
# Profile Bins     =  256
# Profile Avg      =  5938.22206725209 
# Profile StdDev   =  694.595151252358 
# Reduced chi-sqr  =  2.285
# Prob(Noise)      <  1.09e-27   (~10.8 sigma)
# P_topo (ms)      =  714.470319035373  +/- 0.000871
# P'_topo (s/s)    =  -0                +/- 4.6e-10
# P''_topo (s/s^2) =  0                 +/- 2.03e-13
# P_bary (ms)      =  N/A
# P'_bary (s/s)    =  N/A
# P''_bary (s/s^2) =  N/A
# P_orb (s)        =  N/A
# asin(i)/c (s)    =  N/A
# eccentricity     =  N/A
# w (rad)          =  N/A
# T_peri           =  N/A
######################################################
   0  6984.076
   1  6892.928
   2  7388.208
   3  7139.601
   4  6752.621
   5  6096.795
   6  7020.229
   7  6736.899
   8  6827.237
   9  6758.288
  10  7024.889
  11  6949.716
  12  7636.281
  13  7291.957
  14  7630.24
  15  7643.794
  16  8041.106
  17  7997.108
  18  7384.679
  19  7128.308
  20  6752.248
  21  7326.054
  22  6666.816
  23  5589.917
  24  6305.184
  25  7265.604
  26  6245.552
  27  6485.283
  28  6786.151
  29  6598.742
  30  6364.655
  31  6326.288
  32  6780.938
  33  6384.445
  34  6236.367
  35  6327.933
  36  6530.814
  37  5564.672
  38  5045.33
  39  5701.613
  40  5695.513
  41  6025.801
  42  5014.667
  43  5085.315
  44  5292.762
  45  5323.345
  46  5049.393
  47  5166.689
  48  5064.279
  49  4790.227
  50  5727.117
  51  5804.966
  52  5156.498
  53  5075.708
  54  5330.704
  55  5312.391
  56  4269.401
  57  4919.051
  58  5661.547
  59  5469.389
  60  5272.298
  61  5924.71
  62  5761.808
  63  5616.628
  64  5182.118
  65  5524.319
  66  5993.099
  67  6207.594
  68  5682.708
  69  5905.215
  70  6657.515
  71  5365.968
  72  5480.16
  73  5811.655
  74  5667.664
  75  5491.081
  76  5185.749
  77  5117.843
  78  4559.962
  79  3950.057
  80  4124.917
  81  4246.055
  82  4996.544
  83  4497.814
  84  4201.093
  85  4651.282
  86  4523.934
  87  4222.365
  88  5112.146
  89  5025.338
  90  4111.906
  91  4527.125
  92  4371.372
  93  4877.867
  94  4617.205
  95  4494.269
  96  4561.782
  97  5193.144
  98  4760.805
  99  5093.214
 100  5654.478
 101  5347.81
 102  5818.717
 103  5413.625
 104  5175.646
 105  4982.438
 106  5782.66
 107  5480.424
 108  5388.739
 109  5570.113
 110  6306.355
 111  5789.116
 112  5969.272
 113  6212.483
 114  4982.824
 115  5574.058
 116  5179.709
 117  4935.044
 118  4983.841
 119  5189.932
 120  4822.052
 121  5021.115
 122  5023.831
 123  5601.062
 124  5128.638
 125  4684.198
 126  5141.411
 127  5258.675
 128  4896.985
 129  4870.794
 130  4615.063
 131  5206.663
 132  4892.272
 133  4703.565
 134  5154.106
 135  5499.939
 136  4978.08
 137  5229.17
 138  6207.393
 139  5993.397
 140  5229.669
 141  4852.827
 142  4643.536
 143  5006.288
 144  4634.545
 145  4454.798
 146  4670.864
 147  4816.647
 148  5007.537
 149  5407.036
 150  5586.617
 151  5610.178
 152  5659.02
 153  5023.477
 154  5061.052
 155  5149.453
 156  5200.266
 157  4566.814
 158  5162.524
 159  5982.84
 160  6245.556
 161  6895.964
 162  8198.487
 163  7643.394
 164  5785.162
 165  5116.706
 166  5485.027
 167  5469.473
 168  5223.542
 169  6140.096
 170  5758.083
 171  6014.359
 172  6852.133
 173  6490.395
 174  6217.66
 175  5847.467
 176  5791.871
 177  5513.274
 178  5979.129
 179  5852.427
 180  6047.892
 181  6313.654
 182  5792.344
 183  6869.767
 184  6879.031
 185  6508.555
 186  6969.074
 187  7002.124
 188  7306.042
 189  6830.471
 190  6411.563
 191  6860.134
 192  6837.755
 193  6460.234
 194  5959.428
 195  6215.342
 196  6240.981
 197  5865.492
 198  5710.881
 199  5988.739
 200  6058.755
 201  5883.703
 202  5994.401
 203  5230.002
 204  6059.786
 205  6283.721
 206  6240.98
 207  6486.883
 208  6562.086
 209  6232.514
 210  6771.114
 211  7037.547
 212  6610.462
 213  6943.23
 214  6998.067
 215  7255.882
 216  7171.582
 217  7320.725
 218  7142.733
 219  7305.121
 220  6850.538
 221  7205.153
 222  6834.525
 223  6700.184
 224  6742.067
 225  6743.225
 226  6602.935
 227  6718.148
 228  6695.829
 229  6894.18
 230  7096.56
 231  7237.36
 232  7062.863
 233  6440.227
 234  6316.158
 235  6803.214
 236  6573.468
 237  5821.452
 238  6451.286
 239  6716.968
 240  6213.448
 241  6392.934
 242  6762.597
 243  6539.942
 244  5970.069
 245  6825.57
 246  7385.665
 247  7448.085
 248  6880.366
 249  6417.604
 250  7190.736
 251  7440.935
 252  6816.154
 253  6514.89
 254  7402.888
 255  7493.286
