# Input file       =  1185177007.112782_cleaned.dat
# Candidate        =  PSR_0332+5434
# Telescope        =  AR
# Epoch_topo       =  57961.326691120164
# Epoch_bary       =  N/A
# T_sample         =  0.002
# Data Folded      =  7340032
# Data Avg         =  0.320454461853452
# Data StdDev      =  5.15210693280542 
# Profile Bins     =  256
# Profile Avg      =  9187.1245748673  
# Profile StdDev   =  872.396395021754 
# Reduced chi-sqr  =  0.922
# Prob(Noise)      <  0.81   (~0.0 sigma)
# P_topo (ms)      =  714.472007403448  +/- 0.000502
# P'_topo (s/s)    =  -0                +/- 2.65e-10
# P''_topo (s/s^2) =  0                 +/- 1.17e-13
# P_bary (ms)      =  N/A
# P'_bary (s/s)    =  N/A
# P''_bary (s/s^2) =  N/A
# P_orb (s)        =  N/A
# asin(i)/c (s)    =  N/A
# eccentricity     =  N/A
# w (rad)          =  N/A
# T_peri           =  N/A
######################################################
   0  8389.852
   1  8160.205
   2  8952.552
   3  9277.877
   4  8975.739
   5  8736.7
   6  8687.692
   7  8822.549
   8  8716.437
   9  8607.776
  10  8873.567
  11  8087.34
  12  9379.69
  13  9220.635
  14  8874.713
  15  9299.195
  16  9329.847
  17  9371.733
  18  9488.211
  19  9846.9
  20  9638.763
  21  8747.839
  22  8023.646
  23  9076.608
  24  9168.637
  25  9005.621
  26  8992.054
  27  8800.941
  28  9343.821
  29  9331.322
  30  10007.81
  31  10398.08
  32  10474.4
  33  10135.67
  34  9975.562
  35  9617.628
  36  9153.052
  37  9320.897
  38  8052.696
  39  8668.032
  40  8909.949
  41  8432.427
  42  8883.557
  43  9475.017
  44  9638.34
  45  10187.04
  46  9933.974
  47  10370.23
  48  10433.57
  49  10336.48
  50  10370.43
  51  9012.484
  52  10347.99
  53  11078.24
  54  10219.4
  55  9567.498
  56  9343.762
  57  10762.3
  58  10500.64
  59  10099.93
  60  9572.887
  61  10495.15
  62  10332.19
  63  10252.01
  64  10204.31
  65  10494.08
  66  10122.04
  67  10336.86
  68  10339.63
  69  9568.665
  70  9652.757
  71  9357.867
  72  8652.719
  73  8760.698
  74  8330.562
  75  8552.439
  76  8461.34
  77  8769.078
  78  9113.931
  79  8617.524
  80  8985.67
  81  9611.128
  82  9909.194
  83  10261.34
  84  10095.09
  85  9785.883
  86  9497.789
  87  9412.408
  88  9858.525
  89  9279.83
  90  10287.88
  91  9537.052
  92  9087.727
  93  9229.701
  94  9081.923
  95  9118.048
  96  9668.666
  97  9968.128
  98  9171.001
  99  9437.518
 100  9707.673
 101  9305.789
 102  9202.084
 103  9024.493
 104  9578.67
 105  9113.883
 106  8811.686
 107  9024.288
 108  8555.936
 109  8656.627
 110  9290.199
 111  8365.228
 112  8443.123
 113  8545.732
 114  8475.446
 115  8698.518
 116  9274.444
 117  9175.466
 118  9104.167
 119  8807.19
 120  8789.252
 121  8531.117
 122  8439.559
 123  8241.814
 124  8103.612
 125  8672.932
 126  8560.607
 127  8465.938
 128  9111.364
 129  8784.84
 130  8864.222
 131  9432.762
 132  10344.83
 133  9702.916
 134  9657.683
 135  10382.82
 136  10272.33
 137  10056.83
 138  9339.325
 139  9136.404
 140  8500.774
 141  8321.986
 142  8601.123
 143  8479.785
 144  8931.942
 145  9227.312
 146  9108.075
 147  10156.91
 148  9337.067
 149  9517.708
 150  8850.879
 151  9192.059
 152  9076.262
 153  8736.036
 154  9146.218
 155  9513.117
 156  8794.989
 157  8269.348
 158  7518.757
 159  8789.431
 160  9456.466
 161  10719.07
 162  11597.02
 163  11804.33
 164  10466.75
 165  9276.553
 166  8790.092
 167  9401.976
 168  9158.278
 169  9732.518
 170  10145.97
 171  9093.592
 172  8791.361
 173  10046.27
 174  10822.6
 175  8995.873
 176  8428.228
 177  9341.915
 178  8779.242
 179  8145.558
 180  8169.967
 181  8675.533
 182  8488.997
 183  8917.04
 184  9424.641
 185  9047.015
 186  9134.992
 187  9659.288
 188  9435.801
 189  9290.186
 190  8944.515
 191  9526.723
 192  8687.715
 193  8410.493
 194  9143.339
 195  9272.948
 196  9325.235
 197  8716.177
 198  8433.738
 199  8620.355
 200  8253.572
 201  8322.555
 202  7926.404
 203  7718.584
 204  7575.013
 205  8728.533
 206  7269.187
 207  8712.153
 208  7839.096
 209  8149.247
 210  8563.242
 211  8775.427
 212  9591.529
 213  9218.209
 214  8348.033
 215  9005.633
 216  8088.428
 217  8588.463
 218  8101.102
 219  7480.631
 220  8565.123
 221  8970.11
 222  8269.847
 223  9011.17
 224  8841.788
 225  8304.373
 226  8918.362
 227  8051.443
 228  8572.743
 229  8376.889
 230  8595.094
 231  9059.453
 232  9672.429
 233  9303.033
 234  9576.433
 235  9660.611
 236  9129.137
 237  9342.549
 238  9661.995
 239  10034.3
 240  9062.534
 241  9148.757
 242  9784.737
 243  8978.987
 244  9059.995
 245  9913.529
 246  9629.91
 247  9448.535
 248  10055.03
 249  9997.895
 250  8511.138
 251  9492.435
 252  8790.553
 253  8846.414
 254  9497.388
 255  8867.392
