# Input file       =  1185851408.100563_cleaned.dat
# Candidate        =  PSR_0332+5434
# Telescope        =  AR
# Epoch_topo       =  57969.132258108366
# Epoch_bary       =  N/A
# T_sample         =  0.002
# Data Folded      =  7340032
# Data Avg         =  0.126742073202746
# Data StdDev      =  6.07162140133564 
# Profile Bins     =  1024
# Profile Avg      =  908.357062405974 
# Profile StdDev   =  514.048009051891 
# Reduced chi-sqr  =  0.807
# Prob(Noise)      <  1   (~0.0 sigma)
# P_topo (ms)      =  714.468212520885  +/- 0.000208
# P'_topo (s/s)    =  -0                +/- 1.1e-10
# P''_topo (s/s^2) =  0                 +/- 4.85e-14
# P_bary (ms)      =  N/A
# P'_bary (s/s)    =  N/A
# P''_bary (s/s^2) =  N/A
# P_orb (s)        =  N/A
# asin(i)/c (s)    =  N/A
# eccentricity     =  N/A
# w (rad)          =  N/A
# T_peri           =  N/A
######################################################
   0  1159.259
   1  1395.022
   2  1528.124
   3  1469.387
   4  1365.428
   5  1563.228
   6  1577.146
   7  1389.769
   8  943.6752
   9  695.4711
  10  753.5698
  11  758.178
  12  748.1401
  13  887.025
  14  1284.164
  15  1271.572
  16  1196.999
  17  1266.387
  18  1482.698
  19  1298.173
  20  1108.576
  21  1101.696
  22  1215.081
  23  1011.863
  24  1058.203
  25  1091.258
  26  1344.184
  27  1482.855
  28  1609.071
  29  1356.934
  30  1112.374
  31  1100.646
  32  1294.858
  33  1538.318
  34  1573.739
  35  1339.907
  36  1233.218
  37  1329.918
  38  1305.015
  39  1061.958
  40  1044.833
  41  1164.767
  42  1349.904
  43  1402.482
  44  1385.102
  45  1068.046
  46  1012.475
  47  1014.44
  48  1202.971
  49  979.3857
  50  723.4152
  51  630.4232
  52  818.4815
  53  1044.902
  54  1218.766
  55  1171.495
  56  818.2888
  57  726.1464
  58  850.3218
  59  978.0509
  60  774.0518
  61  473.9452
  62  470.8673
  63  507.9415
  64  586.6191
  65  653.23
  66  876.7222
  67  1071.75
  68  1167.877
  69  1140.607
  70  1113.204
  71  1155.522
  72  1017.262
  73  902.5601
  74  812.2052
  75  720.7214
  76  810.1856
  77  721.4676
  78  1092.075
  79  1165.307
  80  1346.628
  81  1201.817
  82  1110.198
  83  1128.361
  84  1172.467
  85  1216.198
  86  1159.968
  87  1168.181
  88  1133.487
  89  1094.081
  90  1104.372
  91  1213.351
  92  1059.146
  93  861.9697
  94  716.1158
  95  771.1266
  96  863.9808
  97  684.3873
  98  802.9211
  99  916.9542
 100  1164.507
 101  1403.087
 102  1557.593
 103  1358.38
 104  1027.096
 105  865.3387
 106  823.2761
 107  880.0399
 108  857.6973
 109  887.5419
 110  999.0903
 111  832.5709
 112  910.8885
 113  1040.278
 114  1214.342
 115  1326.393
 116  1329.755
 117  1337.554
 118  1089.886
 119  1169.122
 120  1307.104
 121  1371.526
 122  1352.297
 123  1321.527
 124  1086.371
 125  660.6234
 126  715.4576
 127  908.4332
 128  1030.088
 129  876.3057
 130  907.4431
 131  1059.283
 132  1119.953
 133  1004.476
 134  964.2384
 135  937.875
 136  960.3223
 137  863.4004
 138  714.5674
 139  555.3278
 140  502.5483
 141  812.2522
 142  912.48
 143  786.0109
 144  604.0234
 145  567.3148
 146  840.0311
 147  828.6293
 148  776.3575
 149  691.2989
 150  889.321
 151  921.8378
 152  797.2397
 153  719.5806
 154  799.9325
 155  921.1448
 156  895.1848
 157  932.733
 158  1006.6
 159  1219.433
 160  1137.142
 161  871.3054
 162  529.4102
 163  618.3699
 164  759.7078
 165  728.9484
 166  568.5831
 167  767.9616
 168  727.3939
 169  747.6009
 170  506.9716
 171  674.3972
 172  681.7674
 173  662.5508
 174  664.2872
 175  928.7026
 176  947.3467
 177  729.2778
 178  682.1899
 179  835.8724
 180  1056.555
 181  1077.642
 182  1264.382
 183  1274.335
 184  928.3931
 185  924.2871
 186  892.4175
 187  827.6858
 188  494.206
 189  387.7803
 190  385.2122
 191  682.4758
 192  903.4915
 193  932.548
 194  920.7148
 195  815.8188
 196  981.549
 197  951.2149
 198  1093.369
 199  1035.901
 200  1322.015
 201  1293.729
 202  1265.194
 203  1385.468
 204  1313.935
 205  1175.271
 206  927.8765
 207  957.2562
 208  824.5801
 209  711.855
 210  850.5644
 211  859.8078
 212  748.1359
 213  931.9153
 214  1135.12
 215  1312.107
 216  1119.947
 217  1144.217
 218  1024.123
 219  1044.272
 220  1097.097
 221  1332.91
 222  1279.331
 223  1131.777
 224  1110.779
 225  1134.13
 226  1111.509
 227  947.8184
 228  929.2866
 229  836.4464
 230  799.599
 231  824.9257
 232  830.8756
 233  910.3659
 234  1082.426
 235  1073.806
 236  978.5187
 237  1130.372
 238  996.7855
 239  954.4556
 240  853.106
 241  886.092
 242  887.0641
 243  885.876
 244  854.5632
 245  729.6729
 246  693.3397
 247  724.1178
 248  744.9194
 249  705.4113
 250  798.3705
 251  944.5119
 252  1198.146
 253  992.2995
 254  934.2559
 255  943.5948
 256  1042.692
 257  909.1124
 258  846.0167
 259  909.6973
 260  767.5276
 261  823.2766
 262  794.6049
 263  959.0211
 264  937.0209
 265  961.6358
 266  1058.915
 267  1101.145
 268  1128.038
 269  1064.578
 270  935.9856
 271  797.0349
 272  713.7986
 273  874.1446
 274  953.5926
 275  955.5005
 276  1042.852
 277  907.4457
 278  770.2351
 279  607.6786
 280  749.4203
 281  899.9681
 282  794.9332
 283  655.3243
 284  703.7672
 285  1035.095
 286  871.9841
 287  935.6464
 288  978.7513
 289  1082.813
 290  748.5438
 291  742.1934
 292  906.4792
 293  996.0502
 294  887.278
 295  825.1258
 296  776.6812
 297  887.3079
 298  939.6818
 299  1093.021
 300  1258.843
 301  1380.67
 302  1135.696
 303  992.4476
 304  791.9009
 305  883.8179
 306  834.7328
 307  910.5404
 308  702.939
 309  578.6854
 310  614.4601
 311  917.7698
 312  1005.451
 313  1050.43
 314  935.4641
 315  1021.497
 316  1094.634
 317  1221.396
 318  1164.981
 319  954.2501
 320  871.8047
 321  886.4736
 322  870.8544
 323  730.9054
 324  570.9434
 325  437.6671
 326  407.2833
 327  712.7798
 328  1194.902
 329  1386.498
 330  1226.194
 331  1284.212
 332  1136.006
 333  1134.458
 334  902.3413
 335  941.4972
 336  855.4683
 337  828.8338
 338  967.5079
 339  1075.388
 340  920.0172
 341  663.7076
 342  440.6797
 343  457.1146
 344  390.0765
 345  383.7979
 346  390.8378
 347  416.6423
 348  268.3513
 349  324.1546
 350  402.7858
 351  441.0647
 352  619.2487
 353  723.2552
 354  899.8261
 355  778.7546
 356  665.789
 357  624.7072
 358  650.1833
 359  679.5752
 360  671.007
 361  772.0877
 362  826.2576
 363  696.1702
 364  532.7114
 365  443.6496
 366  466.4686
 367  471.2118
 368  527.437
 369  648.4509
 370  670.5202
 371  600.2175
 372  604.9673
 373  723.0416
 374  723.5218
 375  986.569
 376  984.7833
 377  906.9587
 378  663.8856
 379  738.1802
 380  1052.5
 381  1083.385
 382  1167.814
 383  959.1408
 384  943.573
 385  807.8809
 386  882.3312
 387  696.4774
 388  558.3877
 389  586.8502
 390  554.4702
 391  514.032
 392  208.4746
 393  300.9041
 394  457.6311
 395  737.7775
 396  1143.443
 397  1111.169
 398  1047.498
 399  841.3984
 400  808.7025
 401  627.1083
 402  485.8593
 403  444.5341
 404  447.1946
 405  371.9414
 406  413.6693
 407  616.6358
 408  716.1788
 409  656.4163
 410  652.4529
 411  598.7819
 412  721.071
 413  576.8057
 414  698.2201
 415  526.7085
 416  513.1096
 417  568.1852
 418  534.1746
 419  362.1351
 420  192.863
 421  183.2125
 422  296.1309
 423  388.7082
 424  434.1766
 425  431.1759
 426  530.9821
 427  625.2468
 428  628.4448
 429  524.1787
 430  515.8677
 431  715.7659
 432  771.6469
 433  707.4258
 434  483.996
 435  503.1724
 436  724.9639
 437  675.9072
 438  826.6
 439  1140.122
 440  1044.569
 441  916.6376
 442  643.6494
 443  664.6855
 444  707.3863
 445  810.3723
 446  1163.847
 447  1099.626
 448  863.4994
 449  775.6592
 450  976.568
 451  869.6059
 452  656.3303
 453  564.9943
 454  845.4233
 455  992.6414
 456  1086.896
 457  1225.023
 458  1072.04
 459  984.4049
 460  977.9855
 461  986.4877
 462  859.6364
 463  891.3589
 464  899.9518
 465  1114.9
 466  1211.727
 467  1254.318
 468  935.4135
 469  989.105
 470  1254.635
 471  1397.783
 472  1235.703
 473  888.9635
 474  763.354
 475  731.2574
 476  854.1783
 477  1015.198
 478  962.471
 479  811.8627
 480  772.2468
 481  1075.815
 482  1195.803
 483  1061.66
 484  983.383
 485  961.5049
 486  1042.195
 487  936.4346
 488  941.0184
 489  896.068
 490  1026.047
 491  1060.933
 492  991.2823
 493  899.3148
 494  883.9691
 495  1045
 496  1107.211
 497  1028.87
 498  869.6577
 499  793.4833
 500  808.4993
 501  797.8223
 502  748.2297
 503  621.2341
 504  472.1184
 505  619.2499
 506  742.7641
 507  872.1799
 508  1035.781
 509  1053.525
 510  1009.648
 511  794.7831
 512  734.1389
 513  715.6403
 514  808.887
 515  981.4278
 516  1019.639
 517  1080.677
 518  1086.825
 519  1151.174
 520  1112.968
 521  961.0269
 522  907.7192
 523  785.5658
 524  866.7369
 525  774.8637
 526  823.0202
 527  834.1418
 528  828.7347
 529  852.8809
 530  720.512
 531  681.9622
 532  803.1448
 533  916.6432
 534  917.5274
 535  864.8003
 536  968.3057
 537  947.9291
 538  741.4875
 539  610.6139
 540  751.8016
 541  839.8526
 542  697.0604
 543  847.9931
 544  961.7982
 545  1299.516
 546  1220.204
 547  1056.357
 548  754.2111
 549  564.4542
 550  578.0388
 551  980.877
 552  1131.58
 553  1186.538
 554  1034.517
 555  967.1352
 556  908.7173
 557  937.5973
 558  1087.307
 559  1060.79
 560  877.9532
 561  688.1765
 562  354.582
 563  467.785
 564  581.725
 565  899.8422
 566  829.7257
 567  947.2034
 568  956.8254
 569  947.207
 570  867.7249
 571  831.3409
 572  777.3802
 573  795.855
 574  818.4594
 575  934.8723
 576  867.4945
 577  663.2285
 578  574.3345
 579  774.3424
 580  888.0721
 581  1143.894
 582  1033.598
 583  1119.573
 584  1233.464
 585  1298.267
 586  1239.851
 587  946.4351
 588  845.184
 589  919.2385
 590  824.5787
 591  771.6665
 592  712.4457
 593  924.2569
 594  958.3989
 595  1022.023
 596  993.1397
 597  1223.306
 598  1119.957
 599  1230.804
 600  1198.994
 601  1120.766
 602  886.8326
 603  949.866
 604  1061.242
 605  813.8813
 606  645.5062
 607  914.6948
 608  1237.372
 609  1311.609
 610  1171.055
 611  834.5449
 612  555.0552
 613  630.0073
 614  854.0795
 615  765.8988
 616  738.4709
 617  683.4049
 618  594.7065
 619  619.3667
 620  809.7355
 621  1023.467
 622  1120.137
 623  1173.166
 624  1180.511
 625  1129.099
 626  996.6335
 627  1009.226
 628  997.8066
 629  1106.354
 630  1191.479
 631  1178.714
 632  1158.271
 633  1067.825
 634  1182.192
 635  1303.477
 636  1076.862
 637  986.5169
 638  998.0965
 639  950.5567
 640  888.7886
 641  1251.01
 642  1559.188
 643  1828.014
 644  1710.127
 645  1600.214
 646  1763.018
 647  1887.076
 648  1989.064
 649  1698.887
 650  1759.707
 651  1845.233
 652  2012.955
 653  2058.887
 654  2007.984
 655  1572.596
 656  1435.583
 657  1322.06
 658  1139.303
 659  952.1124
 660  876.325
 661  1010.057
 662  903.5014
 663  910.1444
 664  859.139
 665  930.751
 666  990.1961
 667  935.9412
 668  900.2543
 669  1035.329
 670  1125.235
 671  1029.81
 672  911.6298
 673  871.4104
 674  860.2491
 675  961.2139
 676  1119.318
 677  969.5381
 678  611.6835
 679  499.5421
 680  612.4764
 681  906.0234
 682  1060.665
 683  1105.354
 684  837.8709
 685  677.0199
 686  693.9778
 687  832.7287
 688  1071.006
 689  1110.273
 690  1086.052
 691  875.3566
 692  760.0469
 693  668.4814
 694  863.3636
 695  877.1336
 696  828.9567
 697  681.3667
 698  921.537
 699  1310.966
 700  1244.533
 701  1246.254
 702  1105.034
 703  1170.681
 704  801.4915
 705  607.6392
 706  430.7168
 707  757.3039
 708  730.3171
 709  836.0599
 710  873.9899
 711  1104.239
 712  1086.644
 713  1259.162
 714  1354.145
 715  957.4889
 716  784.8401
 717  544.0935
 718  597.2924
 719  493.229
 720  596.5698
 721  667.9421
 722  546.2507
 723  633.116
 724  821.1575
 725  1137.164
 726  1321.599
 727  1245.58
 728  1181.181
 729  1135.374
 730  1186.155
 731  997.0709
 732  844.7608
 733  867.8028
 734  991.175
 735  976.7737
 736  724.1542
 737  657.3862
 738  689.1133
 739  731.1296
 740  847.2552
 741  795.4587
 742  751.2667
 743  764.2675
 744  726.6855
 745  594.3217
 746  386.5577
 747  393.6613
 748  477.5616
 749  667.767
 750  836.8027
 751  895.7708
 752  854.0571
 753  921.7809
 754  935.5631
 755  894.821
 756  674.0366
 757  559.618
 758  637.2037
 759  600.6075
 760  586.8998
 761  569.2714
 762  619.61
 763  1000.51
 764  1112.103
 765  1094.548
 766  902.8665
 767  785.0967
 768  787.4864
 769  880.8544
 770  1052.283
 771  1147.754
 772  1120.69
 773  932.5488
 774  935.3396
 775  751.0604
 776  874.9136
 777  950.6736
 778  1068.614
 779  947.7306
 780  1028.197
 781  1111.03
 782  984.0095
 783  733.7668
 784  755.968
 785  932.9667
 786  876.5019
 787  825.9457
 788  585.0007
 789  655.5811
 790  708.0213
 791  798.8431
 792  1015.246
 793  1176.687
 794  1142.043
 795  880.985
 796  692.03
 797  564.9048
 798  425.8082
 799  598.7318
 800  670.014
 801  863.4944
 802  873.1865
 803  870.9918
 804  745.8936
 805  645.9872
 806  849.1761
 807  1027.746
 808  981.4872
 809  932.9435
 810  733.6879
 811  768.2938
 812  823.3113
 813  680.4461
 814  646.1268
 815  720.5155
 816  773.4285
 817  914.1657
 818  965.1408
 819  991.8248
 820  891.9921
 821  771.8444
 822  737.2857
 823  839.7493
 824  780.6245
 825  813.7023
 826  877.7854
 827  815.7236
 828  886.7129
 829  860.9731
 830  1150.58
 831  965.6262
 832  812.7285
 833  889.3564
 834  999.8419
 835  900.3801
 836  988.5223
 837  960.7335
 838  910.0187
 839  974.5375
 840  955.848
 841  937.7109
 842  822.0139
 843  744.8874
 844  926.8724
 845  905.1522
 846  837.954
 847  812.4041
 848  742.1398
 849  791.5681
 850  978.7578
 851  1040.597
 852  1052.939
 853  1075.348
 854  1191.16
 855  1164.379
 856  1262.966
 857  1374.45
 858  1382.632
 859  950.9852
 860  930.2573
 861  890.217
 862  724.9638
 863  751.6757
 864  835.7524
 865  1088.052
 866  1121.067
 867  965.7128
 868  961.9302
 869  880.4764
 870  661.287
 871  786.2856
 872  942.7927
 873  909.8867
 874  737.0385
 875  769.2017
 876  916.6741
 877  892.4376
 878  797.3508
 879  800.4587
 880  739.8561
 881  896.2333
 882  826.7469
 883  888.2315
 884  736.3541
 885  879.9387
 886  967.9221
 887  998.6866
 888  940.5024
 889  772.4615
 890  715.5591
 891  418.1182
 892  354.7089
 893  604.785
 894  719.0529
 895  834.6519
 896  750.4852
 897  892.1321
 898  718.3895
 899  566.895
 900  618.1392
 901  860.6016
 902  960.6466
 903  737.4912
 904  851.5457
 905  602.9111
 906  685.9221
 907  744.5515
 908  852.9291
 909  1035.756
 910  1045.878
 911  1121.733
 912  991.7859
 913  955.1313
 914  947.1112
 915  1095.68
 916  1172.092
 917  1153.887
 918  782.4703
 919  782.1955
 920  608.1149
 921  703.5194
 922  686.5511
 923  1005.324
 924  967.9755
 925  953.8339
 926  828.7587
 927  881.5099
 928  856.4854
 929  888.2931
 930  898.7507
 931  932.6497
 932  1037.613
 933  954.3876
 934  758.1857
 935  680.5663
 936  807.1925
 937  830.9561
 938  692.6536
 939  538.5353
 940  514.5201
 941  585.6484
 942  416.8428
 943  647.863
 944  731.5491
 945  874.9741
 946  991.1454
 947  962.5574
 948  851.2153
 949  729.3868
 950  936.8062
 951  994.6019
 952  1054.353
 953  1085.172
 954  1104.321
 955  880.8068
 956  750.7104
 957  1036.363
 958  1088.335
 959  1012.781
 960  715.0439
 961  681.272
 962  770.6505
 963  678.7171
 964  766.6192
 965  946.1495
 966  1016.957
 967  858.3869
 968  869.9347
 969  843.1035
 970  838.8729
 971  935.6703
 972  1114.593
 973  1076.7
 974  939.4882
 975  904.4751
 976  951.4946
 977  983.1722
 978  899.8361
 979  793.0975
 980  1055.264
 981  1344.923
 982  1446.699
 983  1342.17
 984  1353.236
 985  1244.183
 986  1204.585
 987  1084.051
 988  1072.54
 989  1140.474
 990  1143.783
 991  1021.957
 992  960.5183
 993  915.1369
 994  913.4308
 995  753.6803
 996  776.8839
 997  935.6594
 998  1068
 999  1058.681
1000  1012.384
1001  1057.643
1002  1086.911
1003  1104.628
1004  1129.392
1005  1086.449
1006  837.361
1007  768.671
1008  726.3157
1009  712.4551
1010  710.3682
1011  682.0872
1012  642.4805
1013  389.8507
1014  415.3546
1015  578.7123
1016  794.111
1017  960.3324
1018  953.5539
1019  834.7039
1020  603.9025
1021  355.428
1022  542.147
1023  729.1644
