# Input file       =  1185607824.109255_cleaned.dat
# Candidate        =  PSR_0332+5434
# Telescope        =  AR
# Epoch_topo       =  57966.312998949710
# Epoch_bary       =  N/A
# T_sample         =  0.002
# Data Folded      =  7340032
# Data Avg         =  0.0480669460003335
# Data StdDev      =  1.00035370616311 
# Profile Bins     =  512
# Profile Avg      =  689.087008277102 
# Profile StdDev   =  119.77538668966  
# Reduced chi-sqr  =  1.634
# Prob(Noise)      <  5.13e-18   (~8.6 sigma)
# P_topo (ms)      =  714.469692524114  +/- 0.000554
# P'_topo (s/s)    =  -0                +/- 2.92e-10
# P''_topo (s/s^2) =  0                 +/- 1.29e-13
# P_bary (ms)      =  N/A
# P'_bary (s/s)    =  N/A
# P''_bary (s/s^2) =  N/A
# P_orb (s)        =  N/A
# asin(i)/c (s)    =  N/A
# eccentricity     =  N/A
# w (rad)          =  N/A
# T_peri           =  N/A
######################################################
   0  1121.268
   1  1016.432
   2  981.7924
   3  807.3488
   4  713.1054
   5  673.0779
   6  631.9268
   7  689.4515
   8  754.6607
   9  744.0457
  10  597.7345
  11  719.7842
  12  820.608
  13  828.5372
  14  893.345
  15  737.5491
  16  639.0414
  17  690.8576
  18  760.3474
  19  635.5978
  20  781.6469
  21  663.8347
  22  473.7063
  23  567.3623
  24  605.6954
  25  619.9138
  26  723.2405
  27  714.2681
  28  595.9447
  29  591.2153
  30  624.7252
  31  695.7366
  32  615.6569
  33  510.0707
  34  593.2981
  35  678.329
  36  729.601
  37  820.0333
  38  793.6443
  39  713.6487
  40  629.9916
  41  704.2051
  42  835.3942
  43  785.8546
  44  661.5247
  45  707.2934
  46  689.0034
  47  705.0386
  48  697.753
  49  664.1167
  50  706.3058
  51  682.9319
  52  655.2627
  53  723.1881
  54  754.8672
  55  819.6446
  56  697.0811
  57  767.3248
  58  822.9094
  59  657.715
  60  711.2095
  61  812.5426
  62  678.8726
  63  721.4658
  64  601.72
  65  651.5892
  66  579.172
  67  687.2763
  68  746.5597
  69  760.7794
  70  787.2555
  71  773.4612
  72  764.5489
  73  790.5524
  74  742.2397
  75  811.9391
  76  803.6159
  77  764.9634
  78  738.9838
  79  744.46
  80  770.6588
  81  771.1566
  82  673.7039
  83  752.9779
  84  715.6122
  85  756.1139
  86  721.1346
  87  691.2792
  88  707.1899
  89  728.1197
  90  731.5449
  91  724.576
  92  618.6409
  93  622.5463
  94  753.6815
  95  723.7044
  96  748.0008
  97  641.4031
  98  566.9078
  99  574.4274
 100  620.9335
 101  736.5389
 102  696.7444
 103  700.2942
 104  770.1628
 105  719.3289
 106  739.038
 107  722.7637
 108  781.1044
 109  691.0538
 110  721.3297
 111  698.8743
 112  651.6537
 113  688.2501
 114  655.4803
 115  661.0606
 116  708.7476
 117  761.0132
 118  687.9445
 119  688.78
 120  655.9753
 121  727.1155
 122  619.8658
 123  616.7169
 124  594.0083
 125  621.3188
 126  589.36
 127  659.1268
 128  709.9681
 129  674.1794
 130  681.6517
 131  716.5969
 132  683.1741
 133  633.8939
 134  676.4324
 135  685.6396
 136  753.6551
 137  762.4637
 138  666.8188
 139  630.3243
 140  602.5795
 141  586.9642
 142  535.1198
 143  725.7437
 144  674.0828
 145  589.2678
 146  560.9427
 147  566.2084
 148  576.4531
 149  538.944
 150  541.6829
 151  637.0322
 152  591.9985
 153  632.537
 154  601.8838
 155  619.2214
 156  553.5519
 157  529.8869
 158  591.9109
 159  594.0483
 160  599.8511
 161  594.5911
 162  618.4258
 163  630.5157
 164  451.7795
 165  461.1021
 166  513.8251
 167  510.493
 168  513.1747
 169  435.0471
 170  472.2226
 171  604.6616
 172  549.5927
 173  341.2586
 174  323.4686
 175  425.7748
 176  437.5238
 177  461.9652
 178  522.7997
 179  535.3948
 180  478.1098
 181  451.6732
 182  379.3135
 183  479.6238
 184  546.7457
 185  622.8246
 186  612.3749
 187  627.9108
 188  636.2519
 189  568.8142
 190  608.1669
 191  508.0927
 192  504.1519
 193  548.7469
 194  548.8076
 195  575.4231
 196  616.6579
 197  673.2861
 198  611.2704
 199  556.0489
 200  605.9967
 201  674.8268
 202  679.3661
 203  683.4113
 204  579.7277
 205  544.1406
 206  509.1551
 207  508.2937
 208  562.0201
 209  557.0458
 210  506.5153
 211  550.9749
 212  604.0164
 213  524.6631
 214  491.4783
 215  561.1513
 216  538.1646
 217  566.6571
 218  543.3532
 219  617.3062
 220  565.2725
 221  527.2451
 222  645.812
 223  672.9028
 224  575.2587
 225  624.3791
 226  601.6685
 227  645.8453
 228  633.21
 229  628.8949
 230  556.1523
 231  506.4231
 232  572.8579
 233  662.5762
 234  717.0058
 235  591.9047
 236  599.1693
 237  654.5674
 238  650.4253
 239  559.1812
 240  606.2518
 241  614.4404
 242  567.538
 243  527.8977
 244  493.757
 245  486.6928
 246  519.2476
 247  564.9277
 248  509.8101
 249  537.957
 250  550.9987
 251  524.3934
 252  674.6653
 253  661.6049
 254  639.4663
 255  662.4384
 256  676.0219
 257  617.8002
 258  692.4636
 259  621.2292
 260  676.1003
 261  716.6958
 262  734.67
 263  709.8107
 264  640.0983
 265  672.436
 266  639.9385
 267  664.1862
 268  688.3179
 269  626.2233
 270  667.0958
 271  678.1676
 272  696.0192
 273  694.8853
 274  685.4174
 275  694.5154
 276  568.4756
 277  640.3436
 278  623.761
 279  636.3055
 280  674.9092
 281  760.8928
 282  665.5543
 283  584.019
 284  616.0549
 285  605.6661
 286  584.7425
 287  633.824
 288  765.5057
 289  712.8249
 290  739.9298
 291  815.4582
 292  657.0489
 293  636.7302
 294  760.9302
 295  702.7098
 296  640.0373
 297  725.371
 298  858.1423
 299  953.8777
 300  752.34
 301  755.7775
 302  733.5641
 303  735.2585
 304  817.5585
 305  747.1714
 306  665.3377
 307  751.2641
 308  733.188
 309  718.6052
 310  741.9206
 311  824.6743
 312  849.5344
 313  764.1583
 314  732.9263
 315  761.8513
 316  714.777
 317  807.3736
 318  773.741
 319  667.2341
 320  607.9358
 321  677.314
 322  620.8791
 323  642.071
 324  646.5433
 325  666.0006
 326  747.4472
 327  754.4975
 328  672.7142
 329  600.9566
 330  683.4452
 331  657.9429
 332  576.9723
 333  683.3356
 334  668.5056
 335  719.2906
 336  662.5069
 337  538.4197
 338  564.73
 339  599.8823
 340  716.8656
 341  739.8978
 342  803.1436
 343  779.0093
 344  782.4729
 345  760.2521
 346  702.7444
 347  761.989
 348  797.1889
 349  865.6342
 350  882.0847
 351  809.7061
 352  821.5294
 353  906.0563
 354  934.01
 355  845.857
 356  735.3859
 357  724.9642
 358  719.3494
 359  841.0405
 360  835.6659
 361  961.4916
 362  893.3781
 363  794.6359
 364  749.743
 365  758.0367
 366  745.8589
 367  755.4197
 368  796.3393
 369  766.4614
 370  818.4084
 371  802.352
 372  796.4103
 373  806.1277
 374  802.5995
 375  775.6498
 376  826.9164
 377  787.835
 378  740.1619
 379  751.7892
 380  752.6131
 381  638.491
 382  725.3371
 383  800.8902
 384  792.0576
 385  721.9115
 386  711.0951
 387  767.0362
 388  658.37
 389  734.7947
 390  896.767
 391  794.0479
 392  754.679
 393  714.8845
 394  663.9973
 395  749.2879
 396  729.8439
 397  685.1009
 398  788.6536
 399  829.0217
 400  833.9606
 401  716.6608
 402  732.8334
 403  835.9067
 404  814.6736
 405  887.0697
 406  883.6632
 407  941.6453
 408  803.0733
 409  833.9612
 410  801.0461
 411  801.3691
 412  926.572
 413  890.2068
 414  866.7685
 415  929.4065
 416  929.4402
 417  829.8467
 418  809.5363
 419  864.4191
 420  868.2366
 421  834.89
 422  1016.838
 423  946.9411
 424  830.6999
 425  741.2141
 426  844.5877
 427  812.4141
 428  779.074
 429  749.3254
 430  729.2003
 431  746.3403
 432  764.4582
 433  754.7008
 434  666.5439
 435  715.5944
 436  806.707
 437  783.3395
 438  662.9954
 439  727.827
 440  778.1399
 441  720.6418
 442  794.4447
 443  775.709
 444  772.5173
 445  661.2
 446  651.4224
 447  603.0754
 448  762.8783
 449  758.22
 450  717.06
 451  754.8117
 452  712.3834
 453  712.996
 454  691.1945
 455  627.8657
 456  609.5955
 457  688.1519
 458  700.4291
 459  604.0667
 460  532.2631
 461  668.4815
 462  735.257
 463  732.1885
 464  678.9314
 465  593.2404
 466  653.3768
 467  617.9407
 468  546.8824
 469  508.2466
 470  601.5045
 471  584.2485
 472  641.3928
 473  697.2904
 474  715.2941
 475  683.9236
 476  728.9608
 477  612.8859
 478  717.5143
 479  713.0507
 480  671.6371
 481  613.8503
 482  644.8549
 483  682.0332
 484  675.3481
 485  652.3939
 486  613.3579
 487  575.8836
 488  650.0977
 489  582.3867
 490  566.6636
 491  672.0892
 492  719.3307
 493  706.5716
 494  592.314
 495  667.86
 496  661.7335
 497  754.9783
 498  784.0814
 499  710.3312
 500  632.1318
 501  711.3467
 502  712.3679
 503  705.1761
 504  714.0746
 505  859.8597
 506  1018.416
 507  855.6335
 508  842.7303
 509  914.9079
 510  1008.67
 511  1157.193
