# Input file       =  1185090823.101021_cleaned.dat
# Candidate        =  PSR_0332+5434
# Telescope        =  AR
# Epoch_topo       =  57960.329190984041
# Epoch_bary       =  N/A
# T_sample         =  0.002
# Data Folded      =  7340032
# Data Avg         =  0.327187012760467
# Data StdDev      =  5.61108604188992 
# Profile Bins     =  1024
# Profile Avg      =  2344.86704804021 
# Profile StdDev   =  475.057224058448 
# Reduced chi-sqr  =  0.817
# Prob(Noise)      <  1   (~0.0 sigma)
# P_topo (ms)      =  714.472514234527  +/- 0.000416
# P'_topo (s/s)    =  -0                +/- 2.19e-10
# P''_topo (s/s^2) =  0                 +/- 9.68e-14
# P_bary (ms)      =  N/A
# P'_bary (s/s)    =  N/A
# P''_bary (s/s^2) =  N/A
# P_orb (s)        =  N/A
# asin(i)/c (s)    =  N/A
# eccentricity     =  N/A
# w (rad)          =  N/A
# T_peri           =  N/A
######################################################
   0  2510.483
   1  2553.349
   2  2561.375
   3  2571.487
   4  2653.817
   5  2641.309
   6  2758.226
   7  2748.643
   8  2633.536
   9  2635.632
  10  2592.671
  11  2709.457
  12  2727.114
  13  2804.477
  14  2798.864
  15  2836.255
  16  2898.286
  17  2973.844
  18  2932.682
  19  2895.671
  20  2869.513
  21  2967.211
  22  2962.594
  23  2871.838
  24  2700.27
  25  2664.688
  26  2527.412
  27  2583.584
  28  2566.13
  29  2690.722
  30  2689.719
  31  2769.101
  32  2706.387
  33  2525.563
  34  2441.028
  35  2329.099
  36  2583.267
  37  2627.378
  38  2479.591
  39  2391.512
  40  2468.871
  41  2610.048
  42  2568.591
  43  2500.478
  44  2428.291
  45  2422.965
  46  2401.613
  47  2335.479
  48  2306.544
  49  2339.185
  50  2350.646
  51  2380.224
  52  2376.301
  53  2351.688
  54  2118.28
  55  2051.939
  56  2075.347
  57  2135.778
  58  2175.861
  59  2189.766
  60  2180.617
  61  2170.634
  62  2200.181
  63  2171.246
  64  2146.778
  65  2225.001
  66  2372.668
  67  2459.438
  68  2494.286
  69  2541.475
  70  2584.23
  71  2519.956
  72  2410.986
  73  2327.506
  74  2377.356
  75  2330.197
  76  2341.929
  77  2323.157
  78  2357.956
  79  2235.317
  80  2243.397
  81  2274.615
  82  2405.838
  83  2335.971
  84  2359.926
  85  2349.063
  86  2322.376
  87  2296.513
  88  2328.567
  89  2514.325
  90  2445.837
  91  2299.94
  92  2231.457
  93  2204.704
  94  2171.321
  95  2170.659
  96  2292.781
  97  2468.598
  98  2634.206
  99  2758.487
 100  2908.436
 101  3038.549
 102  3077.904
 103  2969.19
 104  2846.962
 105  2653.884
 106  2621.122
 107  2629.995
 108  2670.771
 109  2665.432
 110  2545.619
 111  2670.783
 112  2661.35
 113  2706.797
 114  2622.305
 115  2611.9
 116  2600.169
 117  2644.375
 118  2815.683
 119  2806.545
 120  2720.02
 121  2633.67
 122  2598.295
 123  2566.824
 124  2589.442
 125  2498.905
 126  2465.904
 127  2483.081
 128  2537.073
 129  2362.424
 130  2310.325
 131  2343.529
 132  2396.599
 133  2355.047
 134  2442.938
 135  2552.246
 136  2630.49
 137  2534.061
 138  2666.025
 139  2738.95
 140  2722.439
 141  2633.718
 142  2690.69
 143  2667.125
 144  2543.353
 145  2462.736
 146  2330.235
 147  2266.048
 148  2226.152
 149  2349.413
 150  2373.5
 151  2285.062
 152  2299.026
 153  2358.455
 154  2363.338
 155  2317.145
 156  2349.997
 157  2533.688
 158  2549.239
 159  2548.413
 160  2645.76
 161  2712.233
 162  2623.412
 163  2509.724
 164  2490.771
 165  2449.996
 166  2443.317
 167  2405.416
 168  2329.566
 169  2235.776
 170  2187.46
 171  2183.583
 172  2170.938
 173  2207.887
 174  2188.109
 175  2199.016
 176  2306.837
 177  2399.461
 178  2496.689
 179  2401.293
 180  2416.509
 181  2446.861
 182  2444.917
 183  2519.239
 184  2593.583
 185  2550.804
 186  2447.04
 187  2400.613
 188  2322.694
 189  2229.207
 190  2272.325
 191  2386.006
 192  2394.713
 193  2319.807
 194  2427.001
 195  2624.951
 196  2685.164
 197  2732.094
 198  2652.693
 199  2597.893
 200  2356.538
 201  2221.173
 202  2231.167
 203  2275.527
 204  2354.025
 205  2314.704
 206  2301.802
 207  2254.908
 208  2330.106
 209  2390.977
 210  2498.126
 211  2533.057
 212  2495.168
 213  2458.661
 214  2509.684
 215  2619.331
 216  2575.319
 217  2388.711
 218  2370.744
 219  2467.126
 220  2558.318
 221  2532.763
 222  2456.251
 223  2437.547
 224  2462.269
 225  2408.68
 226  2406.833
 227  2354.137
 228  2397.484
 229  2277.139
 230  2210.148
 231  2224.76
 232  2299.665
 233  2331.6
 234  2324.22
 235  2426.184
 236  2411.375
 237  2375.817
 238  2405.934
 239  2478.818
 240  2559.579
 241  2615.643
 242  2574.671
 243  2471.106
 244  2322.415
 245  2364.069
 246  2570.189
 247  2676.481
 248  2777.153
 249  2721.454
 250  2625.916
 251  2639.508
 252  2585.881
 253  2599.709
 254  2554.777
 255  2579.11
 256  2591.576
 257  2548.382
 258  2472.054
 259  2415.692
 260  2504.581
 261  2558.406
 262  2552.449
 263  2562.445
 264  2634.727
 265  2624.555
 266  2589.61
 267  2593.082
 268  2590.964
 269  2588.905
 270  2488.853
 271  2366.625
 272  2253.14
 273  2223.037
 274  2314.817
 275  2347.12
 276  2415.608
 277  2301.965
 278  2217.775
 279  2174.042
 280  2309.592
 281  2486.574
 282  2541.979
 283  2476.808
 284  2413.815
 285  2303.147
 286  2159.705
 287  2010.54
 288  1852.819
 289  1933.6
 290  2017.025
 291  2068.841
 292  2055.403
 293  1904.308
 294  1904.569
 295  1958.404
 296  2087.142
 297  2170.396
 298  2151.66
 299  2221.236
 300  2292.262
 301  2401.969
 302  2416.28
 303  2267.207
 304  2090.421
 305  1956.41
 306  1988.143
 307  2082.319
 308  2158.366
 309  2111.001
 310  2016.537
 311  1990.99
 312  2116.208
 313  2267.477
 314  2421.415
 315  2421.464
 316  2329.708
 317  2232.717
 318  2131.035
 319  2114.833
 320  2050.915
 321  2214.103
 322  2321.626
 323  2366.61
 324  2356.513
 325  2456.67
 326  2550.686
 327  2613.119
 328  2584.08
 329  2656.525
 330  2604.997
 331  2678.736
 332  2622.11
 333  2698.68
 334  2743.075
 335  2836.062
 336  2787.549
 337  2753.117
 338  2664.738
 339  2725.343
 340  2795.067
 341  2653.697
 342  2589.791
 343  2585.986
 344  2721.102
 345  2677.305
 346  2617.949
 347  2535.881
 348  2642.996
 349  2553.158
 350  2557.83
 351  2516.499
 352  2540.229
 353  2443.074
 354  2492.946
 355  2541.375
 356  2662.148
 357  2749.511
 358  2680.301
 359  2699.395
 360  2663.979
 361  2761.54
 362  2720.667
 363  2644.921
 364  2629.986
 365  2672.83
 366  2612.382
 367  2578.775
 368  2464.5
 369  2532.952
 370  2556.958
 371  2586.702
 372  2616.119
 373  2504.196
 374  2583.718
 375  2693.313
 376  2702.865
 377  2666.988
 378  2746.904
 379  2699.073
 380  2565.641
 381  2602.263
 382  2511.6
 383  2428.643
 384  2286.653
 385  2441.453
 386  2442.361
 387  2468.477
 388  2455.628
 389  2531.943
 390  2521.139
 391  2520.201
 392  2434.919
 393  2364.771
 394  2243.791
 395  2135.148
 396  2157.936
 397  2305.771
 398  2369.959
 399  2283.627
 400  2336.095
 401  2412.014
 402  2526.928
 403  2422.762
 404  2487.986
 405  2455.188
 406  2468.575
 407  2304.192
 408  2313.626
 409  2412.985
 410  2502.111
 411  2433.415
 412  2355.388
 413  2313.348
 414  2360.207
 415  2383.067
 416  2460.827
 417  2488.618
 418  2472.202
 419  2254.548
 420  2150.626
 421  1983.284
 422  2068.239
 423  2178.985
 424  2301.569
 425  2285.269
 426  2157.22
 427  2125.493
 428  2160.077
 429  2259.5
 430  2222.654
 431  2049.729
 432  1931.15
 433  2083.736
 434  2196.902
 435  2220.235
 436  2102.215
 437  1968.673
 438  2041.161
 439  2161.434
 440  2328.625
 441  2152.748
 442  2055.645
 443  2035.331
 444  2005.758
 445  2105.731
 446  2056.213
 447  2232.01
 448  2153.381
 449  2140.181
 450  2154.777
 451  2185.165
 452  2215.147
 453  2259.787
 454  2375.271
 455  2489.781
 456  2459.114
 457  2530.583
 458  2634.61
 459  2644.214
 460  2583.876
 461  2564.044
 462  2685.213
 463  2477.16
 464  2430.875
 465  2466.411
 466  2553.964
 467  2486.282
 468  2380.1
 469  2384.967
 470  2339.212
 471  2313.673
 472  2297.917
 473  2203.847
 474  2164.21
 475  2232.448
 476  2258.573
 477  2313.584
 478  2247.587
 479  2341.761
 480  2324.331
 481  2371.709
 482  2335.304
 483  2382.796
 484  2342.295
 485  2296.541
 486  2244.303
 487  2214.283
 488  2325.706
 489  2277.074
 490  2277.439
 491  2159.54
 492  2152.155
 493  2060.489
 494  2062.281
 495  2104.011
 496  2154.183
 497  2209.148
 498  2238.819
 499  2202.989
 500  2234.532
 501  2343.928
 502  2432.642
 503  2401.715
 504  2379.268
 505  2415.656
 506  2403.479
 507  2414.617
 508  2363.454
 509  2269.698
 510  2152.493
 511  2130.724
 512  2292.58
 513  2471.25
 514  2377.377
 515  2284.643
 516  2179.139
 517  2208.566
 518  2309.387
 519  2490.772
 520  2576.466
 521  2445.46
 522  2406.61
 523  2418.73
 524  2298.846
 525  2143.603
 526  2073.127
 527  2176.719
 528  2268.155
 529  2243.197
 530  2111.802
 531  2029.909
 532  2018.397
 533  2207.633
 534  2418.096
 535  2398.565
 536  2362.887
 537  2376.676
 538  2344.574
 539  2217.464
 540  2177.22
 541  2107.533
 542  2037.791
 543  1903.707
 544  1884.146
 545  1981.113
 546  2026.469
 547  2030.447
 548  2036.538
 549  2027.596
 550  1973.353
 551  1945.381
 552  2086.98
 553  2091.233
 554  2027.13
 555  2159.941
 556  2239.268
 557  2222.194
 558  2165.078
 559  2167.054
 560  2196.468
 561  2156.032
 562  2190.225
 563  2274.323
 564  2295.761
 565  2217.973
 566  2090.678
 567  1999.714
 568  1962.503
 569  2129.948
 570  2275.3
 571  2411.788
 572  2380.1
 573  2286.833
 574  2176.983
 575  1979.709
 576  1998.328
 577  2050.255
 578  2078.797
 579  2138.739
 580  2191.646
 581  2255.478
 582  2288.896
 583  2224.759
 584  2288.04
 585  2318.496
 586  2284.158
 587  2128.582
 588  2006.47
 589  2058.853
 590  2279.873
 591  2374.189
 592  2430.834
 593  2426.909
 594  2320.38
 595  2291.115
 596  2217.487
 597  2234.875
 598  2372.278
 599  2430.226
 600  2390.634
 601  2330.466
 602  2353.351
 603  2503.312
 604  2468.261
 605  2610.244
 606  2670.989
 607  2605.682
 608  2450.762
 609  2340.489
 610  2415.568
 611  2429.849
 612  2395.274
 613  2340.329
 614  2262.524
 615  2179.079
 616  2153.987
 617  2223.568
 618  2130.985
 619  2160.751
 620  2264.948
 621  2369.651
 622  2178.119
 623  2130.003
 624  2016.364
 625  2011.195
 626  2028.114
 627  2156.544
 628  2277.718
 629  2228.562
 630  2215.387
 631  2350.654
 632  2452.545
 633  2406.426
 634  2274.748
 635  2262.875
 636  2193.639
 637  2246.881
 638  2209.374
 639  2295.904
 640  2402.868
 641  2392.73
 642  2433.759
 643  2446.769
 644  2752.187
 645  2889.964
 646  3097.395
 647  3159.973
 648  3200.156
 649  3228.052
 650  3120.763
 651  3128.64
 652  3179.439
 653  3228.308
 654  3161.403
 655  2958.51
 656  2732.576
 657  2643.031
 658  2704.497
 659  2568.709
 660  2460.388
 661  2498.779
 662  2678.129
 663  2759.737
 664  2616.37
 665  2438.688
 666  2310.067
 667  2307.622
 668  2260.158
 669  2135.548
 670  2126.87
 671  2122.409
 672  2103.269
 673  2195.364
 674  2222.768
 675  2181.532
 676  2124.625
 677  2045.851
 678  2204.549
 679  2245.485
 680  2259.49
 681  2207.025
 682  2301.762
 683  2245.791
 684  2224.375
 685  2025.449
 686  2133.265
 687  2263.952
 688  2335.371
 689  2263.385
 690  2234.841
 691  2277.571
 692  2333.544
 693  2160.697
 694  2059.632
 695  2022.893
 696  2088.528
 697  2018.545
 698  2047.927
 699  2104.294
 700  2167.233
 701  2202.914
 702  2279.103
 703  2416.322
 704  2389.741
 705  2386.967
 706  2362.226
 707  2283.971
 708  2279.938
 709  2174.552
 710  2151.347
 711  2118.191
 712  2193.147
 713  2295.155
 714  2299.017
 715  2195.081
 716  2276.115
 717  2449.357
 718  2601.974
 719  2552.533
 720  2530.094
 721  2488.504
 722  2414.124
 723  2336.718
 724  2310.73
 725  2473.713
 726  2539.029
 727  2676.959
 728  2600.101
 729  2665.39
 730  2636.378
 731  2533.79
 732  2384.336
 733  2241.521
 734  2199.561
 735  2219.127
 736  2164.252
 737  2148.811
 738  2142.476
 739  2138.071
 740  2014.18
 741  2030.7
 742  2213.227
 743  2267.856
 744  2358.33
 745  2321.039
 746  2390.329
 747  2293.343
 748  2284.44
 749  2228.017
 750  2064.389
 751  1913.594
 752  1861.415
 753  1982.701
 754  2204.073
 755  2226.574
 756  2177.618
 757  2175.224
 758  2182.384
 759  2190.833
 760  2139.885
 761  2071.711
 762  2041.463
 763  1992.423
 764  1978.885
 765  1981.416
 766  2105.515
 767  2187.894
 768  2156.045
 769  2093.618
 770  2079.756
 771  2014.34
 772  2002.168
 773  1886.692
 774  1716.121
 775  1701.956
 776  1679.287
 777  1777.969
 778  1775.722
 779  1820.89
 780  1909.986
 781  1924.385
 782  1908.449
 783  1830.419
 784  1901.738
 785  1959.231
 786  1951.032
 787  1879.057
 788  1812.53
 789  1774.179
 790  1723.551
 791  1761.083
 792  1933.354
 793  2056.603
 794  2177.076
 795  2209.4
 796  2231.499
 797  2210.697
 798  2173.27
 799  2080.858
 800  2099.477
 801  2233.077
 802  2261.34
 803  2168.762
 804  2074.659
 805  2148.892
 806  2253.867
 807  2393.121
 808  2521.885
 809  2458.636
 810  2436.093
 811  2309.311
 812  2268.322
 813  2117.01
 814  2228.41
 815  2373.987
 816  2497.475
 817  2394.607
 818  2362.473
 819  2420.556
 820  2389.037
 821  2334.618
 822  2262.758
 823  2333.972
 824  2366.179
 825  2359.991
 826  2290.198
 827  2378.325
 828  2348.499
 829  2422.798
 830  2380.457
 831  2412.841
 832  2321.975
 833  2228.383
 834  2182.099
 835  2249.728
 836  2276.948
 837  2335.764
 838  2272.732
 839  2175.762
 840  2107.164
 841  2068.688
 842  2033.062
 843  1988.639
 844  1967.885
 845  1998.239
 846  1988.397
 847  1959.625
 848  1895.583
 849  1879.21
 850  2005.246
 851  2071.111
 852  2089.912
 853  1986.592
 854  1941.773
 855  1945.663
 856  1971.495
 857  2014.907
 858  1971.42
 859  1900.68
 860  1879.783
 861  1976.242
 862  2018.095
 863  1931.587
 864  1890.919
 865  1904.314
 866  2078.824
 867  2303.038
 868  2293.942
 869  2187.329
 870  2036.175
 871  1940.115
 872  2134.334
 873  2336.097
 874  2352.534
 875  2229.278
 876  2123.031
 877  2125.62
 878  2093.387
 879  2076.552
 880  2107.768
 881  2144.572
 882  2130.557
 883  2068.409
 884  1999.985
 885  2082.594
 886  2211.879
 887  2257.26
 888  2222.544
 889  2144.496
 890  2108.274
 891  2057.851
 892  2109.09
 893  2172.406
 894  2266.959
 895  2270.26
 896  2270.61
 897  2318.302
 898  2206.683
 899  2150.917
 900  2107.612
 901  2226.588
 902  2277.681
 903  2313.543
 904  2308.835
 905  2325.117
 906  2399.828
 907  2376.249
 908  2352.481
 909  2287.366
 910  2422.471
 911  2526.184
 912  2569.632
 913  2468.509
 914  2330.126
 915  2346.072
 916  2504.386
 917  2475.179
 918  2437.841
 919  2378.288
 920  2290.414
 921  2092.955
 922  1971.397
 923  2037.137
 924  2068.115
 925  2121.385
 926  2108.238
 927  2118.804
 928  2165.43
 929  2225.867
 930  2261.443
 931  2276.564
 932  2190.615
 933  2112.325
 934  1995.716
 935  2086.956
 936  2044.144
 937  1986.656
 938  1880.58
 939  2094.272
 940  2347.644
 941  2461.494
 942  2429.643
 943  2420.324
 944  2306.335
 945  2320.598
 946  2292.143
 947  2392.11
 948  2366.583
 949  2320.698
 950  2317.783
 951  2342.968
 952  2388.037
 953  2407.887
 954  2384.956
 955  2430.751
 956  2497.008
 957  2402.996
 958  2353.846
 959  2352.325
 960  2448.513
 961  2542.433
 962  2579.538
 963  2681.624
 964  2623.403
 965  2693.279
 966  2689.913
 967  2638.735
 968  2535.097
 969  2439.136
 970  2443.636
 971  2269.398
 972  2321.257
 973  2381.161
 974  2364.712
 975  2303.514
 976  2236.249
 977  2335.154
 978  2403.342
 979  2431.186
 980  2378.834
 981  2273.505
 982  2271.663
 983  2262.796
 984  2225.884
 985  2286.156
 986  2397.272
 987  2516.203
 988  2538.364
 989  2484.304
 990  2405.731
 991  2375.553
 992  2504.915
 993  2589.796
 994  2610.57
 995  2301.02
 996  2084.796
 997  1999.886
 998  2167.591
 999  2276.526
1000  2394.483
1001  2364.588
1002  2365.533
1003  2269.582
1004  2340.407
1005  2515.437
1006  2542.153
1007  2464.957
1008  2301.5
1009  2324.498
1010  2383.762
1011  2355.665
1012  2460.216
1013  2400.766
1014  2465
1015  2520.654
1016  2668.241
1017  2587.389
1018  2576.145
1019  2467.895
1020  2554.081
1021  2569.026
1022  2521.087
1023  2470.76
