# Input file       =  1185263182.108499_cleaned.dat
# Candidate        =  PSR_0332+5434
# Telescope        =  AR
# Epoch_topo       =  57962.324086903922
# Epoch_bary       =  N/A
# T_sample         =  0.002
# Data Folded      =  7340032
# Data Avg         =  0.048218880301189
# Data StdDev      =  1.00032034451391 
# Profile Bins     =  512
# Profile Avg      =  690.896527739121 
# Profile StdDev   =  119.771392198103 
# Reduced chi-sqr  =  1.044
# Prob(Noise)      <  0.237   (~0.7 sigma)
# P_topo (ms)      =  714.471514409791  +/- 0.000521
# P'_topo (s/s)    =  -0                +/- 2.75e-10
# P''_topo (s/s^2) =  0                 +/- 1.21e-13
# P_bary (ms)      =  N/A
# P'_bary (s/s)    =  N/A
# P''_bary (s/s^2) =  N/A
# P_orb (s)        =  N/A
# asin(i)/c (s)    =  N/A
# eccentricity     =  N/A
# w (rad)          =  N/A
# T_peri           =  N/A
######################################################
   0  1117.014
   1  1194.915
   2  1051.317
   3  738.5682
   4  783.673
   5  722.3903
   6  699.7179
   7  772.1918
   8  756.067
   9  705.4457
  10  748.7007
  11  691.9406
  12  712.9299
  13  689.2427
  14  767.455
  15  800.2062
  16  722.0235
  17  668.3602
  18  667.5008
  19  567.1407
  20  586.8881
  21  679.8975
  22  706.1384
  23  606.6687
  24  595.4702
  25  574.0125
  26  534.508
  27  593.1616
  28  592.3058
  29  600.7229
  30  619.6517
  31  604.2678
  32  560.994
  33  632.227
  34  564.1533
  35  518.7149
  36  502.5018
  37  671.9609
  38  705.5691
  39  593.1092
  40  560.8884
  41  520.8909
  42  516.5151
  43  641.7035
  44  599.6819
  45  652.1849
  46  621.4965
  47  610.7606
  48  677.6303
  49  789.7965
  50  715.3373
  51  627.8491
  52  618.785
  53  602.3049
  54  655.7809
  55  643.4902
  56  677.4823
  57  634.6348
  58  663.494
  59  726.0739
  60  679.0162
  61  644.5958
  62  716.7024
  63  680.3822
  64  587.2021
  65  648.9014
  66  610.7612
  67  582.7419
  68  734.2819
  69  717.3464
  70  761.7563
  71  777.6984
  72  686.3452
  73  585.7416
  74  543.1071
  75  663.2408
  76  697.3503
  77  705.8825
  78  682.6649
  79  739.469
  80  756.9
  81  669.4203
  82  697.6213
  83  728.0034
  84  798.5969
  85  739.0433
  86  672.2959
  87  590.9391
  88  621.5587
  89  637.3027
  90  706.0463
  91  642.5146
  92  666.6119
  93  674.6443
  94  685.5226
  95  787.0253
  96  702.6186
  97  756.7753
  98  725.5237
  99  549.2285
 100  612.9188
 101  637.2977
 102  795.5125
 103  768.3891
 104  686.897
 105  726.796
 106  822.5845
 107  818.3165
 108  751.1734
 109  708.3592
 110  781.7956
 111  854.6832
 112  735.2766
 113  705.0501
 114  717.7415
 115  725.5533
 116  757.8521
 117  760.3334
 118  815.9119
 119  757.6877
 120  748.939
 121  768.9474
 122  700.3605
 123  667.9911
 124  618.4857
 125  623.9271
 126  603.3242
 127  615.2065
 128  577.1359
 129  630.2281
 130  690.5488
 131  735.2193
 132  717.8604
 133  672.9395
 134  710.4615
 135  629.1265
 136  589.976
 137  624.9066
 138  736.79
 139  732.1268
 140  689.1217
 141  672.6086
 142  669.0284
 143  598.2895
 144  647.9543
 145  625.5765
 146  642.9073
 147  672.9911
 148  772.0543
 149  737.2795
 150  729.1865
 151  759.963
 152  720.7867
 153  798.6689
 154  728.6204
 155  781.2033
 156  777.4558
 157  695.4212
 158  832.9315
 159  843.0961
 160  825.4735
 161  816.5844
 162  746.3169
 163  822.8915
 164  801.1228
 165  793.217
 166  846.3662
 167  774.7996
 168  816.6661
 169  803.538
 170  824.4442
 171  811.5522
 172  801.6652
 173  759.0062
 174  702.9235
 175  699.9973
 176  700.35
 177  804.2252
 178  728.826
 179  683.6289
 180  607.22
 181  633.2117
 182  690.1689
 183  698.7911
 184  603.8384
 185  717.8634
 186  737.3295
 187  705.9326
 188  635.5795
 189  647.9973
 190  746.7906
 191  776.4064
 192  678.9127
 193  590.8713
 194  602.6461
 195  710.856
 196  677.8134
 197  650.3659
 198  649.5881
 199  623.0995
 200  618.4516
 201  704.4296
 202  726.8253
 203  755.5173
 204  674.2623
 205  626.7828
 206  694.9564
 207  708.2091
 208  824.0521
 209  739.9739
 210  737.2764
 211  642.0042
 212  553.0705
 213  608.2967
 214  707.1534
 215  778.5868
 216  801.4563
 217  754.3962
 218  770.5842
 219  821.4133
 220  743.0677
 221  745.5282
 222  720.8663
 223  712.1669
 224  652.6771
 225  645.6718
 226  656.9729
 227  776.1569
 228  679.7526
 229  721.0548
 230  763.2782
 231  656.4689
 232  668.9969
 233  703.4172
 234  705.9631
 235  757.9089
 236  725.4542
 237  725.5394
 238  753.1234
 239  746.8521
 240  625.9022
 241  691.898
 242  834.613
 243  785.4283
 244  654.0694
 245  804.0411
 246  713.684
 247  604.999
 248  659.5144
 249  716.1603
 250  517.5981
 251  606.477
 252  665.963
 253  712.1092
 254  691.2649
 255  655.9818
 256  662.9836
 257  650.3085
 258  635.809
 259  698.495
 260  697.6415
 261  625.6296
 262  655.173
 263  591.5068
 264  655.9922
 265  687.4979
 266  549.9515
 267  654.3971
 268  648.6661
 269  590.7484
 270  636.0515
 271  639.5947
 272  593.7953
 273  688.4474
 274  610.2358
 275  532.0534
 276  480.0097
 277  502.1093
 278  554.0657
 279  465.2539
 280  512.0721
 281  628.8154
 282  706.447
 283  799.8679
 284  773.649
 285  698.4099
 286  653.7749
 287  651.5051
 288  662.3855
 289  710.3801
 290  598.277
 291  774.3342
 292  723.9283
 293  682.2886
 294  615.9176
 295  667.6552
 296  644.8423
 297  651.5649
 298  699.3817
 299  620.2821
 300  530.6595
 301  602.495
 302  783.5355
 303  757.6079
 304  636.011
 305  596.196
 306  623.8036
 307  620.5239
 308  719.3829
 309  725.9528
 310  685.8801
 311  593.9025
 312  629.0915
 313  728.3237
 314  752.7382
 315  723.2348
 316  634.4454
 317  761.0789
 318  692.7922
 319  669.237
 320  670.0694
 321  663.368
 322  780.3575
 323  708.2666
 324  731.1385
 325  791.5081
 326  757.1337
 327  674.8209
 328  669.5432
 329  719.3123
 330  613.4901
 331  727.6826
 332  804.0197
 333  692.0405
 334  796.3725
 335  828.2695
 336  709.9191
 337  735.6051
 338  642.5179
 339  620.7974
 340  719.9761
 341  808.8929
 342  753.3364
 343  746.736
 344  821.0168
 345  793.4595
 346  721.1302
 347  647.5853
 348  636.3647
 349  750.3628
 350  739.9636
 351  806.4748
 352  744.3926
 353  813.2778
 354  862.2135
 355  778.1002
 356  748.0237
 357  683.5662
 358  694.2928
 359  873.4416
 360  815.0592
 361  783.5958
 362  670.4089
 363  563.3655
 364  688.4473
 365  746.4493
 366  690.782
 367  646.6624
 368  681.8953
 369  769.8318
 370  837.1359
 371  753.496
 372  712.1055
 373  780.4788
 374  813.2253
 375  871.398
 376  867.827
 377  802.3913
 378  784.1526
 379  754.9453
 380  754.1613
 381  733.4012
 382  754.4708
 383  780.4827
 384  839.5623
 385  835.9871
 386  816.1031
 387  765.1234
 388  851.4448
 389  781.1121
 390  675.4598
 391  713.4299
 392  689.2744
 393  731.757
 394  746.8973
 395  737.8257
 396  707.0976
 397  760.1537
 398  736.5612
 399  719.7446
 400  747.9636
 401  721.4828
 402  719.1914
 403  659.708
 404  648.8639
 405  657.7855
 406  737.3308
 407  769.5381
 408  651.0712
 409  720.7565
 410  803.9081
 411  727.5285
 412  648.6639
 413  689.4828
 414  710.5833
 415  680.7639
 416  682.259
 417  716.7188
 418  686.8284
 419  675.7484
 420  664.6254
 421  627.8614
 422  521.0859
 423  714.4933
 424  723.9277
 425  622.9077
 426  623.7162
 427  739.9377
 428  768.3497
 429  788.2408
 430  769.1229
 431  657.1026
 432  733.4715
 433  731.4308
 434  689.624
 435  630.163
 436  682.0426
 437  786.2953
 438  551.8699
 439  542.7692
 440  688.4274
 441  577.2422
 442  505.4213
 443  564.9733
 444  557.455
 445  623.5084
 446  729.0904
 447  785.8065
 448  752.989
 449  654.9868
 450  674.8706
 451  712.6954
 452  729.7976
 453  679.17
 454  739.7608
 455  701.2452
 456  715.2397
 457  667.8104
 458  639.7383
 459  692.0397
 460  642.0341
 461  606.6572
 462  563.4771
 463  569.9007
 464  642.9016
 465  607.8702
 466  561.9885
 467  570.1243
 468  629.3326
 469  585.5798
 470  549.2382
 471  620.6089
 472  616.689
 473  451.4134
 474  475.953
 475  612.1354
 476  644.4763
 477  609.3936
 478  576.0035
 479  508.3737
 480  499.8936
 481  569.7488
 482  643.6819
 483  621.9497
 484  562.9205
 485  616.9676
 486  592.7108
 487  571.0084
 488  526.95
 489  663.9055
 490  692.298
 491  671.7937
 492  598.7765
 493  683.2587
 494  670.5453
 495  717.3151
 496  729.7065
 497  732.8095
 498  628.9576
 499  526.3828
 500  513.9448
 501  566.7281
 502  564.8884
 503  555.5381
 504  645.1127
 505  624.4631
 506  627.6985
 507  738.4061
 508  787.1091
 509  872.8204
 510  989.4053
 511  1021.206
