# Input file       =  1185521650.102601_cleaned.dat
# Candidate        =  PSR_0332+5434
# Telescope        =  AR
# Epoch_topo       =  57965.315614613435
# Epoch_bary       =  N/A
# T_sample         =  0.002
# Data Folded      =  7340032
# Data Avg         =  0.390725126422434
# Data StdDev      =  6.3306815578638  
# Profile Bins     =  512
# Profile Avg      =  5601.12108978424 
# Profile StdDev   =  757.991725257429 
# Reduced chi-sqr  =  0.952
# Prob(Noise)      <  0.776   (~0.0 sigma)
# P_topo (ms)      =  714.470126514501  +/- 0.000914
# P'_topo (s/s)    =  -0                +/- 4.82e-10
# P''_topo (s/s^2) =  0                 +/- 2.13e-13
# P_bary (ms)      =  N/A
# P'_bary (s/s)    =  N/A
# P''_bary (s/s^2) =  N/A
# P_orb (s)        =  N/A
# asin(i)/c (s)    =  N/A
# eccentricity     =  N/A
# w (rad)          =  N/A
# T_peri           =  N/A
######################################################
   0  7387.48
   1  7536.805
   2  7499.008
   3  7450.417
   4  6888.426
   5  5966.687
   6  5966.902
   7  6106.762
   8  5734.173
   9  5492.659
  10  5675.758
  11  5458.25
  12  5577.046
  13  5762.791
  14  5774.635
  15  5875.729
  16  5788.286
  17  5291.322
  18  5371.84
  19  5523.462
  20  5219.103
  21  5152.833
  22  5689.763
  23  5909.755
  24  5588.03
  25  5260.458
  26  4989.292
  27  5330.425
  28  6019.255
  29  6205.663
  30  5804.911
  31  5735.236
  32  5837.366
  33  5866.605
  34  5645.184
  35  6011.847
  36  6130.566
  37  6131.477
  38  5963.066
  39  5654.014
  40  5704.911
  41  5524.218
  42  5440.242
  43  5662.732
  44  5260.866
  45  5405.16
  46  5703.344
  47  5712.459
  48  5186.25
  49  5453.1
  50  5910.647
  51  6151.079
  52  6050.218
  53  5676.783
  54  5877.038
  55  6324.56
  56  5876.717
  57  5591.182
  58  5471.97
  59  6021.773
  60  5754.408
  61  5440.667
  62  5346.467
  63  5492.861
  64  5523.198
  65  5619.19
  66  6199.734
  67  5514.051
  68  4897.102
  69  5123.433
  70  5701.311
  71  6137.136
  72  6263.032
  73  5762.921
  74  5690.361
  75  5498.282
  76  5335.224
  77  5870.607
  78  5806.05
  79  5339.413
  80  5319.837
  81  5074.525
  82  4757.881
  83  5333.057
  84  5457.524
  85  5462.552
  86  5238.307
  87  5382.596
  88  5499.566
  89  5599.911
  90  6059.785
  91  6073.83
  92  5799.752
  93  5389.112
  94  5645.98
  95  6025.874
  96  6052.783
  97  6014.1
  98  5939.753
  99  5823.425
 100  5625.953
 101  5584.574
 102  5822.181
 103  5852.492
 104  5564.316
 105  5804.256
 106  6102.951
 107  5653.055
 108  5494.472
 109  5584.206
 110  5282.465
 111  5308.735
 112  5379.117
 113  5240.746
 114  4856.033
 115  5628.077
 116  6148.082
 117  5883.731
 118  5773.119
 119  5632.819
 120  5987.994
 121  5824.591
 122  5403.054
 123  5710.188
 124  5574.169
 125  5653.94
 126  5812.913
 127  6048.805
 128  5931.75
 129  5890.913
 130  5835.924
 131  5883.875
 132  5859.91
 133  5839.199
 134  6262.919
 135  6067.235
 136  5540.254
 137  5606.492
 138  5550.566
 139  5555.567
 140  5964.534
 141  5928.318
 142  5481.188
 143  5442.332
 144  5702.041
 145  5627.712
 146  5400.194
 147  5119.692
 148  5394.834
 149  6118.927
 150  6274.142
 151  6119.634
 152  6518.165
 153  6355.566
 154  6285.021
 155  6275.079
 156  6165.985
 157  6124.577
 158  6035.747
 159  6271.225
 160  6099.095
 161  5951.096
 162  6236.573
 163  6006.8
 164  6006.754
 165  5718.214
 166  6033.642
 167  6302.94
 168  6294.396
 169  6289.981
 170  6431.928
 171  6109.052
 172  6174.167
 173  5957.65
 174  5718.043
 175  6117.776
 176  6367.319
 177  5834.946
 178  5828.059
 179  5841.125
 180  5574.661
 181  5644.155
 182  5864.736
 183  5774.539
 184  5862.563
 185  5916.613
 186  6185.586
 187  6356.445
 188  6236.56
 189  5917.227
 190  6082.714
 191  6449.617
 192  6219.362
 193  6403.469
 194  6556.014
 195  6650.688
 196  6539.706
 197  6229.119
 198  6239.489
 199  6348.855
 200  6504.356
 201  6448.383
 202  6656.727
 203  6312.335
 204  5893.308
 205  5608.9
 206  5975.56
 207  6338.667
 208  6211.613
 209  5854.905
 210  5658.621
 211  5816.369
 212  5733.614
 213  5661.557
 214  5932.202
 215  6093.013
 216  5733.788
 217  6058.125
 218  6056.323
 219  6106.614
 220  6045.353
 221  6134.768
 222  6280.756
 223  6195.26
 224  6162.72
 225  6155.83
 226  5977.309
 227  6053.18
 228  5978.802
 229  5767.441
 230  5992.004
 231  5729.959
 232  6016
 233  6298.707
 234  5989.619
 235  6216.053
 236  5869.478
 237  5586.88
 238  5637.815
 239  5806.614
 240  5850.858
 241  5911.822
 242  5542.271
 243  5768.546
 244  5499.231
 245  5259.861
 246  5161.016
 247  5130.081
 248  5301.764
 249  5205.766
 250  5391.713
 251  5049.759
 252  4949.119
 253  5325.784
 254  5343.309
 255  5308.154
 256  5210.163
 257  4971.808
 258  5117.641
 259  4981.586
 260  5136.492
 261  5148.818
 262  5418.665
 263  5661.585
 264  5617.093
 265  5496.27
 266  5679.305
 267  5559.603
 268  5287.588
 269  5169.584
 270  5029.361
 271  5211.18
 272  4908.29
 273  4759.421
 274  4944.751
 275  4923.059
 276  5028.364
 277  5223.454
 278  5019.455
 279  5211.675
 280  5082.507
 281  4586.258
 282  4726.218
 283  5324.218
 284  5414.874
 285  5551.856
 286  5531.187
 287  5233.035
 288  5454.674
 289  5377.459
 290  5461.786
 291  5573.275
 292  5876.48
 293  5564.71
 294  5315.982
 295  5532.299
 296  5724.458
 297  5750.73
 298  5381.189
 299  5187.726
 300  5224.047
 301  5156.849
 302  5679.296
 303  5806.667
 304  5501.475
 305  5099.621
 306  4946.811
 307  4978.632
 308  4966.766
 309  5483.105
 310  5842.371
 311  5660.22
 312  5430.053
 313  5254.257
 314  4882.438
 315  5027.22
 316  4983.636
 317  4741.828
 318  4911.078
 319  5019.777
 320  5185.569
 321  4850.362
 322  4978.655
 323  4893.594
 324  4926.619
 325  4809.554
 326  4739.75
 327  4738.477
 328  4603.795
 329  4615.801
 330  4350.196
 331  4435.321
 332  4797.895
 333  4895.959
 334  4743.519
 335  4436.811
 336  4515.239
 337  4897.281
 338  5076.011
 339  4657.96
 340  4568.672
 341  5093.672
 342  4978.896
 343  4853.828
 344  4871.739
 345  5011.765
 346  4926.398
 347  4874.945
 348  5254.403
 349  4633.79
 350  4789.657
 351  4922.021
 352  5071.424
 353  4803.206
 354  4707.179
 355  4887.47
 356  5125.559
 357  4965.235
 358  4357.227
 359  4091.375
 360  4299.794
 361  4839.994
 362  4802.992
 363  4489.642
 364  4347.542
 365  4440.034
 366  4522.987
 367  4709.102
 368  4504.445
 369  4727.693
 370  4793.607
 371  4394.164
 372  4421.418
 373  4638.198
 374  4621.592
 375  4886.282
 376  4891.226
 377  4965.555
 378  4835.958
 379  5133.172
 380  5209.915
 381  5421.709
 382  5514.895
 383  5447.46
 384  5270.382
 385  4930.825
 386  4996.292
 387  5630.268
 388  5634.38
 389  5433.024
 390  5146.819
 391  5130.339
 392  5481.538
 393  5843.708
 394  5896.072
 395  5781.802
 396  5421.009
 397  5737.155
 398  6158.815
 399  5907.719
 400  5869.444
 401  5353.258
 402  5369.894
 403  5867.463
 404  6229.385
 405  5948.185
 406  6026.698
 407  5842.978
 408  5848.729
 409  5787.181
 410  5327.421
 411  5091.406
 412  5214.067
 413  4856.529
 414  5163.969
 415  5110.754
 416  5069.608
 417  4998.729
 418  5132.226
 419  5028.706
 420  5490.079
 421  5758.181
 422  5411.646
 423  4991.767
 424  5080.386
 425  5272.493
 426  5872.887
 427  5937.018
 428  5985.924
 429  6004.474
 430  6026.502
 431  5613.942
 432  5274.125
 433  5323.835
 434  5472.265
 435  5726.817
 436  5770.342
 437  5634.451
 438  5340.277
 439  5442.295
 440  5183.672
 441  5360.531
 442  5355.943
 443  5339.425
 444  5122.423
 445  5192.539
 446  4910.735
 447  4980.852
 448  5239.599
 449  5491.996
 450  5363.164
 451  5275.935
 452  5122.39
 453  5255.74
 454  5259.309
 455  4905.585
 456  5039.694
 457  5473.129
 458  5640.407
 459  5831.774
 460  5946.433
 461  6237.997
 462  6455.613
 463  6527.108
 464  6417.288
 465  6327.943
 466  6653.046
 467  6887.859
 468  6820.821
 469  6567.533
 470  6510.41
 471  6259.944
 472  6021.656
 473  6076.696
 474  5991.353
 475  6055.912
 476  5919.356
 477  5903.179
 478  5829.485
 479  5833.98
 480  6059.093
 481  6036.115
 482  5530.209
 483  5260.825
 484  5626.969
 485  5989.896
 486  6067.295
 487  5861.615
 488  5842.871
 489  6021.37
 490  5780.846
 491  5705.536
 492  6075.728
 493  6402.555
 494  6049.063
 495  5980.508
 496  6069.727
 497  6302.736
 498  6064.617
 499  6128.512
 500  5982.495
 501  5812.829
 502  5779.274
 503  6059.438
 504  6064.201
 505  6327.771
 506  6493.838
 507  6159.037
 508  6027.014
 509  6006.145
 510  6088.825
 511  6672.689
