# Input file       =  1185349336.100742_cleaned.dat
# Candidate        =  PSR_0332+5434
# Telescope        =  AR
# Epoch_topo       =  57963.321239591925
# Epoch_bary       =  N/A
# T_sample         =  0.002
# Data Folded      =  7340032
# Data Avg         =  0.320539711735494
# Data StdDev      =  5.29042132226916 
# Profile Bins     =  1024
# Profile Avg      =  2297.57409197497 
# Profile StdDev   =  447.908452783287 
# Reduced chi-sqr  =  1.746
# Prob(Noise)      <  3.02e-44   (~13.9 sigma)
# P_topo (ms)      =  714.471037698165  +/- 0.000186
# P'_topo (s/s)    =  -0                +/- 9.82e-11
# P''_topo (s/s^2) =  0                 +/- 4.34e-14
# P_bary (ms)      =  N/A
# P'_bary (s/s)    =  N/A
# P''_bary (s/s^2) =  N/A
# P_orb (s)        =  N/A
# asin(i)/c (s)    =  N/A
# eccentricity     =  N/A
# w (rad)          =  N/A
# T_peri           =  N/A
######################################################
   0  1953.95
   1  2057.228
   2  2144.645
   3  2287.787
   4  2388.501
   5  2431.905
   6  2388.961
   7  2389.506
   8  2337.293
   9  2364.191
  10  2294.602
  11  2235.697
  12  2222.307
  13  2270.058
  14  2282.324
  15  2343.362
  16  2329.168
  17  2327.379
  18  2397.383
  19  2492.752
  20  2436.208
  21  2432.477
  22  2406.01
  23  2436.962
  24  2450.523
  25  2587.415
  26  2613.95
  27  2735.514
  28  2780.312
  29  2860.584
  30  2873.128
  31  2934.476
  32  2993.926
  33  2936.139
  34  2874.991
  35  2855.802
  36  2874.556
  37  2871.287
  38  2942.966
  39  3036.025
  40  3091.287
  41  3053.021
  42  3030.404
  43  3058.815
  44  3035.45
  45  2935.044
  46  2889.812
  47  2884.04
  48  2868.68
  49  2788.103
  50  2761.267
  51  2873.24
  52  2804.213
  53  2731.543
  54  2534.025
  55  2502.007
  56  2535.68
  57  2685.38
  58  2688.184
  59  2509.594
  60  2411.867
  61  2335.975
  62  2323.767
  63  2302.031
  64  2273.223
  65  2241.897
  66  2213.177
  67  2198.051
  68  2220.944
  69  2166.756
  70  2173.585
  71  2158.785
  72  2270.75
  73  2282.752
  74  2298.363
  75  2278.731
  76  2346.499
  77  2360.124
  78  2355.285
  79  2310.631
  80  2265.391
  81  2283.934
  82  2341.69
  83  2342.395
  84  2364.629
  85  2326.319
  86  2256.998
  87  2210.04
  88  2120.706
  89  2265.5
  90  2390.297
  91  2497.723
  92  2342.305
  93  2250.077
  94  2337.196
  95  2402.865
  96  2453.24
  97  2353.163
  98  2295.819
  99  2123.672
 100  2113.435
 101  1995.938
 102  1957.716
 103  1980.513
 104  2128.378
 105  2072.807
 106  2010.368
 107  1923.449
 108  1904.069
 109  1854.419
 110  1822.481
 111  1740.819
 112  1836.604
 113  1910.703
 114  1896.846
 115  1769.648
 116  1762.208
 117  1747.228
 118  1769.972
 119  1795.215
 120  2051.035
 121  2057.618
 122  2110.032
 123  2075.891
 124  2202.562
 125  2071.797
 126  2103.786
 127  2114.153
 128  2137.813
 129  2056.089
 130  2152.308
 131  2285.41
 132  2319.517
 133  2174.404
 134  2198.328
 135  2090.581
 136  1964.902
 137  1931.148
 138  2181.94
 139  2317.296
 140  2329.767
 141  2210.514
 142  2215.904
 143  2166.614
 144  2089.641
 145  2068.033
 146  2062.193
 147  2097.532
 148  2108.423
 149  2123.43
 150  2174.29
 151  2275.721
 152  2336.167
 153  2416.505
 154  2419.292
 155  2424.342
 156  2351.734
 157  2363.862
 158  2444.115
 159  2496.391
 160  2447.275
 161  2422.173
 162  2476.587
 163  2498.411
 164  2480.125
 165  2440.604
 166  2474.906
 167  2542.833
 168  2638.327
 169  2733.099
 170  2785.064
 171  2759.692
 172  2897.976
 173  2898.552
 174  2893.961
 175  2803.576
 176  2735.954
 177  2637.198
 178  2742.021
 179  2777.299
 180  2798.5
 181  2694.387
 182  2633.322
 183  2634.447
 184  2690.624
 185  2862.798
 186  2994.486
 187  3099.088
 188  2928.646
 189  2663.316
 190  2470.76
 191  2519.147
 192  2566.475
 193  2546.262
 194  2484.358
 195  2440.528
 196  2430.042
 197  2370.107
 198  2354.612
 199  2472.246
 200  2531.599
 201  2436.702
 202  2373.706
 203  2369.107
 204  2461.465
 205  2460.097
 206  2435.929
 207  2411.397
 208  2386.634
 209  2351.19
 210  2188.458
 211  2135.384
 212  2136.219
 213  2182.195
 214  2214.125
 215  2159.172
 216  2188.668
 217  2163.736
 218  2188.913
 219  2211.819
 220  2189.867
 221  2098.95
 222  2119.219
 223  2247.149
 224  2227.024
 225  2093.146
 226  2018.31
 227  1951.683
 228  1944.501
 229  1986.456
 230  2063.485
 231  2016.388
 232  1966.797
 233  2099.314
 234  2134.958
 235  2160.168
 236  2158.877
 237  2227.366
 238  2275.427
 239  2171.194
 240  2142.011
 241  2148.976
 242  2155.108
 243  2040.549
 244  1997.583
 245  1917.937
 246  1834.589
 247  1777.273
 248  1781.415
 249  1853.012
 250  1970.909
 251  2070.374
 252  2154.222
 253  2237.977
 254  2283.395
 255  2234.09
 256  2169.575
 257  2054.003
 258  2046.641
 259  1923.047
 260  1929.58
 261  1899.105
 262  1857.669
 263  1883.108
 264  1970.039
 265  2031.384
 266  1970.85
 267  1917.359
 268  2044.617
 269  2121.86
 270  2071.324
 271  1983.41
 272  1969.401
 273  1897.974
 274  1908.955
 275  1821.265
 276  1868.361
 277  1953.805
 278  2093.872
 279  2126.022
 280  2074.419
 281  1960.546
 282  1845.959
 283  1822.619
 284  1886.11
 285  1977.676
 286  2069.809
 287  2017.375
 288  1977.487
 289  1940.806
 290  2040.706
 291  2168.937
 292  2204.113
 293  2179.695
 294  2026.178
 295  2018.538
 296  1998.069
 297  2079.525
 298  2180.735
 299  2311.167
 300  2291.044
 301  2241.932
 302  2178.574
 303  2261.38
 304  2286.395
 305  2328.928
 306  2235.8
 307  2218.241
 308  2247.589
 309  2283.943
 310  2240.046
 311  2167.712
 312  2240.308
 313  2284.394
 314  2303.199
 315  2299.205
 316  2217.208
 317  2180.241
 318  2105.529
 319  2132.219
 320  2233.972
 321  2270.974
 322  2296.448
 323  2355.494
 324  2386.913
 325  2354.931
 326  2248.178
 327  2207.245
 328  2161.976
 329  2200.379
 330  2168.963
 331  2131.382
 332  2086.497
 333  2088.988
 334  2032.454
 335  2066.346
 336  2193.39
 337  2298.724
 338  2179.859
 339  2160.101
 340  2218.604
 341  2238.552
 342  2194.319
 343  2084.798
 344  2162.705
 345  2278.27
 346  2363.334
 347  2410.79
 348  2365.247
 349  2372.961
 350  2286.553
 351  2238.362
 352  2230.926
 353  2127.585
 354  2075.657
 355  2054.689
 356  2028.718
 357  2024.916
 358  2098.168
 359  2154.845
 360  2168.042
 361  2187.562
 362  2242.022
 363  2217.564
 364  2112.266
 365  2092.477
 366  2054.113
 367  1920.036
 368  1831.546
 369  1844.806
 370  1901.276
 371  1885.905
 372  1845.581
 373  1889.047
 374  1835.884
 375  1673.164
 376  1765.841
 377  1677.846
 378  1742.814
 379  1692.308
 380  1791.3
 381  1789.109
 382  1639.043
 383  1636.327
 384  1695.627
 385  1709.627
 386  1684.593
 387  1733.787
 388  1794.485
 389  1698.804
 390  1577.898
 391  1604.935
 392  1592.608
 393  1606.252
 394  1548.577
 395  1596.639
 396  1500.706
 397  1571.38
 398  1599.26
 399  1631.736
 400  1639.494
 401  1765.824
 402  1766.531
 403  1636.402
 404  1545.794
 405  1619.901
 406  1743.183
 407  1699.669
 408  1691.713
 409  1738.606
 410  1628.445
 411  1655.507
 412  1710.811
 413  1788.259
 414  1755.012
 415  1835.513
 416  1881.897
 417  1721.361
 418  1576.693
 419  1613.281
 420  1742.014
 421  1760.729
 422  1729.416
 423  1809.427
 424  1786.85
 425  1753.568
 426  1618.276
 427  1670.479
 428  1704.436
 429  1581.728
 430  1668.637
 431  1717.024
 432  1823.765
 433  1781.516
 434  1859.824
 435  1946.286
 436  1994.789
 437  1996.606
 438  1957.421
 439  1874.399
 440  1842.843
 441  1853.386
 442  1789.219
 443  1733.201
 444  1851.2
 445  1938.506
 446  1980.402
 447  1958.649
 448  1962.684
 449  2018.584
 450  2119.932
 451  2282.64
 452  2350.74
 453  2370.681
 454  2443.291
 455  2477.478
 456  2530.824
 457  2441.237
 458  2458.176
 459  2460.251
 460  2459.446
 461  2453.677
 462  2416.594
 463  2451.86
 464  2434.132
 465  2451.706
 466  2449.602
 467  2377.303
 468  2400.872
 469  2543.039
 470  2707.717
 471  2806.129
 472  2741.607
 473  2759.948
 474  2587.785
 475  2500.638
 476  2556.375
 477  2575.067
 478  2523.453
 479  2479.787
 480  2579.067
 481  2641.894
 482  2453.611
 483  2316.297
 484  2414.055
 485  2478.715
 486  2418.919
 487  2383.209
 488  2421.441
 489  2486.632
 490  2476.354
 491  2513.362
 492  2680.71
 493  2742.82
 494  2685.188
 495  2544.938
 496  2436.088
 497  2446.797
 498  2330.244
 499  2244.9
 500  2235.132
 501  2285.55
 502  2239.308
 503  2254.475
 504  2350.556
 505  2430.258
 506  2434.738
 507  2448.483
 508  2469.093
 509  2480.477
 510  2340.956
 511  2284.135
 512  2298.069
 513  2476.957
 514  2530.728
 515  2430.935
 516  2276.203
 517  2138.602
 518  2033.09
 519  1933.879
 520  2049.425
 521  2195.378
 522  2080.97
 523  1846.944
 524  1899.957
 525  2011.203
 526  2208.303
 527  2199.509
 528  2102.489
 529  1952.429
 530  1830.005
 531  1844.01
 532  1752.524
 533  1837.498
 534  1791.452
 535  1804.739
 536  1707.029
 537  1726.376
 538  1900.491
 539  1969.659
 540  2052.611
 541  2071.398
 542  2032.907
 543  2045.95
 544  1985.925
 545  1973.372
 546  1865.568
 547  1733.414
 548  1759.735
 549  1721.128
 550  1717.755
 551  1632.727
 552  1695.93
 553  1650.926
 554  1720.361
 555  1779.735
 556  1886.853
 557  1799.113
 558  1663.122
 559  1664.837
 560  1780.779
 561  1840.099
 562  1860.06
 563  1902.427
 564  1959.444
 565  1930.638
 566  1888.884
 567  1966.507
 568  2092.757
 569  2094.887
 570  2169.463
 571  2162.357
 572  2076.978
 573  1976.954
 574  1966.256
 575  2073.364
 576  2166.984
 577  2082.328
 578  2083.035
 579  2087.414
 580  2010.022
 581  2017.081
 582  2038.581
 583  2073.199
 584  2064.411
 585  2110.777
 586  2326.094
 587  2339.587
 588  2353.225
 589  2292.181
 590  2178.469
 591  2146.879
 592  2173.609
 593  2224.646
 594  2247.308
 595  2192.911
 596  2187.432
 597  2306.084
 598  2484.783
 599  2552.138
 600  2402.048
 601  2321.682
 602  2273.679
 603  2333.314
 604  2372.088
 605  2491.15
 606  2494.823
 607  2461.061
 608  2572.769
 609  2690.198
 610  2739.591
 611  2666.886
 612  2787.606
 613  2917.42
 614  2875.748
 615  2654.639
 616  2497.422
 617  2514.992
 618  2648.152
 619  2723.096
 620  2854.271
 621  2894.077
 622  2750.825
 623  2566.924
 624  2504.929
 625  2607.767
 626  2743.553
 627  2810.339
 628  2768.719
 629  2833.573
 630  2799.077
 631  2793.3
 632  2702.331
 633  2661.023
 634  2640.331
 635  2756.389
 636  2978.481
 637  3026.257
 638  2776.618
 639  2713.275
 640  2606.486
 641  2703.455
 642  2712.721
 643  2820.69
 644  2974.81
 645  3124.852
 646  3304.774
 647  3357.659
 648  3406.022
 649  3254.346
 650  3298.071
 651  3426.713
 652  3516.639
 653  3390.044
 654  3122.717
 655  2945.197
 656  2859.291
 657  2823.343
 658  2781.025
 659  2629.514
 660  2496.495
 661  2304.715
 662  2374.077
 663  2487.19
 664  2550.77
 665  2545.261
 666  2606.743
 667  2505.871
 668  2461.694
 669  2430.359
 670  2495.864
 671  2537.583
 672  2510.979
 673  2547.835
 674  2506.929
 675  2460.159
 676  2341.46
 677  2416.984
 678  2469.188
 679  2466.618
 680  2336.999
 681  2317.279
 682  2327.283
 683  2366.853
 684  2458.539
 685  2381.517
 686  2388.678
 687  2395.078
 688  2422.122
 689  2487.564
 690  2463.583
 691  2511.765
 692  2489.305
 693  2471.083
 694  2363
 695  2312.525
 696  2429.265
 697  2482.728
 698  2471.151
 699  2341.486
 700  2237.721
 701  2171.736
 702  2189.874
 703  2317.413
 704  2313.772
 705  2203.743
 706  2215.559
 707  2266.903
 708  2288.067
 709  2254.105
 710  2219.885
 711  2182.165
 712  2236.413
 713  2168.508
 714  2225.825
 715  2216.314
 716  2272.988
 717  2219.478
 718  2339.362
 719  2464.836
 720  2391.898
 721  2357.792
 722  2360.071
 723  2405.33
 724  2266.644
 725  2256.115
 726  2217.194
 727  2217.741
 728  2228.489
 729  2362.241
 730  2506.862
 731  2498.943
 732  2470.622
 733  2504.032
 734  2537.942
 735  2532.59
 736  2484.362
 737  2486.179
 738  2450.084
 739  2474.361
 740  2520.401
 741  2555.093
 742  2552.596
 743  2610.398
 744  2683.538
 745  2710.655
 746  2671.112
 747  2618.126
 748  2622.402
 749  2577.333
 750  2629.317
 751  2662.43
 752  2669.759
 753  2682.181
 754  2783.284
 755  2938.42
 756  2837.85
 757  2679.858
 758  2708.124
 759  2808.973
 760  3035.346
 761  3023.637
 762  3045.265
 763  2823.334
 764  2866.172
 765  2922.245
 766  2944.045
 767  2875.752
 768  2789.729
 769  2741.896
 770  2714.529
 771  2795.06
 772  2889.104
 773  2822.065
 774  2739.413
 775  2594.453
 776  2615.108
 777  2562.313
 778  2620.155
 779  2707.17
 780  2697.956
 781  2645.141
 782  2638.273
 783  2796.019
 784  2857.036
 785  2755.217
 786  2678.328
 787  2618.567
 788  2610.397
 789  2560.291
 790  2618.461
 791  2576.571
 792  2572.682
 793  2528.104
 794  2591.099
 795  2561.793
 796  2518.473
 797  2502.955
 798  2501.074
 799  2559.222
 800  2549.234
 801  2605.919
 802  2642.596
 803  2592.716
 804  2544.481
 805  2449.121
 806  2305.259
 807  2306.026
 808  2291.346
 809  2366.742
 810  2370.881
 811  2467.858
 812  2625.541
 813  2609.142
 814  2691.682
 815  2572.876
 816  2446.893
 817  2302.67
 818  2224.372
 819  2206.348
 820  2160.122
 821  2226.958
 822  2334.465
 823  2313.153
 824  2333.949
 825  2316.609
 826  2326.282
 827  2283.762
 828  2230.805
 829  2153.206
 830  2198.323
 831  2243.449
 832  2316.916
 833  2217.588
 834  2158.699
 835  2211.41
 836  2292.265
 837  2299.766
 838  2250.201
 839  2217.491
 840  2120.196
 841  1992.767
 842  1957.558
 843  2049.001
 844  2249.354
 845  2264.954
 846  2267.563
 847  2277.731
 848  2178.931
 849  2096.562
 850  2133.63
 851  2190.565
 852  2184.373
 853  2092.951
 854  2031.74
 855  2048.643
 856  2104.467
 857  2225.708
 858  2228.519
 859  2202.896
 860  2242.125
 861  2187.001
 862  2283.52
 863  2253.124
 864  2302.868
 865  2220.149
 866  2078.42
 867  1971.542
 868  1946.684
 869  2196.448
 870  2270.986
 871  2471.656
 872  2448.579
 873  2498.956
 874  2469.943
 875  2451.111
 876  2432.135
 877  2463.169
 878  2411.599
 879  2422.44
 880  2419.38
 881  2452.567
 882  2481.228
 883  2550.582
 884  2565.446
 885  2608.043
 886  2602.566
 887  2716.959
 888  2624.113
 889  2581.504
 890  2579.666
 891  2585.509
 892  2665.876
 893  2626.025
 894  2577.24
 895  2538.644
 896  2577.868
 897  2530.844
 898  2463.168
 899  2521.546
 900  2677.793
 901  2703.614
 902  2660.292
 903  2613.654
 904  2607.216
 905  2583.201
 906  2578.653
 907  2684.804
 908  2704.932
 909  2741.531
 910  2677.958
 911  2730.166
 912  2676.391
 913  2648.82
 914  2540.122
 915  2563.807
 916  2456.787
 917  2396.814
 918  2335.704
 919  2350.423
 920  2315.144
 921  2306.935
 922  2265.786
 923  2358.623
 924  2467.766
 925  2469.297
 926  2396.88
 927  2511.817
 928  2613.166
 929  2653.916
 930  2583.663
 931  2500.034
 932  2405.932
 933  2231.007
 934  2115.683
 935  2180.321
 936  2346.853
 937  2450.2
 938  2369.911
 939  2345.812
 940  2370.491
 941  2310.573
 942  2365.311
 943  2426.201
 944  2448.708
 945  2339.644
 946  2329.604
 947  2324.195
 948  2291.344
 949  2263.931
 950  2286.037
 951  2261.278
 952  2223.903
 953  2245.454
 954  2289.466
 955  2198.555
 956  2111.098
 957  2089.861
 958  2180.116
 959  2279.037
 960  2319.502
 961  2335.498
 962  2205.382
 963  2159.37
 964  2240.432
 965  2345.411
 966  2302.013
 967  2169.667
 968  1995.613
 969  1967.58
 970  2066.172
 971  2104.633
 972  2085.685
 973  2109.388
 974  2174.45
 975  2189.547
 976  2070.709
 977  2153.074
 978  2131.427
 979  2096.971
 980  2069.195
 981  2154.611
 982  2244.134
 983  2316.822
 984  2402.204
 985  2352.469
 986  2410.498
 987  2415.134
 988  2395.726
 989  2315.472
 990  2174.228
 991  2182.754
 992  2236.716
 993  2224.39
 994  2015.979
 995  1994.534
 996  2041.806
 997  2078.246
 998  2070.01
 999  2069.045
1000  2069.936
1001  2176.463
1002  2189.773
1003  2254.207
1004  2207.416
1005  2206.529
1006  2304.889
1007  2196.191
1008  2158.216
1009  2055.59
1010  2067.883
1011  2109.593
1012  2089.841
1013  2136.666
1014  2187.08
1015  2238.453
1016  2218.187
1017  2182.678
1018  2272.504
1019  2309.491
1020  2318.052
1021  2187.559
1022  1983.248
1023  1926.311
