# Input file       =  1185750573.115542_cleaned.dat
# Candidate        =  PSR_0332+5434
# Telescope        =  AR
# Epoch_topo       =  57967.965186522473
# Epoch_bary       =  N/A
# T_sample         =  0.002
# Data Folded      =  7208960
# Data Avg         =  0.309095695365052
# Data StdDev      =  5.04839556183323 
# Profile Bins     =  1024
# Profile Avg      =  2176.04791206331 
# Profile StdDev   =  423.584154745089 
# Reduced chi-sqr  =  0.400
# Prob(Noise)      <  1   (~0.0 sigma)
# P_topo (ms)      =  714.468660468008  +/- 9.56e-05
# P'_topo (s/s)    =  -0                +/- 5.13e-11
# P''_topo (s/s^2) =  0                 +/- 2.31e-14
# P_bary (ms)      =  N/A
# P'_bary (s/s)    =  N/A
# P''_bary (s/s^2) =  N/A
# P_orb (s)        =  N/A
# asin(i)/c (s)    =  N/A
# eccentricity     =  N/A
# w (rad)          =  N/A
# T_peri           =  N/A
######################################################
   0  2017.606
   1  2117.563
   2  2176.465
   3  2208.494
   4  2056.368
   5  1996.593
   6  2037.405
   7  2111.948
   8  2047.779
   9  1982.101
  10  2058.284
  11  2037.709
  12  2065.98
  13  2053.028
  14  2088.39
  15  2159.648
  16  2315.968
  17  2398.138
  18  2300.838
  19  2253.899
  20  2338.282
  21  2418.713
  22  2340.479
  23  2237.739
  24  2326.048
  25  2291.318
  26  2298.331
  27  2184.766
  28  2225.727
  29  2352.861
  30  2454.821
  31  2433.678
  32  2319.469
  33  2158.861
  34  2208.033
  35  2317.589
  36  2193.47
  37  2180.85
  38  2203.224
  39  2321.059
  40  2084.177
  41  2028.225
  42  1999.483
  43  2019.156
  44  2122.34
  45  2219.643
  46  2361.668
  47  2207.214
  48  2143.815
  49  2093.662
  50  2084.284
  51  2130.223
  52  2147.473
  53  2381.61
  54  2363.922
  55  2468.08
  56  2396.299
  57  2397.158
  58  2182.388
  59  2109.638
  60  2140.971
  61  2110.953
  62  2024.526
  63  1850.705
  64  1991.679
  65  1972.483
  66  2106.73
  67  2094.689
  68  2269.74
  69  2275.616
  70  2280.444
  71  2202.045
  72  2323.6
  73  2197.192
  74  2223.887
  75  2220.31
  76  2210.65
  77  2004.328
  78  2030.166
  79  2087.591
  80  2055.825
  81  2031.349
  82  2217.078
  83  2298.92
  84  2271.283
  85  2149.525
  86  2203.197
  87  2268.17
  88  2322.927
  89  2262.227
  90  2161.818
  91  2133.199
  92  2079.156
  93  2066.083
  94  2128.505
  95  2118.391
  96  1972.044
  97  2102.569
  98  1981.565
  99  2043.72
 100  1905.015
 101  2033.857
 102  2075.711
 103  2114.692
 104  2084.623
 105  2076.806
 106  2124.818
 107  2391.409
 108  2428.143
 109  2489.06
 110  2263.898
 111  2231.126
 112  2196.056
 113  2155.756
 114  2201.432
 115  2156.503
 116  2150.915
 117  2067.607
 118  2127.22
 119  2192.449
 120  2301.021
 121  2383.671
 122  2474.959
 123  2295.039
 124  2295.573
 125  2413.767
 126  2548.885
 127  2409.846
 128  2230.953
 129  2119.272
 130  2132.789
 131  2129.038
 132  2208.103
 133  2203.904
 134  2161.138
 135  2021.798
 136  2146.075
 137  2140.969
 138  2146.385
 139  2029.214
 140  2201.041
 141  2152.158
 142  2111.519
 143  2114.637
 144  2235.811
 145  2179.946
 146  2088.239
 147  2152.953
 148  2073.136
 149  2093.904
 150  2122.632
 151  2257.697
 152  2243.151
 153  2213.594
 154  2182.078
 155  2190.386
 156  2254.912
 157  2327.86
 158  2320.011
 159  2334.958
 160  2185.874
 161  2210.945
 162  2334.035
 163  2345.196
 164  2297.722
 165  2108.962
 166  1965.938
 167  1891.349
 168  1965.301
 169  2174.94
 170  2214.651
 171  2243.646
 172  2181.945
 173  2114.955
 174  2135.851
 175  2051.002
 176  2121.639
 177  2123.865
 178  2072.618
 179  1955.24
 180  1907.144
 181  1933.476
 182  2033.417
 183  2108.974
 184  2133.284
 185  1991.683
 186  2070.138
 187  2080.35
 188  2168.283
 189  2243.335
 190  2368.965
 191  2385.13
 192  2223.735
 193  2048.056
 194  2008.925
 195  2040.211
 196  1978.345
 197  1812.932
 198  1825.533
 199  1972.51
 200  2102.109
 201  2171.699
 202  2142.518
 203  2217.609
 204  2258.732
 205  2463.999
 206  2414.233
 207  2274.759
 208  2132.264
 209  2076.091
 210  2006.237
 211  1908.356
 212  2003.613
 213  2143.347
 214  2103.583
 215  1974.833
 216  1989.505
 217  2116.696
 218  2181.383
 219  2216.215
 220  2208.614
 221  2208.092
 222  2188.242
 223  2144.007
 224  2058.472
 225  1936.756
 226  1848.776
 227  1933.458
 228  2125.625
 229  2185.862
 230  2111.919
 231  2004.784
 232  2095.593
 233  2134.724
 234  2242.272
 235  2317.921
 236  2447.133
 237  2296.425
 238  2215.487
 239  2094.375
 240  2126.015
 241  2123.036
 242  2150.422
 243  2098.548
 244  1944.747
 245  1925.774
 246  1994
 247  2018.92
 248  2012.369
 249  2097.962
 250  2222.679
 251  2125.966
 252  2029.841
 253  2054.524
 254  2241.095
 255  2346.103
 256  2362.143
 257  2301.546
 258  2126.426
 259  2073.755
 260  2057.231
 261  2136.231
 262  2086.151
 263  2071.787
 264  2072.571
 265  2197.088
 266  2059.356
 267  2013.008
 268  2068.124
 269  2217.937
 270  2199.894
 271  2082.099
 272  2064.984
 273  2154.302
 274  2299.314
 275  2248.382
 276  2091.119
 277  2229.064
 278  2353.53
 279  2210.436
 280  1974.363
 281  1908.224
 282  1996.481
 283  2106.832
 284  2053.978
 285  2066.169
 286  2068.962
 287  2165.932
 288  2365.384
 289  2365.7
 290  2351.399
 291  2121.63
 292  2264.833
 293  2343.158
 294  2345.911
 295  2109.955
 296  2106.351
 297  2158.601
 298  2180.236
 299  2001.749
 300  2040.305
 301  2104.708
 302  2330.722
 303  2275.455
 304  2269.277
 305  2170.178
 306  2297.197
 307  2250.913
 308  2190.598
 309  2118.284
 310  2149.514
 311  2171.201
 312  2080.894
 313  2071.898
 314  2140.874
 315  2298.753
 316  2347.122
 317  2478.005
 318  2379.893
 319  2383.678
 320  2316.322
 321  2356.013
 322  2334.871
 323  2373.543
 324  2343.468
 325  2366.008
 326  2239.349
 327  2183.269
 328  2041.688
 329  2036.956
 330  2189
 331  2081.919
 332  1986.315
 333  1954.68
 334  2048.794
 335  2100.991
 336  2216.583
 337  2298.591
 338  2328.406
 339  2344.669
 340  2287.656
 341  2163.624
 342  1994.881
 343  2021.275
 344  2103.2
 345  2110.872
 346  2117.341
 347  2073.201
 348  2081.772
 349  1996.774
 350  2020.121
 351  2181.899
 352  2284.087
 353  2238.596
 354  2091.721
 355  2068.155
 356  2295.673
 357  2307.592
 358  2227.782
 359  1992.871
 360  1953.696
 361  2098.155
 362  2223.438
 363  2237.707
 364  2132.942
 365  2078.01
 366  2141.565
 367  2195.746
 368  2243.483
 369  2308.858
 370  2220.11
 371  2139.683
 372  1993.222
 373  2023.232
 374  1971.196
 375  2056.354
 376  2010.159
 377  1885.677
 378  1906.811
 379  2124.508
 380  2348.144
 381  2213.267
 382  2032.733
 383  2035.488
 384  2281.831
 385  2318.234
 386  2281.024
 387  2316.834
 388  2333.963
 389  2303.905
 390  2213.669
 391  2165.871
 392  2232.842
 393  2276.815
 394  2222
 395  2095.226
 396  2075.154
 397  2234.733
 398  2417.531
 399  2409.97
 400  2435.243
 401  2295.177
 402  2339.576
 403  2281.078
 404  2330.061
 405  2295.525
 406  2360.616
 407  2256.121
 408  2053.841
 409  1904.823
 410  1993.521
 411  2072.115
 412  2187.711
 413  2200.874
 414  2116.365
 415  2036.725
 416  2164.259
 417  2304.387
 418  2245.552
 419  2079.864
 420  2182.563
 421  2297.163
 422  2229.489
 423  2150.333
 424  1963.953
 425  1885.131
 426  1858.749
 427  2105.737
 428  2136.379
 429  2162.977
 430  2024.267
 431  2232.357
 432  2217.368
 433  2250.736
 434  2131.223
 435  2186.567
 436  2257.235
 437  2088.575
 438  2034.999
 439  2004.99
 440  2216.525
 441  2301.709
 442  2290.492
 443  2192.137
 444  2129.639
 445  2277.055
 446  2186.038
 447  2072.558
 448  1916.43
 449  1964.687
 450  2084.031
 451  2102.751
 452  2162.545
 453  2155.633
 454  2263.043
 455  2141.818
 456  2151.194
 457  2260.494
 458  2300.243
 459  2174.027
 460  2039.47
 461  2081.677
 462  2099.709
 463  2091.804
 464  2191.523
 465  2144.14
 466  2064.719
 467  1998.54
 468  2025.531
 469  2128.413
 470  2294.832
 471  2390.456
 472  2371.516
 473  2075.504
 474  1875.621
 475  1851.622
 476  1981.861
 477  2122.715
 478  2070.503
 479  2130.379
 480  2101.556
 481  2196.564
 482  2185.466
 483  2208
 484  2195.568
 485  2317.316
 486  2274.977
 487  2301.768
 488  2200.227
 489  2169.872
 490  2123.572
 491  2096.343
 492  2087.384
 493  2102.105
 494  2202.926
 495  2150.122
 496  2033.428
 497  1930.861
 498  1885.896
 499  2014.52
 500  2190.193
 501  2242.221
 502  2093.961
 503  2056.916
 504  2076.269
 505  2128.389
 506  2249.159
 507  2261.851
 508  2225.992
 509  2096.222
 510  2197.212
 511  2154.525
 512  2282.882
 513  2213.91
 514  2352.844
 515  2373.294
 516  2520.869
 517  2362.522
 518  2384.262
 519  2298.665
 520  2415.434
 521  2441.469
 522  2494.594
 523  2471.151
 524  2396.916
 525  2311.931
 526  2045.519
 527  1994.975
 528  1893.161
 529  2046.172
 530  2005.478
 531  2018.573
 532  1919.149
 533  1976.51
 534  2101.533
 535  2160.028
 536  2245.032
 537  2423.134
 538  2384.906
 539  2322.744
 540  2188.6
 541  2131.156
 542  2212.15
 543  2233.866
 544  2364.376
 545  2298.699
 546  2312.377
 547  2293.519
 548  2279.172
 549  2295.371
 550  2245.752
 551  2256.886
 552  2265.46
 553  2222.687
 554  2224.258
 555  2158.565
 556  2226.209
 557  2060.702
 558  2083.005
 559  2147.211
 560  2300.32
 561  2221.573
 562  2048.052
 563  1903.709
 564  2124.822
 565  2343.635
 566  2446.265
 567  2237.105
 568  2186.727
 569  2166.248
 570  2310.921
 571  2175.554
 572  2209.647
 573  2267.894
 574  2233.931
 575  2121.727
 576  2185.709
 577  2285.75
 578  2256.511
 579  2341.267
 580  2319.848
 581  2276.964
 582  2093.677
 583  2138.346
 584  2256.501
 585  2193.287
 586  2111.545
 587  2082.238
 588  2133.804
 589  2170.071
 590  2151.493
 591  2232.597
 592  2109.396
 593  2113.359
 594  2074.331
 595  2030.213
 596  1962.068
 597  1948.315
 598  2033.348
 599  1947.946
 600  1952.43
 601  2000.464
 602  1993.598
 603  1929.728
 604  1917.944
 605  2058.324
 606  2290.583
 607  2271.376
 608  2162.059
 609  2128.874
 610  2361.734
 611  2435.903
 612  2414.397
 613  2302.664
 614  2160.121
 615  1995.397
 616  1899.769
 617  1992.15
 618  2075.823
 619  2156.656
 620  2169.357
 621  2136.466
 622  2028.622
 623  2088.173
 624  2280.353
 625  2407.505
 626  2264.593
 627  2174.954
 628  2195.623
 629  2302.667
 630  2302.928
 631  2432.275
 632  2311.405
 633  2306.966
 634  2265.953
 635  2339.943
 636  2202.848
 637  2162.796
 638  2267.369
 639  2392.053
 640  2287.129
 641  2220.505
 642  2377.65
 643  2630.727
 644  2738.957
 645  2777.286
 646  2753.979
 647  2761.754
 648  2840.507
 649  3047.986
 650  2896.354
 651  2789.327
 652  2661.627
 653  2723.53
 654  2533.787
 655  2429.661
 656  2342.472
 657  2358.059
 658  2372.58
 659  2316.108
 660  2195.12
 661  2088.008
 662  2215.519
 663  2263.586
 664  2233.352
 665  2144.715
 666  2176.906
 667  2248.611
 668  2293.027
 669  2243.992
 670  2303.562
 671  2241.504
 672  2137.641
 673  2042.689
 674  1950.686
 675  1921.263
 676  2025.389
 677  2124.326
 678  2231.986
 679  2096.814
 680  2141.54
 681  2240.093
 682  2563.878
 683  2510.465
 684  2384.554
 685  2245.392
 686  2273.55
 687  2225.094
 688  2232.858
 689  2244.436
 690  2192.926
 691  2181.07
 692  2081.406
 693  2205.115
 694  2180.153
 695  2320.433
 696  2248.26
 697  2273.426
 698  2273.072
 699  2349.592
 700  2362.258
 701  2258.682
 702  2042.133
 703  1945.22
 704  1847.889
 705  1960.181
 706  2061.427
 707  2190.029
 708  2251.373
 709  2267.413
 710  2200.996
 711  2228.095
 712  2311.998
 713  2411.328
 714  2301.398
 715  2074.782
 716  2233.645
 717  2405.38
 718  2517.296
 719  2200.311
 720  2189.47
 721  2212.559
 722  2313.57
 723  2119.049
 724  2202.456
 725  2078.283
 726  2160.786
 727  2087.76
 728  2220.794
 729  2224.619
 730  2309.954
 731  2330.79
 732  2323.953
 733  2215.355
 734  2182.49
 735  2138.029
 736  2179.008
 737  2055.772
 738  2041.616
 739  1968.272
 740  1951.475
 741  1909.833
 742  1882.754
 743  2077.634
 744  2102.183
 745  2155.084
 746  2087.854
 747  2236.998
 748  2251.652
 749  2321.255
 750  2300.01
 751  2269.397
 752  2217.55
 753  2145.821
 754  2081.875
 755  2140.176
 756  2142.297
 757  2220.192
 758  2182.107
 759  2180.002
 760  1996.498
 761  1881.098
 762  1769.996
 763  1757.769
 764  1870.395
 765  2195.525
 766  2335.745
 767  2248.61
 768  2201.72
 769  2178.479
 770  2192.017
 771  2099.814
 772  2225.773
 773  2200.619
 774  2092.578
 775  1878.793
 776  1962.311
 777  1966.234
 778  2049.86
 779  2066.31
 780  2175.414
 781  2109.748
 782  2085.212
 783  2185.46
 784  2245.137
 785  2294.914
 786  2252.682
 787  2040.471
 788  1823.19
 789  1891.65
 790  1961.763
 791  2032.967
 792  2031.69
 793  2107.609
 794  2276.899
 795  2375.456
 796  2471.364
 797  2490.049
 798  2221.072
 799  2044.145
 800  1881.817
 801  2215.865
 802  2170.389
 803  2195.355
 804  2047.545
 805  2105.101
 806  1940.299
 807  1900.944
 808  1934.672
 809  2102.044
 810  2250.565
 811  2359.273
 812  2271.943
 813  2268.585
 814  2247.816
 815  2381.633
 816  2329.881
 817  2272.638
 818  2063.252
 819  1994.083
 820  1911.513
 821  1861.861
 822  1817.717
 823  1978.783
 824  2184.422
 825  2280.809
 826  2338.248
 827  2255.747
 828  2262.395
 829  2129.607
 830  2203.825
 831  2123.312
 832  2176.632
 833  2114.388
 834  2087.54
 835  2046.881
 836  1909.646
 837  1904.739
 838  1999.294
 839  1988.78
 840  1994.488
 841  2000.101
 842  2116.648
 843  2056.417
 844  2027.535
 845  2078.593
 846  2074.373
 847  2039.311
 848  2168.527
 849  2225.382
 850  2239.727
 851  2109.837
 852  2095.515
 853  2146.718
 854  2150.273
 855  2198.194
 856  2075.886
 857  2080.481
 858  2003.328
 859  2159.667
 860  2269.126
 861  2295.431
 862  2219.996
 863  2138.94
 864  2028.571
 865  1917.097
 866  1956.032
 867  2089.384
 868  2156.576
 869  2148.861
 870  2149.956
 871  2202.223
 872  2308.937
 873  2357.413
 874  2427.49
 875  2221.745
 876  2140.431
 877  2012.451
 878  2172.914
 879  2171.047
 880  2249.486
 881  2210.928
 882  2354.999
 883  2282.477
 884  2221.866
 885  2228.65
 886  2286.925
 887  2242.004
 888  2107.693
 889  2098.415
 890  2067.872
 891  2021.668
 892  2094.435
 893  2036.477
 894  2059.88
 895  2090.333
 896  2356.365
 897  2350.485
 898  2329.25
 899  2343.49
 900  2409.117
 901  2304.812
 902  2205.066
 903  2033.188
 904  2008.915
 905  2039.003
 906  2127.582
 907  2238.397
 908  2192.397
 909  2333.649
 910  2328.96
 911  2368.969
 912  2175.938
 913  2268.821
 914  2317.508
 915  2415.362
 916  2182.436
 917  2100.845
 918  2033.118
 919  2089.304
 920  2159.12
 921  2212.635
 922  2200.93
 923  2111.956
 924  2184.946
 925  2173.186
 926  2108.763
 927  2118.387
 928  2233.442
 929  2369.181
 930  2269.975
 931  2077.482
 932  2113.863
 933  2291.865
 934  2326.347
 935  2340.082
 936  2233.276
 937  2113.711
 938  2069.707
 939  2136.75
 940  2121.738
 941  1974.069
 942  1974.625
 943  2076.051
 944  2220.707
 945  2192.923
 946  2246.741
 947  2270.614
 948  2305.163
 949  2226.188
 950  2158.184
 951  2140.8
 952  2052.736
 953  2128.08
 954  2108.648
 955  2117.792
 956  2010.339
 957  2142.136
 958  2169.464
 959  2180.125
 960  2160.754
 961  2169.374
 962  2185.919
 963  2199.364
 964  2195.102
 965  2330.162
 966  2375.04
 967  2349.521
 968  2171.075
 969  2137.791
 970  2005.22
 971  2031.603
 972  2071.737
 973  2294.362
 974  2257.614
 975  2138.115
 976  2052.12
 977  2050.426
 978  2173.412
 979  2238.339
 980  2233.829
 981  2208.931
 982  2254.704
 983  2254.158
 984  2212.2
 985  2071.229
 986  2106.314
 987  2219.132
 988  2281.432
 989  2217.234
 990  2210.263
 991  2144.963
 992  2017.569
 993  1993.37
 994  2171.505
 995  2165.874
 996  2270.087
 997  2345.317
 998  2424.862
 999  2168.153
1000  2086.909
1001  2104.14
1002  2226.875
1003  2223.635
1004  2170.235
1005  2088.049
1006  1944.403
1007  2042.839
1008  2137.475
1009  2243.185
1010  2120.984
1011  2197.892
1012  2303.711
1013  2329.199
1014  2307.343
1015  2348.626
1016  2396.889
1017  2365.075
1018  2293.271
1019  2254.44
1020  2088.744
1021  2131.524
1022  2091.084
1023  2120.575
