# Input file       =  1186353793.111462_cleaned.dat
# Candidate        =  PSR_0332+5434
# Telescope        =  AR
# Epoch_topo       =  57974.946899438219
# Epoch_bary       =  N/A
# T_sample         =  0.002
# Data Folded      =  7208960
# Data Avg         =  0.0915762701061215
# Data StdDev      =  4.27400072246876 
# Profile Bins     =  512
# Profile Avg      =  1289.50092197387 
# Profile StdDev   =  507.149403069097 
# Reduced chi-sqr  =  0.662
# Prob(Noise)      <  1   (~0.0 sigma)
# P_topo (ms)      =  714.466197886514  +/- 5.66e-05
# P'_topo (s/s)    =  -0                +/- 3.04e-11
# P''_topo (s/s^2) =  0                 +/- 1.37e-14
# P_bary (ms)      =  N/A
# P'_bary (s/s)    =  N/A
# P''_bary (s/s^2) =  N/A
# P_orb (s)        =  N/A
# asin(i)/c (s)    =  N/A
# eccentricity     =  N/A
# w (rad)          =  N/A
# T_peri           =  N/A
######################################################
   0  1075.129
   1  766.8569
   2  1117.555
   3  1402.377
   4  1519.45
   5  1327.951
   6  1185.751
   7  1145.369
   8  743.0131
   9  1170.682
  10  1353.391
  11  1447.571
  12  1535.322
  13  1257.46
  14  1199.406
  15  1003.903
  16  896.1597
  17  964.2928
  18  920.7734
  19  1320.312
  20  1478.892
  21  1618.287
  22  1368.569
  23  1136.621
  24  1427.81
  25  1233.143
  26  1225.337
  27  982.7183
  28  1131.107
  29  1453.744
  30  1106.291
  31  1271.091
  32  1524.007
  33  1479.726
  34  991.5289
  35  820.7863
  36  1232.332
  37  1061.74
  38  1055.338
  39  989.4448
  40  1435.868
  41  1046.508
  42  841.5754
  43  1204.193
  44  985.5568
  45  1398.517
  46  1437.231
  47  1301.71
  48  1556.005
  49  988.7243
  50  1213.326
  51  1121.672
  52  1239.297
  53  1165.474
  54  1204.869
  55  1171.743
  56  1143.049
  57  1323.529
  58  1127.864
  59  1098.098
  60  1266.91
  61  1378.204
  62  1261.752
  63  1115.356
  64  1353.95
  65  1323.595
  66  1028.785
  67  765.3141
  68  613.1188
  69  1344.012
  70  1520.284
  71  1408.468
  72  1444.83
  73  1058.494
  74  1057.082
  75  1221.881
  76  1359.984
  77  1593.122
  78  1427.203
  79  1583.939
  80  1704.415
  81  1446.711
  82  931.3098
  83  1396.143
  84  1624.13
  85  1081.714
  86  1257.337
  87  1612.957
  88  1543.549
  89  1529.854
  90  1854.011
  91  1893.846
  92  1561.892
  93  1270.338
  94  1331.046
  95  1205.464
  96  1379.054
  97  1150.485
  98  1492.052
  99  1342.225
 100  1061.318
 101  758.9297
 102  908.5689
 103  1138.953
 104  974.358
 105  889.4081
 106  1122.542
 107  1292.168
 108  1306.155
 109  1328.68
 110  1731.139
 111  1443.952
 112  1112.016
 113  1411.419
 114  1263.667
 115  980.2137
 116  1114.106
 117  1417.294
 118  1429.035
 119  1000.265
 120  1597.625
 121  1674.71
 122  1572.518
 123  1171.232
 124  989.4924
 125  1036.496
 126  901.7126
 127  1350.63
 128  1787.608
 129  1689.059
 130  1464.619
 131  1606.748
 132  1652.945
 133  1216.475
 134  1389.296
 135  1597.154
 136  1411.784
 137  1037.981
 138  1077.755
 139  1416.326
 140  1312.485
 141  1226.104
 142  1272.118
 143  1392.431
 144  1430.664
 145  1651.161
 146  1492.428
 147  1432.211
 148  1258.535
 149  835.1843
 150  1299.702
 151  1826.168
 152  1648.372
 153  1651.151
 154  1878.779
 155  1238.577
 156  1118.478
 157  1026.079
 158  1164.998
 159  1359.906
 160  1457.65
 161  1783.577
 162  1451.702
 163  1431.515
 164  1338.464
 165  1353.594
 166  1122.191
 167  951.152
 168  1316.861
 169  1579.563
 170  1375.229
 171  1281.346
 172  1886.611
 173  1922.991
 174  1515.438
 175  1880.332
 176  2061.177
 177  2569.621
 178  3001.627
 179  2874.096
 180  3101.132
 181  2259.781
 182  1776.421
 183  1632.012
 184  1468.839
 185  1558.636
 186  1213.07
 187  1723.592
 188  1593.507
 189  1314.896
 190  1196.04
 191  1415.38
 192  1611.331
 193  1405.802
 194  1558.469
 195  1777.419
 196  1634.37
 197  1720.204
 198  1498.327
 199  1376.157
 200  993.4131
 201  1259.04
 202  1265.824
 203  1301.105
 204  1563.069
 205  1709.804
 206  1303.286
 207  1315.762
 208  1630.24
 209  1393.044
 210  1130.78
 211  1403.344
 212  1325.942
 213  1313.089
 214  1506.547
 215  1213.219
 216  1395.121
 217  1514.638
 218  973.1203
 219  1454.905
 220  1259.637
 221  888.827
 222  701.6426
 223  1352.5
 224  1611.771
 225  1582.324
 226  1308.728
 227  1321.374
 228  1400.037
 229  1138.485
 230  1532.944
 231  1677.571
 232  1307.535
 233  898.942
 234  1003.714
 235  1376.239
 236  1332.285
 237  1537.728
 238  1633.66
 239  1027.618
 240  1003.674
 241  1034.926
 242  1280.143
 243  1424.507
 244  972.5777
 245  810.4984
 246  1561.771
 247  1722.841
 248  843.7587
 249  540.9242
 250  929.0468
 251  1029.209
 252  1060.853
 253  1117.157
 254  1405.746
 255  1124.581
 256  1002.083
 257  1440.593
 258  1467.619
 259  1266.102
 260  1469.617
 261  1697.875
 262  1244.456
 263  755.4791
 264  1176.518
 265  1203.625
 266  1404.788
 267  1562.439
 268  1268.797
 269  1193.488
 270  884.3552
 271  1056.487
 272  1203.515
 273  1024.833
 274  935.9294
 275  1118.465
 276  1088.222
 277  958.5
 278  1220.446
 279  1724.633
 280  1646.771
 281  1376.953
 282  870.007
 283  1069.086
 284  725.644
 285  1078.886
 286  1418.727
 287  1204.384
 288  1092.287
 289  844.5076
 290  1265.599
 291  1660.356
 292  1667.497
 293  1649.521
 294  1571.869
 295  1281.957
 296  1075.014
 297  1441.758
 298  1395.967
 299  1453.7
 300  1551.084
 301  1754.552
 302  1524.361
 303  1208.618
 304  812.4
 305  1014.502
 306  1124.499
 307  1355.78
 308  1679.2
 309  1509.841
 310  1385.236
 311  1373.211
 312  1500.099
 313  1005.635
 314  1190.353
 315  1338.983
 316  1408.732
 317  1800.622
 318  1455.989
 319  1483.503
 320  1341.695
 321  1315.022
 322  1242.995
 323  1083.449
 324  1540.649
 325  1233.299
 326  997.8781
 327  1533.701
 328  1292.53
 329  1197.56
 330  1203.298
 331  1200.733
 332  991.3939
 333  1103.102
 334  1712.205
 335  1247.139
 336  1534.537
 337  1610.978
 338  1445.806
 339  1167.223
 340  1292.527
 341  1675.31
 342  1691.753
 343  1749.845
 344  1349.88
 345  991.5892
 346  1035.231
 347  731.5663
 348  859.8808
 349  969.0522
 350  1301.054
 351  1507.286
 352  1306.01
 353  1153.058
 354  1017.143
 355  903.353
 356  1410.36
 357  1421.345
 358  909.2291
 359  1259.626
 360  1257.834
 361  1289.782
 362  1275.496
 363  1271.791
 364  1068.081
 365  1326.859
 366  1315.801
 367  1545.35
 368  1546.721
 369  939.1619
 370  983.4159
 371  904.9114
 372  1165.47
 373  960.7785
 374  1012.122
 375  1439.831
 376  1177.509
 377  998.5869
 378  1057.614
 379  1198.326
 380  857.0828
 381  835.1651
 382  1307.656
 383  1198.17
 384  1276.135
 385  1556.623
 386  1795.617
 387  1147.548
 388  937.9781
 389  1184.407
 390  770.5614
 391  977.7116
 392  1346.541
 393  1270.425
 394  1451.121
 395  1084.089
 396  1171.392
 397  1214.687
 398  1409.545
 399  1426.352
 400  1061.069
 401  1572.693
 402  1443.534
 403  1369.311
 404  1715.167
 405  1312.554
 406  993.9614
 407  977.153
 408  1661.966
 409  1569.02
 410  1081.519
 411  913.255
 412  965.4255
 413  858.395
 414  701.1055
 415  1308.943
 416  1663.255
 417  1457.877
 418  1432.325
 419  1009.167
 420  963.4282
 421  1134.143
 422  1031.428
 423  1127.279
 424  1393.327
 425  1611.807
 426  1542.245
 427  1416.837
 428  1474.352
 429  1004.47
 430  1282.169
 431  1263.38
 432  1232.719
 433  1091.516
 434  1296.905
 435  1622.394
 436  1264.688
 437  1187.178
 438  1234.499
 439  753.8076
 440  1056.723
 441  1275.678
 442  1447.417
 443  866.4208
 444  1193.564
 445  1605.972
 446  1246.5
 447  1098.525
 448  1211.265
 449  1517.638
 450  1510.878
 451  1373.364
 452  1115.504
 453  894.6848
 454  980.8021
 455  967.6434
 456  1148.816
 457  1729.182
 458  1312.159
 459  1113.385
 460  1298.293
 461  1294.354
 462  878.7352
 463  1324.473
 464  1570.705
 465  953.8182
 466  1071.072
 467  1371.733
 468  1327.043
 469  1150.399
 470  1015.556
 471  1373.617
 472  1197.07
 473  1338.769
 474  1510.262
 475  1316.74
 476  1341.811
 477  1240.263
 478  1743.484
 479  1215.724
 480  794.6042
 481  1220.434
 482  1388.238
 483  1523.816
 484  1443.823
 485  1213.709
 486  1099.146
 487  1075.374
 488  947.9478
 489  850.4429
 490  1118.556
 491  856.7795
 492  915.5424
 493  1107.469
 494  830.7981
 495  836.6879
 496  665.0387
 497  814.334
 498  998.3441
 499  1386.207
 500  1325.252
 501  1372.361
 502  1504.821
 503  1008.331
 504  1255.657
 505  1023.736
 506  1031.193
 507  1537.884
 508  1579.164
 509  1289.689
 510  1187.611
 511  1470.14
