# Input file       =  1186870859.113977_cleaned.dat
# Candidate        =  PSR_0332+5434
# Telescope        =  AR
# Epoch_topo       =  57980.931459652515
# Epoch_bary       =  N/A
# T_sample         =  0.002
# Data Folded      =  7143424
# Data Avg         =  0.088656308997738
# Data StdDev      =  4.65043501047116 
# Profile Bins     =  512
# Profile Avg      =  1236.6930985934  
# Profile StdDev   =  549.302800661771 
# Reduced chi-sqr  =  0.506
# Prob(Noise)      <  1   (~0.0 sigma)
# P_topo (ms)      =  714.464649887706  +/- 0.000146
# P'_topo (s/s)    =  -0                +/- 7.94e-11
# P''_topo (s/s^2) =  0                 +/- 3.6e-14
# P_bary (ms)      =  N/A
# P'_bary (s/s)    =  N/A
# P''_bary (s/s^2) =  N/A
# P_orb (s)        =  N/A
# asin(i)/c (s)    =  N/A
# eccentricity     =  N/A
# w (rad)          =  N/A
# T_peri           =  N/A
######################################################
   0  671.8141
   1  595.7475
   2  784.8044
   3  998.5244
   4  676.3055
   5  1187.436
   6  1405.752
   7  1611.37
   8  1731.029
   9  1064.26
  10  985.1165
  11  1334.184
  12  1162.928
  13  667.7663
  14  1158.578
  15  1487.8
  16  1206.05
  17  1467.79
  18  1194.642
  19  1057.947
  20  949.2104
  21  633.7982
  22  827.494
  23  993.7985
  24  1200.424
  25  1529.092
  26  1535.275
  27  1499.648
  28  1562.367
  29  1099.048
  30  1252.259
  31  1275.976
  32  1392.927
  33  1409.699
  34  1414.756
  35  986.9503
  36  1121.056
  37  976.5954
  38  1034.813
  39  1115.996
  40  1466.632
  41  1982.32
  42  1582.097
  43  1146.919
  44  1274.21
  45  1046.642
  46  1219.654
  47  1458.265
  48  1564.849
  49  1125.968
  50  971.2344
  51  1027.614
  52  1254.016
  53  736.723
  54  879.5547
  55  1027.331
  56  1559.004
  57  1269.217
  58  1402.645
  59  1814.592
  60  1325.443
  61  1408.74
  62  1526.489
  63  1390.329
  64  910.6944
  65  1106.652
  66  944.9618
  67  923.1356
  68  1204.319
  69  1212.798
  70  1201.291
  71  1263.041
  72  1073.405
  73  993.6316
  74  1144.593
  75  907.2197
  76  900.9471
  77  997.4437
  78  860.0101
  79  1276.832
  80  1581.967
  81  1708.872
  82  1343.236
  83  1227.278
  84  1432.672
  85  982.0145
  86  680.852
  87  718.9116
  88  1050.906
  89  1180.931
  90  1033.311
  91  1304.931
  92  1397.362
  93  1551.848
  94  1247.37
  95  1530.053
  96  1331.899
  97  597.5043
  98  901.7972
  99  967.4116
 100  1271.478
 101  1094.96
 102  970.5468
 103  833.394
 104  977.8049
 105  902.9417
 106  1197.373
 107  1146.493
 108  1401.759
 109  1338.306
 110  1212.243
 111  1401.83
 112  1436.065
 113  1436.411
 114  1523.526
 115  1344.422
 116  1460.86
 117  1403.301
 118  998.7122
 119  993.5392
 120  939.0828
 121  1505.069
 122  1232.086
 123  1184.596
 124  1031.643
 125  1104.245
 126  1498.179
 127  1093.667
 128  1554.629
 129  1450.219
 130  1174.211
 131  885.6419
 132  1191.867
 133  1321.607
 134  1296.158
 135  1134.908
 136  1198.835
 137  1140.855
 138  1160.253
 139  1549.007
 140  1371.773
 141  1112.487
 142  1180.657
 143  1569.056
 144  1713.098
 145  1979.041
 146  1791.365
 147  1357.064
 148  877.6382
 149  972.1089
 150  1297.089
 151  1373.996
 152  1300.588
 153  1685.243
 154  2671.38
 155  2835.454
 156  2568.368
 157  2432.644
 158  2220.602
 159  1399.384
 160  1021.472
 161  829.1412
 162  964.419
 163  1303.466
 164  1495.877
 165  1383.688
 166  1356.842
 167  1265.588
 168  903.8886
 169  1214.854
 170  852.0758
 171  881.3149
 172  814.657
 173  1005.241
 174  1195.695
 175  1154.784
 176  1328.319
 177  1475.176
 178  1318.225
 179  1145.114
 180  1383.316
 181  1381.961
 182  685.6313
 183  1062.31
 184  1459.558
 185  1464.938
 186  1277.404
 187  994.3467
 188  1237.839
 189  1019.056
 190  808.6727
 191  1183.847
 192  1855.855
 193  1743.953
 194  1353.522
 195  1325.313
 196  1103.239
 197  1407.667
 198  1363.028
 199  1306.121
 200  1557.643
 201  1895.529
 202  1409
 203  1353.427
 204  1256.299
 205  849.6491
 206  1230.167
 207  1350.819
 208  1446.889
 209  1532.602
 210  1214.413
 211  857.5667
 212  1378.77
 213  1357.512
 214  1321.13
 215  1161.208
 216  1214.918
 217  1264.307
 218  1106.817
 219  995.4617
 220  1671.186
 221  1581.428
 222  1278.488
 223  699.6462
 224  1109.203
 225  1465.23
 226  1188.431
 227  1319.041
 228  1088.701
 229  1173.748
 230  824.8876
 231  1004.966
 232  1133.408
 233  1169.685
 234  1281.727
 235  706.4247
 236  1129.225
 237  1042.415
 238  1134.826
 239  1309.015
 240  1308.944
 241  1508.61
 242  1210.428
 243  1210.116
 244  979.6603
 245  1304.298
 246  1284.516
 247  816.9711
 248  793.9079
 249  955.3356
 250  1377.29
 251  1282.296
 252  752.1441
 253  1114.05
 254  1042.402
 255  1299.523
 256  930.3571
 257  1124.281
 258  1400.756
 259  1370.403
 260  1460.021
 261  1234.135
 262  1229.288
 263  950.5853
 264  840.5862
 265  1011.424
 266  967.9327
 267  1254.886
 268  1522.05
 269  1367.875
 270  1296.188
 271  1001.605
 272  1434.88
 273  1598.104
 274  1397.605
 275  1478.879
 276  1479.551
 277  1556.133
 278  1463.875
 279  959.3427
 280  1135.426
 281  1205.703
 282  1305.081
 283  1182.551
 284  939.2339
 285  1259.089
 286  1027.558
 287  1062.371
 288  1008.465
 289  1375.437
 290  1557.247
 291  1456.228
 292  1222.022
 293  1105.867
 294  1818.393
 295  1465.429
 296  1514.004
 297  1156.751
 298  1250.823
 299  1223.43
 300  551.2302
 301  817.641
 302  1217.516
 303  1200.164
 304  1282.53
 305  1590.817
 306  1743.329
 307  889.0411
 308  1286.609
 309  1295.242
 310  1229.636
 311  1109.379
 312  1037.166
 313  696.8695
 314  658.332
 315  1516.171
 316  1296.666
 317  1277.436
 318  1226.598
 319  1251.268
 320  1469.246
 321  818.0068
 322  744.0424
 323  1292.563
 324  1473.818
 325  1633.889
 326  1146.797
 327  1291.22
 328  1142.884
 329  956.4769
 330  816.994
 331  846.7501
 332  1187.312
 333  1237.185
 334  1095.757
 335  1466.346
 336  1405.48
 337  960.3574
 338  1132.972
 339  1404.813
 340  1237.662
 341  1219.27
 342  1558.763
 343  1314.08
 344  1359.338
 345  1194.057
 346  1381.818
 347  1556.785
 348  1298.188
 349  1054.08
 350  1038.293
 351  939.9068
 352  1301.79
 353  1090.954
 354  1159.224
 355  964.9301
 356  1018.854
 357  1384.39
 358  1381.77
 359  1342.347
 360  1209.539
 361  1458.888
 362  1296.978
 363  1254.104
 364  1182.722
 365  1167.746
 366  1280.345
 367  1045.094
 368  1359.103
 369  1005.774
 370  1402.92
 371  1201.532
 372  1308.377
 373  1301.247
 374  1255.842
 375  1504.284
 376  991.924
 377  1044.897
 378  1485.975
 379  1130.767
 380  1530.483
 381  1366.147
 382  1451.528
 383  1104.977
 384  690.9736
 385  1134.313
 386  1180.589
 387  1280.759
 388  1061.747
 389  1065.595
 390  1193.68
 391  1307.31
 392  1386.397
 393  1357.381
 394  1224.211
 395  802.8784
 396  903.6964
 397  1148.734
 398  1514.499
 399  1563.926
 400  1119.218
 401  1395.106
 402  1659.863
 403  1083.738
 404  1330.486
 405  1373.279
 406  1535.354
 407  1488.411
 408  1455.447
 409  1524.326
 410  1232.232
 411  1297.25
 412  1169.974
 413  991.2499
 414  1295.625
 415  1611.973
 416  1387.498
 417  872.812
 418  917.4609
 419  970.1229
 420  1090.62
 421  1217.748
 422  1583.559
 423  1753.659
 424  1092.564
 425  873.1799
 426  1229.064
 427  1054.659
 428  1040.613
 429  953.1062
 430  1134.759
 431  1380.704
 432  1122.594
 433  1066.092
 434  1470.914
 435  1698.901
 436  1169.694
 437  990.8214
 438  767.6051
 439  956.9562
 440  1138.139
 441  1210.844
 442  1529.736
 443  1653.115
 444  1778.648
 445  1449.526
 446  1258.59
 447  1203.851
 448  1402.091
 449  1189.516
 450  1274.346
 451  1341.855
 452  1562.69
 453  1382.164
 454  1172.165
 455  1470.642
 456  1747.092
 457  1632.325
 458  1327.507
 459  1244.397
 460  1539.16
 461  1598.206
 462  1862.614
 463  1414.193
 464  1561.807
 465  1252.873
 466  941.084
 467  1320.104
 468  1037.144
 469  1161.776
 470  952.5409
 471  1398.072
 472  1328.625
 473  1190.424
 474  1344.949
 475  1012.506
 476  1125.638
 477  1038.558
 478  1457.569
 479  1013.997
 480  961.7988
 481  1133.73
 482  1022.566
 483  1244.122
 484  891.2672
 485  1079.243
 486  1205.128
 487  865.4443
 488  1188.126
 489  1644.597
 490  1897.637
 491  1265.359
 492  991.057
 493  1042.154
 494  759.9335
 495  816.011
 496  1009.235
 497  1706.275
 498  1351.183
 499  1491.294
 500  1294.666
 501  1198.296
 502  1333.699
 503  1145.076
 504  991.8959
 505  1150.678
 506  1487.957
 507  1164.524
 508  853.2488
 509  878.8642
 510  1216.428
 511  1023.186
