# Input file       =  1186353793.111462_cleaned.dat
# Candidate        =  PSR_0332+5434
# Telescope        =  AR
# Epoch_topo       =  57974.946899438219
# Epoch_bary       =  N/A
# T_sample         =  0.002
# Data Folded      =  7208960
# Data Avg         =  0.0915762701061215
# Data StdDev      =  4.27400072246876 
# Profile Bins     =  512
# Profile Avg      =  1289.50092209382 
# Profile StdDev   =  507.149403069097 
# Reduced chi-sqr  =  0.661
# Prob(Noise)      <  1   (~0.0 sigma)
# P_topo (ms)      =  714.46619785219   +/- 5.68e-05
# P'_topo (s/s)    =  -0                +/- 3.05e-11
# P''_topo (s/s^2) =  0                 +/- 1.37e-14
# P_bary (ms)      =  N/A
# P'_bary (s/s)    =  N/A
# P''_bary (s/s^2) =  N/A
# P_orb (s)        =  N/A
# asin(i)/c (s)    =  N/A
# eccentricity     =  N/A
# w (rad)          =  N/A
# T_peri           =  N/A
######################################################
   0  1543.696
   1  1503.985
   2  884.8246
   3  982.3077
   4  964.5394
   5  1121.68
   6  977.7675
   7  1031.181
   8  1484.177
   9  1111.817
  10  971.3009
  11  1144.258
  12  1103.489
  13  856.1536
  14  871.0031
  15  1342.032
  16  1219.002
  17  1250.834
  18  1682.924
  19  1664.626
  20  1122.216
  21  947.193
  22  1144.241
  23  771.7919
  24  1038.047
  25  1368.057
  26  1261.154
  27  1426.518
  28  1077.695
  29  1180.656
  30  1251.953
  31  1427.002
  32  1334.976
  33  1134.377
  34  1597.301
  35  1411.999
  36  1384.017
  37  1716.152
  38  1251.378
  39  942.2029
  40  1090.794
  41  1682.391
  42  1542.066
  43  982.4332
  44  946.9923
  45  947.9008
  46  823.5246
  47  763.3168
  48  1373.105
  49  1667.087
  50  1440.602
  51  1391.425
  52  1003.26
  53  934.7458
  54  1158.744
  55  1016.373
  56  1166.789
  57  1469.486
  58  1587.767
  59  1539.724
  60  1378.253
  61  1442.579
  62  1020.067
  63  1275.973
  64  1311.992
  65  1148.015
  66  1161.557
  67  1332.824
  68  1617.555
  69  1218.188
  70  1158.061
  71  1232.188
  72  693.3377
  73  1154.658
  74  1291.562
  75  1389.156
  76  878.0558
  77  1234.579
  78  1652.07
  79  1123.023
  80  1159.753
  81  1206.097
  82  1560.572
  83  1486.065
  84  1342.699
  85  1070.265
  86  924.6387
  87  965.0258
  88  1006.298
  89  1193.438
  90  1758.572
  91  1187.069
  92  1149.384
  93  1343.432
  94  1212.015
  95  921.8249
  96  1390.301
  97  1531.213
  98  879.5584
  99  1129.421
 100  1425.349
 101  1226.73
 102  1202.467
 103  998.1011
 104  1420.405
 105  1146.909
 106  1380.897
 107  1517.864
 108  1281.525
 109  1352.745
 110  1272.955
 111  1744.121
 112  1117.79
 113  793.5821
 114  1323.13
 115  1337.089
 116  1564.558
 117  1420.93
 118  1151.052
 119  1128.784
 120  1071.137
 121  928.9277
 122  898.0259
 123  1083.503
 124  859.6512
 125  937.9091
 126  1089.775
 127  783.1323
 128  819.5546
 129  692.3978
 130  800.1579
 131  1123.035
 132  1353.294
 133  1310.894
 134  1442.002
 135  1386.074
 136  1059.24
 137  1185.263
 138  1082.927
 139  1029.685
 140  1614.902
 141  1538.008
 142  1224.656
 143  1273.573
 144  1411.618
 145  1013.136
 146  775.3539
 147  1176.04
 148  1477.059
 149  1466.878
 150  1312.852
 151  1167.63
 152  1084.801
 153  775.6454
 154  1179.881
 155  1437.457
 156  1425.632
 157  1544.075
 158  1212.754
 159  1195.415
 160  988.6626
 161  852.5689
 162  1009.606
 163  926.7083
 164  1372.602
 165  1505.132
 166  1583.45
 167  1338.941
 168  1154.44
 169  1465.621
 170  1200.289
 171  1196.847
 172  976.2013
 173  1166.591
 174  1439.878
 175  1055.496
 176  1363.714
 177  1536.269
 178  1417.491
 179  933.3053
 180  852.4774
 181  1251.794
 182  1068.649
 183  1009.016
 184  1071.383
 185  1393.004
 186  1013.753
 187  869.9032
 188  1175.234
 189  1060.334
 190  1399.328
 191  1446.357
 192  1297.741
 193  1528.696
 194  955.1835
 195  1217.142
 196  1180.985
 197  1195.332
 198  1196.065
 199  1167.6
 200  1160.124
 201  1175.346
 202  1301.631
 203  1132.678
 204  1090.423
 205  1305.958
 206  1407.14
 207  1193.965
 208  1194.13
 209  1297.133
 210  1320.077
 211  980.0352
 212  683.3973
 213  732.6832
 214  1364.123
 215  1549.262
 216  1387.675
 217  1423.042
 218  1037.624
 219  1044.43
 220  1291.252
 221  1357.327
 222  1612.194
 223  1406.823
 224  1601.806
 225  1753.797
 226  1291.53
 227  994.2131
 228  1467.384
 229  1562.629
 230  1053.335
 231  1274.321
 232  1706.556
 233  1450.254
 234  1620.947
 235  1864.008
 236  1884.165
 237  1467.969
 238  1290.196
 239  1319.807
 240  1204.362
 241  1361.381
 242  1159.701
 243  1504.427
 244  1337.059
 245  1008.174
 246  745.5036
 247  957.7572
 248  1100.824
 249  973.2493
 250  885.8386
 251  1211.196
 252  1284.196
 253  1285.463
 254  1391.259
 255  1715.538
 256  1438.221
 257  1042.184
 258  1473.01
 259  1185.148
 260  985.1186
 261  1171.839
 262  1430.987
 263  1383.703
 264  1008.492
 265  1667.799
 266  1672.542
 267  1470.363
 268  1180.513
 269  969.8439
 270  1046.55
 271  908.8325
 272  1451.519
 273  1820.707
 274  1621.492
 275  1459.616
 276  1658.587
 277  1569.148
 278  1245.762
 279  1371.492
 280  1665.162
 281  1292.764
 282  1056.821
 283  1098.827
 284  1439.809
 285  1311.003
 286  1188.722
 287  1342.411
 288  1343.281
 289  1474.282
 290  1658.023
 291  1442.459
 292  1488.186
 293  1132.526
 294  857.1
 295  1407.324
 296  1824.526
 297  1657.285
 298  1683.915
 299  1815.035
 300  1165.823
 301  1110.554
 302  1081.341
 303  1133.007
 304  1426.157
 305  1446.21
 306  1811.484
 307  1390.726
 308  1434.312
 309  1363.573
 310  1292.231
 311  1133.615
 312  939.1165
 313  1369.668
 314  1603.52
 315  1276.731
 316  1390.001
 317  1928.381
 318  1881.001
 319  1515.265
 320  1914.75
 321  2148.565
 322  2622.599
 323  3007.716
 324  2916.86
 325  3050.845
 326  2135.266
 327  1706.495
 328  1640.663
 329  1460.169
 330  1523.114
 331  1241.999
 332  1741.322
 333  1577.826
 334  1272.967
 335  1214.113
 336  1472.526
 337  1559.904
 338  1464.767
 339  1536.356
 340  1828.976
 341  1558.66
 342  1756.361
 343  1459.778
 344  1309.137
 345  1022.768
 346  1241.534
 347  1274.196
 348  1329.95
 349  1651.868
 350  1661.652
 351  1201.866
 352  1431.992
 353  1605.77
 354  1336.352
 355  1146.891
 356  1408.054
 357  1352.316
 358  1311.17
 359  1503.781
 360  1178.619
 361  1451.494
 362  1471.514
 363  955.1772
 364  1501.394
 365  1197.022
 366  821.4394
 367  804.2178
 368  1362.527
 369  1712.316
 370  1457.547
 371  1334.43
 372  1335.856
 373  1327.35
 374  1232.903
 375  1506.442
 376  1733.282
 377  1170.809
 378  891.1035
 379  1072.891
 380  1367.01
 381  1370.181
 382  1557.523
 383  1603.53
 384  964.1011
 385  1015.915
 386  1083.103
 387  1270.355
 388  1419.498
 389  860.6674
 390  913.6851
 391  1674.822
 392  1588.466
 393  782.15
 394  549.2392
 395  987.2586
 396  1036.672
 397  1036.304
 398  1229.862
 399  1299.976
 400  1148.51
 401  984.0269
 402  1490.8
 403  1447.645
 404  1237.271
 405  1571.11
 406  1638.304
 407  1176.845
 408  763.1519
 409  1209.597
 410  1220.469
 411  1422.916
 412  1577.987
 413  1212.038
 414  1168.473
 415  874.3679
 416  1073.272
 417  1217.149
 418  993.7528
 419  950.6199
 420  1151.71
 421  1036.336
 422  1008.678
 423  1245.358
 424  1769.617
 425  1615.942
 426  1293.602
 427  879.7737
 428  1018.636
 429  767.6609
 430  1126.573
 431  1439.332
 432  1187.368
 433  1021.072
 434  882.6584
 435  1311.057
 436  1732.624
 437  1625.787
 438  1639.715
 439  1571.815
 440  1171.591
 441  1175.02
 442  1422.526
 443  1422.114
 444  1456.129
 445  1567.655
 446  1780.874
 447  1435.612
 448  1189.706
 449  781.7749
 450  1030.163
 451  1168.087
 452  1372.717
 453  1737.099
 454  1455.61
 455  1350.869
 456  1442.357
 457  1416.344
 458  1040.89
 459  1177.938
 460  1375.631
 461  1422.759
 462  1788.875
 463  1477.896
 464  1420.106
 465  1382.869
 466  1283.591
 467  1243.409
 468  1121.107
 469  1549.372
 470  1155.991
 471  1032.986
 472  1582.13
 473  1217.599
 474  1223.178
 475  1197.929
 476  1170.856
 477  969.0112
 478  1222.035
 479  1666.724
 480  1275.136
 481  1516.521
 482  1631.83
 483  1356.628
 484  1182.203
 485  1367.802
 486  1665.49
 487  1771.094
 488  1636.692
 489  1367.968
 490  901.8152
 491  1071.764
 492  687.9459
 493  853.5227
 494  1048.948
 495  1298.775
 496  1565.977
 497  1220.771
 498  1157.522
 499  979.8111
 500  931.1517
 501  1508.825
 502  1330.429
 503  923.9739
 504  1304.695
 505  1198.329
 506  1336.267
 507  1239.458
 508  1255.734
 509  1101.957
 510  1301.273
 511  1372.788
