# Input file       =  1186181463.107759_cleaned.dat
# Candidate        =  PSR_0332+5434
# Telescope        =  AR
# Epoch_topo       =  57972.952339210176
# Epoch_bary       =  N/A
# T_sample         =  0.002
# Data Folded      =  7143424
# Data Avg         =  0.124025365272579
# Data StdDev      =  4.81974790456771 
# Profile Bins     =  1024
# Profile Avg      =  865.167707141506 
# Profile StdDev   =  402.55716335493  
# Reduced chi-sqr  =  0.603
# Prob(Noise)      <  1   (~0.0 sigma)
# P_topo (ms)      =  714.466829460824  +/- 2e-05
# P'_topo (s/s)    =  -0                +/- 1.08e-11
# P''_topo (s/s^2) =  0                 +/- 4.91e-15
# P_bary (ms)      =  N/A
# P'_bary (s/s)    =  N/A
# P''_bary (s/s^2) =  N/A
# P_orb (s)        =  N/A
# asin(i)/c (s)    =  N/A
# eccentricity     =  N/A
# w (rad)          =  N/A
# T_peri           =  N/A
######################################################
   0  845.4255
   1  943.5008
   2  1037.364
   3  915.9874
   4  867.2057
   5  1039.399
   6  1027.639
   7  831.0668
   8  985.974
   9  1333.655
  10  1100.036
  11  880.202
  12  796.4741
  13  891.3304
  14  869.6088
  15  875.6204
  16  920.6515
  17  742.9832
  18  731.4927
  19  900.8758
  20  835.8961
  21  835.4068
  22  904.9899
  23  1017.847
  24  875.5273
  25  970.7254
  26  1062.043
  27  1018.4
  28  770.623
  29  829.3576
  30  754.5108
  31  760.949
  32  797.2255
  33  873.4763
  34  765.5228
  35  680.9352
  36  777.7921
  37  742.0153
  38  796.5145
  39  887.6598
  40  823.1187
  41  739.3891
  42  914.9896
  43  977.061
  44  947.0703
  45  788.2617
  46  937.0806
  47  889.3808
  48  829.5709
  49  922.8558
  50  1015.586
  51  830.6676
  52  763.5101
  53  896.8286
  54  885.9232
  55  847.0669
  56  902.6065
  57  946.312
  58  623.6066
  59  616.0885
  60  825.7439
  61  838.6927
  62  607.1475
  63  716.9252
  64  845.781
  65  848.2128
  66  1001.915
  67  1109.188
  68  937.0718
  69  579.67
  70  695.8859
  71  849.5812
  72  835.1434
  73  893.2672
  74  1009.658
  75  1097.882
  76  838.5964
  77  813.6027
  78  648.2785
  79  661.9537
  80  682.3512
  81  881.8849
  82  716.4344
  83  704.0508
  84  819.3774
  85  985.0567
  86  1066.24
  87  1014.498
  88  920.1917
  89  765.9435
  90  897.2156
  91  1095.803
  92  999.1599
  93  655.5197
  94  609.0314
  95  612.259
  96  820.8011
  97  904.5815
  98  1135.194
  99  1075.344
 100  975.6697
 101  737.735
 102  524.9917
 103  641.9955
 104  973.9002
 105  957.0462
 106  796.3746
 107  817.1849
 108  1009.96
 109  902.2829
 110  787.6785
 111  716.3659
 112  596.3589
 113  502.3075
 114  779.2693
 115  966.221
 116  748.3009
 117  584.4229
 118  760.1887
 119  859.015
 120  817.8236
 121  855.2158
 122  1061.026
 123  939.3509
 124  983.4553
 125  1017.523
 126  899.2111
 127  618.9597
 128  751.5104
 129  915.1505
 130  789.4277
 131  719.0079
 132  967.0625
 133  1116.519
 134  1082.574
 135  1040.189
 136  915.7119
 137  810.1783
 138  804.5527
 139  977.585
 140  929.3368
 141  703.2398
 142  751.9778
 143  737.6663
 144  847.6255
 145  771.907
 146  732.1426
 147  699.1822
 148  766.3893
 149  946.1114
 150  938.7448
 151  988.1122
 152  1075.535
 153  977.2491
 154  888.5805
 155  928.1177
 156  1170.927
 157  1123.031
 158  1042.159
 159  1033.003
 160  848.354
 161  686.7632
 162  698.9155
 163  820.3615
 164  657.8877
 165  738.142
 166  851.7256
 167  836.7551
 168  706.6476
 169  930.0721
 170  1111.125
 171  1075.236
 172  1066.043
 173  1050.22
 174  791.8607
 175  708.0765
 176  831.8295
 177  924.5189
 178  751.0269
 179  789.0886
 180  1026.803
 181  958.1119
 182  1015.298
 183  1075.268
 184  999.6268
 185  716.039
 186  629.2816
 187  994.3958
 188  874.5741
 189  840.6765
 190  955.7115
 191  1145.614
 192  978.6297
 193  882.4562
 194  792.8118
 195  781.8243
 196  697.2302
 197  795.2345
 198  796.2064
 199  732.5725
 200  978.7391
 201  916.1921
 202  805.7472
 203  531.5063
 204  767.2299
 205  892.0792
 206  903.9122
 207  804.7689
 208  850.7209
 209  847.4888
 210  944.6738
 211  927.9891
 212  961.4872
 213  817.8141
 214  792.8371
 215  744.2714
 216  774.2676
 217  814.5491
 218  794.83
 219  764.8548
 220  853.3813
 221  918.1144
 222  819.0588
 223  818.6517
 224  890.5159
 225  909.0428
 226  591.734
 227  534.5948
 228  651.1017
 229  713.4852
 230  871.0465
 231  977.3833
 232  772.866
 233  534.2988
 234  546.6166
 235  726.8204
 236  593.0219
 237  733.4019
 238  978.1567
 239  1006.738
 240  780.0932
 241  795.2578
 242  801.0253
 243  813.813
 244  969.2206
 245  1180.547
 246  899.9927
 247  772.2565
 248  822.8159
 249  914.6395
 250  647.9438
 251  518.7441
 252  744.2468
 253  881.3887
 254  829.0522
 255  1012.732
 256  942.8237
 257  881.0182
 258  988.8719
 259  1201.717
 260  1004.555
 261  649.4938
 262  537.5592
 263  576.1827
 264  489.2604
 265  678.039
 266  837.2809
 267  960.9746
 268  950.0659
 269  918.3447
 270  854.8112
 271  785.311
 272  1045.332
 273  930.1193
 274  802.2877
 275  587.1422
 276  635.2432
 277  645.3508
 278  737.7223
 279  798.2149
 280  841.6792
 281  949.3083
 282  1095.67
 283  1093.258
 284  850.1564
 285  859.8476
 286  1034.771
 287  950.8274
 288  918.116
 289  898.9913
 290  1015.351
 291  958.7233
 292  886.5696
 293  953.7561
 294  672.2169
 295  747.1825
 296  935.5093
 297  928.6176
 298  694.5776
 299  612.1509
 300  732.204
 301  770.6997
 302  779.7341
 303  1089.905
 304  1036.821
 305  948.3245
 306  1005.178
 307  892.6857
 308  671.2903
 309  443.632
 310  639.0692
 311  547.3487
 312  482.3297
 313  729.6271
 314  955.4478
 315  938.5076
 316  705.9339
 317  757.1702
 318  964.5129
 319  996.4105
 320  1009.421
 321  783.6907
 322  713.0475
 323  814.2605
 324  916.321
 325  814.6726
 326  643.5476
 327  655.5731
 328  729.2303
 329  733.4998
 330  740.0333
 331  655.9504
 332  638.8792
 333  839.4431
 334  946.6725
 335  712.9019
 336  612.7529
 337  703.4663
 338  853.0889
 339  852.5803
 340  981.0436
 341  1015.477
 342  692.6766
 343  638.1406
 344  764.0216
 345  795.9467
 346  715.1442
 347  864.4245
 348  1038.372
 349  887.6052
 350  836.674
 351  1032.029
 352  906.5524
 353  754.5143
 354  871.5831
 355  1049.033
 356  731.7252
 357  638.2952
 358  844.3821
 359  755.223
 360  505.2575
 361  507.135
 362  637.1365
 363  660.6289
 364  893.2974
 365  1053.661
 366  1069.495
 367  855.2249
 368  1038.758
 369  988.9568
 370  811.2359
 371  844.6071
 372  879.8632
 373  939.6788
 374  759.5637
 375  752.4838
 376  648.4315
 377  613.822
 378  782.766
 379  855.8835
 380  628.4305
 381  536.1756
 382  678.0496
 383  692.0316
 384  534.0625
 385  706.7213
 386  883.9248
 387  1093.306
 388  1121.468
 389  1233.182
 390  1005.829
 391  886.0081
 392  1019.247
 393  1122.141
 394  983.5733
 395  901.3281
 396  954.3225
 397  834.089
 398  812.1711
 399  790.2391
 400  728.9133
 401  680.0343
 402  728.2803
 403  802.0886
 404  805.5152
 405  980.1386
 406  1251.467
 407  1128.585
 408  1025.87
 409  1092.147
 410  1017.772
 411  915.024
 412  920.7411
 413  1169.961
 414  937.2936
 415  813.0005
 416  849.2595
 417  804.4039
 418  681.2941
 419  749.1655
 420  889.7747
 421  798.4396
 422  765.977
 423  899.7408
 424  848.9901
 425  650.1163
 426  725.0542
 427  802.5014
 428  838.9202
 429  1034.349
 430  1254.034
 431  1177.401
 432  923.5714
 433  923.0903
 434  970.4462
 435  955.5009
 436  946.85
 437  940.6483
 438  802.4772
 439  739.2811
 440  863.8824
 441  852.1338
 442  706.4973
 443  773.2116
 444  794.9528
 445  814.7932
 446  764.272
 447  984.564
 448  1041.234
 449  1077.952
 450  1005.271
 451  1023.523
 452  800.9604
 453  713.8196
 454  734.0984
 455  728.8915
 456  689.9059
 457  727.3921
 458  830.9763
 459  844.2574
 460  964.8381
 461  887.9115
 462  732.2566
 463  755.4216
 464  882.8972
 465  681.1667
 466  539.821
 467  662.0165
 468  806.2018
 469  720.6349
 470  749.8237
 471  801.6334
 472  688.8328
 473  763
 474  1033.399
 475  883.94
 476  595.3834
 477  664.1957
 478  992.4198
 479  809.3485
 480  722.1221
 481  927.6487
 482  1159.131
 483  1031.158
 484  1052.377
 485  1041.03
 486  843.9713
 487  758.8693
 488  944.1768
 489  986.7175
 490  519.9877
 491  454.2609
 492  485.4177
 493  540.8527
 494  659.2523
 495  916.9687
 496  970.1809
 497  887.2169
 498  979.9518
 499  1102.614
 500  876.6769
 501  851.7519
 502  1004.851
 503  1061.315
 504  890.0898
 505  802.7267
 506  681.27
 507  636.5224
 508  646.2209
 509  848.7845
 510  764.8647
 511  886.4387
 512  1024.673
 513  1024.018
 514  944.1523
 515  847.8015
 516  962.4091
 517  907.451
 518  946.3077
 519  1023.979
 520  943.0875
 521  864.0481
 522  751.6276
 523  622.0543
 524  469.0411
 525  686.92
 526  850.6574
 527  825.877
 528  777.1469
 529  923.6536
 530  925.0778
 531  786.8524
 532  894.115
 533  931.5723
 534  929.3757
 535  964.2566
 536  1131.219
 537  949.6909
 538  775.1454
 539  965.5033
 540  1003.559
 541  852.9294
 542  791.9595
 543  867.473
 544  745.5623
 545  698.1147
 546  877.1939
 547  955.8547
 548  867.1234
 549  925.4743
 550  1026.334
 551  785.2876
 552  677.9064
 553  847.7513
 554  910.9196
 555  799.2037
 556  809.4268
 557  903.0446
 558  760.5624
 559  783.5049
 560  965.9854
 561  1061.419
 562  935.4202
 563  958.392
 564  920.1682
 565  847.2716
 566  818.5794
 567  924.4235
 568  928.3828
 569  916.4933
 570  1094.451
 571  999.7872
 572  971.8962
 573  994.0575
 574  1082.403
 575  885.9916
 576  820.1639
 577  1081.953
 578  1304.72
 579  1335.309
 580  1300.811
 581  1235.511
 582  1005.121
 583  794.5744
 584  906.1653
 585  902.7351
 586  845.4052
 587  807.5934
 588  760.3582
 589  752.9059
 590  673.9659
 591  746.3373
 592  683.2701
 593  801.6995
 594  923.6022
 595  830.9034
 596  583.6757
 597  753.8625
 598  894.1839
 599  880.73
 600  840.2314
 601  918.5634
 602  876.9343
 603  803.1357
 604  1071.153
 605  1052.37
 606  821.7271
 607  658.8152
 608  909.6465
 609  851.3015
 610  739.1052
 611  891.5986
 612  1100.99
 613  904.452
 614  837.761
 615  1068.818
 616  1155.153
 617  1044.416
 618  1083.184
 619  1043.058
 620  858.1626
 621  811.1584
 622  893.436
 623  777.8242
 624  822.0756
 625  971.946
 626  1130.608
 627  974.2177
 628  1064.708
 629  1031.058
 630  1061.412
 631  1018.775
 632  1207.677
 633  1152.223
 634  1065.265
 635  1058.24
 636  1067.676
 637  1137.706
 638  1201.756
 639  1198.39
 640  1204.859
 641  1262.371
 642  1422.083
 643  1326.336
 644  1414.012
 645  1609.405
 646  1801.706
 647  1652.5
 648  1677.953
 649  1802.958
 650  1748.978
 651  1603.279
 652  1618.952
 653  1436.194
 654  1121.431
 655  992.2761
 656  1072.131
 657  901.8601
 658  681.0094
 659  772.4373
 660  763.2433
 661  681.4031
 662  705.9794
 663  970.242
 664  950.4221
 665  981.3823
 666  1061.968
 667  1043.019
 668  803.5552
 669  906.6818
 670  788.8214
 671  647.6429
 672  482.9187
 673  850.3179
 674  995.4174
 675  1029.754
 676  942.9281
 677  974.1496
 678  865.6133
 679  802.493
 680  985.6014
 681  1019.063
 682  944.7296
 683  951.9396
 684  857.2999
 685  831.3812
 686  749.9425
 687  930.3719
 688  942.0212
 689  835.1358
 690  768.942
 691  659.4695
 692  748.7281
 693  939.175
 694  973.9236
 695  871.4866
 696  878.3697
 697  932.6521
 698  876.986
 699  846.4394
 700  953.6176
 701  914.5551
 702  810.4417
 703  816.3794
 704  791.4043
 705  560.4632
 706  516.3728
 707  657.306
 708  752.0648
 709  656.2087
 710  835.0153
 711  986.8807
 712  858.1712
 713  834.1829
 714  983.0623
 715  964.1103
 716  928.7464
 717  981.8436
 718  1048.607
 719  685.5639
 720  462.7272
 721  467.9534
 722  446.2364
 723  424.9092
 724  603.9709
 725  836.0238
 726  902.7977
 727  864.4579
 728  836.3356
 729  748.8673
 730  769.9783
 731  1011.977
 732  1011.493
 733  865.9728
 734  876.8909
 735  818.0166
 736  780.953
 737  543.8086
 738  638.2959
 739  632.2489
 740  596.0093
 741  714.3644
 742  911.0008
 743  909.8513
 744  873.9135
 745  880.4989
 746  948.4903
 747  895.9092
 748  1001.582
 749  1028.923
 750  951.305
 751  783.7032
 752  919.1463
 753  759.4417
 754  655.3348
 755  524.9754
 756  538.9107
 757  530.9573
 758  599.1747
 759  701.2419
 760  743.0694
 761  871.3508
 762  869.4034
 763  794.0701
 764  719.8511
 765  865.7224
 766  889.3144
 767  880.1597
 768  914.2921
 769  1045.9
 770  822.7717
 771  772.9299
 772  697.5206
 773  622.3961
 774  551.0358
 775  782.1836
 776  1039.139
 777  822.0145
 778  760.168
 779  862.2147
 780  999.6859
 781  1057.511
 782  1173.437
 783  1213.75
 784  1013.635
 785  892.8447
 786  974.5899
 787  907.3075
 788  698.7125
 789  842.545
 790  980.0768
 791  849.5952
 792  706.7261
 793  743.909
 794  712.7627
 795  571.6744
 796  796.9177
 797  1010.352
 798  1088.498
 799  985.3275
 800  1014.687
 801  781.5014
 802  707.6964
 803  685.0578
 804  787.8393
 805  771.3931
 806  842.4012
 807  956.3064
 808  863.5797
 809  768.5397
 810  739.9162
 811  709.8785
 812  707.4962
 813  801.1113
 814  844.9688
 815  812.4337
 816  829.3303
 817  994.0175
 818  965.2439
 819  866.6325
 820  827.0707
 821  800.7661
 822  665.7239
 823  810.3637
 824  1029.999
 825  1032.257
 826  958.6903
 827  1000.497
 828  715.0986
 829  606.4867
 830  583.0078
 831  825.6562
 832  744.1244
 833  855.6573
 834  971.1034
 835  891.4274
 836  763.7328
 837  958.846
 838  841.264
 839  692.5946
 840  696.2898
 841  1102.856
 842  1100.401
 843  930.5465
 844  930.3865
 845  842.2629
 846  764.0786
 847  834.6763
 848  1023.493
 849  943.8
 850  743.1864
 851  815.0634
 852  649.5944
 853  422.3119
 854  459.8953
 855  640.6495
 856  647.3521
 857  769.3492
 858  943.3962
 859  948.9179
 860  686.9852
 861  748.2477
 862  786.2592
 863  720.7213
 864  781.6254
 865  1007.268
 866  1176.039
 867  958.648
 868  927.9753
 869  808.62
 870  765.2599
 871  695.4308
 872  726.9422
 873  708.3638
 874  784.8785
 875  908.7885
 876  829.0621
 877  852.5392
 878  898.9059
 879  1104.783
 880  1056.651
 881  1128.918
 882  1037.606
 883  841.879
 884  749.0312
 885  823.7015
 886  779.8438
 887  670.5213
 888  822.8887
 889  955.945
 890  897.4982
 891  913.8899
 892  1127.692
 893  1015.892
 894  862.5042
 895  891.9251
 896  844.6305
 897  666.5894
 898  646.9931
 899  970.0611
 900  1095.689
 901  988.8576
 902  984.8682
 903  755.7682
 904  602.2937
 905  746.8148
 906  1056.01
 907  1032.546
 908  918.5629
 909  947.8659
 910  919.709
 911  547.6567
 912  539.053
 913  760.9476
 914  905.8957
 915  846.556
 916  970.4189
 917  975.3858
 918  848.4326
 919  671.8737
 920  760.4728
 921  600.7713
 922  826.9976
 923  997.2364
 924  1022.201
 925  675.062
 926  539.3889
 927  665.8271
 928  728.9688
 929  906.0798
 930  1030.706
 931  1033.63
 932  919.5487
 933  975.2755
 934  728.5413
 935  632.8293
 936  605.5031
 937  867.7249
 938  866.8018
 939  772.3731
 940  808.7217
 941  718.6676
 942  820.5437
 943  991.3941
 944  1017.472
 945  829.3301
 946  729.4438
 947  915.2889
 948  970.871
 949  985.6498
 950  1091.888
 951  949.2241
 952  795.0981
 953  819.016
 954  877.3748
 955  705.0826
 956  620.5897
 957  813.2842
 958  813.7703
 959  583.4007
 960  847.4182
 961  974.9996
 962  942.1298
 963  819.0817
 964  1103.389
 965  1188.132
 966  1134.949
 967  1158.735
 968  1146.497
 969  800.5136
 970  782.1099
 971  909.5222
 972  940.5135
 973  709.8732
 974  716.5571
 975  813.6918
 976  665.0089
 977  661.7217
 978  844.0811
 979  958.8371
 980  922.584
 981  1070.473
 982  991.5237
 983  835.2607
 984  924.9145
 985  1235.444
 986  1102.873
 987  761.9704
 988  734.5026
 989  925.934
 990  969.8919
 991  897.8167
 992  819.5316
 993  724.4625
 994  808.7397
 995  953.946
 996  892.4173
 997  866.9808
 998  869.1522
 999  851.6918
1000  796.4647
1001  809.4956
1002  794.2512
1003  720.197
1004  810.7716
1005  1091.052
1006  913.0039
1007  868.2088
1008  856.0782
1009  952.2437
1010  765.3925
1011  790.9388
1012  971.0453
1013  986.8186
1014  868.9485
1015  967.653
1016  1064.055
1017  888.9946
1018  1090.762
1019  1201.834
1020  1106.406
1021  793.4729
1022  883.1133
1023  1004.53
