# Input file       =  1186870859.113977_cleaned.dat
# Candidate        =  PSR_0332+5434
# Telescope        =  AR
# Epoch_topo       =  57980.931459652515
# Epoch_bary       =  N/A
# T_sample         =  0.002
# Data Folded      =  7143424
# Data Avg         =  0.088656308997738
# Data StdDev      =  4.65043501047116 
# Profile Bins     =  512
# Profile Avg      =  1236.69309866468 
# Profile StdDev   =  549.302800661771 
# Reduced chi-sqr  =  0.510
# Prob(Noise)      <  1   (~0.0 sigma)
# P_topo (ms)      =  714.464649890622  +/- 0.000148
# P'_topo (s/s)    =  -0                +/- 8.03e-11
# P''_topo (s/s^2) =  0                 +/- 3.64e-14
# P_bary (ms)      =  N/A
# P'_bary (s/s)    =  N/A
# P''_bary (s/s^2) =  N/A
# P_orb (s)        =  N/A
# asin(i)/c (s)    =  N/A
# eccentricity     =  N/A
# w (rad)          =  N/A
# T_peri           =  N/A
######################################################
   0  1297.47
   1  1286.27
   2  1242.11
   3  1478.334
   4  1546.923
   5  1056.519
   6  1121.912
   7  871.6183
   8  1129.759
   9  1262.981
  10  1097.422
  11  1095.044
  12  943.8459
  13  1169.785
  14  1528.448
  15  1289.234
  16  1300.928
  17  1255.236
  18  1414.228
  19  1283.375
  20  1196.703
  21  1208.917
  22  1203.839
  23  1198.581
  24  1214.587
  25  1157.485
  26  1188.869
  27  1293.441
  28  1240.667
  29  1323.04
  30  1269.103
  31  1411.867
  32  1302.379
  33  861.0787
  34  1375.429
  35  1300.159
  36  1247.854
  37  1519.609
  38  1339.732
  39  1468.094
  40  756.3931
  41  956.1508
  42  1116.808
  43  1252.421
  44  1174.497
  45  1042.637
  46  1130.944
  47  1232.659
  48  1427.378
  49  1244.925
  50  1494.572
  51  865.3634
  52  834.3027
  53  1006.597
  54  1312.328
  55  1694.482
  56  1245.981
  57  1191.132
  58  1651.551
  59  1350.907
  60  1186.123
  61  1354.001
  62  1430.178
  63  1553.33
  64  1381.98
  65  1608.877
  66  1329.945
  67  1270.026
  68  1259.203
  69  1043.511
  70  1107.537
  71  1488.494
  72  1602.754
  73  1049.335
  74  863.621
  75  965.9252
  76  999.3827
  77  1204.47
  78  1303.492
  79  1835.151
  80  1376.472
  81  935.1263
  82  1020.243
  83  1190.411
  84  1034.995
  85  938.5348
  86  1090.337
  87  1224.349
  88  1362.635
  89  1024.527
  90  1212.241
  91  1685.533
  92  1386.115
  93  1134.732
  94  847.2668
  95  811.5004
  96  1102.682
  97  1046.19
  98  1483.182
  99  1540.904
 100  1843.47
 101  1542.041
 102  1388.946
 103  1163.334
 104  1392.678
 105  1252.027
 106  1239.297
 107  1203.801
 108  1610.173
 109  1398.732
 110  1305.525
 111  1195.015
 112  1642.241
 113  1815.011
 114  1411.689
 115  1327.152
 116  1271.174
 117  1610.903
 118  1753.71
 119  1699.895
 120  1469.036
 121  1449.269
 122  963.8033
 123  1177.241
 124  1213.402
 125  1124.472
 126  950.6513
 127  1186.666
 128  1436.898
 129  1237.157
 130  1256.545
 131  1162.907
 132  1062.856
 133  1059.257
 134  1299.87
 135  1306.075
 136  860.6377
 137  1127.563
 138  992.7102
 139  1226.232
 140  1014.292
 141  962.946
 142  1239.606
 143  986.1003
 144  1039.598
 145  1278.92
 146  1947.224
 147  1594.638
 148  1098.663
 149  1017.829
 150  862.0234
 151  807.7183
 152  777.8647
 153  1496.744
 154  1491.748
 155  1402.594
 156  1458.405
 157  1191.276
 158  1291.882
 159  1276.462
 160  1031.217
 161  1054.487
 162  1329.561
 163  1394.138
 164  937.3256
 165  854.7182
 166  989.3368
 167  1223.677
 168  837.8799
 169  586.3389
 170  669.6266
 171  980.5023
 172  778.9485
 173  915.4664
 174  1275.568
 175  1541.238
 176  1718.551
 177  1454.344
 178  931.6151
 179  1089.837
 180  1468.827
 181  694.0507
 182  954.8223
 183  1394.691
 184  1338.495
 185  1309.036
 186  1372.725
 187  1094.383
 188  1057.884
 189  779.0259
 190  631.9249
 191  965.676
 192  1073.704
 193  1404.329
 194  1551.657
 195  1468.995
 196  1545.326
 197  1402.79
 198  1108.528
 199  1340.558
 200  1229.612
 201  1454.434
 202  1419.401
 203  1193.265
 204  993.3461
 205  1057.804
 206  992.653
 207  1114.644
 208  1176.877
 209  1874.258
 210  1823.897
 211  1306.347
 212  1204.612
 213  1179.652
 214  1066.989
 215  1292.272
 216  1637.083
 217  1313.185
 218  1033.408
 219  970.1628
 220  1171.114
 221  1045.136
 222  673.7094
 223  988.1605
 224  1282.269
 225  1515.039
 226  1193.765
 227  1714.341
 228  1636.026
 229  1231.363
 230  1511.421
 231  1535.723
 232  1105.7
 233  991.0958
 234  1037.426
 235  900.5652
 236  1088.666
 237  1220.869
 238  1241.819
 239  1131.06
 240  1329.678
 241  838.7662
 242  1221.501
 243  965.9775
 244  869.7145
 245  1036.273
 246  810.3851
 247  1115.346
 248  1340.382
 249  1794.138
 250  1465.206
 251  1254.862
 252  1407.771
 253  1253.65
 254  748.1493
 255  684.2198
 256  803.7335
 257  1212.589
 258  1105.243
 259  1130.321
 260  1445.595
 261  1357.491
 262  1550.001
 263  1184.306
 264  1772.896
 265  720.8009
 266  795.5953
 267  914.4717
 268  1141.468
 269  1226.584
 270  965.4688
 271  924.1168
 272  886.6335
 273  913.4478
 274  1080.782
 275  1098.044
 276  1344.219
 277  1301.727
 278  1328.758
 279  1250.093
 280  1514.904
 281  1426.912
 282  1409.702
 283  1557.017
 284  1244.98
 285  1631.392
 286  1070.371
 287  1019.933
 288  908.8657
 289  1242.855
 290  1385.117
 291  1230.094
 292  1048.504
 293  1128.41
 294  1285.438
 295  1326.087
 296  1232.585
 297  1604.601
 298  1344.469
 299  916.8954
 300  1092.513
 301  1189.775
 302  1395.481
 303  1210.618
 304  1132.463
 305  1245.129
 306  976.5557
 307  1476.646
 308  1455.508
 309  1303.129
 310  1043.616
 311  1401.372
 312  1640.91
 313  1850.035
 314  1993.866
 315  1557.727
 316  1048.462
 317  869.3724
 318  1102.162
 319  1446.369
 320  1304.653
 321  1420.854
 322  2177.89
 323  2882.533
 324  2733.131
 325  2408.758
 326  2378.251
 327  1876.228
 328  1095.558
 329  1023.483
 330  668.9965
 331  1231.942
 332  1375.488
 333  1508.024
 334  1365.186
 335  1304.267
 336  1128.7
 337  951.6887
 338  1185.007
 339  731.8855
 340  903.3484
 341  829.9623
 342  1191.808
 343  1148.036
 344  1262.694
 345  1376.773
 346  1459.214
 347  1121.743
 348  1309.931
 349  1454.255
 350  1065.661
 351  688.5099
 352  1378.651
 353  1421.367
 354  1419.354
 355  1053.881
 356  1129.576
 357  1220.517
 358  852.4351
 359  927.4926
 360  1522.037
 361  1976.307
 362  1489.39
 363  1390.049
 364  1105.851
 365  1247.793
 366  1398.605
 367  1351.381
 368  1347.201
 369  1832.058
 370  1699.522
 371  1238.121
 372  1446.683
 373  953.8901
 374  1006.372
 375  1391.329
 376  1270.128
 377  1651.711
 378  1336.688
 379  1007.014
 380  1005.954
 381  1431.609
 382  1356.15
 383  1205.061
 384  1292.24
 385  1163.635
 386  1258.978
 387  981.8052
 388  1229.361
 389  1856.696
 390  1271.145
 391  1124.601
 392  670.2155
 393  1507.879
 394  1290.285
 395  1189.854
 396  1367.439
 397  1013.234
 398  1139.582
 399  682.0524
 400  1160.133
 401  1045.859
 402  1362.771
 403  1008.403
 404  813.263
 405  1212.171
 406  972.7425
 407  1295.627
 408  1231.018
 409  1431.798
 410  1394.917
 411  1233.549
 412  1053.226
 413  1082.339
 414  1404.723
 415  1013.665
 416  795.6068
 417  837.9912
 418  1165.844
 419  1419.716
 420  923.1467
 421  977.5583
 422  1027.605
 423  1284.915
 424  1036.474
 425  990.7806
 426  1224.731
 427  1469.348
 428  1430.483
 429  1345.219
 430  1234.415
 431  1094.198
 432  897.6431
 433  918.2339
 434  948.355
 435  1106.106
 436  1384.154
 437  1573.646
 438  1214.39
 439  1183.08
 440  1095.831
 441  1645.29
 442  1568.409
 443  1307.141
 444  1557.224
 445  1393.851
 446  1683.582
 447  1190.34
 448  964.8037
 449  1205.151
 450  1214.186
 451  1331.92
 452  1014.493
 453  1066.811
 454  1209.995
 455  919.5001
 456  1082.644
 457  1127.706
 458  1558.064
 459  1540.444
 460  1326.669
 461  1087.622
 462  1436.162
 463  1741.207
 464  1394.339
 465  1437.979
 466  1094.782
 467  1367.302
 468  886.5131
 469  528.6052
 470  1096.215
 471  1242.308
 472  1208.44
 473  1412.813
 474  1798.389
 475  1247.842
 476  1067.792
 477  1320.442
 478  1305.065
 479  1104.023
 480  1131.679
 481  879.2923
 482  579.5917
 483  1096.079
 484  1477.411
 485  1222.845
 486  1264.442
 487  1199.785
 488  1476.189
 489  1155.454
 490  633.3213
 491  1045.743
 492  1347.81
 493  1702.727
 494  1312.48
 495  1247.216
 496  1185.896
 497  1114.188
 498  818.5744
 499  801.3221
 500  1004.988
 501  1220.241
 502  1226.277
 503  1128.543
 504  1674.619
 505  1073.838
 506  1034.155
 507  1328.018
 508  1301.288
 509  1166.808
 510  1382.91
 511  1524.728
