# Input file       =  1186612281.106419_cleaned.dat
# Candidate        =  PSR_0332+5434
# Telescope        =  AR
# Epoch_topo       =  57977.938658639112
# Epoch_bary       =  N/A
# T_sample         =  0.002
# Data Folded      =  7208960
# Data Avg         =  0.120727201750163
# Data StdDev      =  4.55138910719458 
# Profile Bins     =  1024
# Profile Avg      =  849.912433260398 
# Profile StdDev   =  381.882973367274 
# Reduced chi-sqr  =  0.471
# Prob(Noise)      <  1   (~0.0 sigma)
# P_topo (ms)      =  714.465357659245  +/- 6.11e-05
# P'_topo (s/s)    =  -0                +/- 3.28e-11
# P''_topo (s/s^2) =  0                 +/- 1.48e-14
# P_bary (ms)      =  N/A
# P'_bary (s/s)    =  N/A
# P''_bary (s/s^2) =  N/A
# P_orb (s)        =  N/A
# asin(i)/c (s)    =  N/A
# eccentricity     =  N/A
# w (rad)          =  N/A
# T_peri           =  N/A
######################################################
   0  758.4739
   1  721.9229
   2  781.9732
   3  636.6686
   4  625.6205
   5  840.993
   6  798.0527
   7  853.2724
   8  835.4527
   9  912.5992
  10  747.6592
  11  794.7374
  12  1065.396
  13  1018.674
  14  831.8787
  15  645.9671
  16  683.7289
  17  689.2603
  18  837.0834
  19  1034.317
  20  975.9113
  21  719.849
  22  679.5195
  23  763.161
  24  823.7867
  25  878.69
  26  933.3347
  27  936.0887
  28  881.3798
  29  872.4401
  30  874.795
  31  899.2861
  32  873.3605
  33  835.0914
  34  799.8109
  35  881.8069
  36  1062.505
  37  975.0259
  38  931.952
  39  787.2137
  40  749.7561
  41  666.4368
  42  700.6763
  43  808.5579
  44  857.2985
  45  825.1651
  46  649.7865
  47  569.2249
  48  631.7687
  49  753.2203
  50  823.0432
  51  893.4614
  52  1073.68
  53  1135.776
  54  917.0016
  55  758.9756
  56  844.4574
  57  982.4869
  58  911.8372
  59  885.9147
  60  876.2857
  61  778.0696
  62  740.6208
  63  994.4783
  64  1012.703
  65  859.0278
  66  739.2848
  67  912.8099
  68  846.7388
  69  569.6671
  70  651.6306
  71  704.6978
  72  658.7107
  73  614.5502
  74  735.2265
  75  853.759
  76  743.0898
  77  825.2941
  78  899.4456
  79  874.6556
  80  772.9855
  81  719.1935
  82  663.3286
  83  600.8777
  84  758.8192
  85  831.9748
  86  871.9379
  87  806.4777
  88  922.6472
  89  867.6073
  90  905.0383
  91  790.7866
  92  831.8
  93  786.7476
  94  808.1226
  95  756.4501
  96  766.5317
  97  803.7596
  98  799.963
  99  663.9001
 100  625.7154
 101  693.788
 102  733.5598
 103  712.0227
 104  759.7983
 105  832.8484
 106  741.3654
 107  750.2641
 108  931.6001
 109  911.2472
 110  898.6931
 111  848.4823
 112  877.7705
 113  742.6836
 114  683.9843
 115  829.4087
 116  903.3265
 117  907.3668
 118  846.2999
 119  797.2252
 120  663.6584
 121  780.9797
 122  868.5901
 123  1035.885
 124  1004.471
 125  957.3535
 126  797.3214
 127  573.827
 128  678.2103
 129  848.1683
 130  896.1808
 131  958.114
 132  1003.987
 133  900.524
 134  702.6865
 135  741.0248
 136  784.1808
 137  786.5678
 138  843.2828
 139  959.4698
 140  741.6746
 141  650.4193
 142  700.7934
 143  823.9011
 144  770.8588
 145  913.4363
 146  1034.762
 147  972.258
 148  875.6902
 149  839.551
 150  785.4467
 151  681.1906
 152  827.6375
 153  1011.502
 154  998.1228
 155  922.3375
 156  882.201
 157  925.2867
 158  949.795
 159  1104.084
 160  1126.003
 161  1045.474
 162  1006.143
 163  902.2242
 164  648.2256
 165  563.4456
 166  800.6769
 167  1007.773
 168  1013.009
 169  957.0612
 170  865.7355
 171  762.3728
 172  683.9966
 173  750.0491
 174  644.8165
 175  624.5901
 176  760.3263
 177  878.737
 178  839.0189
 179  767.3438
 180  773.8114
 181  749.1199
 182  692.1902
 183  842.5129
 184  916.5655
 185  959.4167
 186  974.1708
 187  955.8737
 188  779.4133
 189  659.5815
 190  785.6011
 191  745.0322
 192  659.9747
 193  628.2573
 194  808.2756
 195  892.6423
 196  812.5628
 197  839.0349
 198  785.8885
 199  677.9011
 200  717.812
 201  714.3317
 202  861.3585
 203  870.8712
 204  1074.419
 205  1068.09
 206  1187.694
 207  1072.012
 208  977.8409
 209  725.4452
 210  733.4987
 211  797.2142
 212  740.2963
 213  658.9346
 214  597.0418
 215  710.0001
 216  740.8582
 217  817.8362
 218  790.0014
 219  689.2398
 220  662.7224
 221  705.8131
 222  703.4637
 223  730.5931
 224  864.39
 225  871.8731
 226  980.722
 227  970.8195
 228  887.1802
 229  665.1771
 230  572.6208
 231  840.5851
 232  778.1058
 233  746.1332
 234  692.2381
 235  844.5281
 236  764.2123
 237  677.4385
 238  687.8945
 239  721.4339
 240  654.246
 241  791.7371
 242  896.153
 243  1068.252
 244  1067.673
 245  993.0602
 246  912.1157
 247  826.8197
 248  877.8605
 249  817.4407
 250  693.7871
 251  802.5424
 252  941.5061
 253  894.9946
 254  753.2569
 255  653.7708
 256  742.2744
 257  655.4706
 258  727.9187
 259  704.1697
 260  656.0895
 261  612.5084
 262  629.2394
 263  593.9818
 264  620.0405
 265  793.1595
 266  892.6594
 267  755.9023
 268  741.7209
 269  934.2918
 270  984.8892
 271  951.4257
 272  895.5279
 273  947.0731
 274  761.1882
 275  725.6765
 276  811.2633
 277  754.3629
 278  606.6816
 279  666.1674
 280  795.9775
 281  911.6236
 282  981.4271
 283  1080.504
 284  976.5393
 285  902.681
 286  798.951
 287  756.8115
 288  571.7034
 289  694.3444
 290  709.2532
 291  928.5594
 292  845.6955
 293  933.6301
 294  848.3011
 295  851.2115
 296  807.3135
 297  707.5945
 298  643.1289
 299  719.611
 300  828.9293
 301  916.5549
 302  854.7917
 303  894.9876
 304  846.0754
 305  801.5264
 306  839.9805
 307  900.2274
 308  829.8301
 309  794.5515
 310  923.5726
 311  870.7761
 312  718.0913
 313  599.7055
 314  702.9841
 315  809.4812
 316  1045.294
 317  1024.009
 318  877.3986
 319  718.9372
 320  641.1204
 321  622.4708
 322  584.6154
 323  785.9688
 324  907.7041
 325  964.3051
 326  841.4363
 327  1007.032
 328  1015.473
 329  1054.874
 330  1089.849
 331  1037.885
 332  867.1034
 333  637.3659
 334  715.308
 335  659.9768
 336  634.4199
 337  848.3774
 338  1077.732
 339  1161.539
 340  893.4682
 341  898.7906
 342  859.4582
 343  908.2036
 344  870.8496
 345  841.9225
 346  802.416
 347  863.8358
 348  829.689
 349  728.9678
 350  707.4954
 351  726.1352
 352  840.2665
 353  828.8097
 354  953.3491
 355  904.368
 356  830.2774
 357  841.372
 358  864.2616
 359  796.9338
 360  740.5974
 361  828.7698
 362  824.9683
 363  684.9242
 364  633.0893
 365  615.9986
 366  622.5865
 367  526.5234
 368  792.9373
 369  698.7901
 370  626.7735
 371  557.2795
 372  824.6434
 373  881.0785
 374  977.2011
 375  1112.514
 376  1099.506
 377  898.8105
 378  760.3345
 379  900.0302
 380  850.4994
 381  831.2722
 382  844.8468
 383  818.5366
 384  819.5098
 385  752.942
 386  742.1425
 387  569.189
 388  679.7968
 389  852.611
 390  1061.052
 391  1059.488
 392  998.7924
 393  878.517
 394  766.555
 395  839.3188
 396  872.1634
 397  799.9848
 398  745.8436
 399  796.4861
 400  752.9744
 401  667.683
 402  776.2897
 403  800.3383
 404  900.3387
 405  906.5786
 406  1041.675
 407  899.4293
 408  757.6906
 409  799.6356
 410  972.0655
 411  1045.941
 412  1107.436
 413  1046.609
 414  1019.683
 415  1005.49
 416  1068.439
 417  920.5231
 418  779.1708
 419  761.4327
 420  854.0174
 421  798.332
 422  923.246
 423  983.4355
 424  911.7528
 425  855.2601
 426  959.0284
 427  984.0229
 428  807.132
 429  626.5649
 430  684.9092
 431  643.1949
 432  754.3246
 433  848.9699
 434  975.5309
 435  925.4295
 436  795.8778
 437  846.3491
 438  810.7661
 439  870.5211
 440  928.5396
 441  900.8698
 442  916.1804
 443  837.1353
 444  859.2543
 445  805.0508
 446  863.2538
 447  858.4005
 448  667.5521
 449  691.0575
 450  753.1501
 451  840.9884
 452  803.2661
 453  796.9096
 454  866.1738
 455  896.0144
 456  932.0387
 457  1012.58
 458  918.822
 459  953.53
 460  857.2799
 461  724.1575
 462  631.3464
 463  649.9943
 464  822.7909
 465  639.1558
 466  574.1906
 467  641.326
 468  821.7728
 469  663.3
 470  625.9323
 471  651.1852
 472  691.7433
 473  591.0212
 474  790.3603
 475  1098.517
 476  1104.539
 477  985.9985
 478  792.0787
 479  651.5111
 480  656.2239
 481  823.3997
 482  932.2921
 483  796.8578
 484  862.9869
 485  1046.084
 486  1071.794
 487  924.5146
 488  817.9011
 489  918.7897
 490  1016.988
 491  1145.594
 492  1002.827
 493  1014.539
 494  972.3588
 495  1043.671
 496  815.958
 497  689.2347
 498  771.8041
 499  788.3522
 500  695.1949
 501  621.4161
 502  699.3536
 503  729.6722
 504  654.2885
 505  874.3735
 506  1007.167
 507  1061.206
 508  866.576
 509  813.6619
 510  725.1743
 511  702.0325
 512  680.5288
 513  669.8341
 514  616.9299
 515  647.0812
 516  687.7877
 517  644.9592
 518  622.5035
 519  596.7351
 520  773.7803
 521  863.5175
 522  1008.326
 523  900.5158
 524  866.2064
 525  705.5009
 526  672.6028
 527  696.5963
 528  849.6488
 529  1049.985
 530  964.1183
 531  860.8483
 532  855.0644
 533  1011.217
 534  988.8374
 535  1006.39
 536  1025.625
 537  940.955
 538  898.4178
 539  897.7288
 540  1059.72
 541  911.1055
 542  931.0558
 543  965.2203
 544  1002.987
 545  872.9733
 546  810.7545
 547  887.7618
 548  804.533
 549  940.847
 550  962.3212
 551  887.3395
 552  647.1093
 553  681.3668
 554  734.1716
 555  805.4786
 556  842.9844
 557  902.7021
 558  859.4196
 559  860.9717
 560  951.7871
 561  846.3669
 562  659.5793
 563  671.496
 564  833.5371
 565  892.4115
 566  807.2156
 567  754.458
 568  602.1761
 569  550.2924
 570  682.4528
 571  696.0413
 572  643.5249
 573  545.0549
 574  721.4824
 575  703.5247
 576  680.6816
 577  650.7725
 578  727.851
 579  744.7903
 580  854.3962
 581  900.4855
 582  836.1981
 583  806.6112
 584  807.534
 585  714.4539
 586  595.9147
 587  593.4282
 588  634.3475
 589  671.5923
 590  897.0877
 591  976.0251
 592  1019.363
 593  844.7563
 594  927.4869
 595  884.8503
 596  802.4299
 597  771.1988
 598  769.4568
 599  802.7781
 600  764.826
 601  1021.179
 602  1061.752
 603  1099.121
 604  973.0412
 605  1045.007
 606  924.4863
 607  827.0893
 608  845.2314
 609  952.9022
 610  900.7182
 611  858.7029
 612  862.5681
 613  855.688
 614  826.8231
 615  836.9239
 616  813.3399
 617  846.6293
 618  866.3968
 619  891.1075
 620  861.0426
 621  832.3448
 622  918.7839
 623  938.6723
 624  984.25
 625  1072.215
 626  1055.958
 627  965.9064
 628  889.9214
 629  885.809
 630  856.183
 631  913.1866
 632  1039.633
 633  988.2043
 634  873.257
 635  865.7345
 636  1040.845
 637  1031.202
 638  913.8224
 639  1001.016
 640  1052.512
 641  1173.564
 642  1071.224
 643  1176.174
 644  1237.695
 645  1482.074
 646  1753.22
 647  1747.494
 648  1718.204
 649  1490.981
 650  1348.315
 651  1325.082
 652  1337.298
 653  1430.61
 654  1318.308
 655  1350.429
 656  1278.641
 657  1100.861
 658  934.9288
 659  921.5495
 660  874.9936
 661  797.1265
 662  839.4923
 663  868.3776
 664  880.1486
 665  808.3329
 666  995.8428
 667  917.4755
 668  911.4379
 669  962.9059
 670  966.916
 671  756.1824
 672  662.2893
 673  877.3892
 674  1073.731
 675  1064.412
 676  1108.211
 677  1097.607
 678  1076.881
 679  1033.612
 680  970.5786
 681  758.3169
 682  650.3467
 683  779.3016
 684  876.3373
 685  823.772
 686  890.1265
 687  968.7563
 688  1017.613
 689  889.7457
 690  1053.391
 691  1121.817
 692  1017.409
 693  949.1941
 694  970.0007
 695  1007.506
 696  918.113
 697  1049.624
 698  1114.784
 699  978.1207
 700  807.4573
 701  731.8719
 702  868.4645
 703  934.8283
 704  1015.665
 705  924.9472
 706  1025.923
 707  1008.148
 708  912.4614
 709  704.0399
 710  743.0667
 711  848.4531
 712  804.376
 713  876.1652
 714  849.8582
 715  1019.129
 716  1003.24
 717  1115.419
 718  986.8482
 719  867.243
 720  751.265
 721  884.4613
 722  803.8674
 723  859.7607
 724  811.5209
 725  837.8843
 726  778.7079
 727  873.9418
 728  1017.187
 729  1041.012
 730  934.0784
 731  1045.583
 732  1013.967
 733  932.735
 734  840.2222
 735  795.9448
 736  664.1345
 737  596.1822
 738  786.4879
 739  896.2897
 740  843.4179
 741  869.6163
 742  867.1672
 743  929.191
 744  871.9042
 745  929.5078
 746  943.5679
 747  911.295
 748  903.0016
 749  874.604
 750  813.9225
 751  751.1131
 752  761.0425
 753  805.9719
 754  966.4742
 755  961.0272
 756  839.5453
 757  746.2576
 758  884.7687
 759  976.3972
 760  915.2787
 761  848.9807
 762  956.5453
 763  912.4736
 764  949.3054
 765  990.0816
 766  994.9071
 767  840.817
 768  779.0919
 769  965.8128
 770  939.6011
 771  899.0563
 772  916.9751
 773  902.9548
 774  852.7108
 775  852.5106
 776  877.2185
 777  922.9487
 778  923.41
 779  1048.3
 780  1026.867
 781  957.0042
 782  909.8779
 783  933.4185
 784  876.5878
 785  832.5617
 786  902.925
 787  840.4081
 788  848.8558
 789  791.8351
 790  834.2081
 791  668.6066
 792  716.7305
 793  750.3031
 794  826.9461
 795  808.0829
 796  985.9066
 797  937.6131
 798  838.9942
 799  620.2369
 800  717.0551
 801  575.9836
 802  688.9421
 803  793.4547
 804  918.8959
 805  845.9603
 806  848.204
 807  887.0041
 808  794.4113
 809  751.5466
 810  681.6916
 811  701.4144
 812  745.2848
 813  767.075
 814  714.353
 815  650.4938
 816  634.6423
 817  821.8127
 818  851.3419
 819  901.5773
 820  869.9713
 821  877.2083
 822  978.3443
 823  1015.093
 824  1003.139
 825  776.9956
 826  642.5501
 827  749.9382
 828  747.5762
 829  696.3244
 830  684.5377
 831  774.767
 832  804.3469
 833  810.4937
 834  796.5486
 835  671.7137
 836  513.3635
 837  605.9406
 838  714.6964
 839  817.0261
 840  792.7621
 841  816.6555
 842  828.0801
 843  812.9982
 844  921.3707
 845  884.3995
 846  848.5728
 847  780.1497
 848  851.8676
 849  792.2444
 850  922.1389
 851  941.8427
 852  910.0928
 853  824.535
 854  1021.794
 855  1052.955
 856  986.3287
 857  787.7317
 858  814.3657
 859  615.1843
 860  497.7837
 861  726.0048
 862  889.0494
 863  839.9067
 864  695.2751
 865  821.1432
 866  828.072
 867  701.1195
 868  781.2612
 869  965.8174
 870  974.2362
 871  885.4266
 872  840.2786
 873  837.9276
 874  823.6501
 875  877.4481
 876  963.4227
 877  955.8543
 878  894.3879
 879  821.7234
 880  700.4427
 881  751.4769
 882  816.0173
 883  865.3187
 884  947.778
 885  971.6253
 886  887.5872
 887  764.102
 888  736.525
 889  945.9684
 890  968.9409
 891  943.9244
 892  899.0097
 893  805.0565
 894  795.1268
 895  810.5737
 896  891.3059
 897  923.1514
 898  952.4772
 899  980.555
 900  778.5734
 901  672.4975
 902  726.0369
 903  808.1481
 904  707.3722
 905  636.0954
 906  698.8729
 907  826.725
 908  840.2945
 909  975.9868
 910  1117.659
 911  1088.98
 912  1032.328
 913  955.3547
 914  876.6472
 915  771.0243
 916  674.2207
 917  809.3989
 918  923.3719
 919  1014.518
 920  945.6716
 921  844.0561
 922  821.3677
 923  820.5248
 924  648.8782
 925  675.2444
 926  791.2467
 927  943.9856
 928  828.6837
 929  732.8802
 930  801.5695
 931  726.8374
 932  771.7118
 933  777.4276
 934  864.0172
 935  877.871
 936  902.9797
 937  982.4301
 938  945.9993
 939  957.6948
 940  938.469
 941  867.0246
 942  794.541
 943  834.1157
 944  760.106
 945  649.4561
 946  721.2772
 947  964.9526
 948  996.8994
 949  890.6255
 950  926.1063
 951  979.5587
 952  958.4273
 953  739.0915
 954  790.4832
 955  890.5091
 956  1075.34
 957  1126.565
 958  841.2906
 959  701.8859
 960  690.9606
 961  782.3279
 962  782.4811
 963  780.3698
 964  975.4034
 965  861.3721
 966  773.6646
 967  569.295
 968  687.2072
 969  698.1299
 970  993.9592
 971  1144.885
 972  1171.126
 973  1068.834
 974  943.9609
 975  802.3853
 976  685.0599
 977  808.6617
 978  926.6522
 979  977.9316
 980  995.0514
 981  1043.836
 982  875.5087
 983  802.812
 984  814.9099
 985  1008.205
 986  928.1924
 987  932.8421
 988  1070.756
 989  982.3512
 990  817.6076
 991  853.4382
 992  894.2104
 993  845.8627
 994  702.5697
 995  791.3842
 996  734.0377
 997  596.2038
 998  637.1082
 999  792.653
1000  1000.466
1001  1052.872
1002  1071.714
1003  962.5509
1004  832.2407
1005  938.7256
1006  977.1743
1007  782.2136
1008  740.4548
1009  841.0119
1010  978.2703
1011  945.2267
1012  947.8279
1013  913.8858
1014  935.7444
1015  886.8043
1016  978.6039
1017  895.204
1018  960.5808
1019  871.486
1020  766.7932
1021  704.1298
1022  838.0415
1023  799.651
