# Input file       =  1186368433.119517_cleaned.dat
# Candidate        =  PSR_0332+5434
# Telescope        =  AR
# Epoch_topo       =  57975.116343975889
# Epoch_bary       =  N/A
# T_sample         =  0.002
# Data Folded      =  7340032
# Data Avg         =  0.0242935198496395
# Data StdDev      =  2.32172287128041 
# Profile Bins     =  1024
# Profile Avg      =  173.951293937545 
# Profile StdDev   =  196.566442579801 
# Reduced chi-sqr  =  1.570
# Prob(Noise)      <  1.13e-28   (~11.0 sigma)
# P_topo (ms)      =  714.466160785599  +/- 0.000152
# P'_topo (s/s)    =  -0                +/- 8.02e-11
# P''_topo (s/s^2) =  0                 +/- 3.54e-14
# P_bary (ms)      =  N/A
# P'_bary (s/s)    =  N/A
# P''_bary (s/s^2) =  N/A
# P_orb (s)        =  N/A
# asin(i)/c (s)    =  N/A
# eccentricity     =  N/A
# w (rad)          =  N/A
# T_peri           =  N/A
######################################################
   0  257.8813
   1  198.9889
   2  107.268
   3  58.18816
   4  89.86707
   5  116.4641
   6  5.328639
   7  -44.20093
   8  44.72351
   9  195.5381
  10  291.5162
  11  331.3421
  12  251.2744
  13  244.5466
  14  179.679
  15  200.8747
  16  100.0723
  17  107.8616
  18  205.4794
  19  237.472
  20  215.1127
  21  165.3632
  22  223.8506
  23  157.9335
  24  44.87047
  25  -77.5287
  26  -52.56352
  27  -0.364884
  28  44.61838
  29  168.5927
  30  344.5147
  31  453.4682
  32  360.2829
  33  190.0579
  34  90.71366
  35  144.4917
  36  197.4734
  37  199.4044
  38  153.8374
  39  48.9584
  40  118.83
  41  180.0996
  42  166.4993
  43  95.09644
  44  32.1999
  45  113.6077
  46  173.3032
  47  280.2665
  48  297.3655
  49  193.7008
  50  107.7938
  51  262.6152
  52  337.5293
  53  273.9485
  54  132.9196
  55  144.9393
  56  234.2254
  57  185.2389
  58  177.415
  59  198.9357
  60  203.2285
  61  163.3791
  62  110.4952
  63  93.02504
  64  159.7276
  65  249.375
  66  402.7691
  67  444.7868
  68  419.1441
  69  350.231
  70  275.4737
  71  219.5246
  72  209.1253
  73  143.7639
  74  155.1926
  75  111.5065
  76  148.049
  77  156.751
  78  213.4402
  79  396.2487
  80  424.0265
  81  318.7452
  82  149.1796
  83  48.87435
  84  -1.991466
  85  27.10692
  86  131.4785
  87  252.0234
  88  196.8035
  89  163.7903
  90  175.754
  91  115.9767
  92  86.96235
  93  36.28976
  94  89.18924
  95  161.3543
  96  129.0084
  97  67.79285
  98  -42.83925
  99  79.48847
 100  104.7103
 101  136.786
 102  97.32545
 103  166.2561
 104  219.7562
 105  197.0726
 106  198.3543
 107  271.1766
 108  343.0287
 109  302.1594
 110  253.2963
 111  186.2168
 112  92.4754
 113  146.0511
 114  137.8305
 115  212.9111
 116  177.2641
 117  170.7333
 118  148.8076
 119  72.39895
 120  -34.3642
 121  -38.63791
 122  47.73717
 123  232.4816
 124  344.2747
 125  280.0978
 126  208.1218
 127  172.6638
 128  328.9066
 129  402.2511
 130  335.3561
 131  233.4109
 132  145.0014
 133  241.3551
 134  295.1262
 135  288.1081
 136  157.5221
 137  115.5806
 138  124.1205
 139  77.29897
 140  77.83302
 141  134.3931
 142  296.2541
 143  337.1889
 144  331.1905
 145  232.662
 146  154.6029
 147  154.8793
 148  53.97985
 149  6.014917
 150  48.08645
 151  232.6644
 152  261.0257
 153  219.8096
 154  232.234
 155  302.3081
 156  227.0371
 157  89.70355
 158  27.06482
 159  164.1317
 160  249.5588
 161  316.8453
 162  268.839
 163  309.0185
 164  280.8153
 165  274.5051
 166  341.1445
 167  390.1248
 168  378.9843
 169  302.739
 170  211.8305
 171  253.7402
 172  201.8971
 173  216.2535
 174  152.3425
 175  154.4074
 176  164.8143
 177  256.2953
 178  234.59
 179  250.3842
 180  52.74767
 181  120.1774
 182  74.74092
 183  178.6418
 184  199.9895
 185  283.3555
 186  322.446
 187  327.4887
 188  226.3647
 189  88.49789
 190  -17.64007
 191  115.1189
 192  210.5942
 193  340.854
 194  207.2489
 195  184.9658
 196  129.5211
 197  199.9252
 198  74.09869
 199  10.49276
 200  59.6414
 201  164.4643
 202  240.889
 203  216.3627
 204  214.2634
 205  240.1127
 206  235.6642
 207  223.0735
 208  122.8264
 209  150.9128
 210  80.65813
 211  97.90481
 212  54.63226
 213  48.569
 214  24.84995
 215  7.836696
 216  -63.39603
 217  21.05499
 218  -14.00588
 219  -54.91247
 220  -134.0449
 221  -64.38122
 222  110.3233
 223  194.1401
 224  270.0114
 225  268.5352
 226  105.7022
 227  34.55727
 228  -109.8219
 229  13.21437
 230  56.23515
 231  139.4762
 232  62.36148
 233  44.5373
 234  -20.45739
 235  -48.73114
 236  7.823741
 237  116.6895
 238  220.5015
 239  68.17863
 240  69.83108
 241  35.22461
 242  99.36725
 243  80.6116
 244  90.89465
 245  97.11424
 246  79.18182
 247  39.0092
 248  45.7404
 249  130.9477
 250  218.5807
 251  320.9539
 252  157.0666
 253  23.79568
 254  -127.8517
 255  -38.21447
 256  85.65559
 257  70.14472
 258  26.64494
 259  -7.061212
 260  59.35612
 261  169.0953
 262  132.418
 263  88.26045
 264  -13.5164
 265  25.78649
 266  38.30627
 267  35.27389
 268  32.15068
 269  52.30167
 270  68.7955
 271  132.9049
 272  60.76403
 273  52.7359
 274  -96.68947
 275  -103.0433
 276  -150.9322
 277  -18.83161
 278  103.1575
 279  177.9665
 280  200.731
 281  163.3686
 282  52.74031
 283  45.35069
 284  117.5853
 285  121.9324
 286  -9.040654
 287  -5.002215
 288  102.7076
 289  175.8424
 290  194.3731
 291  183.7043
 292  199.8837
 293  207.0661
 294  224.9863
 295  250.6677
 296  316.4378
 297  248.9697
 298  77.71627
 299  -3.952559
 300  11.9064
 301  49.24375
 302  115.8185
 303  149.0051
 304  124.5764
 305  124.2938
 306  123.209
 307  183.3935
 308  136.5753
 309  160.8183
 310  66.07823
 311  50.65179
 312  125.5349
 313  277.7659
 314  252.482
 315  227.3011
 316  167.0154
 317  261.1512
 318  218.2991
 319  294.9968
 320  242.6768
 321  157.9027
 322  12.71514
 323  -7.916266
 324  115.5107
 325  148.8463
 326  281.3893
 327  267.9084
 328  244.978
 329  80.21909
 330  -62.01146
 331  73.6815
 332  136.7772
 333  360.6717
 334  307.2065
 335  318.537
 336  199.1196
 337  109.9352
 338  133.5761
 339  195.7027
 340  197.4531
 341  172.8769
 342  123.4419
 343  133.8286
 344  116.311
 345  129.2773
 346  115.9647
 347  121.4498
 348  199.2666
 349  269.5565
 350  273.3614
 351  237.0752
 352  272.7776
 353  371.3242
 354  404.4838
 355  265.8531
 356  138.044
 357  -54.25644
 358  -22.17311
 359  -52.23001
 360  17.29112
 361  55.28373
 362  79.79319
 363  191.7448
 364  247.383
 365  310.0771
 366  345.5553
 367  326.7492
 368  199.6938
 369  40.16996
 370  33.18317
 371  38.285
 372  -12.71999
 373  -14.84937
 374  86.97843
 375  250.4577
 376  250.4115
 377  226.7932
 378  169.6782
 379  175.4994
 380  245.0251
 381  178.9049
 382  40.6778
 383  11.84094
 384  92.92131
 385  191.1415
 386  244.0934
 387  225.0821
 388  167.214
 389  -24.74422
 390  -58.22913
 391  -102.0172
 392  8.049655
 393  24.47755
 394  100.9983
 395  73.52096
 396  51.96469
 397  124.966
 398  155.0001
 399  209.5342
 400  204.7882
 401  309.3633
 402  262.0033
 403  246.9284
 404  170.1747
 405  135.0944
 406  11.51284
 407  -72.37037
 408  -46.56841
 409  -41.98916
 410  3.498252
 411  21.67469
 412  28.40145
 413  -12.16751
 414  -57.59755
 415  -50.24735
 416  1.046337
 417  153.2651
 418  301.4216
 419  423.7737
 420  408.3016
 421  349.8084
 422  359.3499
 423  250.9323
 424  265.2329
 425  310.8968
 426  411.5918
 427  320.2264
 428  138.2313
 429  68.49494
 430  90.75996
 431  183.9651
 432  119.2048
 433  14.82134
 434  126.9403
 435  201.1456
 436  263.2459
 437  181.0382
 438  158.2709
 439  173.6303
 440  119.4199
 441  167.5159
 442  153.0704
 443  211.7515
 444  180.8417
 445  311.0206
 446  306.688
 447  383.0764
 448  235.4847
 449  203.2342
 450  224.7927
 451  346.1701
 452  323.0583
 453  254.7668
 454  234.1962
 455  306.1056
 456  238.5077
 457  277.0894
 458  420.309
 459  411.5825
 460  255.9413
 461  103.4321
 462  66.28231
 463  122.6447
 464  170.7346
 465  346.0078
 466  277.9262
 467  255.1297
 468  246.0422
 469  220.085
 470  70.07642
 471  88.75937
 472  142.2918
 473  273.4305
 474  281.4334
 475  236.2405
 476  59.52342
 477  -0.9141459
 478  145.3903
 479  274.8162
 480  263.583
 481  172.164
 482  170.6973
 483  258.69
 484  295.3019
 485  261.4244
 486  244.9127
 487  196.4443
 488  150.6855
 489  140.5069
 490  103.9851
 491  54.19316
 492  -18.82429
 493  21.23758
 494  165.4818
 495  193.2096
 496  185.1375
 497  204.0076
 498  249.1924
 499  287.5742
 500  253.6876
 501  345.6417
 502  275.703
 503  199.5249
 504  110.6791
 505  98.0939
 506  38.79922
 507  36.01601
 508  -47.63348
 509  -45.61625
 510  2.112263
 511  120.8852
 512  149.877
 513  171.5433
 514  209.4689
 515  244.0581
 516  270.8925
 517  302.559
 518  122.599
 519  61.68102
 520  30.89286
 521  60.81637
 522  -96.46043
 523  -48.2597
 524  -21.79014
 525  99.9378
 526  35.26875
 527  11.01932
 528  12.27778
 529  110.6278
 530  207.6735
 531  256.3654
 532  151.8872
 533  163.0756
 534  129.1306
 535  252.3483
 536  275.9558
 537  346.2123
 538  359.3979
 539  264.0994
 540  190.1448
 541  198.787
 542  247.3615
 543  225.0748
 544  253.5488
 545  388.153
 546  387.1799
 547  300.4826
 548  86.38396
 549  89.98153
 550  145.4688
 551  264.3167
 552  144.0146
 553  50.04767
 554  16.46038
 555  193.8647
 556  146.2632
 557  78.13268
 558  1.046557
 559  42.99667
 560  -6.594118
 561  -53.86914
 562  31.11151
 563  136.1415
 564  148.6087
 565  101.3265
 566  114.7239
 567  194.7237
 568  49.74931
 569  85.81618
 570  20.3764
 571  75.33124
 572  17.47237
 573  115.9328
 574  209.3379
 575  163.3209
 576  117.6543
 577  145.0941
 578  319.6782
 579  213.4783
 580  143.7283
 581  63.58177
 582  134.8178
 583  153.2562
 584  253.8769
 585  251.1504
 586  208.3553
 587  198.4514
 588  235.7108
 589  135.867
 590  79.95727
 591  -39.66818
 592  -17.04279
 593  19.49234
 594  62.15235
 595  114.838
 596  133.4951
 597  131.6732
 598  29.0106
 599  60.50133
 600  105.6773
 601  131.084
 602  96.59255
 603  183.0789
 604  279.1916
 605  137.0755
 606  89.19722
 607  91.77189
 608  254.2332
 609  317.9904
 610  275.3636
 611  246.3734
 612  249.919
 613  367.6585
 614  275.8997
 615  126.3489
 616  59.23694
 617  136.4639
 618  126.6058
 619  103.4595
 620  214.7144
 621  232.9804
 622  248.5767
 623  197.9747
 624  250.2887
 625  212.4777
 626  194.9919
 627  217.3861
 628  319.7658
 629  261.3265
 630  167.0564
 631  40.91178
 632  48.33237
 633  74.32347
 634  183.0921
 635  267.9402
 636  187.2425
 637  104.3619
 638  114.687
 639  335.6546
 640  423.6175
 641  462.9951
 642  466.2092
 643  647.4179
 644  799.5817
 645  940.8785
 646  1049.174
 647  1082.489
 648  1070.528
 649  969.4473
 650  946.517
 651  859.5025
 652  882.2087
 653  763.0789
 654  698.7181
 655  540.1
 656  492.5287
 657  405.0858
 658  211.1655
 659  165.4815
 660  190.0936
 661  280.1022
 662  197.6139
 663  162.8522
 664  246.1095
 665  262.7695
 666  175.6182
 667  109.535
 668  106.9062
 669  183.5407
 670  180.1424
 671  247.3364
 672  256.8051
 673  280.2691
 674  296.7408
 675  345.4736
 676  441.356
 677  443.7115
 678  300.1665
 679  219.6561
 680  168.9512
 681  189.9346
 682  169.1171
 683  157.1148
 684  184.1976
 685  204.1429
 686  108.619
 687  216.4707
 688  257.7772
 689  353.2565
 690  235.4678
 691  271.4074
 692  269.8321
 693  216.5043
 694  93.94664
 695  102.1481
 696  129.1741
 697  264.3666
 698  209.3833
 699  158.3217
 700  121.2949
 701  120.2112
 702  114.7249
 703  139.7438
 704  224.5196
 705  135.0515
 706  76.99342
 707  64.37588
 708  124.1745
 709  176.4536
 710  145.1554
 711  156.1403
 712  175.5064
 713  304.0965
 714  325.524
 715  279.6563
 716  269.8543
 717  215.864
 718  336.0234
 719  218.6799
 720  125.498
 721  -41.80316
 722  13.11368
 723  99.49631
 724  207.4136
 725  126.7128
 726  92.25715
 727  86.91039
 728  157.2862
 729  220.4645
 730  211.8296
 731  322.0289
 732  295.4996
 733  297.0378
 734  205.0948
 735  343.9179
 736  381.5367
 737  457.4998
 738  374.1448
 739  336.3372
 740  280.0102
 741  185.9614
 742  205.2945
 743  144.3232
 744  162.7824
 745  236.7229
 746  274.458
 747  278.4191
 748  160.3845
 749  180.2332
 750  223.7421
 751  224.0879
 752  170.8507
 753  107.8748
 754  153.9611
 755  119.4925
 756  200.0982
 757  292.079
 758  350.9475
 759  300.2385
 760  263.6127
 761  253.4831
 762  293.5559
 763  241.0084
 764  243.8394
 765  253.7965
 766  248.5443
 767  257.015
 768  225.0732
 769  219.6891
 770  151.1974
 771  81.59137
 772  119.7736
 773  289.399
 774  378.5707
 775  332.8966
 776  294.0512
 777  225.4315
 778  206.0057
 779  105.1953
 780  157.4422
 781  113.7975
 782  26.01961
 783  53.17808
 784  96.75256
 785  151.4791
 786  69.75555
 787  -19.92779
 788  -3.893591
 789  15.62651
 790  86.00468
 791  84.68039
 792  192.0025
 793  310.0925
 794  401.9935
 795  337.8808
 796  296.3653
 797  276.9035
 798  315.9752
 799  291.6586
 800  296.9565
 801  181.8536
 802  97.22622
 803  52.61383
 804  53.64676
 805  75.57109
 806  28.69387
 807  113.8757
 808  171.829
 809  293.8589
 810  351.4567
 811  301.9295
 812  234.1651
 813  182.5534
 814  155.4702
 815  113.8632
 816  38.10029
 817  98.7084
 818  185.491
 819  201.232
 820  218.2953
 821  74.73392
 822  115.0395
 823  120.8328
 824  297.6301
 825  263.5908
 826  122.7187
 827  -20.82822
 828  -3.241889
 829  43.98629
 830  29.56352
 831  98.23493
 832  48.96771
 833  61.54688
 834  8.886074
 835  24.20339
 836  46.97606
 837  130.9565
 838  109.9185
 839  187.1566
 840  160.0923
 841  176.5533
 842  138.706
 843  176.9164
 844  185.1136
 845  84.51106
 846  92.6614
 847  147.1678
 848  190.3691
 849  200.6496
 850  163.9078
 851  217.7909
 852  245.5595
 853  217.6937
 854  154.0176
 855  118.6375
 856  210.8569
 857  364.5393
 858  361.3594
 859  217.3773
 860  137.1766
 861  182.0307
 862  219.8436
 863  166.2535
 864  125.5098
 865  179.3782
 866  132.7566
 867  164.8034
 868  151.587
 869  273.8109
 870  288.0173
 871  212.3769
 872  168.803
 873  157.1534
 874  236.6151
 875  119.5434
 876  119.3931
 877  112.4449
 878  317.927
 879  259.5996
 880  270.0373
 881  161.4377
 882  194.7454
 883  86.62292
 884  123.4382
 885  195.8885
 886  344.2167
 887  338.5729
 888  236.3972
 889  50.92407
 890  -35.32645
 891  29.92719
 892  35.94711
 893  12.31074
 894  34.44931
 895  33.42434
 896  24.72075
 897  -137.1863
 898  -113.4287
 899  -18.08961
 900  255.9299
 901  316.1764
 902  294.7088
 903  133.4137
 904  76.75322
 905  133.4216
 906  75.31185
 907  115.9837
 908  143.542
 909  317.1097
 910  250.5105
 911  153.3618
 912  78.13728
 913  84.94247
 914  68.03433
 915  5.903454
 916  -8.351536
 917  -16.80605
 918  82.86486
 919  216.795
 920  200.734
 921  79.49245
 922  -1.162112
 923  82.04077
 924  102.1184
 925  83.33401
 926  237.6421
 927  366.3025
 928  404.5266
 929  348.1396
 930  319.6884
 931  315.6881
 932  176.6663
 933  100.3961
 934  71.26643
 935  147.5561
 936  173.8391
 937  207.4448
 938  162.5455
 939  196.8857
 940  195.9576
 941  288.2681
 942  230.8108
 943  204.1065
 944  55.68594
 945  -22.76195
 946  -67.58001
 947  -4.819278
 948  34.59528
 949  91.33796
 950  105.9874
 951  119.3071
 952  145.057
 953  155.8442
 954  159.9505
 955  54.05928
 956  85.58601
 957  130.4852
 958  236.6085
 959  289.8521
 960  325.8172
 961  260.0138
 962  102.1471
 963  -4.260701
 964  22.2729
 965  69.97216
 966  121.8581
 967  173.0215
 968  213.5952
 969  213.7833
 970  119.8188
 971  104.5704
 972  198.2254
 973  259.6372
 974  298.8068
 975  315.528
 976  331.9232
 977  262.7676
 978  124.3882
 979  39.46822
 980  61.24229
 981  12.47251
 982  141.5992
 983  167.2618
 984  303.3065
 985  309.4908
 986  375.997
 987  236.7634
 988  108.8072
 989  43.4865
 990  101.4521
 991  190.174
 992  208.7564
 993  207.3615
 994  193.7703
 995  166.917
 996  120.5747
 997  183.8759
 998  227.275
 999  168.0466
1000  12.57018
1001  -73.17466
1002  9.236444
1003  35.86119
1004  178.8199
1005  223.5457
1006  214.8087
1007  106.2862
1008  122.2018
1009  144.8157
1010  151.3107
1011  119.3991
1012  187.2519
1013  257.6254
1014  251.8459
1015  291.5162
1016  209.3022
1017  176.8998
1018  220.3911
1019  322.5858
1020  252.1085
1021  201.697
1022  181.0988
1023  254.1119
