# Input file       =  1186267588.110569_cleaned.dat
# Candidate        =  PSR_0332+5434
# Telescope        =  AR
# Epoch_topo       =  57973.949156372328
# Epoch_bary       =  N/A
# T_sample         =  0.002
# Data Folded      =  7208960
# Data Avg         =  0.0236932417843492
# Data StdDev      =  2.98872554099233 
# Profile Bins     =  1024
# Profile Avg      =  166.734168823404 
# Profile StdDev   =  250.76814337159  
# Reduced chi-sqr  =  0.944
# Prob(Noise)      <  0.899   (~0.0 sigma)
# P_topo (ms)      =  714.466507310013  +/- 0.00014
# P'_topo (s/s)    =  -0                +/- 7.52e-11
# P''_topo (s/s^2) =  0                 +/- 3.38e-14
# P_bary (ms)      =  N/A
# P'_bary (s/s)    =  N/A
# P''_bary (s/s^2) =  N/A
# P_orb (s)        =  N/A
# asin(i)/c (s)    =  N/A
# eccentricity     =  N/A
# w (rad)          =  N/A
# T_peri           =  N/A
######################################################
   0  219.0286
   1  343.9117
   2  501.7397
   3  479.6331
   4  425.8965
   5  318.5021
   6  224.0188
   7  127.8198
   8  99.6171
   9  38.6328
  10  49.17871
  11  61.83292
  12  197.5058
  13  191.7309
  14  248.4549
  15  213.6828
  16  164.7831
  17  40.46326
  18  85.82735
  19  123.0957
  20  155.4548
  21  107.5001
  22  212.65
  23  122.2836
  24  85.0579
  25  -19.11911
  26  102.2162
  27  196.0724
  28  363.9981
  29  332.1751
  30  165.006
  31  72.12389
  32  208.0932
  33  287.3313
  34  232.105
  35  214.5147
  36  298.3688
  37  331.9225
  38  268.6274
  39  201.486
  40  154.3767
  41  166.1071
  42  154.7451
  43  253.11
  44  271.1293
  45  195.8309
  46  256.4612
  47  288.8148
  48  348.1695
  49  228.7175
  50  166.2717
  51  169.4229
  52  150.5759
  53  95.00811
  54  126.6079
  55  165.1924
  56  221.6803
  57  107.7291
  58  236.3583
  59  322.8703
  60  324.6572
  61  259.2556
  62  291.7885
  63  398.772
  64  337.8094
  65  222.0944
  66  145.3284
  67  75.73615
  68  29.63509
  69  18.39491
  70  27.95094
  71  10.84269
  72  62.94296
  73  131.9794
  74  176.9074
  75  141.8723
  76  215.68
  77  267.7173
  78  172.9115
  79  58.58743
  80  -15.688
  81  -19.81096
  82  20.76989
  83  174.7507
  84  201.9405
  85  150.4172
  86  10.86333
  87  72.79671
  88  -69.63454
  89  -133.1399
  90  -166.2477
  91  43.75528
  92  156.9471
  93  135.6742
  94  67.97185
  95  75.856
  96  132.813
  97  123.0864
  98  -13.43463
  99  -0.5127348
 100  94.96653
 101  138.6344
 102  128.1639
 103  32.80384
 104  83.436
 105  36.47533
 106  175.2649
 107  201.6638
 108  212.1681
 109  211.4817
 110  214.2212
 111  172.8302
 112  67.3642
 113  122.3318
 114  101.1557
 115  30.71552
 116  78.85493
 117  105.336
 118  192.7561
 119  160.7617
 120  279.3363
 121  280.0539
 122  212.9973
 123  168.7254
 124  168.9514
 125  111.2398
 126  142.7647
 127  196.6364
 128  241.4874
 129  195.6964
 130  189.8344
 131  335.0078
 132  308.8303
 133  237.5733
 134  221.7372
 135  278.4966
 136  158.6191
 137  79.76591
 138  6.925622
 139  3.189103
 140  -140.3417
 141  -96.92825
 142  25.3927
 143  168.0484
 144  205.6667
 145  280.7805
 146  249.2334
 147  250.3003
 148  291.7547
 149  326.8301
 150  187.5843
 151  26.26845
 152  -127.541
 153  -174.2359
 154  -88.59375
 155  69.45419
 156  90.90277
 157  76.27361
 158  88.65688
 159  169.0166
 160  235.0616
 161  249.1377
 162  295.9826
 163  143.6861
 164  99.70716
 165  12.98567
 166  103.9249
 167  89.27122
 168  203.8832
 169  169.8703
 170  171.6452
 171  94.52335
 172  118.0144
 173  125.4557
 174  107.6901
 175  195.0111
 176  174.9476
 177  194.9689
 178  118.4202
 179  13.67767
 180  18.22738
 181  114.5043
 182  216.1443
 183  204.2354
 184  138.125
 185  195.9046
 186  177.5044
 187  146.8809
 188  78.80971
 189  114.9044
 190  94.89976
 191  41.91045
 192  17.95738
 193  40.31649
 194  -108.4263
 195  -133.299
 196  65.83035
 197  304.1562
 198  237.1514
 199  179.6704
 200  5.081616
 201  3.113435
 202  -16.85463
 203  214.9437
 204  208.2994
 205  119.5852
 206  73.77796
 207  115.6954
 208  11.8973
 209  -47.643
 210  26.66205
 211  221.2049
 212  259.592
 213  244.9745
 214  200.0098
 215  177.0193
 216  263.7114
 217  246.7133
 218  199.1555
 219  77.1516
 220  122.8056
 221  157.8437
 222  118.8287
 223  125.1727
 224  255.8029
 225  295.6233
 226  348.9554
 227  349.7558
 228  354.9369
 229  270.3934
 230  164.9527
 231  175.1541
 232  208.5069
 233  209.9338
 234  101.7211
 235  55.89473
 236  100.1691
 237  139.3255
 238  104.237
 239  130.413
 240  258.98
 241  235.0471
 242  182.0001
 243  159.1471
 244  87.36887
 245  21.20141
 246  -89.62466
 247  101.7904
 248  195.8836
 249  219.373
 250  155.6211
 251  107.983
 252  -31.44965
 253  -24.71065
 254  -34.29016
 255  51.47308
 256  11.37488
 257  35.99185
 258  105.7097
 259  180.8359
 260  163.5929
 261  276.83
 262  282.4381
 263  367.7943
 264  380.8702
 265  359.4851
 266  218.2018
 267  42.65015
 268  78.26523
 269  100.8778
 270  106.2064
 271  74.53245
 272  226.5033
 273  116.7395
 274  37.40802
 275  -36.43264
 276  71.25992
 277  36.82164
 278  -2.823391
 279  112.6238
 280  217.6175
 281  245.1582
 282  207.0391
 283  104.8651
 284  99.52432
 285  17.90399
 286  78.91644
 287  -31.26431
 288  24.99142
 289  84.68816
 290  101.3536
 291  144.9576
 292  151.0243
 293  201.396
 294  150.7671
 295  202.0784
 296  147.0599
 297  171.7269
 298  139.5946
 299  196.4746
 300  120.4854
 301  141.5427
 302  150.1485
 303  92.28421
 304  30.51809
 305  114.6064
 306  174.5668
 307  158.451
 308  117.0171
 309  99.90009
 310  5.370622
 311  -6.200798
 312  -17.13315
 313  103.2853
 314  50.29566
 315  154.973
 316  333.2352
 317  361.3941
 318  201.7209
 319  97.98372
 320  275.4216
 321  292.8369
 322  217.91
 323  75.9259
 324  54.29034
 325  60.86524
 326  139.8598
 327  140.1411
 328  110.3907
 329  89.98775
 330  236.7906
 331  274.6328
 332  308.9646
 333  248.7329
 334  208.98
 335  159.4179
 336  252.3985
 337  205.3707
 338  159.8372
 339  133.2406
 340  278.5526
 341  174.9511
 342  50.49451
 343  42.23057
 344  111.3168
 345  250.6828
 346  256.8185
 347  279.7916
 348  183.4458
 349  145.0043
 350  122.7692
 351  76.8589
 352  -60.47738
 353  -69.95098
 354  25.26306
 355  150.2551
 356  163.4727
 357  184.2786
 358  167.2595
 359  145.6533
 360  170.9935
 361  254.6452
 362  242.5271
 363  405.035
 364  433.2263
 365  476.492
 366  292.0122
 367  286.0345
 368  219.5504
 369  203.3586
 370  216.491
 371  289.2693
 372  232.7142
 373  218.6197
 374  167.6615
 375  170.0175
 376  218.8906
 377  328.6583
 378  375.7251
 379  162.2305
 380  124.5015
 381  168.6776
 382  252.2007
 383  119.0176
 384  90.58851
 385  83.13403
 386  210.4072
 387  170.3144
 388  218.39
 389  95.15171
 390  84.88783
 391  11.08668
 392  87.76753
 393  8.240792
 394  62.86776
 395  138.823
 396  354.5764
 397  275.1222
 398  252.7178
 399  190.3942
 400  203.0473
 401  92.30238
 402  167.6878
 403  197.9326
 404  264.528
 405  112.6663
 406  -33.95994
 407  -58.08821
 408  -19.95734
 409  116.037
 410  6.558587
 411  44.21534
 412  27.61843
 413  174.9785
 414  161.6616
 415  165.3476
 416  57.86385
 417  66.59521
 418  136.2553
 419  302.4557
 420  173.0137
 421  146.6895
 422  46.9698
 423  104.6341
 424  31.93195
 425  92.12076
 426  73.55907
 427  8.664528
 428  39.79906
 429  147.1379
 430  218.2357
 431  156.1835
 432  148.8194
 433  147.0128
 434  105.9686
 435  80.77993
 436  147.9725
 437  187.0266
 438  156.2083
 439  115.3604
 440  90.18526
 441  107.3574
 442  64.94542
 443  53.37433
 444  67.78889
 445  123.8297
 446  225.2474
 447  97.90226
 448  151.2011
 449  196.5837
 450  236.8507
 451  89.42025
 452  9.689097
 453  0.9467546
 454  -0.9104651
 455  48.70053
 456  188.1776
 457  276.7113
 458  228.2767
 459  211.4352
 460  282.1973
 461  278.7312
 462  91.25465
 463  17.56287
 464  45.88432
 465  81.45303
 466  167.6913
 467  300.692
 468  351.6718
 469  340.022
 470  149.1641
 471  67.21285
 472  -91.93638
 473  -61.60583
 474  -59.04484
 475  -45.01292
 476  123.8392
 477  313.9455
 478  392.8487
 479  347.5612
 480  296.7812
 481  299.0891
 482  326.14
 483  321.9815
 484  174.5296
 485  -18.86553
 486  -137.0129
 487  -77.82413
 488  -61.19035
 489  -62.56154
 490  -11.39461
 491  127.5445
 492  225.7433
 493  188.3743
 494  44.70026
 495  38.1793
 496  99.11606
 497  210.6851
 498  253.0689
 499  172.9071
 500  197.8341
 501  99.51595
 502  80.34451
 503  -23.25556
 504  -30.86345
 505  -4.77824
 506  79.42422
 507  181.0272
 508  144.6137
 509  59.33777
 510  78.98003
 511  265.8972
 512  267.4687
 513  237.9058
 514  246.5996
 515  298.0276
 516  146.0952
 517  126.2248
 518  153.7828
 519  178.7475
 520  -2.01022
 521  15.70185
 522  10.10009
 523  21.01279
 524  -125.4032
 525  49.54975
 526  134.1191
 527  285.9853
 528  295.5419
 529  272.2886
 530  218.8113
 531  158.5266
 532  90.18899
 533  41.23227
 534  138.4191
 535  273.4568
 536  279.912
 537  183.3699
 538  184.3542
 539  214.9055
 540  127.1605
 541  47.59747
 542  47.2984
 543  129.3099
 544  141.5175
 545  148.9445
 546  145.581
 547  110.3802
 548  270.5975
 549  348.5469
 550  390.8421
 551  312.2354
 552  306.2328
 553  270.3611
 554  142.0627
 555  118.663
 556  137.9616
 557  106.5246
 558  39.64312
 559  62.82013
 560  127.0815
 561  62.32153
 562  78.20618
 563  202.6661
 564  283.8219
 565  257.5065
 566  263.39
 567  239.6669
 568  242.1145
 569  256.8212
 570  256.7336
 571  218.2935
 572  128.7486
 573  202.082
 574  211.9713
 575  243.5521
 576  282.2006
 577  301.3947
 578  167.0277
 579  137.1415
 580  160.9626
 581  202.9009
 582  87.19124
 583  145.669
 584  243.5854
 585  234.6871
 586  195.936
 587  212.9112
 588  343.4008
 589  237.7649
 590  111.6359
 591  26.89293
 592  -9.333544
 593  71.32861
 594  208.8276
 595  301.4118
 596  340.5684
 597  289.6732
 598  372.8711
 599  358.4207
 600  396.8259
 601  262.2173
 602  146.745
 603  213.3312
 604  260.0459
 605  238.4091
 606  152.4985
 607  266.1364
 608  380.5642
 609  324.8383
 610  256.6325
 611  93.52068
 612  32.24313
 613  106.6352
 614  302.8481
 615  323.7454
 616  286.7839
 617  251.1025
 618  317.1618
 619  186.1628
 620  126.6565
 621  136.9951
 622  204.8465
 623  158.5652
 624  195.676
 625  208.8353
 626  157.3575
 627  181.1314
 628  192.7538
 629  193.1232
 630  157.9126
 631  260.3343
 632  303.0999
 633  128.9318
 634  36.74688
 635  156.9825
 636  264.4373
 637  271.2708
 638  221.1549
 639  293.4463
 640  401.9384
 641  524.0135
 642  725.0296
 643  781.6987
 644  859.4063
 645  834.345
 646  918.4601
 647  875.8688
 648  940.3779
 649  957.1935
 650  936.7693
 651  798.868
 652  795.6285
 653  738.7927
 654  701.5196
 655  500.6932
 656  378.2126
 657  198.9119
 658  302.2377
 659  351.8009
 660  293.5509
 661  211.3984
 662  209.3983
 663  257.7462
 664  225.9685
 665  310.8859
 666  205.5943
 667  67.71382
 668  5.813306
 669  30.86662
 670  82.19632
 671  113.7391
 672  229.0208
 673  249.7801
 674  285.6555
 675  396.3966
 676  422.4301
 677  341.7597
 678  318.5014
 679  444.169
 680  381.9038
 681  362.6253
 682  284.3482
 683  276.8679
 684  86.48033
 685  49.28172
 686  149.3755
 687  157.7842
 688  121.8431
 689  128.6042
 690  119.6572
 691  184.8502
 692  241.8118
 693  270.3936
 694  90.46988
 695  -34.15065
 696  29.7949
 697  118.9085
 698  134.4344
 699  203.7874
 700  251.2229
 701  251.3024
 702  242.339
 703  290.0422
 704  176.7728
 705  18.00264
 706  -46.4695
 707  -64.64391
 708  -29.2328
 709  4.919122
 710  96.64651
 711  46.24637
 712  117.0021
 713  306.4206
 714  455.1468
 715  368.5506
 716  339.7198
 717  338.701
 718  396.9612
 719  309.373
 720  160.3636
 721  53.50504
 722  87.41933
 723  170.8707
 724  252.6996
 725  164.6227
 726  121.1871
 727  184.174
 728  353.4576
 729  437.6016
 730  360.4081
 731  290.0972
 732  194.5189
 733  179.1899
 734  147.3218
 735  193.7522
 736  146.8342
 737  122.1781
 738  97.24957
 739  206.5016
 740  190.5565
 741  232.4698
 742  107.8662
 743  101.8182
 744  111.157
 745  170.8559
 746  196.9695
 747  245.3679
 748  292.1808
 749  237.2563
 750  137.5581
 751  84.69468
 752  144.4326
 753  125.9232
 754  188.5836
 755  302.5663
 756  268.2369
 757  172.8211
 758  -0.2537742
 759  -46.99867
 760  -99.07812
 761  -73.99689
 762  172.9567
 763  307.1726
 764  399.9554
 765  300.6554
 766  279.7867
 767  243.2278
 768  175.3334
 769  89.57104
 770  82.32757
 771  13.66602
 772  77.96337
 773  201.6392
 774  270.613
 775  166.0632
 776  94.33076
 777  104.0629
 778  144.137
 779  119.9576
 780  103.1292
 781  141.9085
 782  197.3133
 783  117.4508
 784  72.51801
 785  45.19979
 786  74.65456
 787  155.9347
 788  197.4923
 789  166.0539
 790  -1.674376
 791  83.11545
 792  124.728
 793  216.8281
 794  159.9949
 795  201.2752
 796  235.8617
 797  283.1833
 798  217.0199
 799  201.8983
 800  179.2221
 801  193.5727
 802  182.8058
 803  136.6693
 804  64.35825
 805  -22.76301
 806  22.44814
 807  97.37653
 808  119.467
 809  216.1376
 810  255.423
 811  194.12
 812  128.4767
 813  98.40099
 814  178.3271
 815  239.1859
 816  325.2626
 817  388.5824
 818  236.5626
 819  113.3282
 820  163.9562
 821  191.2486
 822  342.1301
 823  278.2416
 824  281.8511
 825  114.1618
 826  135.7905
 827  186.241
 828  245.0126
 829  266.5245
 830  202.2451
 831  110.4567
 832  20.38602
 833  -40.02678
 834  -56.17878
 835  12.3256
 836  248.3518
 837  285.6779
 838  160.9611
 839  10.87891
 840  83.2737
 841  119.8846
 842  107.6885
 843  267.1714
 844  358.4645
 845  344.1414
 846  270.77
 847  314.0654
 848  285.399
 849  95.77391
 850  45.98866
 851  112.5075
 852  159.2686
 853  17.73384
 854  35.2883
 855  -41.30743
 856  72.94962
 857  161.6181
 858  257.801
 859  140.0396
 860  139.2685
 861  96.06907
 862  139.8894
 863  12.04877
 864  122.5247
 865  133.3871
 866  221.5346
 867  135.102
 868  122.713
 869  56.28346
 870  -1.636005
 871  15.43458
 872  -19.71093
 873  43.16472
 874  161.1844
 875  177.3793
 876  246.0798
 877  244.7128
 878  308.8327
 879  229.5002
 880  76.16103
 881  26.11756
 882  11.63617
 883  65.02094
 884  191.1696
 885  257.3235
 886  167.1245
 887  87.0874
 888  79.14671
 889  147.153
 890  65.01304
 891  85.86834
 892  67.30941
 893  185.5725
 894  220.5146
 895  290.3058
 896  230.9939
 897  211.3997
 898  101.7649
 899  30.93561
 900  -55.5229
 901  25.50961
 902  95.08208
 903  236.3382
 904  293.6711
 905  282.2614
 906  155.7951
 907  185.4952
 908  252.2618
 909  239.6479
 910  168.3776
 911  203.7097
 912  268.4817
 913  116.3047
 914  -22.96355
 915  17.88796
 916  124.1903
 917  164.2033
 918  127.4937
 919  127.2183
 920  93.78411
 921  -21.73179
 922  19.52703
 923  -59.32242
 924  -125.063
 925  -112.1685
 926  52.69156
 927  66.43661
 928  56.22598
 929  -90.51155
 930  41.16098
 931  5.423281
 932  94.01854
 933  136.2821
 934  165.6646
 935  262.3522
 936  225.6661
 937  220.7497
 938  116.1675
 939  115.6337
 940  103.8543
 941  198.9032
 942  229.9289
 943  275.8793
 944  219.4486
 945  102.9239
 946  121.4139
 947  202.9895
 948  183.5222
 949  198.5245
 950  282.2218
 951  271.6903
 952  144.9151
 953  16.01734
 954  43.18585
 955  70.78289
 956  95.111
 957  220.7864
 958  233.8423
 959  242.1068
 960  56.92385
 961  -11.56142
 962  44.5028
 963  179.1465
 964  228.4194
 965  148.3046
 966  157.9306
 967  43.91184
 968  -49.28386
 969  42.31096
 970  176.1087
 971  329.3389
 972  260.6349
 973  267.7346
 974  201.6564
 975  209.7167
 976  198.7373
 977  254.1135
 978  276.2538
 979  246.1359
 980  290.5566
 981  164.1385
 982  73.01533
 983  -47.63875
 984  105.0152
 985  93.59591
 986  117.0016
 987  148.9098
 988  337.8582
 989  269.9648
 990  296.4764
 991  295.6098
 992  417.9098
 993  316.8574
 994  108.7192
 995  47.76724
 996  -53.9981
 997  5.769232
 998  -24.29544
 999  37.09573
1000  -0.6407218
1001  36.72828
1002  80.48965
1003  197.9942
1004  229.0236
1005  222.2886
1006  133.9687
1007  212.9748
1008  211.2653
1009  319.4761
1010  294.4731
1011  399.0839
1012  271.6869
1013  205.9977
1014  108.8936
1015  109.7177
1016  -17.56557
1017  -5.794126
1018  38.28039
1019  74.5756
1020  124.8389
1021  178.2117
1022  216.5262
1023  162.4045
