# Input file       =  1186784914.239803_cleaned.dat
# Candidate        =  PSR_0332+5434
# Telescope        =  AR
# Epoch_topo       =  57979.936727312539
# Epoch_bary       =  N/A
# T_sample         =  0.002
# Data Folded      =  7405568
# Data Avg         =  0.129322663440978
# Data StdDev      =  3.84074931309899 
# Profile Bins     =  1024
# Profile Avg      =  935.25492082801  
# Profile StdDev   =  326.621801827222 
# Reduced chi-sqr  =  0.538
# Prob(Noise)      <  1   (~0.0 sigma)
# P_topo (ms)      =  714.464866935116  +/- 0.00141
# P'_topo (s/s)    =  -0                +/- 7.36e-10
# P''_topo (s/s^2) =  0                 +/- 3.22e-13
# P_bary (ms)      =  N/A
# P'_bary (s/s)    =  N/A
# P''_bary (s/s^2) =  N/A
# P_orb (s)        =  N/A
# asin(i)/c (s)    =  N/A
# eccentricity     =  N/A
# w (rad)          =  N/A
# T_peri           =  N/A
######################################################
   0  860.2757
   1  949.7841
   2  969.8071
   3  981.2729
   4  949.3386
   5  953.205
   6  939.7605
   7  1013.464
   8  1138.357
   9  1214.149
  10  1019.242
  11  945.4438
  12  973.1674
  13  949.549
  14  794.1805
  15  730.5229
  16  836.8014
  17  925.6743
  18  894.7673
  19  993.406
  20  963.5253
  21  921.077
  22  852.9833
  23  944.3899
  24  954.2774
  25  974.9526
  26  1100.198
  27  1166.011
  28  1014.753
  29  928.9322
  30  944.7837
  31  943.6743
  32  878.0228
  33  954.8475
  34  1118.635
  35  1113.884
  36  1096.898
  37  1101.9
  38  1042.84
  39  1000.948
  40  1027.54
  41  1047.758
  42  946.1813
  43  1008.757
  44  1094.868
  45  971.1913
  46  780.1711
  47  754.2021
  48  870.051
  49  1033.34
  50  1104.218
  51  1133.88
  52  1040.036
  53  981.4161
  54  1098.353
  55  1078.47
  56  1093.632
  57  1006.871
  58  900.756
  59  931.5166
  60  946.1359
  61  992.5982
  62  1024.924
  63  962.4861
  64  1026.386
  65  891.3094
  66  866.8439
  67  872.6221
  68  927.2924
  69  878.8913
  70  812.4911
  71  806.7294
  72  906.6104
  73  1013.676
  74  1096.328
  75  872.642
  76  777.0408
  77  880.6711
  78  1016.778
  79  1028.343
  80  1009.288
  81  978.9095
  82  913.0402
  83  702.5607
  84  822.5093
  85  938.9843
  86  1038.222
  87  985.079
  88  873.3768
  89  768.8553
  90  838.2687
  91  924.7459
  92  980.2661
  93  808.3171
  94  795.1757
  95  837.3511
  96  826.5208
  97  837.278
  98  796.0442
  99  865.0386
 100  886.6095
 101  969.3515
 102  1117.285
 103  1131.85
 104  1092.033
 105  1055.907
 106  1020.688
 107  1024.596
 108  1052.68
 109  1135.349
 110  1125.17
 111  1088.02
 112  1048.967
 113  1022.506
 114  1031.718
 115  1030.829
 116  972.3878
 117  954.7541
 118  848.3618
 119  970.7834
 120  910.4769
 121  727.6027
 122  653.4338
 123  717.1392
 124  997.2385
 125  1068.227
 126  1092.449
 127  1113.431
 128  1143.89
 129  1097.229
 130  960.1812
 131  852.42
 132  967.2544
 133  994.5065
 134  935.8522
 135  976.3705
 136  1060.793
 137  1081.167
 138  1040.592
 139  1128.63
 140  1230.041
 141  1167.43
 142  1131.716
 143  1055.793
 144  1001.975
 145  886.0742
 146  945.4292
 147  903.8069
 148  779.9828
 149  650.5719
 150  764.8337
 151  801.3375
 152  930.6406
 153  1046.764
 154  1009.814
 155  861.2437
 156  871.3224
 157  1086.846
 158  1082.733
 159  1072.044
 160  1048.341
 161  982.4681
 162  946.8509
 163  1010.708
 164  1150.644
 165  1037.732
 166  1006.583
 167  1073.963
 168  1107.026
 169  1023.839
 170  1010.825
 171  996.0126
 172  947.4125
 173  1005.357
 174  1011.125
 175  1036.224
 176  845.5785
 177  889.3656
 178  973.7664
 179  1006.667
 180  873.3033
 181  745.961
 182  698.9156
 183  701.8441
 184  791.2213
 185  888.3893
 186  868.4097
 187  795.7595
 188  787.2974
 189  932.591
 190  1011.064
 191  1019.605
 192  965.9462
 193  943.7723
 194  1001.484
 195  945.9026
 196  846.0543
 197  735.2444
 198  855.6367
 199  923.6982
 200  1086.375
 201  1092.982
 202  928.4566
 203  738.3229
 204  740.9302
 205  956.813
 206  919.4587
 207  1064.117
 208  1115.782
 209  1148.344
 210  1008.49
 211  980.3275
 212  1036.134
 213  1006.216
 214  960.8835
 215  989.6389
 216  999.1694
 217  920.9232
 218  1040.494
 219  1066.707
 220  1055.231
 221  941.4607
 222  917.9732
 223  889.754
 224  780.6897
 225  833.0928
 226  809.9702
 227  945.0314
 228  1100.692
 229  1077.651
 230  941.2439
 231  823.1377
 232  856.1434
 233  942.5064
 234  1013.973
 235  1124.441
 236  1059.325
 237  1061.476
 238  1096.939
 239  1021.559
 240  1015.368
 241  948.1485
 242  1118.736
 243  1183.907
 244  1078.885
 245  1013.995
 246  944.1416
 247  878.8156
 248  929.8958
 249  967.7886
 250  1095.172
 251  998.1864
 252  1083.884
 253  1089.103
 254  1005.675
 255  951.794
 256  972.8483
 257  965.0036
 258  1067.81
 259  1078.736
 260  1133.954
 261  1041.297
 262  1008.099
 263  1139.773
 264  1088.65
 265  1128.927
 266  1129.855
 267  1144.855
 268  1120.155
 269  1025.996
 270  988.7804
 271  856.9948
 272  969.1246
 273  1108.782
 274  957.2096
 275  746.3053
 276  667.7307
 277  887.8127
 278  911.7911
 279  934.1273
 280  916.5312
 281  877.0414
 282  872.7663
 283  868.5922
 284  893.8183
 285  797.2686
 286  835.405
 287  907.9774
 288  806.0434
 289  667.5911
 290  731.8821
 291  838.8968
 292  919.2227
 293  994.2167
 294  1086.279
 295  1002.926
 296  949.0988
 297  945.0861
 298  1063.696
 299  1078.707
 300  1085.425
 301  1104.072
 302  1035.307
 303  1043.668
 304  932.8713
 305  996.2142
 306  1067.438
 307  1116.477
 308  1125.738
 309  1046.339
 310  966.8175
 311  879.3513
 312  802.1271
 313  904.0208
 314  935.6378
 315  881.0668
 316  836.1727
 317  842.9248
 318  880.1238
 319  887.662
 320  920.8947
 321  999.991
 322  895.4514
 323  1005.158
 324  988.4333
 325  975.3943
 326  850.4057
 327  883.1715
 328  916.2144
 329  817.6346
 330  822.2689
 331  833.0861
 332  889.8955
 333  889.3383
 334  976.6513
 335  1074.349
 336  1041.507
 337  930.194
 338  860.463
 339  784.678
 340  747.6912
 341  915.1602
 342  964.108
 343  1022.82
 344  934.7002
 345  919.9139
 346  904.027
 347  902.9437
 348  966.7352
 349  947.0095
 350  1005.17
 351  924.9948
 352  928.5892
 353  868.6721
 354  844.8924
 355  766.2177
 356  863.8232
 357  993.9911
 358  1124.588
 359  1164.768
 360  1191.573
 361  1167.189
 362  1096.678
 363  1039.914
 364  887.5014
 365  822.4775
 366  726.1714
 367  792.0344
 368  934.9662
 369  1025.371
 370  799.3773
 371  740.3829
 372  784.5744
 373  934.5468
 374  945.162
 375  949.9711
 376  958.6735
 377  869.3243
 378  832.1362
 379  800.6047
 380  730.0966
 381  802.1994
 382  902.7185
 383  997.3733
 384  928.5253
 385  882.3249
 386  957.6608
 387  775.2953
 388  651.1945
 389  734.5599
 390  932.7884
 391  914.4397
 392  758.4791
 393  697.5853
 394  652.4427
 395  739.0299
 396  917.5266
 397  1033.795
 398  981.5184
 399  983.7371
 400  941.4473
 401  851.7864
 402  703.7511
 403  681.2822
 404  798.7715
 405  792.9495
 406  802.5545
 407  779.3062
 408  814.8041
 409  780.4752
 410  835.8987
 411  854.1187
 412  721.9045
 413  626.7521
 414  564.7767
 415  597.4954
 416  733.7099
 417  885.6996
 418  971.0025
 419  937.2541
 420  988.6071
 421  998.8483
 422  1146.433
 423  1160.243
 424  980.1113
 425  767.0848
 426  654.3264
 427  678.3566
 428  663.2008
 429  775.6225
 430  805.3537
 431  894.1384
 432  793.3406
 433  829.0842
 434  826.7161
 435  845.426
 436  877.3492
 437  849.6755
 438  735.8051
 439  689.9394
 440  706.2243
 441  834.4171
 442  797.7203
 443  784.8679
 444  804.8531
 445  727.7791
 446  724.3777
 447  726.9136
 448  802.1292
 449  816.0776
 450  826.6121
 451  925.748
 452  904.8886
 453  860.5959
 454  751.9188
 455  816.3082
 456  969.7786
 457  969.5305
 458  937.5615
 459  851.4841
 460  876.3267
 461  801.5538
 462  789.356
 463  687.7593
 464  860.0507
 465  943.4621
 466  948.7557
 467  911.3867
 468  880.2153
 469  928.9615
 470  860.3075
 471  1003.367
 472  995.1301
 473  995.6947
 474  924.0735
 475  990.53
 476  898.4864
 477  816.8644
 478  850.9539
 479  914.8665
 480  857.9166
 481  803.7277
 482  875.75
 483  875.1046
 484  810.4213
 485  890.9205
 486  955.7169
 487  949.9551
 488  805.0134
 489  916.127
 490  896.6022
 491  991.2925
 492  1031.56
 493  1072.34
 494  1008.521
 495  978.2043
 496  929.0624
 497  1013.966
 498  1082.893
 499  1098.816
 500  1042.213
 501  977.9427
 502  1035.451
 503  803.3226
 504  658.9098
 505  659.4455
 506  673.5228
 507  790.6503
 508  700.4838
 509  873.0718
 510  875.4568
 511  799.959
 512  793.7548
 513  862.8018
 514  965.7552
 515  795.537
 516  882.0212
 517  817.1879
 518  793.3152
 519  763.8091
 520  821.2715
 521  840.488
 522  783.2064
 523  811.6285
 524  732.861
 525  811.6077
 526  835.7186
 527  986.9423
 528  885.3871
 529  866.5114
 530  923.1103
 531  909.8571
 532  845.2137
 533  822.506
 534  845.6231
 535  878.0583
 536  835.4769
 537  986.9249
 538  991.0922
 539  1036.443
 540  1016.355
 541  921.2933
 542  911.1177
 543  908.5359
 544  892.7723
 545  798.0583
 546  733.0161
 547  890.7874
 548  963.846
 549  966.7133
 550  889.5738
 551  825.8685
 552  817.3356
 553  795.9498
 554  946.4629
 555  985.991
 556  950.5901
 557  974.5743
 558  965.1227
 559  874.858
 560  814.4248
 561  911.4471
 562  928.5311
 563  1003.204
 564  1008.328
 565  947.0201
 566  973.0024
 567  1105.158
 568  1108.974
 569  941.2404
 570  829.9457
 571  767.368
 572  734.3836
 573  682.3394
 574  841.1743
 575  910.6125
 576  790.1599
 577  625.3987
 578  609.0954
 579  717.1389
 580  669.2489
 581  798.8432
 582  877.289
 583  936.4161
 584  870.6473
 585  834.5497
 586  692.102
 587  664.7341
 588  766.9071
 589  801.8134
 590  877.3011
 591  980.0021
 592  936.8179
 593  848.0798
 594  627.6784
 595  762.658
 596  696.7478
 597  817.8573
 598  856.3864
 599  949.9301
 600  939.2916
 601  829.3865
 602  877.0414
 603  916.9665
 604  902.7945
 605  881.1557
 606  762.4015
 607  767.0814
 608  824.6383
 609  827.6965
 610  807.4312
 611  816.3203
 612  902.126
 613  869.4464
 614  899.1861
 615  953.914
 616  1041.756
 617  1019.824
 618  978.6081
 619  882.2474
 620  825.3292
 621  882.2471
 622  968.0968
 623  901.5344
 624  702.2797
 625  655.28
 626  787.6063
 627  844.7897
 628  866.4728
 629  900.5187
 630  1068.742
 631  1084.988
 632  1074.897
 633  1044.928
 634  957.2436
 635  1128.167
 636  1249.003
 637  1275.185
 638  1194.716
 639  1255.886
 640  1266.522
 641  1181.401
 642  1238.09
 643  1352.559
 644  1420.497
 645  1497.215
 646  1625.185
 647  1643.834
 648  1563.152
 649  1493.038
 650  1516.472
 651  1420.022
 652  1308.072
 653  1160.267
 654  1075.133
 655  1046.775
 656  1056.398
 657  1068.37
 658  1024.587
 659  885.2267
 660  986.4712
 661  1013.193
 662  1063.745
 663  944.097
 664  915.3373
 665  942.6966
 666  1037.059
 667  930.4608
 668  912.4119
 669  1000.316
 670  1116.409
 671  1026.674
 672  906.9016
 673  893.9116
 674  909.2858
 675  846.8323
 676  954.983
 677  938.7581
 678  1015.649
 679  763.5968
 680  888.9414
 681  846.6547
 682  843.7847
 683  873.444
 684  882.6755
 685  807.3141
 686  762.5975
 687  882.7228
 688  1050.175
 689  1057.833
 690  1186.395
 691  1141.25
 692  992.1816
 693  851.2853
 694  872.8231
 695  987.871
 696  1001.626
 697  1093.294
 698  1027.711
 699  941.7106
 700  841.8782
 701  953.3404
 702  1022.35
 703  1058.317
 704  1021.242
 705  957.2429
 706  913.2162
 707  856.7025
 708  919.4421
 709  849.775
 710  881.4006
 711  952.4752
 712  977.4917
 713  1042.492
 714  950.5847
 715  971.3007
 716  966.0794
 717  966.437
 718  955.0207
 719  960.7839
 720  947.655
 721  923.9294
 722  864.0615
 723  935.688
 724  890.21
 725  835.3779
 726  799.8146
 727  878.2838
 728  1002.278
 729  976.6706
 730  946.0417
 731  920.9141
 732  909.0458
 733  791.2535
 734  730.9114
 735  789.4585
 736  780.701
 737  878.4379
 738  935.2126
 739  867.7145
 740  700.7944
 741  655.6847
 742  771.209
 743  777.6359
 744  751.0765
 745  809.8482
 746  912.7632
 747  959.8111
 748  855.5934
 749  936.3294
 750  934.5322
 751  927.6791
 752  745.5869
 753  670.0308
 754  691.2375
 755  785.5448
 756  982.4292
 757  873.5655
 758  868.207
 759  942.3008
 760  1069.879
 761  1080.914
 762  970.4828
 763  999.9246
 764  1022.955
 765  962.2758
 766  899.4022
 767  813.5923
 768  755.4767
 769  760.9899
 770  823.19
 771  922.991
 772  851.4061
 773  810.2673
 774  872.3995
 775  856.0764
 776  925.7955
 777  842.0684
 778  831.2626
 779  956.3332
 780  1016.229
 781  1077.417
 782  923.8283
 783  871.9562
 784  754.0659
 785  765.4188
 786  838.9607
 787  882.0046
 788  760.3517
 789  728.2165
 790  768.2341
 791  806.7366
 792  847.6657
 793  918.9247
 794  1106.897
 795  1108.709
 796  1183.517
 797  1167.343
 798  1103.076
 799  1083.844
 800  1023.08
 801  1053.404
 802  950.4611
 803  980.5598
 804  984.5786
 805  916.8125
 806  861.9428
 807  897.3978
 808  879.9928
 809  974.5816
 810  1007.827
 811  1084.421
 812  883.2126
 813  790.1963
 814  809.4448
 815  851.1385
 816  799.7589
 817  798.6285
 818  961.7819
 819  979.9321
 820  918.3619
 821  874.1654
 822  967.2672
 823  911.9406
 824  956.2341
 825  980.134
 826  1097.128
 827  1068.125
 828  1088.394
 829  1066.952
 830  1097.379
 831  1041.749
 832  911.3256
 833  802.7351
 834  880.9595
 835  1032.895
 836  1092.764
 837  972.5002
 838  922.2975
 839  1011.492
 840  945.1516
 841  876.4802
 842  892.7183
 843  961.5645
 844  951.0544
 845  869.0834
 846  844.2354
 847  865.521
 848  936.7148
 849  1024.071
 850  1099.994
 851  1164.743
 852  1152.257
 853  959.4675
 854  917.4606
 855  861.5027
 856  903.4713
 857  897.7578
 858  1014.515
 859  1077.622
 860  979.8677
 861  974.049
 862  891.058
 863  870.2565
 864  842.0266
 865  1007.472
 866  978.7114
 867  890.0522
 868  935.588
 869  1001.264
 870  938.4116
 871  750.1332
 872  728.4749
 873  821.3351
 874  821.0205
 875  927.8285
 876  1054.392
 877  1069.951
 878  938.9056
 879  924.7961
 880  817.6514
 881  684.5991
 882  666.9131
 883  893.385
 884  1068.213
 885  978.2426
 886  891.2477
 887  924.1022
 888  999.4287
 889  990.8154
 890  939.827
 891  861.9164
 892  815.1556
 893  843.9128
 894  867.2516
 895  910.3076
 896  819.5183
 897  780.2421
 898  865.748
 899  867.975
 900  931.1113
 901  904.5823
 902  1059.152
 903  1060.229
 904  956.0508
 905  879.7649
 906  959.9507
 907  949.958
 908  845.0591
 909  692.0675
 910  797.7379
 911  1001.773
 912  1141.073
 913  1122.173
 914  984.0423
 915  859.3612
 916  833.6506
 917  1029.158
 918  1091.108
 919  1153.189
 920  1196.544
 921  1160.42
 922  1096.083
 923  987.5384
 924  1022.523
 925  979.9227
 926  977.7234
 927  1130.191
 928  1094.735
 929  1049.112
 930  883.7839
 931  802.9944
 932  791.5198
 933  851.7933
 934  982.1191
 935  1011.189
 936  962.6653
 937  987.8189
 938  965.4489
 939  872.918
 940  882.8572
 941  857.3542
 942  946.4844
 943  912.7675
 944  1117.066
 945  1062.629
 946  936.6747
 947  736.6799
 948  850.2336
 949  824.6988
 950  791.7031
 951  709.3253
 952  779.8929
 953  833.2202
 954  778.3842
 955  871.9562
 956  877.625
 957  950.8487
 958  956.3132
 959  935.5627
 960  920.1852
 961  905.828
 962  997.9866
 963  1044.217
 964  942.2759
 965  965.4464
 966  989.1198
 967  1109.343
 968  1055.129
 969  996.5506
 970  1025.135
 971  1065.014
 972  993.9771
 973  822.9084
 974  618.0326
 975  691.5273
 976  751.4206
 977  905.9757
 978  937.1615
 979  953.5931
 980  885.4587
 981  923.5031
 982  948.9826
 983  950.1715
 984  924.5815
 985  1061.088
 986  1139.683
 987  1052.245
 988  989.9355
 989  938.0686
 990  951.4357
 991  983.2082
 992  972.3569
 993  970.3812
 994  961.2492
 995  1163.14
 996  1232.225
 997  1079.755
 998  1037.335
 999  1097.309
1000  1179.167
1001  1063.714
1002  1105.988
1003  1069.46
1004  1043.517
1005  1070.964
1006  1115.549
1007  1092.488
1008  1019.881
1009  1007.637
1010  989.5386
1011  947.211
1012  988.121
1013  1075.951
1014  993.4052
1015  945.2208
1016  1076.907
1017  1187.06
1018  1225.273
1019  1065.019
1020  997.3207
1021  933.7032
1022  898.6025
1023  917.0471
