# Input file       =  1186526186.116844_cleaned.dat
# Candidate        =  PSR_0332+5434
# Telescope        =  AR
# Epoch_topo       =  57976.942188852358
# Epoch_bary       =  N/A
# T_sample         =  0.002
# Data Folded      =  7143424
# Data Avg         =  0.100437191797745
# Data StdDev      =  4.23670079326361 
# Profile Bins     =  512
# Profile Avg      =  1401.24981992099 
# Profile StdDev   =  500.433100573502 
# Reduced chi-sqr  =  0.489
# Prob(Noise)      <  1   (~0.0 sigma)
# P_topo (ms)      =  714.465622374705  +/- 0.0179
# P'_topo (s/s)    =  -0                +/- 1.95e-08
# P''_topo (s/s^2) =  0                 +/- 8.79e-12
# P_bary (ms)      =  N/A
# P'_bary (s/s)    =  N/A
# P''_bary (s/s^2) =  N/A
# P_orb (s)        =  N/A
# asin(i)/c (s)    =  N/A
# eccentricity     =  N/A
# w (rad)          =  N/A
# T_peri           =  N/A
######################################################
   0  1363.276
   1  1505.872
   2  1255.977
   3  1149.574
   4  1286.297
   5  1486.257
   6  1537.093
   7  1481.584
   8  1404.853
   9  1632.048
  10  1394.125
  11  1158.385
  12  1164.998
  13  1386.126
  14  1486.194
  15  1485.346
  16  1574.316
  17  1472.579
  18  1444.24
  19  874.876
  20  1444.555
  21  1689.965
  22  1594.305
  23  1669.47
  24  1293.883
  25  1254.816
  26  1016.363
  27  1438.802
  28  1834.235
  29  1656.488
  30  1354.244
  31  1377.358
  32  1395.82
  33  1065.306
  34  1523.002
  35  1489.924
  36  1164.515
  37  1401.666
  38  1839.255
  39  1856.095
  40  1498.703
  41  1724.086
  42  1543.366
  43  1085.301
  44  1032.224
  45  1083.197
  46  1425.122
  47  1588.994
  48  1680.825
  49  1489.446
  50  1400.127
  51  1250.368
  52  1251.198
  53  1492.847
  54  1413.911
  55  1490.237
  56  1466.778
  57  1638.929
  58  2022.148
  59  2580.281
  60  2915.791
  61  2981.938
  62  2871.141
  63  2714.156
  64  2274.176
  65  1955.921
  66  1494.704
  67  1395.55
  68  1614.263
  69  1498.639
  70  1117.355
  71  1287.993
  72  1380.176
  73  1675.307
  74  1480.281
  75  1264.101
  76  1496.1
  77  1276.588
  78  1405.894
  79  1417.784
  80  1388.466
  81  1263.15
  82  1210.142
  83  1697.039
  84  1416.703
  85  1389.379
  86  1397.53
  87  1433.865
  88  1516.995
  89  945.4099
  90  1267.873
  91  1252.53
  92  1392.151
  93  1118.3
  94  1383.176
  95  1174.459
  96  1183.481
  97  1658.048
  98  1405.031
  99  1179.329
 100  968.325
 101  1084.63
 102  1273.042
 103  1305.332
 104  1485.684
 105  1758.947
 106  1408.392
 107  1340.305
 108  1203.712
 109  1399.715
 110  1468.092
 111  1041.007
 112  1266.104
 113  1556.856
 114  1419.012
 115  1306.348
 116  1542.444
 117  1263.655
 118  1210.537
 119  1084.489
 120  1224.535
 121  1479.319
 122  1251.018
 123  1643.99
 124  1624.654
 125  1514.16
 126  1353.845
 127  1330.855
 128  1352.096
 129  983.335
 130  1095.746
 131  1450.076
 132  1384.257
 133  1167.546
 134  1166.757
 135  1136.801
 136  1216.257
 137  1372.987
 138  1501.098
 139  1515.296
 140  1339.276
 141  1234.538
 142  1308.382
 143  1501.652
 144  1372.386
 145  1007.828
 146  1159.329
 147  1010.015
 148  1506.974
 149  1544.803
 150  1270.297
 151  1060.457
 152  1437.119
 153  1390.757
 154  1317.97
 155  1645.634
 156  1647.484
 157  1466.619
 158  1459.209
 159  1425.468
 160  1125.831
 161  1203.017
 162  1276.501
 163  1134.746
 164  1548.287
 165  1489.728
 166  1281.385
 167  1133.001
 168  1316.742
 169  1500.807
 170  1423.98
 171  1752.813
 172  1676.332
 173  1520.571
 174  1521.245
 175  1296.387
 176  1146.101
 177  1040.536
 178  1504.152
 179  1701.428
 180  1480.504
 181  1061.591
 182  1291.026
 183  1281.264
 184  1076.593
 185  1640.15
 186  1771.524
 187  1554.672
 188  1223.7
 189  1596.944
 190  1492.949
 191  1123.145
 192  1430.309
 193  1198.741
 194  1455.696
 195  1207.662
 196  962.6911
 197  1202.26
 198  1608.711
 199  1335.533
 200  1194.276
 201  1346.834
 202  1157.261
 203  1279.131
 204  1224.933
 205  1191.296
 206  1300.443
 207  1415.108
 208  1752.903
 209  1745.859
 210  1363.146
 211  1126.283
 212  1380.348
 213  1358.361
 214  1434.205
 215  1673.268
 216  1655.521
 217  1229.379
 218  1089.491
 219  1446.786
 220  1430.646
 221  1276.371
 222  1411.191
 223  1638.548
 224  1852.091
 225  1663.524
 226  1264.226
 227  1614.339
 228  1193.191
 229  1130.43
 230  1694.605
 231  1647.468
 232  1643.671
 233  1709.077
 234  1541.929
 235  1399.142
 236  1399.455
 237  1338.54
 238  1288.69
 239  1410.895
 240  1388.41
 241  1370.098
 242  1490.314
 243  1564.226
 244  1362.406
 245  1692.585
 246  1078.719
 247  850.9246
 248  1243.226
 249  1096.781
 250  1122.429
 251  1261.044
 252  1737.939
 253  1242.04
 254  1209.557
 255  1346.037
 256  1147.074
 257  1406.374
 258  1425.387
 259  1499.459
 260  1154.927
 261  1199.944
 262  844.9145
 263  1296.766
 264  1204.418
 265  1157.746
 266  1235.129
 267  1349.941
 268  1612.599
 269  1557.736
 270  1243.445
 271  1123.861
 272  1370.119
 273  1424.538
 274  1572.981
 275  1340.223
 276  1501.951
 277  1531.201
 278  1363.469
 279  1183.874
 280  1139.391
 281  1717.054
 282  1693.606
 283  1386.35
 284  1389.558
 285  1390.431
 286  1703.708
 287  1662.128
 288  1531.186
 289  1734.27
 290  1712.052
 291  1265.855
 292  1425.995
 293  1665.645
 294  1686.149
 295  1393.515
 296  1533.604
 297  1503.767
 298  1471.305
 299  1386.078
 300  1336.456
 301  1388.423
 302  1459.435
 303  1475.111
 304  1397.37
 305  1662.462
 306  1402.468
 307  1662.867
 308  1602.823
 309  1318.466
 310  1422.091
 311  1541.051
 312  1779.466
 313  1432.358
 314  1390.442
 315  1216.423
 316  1219.465
 317  1381.622
 318  1468.697
 319  1657.564
 320  1214.052
 321  935.471
 322  1220.133
 323  1320.644
 324  1515.259
 325  1426.745
 326  1242.004
 327  1258.631
 328  1193.341
 329  1262.681
 330  1186.207
 331  1372.301
 332  1379.477
 333  1401.21
 334  1498.014
 335  1129.539
 336  1008.91
 337  972.045
 338  1076.751
 339  1332.504
 340  1794.458
 341  1744.172
 342  1166.315
 343  1400.682
 344  1381.126
 345  1147.506
 346  1300.624
 347  1270.565
 348  1556.257
 349  1281.812
 350  1418.616
 351  1495.371
 352  1445.564
 353  1470.7
 354  927.3507
 355  1326.45
 356  1795.083
 357  1391.963
 358  1047.608
 359  1523.996
 360  1669.335
 361  1361.458
 362  1225.985
 363  1475.954
 364  1522.573
 365  1571.601
 366  1541.861
 367  1430.844
 368  1385.68
 369  1505.062
 370  1744.546
 371  1688.33
 372  1817.028
 373  1077.771
 374  1309.997
 375  1212.41
 376  1222.495
 377  1426.286
 378  1482.908
 379  1414.928
 380  1275.493
 381  1594.735
 382  1269.322
 383  1407.455
 384  1565.54
 385  1399.587
 386  1692.775
 387  1270.542
 388  1266.284
 389  1444.777
 390  1502.16
 391  1004.518
 392  1238.88
 393  1127.208
 394  1066.297
 395  1318.508
 396  1476.139
 397  1501.933
 398  1271.048
 399  1396.668
 400  1550.195
 401  1593.252
 402  1151.515
 403  1209.194
 404  1208.029
 405  1447.227
 406  1409.713
 407  1276.068
 408  1254.168
 409  876.6965
 410  1047.209
 411  1228.306
 412  1368.527
 413  1584.348
 414  1622.15
 415  1723.111
 416  1482.658
 417  1215.838
 418  1318.471
 419  1336.259
 420  1236.549
 421  1361.763
 422  1270.645
 423  1503.2
 424  1669.764
 425  1530.733
 426  1376.903
 427  1103.604
 428  1083.447
 429  1418.481
 430  1386.978
 431  1013.471
 432  1375.877
 433  1261.673
 434  1487.763
 435  1315.736
 436  1178.53
 437  1590.045
 438  1580.409
 439  1399.855
 440  1295.52
 441  1384.618
 442  1411.504
 443  1413.432
 444  1511.944
 445  1761.074
 446  1812.712
 447  1438.304
 448  1344.236
 449  1085.821
 450  1218.609
 451  1506.755
 452  1534.864
 453  1740.653
 454  1502.2
 455  1752.724
 456  1650.561
 457  1325.411
 458  1376.498
 459  1290.85
 460  1336.095
 461  1651.995
 462  1675.966
 463  1731.86
 464  1811.601
 465  1645.36
 466  1737.961
 467  1494.016
 468  1300.276
 469  1311.869
 470  1328.498
 471  1124.661
 472  1065.551
 473  767.7964
 474  953.1401
 475  1058.066
 476  1087.232
 477  1408.054
 478  1480.578
 479  1288.319
 480  1319.536
 481  1572.049
 482  1250.361
 483  984.4489
 484  1321.509
 485  1425.173
 486  1589.354
 487  1496.323
 488  1613.312
 489  1190.51
 490  1169.584
 491  1578.082
 492  1718.931
 493  1142.082
 494  1143.579
 495  1442.287
 496  1835.799
 497  1624.396
 498  1285.396
 499  1219.592
 500  1093.701
 501  1135.37
 502  1350.737
 503  1315.565
 504  1131.474
 505  1260.112
 506  1619.915
 507  1838.65
 508  1532.269
 509  1001.656
 510  1416.937
 511  1722.447
