# Input file       =  1186540742.11421_cleaned.dat
# Candidate        =  PSR_0332+5434
# Telescope        =  AR
# Epoch_topo       =  57977.110661044098
# Epoch_bary       =  N/A
# T_sample         =  0.002
# Data Folded      =  7340032
# Data Avg         =  0.0282398727587341
# Data StdDev      =  2.33428474920699 
# Profile Bins     =  1024
# Profile Avg      =  202.501962460438 
# Profile StdDev   =  197.629981939599 
# Reduced chi-sqr  =  1.987
# Prob(Noise)      <  3.25e-69   (~17.5 sigma)
# P_topo (ms)      =  714.465590902232  +/- 0.000228
# P'_topo (s/s)    =  -0                +/- 1.2e-10
# P''_topo (s/s^2) =  0                 +/- 5.3e-14
# P_bary (ms)      =  N/A
# P'_bary (s/s)    =  N/A
# P''_bary (s/s^2) =  N/A
# P_orb (s)        =  N/A
# asin(i)/c (s)    =  N/A
# eccentricity     =  N/A
# w (rad)          =  N/A
# T_peri           =  N/A
######################################################
   0  52.83295
   1  88.71082
   2  75.17091
   3  193.883
   4  203.2033
   5  236.3447
   6  218.4221
   7  273.6012
   8  155.9213
   9  99.60343
  10  70.11407
  11  24.10968
  12  -42.46535
  13  -35.36061
  14  61.61641
  15  179.1624
  16  123.5117
  17  65.20722
  18  117.0847
  19  190.74
  20  222.2793
  21  167.6235
  22  197.5405
  23  201.1135
  24  72.52287
  25  55.51452
  26  -2.229755
  27  45.90533
  28  -63.76084
  29  -25.83922
  30  -84.57521
  31  5.349137
  32  -22.38713
  33  94.60092
  34  129.3905
  35  113.8723
  36  -12.30799
  37  -59.56489
  38  52.69709
  39  89.16987
  40  4.839285
  41  -86.30056
  42  2.499727
  43  49.39515
  44  67.88158
  45  41.02754
  46  105.7854
  47  -14.75105
  48  15.09125
  49  5.767759
  50  60.18874
  51  54.11934
  52  134.5422
  53  184.6646
  54  45.99479
  55  -39.15619
  56  17.48568
  57  112.6585
  58  162.399
  59  -5.997461
  60  -75.1177
  61  -153.5351
  62  34.04744
  63  113.6048
  64  168.362
  65  131.3398
  66  -4.661747
  67  -60.72169
  68  -16.96862
  69  21.36446
  70  53.47247
  71  19.20144
  72  61.13226
  73  60.28244
  74  31.80981
  75  31.33043
  76  23.86008
  77  111.6196
  78  43.1424
  79  -34.28807
  80  -113.7582
  81  -63.08619
  82  39.7613
  83  41.29256
  84  -58.34162
  85  -194.0651
  86  -287.3557
  87  -130.1304
  88  113.2803
  89  253.6398
  90  248.4942
  91  147.1735
  92  165.228
  93  71.46712
  94  34.63522
  95  49.72626
  96  164.0334
  97  122.5488
  98  33.69961
  99  -95.36266
 100  -11.3876
 101  49.19766
 102  140.8376
 103  156.0357
 104  44.93199
 105  67.35474
 106  96.27905
 107  214.1193
 108  120.7951
 109  55.91822
 110  84.26027
 111  148.1809
 112  134.7214
 113  73.77354
 114  216.2609
 115  141.2919
 116  1.665295
 117  -121.4896
 118  -18.56388
 119  78.99281
 120  57.09905
 121  16.29223
 122  19.12125
 123  99.9141
 124  175.4872
 125  199.2196
 126  190.2941
 127  151.5049
 128  286.2232
 129  364.302
 130  471.8167
 131  427.1947
 132  410.7491
 133  342.7965
 134  239.5896
 135  158.995
 136  179.8155
 137  205.7265
 138  173.0775
 139  97.21255
 140  -69.77863
 141  -15.42605
 142  65.1039
 143  206.7129
 144  242.5658
 145  193.6844
 146  181.7718
 147  57.66775
 148  82.12257
 149  124.2007
 150  124.2383
 151  162.8252
 152  145.8123
 153  201.8073
 154  112.2315
 155  142.0478
 156  180.6666
 157  212.4163
 158  210.6842
 159  252.4578
 160  304.2292
 161  228.4491
 162  204.769
 163  43.57644
 164  94.55283
 165  105.427
 166  145.3573
 167  47.87782
 168  31.24797
 169  50.4746
 170  25.76881
 171  -8.690265
 172  -47.65141
 173  -64.60862
 174  -2.390029
 175  95.60599
 176  131.0231
 177  77.83856
 178  84.27919
 179  97.50948
 180  199.211
 181  226.1111
 182  245.0661
 183  130.9112
 184  89.61783
 185  122.7092
 186  215.8775
 187  167.5862
 188  73.53906
 189  66.11558
 190  95.54245
 191  170.6573
 192  91.52068
 193  117.6326
 194  70.12994
 195  6.014466
 196  -38.438
 197  61.39881
 198  72.29458
 199  63.54226
 200  96.7876
 201  200.905
 202  171.1484
 203  91.8158
 204  10.54872
 205  31.45267
 206  -27.42976
 207  66.22524
 208  182.8461
 209  346.0254
 210  249.0284
 211  230.5839
 212  141.0676
 213  183.7132
 214  98.53276
 215  149.4386
 216  85.06196
 217  66.95174
 218  44.92224
 219  97.00002
 220  162.8428
 221  168.6276
 222  114.8935
 223  -3.747514
 224  -31.89399
 225  -60.16673
 226  90.86147
 227  117.941
 228  203.1261
 229  173.135
 230  281.2823
 231  318.4428
 232  207.0629
 233  82.19985
 234  30.44888
 235  169.0479
 236  187.0108
 237  152.0614
 238  62.8257
 239  -17.14841
 240  0.2177878
 241  47.0663
 242  175.6081
 243  269.0255
 244  289.4925
 245  296.0432
 246  254.8969
 247  160.5895
 248  -6.034533
 249  -38.17825
 250  69.51705
 251  143.882
 252  157.6348
 253  84.41228
 254  164.2963
 255  193.2214
 256  219.3648
 257  195.6268
 258  170.972
 259  231.9556
 260  219.738
 261  214.315
 262  117.8811
 263  97.6336
 264  87.42886
 265  107.9412
 266  56.08927
 267  62.24927
 268  131.0466
 269  230.8226
 270  265.8917
 271  267.1247
 272  191.3564
 273  106.0947
 274  59.33324
 275  92.2533
 276  208.4969
 277  204.3725
 278  182.9355
 279  107.0122
 280  192.6813
 281  210.9147
 282  252.4324
 283  175.6657
 284  242.6841
 285  237.9078
 286  268.4006
 287  244.6083
 288  219.5324
 289  215.6328
 290  171.4976
 291  168.7639
 292  141.0747
 293  128.174
 294  61.99126
 295  20.06121
 296  124.1419
 297  216.4329
 298  198.0589
 299  77.51057
 300  -37.81104
 301  -65.26347
 302  -34.08379
 303  37.38247
 304  4.934453
 305  13.41183
 306  36.32918
 307  244.8504
 308  260.5435
 309  243.5467
 310  217.692
 311  331.1574
 312  295.4983
 313  234.3088
 314  182.2441
 315  233.8404
 316  168.4163
 317  200.9842
 318  167.7489
 319  219.6928
 320  133.4374
 321  160.7385
 322  151.193
 323  258.337
 324  203.8474
 325  234.045
 326  223.5055
 327  307.9321
 328  184.7416
 329  -43.99304
 330  -77.40794
 331  33.33844
 332  213.3704
 333  110.4052
 334  129.2733
 335  151.0204
 336  302.2149
 337  258.8122
 338  195.2219
 339  208.2531
 340  150.3105
 341  83.88669
 342  -28.81987
 343  71.33472
 344  159.4672
 345  310.0664
 346  283.9659
 347  266.4423
 348  96.25211
 349  142.7466
 350  154.9273
 351  179.8093
 352  86.25709
 353  13.35701
 354  89.38339
 355  27.16071
 356  55.4245
 357  77.4053
 358  55.4334
 359  -13.4867
 360  -14.93035
 361  28.94241
 362  57.74541
 363  54.46475
 364  147.3933
 365  305.8971
 366  321.5634
 367  231.6559
 368  107.6844
 369  149.9058
 370  105.5282
 371  33.63731
 372  8.272514
 373  60.05954
 374  22.00639
 375  25.32033
 376  82.24777
 377  86.58701
 378  61.8562
 379  50.83903
 380  99.42408
 381  241.0468
 382  274.6802
 383  290.7874
 384  295.2852
 385  272.9735
 386  255.1249
 387  218.8645
 388  232.5975
 389  189.6458
 390  119.1114
 391  70.60886
 392  81.59806
 393  85.45466
 394  89.33296
 395  82.85309
 396  110.5114
 397  177.5316
 398  231.6293
 399  321.7673
 400  355.5782
 401  383.3183
 402  368.3104
 403  291.3657
 404  280.1142
 405  175.8369
 406  107.395
 407  44.54456
 408  147.1979
 409  266.2237
 410  347.5623
 411  283.5305
 412  238.7698
 413  246.7888
 414  327.282
 415  339.0138
 416  239.0371
 417  226.4576
 418  254.2395
 419  296.1494
 420  308.1104
 421  434.5916
 422  423.9645
 423  355.0177
 424  213.128
 425  127.1083
 426  167.2518
 427  302.8823
 428  468.9608
 429  501.3771
 430  375.8558
 431  324.3098
 432  233.5168
 433  111.8497
 434  35.71563
 435  77.39574
 436  255.6104
 437  235.6629
 438  116.6632
 439  5.474898
 440  169.2022
 441  311.9264
 442  288.5419
 443  152.4752
 444  155.306
 445  252.411
 446  348.8633
 447  456.8015
 448  402.0392
 449  312.6002
 450  210.1229
 451  228.0345
 452  201.1373
 453  203.4971
 454  243.828
 455  248.0137
 456  341.9865
 457  339.5426
 458  400.7217
 459  271.2259
 460  256.0897
 461  232.0899
 462  210.4653
 463  177.8721
 464  250.4858
 465  350.5355
 466  341.1471
 467  293.0362
 468  233.5069
 469  212.6798
 470  205.916
 471  316.1826
 472  399.8915
 473  281.9238
 474  200.6978
 475  151.3127
 476  200.1334
 477  199.8772
 478  192.5723
 479  204.6633
 480  174.1593
 481  196.6318
 482  209.5359
 483  239.3586
 484  222.5476
 485  329.0308
 486  424.1311
 487  414.4139
 488  316.2883
 489  219.5702
 490  158.6046
 491  131.9461
 492  99.02292
 493  182.1172
 494  171.5509
 495  230.1501
 496  212.1327
 497  228.9976
 498  261.3478
 499  257.9372
 500  235.9863
 501  240.0643
 502  252.335
 503  87.95895
 504  125.5311
 505  161.25
 506  324.6855
 507  333.2611
 508  355.4916
 509  250.543
 510  107.8667
 511  -2.743142
 512  99.99593
 513  37.28531
 514  106.3198
 515  30.85373
 516  35.06342
 517  19.25915
 518  40.32161
 519  44.37886
 520  70.175
 521  202.4675
 522  279.9934
 523  266.1546
 524  125.8842
 525  86.28025
 526  249.9004
 527  399.485
 528  380.7304
 529  273.9306
 530  132.4336
 531  56.02283
 532  35.94653
 533  182.809
 534  138.7952
 535  77.34896
 536  -29.18275
 537  85.75661
 538  117.1269
 539  142.1341
 540  125.6557
 541  119.6974
 542  42.78965
 543  134.8956
 544  218.2303
 545  279.202
 546  111.0609
 547  91.44131
 548  63.09119
 549  82.67214
 550  102.6078
 551  146.4825
 552  260.9147
 553  259.5896
 554  248.1632
 555  138.4883
 556  167.6794
 557  252.4118
 558  183.5038
 559  160.8406
 560  57.67805
 561  165.1462
 562  244.9017
 563  338.3047
 564  370.2896
 565  358.0704
 566  280.2779
 567  124.5846
 568  22.11109
 569  -17.74495
 570  84.16205
 571  238.7039
 572  313.0051
 573  106.8396
 574  -35.02395
 575  63.30622
 576  319.7639
 577  407.8906
 578  359.5083
 579  288.0019
 580  279.5343
 581  225.5393
 582  200.2827
 583  74.17371
 584  32.50418
 585  65.19656
 586  205.0982
 587  255.451
 588  230.9772
 589  175.4036
 590  274.279
 591  238.0405
 592  294.413
 593  296.7273
 594  385.6502
 595  317.8185
 596  278.6467
 597  173.6402
 598  220.6423
 599  301.5712
 600  321.9799
 601  303.529
 602  261.232
 603  349.972
 604  330.1717
 605  317.0515
 606  414.6457
 607  428.893
 608  316.1591
 609  282.2804
 610  367.9704
 611  403.3278
 612  356.8993
 613  415.6175
 614  461.545
 615  408.0446
 616  388.2492
 617  355.056
 618  343.4991
 619  229.3968
 620  267.4084
 621  366.9382
 622  459.4281
 623  310.8484
 624  121.1227
 625  149.4139
 626  265.159
 627  423.5298
 628  386.1203
 629  474.3316
 630  464.093
 631  530.181
 632  336.9174
 633  280.3027
 634  265.6416
 635  491.4278
 636  555.9317
 637  528.9449
 638  516.6772
 639  578.5438
 640  571.085
 641  557.9443
 642  658.8146
 643  863.764
 644  949.1815
 645  995.6607
 646  1003.838
 647  1062.65
 648  1059.572
 649  1102.808
 650  1189.116
 651  1076.959
 652  823.6771
 653  646.808
 654  561.0223
 655  454.1764
 656  264.2166
 657  227.5083
 658  370.5807
 659  463.5767
 660  461.7824
 661  349.2603
 662  329.7042
 663  207.7116
 664  137.9428
 665  53.90599
 666  102.9263
 667  57.80208
 668  72.57803
 669  175.1705
 670  214.5639
 671  236.924
 672  334.7312
 673  403.3483
 674  374.6939
 675  335.4297
 676  351.9523
 677  244.3957
 678  255.6437
 679  285.0146
 680  364.0475
 681  374.6825
 682  367.4506
 683  357.3833
 684  300.5777
 685  262.833
 686  338.5227
 687  412.4189
 688  567.45
 689  419.4274
 690  322.7739
 691  115.1667
 692  101.9811
 693  47.45567
 694  62.81215
 695  124.7025
 696  218.8571
 697  292.6552
 698  211.9493
 699  224.3332
 700  341.8952
 701  491.8088
 702  478.9262
 703  337.4227
 704  323.5974
 705  256.0865
 706  266.4639
 707  192.6729
 708  190.965
 709  241.5932
 710  292.035
 711  358.8822
 712  432.9101
 713  506.7908
 714  481.8178
 715  346.1255
 716  201.6258
 717  199.8738
 718  229.7312
 719  275.4494
 720  289.9169
 721  362.7737
 722  381.0674
 723  392.6049
 724  331.2256
 725  296.9484
 726  246.2791
 727  309.0515
 728  350.4656
 729  364.0642
 730  259.4397
 731  226.0172
 732  212.4334
 733  227.0455
 734  156.1976
 735  183.5235
 736  220.1083
 737  336.621
 738  296.9679
 739  361.0623
 740  414.1093
 741  493.3629
 742  409.5085
 743  251.6126
 744  122.0807
 745  172.1105
 746  156.509
 747  65.20985
 748  96.57755
 749  122.764
 750  254.5562
 751  164.6816
 752  324.7606
 753  390.5144
 754  481.5583
 755  337.0379
 756  265.0581
 757  220.2212
 758  201.8125
 759  169.4951
 760  266.9922
 761  303.7838
 762  353.3538
 763  207.5201
 764  174.3042
 765  97.69286
 766  258.2333
 767  381.9773
 768  431.6885
 769  407.0478
 770  377.7006
 771  369.0899
 772  276.1339
 773  246.2684
 774  265.0029
 775  235.1258
 776  253.5952
 777  138.1132
 778  224.8593
 779  293.4759
 780  385.8853
 781  306.2301
 782  240.1163
 783  229.7557
 784  264.4051
 785  286.8346
 786  330.0675
 787  365.7715
 788  376.1299
 789  289.4003
 790  309.563
 791  315.202
 792  244.7081
 793  111.3837
 794  93.91337
 795  86.00714
 796  184.4338
 797  171.7934
 798  254.1329
 799  215.6992
 800  252.8184
 801  172.2574
 802  242.4569
 803  302.8223
 804  367.8358
 805  268.3336
 806  240.1922
 807  256.1044
 808  342.3194
 809  310.3765
 810  250.0165
 811  166.7516
 812  192.9182
 813  332.1825
 814  290.8943
 815  273.5522
 816  208.7597
 817  319.503
 818  350.7154
 819  361.1488
 820  306.7376
 821  256.6323
 822  234.6624
 823  234.9169
 824  223.0977
 825  218.5929
 826  293.1171
 827  386.4164
 828  376.7824
 829  295.9081
 830  232.9675
 831  195.9189
 832  222.2889
 833  249.5128
 834  277.4234
 835  222.2829
 836  179.3799
 837  186.8336
 838  328.9295
 839  356.78
 840  456.0068
 841  393.3711
 842  342.7867
 843  241.212
 844  324.657
 845  408.3262
 846  508.9572
 847  536.0634
 848  463.6275
 849  357.5464
 850  294.0181
 851  257.3991
 852  221.2933
 853  248.9538
 854  341.8347
 855  290.1346
 856  229.5242
 857  161.4242
 858  194.9858
 859  236.9842
 860  289.0334
 861  264.6027
 862  192.8276
 863  59.32186
 864  76.66233
 865  109.8586
 866  278.9917
 867  295.1566
 868  354.3066
 869  418.062
 870  464.3679
 871  421.5972
 872  355.0668
 873  388.0228
 874  382.093
 875  395.5152
 876  405.4788
 877  444.3014
 878  445.1565
 879  375.1739
 880  452.3177
 881  411.4055
 882  489.3752
 883  339.6857
 884  291.285
 885  189.2614
 886  216.4797
 887  192.2429
 888  260.4775
 889  296.0819
 890  331.984
 891  283.1533
 892  259.3054
 893  241.8017
 894  239.5582
 895  250.1655
 896  339.3859
 897  402.1015
 898  391.7843
 899  213.9469
 900  213.9581
 901  194.3285
 902  239.5335
 903  218.622
 904  185.5284
 905  145.7823
 906  140.9161
 907  119.8866
 908  73.6123
 909  -37.45379
 910  63.29108
 911  164.5733
 912  246.1496
 913  186.2823
 914  223.8339
 915  253.2879
 916  231.8083
 917  205.4025
 918  322.7655
 919  398.9773
 920  310.3728
 921  224.6869
 922  209.0647
 923  221.6201
 924  168.507
 925  179.2957
 926  271.5782
 927  342.7379
 928  290.1823
 929  203.1155
 930  194.7813
 931  157.1037
 932  198.8649
 933  236.1604
 934  281.9973
 935  172.7029
 936  123.7241
 937  92.19189
 938  222.9236
 939  296.6403
 940  385.2797
 941  278.8955
 942  146.4887
 943  65.05991
 944  49.72389
 945  148.4177
 946  176.3673
 947  271.2776
 948  328.4588
 949  293.2365
 950  233.6013
 951  178.9229
 952  224.2771
 953  247.7261
 954  128.5342
 955  71.3243
 956  63.06388
 957  100.4158
 958  154.4029
 959  157.2855
 960  160.614
 961  121.7138
 962  90.88819
 963  116.6705
 964  115.2737
 965  122.136
 966  15.72688
 967  -7.384528
 968  -40.29402
 969  31.55066
 970  23.04524
 971  99.24253
 972  159.5878
 973  106.3761
 974  131.1721
 975  125.3696
 976  173.764
 977  59.22339
 978  92.06495
 979  143.7716
 980  200.3125
 981  165.5378
 982  137.9145
 983  164.711
 984  192.6311
 985  188.3452
 986  156.2593
 987  13.32073
 988  24.43789
 989  61.6003
 990  176.9636
 991  152.4275
 992  143.7531
 993  140.103
 994  166.6421
 995  123.1108
 996  22.55239
 997  51.6153
 998  81.64226
 999  74.08232
1000  12.21562
1001  -13.31187
1002  96.31837
1003  127.6982
1004  209.8615
1005  234.744
1006  198.2473
1007  119.52
1008  12.70337
1009  -9.898071
1010  -63.79417
1011  39.08078
1012  206.8096
1013  312.8205
1014  298.325
1015  247.2109
1016  253.3154
1017  215.1581
1018  185.6463
1019  125.4641
1020  58.36533
1021  -11.49999
1022  -47.77414
1023  8.53291
