# Input file       =  1186095281.118897_cleaned.dat
# Candidate        =  PSR_0332+5434
# Telescope        =  AR
# Epoch_topo       =  57971.954862487233
# Epoch_bary       =  N/A
# T_sample         =  0.002
# Data Folded      =  7208960
# Data Avg         =  0.196637840734117
# Data StdDev      =  5.46498876426775 
# Profile Bins     =  1024
# Profile Avg      =  1384.31208617847 
# Profile StdDev   =  458.538285689158 
# Reduced chi-sqr  =  0.455
# Prob(Noise)      <  1   (~0.0 sigma)
# P_topo (ms)      =  714.467167244483  +/- 4e-05
# P'_topo (s/s)    =  -0                +/- 2.15e-11
# P''_topo (s/s^2) =  0                 +/- 9.65e-15
# P_bary (ms)      =  N/A
# P'_bary (s/s)    =  N/A
# P''_bary (s/s^2) =  N/A
# P_orb (s)        =  N/A
# asin(i)/c (s)    =  N/A
# eccentricity     =  N/A
# w (rad)          =  N/A
# T_peri           =  N/A
######################################################
   0  1275.014
   1  1415.369
   2  1268.008
   3  1095.856
   4  1265.677
   5  1464.389
   6  1544.985
   7  1550.898
   8  1723.492
   9  1651.615
  10  1441.885
  11  1420.855
  12  1362.371
  13  1187.941
  14  1184.983
  15  1254.62
  16  1249.773
  17  1146.362
  18  1274.659
  19  1291.659
  20  1131.211
  21  1198.308
  22  1300.185
  23  1434.288
  24  1475.083
  25  1684.239
  26  1594.789
  27  1460.396
  28  1399.659
  29  1598.646
  30  1542.11
  31  1401.577
  32  1376.7
  33  1319.91
  34  1238.527
  35  1249.728
  36  1496.8
  37  1478.54
  38  1396.581
  39  1231.959
  40  1152.119
  41  1139.197
  42  1412.211
  43  1572.128
  44  1419.171
  45  1460.092
  46  1346.436
  47  1251.309
  48  1192.413
  49  1341.622
  50  1362.292
  51  1168.861
  52  1171.595
  53  1148.072
  54  1198.751
  55  1338.049
  56  1530.814
  57  1390.427
  58  1243.718
  59  1312.059
  60  1437.359
  61  1358.893
  62  1351.984
  63  1311.841
  64  1261.106
  65  1230.118
  66  1429.121
  67  1417.83
  68  1355.479
  69  1355.781
  70  1600.905
  71  1493.642
  72  1578.833
  73  1675.217
  74  1708.031
  75  1422.294
  76  1455.931
  77  1532.265
  78  1361.208
  79  1367.172
  80  1458.412
  81  1443.256
  82  1149.589
  83  1274.658
  84  1309.302
  85  1365.823
  86  1255.465
  87  1402.79
  88  1312.756
  89  1401.464
  90  1625.933
  91  1824.913
  92  1595.529
  93  1431.878
  94  1341.216
  95  1380.493
  96  1142.268
  97  1059.403
  98  1039.693
  99  1066.221
 100  1123.742
 101  1217.317
 102  1334.714
 103  1450.9
 104  1565.857
 105  1499.921
 106  1439.117
 107  1467.74
 108  1516.914
 109  1419.774
 110  1386.129
 111  1374.381
 112  1341.547
 113  1502.075
 114  1701.35
 115  1533.944
 116  1385.778
 117  1369.365
 118  1381.025
 119  1288.492
 120  1335.428
 121  1522.319
 122  1507.718
 123  1508.825
 124  1535.517
 125  1459.674
 126  1183.309
 127  1215.846
 128  1342.267
 129  1423.735
 130  1464.757
 131  1631.357
 132  1573.387
 133  1390.426
 134  1213.794
 135  1386.861
 136  1295.394
 137  1318.209
 138  1410.142
 139  1412.77
 140  1290.013
 141  1411.821
 142  1458.049
 143  1385.144
 144  1279.654
 145  1274.456
 146  1122.412
 147  1010.864
 148  1252.251
 149  1482.368
 150  1483.129
 151  1542.67
 152  1611.147
 153  1580.146
 154  1393.381
 155  1413.361
 156  1362.726
 157  1437.397
 158  1432.908
 159  1466.856
 160  1451.204
 161  1249.522
 162  1358.711
 163  1317.8
 164  1237.969
 165  1230.003
 166  1269.976
 167  1238.25
 168  1243.29
 169  1306.198
 170  1511.435
 171  1442.971
 172  1631.743
 173  1692.904
 174  1629.093
 175  1559.06
 176  1599.735
 177  1538.289
 178  1479.881
 179  1492.747
 180  1396.196
 181  1176.705
 182  1153.49
 183  1208.527
 184  1229.459
 185  1292.718
 186  1280.98
 187  1323.035
 188  1293.836
 189  1500.359
 190  1612.507
 191  1581.594
 192  1624.767
 193  1645.386
 194  1525.707
 195  1425.488
 196  1520.918
 197  1594.034
 198  1389.485
 199  1302.489
 200  1443.232
 201  1385.69
 202  1383.048
 203  1570.853
 204  1557.4
 205  1439.404
 206  1262.268
 207  1275.768
 208  1210.94
 209  1278.565
 210  1475.228
 211  1468.327
 212  1186.521
 213  1172.816
 214  1214.682
 215  1242.171
 216  1251.469
 217  1328.402
 218  1394.697
 219  1501
 220  1758.975
 221  1723.123
 222  1706.554
 223  1676.13
 224  1804.943
 225  1608.205
 226  1529.945
 227  1359.249
 228  1242.685
 229  1032.956
 230  1156.282
 231  1233.254
 232  1333.266
 233  1406.384
 234  1476.436
 235  1356.86
 236  1230.807
 237  1325.42
 238  1384.036
 239  1353.251
 240  1507.223
 241  1658.711
 242  1510.249
 243  1345.17
 244  1432.188
 245  1420.344
 246  1275.68
 247  1245.19
 248  1291.764
 249  1238.237
 250  1249.042
 251  1388.438
 252  1294.196
 253  1246.702
 254  1407.357
 255  1615.987
 256  1549.407
 257  1410.716
 258  1429.637
 259  1398.208
 260  1361.665
 261  1504.793
 262  1514.187
 263  1440.265
 264  1243.573
 265  1300.78
 266  1233.969
 267  1152.24
 268  1282.609
 269  1312.844
 270  1324.472
 271  1395.934
 272  1417.859
 273  1394.296
 274  1375.17
 275  1562.074
 276  1611.465
 277  1441.462
 278  1313.616
 279  1250.998
 280  1263.507
 281  1415.953
 282  1476.591
 283  1348.503
 284  1303.64
 285  1461.521
 286  1635.152
 287  1615.632
 288  1454.636
 289  1506.755
 290  1484.832
 291  1498.778
 292  1308.489
 293  1242.523
 294  1163.735
 295  1314.632
 296  1268.673
 297  1203.826
 298  1130.185
 299  1284.841
 300  1278.433
 301  1281.131
 302  1300.032
 303  1384.987
 304  1166.783
 305  1239.093
 306  1363.785
 307  1411.574
 308  1429.734
 309  1549.709
 310  1533.175
 311  1373.593
 312  1456.193
 313  1584.649
 314  1475.994
 315  1219.816
 316  1305.962
 317  1233.316
 318  1378.345
 319  1528.84
 320  1615.969
 321  1381.427
 322  1251.283
 323  1466.445
 324  1434.181
 325  1279.681
 326  1293.268
 327  1336.699
 328  1402.954
 329  1396.113
 330  1517.484
 331  1404.294
 332  1266.187
 333  1237.241
 334  1274.595
 335  1079.124
 336  1123.441
 337  1230.383
 338  1312.654
 339  1196.011
 340  1126.928
 341  1086.647
 342  1125.493
 343  1406.958
 344  1672.035
 345  1531.878
 346  1413.931
 347  1429.76
 348  1328.977
 349  1356.662
 350  1438.835
 351  1443.772
 352  1241.261
 353  1290.579
 354  1431.899
 355  1315.33
 356  1267.742
 357  1478.248
 358  1405.914
 359  1156.604
 360  1109.097
 361  1285.057
 362  1318.16
 363  1322.896
 364  1301.858
 365  1271.341
 366  1184.692
 367  1303.714
 368  1348.515
 369  1229.321
 370  1299.474
 371  1563.614
 372  1593.809
 373  1487.745
 374  1635.276
 375  1624.405
 376  1377.169
 377  1266.092
 378  1351.161
 379  1339.997
 380  1247.789
 381  1216.48
 382  1171.444
 383  1028.88
 384  1081.464
 385  1223.461
 386  1412.473
 387  1386.084
 388  1576.27
 389  1481.443
 390  1367.134
 391  1244.048
 392  1384.361
 393  1439.091
 394  1421.928
 395  1421.488
 396  1337.272
 397  1319.244
 398  1321.17
 399  1255.371
 400  1036.448
 401  929.7535
 402  1124.839
 403  1305.049
 404  1437.864
 405  1462.988
 406  1388.118
 407  1283.891
 408  1344.472
 409  1331.954
 410  1190.627
 411  1304.74
 412  1390.831
 413  1264.073
 414  1050.579
 415  1190.369
 416  1368.418
 417  1396.239
 418  1406.56
 419  1369.067
 420  1274.19
 421  1323.813
 422  1493.869
 423  1469.477
 424  1312.311
 425  1438.428
 426  1495.522
 427  1243.27
 428  1157.425
 429  1348.551
 430  1404.96
 431  1199.805
 432  1215.219
 433  1423.126
 434  1537.112
 435  1497.193
 436  1787.378
 437  1707.573
 438  1648.494
 439  1726.579
 440  1753.653
 441  1406.972
 442  1143.745
 443  1236.578
 444  1306.246
 445  1185.605
 446  1127.882
 447  1091.798
 448  1056.161
 449  1199.115
 450  1254.755
 451  1135.78
 452  1120.57
 453  1453.826
 454  1603.498
 455  1467.589
 456  1436.536
 457  1588.319
 458  1544.828
 459  1410.536
 460  1231.339
 461  1215.083
 462  1219.389
 463  1425.889
 464  1401.757
 465  1275.567
 466  1239.719
 467  1443.333
 468  1409.142
 469  1344.068
 470  1254.299
 471  1253.547
 472  1163.268
 473  1332.098
 474  1470.043
 475  1443.951
 476  1530.208
 477  1653.691
 478  1634.749
 479  1479.694
 480  1456.111
 481  1448.141
 482  1444.178
 483  1401.733
 484  1448.628
 485  1199.476
 486  1103.426
 487  1201.556
 488  1222.399
 489  1096.432
 490  1109.827
 491  1190.105
 492  1208.107
 493  1213.139
 494  1459.69
 495  1502.48
 496  1445.958
 497  1530.902
 498  1602.403
 499  1523.169
 500  1390.601
 501  1485.692
 502  1511.99
 503  1380.388
 504  1450.692
 505  1504.705
 506  1420.937
 507  1236.22
 508  1188.822
 509  1107.944
 510  1060.931
 511  1212.735
 512  1194.916
 513  1198.974
 514  1170.823
 515  1369.352
 516  1301.404
 517  1283.67
 518  1343.656
 519  1448.007
 520  1485.235
 521  1484.363
 522  1489.217
 523  1461.789
 524  1341.145
 525  1419.013
 526  1324.751
 527  1332.896
 528  1322.344
 529  1207.217
 530  1027.458
 531  1017.347
 532  1184.076
 533  1198.83
 534  1255.254
 535  1424.067
 536  1440.771
 537  1344.58
 538  1435.864
 539  1530.571
 540  1406.166
 541  1343.758
 542  1512.258
 543  1446.073
 544  1354.052
 545  1397.675
 546  1442.46
 547  1224.146
 548  1242.933
 549  1449.105
 550  1483.575
 551  1233.177
 552  1182.404
 553  1203.95
 554  1217.014
 555  1268.478
 556  1361.168
 557  1322.561
 558  1222.522
 559  1315.521
 560  1460.116
 561  1472.313
 562  1514.976
 563  1592.959
 564  1718.177
 565  1530.15
 566  1521.184
 567  1318.538
 568  1232.702
 569  1299.652
 570  1384.339
 571  1375.141
 572  1271.886
 573  1460.251
 574  1452.702
 575  1253.717
 576  1172.774
 577  1205.818
 578  1193.411
 579  1216.937
 580  1352.639
 581  1451.978
 582  1546.336
 583  1609.372
 584  1580.089
 585  1413.465
 586  1476.489
 587  1441.666
 588  1326.445
 589  1127.984
 590  1086.543
 591  1138.938
 592  1199.589
 593  1224.839
 594  1206.445
 595  1118.51
 596  1332.497
 597  1449.633
 598  1490.545
 599  1388.601
 600  1576.527
 601  1572.287
 602  1507.1
 603  1480.811
 604  1497.528
 605  1380.658
 606  1383.482
 607  1555.481
 608  1617.183
 609  1502.748
 610  1575.519
 611  1589.312
 612  1499.017
 613  1420.67
 614  1395.682
 615  1389.475
 616  1285.766
 617  1463.887
 618  1527.755
 619  1559.531
 620  1547.101
 621  1716.543
 622  1687.797
 623  1670.563
 624  1639.203
 625  1709.264
 626  1530.368
 627  1509.605
 628  1618.109
 629  1642.779
 630  1429.202
 631  1461.172
 632  1409.509
 633  1446.405
 634  1432.102
 635  1548.265
 636  1575.127
 637  1550.819
 638  1660.693
 639  1599.142
 640  1470.997
 641  1330.514
 642  1399.596
 643  1520.63
 644  1860.625
 645  2051.351
 646  2066.638
 647  2020.541
 648  2198.508
 649  2274.724
 650  2291.634
 651  2199.764
 652  2149.225
 653  1945.563
 654  1734.663
 655  1593.692
 656  1525.831
 657  1358.353
 658  1366.599
 659  1262.94
 660  1228.146
 661  1167.413
 662  1317.804
 663  1380.038
 664  1393.22
 665  1409.876
 666  1414.803
 667  1428.687
 668  1513.308
 669  1722.984
 670  1541.961
 671  1364.016
 672  1331.619
 673  1383.631
 674  1296.011
 675  1368.18
 676  1374.294
 677  1286.596
 678  1186.684
 679  1334.66
 680  1244.913
 681  1177.911
 682  1304.172
 683  1606.883
 684  1539.827
 685  1406.568
 686  1479.271
 687  1433.382
 688  1355.604
 689  1353.637
 690  1505.464
 691  1492.618
 692  1525.358
 693  1573.898
 694  1527.149
 695  1187.89
 696  1155.475
 697  1293.884
 698  1313.085
 699  1328.531
 700  1311.645
 701  1169.238
 702  932.3942
 703  1076.589
 704  1289.621
 705  1294.97
 706  1278.788
 707  1360.616
 708  1417.682
 709  1438.19
 710  1521.397
 711  1553.999
 712  1516.62
 713  1582.737
 714  1497.974
 715  1530.512
 716  1482.953
 717  1669.141
 718  1437.597
 719  1364.819
 720  1209.454
 721  1080.887
 722  820.329
 723  909.1901
 724  1090.355
 725  1154.808
 726  1201.761
 727  1345.316
 728  1462.355
 729  1399.589
 730  1492.941
 731  1657.529
 732  1650.186
 733  1674.522
 734  1807.814
 735  1666.292
 736  1380.315
 737  1313.013
 738  1296.96
 739  1085.979
 740  1156.393
 741  1328.897
 742  1487.279
 743  1381.195
 744  1426.27
 745  1389.513
 746  1480.486
 747  1582.225
 748  1710.127
 749  1466.712
 750  1334.669
 751  1395
 752  1439.801
 753  1412.804
 754  1459.135
 755  1545.844
 756  1454.152
 757  1273.774
 758  1306.863
 759  1301.549
 760  1336.027
 761  1349.27
 762  1473.507
 763  1354.279
 764  1335.362
 765  1440.984
 766  1435.416
 767  1425.06
 768  1406.828
 769  1413.523
 770  1352.412
 771  1411.242
 772  1337.175
 773  1220.284
 774  1348.978
 775  1572.445
 776  1495.136
 777  1443.449
 778  1442.129
 779  1457.836
 780  1265.566
 781  1354.587
 782  1469.181
 783  1497.845
 784  1428.583
 785  1613.911
 786  1580.957
 787  1497.513
 788  1519.457
 789  1642.149
 790  1507.988
 791  1345.118
 792  1404.924
 793  1403.227
 794  1366.626
 795  1460.063
 796  1620.599
 797  1608.67
 798  1557.985
 799  1823.421
 800  1766.683
 801  1530.496
 802  1459.877
 803  1511.723
 804  1391.358
 805  1282.914
 806  1333.23
 807  1289.942
 808  1255.115
 809  1108.091
 810  1021.613
 811  925.6237
 812  1273.304
 813  1489.066
 814  1452.896
 815  1282.91
 816  1424.592
 817  1538.878
 818  1645.72
 819  1571.411
 820  1551.01
 821  1341.742
 822  1265.133
 823  1267.702
 824  1283.435
 825  1240.85
 826  1319.998
 827  1291.624
 828  1173.114
 829  1133.662
 830  1239.063
 831  1383.449
 832  1344.883
 833  1339.185
 834  1298.749
 835  1246.024
 836  1530.987
 837  1721.293
 838  1502.416
 839  1344.644
 840  1438.662
 841  1438.366
 842  1252.516
 843  1196.312
 844  1312.991
 845  1275.76
 846  1302.367
 847  1472.652
 848  1475.387
 849  1381.865
 850  1425.805
 851  1422.506
 852  1342.968
 853  1260.521
 854  1370.656
 855  1372.602
 856  1319.546
 857  1356.415
 858  1331.915
 859  1264.5
 860  1348.051
 861  1508.44
 862  1615.793
 863  1500.7
 864  1510.9
 865  1429.247
 866  1401.499
 867  1533.476
 868  1651.597
 869  1495.388
 870  1351.771
 871  1277.482
 872  1229.577
 873  1070.921
 874  1241.104
 875  1384.822
 876  1294.836
 877  1155.609
 878  1117.629
 879  1102.824
 880  1232.6
 881  1433.046
 882  1502.743
 883  1450.725
 884  1299.582
 885  1377.635
 886  1427.114
 887  1492.489
 888  1461.05
 889  1393.51
 890  1394.19
 891  1419.162
 892  1255.102
 893  1041.678
 894  1240.578
 895  1477.6
 896  1491.575
 897  1392.28
 898  1398.067
 899  1414.724
 900  1159.225
 901  1397.493
 902  1569.625
 903  1497.974
 904  1234.296
 905  1263.813
 906  1211.93
 907  1166.607
 908  1295.332
 909  1467.429
 910  1319.887
 911  1167.155
 912  1338.31
 913  1246.554
 914  1185.74
 915  1199.291
 916  1246.842
 917  1157.969
 918  1223.451
 919  1472.135
 920  1508.822
 921  1297.342
 922  1341.18
 923  1412.606
 924  1396.833
 925  1370.152
 926  1467.646
 927  1421.014
 928  1288.252
 929  1382.203
 930  1508.953
 931  1357.678
 932  1326.38
 933  1348.453
 934  1388.868
 935  1340.184
 936  1313.181
 937  1206.877
 938  1116.326
 939  1220.986
 940  1480.014
 941  1507.681
 942  1521.294
 943  1423.488
 944  1407.761
 945  1410.553
 946  1421.076
 947  1432.96
 948  1336.656
 949  1560.081
 950  1648.563
 951  1556.195
 952  1280.894
 953  1247.482
 954  1230.216
 955  1153.707
 956  1113.233
 957  1087.376
 958  1035.188
 959  1128.796
 960  1230.294
 961  1248.669
 962  1227.032
 963  1437.171
 964  1610.53
 965  1590.202
 966  1678.799
 967  1773.648
 968  1592.442
 969  1445.525
 970  1609.312
 971  1628.514
 972  1370.585
 973  1239.671
 974  1285.334
 975  1182.339
 976  1186.773
 977  1310.331
 978  1316.359
 979  1162.336
 980  1357.028
 981  1459.608
 982  1537.956
 983  1541.561
 984  1702.819
 985  1594.995
 986  1369.232
 987  1184.832
 988  1341.492
 989  1421.008
 990  1433.299
 991  1372.402
 992  1219.931
 993  1222.772
 994  1375.327
 995  1605.95
 996  1541.418
 997  1459.363
 998  1509.753
 999  1533.168
1000  1531.723
1001  1502.194
1002  1375.781
1003  1111.676
1004  1075.395
1005  1122.643
1006  1289.02
1007  1460.681
1008  1580.272
1009  1470.457
1010  1379.454
1011  1448.461
1012  1504.637
1013  1596.582
1014  1668.367
1015  1633.157
1016  1375.905
1017  1150.539
1018  1269.174
1019  1182.48
1020  1178.199
1021  1026.833
1022  1066.438
1023  1058.943
