# Input file       =  1186555642.111134_cleaned.dat
# Candidate        =  PSR_0332+5434
# Telescope        =  AR
# Epoch_topo       =  57977.283114712198
# Epoch_bary       =  N/A
# T_sample         =  0.002
# Data Folded      =  7340032
# Data Avg         =  0.0204139170642261
# Data StdDev      =  2.72824960750184 
# Profile Bins     =  1024
# Profile Avg      =  146.328433694987 
# Profile StdDev   =  230.984639230702 
# Reduced chi-sqr  =  1.209
# Prob(Noise)      <  4.43e-06   (~4.4 sigma)
# P_topo (ms)      =  714.465878826899  +/- 0.000244
# P'_topo (s/s)    =  -0                +/- 1.29e-10
# P''_topo (s/s^2) =  0                 +/- 5.69e-14
# P_bary (ms)      =  N/A
# P'_bary (s/s)    =  N/A
# P''_bary (s/s^2) =  N/A
# P_orb (s)        =  N/A
# asin(i)/c (s)    =  N/A
# eccentricity     =  N/A
# w (rad)          =  N/A
# T_peri           =  N/A
######################################################
   0  218.0983
   1  231.5695
   2  186.5554
   3  137.4001
   4  114.6131
   5  165.5816
   6  189.986
   7  241.3086
   8  239.8782
   9  108.2892
  10  -45.93991
  11  -156.3186
  12  -2.562561
  13  111.0245
  14  113.361
  15  63.86312
  16  77.66589
  17  119.5552
  18  131.4368
  19  209.3721
  20  206.7324
  21  198.213
  22  140.0069
  23  196.3286
  24  195.1006
  25  156.8027
  26  184.8917
  27  208.549
  28  211.2106
  29  216.6844
  30  346.8171
  31  366.8826
  32  241.6241
  33  166.7569
  34  149.7968
  35  137.5826
  36  69.80891
  37  36.44144
  38  50.11639
  39  89.94136
  40  198.8927
  41  149.8677
  42  143.1718
  43  117.5028
  44  188.125
  45  221.5345
  46  228.4324
  47  294.0911
  48  277.1962
  49  318.6357
  50  278.3446
  51  225.1569
  52  45.18493
  53  69.37447
  54  190.2001
  55  304.1583
  56  358.3569
  57  338.2551
  58  334.9433
  59  229.8977
  60  280.2006
  61  139.8094
  62  65.38257
  63  -14.96542
  64  55.74394
  65  129.0387
  66  221.7372
  67  247.1874
  68  247.3799
  69  276.852
  70  305.7
  71  218.0862
  72  157.8531
  73  187.4552
  74  235.8274
  75  195.9749
  76  228.0782
  77  280.2812
  78  326.6219
  79  364.6073
  80  366.3372
  81  215.6943
  82  41.86024
  83  -46.16247
  84  33.45437
  85  -52.00428
  86  10.76502
  87  33.50631
  88  133.5843
  89  139.4088
  90  179.6523
  91  137.9194
  92  129.5538
  93  144.4019
  94  155.8748
  95  78.08787
  96  168.1525
  97  222.0998
  98  276.7556
  99  221.6798
 100  225.7647
 101  211.2144
 102  145.4173
 103  192.4205
 104  120.3336
 105  163.122
 106  22.88331
 107  116.5665
 108  151.0286
 109  293.4777
 110  268.849
 111  192.0422
 112  128.9064
 113  93.45886
 114  263.5647
 115  308.2348
 116  384.4409
 117  287.8741
 118  255.8496
 119  167.0467
 120  136.1969
 121  100.3793
 122  47.29309
 123  -76.48656
 124  -53.44244
 125  -54.0892
 126  43.63992
 127  87.8218
 128  152.4535
 129  198.3873
 130  147.3366
 131  65.01385
 132  -49.92258
 133  33.89035
 134  87.76638
 135  81.3278
 136  32.10476
 137  29.11455
 138  58.80405
 139  150.1979
 140  226.9739
 141  233.3862
 142  160.4485
 143  56.385
 144  65.76513
 145  154.3795
 146  243.704
 147  188.2446
 148  98.47649
 149  69.18655
 150  129.7106
 151  97.14622
 152  155.955
 153  68.16084
 154  117.8975
 155  153.4263
 156  292.9661
 157  167.5321
 158  -16.59839
 159  -123.7888
 160  45.90014
 161  152.8118
 162  190.3755
 163  158.7471
 164  78.92262
 165  22.31759
 166  -36.54231
 167  48.62433
 168  102.4292
 169  198.0519
 170  239.1852
 171  186.6711
 172  138.7717
 173  56.55117
 174  22.98608
 175  -15.7348
 176  92.03026
 177  125.5188
 178  120.4124
 179  47.37926
 180  83.5454
 181  16.98354
 182  -45.51102
 183  -94.97218
 184  -67.61437
 185  115.7966
 186  233.7397
 187  278.1864
 188  143.5869
 189  35.23241
 190  -18.75317
 191  -139.7467
 192  -92.23988
 193  12.77661
 194  26.26065
 195  42.43562
 196  35.80957
 197  60.54454
 198  16.41926
 199  91.53381
 200  131.7208
 201  74.5436
 202  -43.30514
 203  8.202861
 204  57.22279
 205  30.38534
 206  -25.97571
 207  13.95216
 208  115.1638
 209  135.886
 210  168.4375
 211  79.08538
 212  84.47937
 213  108.9486
 214  194.0705
 215  114.4129
 216  30.49734
 217  -59.99513
 218  21.08396
 219  73.9323
 220  100.1074
 221  83.68578
 222  180.1916
 223  263.3711
 224  276.2172
 225  213.3292
 226  140.9811
 227  16.03706
 228  -87.04019
 229  -124.6547
 230  -51.41639
 231  -56.99878
 232  119.7629
 233  236.4484
 234  295.269
 235  106.5183
 236  20.37944
 237  -104.5316
 238  38.22059
 239  -8.251409
 240  109.6452
 241  118.8438
 242  109.1789
 243  3.549029
 244  -51.75233
 245  93.25288
 246  163.2851
 247  198.5961
 248  141.8475
 249  125.5234
 250  207.5426
 251  290.5005
 252  308.3383
 253  208.8999
 254  193.2403
 255  78.27828
 256  44.74918
 257  20.56555
 258  21.63184
 259  116.2407
 260  181.0589
 261  240.6979
 262  224.9717
 263  64.61922
 264  -116.5044
 265  -177.3175
 266  -10.7934
 267  177.4248
 268  289.5528
 269  221.2225
 270  177.2826
 271  231.6631
 272  330.5926
 273  207.3997
 274  -1.380861
 275  -178.8085
 276  -124.3483
 277  -98.28357
 278  -75.44936
 279  144.0789
 280  250.9931
 281  256.8048
 282  26.4172
 283  -17.29937
 284  -79.74321
 285  -116.4975
 286  -110.4442
 287  -59.88835
 288  -43.5951
 289  -97.61831
 290  -98.91651
 291  -38.93787
 292  75.68923
 293  113.1306
 294  168.6402
 295  127.5761
 296  32.40404
 297  -3.222661
 298  -29.62119
 299  -21.28926
 300  -14.45164
 301  45.91166
 302  112.9597
 303  -17.53067
 304  69.50568
 305  67.44059
 306  85.95176
 307  80.6834
 308  139.1854
 309  122.527
 310  62.17312
 311  4.566651
 312  -4.531336
 313  27.66069
 314  -69.46215
 315  -78.89032
 316  -83.40308
 317  77.82268
 318  150.7355
 319  177.3835
 320  190.1373
 321  222.7172
 322  193.2891
 323  132.8044
 324  183.4188
 325  148.3693
 326  144.4235
 327  16.23915
 328  94.61606
 329  58.88747
 330  104.5624
 331  128.9112
 332  274.6683
 333  341.7401
 334  182.6795
 335  17.17622
 336  63.76218
 337  293.9557
 338  269.9823
 339  225.6039
 340  213.816
 341  343.3872
 342  269.9637
 343  212.5917
 344  275.0405
 345  296.4478
 346  208.0291
 347  52.39806
 348  116.0112
 349  154.3104
 350  191.2106
 351  202.2412
 352  152.9536
 353  103.3564
 354  110.306
 355  143.673
 356  131.2767
 357  168.2967
 358  143.6913
 359  176.8756
 360  221.5956
 361  350.8622
 362  395.6259
 363  354.1432
 364  367.709
 365  389.5302
 366  326.4667
 367  187.6112
 368  82.91531
 369  103.3825
 370  54.69146
 371  40.69191
 372  -28.12625
 373  -37.53139
 374  44.17392
 375  88.42095
 376  178.6244
 377  109.9459
 378  76.43287
 379  96.81574
 380  111.346
 381  49.77649
 382  109.2542
 383  257.6135
 384  257.5724
 385  117.5169
 386  85.81097
 387  41.29054
 388  25.15079
 389  9.022161
 390  74.62436
 391  28.82239
 392  -127.7795
 393  -154.0385
 394  -72.6374
 395  75.14632
 396  88.98722
 397  57.53442
 398  93.964
 399  194.7979
 400  143.5382
 401  -85.76266
 402  -160.8764
 403  1.945786
 404  98.32613
 405  86.55112
 406  3.96715
 407  34.29465
 408  76.80109
 409  115.1328
 410  75.02091
 411  -55.19995
 412  99.89127
 413  252.4845
 414  247.5608
 415  -24.66445
 416  -149.0829
 417  -42.32421
 418  105.6333
 419  145.2596
 420  63.13827
 421  -0.9223502
 422  -3.004421
 423  48.17199
 424  132.423
 425  136.0629
 426  115.4973
 427  -28.19297
 428  -53.54781
 429  -66.03332
 430  96.23723
 431  121.3245
 432  167.5715
 433  138.4616
 434  97.25851
 435  88.01601
 436  -4.034096
 437  66.31084
 438  66.28895
 439  163.331
 440  157.7713
 441  200.5564
 442  100.8915
 443  9.423626
 444  -26.67739
 445  -52.84439
 446  -96.64162
 447  -49.08435
 448  61.16766
 449  102.9665
 450  62.9861
 451  -36.46534
 452  -40.60144
 453  -28.51464
 454  -22.22478
 455  40.35466
 456  31.43631
 457  -33.79105
 458  -102.2665
 459  -20.62875
 460  66.72969
 461  131.7692
 462  257.8312
 463  155.6812
 464  53.92264
 465  25.63675
 466  64.90868
 467  41.27111
 468  51.44439
 469  92.58046
 470  170.8875
 471  228.2902
 472  218.426
 473  155.5325
 474  153.6693
 475  304.4694
 476  353.6547
 477  280.9323
 478  131.1748
 479  291.1556
 480  407.5017
 481  384.5384
 482  240.8023
 483  145.8484
 484  130.4324
 485  57.14415
 486  81.40244
 487  176.2663
 488  182.3934
 489  103.0655
 490  88.35453
 491  213.6193
 492  186.8316
 493  210.7486
 494  207.0534
 495  191.6504
 496  244.7882
 497  312.7322
 498  432.6739
 499  372.3451
 500  326.518
 501  255.5658
 502  184.5368
 503  123.4273
 504  7.447918
 505  17.6444
 506  -4.350326
 507  129.3069
 508  168.6515
 509  177.8888
 510  86.88634
 511  -15.20798
 512  135.93
 513  153.9116
 514  159.0571
 515  106.5304
 516  125.2963
 517  79.89762
 518  51.24633
 519  141.9985
 520  199.5909
 521  122.5449
 522  74.34798
 523  179.5402
 524  312.8326
 525  339.2248
 526  409.1393
 527  425.6646
 528  426.5563
 529  288.6534
 530  220.9897
 531  189.3486
 532  153.8089
 533  106.3399
 534  64.61801
 535  83.45888
 536  41.47926
 537  -53.08666
 538  -66.9381
 539  -36.93751
 540  -43.47038
 541  -114.8002
 542  -75.82314
 543  23.14895
 544  157.8199
 545  180.0514
 546  107.6854
 547  33.32018
 548  -68.00848
 549  19.13897
 550  -12.0842
 551  -46.63242
 552  -103.0098
 553  -101.7803
 554  -13.16038
 555  -49.48675
 556  76.54726
 557  134.8467
 558  147.9706
 559  44.57165
 560  -105.6888
 561  -41.28915
 562  181.8033
 563  335.9119
 564  339.1954
 565  313.2416
 566  171.0107
 567  144.145
 568  125.0376
 569  114.6071
 570  124.5008
 571  154.0178
 572  248.6659
 573  226.6222
 574  253.7859
 575  172.9042
 576  145.9329
 577  127.7435
 578  56.52456
 579  -27.07638
 580  -86.063
 581  15.93632
 582  -5.57691
 583  58.43841
 584  200.4378
 585  269.862
 586  237.0381
 587  107.6029
 588  58.03943
 589  164.2223
 590  156.889
 591  132.4609
 592  81.70029
 593  122.1286
 594  149.602
 595  185.8128
 596  188.1596
 597  222.5785
 598  204.1005
 599  236.758
 600  176.2108
 601  79.08078
 602  19.31699
 603  19.62457
 604  46.0449
 605  126.7857
 606  120.2523
 607  112.2647
 608  172.409
 609  258.5429
 610  252.6728
 611  251.2486
 612  309.2226
 613  391.9267
 614  236.3631
 615  154.5596
 616  129.756
 617  228.494
 618  268.489
 619  311.6769
 620  292.3513
 621  332.9244
 622  257.8936
 623  157.6698
 624  76.90075
 625  215.3833
 626  272.5778
 627  298.6306
 628  143.5382
 629  131.146
 630  188.9876
 631  265.7158
 632  205.8748
 633  124.9661
 634  161.5635
 635  243.1935
 636  181.381
 637  114.135
 638  239.1386
 639  376.6446
 640  410.6422
 641  343.3786
 642  409.7302
 643  487.524
 644  540.5434
 645  655.7731
 646  786.9446
 647  1033.732
 648  1037.106
 649  989.2493
 650  892.8787
 651  896.1625
 652  791.3256
 653  661.1655
 654  507.3655
 655  438.7631
 656  296.6788
 657  242.795
 658  271.2821
 659  400.345
 660  375.5327
 661  221.5963
 662  156.8673
 663  191.723
 664  184.6487
 665  201.3907
 666  179.8615
 667  260.6339
 668  153.0787
 669  236.7316
 670  222.4566
 671  313.268
 672  372.5837
 673  325.6976
 674  330.532
 675  309.5285
 676  463.7804
 677  391.5563
 678  356.792
 679  337.4015
 680  435.5547
 681  384.0026
 682  328.4737
 683  238.2057
 684  190.5849
 685  283.4438
 686  270.4172
 687  207.9466
 688  21.10827
 689  162.7399
 690  176.3722
 691  196.6785
 692  192.0246
 693  252.7546
 694  239.0024
 695  199.7624
 696  201.67
 697  214.5653
 698  202.7255
 699  262.2639
 700  300.2512
 701  278.3454
 702  156.5598
 703  -24.15155
 704  -237.0764
 705  -201.4334
 706  -50.14079
 707  161.9534
 708  276.4781
 709  284.5024
 710  253.7779
 711  65.41467
 712  19.87004
 713  -48.56578
 714  -1.672478
 715  56.18149
 716  172.876
 717  319.855
 718  394.8293
 719  406.9772
 720  342.2647
 721  302.2
 722  247.4768
 723  230.6177
 724  103.1122
 725  -17.46177
 726  -160.0643
 727  -92.62791
 728  -54.04878
 729  27.128
 730  -25.8348
 731  61.46451
 732  8.849294
 733  -10.45171
 734  -23.93835
 735  -16.90718
 736  62.96532
 737  -10.51646
 738  128.2225
 739  216.4886
 740  322.7638
 741  277.2927
 742  149.8983
 743  287.8686
 744  258.91
 745  271.1215
 746  211.1096
 747  197.9733
 748  262.5681
 749  197.0623
 750  238.9826
 751  207.7756
 752  262.8928
 753  249.9566
 754  168.0159
 755  253.8806
 756  254.2014
 757  314.0619
 758  177.0681
 759  179.1296
 760  295.815
 761  500.5897
 762  443.3238
 763  333.2775
 764  202.5759
 765  209.2462
 766  125.8863
 767  123.9776
 768  113.0985
 769  133.2761
 770  129.673
 771  80.06252
 772  27.09291
 773  -16.59695
 774  30.62462
 775  51.88021
 776  75.9915
 777  88.14841
 778  41.27009
 779  71.33716
 780  97.91447
 781  106.005
 782  19.66353
 783  -2.551236
 784  85.11424
 785  265.0363
 786  366.9086
 787  180.6836
 788  58.44591
 789  -10.85018
 790  159.0266
 791  223.1355
 792  296.0858
 793  321.4411
 794  356.1973
 795  252.5118
 796  250.8355
 797  204.2185
 798  250.7648
 799  221.4783
 800  308.7755
 801  252.4537
 802  266.2524
 803  152.1768
 804  109.6029
 805  129.1709
 806  168.2612
 807  83.26073
 808  -40.12851
 809  -94.17091
 810  76.53178
 811  170.8193
 812  204.0735
 813  229.401
 814  208.1735
 815  296.8264
 816  266.1674
 817  229.4326
 818  143.3714
 819  205.6273
 820  395.8913
 821  462.6714
 822  396.3911
 823  298.0088
 824  160.9804
 825  80.3193
 826  136.0027
 827  283.548
 828  318.7591
 829  266.8982
 830  211.0943
 831  244.3976
 832  255.644
 833  271.1907
 834  314.4937
 835  336.7505
 836  241.8173
 837  150.615
 838  83.67577
 839  68.97729
 840  76.77261
 841  94.05502
 842  231.6234
 843  287.6331
 844  394.3592
 845  258.4655
 846  122.6857
 847  119.8599
 848  239.4797
 849  336.6092
 850  309.1217
 851  224.8432
 852  165.3461
 853  157.5988
 854  221.677
 855  112.4563
 856  77.4819
 857  76.65559
 858  134.5352
 859  130.8571
 860  67.25486
 861  -5.715125
 862  -55.82825
 863  -43.00291
 864  37.91313
 865  87.38049
 866  71.29975
 867  22.25067
 868  39.57217
 869  29.97949
 870  108.9591
 871  34.97963
 872  -11.2554
 873  -142.8478
 874  -91.73602
 875  -29.80881
 876  60.44486
 877  37.10428
 878  -27.40022
 879  32.11992
 880  146.5395
 881  136.5
 882  141.9945
 883  66.05876
 884  66.6337
 885  45.34981
 886  51.95269
 887  70.31399
 888  -4.115305
 889  5.202711
 890  9.588484
 891  54.47151
 892  104.6409
 893  137.3206
 894  149.9263
 895  91.2225
 896  68.40632
 897  -13.92028
 898  -33.5268
 899  -79.58392
 900  -43.77785
 901  -16.55539
 902  31.66659
 903  90.12032
 904  232.9555
 905  199.1796
 906  163.8891
 907  117.1322
 908  121.6559
 909  89.72191
 910  18.41854
 911  48.38396
 912  209.336
 913  346.2091
 914  369.2003
 915  316.4825
 916  291.5057
 917  272.794
 918  268.6975
 919  168.3067
 920  104.3827
 921  41.63387
 922  78.57225
 923  253.5494
 924  275.7133
 925  212.6885
 926  124.0523
 927  110.803
 928  60.32651
 929  29.78238
 930  43.87582
 931  124.9171
 932  152.3476
 933  200.2611
 934  288.7736
 935  286.4813
 936  271.1891
 937  126.6281
 938  109.9245
 939  98.26132
 940  105.0526
 941  95.30957
 942  157.2067
 943  208.983
 944  223.066
 945  167.0829
 946  59.02375
 947  88.26212
 948  104.2514
 949  160.0408
 950  139.9392
 951  175.6609
 952  183.9567
 953  227.6939
 954  270.9722
 955  289.8565
 956  226.7063
 957  99.07484
 958  64.90472
 959  76.56929
 960  72.18633
 961  47.5056
 962  146.9257
 963  312.5011
 964  316.1935
 965  330.6951
 966  288.6983
 967  325.0113
 968  328.1998
 969  342.2056
 970  304.4074
 971  262.0177
 972  286.2783
 973  263.9857
 974  215.4677
 975  207.7312
 976  195.6296
 977  159.4639
 978  161.6443
 979  191.4049
 980  239.4401
 981  188.6615
 982  272.1922
 983  326.4469
 984  228.1561
 985  130.555
 986  100.0891
 987  184.8693
 988  173.4554
 989  171.9981
 990  112.79
 991  76.05257
 992  129.9717
 993  119.1353
 994  19.15978
 995  79.13581
 996  96.09895
 997  170.5618
 998  0.5736417
 999  52.69849
1000  127.5163
1001  291.5007
1002  221.2361
1003  68.76494
1004  20.78029
1005  90.36875
1006  286.1379
1007  244.8132
1008  222.2735
1009  99.84689
1010  109.6684
1011  83.78433
1012  17.73853
1013  90.52
1014  160.6368
1015  200.9085
1016  236.1303
1017  216.4119
1018  98.26091
1019  -36.28898
1020  3.79294
1021  191.6772
1022  252.9611
1023  240.7493
