# Input file       =  1186986415.105928_cleaned.dat
# Candidate        =  PSR_0332+5434
# Telescope        =  AR
# Epoch_topo       =  57982.268913263055
# Epoch_bary       =  N/A
# T_sample         =  0.002
# Data Folded      =  7340032
# Data Avg         =  0.0434702289016318
# Data StdDev      =  2.83383327655606 
# Profile Bins     =  512
# Profile Avg      =  623.187638898707 
# Profile StdDev   =  339.303462787577 
# Reduced chi-sqr  =  1.145
# Prob(Noise)      <  0.0127   (~2.2 sigma)
# P_topo (ms)      =  714.464727665447  +/- 0.000286
# P'_topo (s/s)    =  -0                +/- 1.51e-10
# P''_topo (s/s^2) =  0                 +/- 6.67e-14
# P_bary (ms)      =  N/A
# P'_bary (s/s)    =  N/A
# P''_bary (s/s^2) =  N/A
# P_orb (s)        =  N/A
# asin(i)/c (s)    =  N/A
# eccentricity     =  N/A
# w (rad)          =  N/A
# T_peri           =  N/A
######################################################
   0  627.142
   1  440.5849
   2  870.414
   3  1082.731
   4  747.1036
   5  678.5462
   6  704.4042
   7  593.3228
   8  258.1766
   9  545.6562
  10  499.4679
  11  1093.17
  12  1294.547
  13  413.3356
  14  651.9835
  15  710.9722
  16  872.3866
  17  396.8112
  18  503.7567
  19  713.9132
  20  934.8625
  21  1074.942
  22  859.9264
  23  582.0164
  24  919.5174
  25  730.3013
  26  510.4163
  27  764.2528
  28  802.0159
  29  958.0209
  30  581.2554
  31  428.7757
  32  706.6932
  33  543.4279
  34  539.2729
  35  422.4312
  36  232.2137
  37  306.6559
  38  502.2701
  39  776.5917
  40  580.5567
  41  408.0766
  42  408.9355
  43  909.7902
  44  799.4125
  45  962.6322
  46  832.6432
  47  633.201
  48  470.0093
  49  397.7432
  50  599.411
  51  513.1922
  52  633.7831
  53  756.247
  54  618.89
  55  508.3632
  56  532.9492
  57  705.8344
  58  740.467
  59  636.973
  60  591.5543
  61  899.171
  62  658.3757
  63  869.2675
  64  642.5372
  65  870.8439
  66  742.3779
  67  675.2253
  68  782.624
  69  537.0341
  70  626.2328
  71  841.426
  72  586.2874
  73  540.5425
  74  651.3035
  75  356.3733
  76  619.0721
  77  586.3901
  78  650.7546
  79  620.1828
  80  661.0413
  81  672.0786
  82  646.769
  83  618.0389
  84  186.4959
  85  183.2505
  86  611.7147
  87  770.6867
  88  425.7238
  89  382.5653
  90  88.94652
  91  15.38047
  92  541.8526
  93  782.2437
  94  598.7059
  95  538.2153
  96  354.0662
  97  178.9104
  98  378.6216
  99  453.2265
 100  504.28
 101  486.0296
 102  625.7896
 103  348.129
 104  218.3483
 105  361.9418
 106  382.2225
 107  481.4541
 108  750.1449
 109  543.067
 110  603.9332
 111  256.9087
 112  172.7706
 113  465.6372
 114  533.188
 115  719.525
 116  377.726
 117  602.1248
 118  870.8392
 119  643.0645
 120  531.6794
 121  750.7295
 122  445.3254
 123  440.0265
 124  268.4792
 125  491.1576
 126  638.4934
 127  705.3651
 128  335.7915
 129  481.515
 130  505.0397
 131  723.3986
 132  618.1657
 133  258.4346
 134  643.1642
 135  627.4587
 136  554.5922
 137  803.236
 138  867.2545
 139  592.848
 140  652.2963
 141  1035.516
 142  940.8713
 143  654.215
 144  168.0243
 145  293.0686
 146  614.7768
 147  861.7793
 148  407.8907
 149  479.5632
 150  563.0896
 151  503.78
 152  654.2327
 153  407.4229
 154  401.1382
 155  746.7109
 156  273.4702
 157  338.6658
 158  301.0103
 159  483.4671
 160  695.3704
 161  312.4567
 162  767.5621
 163  690.1664
 164  674.3283
 165  346.637
 166  554.0109
 167  572.1788
 168  453.994
 169  152.3871
 170  49.51082
 171  10.65583
 172  540.5659
 173  569.5323
 174  245.451
 175  331.0128
 176  481.0658
 177  300.7327
 178  470.4348
 179  418.268
 180  453.6713
 181  253.949
 182  591.1348
 183  722.3814
 184  472.4267
 185  617.6845
 186  450.7814
 187  520.1929
 188  530.9804
 189  723.6163
 190  954.4235
 191  669.4177
 192  653.2592
 193  441.6956
 194  470.965
 195  536.9119
 196  715.8534
 197  566.0341
 198  445.1672
 199  498.8412
 200  504.8209
 201  307.8236
 202  504.8514
 203  565.2412
 204  586.8136
 205  43.58882
 206  688.0605
 207  592.7094
 208  677.8375
 209  627.3846
 210  403.7824
 211  640.9255
 212  996.2333
 213  834.283
 214  479.8509
 215  856.8005
 216  1036.832
 217  1027.463
 218  1003.322
 219  826.0607
 220  1019.622
 221  759.5644
 222  927.3542
 223  1222.563
 224  471.1648
 225  139.8941
 226  770.4087
 227  763.6418
 228  601.7657
 229  516.7345
 230  886.896
 231  698.5478
 232  392.9892
 233  125.4008
 234  195.5462
 235  649.3556
 236  549.8807
 237  832.2449
 238  825.5796
 239  797.2983
 240  916.9554
 241  886.8505
 242  629.2107
 243  319.2727
 244  -33.51741
 245  402.0959
 246  92.0633
 247  159.2007
 248  425.9164
 249  74.48271
 250  148.2008
 251  395.3796
 252  450.6823
 253  506.5642
 254  466.0126
 255  598.2376
 256  432.1013
 257  353.9876
 258  374.7531
 259  712.0894
 260  664.8298
 261  401.5922
 262  592.0173
 263  420.4573
 264  701.9255
 265  958.2966
 266  856.7226
 267  370.248
 268  847.7587
 269  756.1651
 270  492.2611
 271  572.15
 272  658.3019
 273  601.0697
 274  522.0065
 275  797.3292
 276  712.7248
 277  846.4764
 278  676.3387
 279  375.9592
 280  273.9217
 281  473.4264
 282  593.2721
 283  615.6874
 284  605.7051
 285  346.5396
 286  573.3773
 287  535.0883
 288  818.1201
 289  669.6664
 290  777.0009
 291  911.6916
 292  970.2572
 293  616.5938
 294  860.0182
 295  1063.384
 296  669.9108
 297  632.6846
 298  805.9881
 299  656.0739
 300  636.8971
 301  904.1835
 302  806.5121
 303  654.2364
 304  781.1893
 305  1055.165
 306  734.9037
 307  544.6389
 308  585.7173
 309  692.812
 310  654.7783
 311  606.9362
 312  604.4334
 313  597.8433
 314  664.4496
 315  426.2928
 316  487.9071
 317  257.9614
 318  650.3987
 319  1230.55
 320  1358.92
 321  1496.57
 322  1814.472
 323  2076.392
 324  2280.426
 325  1884.156
 326  1356.538
 327  882.1566
 328  388.2167
 329  479.9199
 330  546.9263
 331  432.8896
 332  555.2841
 333  501.8395
 334  820.4924
 335  946.4635
 336  1265.216
 337  883.6602
 338  903.5969
 339  1102.145
 340  823.4775
 341  672.9466
 342  955.5173
 343  1123.124
 344  571.6927
 345  573.5712
 346  428.4251
 347  524.7361
 348  824.1025
 349  956.4654
 350  731.9063
 351  607.2507
 352  985.8967
 353  600.1409
 354  706.765
 355  755.3369
 356  996.3524
 357  675.1986
 358  539.0706
 359  453.0496
 360  847.0782
 361  805.2999
 362  570.7338
 363  751.0338
 364  355.6054
 365  411.7662
 366  478.552
 367  724.5751
 368  882.9336
 369  986.6124
 370  949.9881
 371  777.134
 372  737.6576
 373  743.5607
 374  407.6465
 375  309.3951
 376  534.996
 377  811.596
 378  836.6196
 379  990.53
 380  950.8087
 381  541.9373
 382  502.2219
 383  621.4973
 384  470.2385
 385  591.3086
 386  324.1197
 387  97.3307
 388  588.4478
 389  616.9896
 390  394.1368
 391  602.9606
 392  669.3177
 393  961.8436
 394  750.0715
 395  331.136
 396  122.5533
 397  377.3655
 398  689.3741
 399  501.6925
 400  303.0494
 401  477.8072
 402  432.7665
 403  523.1266
 404  622.8372
 405  252.3128
 406  486.2622
 407  827.3541
 408  763.4227
 409  638.9171
 410  748.0051
 411  479.0583
 412  238.5785
 413  305.1207
 414  443.3102
 415  773.5678
 416  1098.531
 417  952.4149
 418  411.4901
 419  424.618
 420  561.5721
 421  554.2567
 422  971.2736
 423  990.6716
 424  562.7985
 425  561.6805
 426  541.8861
 427  604.8187
 428  872.174
 429  880.0698
 430  720.1612
 431  434.7039
 432  459.2863
 433  437.4821
 434  464.1298
 435  677.0992
 436  819.1778
 437  671.8912
 438  617.6394
 439  472.1605
 440  851.9619
 441  1083.516
 442  475.7555
 443  848.7384
 444  978.8785
 445  565.2229
 446  437.6576
 447  562.949
 448  596.3732
 449  502.0818
 450  776.941
 451  595.7619
 452  435.6802
 453  506.3259
 454  766.4219
 455  290.5697
 456  606.4497
 457  1066.316
 458  922.9874
 459  795.9455
 460  615.6299
 461  677.011
 462  674.4224
 463  413.8468
 464  575.0288
 465  539.3402
 466  565.0518
 467  787.9252
 468  691.9761
 469  419.1584
 470  627.1801
 471  277.1626
 472  402.2141
 473  175.5877
 474  274.5586
 475  309.9699
 476  365.852
 477  249.4804
 478  390.5772
 479  543.706
 480  720.3074
 481  884.5395
 482  707.1694
 483  853.8057
 484  892.7493
 485  1037.582
 486  527.8628
 487  529.8159
 488  675.5631
 489  439.2808
 490  531.8409
 491  677.6687
 492  1098.838
 493  808.0368
 494  525.5515
 495  768.8325
 496  739.4911
 497  777.9813
 498  843.0858
 499  863.9451
 500  608.9377
 501  550.7089
 502  785.6767
 503  597.1141
 504  408.6353
 505  392.772
 506  658.7488
 507  664.0304
 508  910.387
 509  686.0886
 510  394.9761
 511  662.3748
