# Input file       =  1186612281.106419_cleaned.dat
# Candidate        =  PSR_0332+5434
# Telescope        =  AR
# Epoch_topo       =  57977.938658639112
# Epoch_bary       =  N/A
# T_sample         =  0.002
# Data Folded      =  7208960
# Data Avg         =  0.120727201750163
# Data StdDev      =  4.55138910719458 
# Profile Bins     =  512
# Profile Avg      =  1699.8248665208  
# Profile StdDev   =  540.064080175362 
# Reduced chi-sqr  =  0.486
# Prob(Noise)      <  1   (~0.0 sigma)
# P_topo (ms)      =  714.465357659245  +/- 0.00252
# P'_topo (s/s)    =  -0                +/- 1.35e-09
# P''_topo (s/s^2) =  0                 +/- 6.08e-13
# P_bary (ms)      =  N/A
# P'_bary (s/s)    =  N/A
# P''_bary (s/s^2) =  N/A
# P_orb (s)        =  N/A
# asin(i)/c (s)    =  N/A
# eccentricity     =  N/A
# w (rad)          =  N/A
# T_peri           =  N/A
######################################################
   0  1450.407
   1  1745.693
   2  2033.958
   3  1612.8
   4  1328.407
   5  1786.893
   6  1960.02
   7  1515.413
   8  1561.99
   9  1679.335
  10  1640.88
  11  1397.551
  12  1591.51
  13  1988.156
  14  1782.213
  15  1591.019
  16  1591.762
  17  1993.143
  18  1812.741
  19  1914.662
  20  2231.491
  21  2013.003
  22  1419.153
  23  1495.724
  24  2031.806
  25  1758.26
  26  1417.88
  27  1373.25
  28  1471.025
  29  1691.454
  30  1550.229
  31  1439.388
  32  1804.451
  33  1927.053
  34  1652.947
  35  1494.586
  36  1359.238
  37  1512.023
  38  1667.216
  39  1620.762
  40  1376.817
  41  1610.247
  42  2017.834
  43  2248.567
  44  1974.007
  45  1432.929
  46  1513.875
  47  1272.377
  48  1509.268
  49  1552.07
  50  1342.783
  51  1401.659
  52  1672.049
  53  1876.027
  54  1778.111
  55  1243.79
  56  1633.274
  57  1447.031
  58  1588.869
  59  1362.221
  60  1357.711
  61  1791.372
  62  2121.074
  63  1859.211
  64  1710.952
  65  1487.217
  66  1787.986
  67  1562.526
  68  1408.327
  69  1393.284
  70  1322.236
  71  1238.057
  72  1248.005
  73  1732.217
  74  1510.408
  75  1928.69
  76  1856.953
  77  1626.937
  78  1571.663
  79  1306.5
  80  1548.928
  81  1942.345
  82  2016.179
  83  1676.651
  84  1271.294
  85  1474.917
  86  1793.428
  87  1756.384
  88  1624.97
  89  1329.8
  90  1612.325
  91  1782.605
  92  1697.23
  93  1695.139
  94  1683.512
  95  1782.775
  96  1462.828
  97  1342.094
  98  1953.36
  99  1808.031
 100  1333.56
 101  1215.357
 102  1784.015
 103  1794.569
 104  2052.236
 105  2144.621
 106  1771.3
 107  1380.49
 108  1305.324
 109  2059.806
 110  1956.038
 111  1772.207
 112  1777.974
 113  1632.678
 114  1675.213
 115  1421.956
 116  1581.425
 117  1842.105
 118  1682.863
 119  1716.117
 120  1533.686
 121  1628.353
 122  1290.63
 123  1197.433
 124  1376.78
 125  1253.291
 126  1490.519
 127  1944.167
 128  2175.219
 129  1610.872
 130  1736.33
 131  1698.827
 132  1608.182
 133  1435.91
 134  1296.678
 135  2004.776
 136  2018.032
 137  1615.31
 138  1705.275
 139  1531.245
 140  1544.724
 141  1473.087
 142  1702.972
 143  1994.254
 144  1589.752
 145  1853.179
 146  2164.752
 147  2028.12
 148  2103.346
 149  1613.069
 150  1634.856
 151  1766.547
 152  1849.82
 153  1869.778
 154  1701.591
 155  1294.363
 156  1448.519
 157  1883.515
 158  1659.796
 159  1670.901
 160  1825.383
 161  1795.138
 162  1697.328
 163  1666.812
 164  1468.313
 165  1497.602
 166  1646.281
 167  1661.491
 168  1881.542
 169  1922.19
 170  1747.894
 171  1290.451
 172  1504.801
 173  1184.516
 174  1511.32
 175  1256.156
 176  1331.76
 177  1525.345
 178  2201.664
 179  1676.235
 180  1318.988
 181  1756.058
 182  1707.914
 183  2126.548
 184  1706.298
 185  2011.084
 186  2131.717
 187  2015.018
 188  1743.542
 189  1483.666
 190  1418.05
 191  1358.145
 192  1393.421
 193  1979.139
 194  1859.321
 195  1496.368
 196  1387.731
 197  1255.017
 198  1341.551
 199  1239.85
 200  1450.336
 201  1910.783
 202  1704.021
 203  1364.676
 204  1648.633
 205  1982.926
 206  1725.449
 207  2013.075
 208  2039.207
 209  1768.988
 210  1991.872
 211  1848.211
 212  1966.044
 213  1674.609
 214  1717.144
 215  1910.692
 216  1436.374
 217  1473.259
 218  1646.847
 219  1741.856
 220  1858.573
 221  1417.225
 222  1579.651
 223  1668.723
 224  1301.981
 225  1267.505
 226  1273.72
 227  1325.734
 228  1360.953
 229  1396.059
 230  1642.502
 231  1722.826
 232  1633.814
 233  1262.262
 234  1212.631
 235  1670.65
 236  1948.564
 237  1792.393
 238  1639.654
 239  1558.778
 240  1618.144
 241  2152.024
 242  2034.254
 243  1882.888
 244  1720.54
 245  1842.098
 246  1713.676
 247  1658.952
 248  1653.517
 249  1750.212
 250  1731.534
 251  1771.626
 252  1963.137
 253  2117.469
 254  1827.892
 255  1732.439
 256  2001.766
 257  1775.667
 258  1998.536
 259  1914.87
 260  2115.803
 261  2251.069
 262  2470.622
 263  3365.817
 264  3400.904
 265  2737.634
 266  2713.01
 267  2715.588
 268  2577.205
 269  1965.86
 270  1772.948
 271  1649.689
 272  1726.14
 273  1863.631
 274  1814.622
 275  1889.797
 276  1398.895
 277  2037.603
 278  2175.81
 279  2154.032
 280  1971.373
 281  1373.941
 282  1677.687
 283  1748.891
 284  1955.372
 285  2007.899
 286  2101.22
 287  1950.329
 288  1919.318
 289  2167.667
 290  1684.584
 291  1681.777
 292  1947.355
 293  1979.39
 294  1820.889
 295  1458.831
 296  1673.79
 297  1785.471
 298  2060.859
 299  2032.298
 300  1608.685
 301  1671.571
 302  1672.423
 303  1602.533
 304  1956.414
 305  1985.547
 306  2047.132
 307  1713.187
 308  1414.865
 309  1452.594
 310  1718.658
 311  1754.599
 312  1812.444
 313  1858.827
 314  1797.752
 315  1641.628
 316  1538.457
 317  1845.253
 318  1737.976
 319  1707.86
 320  1841.46
 321  1838.823
 322  1854.356
 323  1959.558
 324  1621.065
 325  1930.049
 326  1789.621
 327  1743.558
 328  1775.563
 329  1869.658
 330  2049.388
 331  1832.958
 332  1799.035
 333  1763.474
 334  1679.086
 335  1563.798
 336  1409.653
 337  1595.562
 338  1857.686
 339  1658.26
 340  1324.949
 341  1305.958
 342  1763.462
 343  1701.703
 344  1624.165
 345  1413.384
 346  1487.307
 347  1444.058
 348  1305.919
 349  1711.416
 350  1740.47
 351  1929.327
 352  1955.312
 353  1385.248
 354  1507.637
 355  1372.215
 356  1618.008
 357  1590.951
 358  1108.133
 359  1392.48
 360  1618.191
 361  1632.174
 362  1801.35
 363  1675.99
 364  1631.972
 365  1749.444
 366  1808.557
 367  1925.197
 368  1973.708
 369  1559.655
 370  1090.146
 371  1719.369
 372  1488.605
 373  1625.069
 374  1551.958
 375  1928.401
 376  1704.9
 377  1634.397
 378  1905.161
 379  1810.941
 380  1500.327
 381  1597.237
 382  1865.102
 383  1807.056
 384  1523.144
 385  1936.343
 386  1790.557
 387  1591.241
 388  1753.573
 389  1896.533
 390  1658.683
 391  1456.294
 392  1452.04
 393  1374.572
 394  1693.387
 395  2172.668
 396  2069.383
 397  1767.134
 398  1449.116
 399  1802.245
 400  1924.871
 401  1670.833
 402  1393.837
 403  1564.413
 404  1704.568
 405  1542.674
 406  1477.954
 407  1690.676
 408  1813.834
 409  1913.237
 410  1895.946
 411  1629.123
 412  1549.103
 413  1435.789
 414  1959.625
 415  1838.619
 416  1882.179
 417  1547.444
 418  2065.048
 419  1842.577
 420  1425.326
 421  1524.111
 422  1820.923
 423  1509.348
 424  1302.374
 425  1813.151
 426  2345.149
 427  1920.919
 428  1432.564
 429  1841.869
 430  1980.135
 431  1841.87
 432  1668.569
 433  1926.516
 434  2046.837
 435  1741.074
 436  1736.841
 437  1517.137
 438  1491.901
 439  1265.232
 440  1884.925
 441  2116.578
 442  1756.965
 443  1905.839
 444  1508.933
 445  1860.755
 446  1896.294
 447  1827.214
 448  1855.78
 449  1862.75
 450  1568.01
 451  1605.982
 452  1516.204
 453  1484.598
 454  1294.882
 455  1658.426
 456  1735.053
 457  1579.762
 458  1975.614
 459  1709.281
 460  1336.114
 461  1621.959
 462  1944.414
 463  1410.537
 464  1628.489
 465  1833.572
 466  1778.232
 467  1766.168
 468  1757.907
 469  1619.792
 470  2005.937
 471  1839.898
 472  1493.108
 473  1398.248
 474  1690.123
 475  1381.01
 476  1258.838
 477  1609.367
 478  2074.247
 479  1915.472
 480  1663.124
 481  1857.087
 482  1755.578
 483  1563.612
 484  2006.859
 485  1581.138
 486  1685.849
 487  1228.647
 488  1352.887
 489  1425.118
 490  1568.703
 491  1752.915
 492  1611.908
 493  1333.017
 494  1421.286
 495  1717.709
 496  1748.042
 497  1741.772
 498  1618.641
 499  1592.85
 500  1523.078
 501  1583.161
 502  1285.333
 503  1427.289
 504  1512.421
 505  1536.137
 506  1742.295
 507  1783.234
 508  1700.773
 509  1430.63
 510  1781.079
 511  1706.314
