# Input file       =  1186900367.104086_cleaned.dat
# Candidate        =  PSR_0332+5434
# Telescope        =  AR
# Epoch_topo       =  57981.272987315810
# Epoch_bary       =  N/A
# T_sample         =  0.002
# Data Folded      =  7340032
# Data Avg         =  0.0217387163346367
# Data StdDev      =  2.65785292925797 
# Profile Bins     =  1024
# Profile Avg      =  155.784344075845 
# Profile StdDev   =  225.024571910436 
# Reduced chi-sqr  =  1.149
# Prob(Noise)      <  0.000601   (~3.2 sigma)
# P_topo (ms)      =  714.464929361569  +/- 0.000154
# P'_topo (s/s)    =  -0                +/- 8.11e-11
# P''_topo (s/s^2) =  0                 +/- 3.58e-14
# P_bary (ms)      =  N/A
# P'_bary (s/s)    =  N/A
# P''_bary (s/s^2) =  N/A
# P_orb (s)        =  N/A
# asin(i)/c (s)    =  N/A
# eccentricity     =  N/A
# w (rad)          =  N/A
# T_peri           =  N/A
######################################################
   0  75.48486
   1  95.80014
   2  135.7933
   3  188.6112
   4  149.3957
   5  149.1231
   6  194.6046
   7  222.5317
   8  226.787
   9  221.5116
  10  271.3277
  11  298.7835
  12  390.346
  13  333.2773
  14  154.6568
  15  15.79286
  16  32.93787
  17  179.088
  18  257.976
  19  284.7935
  20  201.6915
  21  229.4584
  22  204.0233
  23  323.6211
  24  223.2709
  25  269.5973
  26  157.5767
  27  240.455
  28  156.922
  29  128.7301
  30  30.99643
  31  192.6378
  32  274.9193
  33  364.4728
  34  223.4721
  35  165.2732
  36  5.174272
  37  -15.72956
  38  10.53227
  39  124.5279
  40  106.8953
  41  65.28033
  42  105.5261
  43  179.271
  44  244.89
  45  156.9431
  46  214.3503
  47  206.681
  48  159.9235
  49  -27.78339
  50  -88.22215
  51  5.077363
  52  51.60045
  53  62.41573
  54  42.62558
  55  64.35833
  56  82.97827
  57  50.35831
  58  59.9376
  59  123.7635
  60  189.2982
  61  185.897
  62  204.4908
  63  271.1051
  64  223.7016
  65  114.8716
  66  8.354828
  67  41.80167
  68  -8.979662
  69  44.95995
  70  194.0679
  71  369.812
  72  295.7093
  73  51.06054
  74  -7.12756
  75  107.1696
  76  184.2253
  77  194.3168
  78  178.5804
  79  214.3384
  80  186.5217
  81  135.6313
  82  166.2936
  83  209.3411
  84  150.5518
  85  110.1949
  86  173.4303
  87  148.252
  88  92.94814
  89  63.66504
  90  186.8497
  91  229.0076
  92  151.3109
  93  75.16951
  94  91.48298
  95  142.9921
  96  82.65815
  97  -43.46069
  98  -81.67227
  99  20.91522
 100  39.93896
 101  -32.26266
 102  -45.25976
 103  28.13032
 104  170.1695
 105  209.772
 106  286.4207
 107  384.7841
 108  375.1986
 109  289.381
 110  91.11658
 111  4.447857
 112  5.361446
 113  91.23183
 114  78.3923
 115  61.57824
 116  5.634335
 117  -42.1264
 118  47.42989
 119  89.70242
 120  217.0511
 121  264.4461
 122  302.1496
 123  175.1049
 124  108.1265
 125  39.2819
 126  122.4643
 127  186.6436
 128  270.2545
 129  234.2478
 130  160.0129
 131  130.7491
 132  163.7079
 133  42.03501
 134  90.11001
 135  219.7244
 136  357.8048
 137  288.1438
 138  160.7325
 139  200.559
 140  193.0326
 141  119.5298
 142  97.80623
 143  142.6467
 144  88.72453
 145  2.233296
 146  2.04645
 147  119.3486
 148  49.21271
 149  34.87386
 150  19.32142
 151  96.37206
 152  143.0028
 153  160.5598
 154  118.4868
 155  130.4476
 156  209.187
 157  234.4681
 158  239.1316
 159  267.1036
 160  271.3101
 161  236.947
 162  241.1936
 163  308.0463
 164  276.3277
 165  373.0785
 166  313.4576
 167  365.349
 168  311.3744
 169  282.5319
 170  181.891
 171  14.63406
 172  97.84482
 173  208.1048
 174  399.478
 175  398.5101
 176  343.6193
 177  233.3483
 178  165.3871
 179  89.09441
 180  90.95579
 181  141.3107
 182  249.8517
 183  286.8306
 184  285.8514
 185  110.8854
 186  -84.87336
 187  -113.4389
 188  -58.01659
 189  2.94316
 190  91.50067
 191  123.1457
 192  210.7578
 193  188.1624
 194  319.4858
 195  283.7415
 196  241.1445
 197  182.1102
 198  187.6509
 199  183.9677
 200  240.4311
 201  226.4931
 202  270.5894
 203  261.1377
 204  336.0821
 205  235.2794
 206  232.942
 207  269.3536
 208  332.7564
 209  189.0524
 210  75.02861
 211  -18.01582
 212  11.47662
 213  -21.75662
 214  66.45077
 215  150.0879
 216  204.2219
 217  255.7076
 218  219.6518
 219  218.8431
 220  210.1649
 221  99.26073
 222  58.56703
 223  55.68333
 224  74.16588
 225  102.4412
 226  127.9652
 227  127.2346
 228  88.58557
 229  81.7432
 230  106.1223
 231  -0.2161704
 232  -108.3983
 233  -65.21945
 234  109.6238
 235  184.1615
 236  106.7642
 237  -34.01361
 238  93.65838
 239  236.1046
 240  382.226
 241  307.9679
 242  349.2116
 243  277.7328
 244  267.7744
 245  204.4557
 246  163.4983
 247  190.9326
 248  303.1682
 249  336.471
 250  251.5405
 251  53.69019
 252  40.33912
 253  38.03376
 254  23.18653
 255  -28.3464
 256  70.33744
 257  124.1891
 258  202.0629
 259  189.8394
 260  72.53549
 261  9.114223
 262  15.90285
 263  47.15129
 264  -21.47186
 265  -11.13396
 266  45.70534
 267  93.32397
 268  111.8452
 269  194.8044
 270  207.9715
 271  129.7679
 272  144.3583
 273  106.7066
 274  74.05588
 275  36.69134
 276  34.83239
 277  26.91119
 278  -6.953131
 279  -7.452133
 280  83.68789
 281  151.7664
 282  250.5671
 283  97.01534
 284  52.50616
 285  5.131767
 286  189.6436
 287  197.4709
 288  253.5014
 289  170.5118
 290  148.3603
 291  77.19479
 292  130.9323
 293  154.9873
 294  183.3982
 295  119.0439
 296  17.61728
 297  -101.444
 298  -59.99382
 299  9.570373
 300  84.23223
 301  82.37526
 302  72.37334
 303  55.11106
 304  -7.574607
 305  -43.51805
 306  -28.85431
 307  88.89708
 308  186.51
 309  228.9448
 310  101.7393
 311  -17.64569
 312  -117.6204
 313  -107.9139
 314  -79.60977
 315  -39.15243
 316  23.11242
 317  171.5363
 318  299.8689
 319  385.1367
 320  386.6449
 321  241.6072
 322  200.8549
 323  281.6659
 324  366.3759
 325  357.3113
 326  217.2846
 327  129.6094
 328  35.47676
 329  -24.69392
 330  112.0651
 331  227.2673
 332  252.1563
 333  165.0787
 334  98.88795
 335  35.85176
 336  0.3674958
 337  20.64974
 338  172.9966
 339  286.2916
 340  195.1218
 341  98.85448
 342  51.03588
 343  18.6212
 344  27.7695
 345  59.80957
 346  113.602
 347  58.59577
 348  21.66208
 349  108.7352
 350  239.44
 351  197.8862
 352  182.2188
 353  123.0342
 354  165.7674
 355  208.1753
 356  285.5385
 357  191.797
 358  87.16356
 359  90.0016
 360  203.109
 361  161.2593
 362  185.4201
 363  210.562
 364  105.9877
 365  -11.9334
 366  -89.87389
 367  -64.01597
 368  15.69733
 369  164.5905
 370  284.5533
 371  182.2267
 372  43.01105
 373  20.16409
 374  39.55568
 375  134.4901
 376  128.6421
 377  80.63097
 378  25.86912
 379  53.36801
 380  153.3902
 381  233.2253
 382  213.0476
 383  10.62874
 384  -27.50261
 385  -46.85746
 386  61.08153
 387  14.77795
 388  11.54854
 389  4.549853
 390  96.88216
 391  158.1838
 392  179.7882
 393  77.13241
 394  130.6821
 395  147.2903
 396  213.9093
 397  157.4495
 398  164.3341
 399  94.18588
 400  15.83743
 401  57.43796
 402  137.0525
 403  140.6555
 404  52.19925
 405  0.6605655
 406  -11.70059
 407  -63.85226
 408  -25.82795
 409  130.841
 410  236.9092
 411  272.1086
 412  99.85133
 413  -2.116049
 414  1.79949
 415  189.5598
 416  212.131
 417  161.0534
 418  53.12743
 419  9.875356
 420  58.00431
 421  199.5828
 422  322.2726
 423  364.5673
 424  240.1175
 425  62.8753
 426  80.58073
 427  164.5135
 428  343.2422
 429  248.8925
 430  76.88313
 431  -26.55384
 432  58.30319
 433  178.1268
 434  119.5117
 435  25.90017
 436  -51.80192
 437  -81.23135
 438  -63.44193
 439  52.26838
 440  85.97685
 441  112.3784
 442  114.8781
 443  55.40023
 444  35.3119
 445  270.1825
 446  415.3396
 447  387.1219
 448  321.689
 449  292.3742
 450  271.3655
 451  125.7881
 452  206.91
 453  321.4298
 454  370.5751
 455  331.5865
 456  140.2231
 457  85.63634
 458  172.1225
 459  307.459
 460  261.6006
 461  248.4141
 462  322.2233
 463  373.8716
 464  275.1018
 465  35.80033
 466  11.66297
 467  9.358737
 468  56.64186
 469  -78.99792
 470  -29.003
 471  61.11272
 472  219.3141
 473  173.4759
 474  274.2927
 475  245.2532
 476  373.7896
 477  382.8443
 478  343.9807
 479  204.8121
 480  72.80323
 481  16.21725
 482  8.042053
 483  -28.2702
 484  -8.652318
 485  93.12753
 486  152.6907
 487  221.1147
 488  102.9224
 489  125.5616
 490  210.7043
 491  289.7483
 492  217.7467
 493  174.8359
 494  145.3653
 495  167.6915
 496  128.9676
 497  241.0147
 498  264.7866
 499  286.53
 500  238.764
 501  152.5244
 502  85.93993
 503  112.7617
 504  189.2002
 505  283.8619
 506  340.0889
 507  461.3922
 508  300.942
 509  194.5265
 510  157.5413
 511  355.9958
 512  347.5163
 513  191.7298
 514  33.73618
 515  107.3858
 516  189.5236
 517  161.6784
 518  83.09509
 519  87.04729
 520  151.4106
 521  180.2432
 522  132.829
 523  186.9607
 524  141.0504
 525  187.0282
 526  108.1647
 527  115.933
 528  176.4683
 529  310.0218
 530  364.1781
 531  316.6551
 532  196.6286
 533  233.1305
 534  237.0882
 535  275.1962
 536  175.8243
 537  216.3179
 538  208.0489
 539  201.1645
 540  133.1912
 541  159.6608
 542  229.0737
 543  235.2344
 544  248.0567
 545  132.7125
 546  179.2585
 547  199.3956
 548  202.1453
 549  94.73118
 550  8.283987
 551  -68.21037
 552  -63.24567
 553  82.21175
 554  249.5912
 555  250.755
 556  130.4729
 557  10.66864
 558  -50.94338
 559  -57.92944
 560  60.40538
 561  144.8812
 562  203.9493
 563  159.4333
 564  158.5445
 565  91.63025
 566  104.7039
 567  143.2709
 568  144.1052
 569  194.1843
 570  124.484
 571  196.6362
 572  147.4532
 573  97.25659
 574  88.79348
 575  143.736
 576  169.5646
 577  70.15749
 578  146.6808
 579  114.2363
 580  124.4817
 581  40.81688
 582  221.7281
 583  269.0415
 584  162.8285
 585  96.66533
 586  12.55018
 587  50.76895
 588  71.07883
 589  62.65229
 590  53.76359
 591  75.90034
 592  158.7224
 593  93.87775
 594  120.9895
 595  85.38779
 596  112.9665
 597  25.04102
 598  99.50421
 599  134.815
 600  217.282
 601  212.4716
 602  302.2163
 603  263.2724
 604  233.8709
 605  149.4397
 606  241.3952
 607  316.9923
 608  340.0656
 609  300.9715
 610  207.2062
 611  163.3058
 612  22.01993
 613  63.39175
 614  54.07341
 615  95.06149
 616  109.7261
 617  97.57401
 618  176.5565
 619  64.24619
 620  74.31025
 621  -13.19489
 622  -1.113014
 623  -3.934664
 624  47.97834
 625  199.6616
 626  353.0458
 627  434.7654
 628  315.2399
 629  122.3057
 630  30.5477
 631  81.78825
 632  199.7986
 633  255.6456
 634  266.2957
 635  335.3302
 636  265.3783
 637  315.7825
 638  294.2102
 639  443.8432
 640  515.0096
 641  629.3631
 642  500.4742
 643  522.639
 644  521.8741
 645  686.5225
 646  779.4844
 647  842.4329
 648  863.7549
 649  876.4915
 650  831.9621
 651  692.8641
 652  514.9315
 653  406.7018
 654  396.6927
 655  393.2092
 656  356.1806
 657  222.979
 658  89.53197
 659  54.40734
 660  183.2347
 661  247.6927
 662  198.1653
 663  193.4165
 664  300.9132
 665  380.7666
 666  214.6928
 667  45.24619
 668  -73.22593
 669  70.31039
 670  152.3793
 671  276.1263
 672  151.3448
 673  147.9314
 674  78.90794
 675  216.7917
 676  229.3625
 677  327.7776
 678  290.1986
 679  195.7677
 680  213.6904
 681  293.9557
 682  348.7438
 683  90.22961
 684  -51.15967
 685  -19.97603
 686  39.72792
 687  -11.88038
 688  -57.32529
 689  53.05324
 690  110.8968
 691  144.6564
 692  136.8999
 693  255.1437
 694  341.5037
 695  397.191
 696  384.7341
 697  422.6571
 698  436.9762
 699  297.5147
 700  98.68637
 701  63.08841
 702  136.7475
 703  192.5006
 704  181.8312
 705  190.4293
 706  132.1411
 707  72.60561
 708  119.7451
 709  171.6628
 710  136.1305
 711  94.74007
 712  101.3432
 713  130.4234
 714  196.5163
 715  246.052
 716  215.7979
 717  219.9068
 718  148.1439
 719  177.7158
 720  95.39447
 721  54.63201
 722  71.92113
 723  142.9417
 724  211.3206
 725  98.74774
 726  93.6048
 727  196.08
 728  359.1119
 729  319.3229
 730  295.9572
 731  149.3647
 732  146.2778
 733  150.8398
 734  214.5249
 735  141.5052
 736  89.66178
 737  84.80608
 738  67.786
 739  -121.8517
 740  -125.8753
 741  -152.6211
 742  62.97751
 743  168.7825
 744  302.2603
 745  304.0896
 746  312.7957
 747  258.8015
 748  347.928
 749  260.1976
 750  233.9366
 751  314.9444
 752  448.8297
 753  523.2017
 754  354.0188
 755  296.7002
 756  295.7198
 757  239.2141
 758  206.722
 759  133.401
 760  154.431
 761  112.5837
 762  169.9597
 763  320.5662
 764  367.4836
 765  437.5332
 766  401.8184
 767  358.9908
 768  202.7685
 769  127.9751
 770  86.14543
 771  48.25851
 772  60.82555
 773  102.2056
 774  93.84033
 775  119.2289
 776  128.1363
 777  90.30601
 778  81.27337
 779  155.6548
 780  239.2555
 781  255.38
 782  181.4588
 783  90.10044
 784  65.69555
 785  67.41022
 786  84.85455
 787  -5.617685
 788  -7.004354
 789  69.19604
 790  284.1195
 791  376.7994
 792  303.8447
 793  166.1582
 794  162.2383
 795  216.569
 796  243.9768
 797  222.4068
 798  8.163167
 799  -174.662
 800  -194.9421
 801  14.35617
 802  125.6862
 803  134.2415
 804  204.2777
 805  238.8702
 806  214.3033
 807  106.0348
 808  89.37276
 809  15.50784
 810  45.39322
 811  124.9385
 812  157.1922
 813  121.9599
 814  13.34957
 815  33.64142
 816  124.1526
 817  204.4006
 818  255.8565
 819  222.209
 820  174.4604
 821  151.2347
 822  191.5359
 823  212.7074
 824  226.0338
 825  175.4604
 826  149.4207
 827  18.21584
 828  75.11836
 829  144.1524
 830  282.8186
 831  229.3888
 832  191.6102
 833  198.3176
 834  254.4742
 835  262.765
 836  102.0675
 837  61.4897
 838  18.3845
 839  174.3379
 840  257.5545
 841  256.6594
 842  143.23
 843  35.55859
 844  56.84608
 845  148.3713
 846  217.2446
 847  161.9104
 848  140.1186
 849  127.9028
 850  127.9807
 851  202.8716
 852  298.3629
 853  306.1571
 854  236.264
 855  277.5168
 856  401.2567
 857  267.8176
 858  205.5948
 859  87.06736
 860  151.874
 861  81.31278
 862  141.6019
 863  137.8243
 864  158.8587
 865  97.00822
 866  95.48059
 867  41.72032
 868  166.2577
 869  201.7169
 870  176.0053
 871  271.6794
 872  243.1088
 873  317.7749
 874  94.465
 875  156.9443
 876  194.7535
 877  288.6773
 878  216.1469
 879  106.1178
 880  124.1916
 881  196.7943
 882  212.4424
 883  162.8327
 884  96.62232
 885  102.0711
 886  172.2422
 887  169.0322
 888  114.9381
 889  47.2541
 890  -3.678946
 891  4.227187
 892  50.02388
 893  224.8007
 894  268.6558
 895  294.6362
 896  239.8839
 897  130.746
 898  -115.9678
 899  -249.4869
 900  -117.1052
 901  59.46421
 902  75.55153
 903  -50.02714
 904  -16.18102
 905  42.60435
 906  87.11182
 907  193.7847
 908  278.6825
 909  303.1316
 910  348.8498
 911  408.9154
 912  411.0599
 913  229.3456
 914  20.16934
 915  -52.36114
 916  -79.19081
 917  -10.63088
 918  21.5436
 919  153.7207
 920  281.2971
 921  328.0273
 922  327.6265
 923  381.0585
 924  405.7922
 925  342.4541
 926  211.1585
 927  200.2115
 928  227.0911
 929  80.48889
 930  -35.91133
 931  53.14799
 932  242.6929
 933  245.4302
 934  190.4206
 935  222.7538
 936  291.7907
 937  253.4733
 938  34.21305
 939  -202.2937
 940  -300.0613
 941  -238.2556
 942  -24.54909
 943  168.9836
 944  318.2554
 945  414.6274
 946  412.7033
 947  304.8365
 948  223.7157
 949  184.8973
 950  227.4192
 951  191.2405
 952  187.5759
 953  139.1367
 954  70.18407
 955  77.61263
 956  63.97364
 957  81.14351
 958  -31.51433
 959  -190.7109
 960  -142.5108
 961  -81.82219
 962  68.36417
 963  60.98252
 964  133.1185
 965  158.2721
 966  122.7251
 967  134.4354
 968  176.177
 969  235.537
 970  259.8048
 971  137.9357
 972  78.30544
 973  -9.365098
 974  41.9999
 975  137.2973
 976  131.1754
 977  177.5558
 978  144.5365
 979  111.2955
 980  13.3636
 981  14.91353
 982  111.9381
 983  211.3473
 984  161.0331
 985  193.9971
 986  163.2038
 987  248.5831
 988  209.1728
 989  256.1996
 990  159.0894
 991  81.03867
 992  56.86033
 993  110.0542
 994  70.44765
 995  63.1132
 996  106.0108
 997  197.4445
 998  125.346
 999  5.756104
1000  -40.29753
1001  4.795425
1002  100.0101
1003  129.5226
1004  237.5722
1005  283.0356
1006  287.4312
1007  269.3684
1008  274.524
1009  303.062
1010  139.5708
1011  13.28105
1012  -108.2042
1013  -95.70083
1014  -68.42632
1015  99.06528
1016  218.1139
1017  303.8644
1018  332.15
1019  230.7723
1020  14.73213
1021  -162.8504
1022  -108.2625
1023  22.82602
