# Input file       =  1186196071.12301_cleaned.dat
# Candidate        =  PSR_0332+5434
# Telescope        =  AR
# Epoch_topo       =  57973.121413460765
# Epoch_bary       =  N/A
# T_sample         =  0.002
# Data Folded      =  7340032
# Data Avg         =  0.0244526916326971
# Data StdDev      =  2.30747750783951 
# Profile Bins     =  512
# Profile Avg      =  350.206417451798 
# Profile StdDev   =  276.281288384718 
# Reduced chi-sqr  =  1.410
# Prob(Noise)      <  2.54e-09   (~5.8 sigma)
# P_topo (ms)      =  714.466787389146  +/- 0.000145
# P'_topo (s/s)    =  -0                +/- 7.66e-11
# P''_topo (s/s^2) =  0                 +/- 3.38e-14
# P_bary (ms)      =  N/A
# P'_bary (s/s)    =  N/A
# P''_bary (s/s^2) =  N/A
# P_orb (s)        =  N/A
# asin(i)/c (s)    =  N/A
# eccentricity     =  N/A
# w (rad)          =  N/A
# T_peri           =  N/A
######################################################
   0  385.2299
   1  370.1014
   2  -74.24788
   3  -50.01341
   4  347.2174
   5  565.3313
   6  544.6125
   7  99.08469
   8  80.03203
   9  281.9182
  10  789.1449
  11  557.3374
  12  166.3993
  13  124.2619
  14  516.3444
  15  243.2291
  16  300.2516
  17  67.73103
  18  215.2441
  19  243.6554
  20  565.5027
  21  329.5145
  22  390.3906
  23  203.8287
  24  282.2145
  25  342.4781
  26  331.5154
  27  157.53
  28  357.1939
  29  718.0842
  30  714.0911
  31  506.6026
  32  452.9628
  33  464.4776
  34  294.7124
  35  85.11976
  36  9.077688
  37  348.4922
  38  499.4299
  39  170.3496
  40  86.89258
  41  185.3743
  42  288.3115
  43  227.5088
  44  264.1485
  45  -11.38833
  46  109.2001
  47  242.8365
  48  106.2876
  49  320.9936
  50  207.1747
  51  123.6791
  52  139.9446
  53  154.7242
  54  526.1145
  55  309.771
  56  164.3489
  57  264.955
  58  350.6147
  59  214.7878
  60  -14.24165
  61  340.7175
  62  380.6403
  63  769.4749
  64  713.465
  65  281.7539
  66  192.7846
  67  364.7131
  68  274.8328
  69  57.53474
  70  -56.30379
  71  -117.3606
  72  243.769
  73  396.827
  74  245.0175
  75  128.4653
  76  326.6904
  77  730.1154
  78  1088.771
  79  1271.794
  80  1358.668
  81  1614.48
  82  2106.168
  83  2035.314
  84  1198.106
  85  715.7484
  86  36.82161
  87  117.9501
  88  148.0992
  89  285.0461
  90  255.5054
  91  274.9213
  92  488.2111
  93  280.9966
  94  409.427
  95  191.5093
  96  229.7749
  97  552.6182
  98  430.509
  99  469.0776
 100  131.3983
 101  59.41057
 102  350.9346
 103  601.5684
 104  263.7858
 105  285.7998
 106  234.7426
 107  373.8037
 108  380.2294
 109  359.2715
 110  260.1257
 111  331.168
 112  582.4772
 113  583.0825
 114  531.2305
 115  288.769
 116  450.2887
 117  401.7281
 118  373.4239
 119  218.3247
 120  208.1859
 121  581.0248
 122  818.5159
 123  884.3433
 124  569.5379
 125  233.209
 126  242.8914
 127  468.1695
 128  464.4659
 129  374.6607
 130  468.6313
 131  449.0816
 132  314.4062
 133  337.1343
 134  381.9115
 135  133.531
 136  196.62
 137  261.7375
 138  371.9925
 139  334.2751
 140  245.8669
 141  295.0552
 142  137.1424
 143  27.18335
 144  485.2918
 145  547.0568
 146  413.9051
 147  342.7928
 148  -0.9291328
 149  349.3654
 150  423.5273
 151  749.3254
 152  900.4976
 153  283.9138
 154  285.7379
 155  430.1129
 156  360.7623
 157  326.076
 158  455.8639
 159  -3.81473
 160  97.48086
 161  245.4751
 162  -208.6017
 163  2.25621
 164  355.9335
 165  383.5827
 166  76.87229
 167  36.55131
 168  311.2964
 169  38.31336
 170  6.772198
 171  -65.0037
 172  -110.9495
 173  113.2064
 174  323.9576
 175  -104.8312
 176  224.1429
 177  564.0226
 178  183.8288
 179  251.0421
 180  327.7534
 181  141.3948
 182  14.13445
 183  -15.29135
 184  147.6514
 185  73.91751
 186  43.89215
 187  237.9562
 188  195.1462
 189  289.9476
 190  220.5338
 191  377.3156
 192  184.4528
 193  35.36908
 194  193.7026
 195  345.4286
 196  348.0651
 197  211.9258
 198  516.0936
 199  582.0026
 200  100.2919
 201  395.0972
 202  419.0188
 203  296.0968
 204  257.3719
 205  197.2346
 206  111.397
 207  220.0339
 208  565.9902
 209  265.3328
 210  379.0089
 211  406.8904
 212  447.4672
 213  245.873
 214  209.4083
 215  245.3161
 216  318.4658
 217  554.5687
 218  661.3993
 219  530.7671
 220  333.7115
 221  335.1495
 222  491.1776
 223  260.5327
 224  295.3135
 225  722.4391
 226  365.0461
 227  258.4209
 228  342.5717
 229  204.6232
 230  364.8835
 231  376.2642
 232  107.1069
 233  307.5081
 234  385.9072
 235  417.8046
 236  658.0564
 237  675.4568
 238  559.2858
 239  248.1155
 240  220.3901
 241  310.1574
 242  149.1395
 243  182.9625
 244  224.7948
 245  393.1232
 246  415.8942
 247  305.3934
 248  394.4263
 249  278.0556
 250  279.8863
 251  241.4457
 252  622.093
 253  351.1877
 254  206.9624
 255  267.0595
 256  250.6048
 257  261.2235
 258  512.723
 259  287.9527
 260  277.9095
 261  249.1904
 262  228.9776
 263  200.9405
 264  383.9268
 265  476.1839
 266  346.3266
 267  538.5839
 268  499.9207
 269  352.4005
 270  438.8355
 271  407.1185
 272  167.1868
 273  270.0134
 274  91.10191
 275  155.9505
 276  307.7233
 277  -145.2386
 278  -79.67636
 279  379.7603
 280  525.5336
 281  427.9515
 282  559.2852
 283  375.8206
 284  417.0126
 285  241.3465
 286  355.6137
 287  617.4282
 288  257.2057
 289  79.37678
 290  581.8206
 291  699.9113
 292  235.2557
 293  212.6998
 294  389.976
 295  545.9778
 296  293.3418
 297  279.9104
 298  609.6278
 299  516.0455
 300  317.2402
 301  574.7549
 302  550.1183
 303  496.4319
 304  375.6339
 305  453.8723
 306  794.3817
 307  509.215
 308  379.6435
 309  345.5203
 310  315.2861
 311  232.647
 312  354.9905
 313  317.6329
 314  332.6945
 315  315.2501
 316  645.4718
 317  333.5165
 318  189.506
 319  284.6647
 320  613.8781
 321  194.8756
 322  350.2293
 323  778.1866
 324  845.8317
 325  494.0214
 326  453.26
 327  699.8589
 328  613.1652
 329  391.4781
 330  233.8958
 331  198.45
 332  388.0037
 333  483.1978
 334  452.5554
 335  298.2566
 336  186.4306
 337  282.8797
 338  267.4592
 339  379.6958
 340  473.8114
 341  279.2147
 342  341.42
 343  441.1182
 344  283.6692
 345  341.9602
 346  657.5823
 347  384.3994
 348  529.375
 349  426.6176
 350  252.7741
 351  323.2977
 352  436.5041
 353  151.9823
 354  329.4188
 355  510.2992
 356  243.5464
 357  621.8549
 358  618.3018
 359  267.7375
 360  287.4456
 361  489.1122
 362  631.6981
 363  474.6767
 364  389.5261
 365  348.115
 366  203.7952
 367  633.5614
 368  629.8047
 369  796.4847
 370  462.7661
 371  264.3131
 372  79.89908
 373  358.2402
 374  514.0566
 375  492.5823
 376  697.9105
 377  291.8105
 378  38.81197
 379  169.8922
 380  547.4641
 381  347.8867
 382  442.6078
 383  563.3831
 384  199.9834
 385  423.5384
 386  211.614
 387  333.0554
 388  227.2958
 389  56.13428
 390  489.6971
 391  554.369
 392  -8.40173
 393  358.3501
 394  538.5941
 395  464.9189
 396  439.6801
 397  441.2216
 398  434.4747
 399  433.7866
 400  65.66776
 401  57.90379
 402  367.1449
 403  212.3553
 404  187.9139
 405  462.816
 406  544.6517
 407  635.4802
 408  191.3168
 409  272.8821
 410  420.4861
 411  231.2887
 412  18.89661
 413  20.47147
 414  125.3823
 415  265.4183
 416  184.4767
 417  118.5116
 418  110.3893
 419  418.8351
 420  383.3125
 421  373.2796
 422  294.3169
 423  431.9277
 424  623.1634
 425  477.3112
 426  496.6205
 427  559.0051
 428  406.0562
 429  403.5592
 430  311.3163
 431  494.5078
 432  370.9478
 433  298.0623
 434  193.624
 435  401.8372
 436  386.0464
 437  431.8605
 438  405.7091
 439  329.7701
 440  533.1277
 441  696.5118
 442  305.4273
 443  141.2335
 444  270.902
 445  23.49235
 446  288.4757
 447  286.7185
 448  108.4677
 449  112.5435
 450  190.0363
 451  23.23635
 452  -199.2742
 453  -107.0197
 454  306.2452
 455  146.4854
 456  105.6495
 457  301.1569
 458  367.9768
 459  490.2232
 460  289.1484
 461  174.7509
 462  218.5029
 463  402.5284
 464  528.9888
 465  315.5893
 466  223.6411
 467  298.1661
 468  392.6742
 469  302.0627
 470  112.7329
 471  162.6967
 472  438.4908
 473  96.61124
 474  136.7881
 475  176.9691
 476  6.33596
 477  206.1807
 478  636.4608
 479  501.533
 480  293.4428
 481  409.6756
 482  469.1157
 483  160.7227
 484  350.64
 485  330.1951
 486  84.56028
 487  81.63924
 488  271.1964
 489  250.5848
 490  444.9604
 491  481.83
 492  336.0161
 493  403.9372
 494  366.201
 495  585.1281
 496  589.595
 497  751.4383
 498  739.4667
 499  694.6735
 500  709.0051
 501  264.9797
 502  243.2492
 503  627.4122
 504  667.1581
 505  641.4335
 506  504.2848
 507  549.1016
 508  592.7763
 509  502.7419
 510  310.5081
 511  249.2589
