# Input file       =  1186956974.095455_cleaned.dat
# Candidate        =  PSR_0332+5434
# Telescope        =  AR
# Epoch_topo       =  57981.928160827025
# Epoch_bary       =  N/A
# T_sample         =  0.002
# Data Folded      =  7143424
# Data Avg         =  0.120762946792245
# Data StdDev      =  3.50940296981584 
# Profile Bins     =  1024
# Profile Avg      =  842.495836851763 
# Profile StdDev   =  293.113941345267 
# Reduced chi-sqr  =  0.752
# Prob(Noise)      <  1   (~0.0 sigma)
# P_topo (ms)      =  714.464446327553  +/- 7.8e-05
# P'_topo (s/s)    =  -0                +/- 4.23e-11
# P''_topo (s/s^2) =  0                 +/- 1.92e-14
# P_bary (ms)      =  N/A
# P'_bary (s/s)    =  N/A
# P''_bary (s/s^2) =  N/A
# P_orb (s)        =  N/A
# asin(i)/c (s)    =  N/A
# eccentricity     =  N/A
# w (rad)          =  N/A
# T_peri           =  N/A
######################################################
   0  774.8254
   1  763.6697
   2  878.5522
   3  911.0947
   4  954.7559
   5  912.524
   6  940.1896
   7  878.4012
   8  777.5157
   9  717.5389
  10  794.2068
  11  867.6981
  12  926.4379
  13  949.7159
  14  1069.525
  15  1021.048
  16  891.7569
  17  828.7244
  18  884.5247
  19  874.5734
  20  668.571
  21  770.7739
  22  895.519
  23  895.4506
  24  725.1721
  25  578.7925
  26  638.2594
  27  717.6711
  28  825.3881
  29  972.1783
  30  900.4339
  31  806.5844
  32  760.9571
  33  848.5992
  34  796.0167
  35  762.7915
  36  782.71
  37  754.7683
  38  699.2631
  39  692.2831
  40  681.3013
  41  606.4221
  42  666.1306
  43  618.7188
  44  662.8779
  45  585.3138
  46  762.4097
  47  889.0687
  48  993.3875
  49  940.071
  50  896.6532
  51  863.2742
  52  973.327
  53  1035.654
  54  1057.47
  55  951.2896
  56  917.6774
  57  945.5996
  58  907.5203
  59  906.873
  60  894.3733
  61  832.3377
  62  800.6016
  63  847.9957
  64  862.0978
  65  812.0352
  66  713.6234
  67  848.7757
  68  917.2885
  69  996.3253
  70  850.6401
  71  795.4183
  72  667.8185
  73  625.3118
  74  656.0235
  75  683.0824
  76  694.7492
  77  901.8546
  78  920.4644
  79  992.5847
  80  906.4722
  81  1054.043
  82  1019.496
  83  1037.649
  84  1081.112
  85  1044.16
  86  938.9202
  87  813.2637
  88  802.8536
  89  803.8412
  90  771.4432
  91  671.7193
  92  551.8683
  93  522.3604
  94  664.9956
  95  800.5193
  96  897.7857
  97  882.4391
  98  908.306
  99  911.0383
 100  885.96
 101  863.7374
 102  860.1001
 103  734.5749
 104  669.2512
 105  565.3842
 106  640.0082
 107  614.5654
 108  782.0379
 109  694.8823
 110  839.1554
 111  806.2966
 112  841.7871
 113  734.4643
 114  871.4913
 115  964.8835
 116  990.7911
 117  856.865
 118  713.9743
 119  601.1548
 120  624.7029
 121  687.8762
 122  787.3347
 123  714.2075
 124  749.2184
 125  806.4227
 126  919.3731
 127  1014.339
 128  1099.954
 129  1111.204
 130  864.2142
 131  796.1397
 132  782.8102
 133  909.5966
 134  919.3455
 135  1048.763
 136  1024.635
 137  966.2257
 138  869.731
 139  848.368
 140  752.7935
 141  735.8662
 142  746.4934
 143  915.5255
 144  908.7223
 145  971.1294
 146  899.6331
 147  892.2705
 148  824.2269
 149  784.1044
 150  920.028
 151  981.2662
 152  1021.735
 153  956.2122
 154  888.5092
 155  838.694
 156  838.1911
 157  782.1401
 158  800.916
 159  918.246
 160  1018.311
 161  877.9132
 162  773.5461
 163  738.4006
 164  833.5281
 165  796.5469
 166  856.8349
 167  884.9625
 168  892.4202
 169  820.4681
 170  825.1105
 171  804.3154
 172  869.8996
 173  932.1501
 174  966.6732
 175  877.1392
 176  844.7795
 177  831.8553
 178  735.6468
 179  714.287
 180  720.5365
 181  751.2842
 182  813.562
 183  884.3549
 184  868.3188
 185  778.5584
 186  790.5135
 187  844.7248
 188  710.7851
 189  581.1904
 190  658.1201
 191  816.1258
 192  862.6438
 193  835.1187
 194  762.9518
 195  777.0098
 196  709.5755
 197  803.1077
 198  779.202
 199  712.53
 200  604.3262
 201  617.0605
 202  658.0477
 203  726.7451
 204  843.8103
 205  931.7581
 206  918.9656
 207  837.8986
 208  789.3792
 209  891.9095
 210  1083.917
 211  1016.631
 212  905.1396
 213  793.0396
 214  795.2673
 215  862.9588
 216  943.9442
 217  939.2057
 218  947.4403
 219  949.1974
 220  982.2423
 221  916.4324
 222  744.2264
 223  776.8978
 224  775.1579
 225  790.2183
 226  702.3752
 227  750.1661
 228  902.7262
 229  807.3046
 230  754.1071
 231  705.2746
 232  895.6473
 233  992.1562
 234  985.2343
 235  978.5687
 236  911.1356
 237  883.3653
 238  737.7627
 239  604.1559
 240  423.3086
 241  554.9524
 242  670.1445
 243  837.4067
 244  782.339
 245  803.6896
 246  833.0861
 247  928.6281
 248  983.5765
 249  876.8404
 250  766.7286
 251  741.2191
 252  740.1331
 253  633.0057
 254  562.0381
 255  599.1332
 256  752.8385
 257  779.5352
 258  898.7882
 259  926.088
 260  946.6569
 261  940.7125
 262  1038.297
 263  1118.074
 264  1099.612
 265  1006.634
 266  1016.53
 267  1020.161
 268  1085.165
 269  1034.899
 270  1002.654
 271  871.9124
 272  884.2902
 273  955.9296
 274  988.2789
 275  835.4793
 276  805.5939
 277  794.7379
 278  869.1734
 279  932.4146
 280  1002.241
 281  1098.375
 282  1055.83
 283  998.7852
 284  917.2264
 285  970.1209
 286  971.9968
 287  946.772
 288  814.1201
 289  847.7481
 290  778.9114
 291  754.9346
 292  723.7038
 293  960.9549
 294  1013.158
 295  1039.226
 296  1004.526
 297  1036.179
 298  942.2035
 299  836.4697
 300  858.3454
 301  852.863
 302  880.6105
 303  859.0576
 304  804.7148
 305  794.1805
 306  803.1459
 307  865.9097
 308  793.251
 309  838.2824
 310  844.912
 311  872.1356
 312  883.6907
 313  792.7236
 314  775.9155
 315  754.6989
 316  829.3839
 317  857.4935
 318  822.1199
 319  899.8204
 320  840.8184
 321  751.7544
 322  570.4626
 323  594.1345
 324  805.4838
 325  873.3482
 326  951.9522
 327  878.4601
 328  932.217
 329  969.834
 330  1001.475
 331  912.2206
 332  851.5472
 333  737.3016
 334  786.2245
 335  709.3734
 336  774.3563
 337  741.9538
 338  787.5164
 339  854.1082
 340  864.916
 341  975.9151
 342  960.4824
 343  1025.703
 344  958.8065
 345  966.7079
 346  818.4562
 347  842.0844
 348  903.3724
 349  1052.324
 350  1053.224
 351  1076.849
 352  948.1085
 353  889.059
 354  924.8697
 355  924.0948
 356  842.2159
 357  740.4886
 358  816.0783
 359  974.2578
 360  1015.468
 361  984.1594
 362  892.4523
 363  830.3256
 364  738.6094
 365  763.4163
 366  793.6837
 367  769.2355
 368  740.8508
 369  790.3745
 370  809.8817
 371  800.1925
 372  799.5859
 373  831.0632
 374  818.4213
 375  804.7009
 376  842.8015
 377  898.9799
 378  936.3383
 379  911.1279
 380  895.0895
 381  863.6459
 382  844.7658
 383  783.2882
 384  801.5518
 385  827.6553
 386  801.0081
 387  771.5433
 388  844.8853
 389  872.5978
 390  860.7378
 391  874.0247
 392  899.0954
 393  825.0016
 394  687.5667
 395  700.8097
 396  822.3307
 397  823.6516
 398  844.9583
 399  801.2479
 400  755.3466
 401  760.5727
 402  815.6364
 403  857.0254
 404  792.8291
 405  747.0161
 406  815.7109
 407  893.1889
 408  951.5644
 409  1151.604
 410  1290.686
 411  1238.46
 412  1019.904
 413  929.5428
 414  1021.769
 415  1099.918
 416  1085.854
 417  992.5898
 418  908.6287
 419  833.9553
 420  790.1442
 421  705.2552
 422  835.2037
 423  871.5029
 424  975.0802
 425  882.5559
 426  959.0565
 427  1046.327
 428  1031.664
 429  1086.939
 430  1090.016
 431  983.6226
 432  939.4504
 433  808.1888
 434  816.2428
 435  707.3907
 436  796.5032
 437  813.2766
 438  858.5175
 439  825.1796
 440  853.9717
 441  845.2478
 442  837.6356
 443  803.3979
 444  835.6509
 445  866.6559
 446  990.5938
 447  957.486
 448  963.9487
 449  1018.535
 450  1017.207
 451  860.3123
 452  736.0688
 453  759.0943
 454  788.6144
 455  807.0674
 456  718.3193
 457  821.3119
 458  840.0388
 459  910.483
 460  850.8503
 461  998.5993
 462  975.0818
 463  914.6389
 464  831.7975
 465  883.9946
 466  930.986
 467  943.9565
 468  915.0462
 469  930.5349
 470  945.6793
 471  843.1245
 472  793.8902
 473  786.817
 474  870.0706
 475  931.937
 476  910.3889
 477  904.4764
 478  878.4766
 479  852.4032
 480  882.5503
 481  843.7866
 482  805.4531
 483  825.4119
 484  852.5807
 485  798.7238
 486  749.6526
 487  762.7933
 488  915.9344
 489  884.6948
 490  913.0687
 491  885.7485
 492  928.9964
 493  852.4673
 494  761.4912
 495  757.3068
 496  801.4169
 497  895.4778
 498  812.6713
 499  772.0385
 500  738.0809
 501  853.0322
 502  806.6428
 503  658.3406
 504  541.0795
 505  590.029
 506  526.781
 507  590.0415
 508  569.6636
 509  760.3854
 510  777.8604
 511  927.2273
 512  923.5256
 513  984.4628
 514  928.5356
 515  933.5618
 516  809.0261
 517  792.4726
 518  727.5821
 519  762.1318
 520  779.4217
 521  740.5518
 522  820.3397
 523  741.2233
 524  787.544
 525  822.4341
 526  907.3485
 527  821.429
 528  737.5793
 529  735.7678
 530  844.4977
 531  782.339
 532  772.8007
 533  669.965
 534  755.5229
 535  870.0142
 536  952.9637
 537  885.1938
 538  840.5402
 539  883.5229
 540  910.9676
 541  962.1475
 542  1096.39
 543  1154.528
 544  1033.501
 545  947.4446
 546  904.7313
 547  857.8289
 548  919.1419
 549  941.9497
 550  1183.846
 551  1108.146
 552  1042.911
 553  859.5766
 554  785.3876
 555  799.1903
 556  937.3439
 557  1104.498
 558  1014.748
 559  832.7687
 560  716.2234
 561  836.7919
 562  846.4448
 563  846.6708
 564  845.4756
 565  911.8547
 566  832.0512
 567  821.5674
 568  766.5019
 569  833.5273
 570  797.5508
 571  861.0768
 572  861.9356
 573  950.6238
 574  992.4788
 575  1036.872
 576  934.1003
 577  862.7449
 578  815.3458
 579  974.1594
 580  1034.657
 581  961.6305
 582  834.8457
 583  945.3464
 584  1064.024
 585  1000.9
 586  955.5479
 587  948.5094
 588  970.084
 589  830.8256
 590  862.1765
 591  852.1887
 592  847.8655
 593  813.8558
 594  809.8497
 595  747.9886
 596  683.5837
 597  758.5086
 598  813.6876
 599  735.3085
 600  809.9442
 601  869.8671
 602  899.7814
 603  800.017
 604  777.4777
 605  797.6806
 606  841.4626
 607  1026.752
 608  1142.366
 609  1114.69
 610  935.446
 611  934.6073
 612  956.1469
 613  1094.707
 614  1065.893
 615  1019.25
 616  796.6724
 617  733.4217
 618  735.3043
 619  710.1297
 620  625.0928
 621  694.541
 622  825.249
 623  891.1996
 624  842.4647
 625  972.4777
 626  885.6501
 627  764.7482
 628  683.5152
 629  782.2889
 630  842.8329
 631  812.5348
 632  772.4639
 633  827.0576
 634  827.8024
 635  884.0333
 636  837.9067
 637  719.7271
 638  818.4085
 639  947.4345
 640  1257.311
 641  1330.111
 642  1388.941
 643  1426.427
 644  1504.976
 645  1577.615
 646  1633.814
 647  1565.399
 648  1681.618
 649  1648.92
 650  1601.707
 651  1364.808
 652  1146.574
 653  980.2739
 654  825.6287
 655  881.6605
 656  870.3329
 657  777.4299
 658  609.563
 659  622.8071
 660  784.7482
 661  942.3679
 662  936.6088
 663  894.9397
 664  809.467
 665  891.4673
 666  961.3716
 667  928.3547
 668  830.74
 669  727.0303
 670  694.4944
 671  605.2756
 672  555.007
 673  701.2043
 674  715.2313
 675  858.4498
 676  694.665
 677  686.5971
 678  657.4106
 679  934.9064
 680  1085.754
 681  1103.471
 682  1001.978
 683  932.1245
 684  712.8242
 685  579.1652
 686  573.3654
 687  747.7981
 688  812.5879
 689  811.6657
 690  879.5861
 691  874.8021
 692  755.8126
 693  710.1652
 694  739.9137
 695  769.7617
 696  783.1718
 697  877.8117
 698  943.9534
 699  933.6177
 700  890.6165
 701  786.4323
 702  711.8564
 703  713.551
 704  839.4976
 705  762.7455
 706  721.5043
 707  670.8239
 708  771.6984
 709  812.3293
 710  805.0259
 711  840.0768
 712  872.2244
 713  882.37
 714  1026.975
 715  954.2889
 716  826.0281
 717  690.8595
 718  783.5768
 719  862.6786
 720  892.7271
 721  966.4813
 722  988.3949
 723  843.4167
 724  772.6075
 725  762.1793
 726  870.0108
 727  939.2709
 728  865.3196
 729  694.6451
 730  654.731
 731  768.9045
 732  920.3988
 733  845.2504
 734  736.665
 735  691.5195
 736  738.4948
 737  817.6144
 738  840.1144
 739  838.6597
 740  938.1849
 741  995.9963
 742  961.2986
 743  764.9895
 744  714.2948
 745  808.7726
 746  849.163
 747  918.9662
 748  935.2094
 749  955.5593
 750  807.5336
 751  792.4981
 752  813.9346
 753  743.8932
 754  775.258
 755  805.0012
 756  946.5791
 757  877.0825
 758  832.7552
 759  813.8873
 760  723.4767
 761  762.4427
 762  709.3792
 763  776.3462
 764  775.3882
 765  770.0345
 766  671.0901
 767  566.2448
 768  577.7912
 769  698.9813
 770  798.2308
 771  888.3541
 772  1005.602
 773  1066.428
 774  1082.731
 775  1038.76
 776  1006.846
 777  1034.382
 778  1025.276
 779  1080.318
 780  961.0161
 781  942.9578
 782  855.7999
 783  831.6881
 784  688.1921
 785  763.9323
 786  784.7627
 787  899.6312
 788  822.2491
 789  888.2279
 790  860.8151
 791  883.4493
 792  893.0649
 793  939.1877
 794  847.9692
 795  764.344
 796  689.8613
 797  610.423
 798  558.5826
 799  599.5485
 800  710.5041
 801  599.4491
 802  588.6275
 803  493.2507
 804  528.7473
 805  512.7341
 806  691.2013
 807  850.0617
 808  1014.896
 809  1000.751
 810  942.9213
 811  777.548
 812  811.2069
 813  903.8649
 814  993.3903
 815  859.7575
 816  859.863
 817  814.3312
 818  726.8858
 819  514.1785
 820  656.5853
 821  747.7551
 822  871.3909
 823  771.739
 824  851.2928
 825  789.4984
 826  742.2054
 827  697.8773
 828  761.8978
 829  837.4775
 830  834.2463
 831  777.2789
 832  705.1315
 833  706.0816
 834  761.6553
 835  782.9075
 836  711.3641
 837  838.041
 838  898.9985
 839  910.1428
 840  845.4334
 841  820.3746
 842  793.887
 843  771.4406
 844  812.2929
 845  790.1671
 846  745.8321
 847  786.0459
 848  782.0723
 849  708.9078
 850  661.968
 851  620.6097
 852  627.1423
 853  695.8478
 854  779.7661
 855  811.7068
 856  870.1017
 857  905.2179
 858  935.0493
 859  792.6121
 860  795.7889
 861  666.4481
 862  622.8419
 863  534.0634
 864  569.2641
 865  630.6651
 866  613.6354
 867  646.8376
 868  670.6741
 869  776.376
 870  882.4066
 871  881.4818
 872  812.6878
 873  754.0424
 874  850.9199
 875  863.1881
 876  905.7542
 877  842.0544
 878  875.1667
 879  794.2352
 880  775.7142
 881  651.7112
 882  680.4994
 883  614.2574
 884  603.0637
 885  646.6755
 886  661.5169
 887  562.4829
 888  689.5228
 889  813.1772
 890  920.9058
 891  805.328
 892  815.3804
 893  788.9096
 894  868.966
 895  801.8063
 896  793.3553
 897  793.9605
 898  929.1481
 899  912.5468
 900  760.0583
 901  685.6891
 902  696.16
 903  838.5976
 904  905.6734
 905  878.933
 906  907.0739
 907  872.1151
 908  913.464
 909  862.8755
 910  869.5189
 911  818.0914
 912  815.9388
 913  912.924
 914  888.2171
 915  823.4496
 916  764.9733
 917  811.2901
 918  808.9529
 919  660.3919
 920  720.6964
 921  675.7697
 922  810.5138
 923  788.1185
 924  841.1063
 925  826.1659
 926  883.6558
 927  975.5832
 928  873.8036
 929  658.4103
 930  584.7307
 931  688.6694
 932  736.6824
 933  695.5864
 934  534.2478
 935  672.942
 936  774.5801
 937  892.1971
 938  823.5067
 939  934.3143
 940  1025.351
 941  973.2297
 942  853.2107
 943  862.7449
 944  731.0798
 945  615.7336
 946  674.2703
 947  778.6642
 948  746.5775
 949  603.8199
 950  680.772
 951  821.8051
 952  890.9737
 953  954.2805
 954  878.6747
 955  859.5888
 956  717.3145
 957  789.7661
 958  891.3279
 959  971.8412
 960  931.6608
 961  829.3885
 962  785.6346
 963  716.4301
 964  786.2289
 965  654.7943
 966  632.0631
 967  594.3533
 968  712.4909
 969  718.7961
 970  764.228
 971  757.6502
 972  844.0309
 973  933.2701
 974  961.705
 975  881.4326
 976  936.7906
 977  959.3135
 978  1002.544
 979  821.2479
 980  761.7341
 981  764.9932
 982  814.9941
 983  792.2017
 984  682.4188
 985  698.9813
 986  768.5119
 987  880.7299
 988  943.4026
 989  842.5457
 990  727.4887
 991  715.2678
 992  772.0439
 993  778.3875
 994  743.9526
 995  720.5483
 996  610.1492
 997  549.3195
 998  563.4218
 999  583.7781
1000  645.4826
1001  730.7413
1002  808.5389
1003  795.4922
1004  832.7147
1005  914.7111
1006  1059.032
1007  994.9745
1008  1025.21
1009  988.8611
1010  942.3946
1011  817.2028
1012  774.9557
1013  820.7661
1014  851.5837
1015  872.5039
1016  892.4337
1017  787.841
1018  890.2359
1019  984.1482
1020  1010.628
1021  861.9397
1022  791.296
1023  793.8161
