# Input file       =  1186439960.113446_cleaned.dat
# Candidate        =  PSR_0332+5434
# Telescope        =  AR
# Epoch_topo       =  57975.944202701918
# Epoch_bary       =  N/A
# T_sample         =  0.002
# Data Folded      =  7208960
# Data Avg         =  0.0128368502354699
# Data StdDev      =  1.00002735744449 
# Profile Bins     =  512
# Profile Avg      =  180.77174394055  
# Profile StdDev   =  118.662422005346 
# Reduced chi-sqr  =  1.524
# Prob(Noise)      <  1.84e-13   (~7.3 sigma)
# P_topo (ms)      =  714.465902603302  +/- 0.000177
# P'_topo (s/s)    =  -0                +/- 9.51e-11
# P''_topo (s/s^2) =  0                 +/- 4.28e-14
# P_bary (ms)      =  N/A
# P'_bary (s/s)    =  N/A
# P''_bary (s/s^2) =  N/A
# P_orb (s)        =  N/A
# asin(i)/c (s)    =  N/A
# eccentricity     =  N/A
# w (rad)          =  N/A
# T_peri           =  N/A
######################################################
   0  967.489
   1  975.1996
   2  690.5149
   3  495.4453
   4  194.9136
   5  213.9812
   6  182.7285
   7  177.4452
   8  170.7992
   9  110.012
  10  174.9813
  11  153.0977
  12  113.7725
  13  89.16331
  14  130.0989
  15  173.7253
  16  168.3378
  17  241.2225
  18  178.1939
  19  23.53063
  20  219.5895
  21  343.8699
  22  251.387
  23  241.7203
  24  159.6991
  25  102.7332
  26  75.48836
  27  292.9637
  28  271.5644
  29  266.6082
  30  361.1516
  31  281.4113
  32  203.1541
  33  186.4225
  34  55.80138
  35  86.65458
  36  186.8236
  37  232.8596
  38  255.3001
  39  260.8715
  40  207.5554
  41  170.8752
  42  285.0666
  43  267.2977
  44  189.2721
  45  86.42027
  46  36.3707
  47  66.91569
  48  237.6971
  49  356.7498
  50  241.0763
  51  197.0858
  52  88.62375
  53  180.6373
  54  202.3691
  55  251.1388
  56  247.2542
  57  223.5353
  58  339.0495
  59  134.2532
  60  122.4217
  61  230.8885
  62  271.9381
  63  210.6916
  64  138.7862
  65  224.144
  66  226.8127
  67  221.6618
  68  308.5862
  69  341.2278
  70  262.5525
  71  103.8742
  72  166.7399
  73  29.23728
  74  122.4412
  75  76.80492
  76  180.47
  77  269.5398
  78  192.9133
  79  205.2994
  80  89.29936
  81  14.59626
  82  210.6828
  83  276.1349
  84  164.5371
  85  121.1952
  86  187.8176
  87  179.0269
  88  45.9621
  89  227.4837
  90  231.2906
  91  223.3511
  92  208.3415
  93  175.0717
  94  93.00789
  95  168.1024
  96  266.6339
  97  251.6725
  98  263.5623
  99  251.4099
 100  286.1182
 101  292.1505
 102  287.1821
 103  315.5829
 104  259.7361
 105  200.3296
 106  175.4823
 107  145.0386
 108  206.6708
 109  75.41693
 110  162.9084
 111  151.498
 112  48.82544
 113  172.5656
 114  222.3573
 115  243.2339
 116  252.5504
 117  228.335
 118  227.2538
 119  130.797
 120  130.2494
 121  199.403
 122  138.8207
 123  58.58808
 124  174.0945
 125  114.2993
 126  189.0873
 127  204.3607
 128  101.576
 129  140.1784
 130  87.39265
 131  244.0176
 132  217.2286
 133  144.478
 134  194.6453
 135  91.65003
 136  32.99594
 137  -76.61514
 138  -53.89286
 139  186.2602
 140  139.0498
 141  157.7749
 142  321.7042
 143  252.5915
 144  279.3321
 145  279.4666
 146  136.6195
 147  39.88129
 148  151.2188
 149  194.0138
 150  106.0266
 151  80.92609
 152  136.8375
 153  315.5263
 154  79.76105
 155  11.01634
 156  113.8616
 157  308.6026
 158  224.1093
 159  205.7204
 160  256.1871
 161  67.87389
 162  26.82884
 163  35.97047
 164  187.2369
 165  380.124
 166  343.0344
 167  210.7359
 168  178.9137
 169  194.2555
 170  128.5363
 171  15.47971
 172  118.9688
 173  134.2212
 174  46.71293
 175  112.1839
 176  252.4411
 177  156.4593
 178  128.8337
 179  157.259
 180  95.18633
 181  187.0016
 182  227.0721
 183  196.4786
 184  158.9049
 185  205.6198
 186  58.76823
 187  46.45867
 188  175.63
 189  178.5254
 190  237.9367
 191  239.9415
 192  221.2215
 193  160.7554
 194  116.9571
 195  52.76688
 196  209.7794
 197  177.4843
 198  126.1582
 199  -3.57368
 200  116.9692
 201  121.8173
 202  52.52628
 203  -10.55996
 204  -42.27467
 205  32.20647
 206  138.258
 207  137.7318
 208  133.0845
 209  218.9419
 210  144.748
 211  135.083
 212  -12.69063
 213  81.41449
 214  52.59908
 215  184.7358
 216  188.101
 217  166.9178
 218  275.3687
 219  193.612
 220  81.38287
 221  38.77813
 222  67.98666
 223  208.1788
 224  201.9765
 225  211.288
 226  244.197
 227  229.4078
 228  265.9716
 229  184.5224
 230  67.53133
 231  217.3815
 232  201.3585
 233  214.8586
 234  -30.08091
 235  -8.300896
 236  137.9461
 237  143.7954
 238  200.5141
 239  210.4372
 240  269.4155
 241  211.8755
 242  270.5458
 243  294.0011
 244  165.1487
 245  201.2838
 246  250.3919
 247  281.8
 248  212.0346
 249  254.5517
 250  204.1545
 251  205.5428
 252  245.4511
 253  205.2309
 254  227.914
 255  149.1469
 256  310.607
 257  282.0916
 258  243.6886
 259  163.1737
 260  111.3167
 261  157.1104
 262  86.52566
 263  92.10643
 264  192.7995
 265  138.799
 266  35.40874
 267  35.40431
 268  114.0923
 269  115.8167
 270  151.0868
 271  171.721
 272  204.1095
 273  214.1815
 274  138.4562
 275  99.27342
 276  -66.59203
 277  129.4191
 278  196.9755
 279  256.8262
 280  166.6386
 281  93.78811
 282  39.06732
 283  12.1171
 284  145.4942
 285  265.3545
 286  220.2644
 287  75.90842
 288  -41.84837
 289  77.78912
 290  122.9933
 291  99.46082
 292  80.86534
 293  233.6676
 294  270.914
 295  251.8101
 296  270.496
 297  243.5042
 298  186.6633
 299  129.9558
 300  127.6621
 301  245.3002
 302  376.5536
 303  155.5897
 304  206.4471
 305  387.1288
 306  307.9107
 307  337.7866
 308  397.5015
 309  316.9746
 310  228.7214
 311  154.1218
 312  141.8276
 313  167.4491
 314  187.0633
 315  199.1596
 316  139.1681
 317  227.1105
 318  139.5353
 319  193.8521
 320  174.5987
 321  106.2609
 322  249.6738
 323  176.4577
 324  -69.19148
 325  38.35955
 326  48.80974
 327  96.75945
 328  62.44004
 329  67.57596
 330  54.41508
 331  136.8765
 332  157.3465
 333  123.5571
 334  235.8924
 335  174.1459
 336  321.5104
 337  318.6062
 338  162.4011
 339  165.4437
 340  146.2959
 341  241.3291
 342  185.6682
 343  240.9046
 344  321.8495
 345  171.6114
 346  131.3611
 347  244.5312
 348  192.0468
 349  209.0336
 350  280.7311
 351  249.2664
 352  179.0763
 353  161.8392
 354  131.0006
 355  59.78775
 356  165.605
 357  52.01703
 358  181.4852
 359  348.3395
 360  295.7377
 361  131.3716
 362  121.998
 363  111.7922
 364  202.2069
 365  274.3549
 366  128.9426
 367  173.1542
 368  210.8096
 369  134.4626
 370  48.41736
 371  180.5211
 372  225.7968
 373  129.746
 374  266.295
 375  240.9713
 376  187.1117
 377  184.0535
 378  223.4897
 379  189.4715
 380  167.6463
 381  182.2039
 382  296.33
 383  196.2328
 384  74.90595
 385  191.9697
 386  175.9805
 387  38.06581
 388  24.60879
 389  111.0584
 390  198.6788
 391  187.3666
 392  225.9787
 393  217.6983
 394  165.9462
 395  81.97296
 396  53.40207
 397  244.5148
 398  283.5117
 399  209.0895
 400  241.6557
 401  239.7991
 402  139.878
 403  89.85799
 404  44.63068
 405  66.20152
 406  157.8123
 407  186.2229
 408  147.9459
 409  130.9797
 410  257.5683
 411  229.3351
 412  216.868
 413  202.2912
 414  233.8614
 415  331.379
 416  146.4843
 417  130.0598
 418  194.6241
 419  219.0575
 420  133.0416
 421  226.4449
 422  242.2205
 423  198.9583
 424  171.4237
 425  285.0388
 426  210.6452
 427  179.4999
 428  170.4632
 429  51.95132
 430  29.89919
 431  70.76307
 432  157.5418
 433  179.9815
 434  175.9735
 435  120.3602
 436  130.6457
 437  220.5505
 438  225.2503
 439  223.4985
 440  223.2525
 441  247.7383
 442  183.7411
 443  310.1099
 444  161.7516
 445  121.2558
 446  324.0407
 447  245.3068
 448  165.8387
 449  129.5976
 450  195.2001
 451  196.6395
 452  72.54324
 453  261.7109
 454  216.8595
 455  195.5177
 456  108.8183
 457  225.1302
 458  187.6656
 459  141.2694
 460  136.6312
 461  98.65137
 462  117.6798
 463  275.8813
 464  149.817
 465  106.659
 466  160.6815
 467  66.44089
 468  126.9533
 469  202.1915
 470  168.203
 471  237.7867
 472  243.5655
 473  63.88718
 474  101.3034
 475  116.9741
 476  194.816
 477  155.5248
 478  158.6096
 479  159.4949
 480  237.1654
 481  221.3077
 482  141.5367
 483  34.95015
 484  97.77306
 485  110.8002
 486  26.52359
 487  1.03042
 488  13.98322
 489  130.8447
 490  135.9487
 491  109.4567
 492  96.95089
 493  261.2746
 494  415.5909
 495  212.7767
 496  242.857
 497  204.3744
 498  108.2708
 499  69.01596
 500  141.8831
 501  111.0793
 502  64.41803
 503  173.7033
 504  308.5019
 505  302.8922
 506  311.3173
 507  349.1651
 508  371.5171
 509  498.5865
 510  542.8942
 511  789.9789
