# Input file       =  1187559996.112759_cleaned.dat
# Candidate        =  PSR_0332+5434
# Telescope        =  AR
# Epoch_topo       =  57988.907582323598
# Epoch_bary       =  N/A
# T_sample         =  0.002
# Data Folded      =  7208960
# Data Avg         =  0.0608886222757231
# Data StdDev      =  3.23165269487907 
# Profile Bins     =  512
# Profile Avg      =  857.321617817283 
# Profile StdDev   =  383.465245225292 
# Reduced chi-sqr  =  0.799
# Prob(Noise)      <  1   (~0.0 sigma)
# P_topo (ms)      =  714.46349452096   +/- 0.000206
# P'_topo (s/s)    =  -0                +/- 1.11e-10
# P''_topo (s/s^2) =  0                 +/- 4.98e-14
# P_bary (ms)      =  N/A
# P'_bary (s/s)    =  N/A
# P''_bary (s/s^2) =  N/A
# P_orb (s)        =  N/A
# asin(i)/c (s)    =  N/A
# eccentricity     =  N/A
# w (rad)          =  N/A
# T_peri           =  N/A
######################################################
   0  441.564
   1  315.3095
   2  604.8117
   3  912.2985
   4  1114.277
   5  895.9659
   6  624.767
   7  671.5675
   8  620.491
   9  364.9886
  10  686.375
  11  924.0659
  12  794.6292
  13  766.1063
  14  878.331
  15  1008.492
  16  997.488
  17  746.682
  18  970.506
  19  1331.789
  20  1131.637
  21  1009.923
  22  916.3137
  23  1221.526
  24  1181.805
  25  1133.434
  26  756.2593
  27  794.8781
  28  1121.126
  29  1047.938
  30  882.4561
  31  1103.338
  32  1049.475
  33  1048.295
  34  522.5301
  35  902.3349
  36  1039.757
  37  1113.955
  38  1371.275
  39  1153.23
  40  1087.777
  41  1280.641
  42  968.9078
  43  881.6831
  44  801.9413
  45  741.8713
  46  1038.752
  47  1035.344
  48  1146.71
  49  921.658
  50  991.6707
  51  987.7968
  52  1011.8
  53  852.5895
  54  942.0667
  55  1019.253
  56  598.4573
  57  547.531
  58  874.533
  59  863.3754
  60  591.2568
  61  1094.563
  62  676.3654
  63  354.504
  64  573.8118
  65  636.2697
  66  885.3848
  67  909.866
  68  747.068
  69  813.1097
  70  709.4356
  71  1069.862
  72  1162.489
  73  843.6895
  74  897.1592
  75  806.148
  76  985.9844
  77  906.7399
  78  827.3423
  79  820.5295
  80  938.384
  81  1135.531
  82  804.4941
  83  398.8475
  84  619.9886
  85  543.4302
  86  691.3909
  87  756.5182
  88  973.4603
  89  768.5266
  90  903.3522
  91  872.6786
  92  278.8409
  93  257.7197
  94  772.0925
  95  1044.524
  96  1175.482
  97  857.7856
  98  1192.931
  99  1043.857
 100  901.9627
 101  705.3632
 102  746.0641
 103  1041.553
 104  659.0512
 105  781.8262
 106  777.7047
 107  538.1595
 108  516.1869
 109  750.2618
 110  934.3865
 111  972.0345
 112  857.8459
 113  1012.213
 114  1182.118
 115  1261.24
 116  757.34
 117  788.078
 118  881.03
 119  876.8082
 120  900.9713
 121  833.6458
 122  679.8127
 123  503.6349
 124  501.3161
 125  502.7962
 126  853.7741
 127  746.3383
 128  826.4286
 129  829.8352
 130  1052.972
 131  505.3124
 132  601.7325
 133  451.2015
 134  560.9606
 135  753.5923
 136  1137.918
 137  967.2869
 138  1027.909
 139  807.294
 140  895.6035
 141  920.525
 142  955.5549
 143  882.9036
 144  1009.983
 145  772.9665
 146  542.7841
 147  908.1818
 148  897.8852
 149  888.4542
 150  771.1206
 151  891.894
 152  833.7551
 153  826.1218
 154  855.9765
 155  807.5889
 156  811.5848
 157  839.2086
 158  508.9857
 159  614.626
 160  719.7673
 161  873.1149
 162  1233.703
 163  1078.709
 164  778.7759
 165  762.0785
 166  801.7822
 167  696.8201
 168  583.2525
 169  447.2874
 170  872.2645
 171  1043.755
 172  829.6522
 173  886.157
 174  857.2148
 175  788.2538
 176  702.1452
 177  927.0448
 178  986.166
 179  665.1501
 180  852.2904
 181  861.4428
 182  1017.841
 183  957.6219
 184  863.9066
 185  805.4973
 186  609.1724
 187  1116.852
 188  1088.997
 189  818.6071
 190  519.0362
 191  736.5175
 192  676.4384
 193  775.4926
 194  712.269
 195  1026.394
 196  945.4708
 197  1040.834
 198  857.3643
 199  758.9853
 200  470.1823
 201  443.2775
 202  880.5993
 203  962.1749
 204  773.542
 205  617.1602
 206  641.1289
 207  743.9105
 208  534.3647
 209  787.6171
 210  993.3513
 211  1111.607
 212  705.5003
 213  849.9592
 214  849.7734
 215  544.9144
 216  809.3788
 217  904.4984
 218  929.5411
 219  1118.716
 220  1394.114
 221  1198.804
 222  953.1094
 223  788.6259
 224  809.1215
 225  707.4896
 226  622.39
 227  749.2889
 228  547.1813
 229  786.2035
 230  1130.758
 231  1000.981
 232  1094.07
 233  918.548
 234  822.5616
 235  1004.485
 236  781.32
 237  766.9602
 238  561.6775
 239  1059.161
 240  1064.885
 241  1010.387
 242  981.5083
 243  963.9991
 244  800.4334
 245  939.8818
 246  759.0665
 247  681.1171
 248  621.8184
 249  587.2825
 250  480.5747
 251  825.6961
 252  1156.793
 253  969.9805
 254  906.6978
 255  447.3561
 256  689.4286
 257  536.0994
 258  591.7761
 259  411.1523
 260  730.2521
 261  591.8337
 262  763.7703
 263  641.9573
 264  835.342
 265  737.3281
 266  870.0297
 267  768.9605
 268  899.975
 269  865.1622
 270  819.8172
 271  1037.379
 272  1026.11
 273  901.5685
 274  517.1911
 275  660.7071
 276  938.4697
 277  1164.537
 278  957.7155
 279  1066.253
 280  883.0435
 281  833.8741
 282  673.1045
 283  580.0704
 284  467.2992
 285  711.7064
 286  686.9672
 287  971.0039
 288  636.6998
 289  362.5114
 290  788.5892
 291  869.7109
 292  615.8794
 293  128.0071
 294  523.1474
 295  952.6647
 296  660.87
 297  718.9318
 298  786.5106
 299  811.7202
 300  1037.153
 301  917.3022
 302  892.2203
 303  1006.853
 304  1224.148
 305  865.4747
 306  1021.771
 307  912.5931
 308  950.1088
 309  801.408
 310  375.1831
 311  700.7719
 312  1038.525
 313  1115.207
 314  1072.6
 315  870.629
 316  566.7145
 317  778.2394
 318  1010.937
 319  1197.258
 320  1085.305
 321  981.9818
 322  867.9063
 323  977.8652
 324  807.7672
 325  1024.299
 326  1170.622
 327  1397.006
 328  838.5232
 329  813.1524
 330  980.8931
 331  1194.074
 332  1442.269
 333  1568.486
 334  2153.092
 335  2371.637
 336  2298.14
 337  2178.886
 338  2184.202
 339  1528.305
 340  849.3509
 341  1024.293
 342  1175.115
 343  709.1404
 344  793.3349
 345  762.2248
 346  667.4565
 347  861.1127
 348  836.2654
 349  1013.669
 350  1074.749
 351  947.819
 352  908.6406
 353  838.8456
 354  903.433
 355  892.1384
 356  880.1077
 357  729.0952
 358  684.1981
 359  754.5818
 360  702.5457
 361  719.9456
 362  776.2039
 363  771.3087
 364  562.1559
 365  1016.36
 366  993.6979
 367  543.1653
 368  732.9855
 369  1126.719
 370  756.5348
 371  938.6
 372  993.5972
 373  597.489
 374  612.7361
 375  817.4664
 376  813.0184
 377  859.4879
 378  1117.31
 379  934.5931
 380  791.7247
 381  804.777
 382  1232.432
 383  1046.69
 384  887.1471
 385  915.9702
 386  827.3538
 387  555.1644
 388  356.8125
 389  412.1063
 390  682.1622
 391  551.6712
 392  741.2146
 393  828.6281
 394  916.9184
 395  774.5184
 396  815.6171
 397  822.2629
 398  943.3784
 399  986.5599
 400  803.1561
 401  1070.944
 402  772.1816
 403  671.5062
 404  1009.854
 405  875.3392
 406  702.4588
 407  755.8511
 408  784.476
 409  849.4041
 410  622.5269
 411  1233.031
 412  1180.124
 413  1318.13
 414  1120.323
 415  1199.043
 416  1170.596
 417  1044.103
 418  937.4338
 419  713.6632
 420  948.289
 421  884.242
 422  747.3583
 423  661.8197
 424  541.6133
 425  752.7838
 426  696.6268
 427  886.3242
 428  755.9745
 429  634.9302
 430  727.6118
 431  1060.461
 432  863.5214
 433  877.7521
 434  1151.527
 435  1208.357
 436  1385.226
 437  1178.802
 438  674.2565
 439  623.3355
 440  757.0695
 441  929.778
 442  1121.987
 443  749.0567
 444  824.6329
 445  1019.663
 446  972.6477
 447  841.9093
 448  815.7124
 449  1102.225
 450  842.0967
 451  849.6565
 452  744.5894
 453  696.4915
 454  910.5685
 455  839.0316
 456  709.6116
 457  810.2701
 458  797.6848
 459  681.4147
 460  861.2085
 461  909.5037
 462  451.1117
 463  635.0156
 464  928.9337
 465  1065.855
 466  929.5016
 467  896.7438
 468  1067.798
 469  860.0326
 470  780.4313
 471  975.6571
 472  993.6907
 473  1214.327
 474  922.5696
 475  984
 476  1259.003
 477  950.67
 478  761.4309
 479  777.1226
 480  809.5716
 481  961.2883
 482  900.9905
 483  936.3942
 484  590.5876
 485  830.1179
 486  816.6414
 487  833.439
 488  964.4608
 489  1021.69
 490  761.9097
 491  569.188
 492  823.8535
 493  952.1339
 494  539.0541
 495  645.4932
 496  777.3926
 497  775.3951
 498  602.2108
 499  667.7141
 500  554.9959
 501  799.5111
 502  543.6854
 503  469.8555
 504  670.9867
 505  706.4983
 506  609.7418
 507  683.1119
 508  614.8298
 509  681.3841
 510  803.3162
 511  537.249
