# Input file       =  1187331128.11481_cleaned.dat
# Candidate        =  PSR_0332+5434
# Telescope        =  AR
# Epoch_topo       =  57986.258647162154
# Epoch_bary       =  N/A
# T_sample         =  0.002
# Data Folded      =  7340032
# Data Avg         =  0.0528330982373776
# Data StdDev      =  2.77986677409479 
# Profile Bins     =  512
# Profile Avg      =  757.491748160466 
# Profile StdDev   =  332.841889585255 
# Reduced chi-sqr  =  1.671
# Prob(Noise)      <  1.21e-19   (~9.0 sigma)
# P_topo (ms)      =  714.464102442754  +/- 0.000216
# P'_topo (s/s)    =  -0                +/- 1.14e-10
# P''_topo (s/s^2) =  0                 +/- 5.04e-14
# P_bary (ms)      =  N/A
# P'_bary (s/s)    =  N/A
# P''_bary (s/s^2) =  N/A
# P_orb (s)        =  N/A
# asin(i)/c (s)    =  N/A
# eccentricity     =  N/A
# w (rad)          =  N/A
# T_peri           =  N/A
######################################################
   0  165.2417
   1  154.6527
   2  727.2687
   3  679.5176
   4  641.7234
   5  877.3363
   6  982.5665
   7  722.4984
   8  342.2029
   9  413.1673
  10  433.9428
  11  492.2818
  12  764.0999
  13  572.6581
  14  452.0919
  15  488.802
  16  510.5382
  17  974.0755
  18  533.6047
  19  484.3719
  20  492.4031
  21  567.6849
  22  731.6152
  23  805.7455
  24  683.14
  25  411.8948
  26  194.7535
  27  471.3846
  28  900.9478
  29  809.7022
  30  1025.111
  31  316.6096
  32  248.4396
  33  583.2544
  34  549.7126
  35  534.4744
  36  369.9021
  37  742.2334
  38  529.2297
  39  820.5521
  40  938.0805
  41  1011.294
  42  923.7859
  43  397.2831
  44  818.0652
  45  1065.151
  46  975.6806
  47  969.457
  48  929.0322
  49  761.6219
  50  838.0352
  51  844.6453
  52  1175.502
  53  830.17
  54  1007.783
  55  1297.406
  56  1309.826
  57  1075.593
  58  729.0435
  59  813.3874
  60  712.894
  61  777.624
  62  547.1248
  63  350.1458
  64  373.7693
  65  892.4794
  66  958.1933
  67  766.9151
  68  891.4452
  69  601.3989
  70  655.3074
  71  361.4554
  72  334.4217
  73  557.9993
  74  1302.54
  75  909.8145
  76  511.5563
  77  239.4206
  78  643.8367
  79  933.814
  80  811.7258
  81  663.3336
  82  879.3489
  83  588.5826
  84  71.88979
  85  119.3512
  86  453.1694
  87  459.8677
  88  467.3294
  89  350.1979
  90  336.9367
  91  512.502
  92  368.7312
  93  502.7853
  94  705.147
  95  813.501
  96  780.4954
  97  1061.422
  98  931.1078
  99  1106.047
 100  1120.171
 101  923.3624
 102  480.5992
 103  423.2293
 104  541.9533
 105  893.5833
 106  705.3538
 107  425.6665
 108  523.048
 109  483.6628
 110  591.1926
 111  782.3821
 112  1013.087
 113  1126.749
 114  1063.435
 115  909.241
 116  1046.74
 117  849.3663
 118  534.2213
 119  783.3712
 120  732.1399
 121  644.6696
 122  672.8908
 123  759.4209
 124  667.1213
 125  412.7231
 126  491.8235
 127  823.3199
 128  1091.862
 129  968.46
 130  660.3131
 131  310.9204
 132  463.0299
 133  687.499
 134  587.4068
 135  204.2925
 136  410.7584
 137  692.3807
 138  574.6949
 139  572.9435
 140  860.8321
 141  748.0349
 142  339.603
 143  259.5923
 144  355.6959
 145  346.9679
 146  270.4799
 147  639.4887
 148  708.3624
 149  845.5667
 150  245.3495
 151  96.84375
 152  536.1792
 153  638.7932
 154  685.4915
 155  776.7339
 156  868.9453
 157  486.0663
 158  413.5767
 159  342.9546
 160  337.7687
 161  94.36785
 162  226.8043
 163  641.5363
 164  832.4092
 165  832.0013
 166  888.5853
 167  786.549
 168  734.8908
 169  747.7125
 170  703.6736
 171  972.615
 172  946.4012
 173  1013.779
 174  964.8201
 175  557.93
 176  172.3345
 177  647.3187
 178  445.9288
 179  632.1984
 180  609.5043
 181  784.2638
 182  504.7579
 183  795.9339
 184  1036.676
 185  1184.613
 186  1322.168
 187  1071.391
 188  879.0943
 189  760.6096
 190  1117.567
 191  982.7978
 192  999.5669
 193  834.2553
 194  705.0613
 195  859.1638
 196  1180.972
 197  967.5235
 198  1058.533
 199  821.5927
 200  327.0283
 201  1020.323
 202  1231.55
 203  501.8732
 204  663.0046
 205  789.1809
 206  848.7733
 207  973.9916
 208  990.2846
 209  933.3253
 210  782.0305
 211  972.6534
 212  602.3418
 213  692.2709
 214  662.2938
 215  977.502
 216  1259.377
 217  969.4868
 218  993.1517
 219  1173.158
 220  712.0617
 221  763.803
 222  809.5851
 223  1366.835
 224  1409.922
 225  907.0644
 226  939.1577
 227  668.999
 228  896.6209
 229  690.6996
 230  1075.393
 231  831.3167
 232  537.5647
 233  844.1419
 234  928.1249
 235  899.938
 236  817.8361
 237  861.8821
 238  1049.822
 239  1311.028
 240  1115.118
 241  880.2709
 242  701.9634
 243  789.4459
 244  1048.656
 245  1198.215
 246  1260.534
 247  829.9122
 248  765.3087
 249  1156.066
 250  651.3177
 251  828.1675
 252  962.9193
 253  883.4827
 254  870.4833
 255  794.8253
 256  1103.323
 257  964.2749
 258  1252.672
 259  570.2711
 260  455.1308
 261  849.1165
 262  939.0245
 263  1096.641
 264  1096.228
 265  1042.127
 266  1036.587
 267  1379.826
 268  1345.604
 269  1508.417
 270  1556.312
 271  1365.731
 272  1543.707
 273  1527.685
 274  1426.198
 275  1516.803
 276  1516.512
 277  1236.871
 278  1272.576
 279  1203.263
 280  762.4955
 281  878.0239
 282  558.0549
 283  805.1099
 284  1013.885
 285  757.663
 286  797.2568
 287  615.3839
 288  571.7758
 289  574.7524
 290  812.8974
 291  837.7389
 292  687.6385
 293  1112.875
 294  1374.439
 295  1161.315
 296  809.7241
 297  593.3057
 298  834.4151
 299  736.0166
 300  565.6954
 301  449.6156
 302  676.5011
 303  741.9824
 304  965.3049
 305  820.4908
 306  416.7288
 307  362.9141
 308  674.9639
 309  672.7275
 310  548.6879
 311  556.4598
 312  778.2262
 313  843.7889
 314  519.509
 315  216.5142
 316  167.6492
 317  639.6613
 318  816.6343
 319  798.2062
 320  610.8647
 321  839.6459
 322  1006.413
 323  611.4302
 324  432.8602
 325  200.1393
 326  549.7288
 327  769.4933
 328  868.1517
 329  638.5521
 330  827.3277
 331  993.97
 332  885.3895
 333  826.7809
 334  751.8453
 335  517.9539
 336  679.7859
 337  671.1877
 338  978.2221
 339  1035.5
 340  959.4997
 341  515.8625
 342  374.8463
 343  634.052
 344  920.0366
 345  676.9637
 346  390.0483
 347  399.5203
 348  742.0775
 349  708.0677
 350  962.8846
 351  1138.609
 352  670.796
 353  444.1103
 354  529.3498
 355  549.9658
 356  677.8352
 357  847.4211
 358  1092.33
 359  807.8282
 360  481.0926
 361  697.2756
 362  545.4554
 363  662.5895
 364  872.5686
 365  443.5973
 366  441.1187
 367  208.5039
 368  292.5303
 369  483.4702
 370  584.2753
 371  702.9006
 372  452.7982
 373  426.1023
 374  512.9634
 375  392.0602
 376  582.4767
 377  603.804
 378  261.9518
 379  505.0255
 380  904.6935
 381  875.3478
 382  449.306
 383  164.8304
 384  316.5209
 385  690.5668
 386  678.7732
 387  558.0865
 388  438.7505
 389  772.3613
 390  728.4772
 391  667.197
 392  785.5528
 393  543.1123
 394  489.3199
 395  403.3552
 396  547.5537
 397  638.6442
 398  756.2192
 399  923.4879
 400  783.7283
 401  645.4894
 402  667.6335
 403  954.9633
 404  669.1229
 405  761.6642
 406  709.7467
 407  185.6108
 408  391.7321
 409  592.2007
 410  432.5826
 411  616.4992
 412  725.709
 413  554.7394
 414  666.382
 415  623.3667
 416  536.2186
 417  217.9516
 418  357.7917
 419  861.6066
 420  524.4103
 421  300.1052
 422  749.9092
 423  850.5624
 424  577.7175
 425  448.0049
 426  593.9963
 427  566.655
 428  467.3514
 429  461.3777
 430  833.2797
 431  962.3661
 432  972.7503
 433  720.5312
 434  1079.715
 435  912.1714
 436  661.1132
 437  413.9411
 438  457.8904
 439  658.8979
 440  818.6426
 441  771.4738
 442  805.3455
 443  392.2236
 444  340.7174
 445  953.6843
 446  574.2159
 447  439.5088
 448  754.7067
 449  1133.816
 450  906.1426
 451  737.6793
 452  947.1748
 453  915.2838
 454  884.4995
 455  720.3495
 456  909.8034
 457  976.0453
 458  868.3406
 459  823.396
 460  353.5113
 461  665.4365
 462  1086.853
 463  1195.049
 464  1432.124
 465  1453.656
 466  1361.687
 467  2083.618
 468  2471.169
 469  2212.527
 470  2208.533
 471  1641.209
 472  1198.45
 473  1043.08
 474  616.3097
 475  724.3824
 476  870.4726
 477  699.6153
 478  647.0582
 479  841.0793
 480  1122.557
 481  963.7625
 482  1151.542
 483  1329.292
 484  1298.552
 485  1240.435
 486  874.8835
 487  1007.852
 488  699.0575
 489  538.5716
 490  377.7928
 491  480.0727
 492  541.0559
 493  854.4773
 494  844.2188
 495  779.116
 496  860.9733
 497  800.5397
 498  742.869
 499  812.0284
 500  744.5302
 501  666.9844
 502  680.9032
 503  840.2674
 504  621.3489
 505  854.455
 506  926.845
 507  1004.933
 508  579.4297
 509  563.8347
 510  800.41
 511  621.5392
