# Input file       =  1187301600.114617_cleaned.dat
# Candidate        =  PSR_0332+5434
# Telescope        =  AR
# Epoch_topo       =  57985.916887900661
# Epoch_bary       =  N/A
# T_sample         =  0.002
# Data Folded      =  7208960
# Data Avg         =  0.109505469847301
# Data StdDev      =  4.43951060715607 
# Profile Bins     =  1024
# Profile Avg      =  770.928144822035 
# Profile StdDev   =  372.495840506442 
# Reduced chi-sqr  =  0.516
# Prob(Noise)      <  1   (~0.0 sigma)
# P_topo (ms)      =  714.4637967895    +/- 4.88e-05
# P'_topo (s/s)    =  -0                +/- 2.62e-11
# P''_topo (s/s^2) =  0                 +/- 1.18e-14
# P_bary (ms)      =  N/A
# P'_bary (s/s)    =  N/A
# P''_bary (s/s^2) =  N/A
# P_orb (s)        =  N/A
# asin(i)/c (s)    =  N/A
# eccentricity     =  N/A
# w (rad)          =  N/A
# T_peri           =  N/A
######################################################
   0  760.3129
   1  805.1841
   2  843.4858
   3  862.5753
   4  753.7285
   5  779.9831
   6  868.1874
   7  865.5803
   8  731.6133
   9  699.8207
  10  820.0345
  11  816.1381
  12  770.5764
  13  569.6292
  14  623.4745
  15  780.7313
  16  993.1084
  17  1006.755
  18  878.6858
  19  882.6497
  20  921.7973
  21  995.2257
  22  928.9386
  23  925.037
  24  897.2023
  25  790.4402
  26  703.2881
  27  649.879
  28  616.3106
  29  549.896
  30  585.801
  31  668.6138
  32  759.4823
  33  853.2788
  34  829.5882
  35  614.8681
  36  525.0729
  37  725.8295
  38  923.2427
  39  893.4468
  40  787.1709
  41  728.8574
  42  797.7219
  43  825.6976
  44  850.74
  45  821.7402
  46  736.861
  47  809.5909
  48  832.9623
  49  855.8275
  50  729.9194
  51  704.6123
  52  804.5283
  53  970.351
  54  1003.371
  55  944.1631
  56  834.3425
  57  746.9072
  58  650.5049
  59  656.9382
  60  766.912
  61  749.3496
  62  759.9058
  63  705.0674
  64  621.3228
  65  610.0461
  66  648.7294
  67  783.8351
  68  774.9467
  69  802.9981
  70  905.0017
  71  977.9576
  72  944.6576
  73  778.9258
  74  797.9257
  75  902.8405
  76  867.6718
  77  896.5867
  78  819.5386
  79  732.9377
  80  652.2632
  81  726.0027
  82  672.2437
  83  626.0328
  84  717.9691
  85  778.2235
  86  694.6514
  87  563.2623
  88  677.3188
  89  700.712
  90  723.4912
  91  688.491
  92  850.7305
  93  809.2773
  94  689.9503
  95  586.4609
  96  533.5625
  97  535.8021
  98  622.5493
  99  821.4774
 100  714.8364
 101  660.8036
 102  765.7499
 103  885.8447
 104  759.4872
 105  817.3669
 106  825.872
 107  899.8669
 108  736.8859
 109  732.722
 110  725.5485
 111  646.2339
 112  722.452
 113  812.6498
 114  848.8679
 115  727.6984
 116  625.3365
 117  759.3148
 118  800.9892
 119  771.8382
 120  780.9346
 121  735.7621
 122  743.3745
 123  669.9219
 124  637.2664
 125  629.881
 126  642.5922
 127  690.9102
 128  770.8234
 129  779.411
 130  694.2921
 131  645.0084
 132  736.3553
 133  816.2125
 134  737.5534
 135  742.3251
 136  740.5407
 137  776.9719
 138  720.2867
 139  778.2535
 140  799.0615
 141  712.5433
 142  703.5815
 143  786.3508
 144  833.4938
 145  646.6577
 146  728.6484
 147  683.0756
 148  769.1278
 149  834.83
 150  1024.05
 151  995.3325
 152  678.6151
 153  660.4456
 154  607.3751
 155  851.4391
 156  784.2437
 157  766.5988
 158  713.9297
 159  647.9128
 160  634.6707
 161  570.2231
 162  549.3045
 163  553.2845
 164  611.6262
 165  710.9056
 166  715.6
 167  786.5361
 168  856.524
 169  887.6152
 170  948.3623
 171  1038.677
 172  980.2812
 173  949.017
 174  858.4418
 175  784.7223
 176  656.4545
 177  667.8096
 178  624.9142
 179  653.2982
 180  648.3917
 181  755.0402
 182  811.9058
 183  880.3941
 184  761.4657
 185  898.7431
 186  903.8824
 187  1049.016
 188  967.3171
 189  915.4824
 190  770.3116
 191  622.2896
 192  619.5898
 193  684.1927
 194  744.4737
 195  732.8289
 196  738.4809
 197  809.4329
 198  807.4437
 199  648.914
 200  698.0523
 201  874.7308
 202  988.3809
 203  811.0129
 204  738.0865
 205  669.2637
 206  595.5021
 207  598.5373
 208  685.3875
 209  741.0038
 210  721.5691
 211  822.939
 212  874.1192
 213  715.061
 214  613.8884
 215  695.1407
 216  836.4299
 217  690.9061
 218  788.8626
 219  853.0181
 220  903.28
 221  879.6382
 222  864.6313
 223  829.8783
 224  682.1981
 225  687.5316
 226  602.1714
 227  502.4248
 228  644.7535
 229  985.3237
 230  1060.357
 231  973.6219
 232  954.5281
 233  1106.928
 234  967.5027
 235  770.2232
 236  847.4736
 237  955.1609
 238  950.1208
 239  771.3243
 240  737.2258
 241  714.3141
 242  836.0238
 243  862.4115
 244  921.9044
 245  878.3434
 246  928.2452
 247  897.5911
 248  839.6223
 249  660.9823
 250  456.492
 251  472.4489
 252  526.6622
 253  674.178
 254  753.1509
 255  734.2921
 256  622.3062
 257  513.7162
 258  576.2313
 259  746.9429
 260  886.3814
 261  875.4919
 262  735.9678
 263  651.6041
 264  561.1727
 265  680.561
 266  864.9306
 267  924.77
 268  825.5732
 269  838.1311
 270  929.1426
 271  644.7139
 272  496.1445
 273  638.6168
 274  926.6917
 275  884.8979
 276  852.4802
 277  852.1392
 278  790.7258
 279  737.9831
 280  784.3611
 281  1035.113
 282  907.2123
 283  866.3203
 284  879.5057
 285  866.5909
 286  646.2369
 287  528.287
 288  574.0158
 289  688.4472
 290  801.2385
 291  918.6403
 292  749.988
 293  580.3142
 294  628.622
 295  699.5706
 296  788.5712
 297  797.7294
 298  979.3504
 299  946.7403
 300  901.8898
 301  885.8981
 302  986.9834
 303  993.7207
 304  942.4193
 305  836.1385
 306  698.3773
 307  597.9045
 308  688.5894
 309  796.2062
 310  773.4168
 311  716.5036
 312  816.7574
 313  855.3267
 314  840.6
 315  781.0893
 316  862.5114
 317  952.4895
 318  901.7825
 319  848.5045
 320  887.814
 321  919.6627
 322  722.228
 323  637.5572
 324  649.2771
 325  813.0016
 326  780.1609
 327  698.4065
 328  615.8289
 329  586.4626
 330  588.1311
 331  669.4214
 332  758.3771
 333  861.0446
 334  851.2235
 335  890.2203
 336  694.4641
 337  702.1646
 338  716.2227
 339  939.814
 340  851.616
 341  908.9925
 342  798.395
 343  691.81
 344  607.6297
 345  634.8512
 346  658.565
 347  668.9492
 348  713.0813
 349  775.1652
 350  870.3674
 351  828.5072
 352  845.5968
 353  792.8149
 354  942.4993
 355  1008.854
 356  1040.707
 357  820.8048
 358  647.4106
 359  506.5578
 360  562.4362
 361  597.8882
 362  677.9616
 363  757.3729
 364  742.0346
 365  699.5487
 366  791.8324
 367  814.0494
 368  798.0489
 369  647.3161
 370  737.4195
 371  861.9097
 372  999.9232
 373  894.0717
 374  796.9498
 375  768.1615
 376  829.407
 377  958.5263
 378  859.9484
 379  825.4569
 380  753.5446
 381  851.8247
 382  841.3083
 383  794.0671
 384  667.7017
 385  699.5953
 386  854.1412
 387  862.1105
 388  733.7399
 389  672.0946
 390  824.9548
 391  753.0126
 392  714.2814
 393  714.218
 394  788.022
 395  725.4332
 396  720.372
 397  706.7051
 398  709.455
 399  687.2783
 400  827.6169
 401  778.2935
 402  727.7552
 403  740.3361
 404  845.3461
 405  809.4557
 406  889.2705
 407  1182.714
 408  1272.461
 409  1115.469
 410  863.1776
 411  713.6673
 412  684.9517
 413  696.33
 414  843.1169
 415  849.4623
 416  691.2548
 417  571.3188
 418  462.2357
 419  559.943
 420  649.2953
 421  740.546
 422  845.2221
 423  781.5096
 424  848.2651
 425  744.2507
 426  620.2811
 427  586.8028
 428  675.0749
 429  841.5494
 430  811.5699
 431  831.5593
 432  786.1705
 433  921.0004
 434  892.2119
 435  879.3676
 436  784.738
 437  924.6777
 438  993.8762
 439  900.974
 440  799.1212
 441  634.2302
 442  602.634
 443  707.1723
 444  920.8281
 445  856.2334
 446  754.652
 447  626.2137
 448  590.2191
 449  477.8797
 450  582.7153
 451  786.2306
 452  830.5368
 453  693.3658
 454  584.6866
 455  697.7866
 456  744.7775
 457  673.6815
 458  695.2758
 459  773.0067
 460  782.7795
 461  744.9971
 462  794.9171
 463  593.9237
 464  577.079
 465  653.9907
 466  891.4659
 467  955.1579
 468  848.2842
 469  715.0245
 470  662.7277
 471  583.2569
 472  711.9119
 473  751.0684
 474  748.8839
 475  795.3613
 476  743.2187
 477  767.8277
 478  730.027
 479  775.5016
 480  893.9346
 481  859.49
 482  928.3687
 483  800.1968
 484  761.1716
 485  788.8943
 486  741.8925
 487  684.0057
 488  692.1454
 489  786.5504
 490  740.0219
 491  637.8251
 492  592.7888
 493  671.9334
 494  695.4709
 495  746.2242
 496  716.1771
 497  780.1699
 498  697.1866
 499  851.0675
 500  752.5715
 501  730.6686
 502  677.8558
 503  740.1254
 504  554.2706
 505  398.2866
 506  333.196
 507  373.0164
 508  479.6836
 509  703.4027
 510  828.3547
 511  872.913
 512  798.6376
 513  829.5532
 514  730.4052
 515  669.4402
 516  749.6703
 517  877.8572
 518  885.7441
 519  790.684
 520  666.2778
 521  576.6038
 522  411.3928
 523  548.0185
 524  755.4769
 525  897.3397
 526  1005.266
 527  1043.471
 528  912.6047
 529  732.3063
 530  698.2442
 531  746.5247
 532  758.0912
 533  874.1339
 534  962.079
 535  979.8621
 536  878.1525
 537  862.1022
 538  802.1236
 539  853.6052
 540  948.2732
 541  992.8775
 542  935.1865
 543  902.0342
 544  853.0562
 545  747.2578
 546  543.3008
 547  692.8817
 548  768.3116
 549  884.2638
 550  773.4351
 551  755.5322
 552  784.152
 553  805.9706
 554  850.921
 555  828.8909
 556  889.3489
 557  874.8643
 558  756.8007
 559  569.6725
 560  547.0219
 561  639.6438
 562  695.9271
 563  736.3232
 564  655.2413
 565  599.793
 566  538.1562
 567  703.8624
 568  1020.03
 569  1019.675
 570  928.3628
 571  802.8873
 572  820.8367
 573  700.6057
 574  808.4722
 575  840.2031
 576  899.452
 577  788.0113
 578  960.2899
 579  927.0529
 580  836.678
 581  868.52
 582  797.4427
 583  784.6642
 584  687.4039
 585  797.5548
 586  837.2729
 587  765.5305
 588  768.0474
 589  711.3356
 590  753.4489
 591  620.9711
 592  723.0648
 593  634.764
 594  507.0349
 595  453.7851
 596  507.0656
 597  631.2603
 598  677.2408
 599  793.3715
 600  883.3467
 601  873.8536
 602  788.943
 603  775.9599
 604  743.8749
 605  827.1349
 606  797.6315
 607  806.3864
 608  808.1504
 609  825.0699
 610  900.4991
 611  893.5115
 612  862.6545
 613  803.5028
 614  891.7256
 615  868.257
 616  854.9758
 617  666.6689
 618  642.7396
 619  657.4205
 620  733.6105
 621  764.2906
 622  765.9491
 623  735.3374
 624  637.3029
 625  584.0194
 626  561.7563
 627  578.0321
 628  703.8372
 629  857.3755
 630  972.6371
 631  891.0214
 632  925.7671
 633  956.484
 634  963.27
 635  827.0251
 636  913.9636
 637  1005.412
 638  1007.068
 639  1012.782
 640  1170.252
 641  1318.834
 642  1393.178
 643  1450.664
 644  1589.026
 645  1576.541
 646  1641.393
 647  1672.23
 648  1659.526
 649  1605.791
 650  1540.512
 651  1483.35
 652  1150.853
 653  942.5289
 654  644.9081
 655  653.2013
 656  691.5374
 657  851.304
 658  919.2549
 659  872.1198
 660  825.618
 661  851.2325
 662  873.606
 663  909.993
 664  855.436
 665  896.8284
 666  814.4617
 667  906.4587
 668  852.4286
 669  800.9035
 670  719.2366
 671  745.6478
 672  728.3953
 673  727.0843
 674  763.373
 675  806.8022
 676  933.0078
 677  923.1914
 678  851.3871
 679  635.6349
 680  484.368
 681  613.4885
 682  674.3688
 683  740.8959
 684  652.1725
 685  683.22
 686  688.8189
 687  656.5517
 688  707.892
 689  675.0965
 690  668.0206
 691  692.9331
 692  759.5529
 693  766.5213
 694  693.361
 695  653.8958
 696  733.5346
 697  763.568
 698  949.3969
 699  932.9867
 700  861.4799
 701  735.64
 702  749.0927
 703  663.9901
 704  574.7767
 705  579.6174
 706  709.2585
 707  841.058
 708  808.6457
 709  843.3315
 710  713.1673
 711  720.7056
 712  685.1202
 713  666.905
 714  725.8326
 715  807.3166
 716  995.8942
 717  868.7419
 718  862.4562
 719  806.3129
 720  736.9113
 721  605.62
 722  644.4869
 723  701.363
 724  780.629
 725  787.5297
 726  797.551
 727  669.8492
 728  597.297
 729  590.8338
 730  638.1937
 731  569.0741
 732  659.0563
 733  618.3798
 734  645.9257
 735  579.5117
 736  583.1773
 737  581.5329
 738  643.0781
 739  760.4609
 740  852.0533
 741  804.0499
 742  862.6189
 743  782.7053
 744  782.1719
 745  767.9572
 746  781.4523
 747  710.6553
 748  568.1448
 749  582.8345
 750  669.5304
 751  709.7568
 752  767.5862
 753  877.9024
 754  893.6321
 755  848.5588
 756  797.2849
 757  828.8776
 758  697.916
 759  636.17
 760  720.9229
 761  657.5563
 762  699.2697
 763  764.2719
 764  756.3352
 765  675.3835
 766  740.4406
 767  931.9706
 768  865.0439
 769  723.1656
 770  565.822
 771  557.08
 772  608.6528
 773  708.2739
 774  894.4269
 775  909.8027
 776  902.8625
 777  778.3071
 778  817.6341
 779  762.2598
 780  720.9929
 781  713.6785
 782  848.6605
 783  898.4792
 784  914.569
 785  808.7001
 786  752.0652
 787  696.8428
 788  631.1304
 789  727.2471
 790  703.1282
 791  683.9672
 792  586.2455
 793  601.4019
 794  733.4269
 795  630.0651
 796  712.5862
 797  731.9815
 798  635.9035
 799  436.4963
 800  483.1858
 801  592.5807
 802  621.7702
 803  634.8638
 804  741.3066
 805  748.0669
 806  593.7681
 807  612.577
 808  716.4733
 809  838.1758
 810  801.8643
 811  849.449
 812  862.6073
 813  861.4673
 814  905.2341
 815  895.0314
 816  779.6181
 817  745.6364
 818  736.8182
 819  639.6241
 820  431.5191
 821  562.725
 822  829.926
 823  865.0085
 824  787.1602
 825  886.4651
 826  924.5952
 827  898.2271
 828  829.2014
 829  946.6227
 830  914.3035
 831  888.2346
 832  831.6268
 833  763.0735
 834  785.1622
 835  961.4446
 836  966.1998
 837  866.1354
 838  748.0065
 839  799.7872
 840  825.1941
 841  891.3324
 842  912.8603
 843  950.8524
 844  851.2936
 845  725.4578
 846  526.4857
 847  488.0977
 848  520.9951
 849  624.9202
 850  697.8289
 851  750.4521
 852  687.8887
 853  581.4489
 854  510.8352
 855  677.9624
 856  909.0912
 857  959.5481
 858  886.0018
 859  922.0792
 860  842.3505
 861  843.3757
 862  895.702
 863  965.6662
 864  899.8965
 865  842.0308
 866  809.6623
 867  675.2056
 868  647.1069
 869  611.9714
 870  635.3983
 871  618.5748
 872  664.229
 873  757.0751
 874  625.6219
 875  600.0323
 876  695.356
 877  941.4373
 878  929.3629
 879  793.9658
 880  714.2914
 881  662.2391
 882  675.2986
 883  761.8399
 884  741.6723
 885  719.7903
 886  677.0479
 887  694.7147
 888  630.9771
 889  550.7208
 890  587.0585
 891  586.4634
 892  672.2147
 893  679.1876
 894  685.4395
 895  686.5367
 896  706.416
 897  735.3617
 898  754.9282
 899  818.9025
 900  959.5313
 901  1001.529
 902  1016.874
 903  876.307
 904  806.1381
 905  711.2185
 906  722.1756
 907  737.6796
 908  734.1497
 909  694.8925
 910  751.386
 911  689.1163
 912  722.6327
 913  738.7829
 914  770.2582
 915  777.8937
 916  808.6915
 917  902.9928
 918  870.2823
 919  734.6545
 920  762.3929
 921  771.3483
 922  859.7742
 923  877.1143
 924  845.9827
 925  727.8643
 926  546.4481
 927  573.3591
 928  721.6833
 929  728.1559
 930  771.7838
 931  812.162
 932  753.1555
 933  689.8063
 934  718.095
 935  760.411
 936  714.0653
 937  698.486
 938  835.1053
 939  829.306
 940  748.2233
 941  762.0729
 942  853.8702
 943  827.6231
 944  791.4413
 945  825.882
 946  798.4453
 947  662.2368
 948  621.6847
 949  643.5251
 950  725.1965
 951  769.8873
 952  887.3445
 953  714.5707
 954  557.2995
 955  570.494
 956  689.6452
 957  800.079
 958  930.0461
 959  1020.739
 960  1014.165
 961  898.7673
 962  805.8369
 963  712.0021
 964  732.2149
 965  839.798
 966  835.4329
 967  655.482
 968  559.6173
 969  615.855
 970  830.4625
 971  836.7509
 972  814.086
 973  765.6063
 974  758.4103
 975  699.7098
 976  496.3076
 977  348.4645
 978  401.4989
 979  569.5674
 980  706.813
 981  687.6438
 982  729.4497
 983  859.192
 984  889.3929
 985  849.5935
 986  710.7429
 987  655.6915
 988  732.1481
 989  747.3989
 990  705.4066
 991  594.57
 992  708.3077
 993  783.0727
 994  835.9465
 995  712.633
 996  746.7805
 997  674.3139
 998  645.8074
 999  718.5085
1000  841.3914
1001  827.8106
1002  838.9536
1003  982.3371
1004  1005.186
1005  958.7704
1006  914.3541
1007  830.3967
1008  801.5865
1009  817.6354
1010  807.7968
1011  728.1036
1012  532.5358
1013  485.638
1014  559.2094
1015  615.0589
1016  708.8312
1017  806.2638
1018  878.4594
1019  788.405
1020  627.7981
1021  613.2658
1022  599.2989
1023  674.571
