# Input file       =  1187301600.114617_cleaned.dat
# Candidate        =  PSR_0332+5434
# Telescope        =  AR
# Epoch_topo       =  57985.916887900661
# Epoch_bary       =  N/A
# T_sample         =  0.002
# Data Folded      =  7208960
# Data Avg         =  0.109505469847301
# Data StdDev      =  4.43951060715607 
# Profile Bins     =  512
# Profile Avg      =  1541.85628963609 
# Profile StdDev   =  526.788669571776 
# Reduced chi-sqr  =  0.546
# Prob(Noise)      <  1   (~0.0 sigma)
# P_topo (ms)      =  714.463796846912  +/- 5.54e-05
# P'_topo (s/s)    =  -0                +/- 2.98e-11
# P''_topo (s/s^2) =  0                 +/- 1.34e-14
# P_bary (ms)      =  N/A
# P'_bary (s/s)    =  N/A
# P''_bary (s/s^2) =  N/A
# P_orb (s)        =  N/A
# asin(i)/c (s)    =  N/A
# eccentricity     =  N/A
# w (rad)          =  N/A
# T_peri           =  N/A
######################################################
   0  1515.461
   1  1670.076
   2  1581.367
   3  1699.306
   4  1491.86
   5  1601.199
   6  1459.639
   7  1278.518
   8  1933.547
   9  1780.605
  10  1862.472
  11  1893.371
  12  1790.994
  13  1408.723
  14  1230.991
  15  1140.289
  16  1547.306
  17  1590.657
  18  1117.227
  19  1773.23
  20  1612.566
  21  1567.101
  22  1695.97
  23  1528.71
  24  1662.05
  25  1510.586
  26  1634.146
  27  1955.995
  28  1720.382
  29  1301.592
  30  1496.228
  31  1482.789
  32  1293.746
  33  1322.219
  34  1580.125
  35  1786.634
  36  1844.706
  37  1631.828
  38  1772.469
  39  1630.98
  40  1385.682
  41  1347.603
  42  1431.363
  43  1357.695
  44  1339.437
  45  1359.645
  46  1639.661
  47  1358.448
  48  1097.08
  49  1286.302
  50  1479.025
  51  1518.229
  52  1637.431
  53  1704.333
  54  1524.113
  55  1418.793
  56  1450.401
  57  1617.545
  58  1361.643
  59  1582.596
  60  1545.366
  61  1418.719
  62  1311.361
  63  1262.771
  64  1544.84
  65  1390.091
  66  1471.877
  67  1498.448
  68  1547.094
  69  1477.113
  70  1558.542
  71  1421.796
  72  1559.714
  73  1372.488
  74  1520.507
  75  1979.689
  76  1490.46
  77  1353.377
  78  1613.155
  79  1417.867
  80  1286.577
  81  1051.143
  82  1236.244
  83  1437.168
  84  1722.834
  85  1937.832
  86  1983.572
  87  1706.416
  88  1381.965
  89  1301
  90  1334.294
  91  1642.435
  92  1648.068
  93  1869.78
  94  1986.639
  95  1518.394
  96  1282.337
  97  1446.861
  98  1496.836
  99  1517.572
 100  1466.328
 101  1859.302
 102  1454.178
 103  1215.116
 104  1383.925
 105  1481.317
 106  1678.324
 107  1266.635
 108  1562.896
 109  1522.548
 110  1785.353
 111  1735.545
 112  1461.681
 113  1175.815
 114  1355.202
 115  2072.179
 116  2003.049
 117  1906.388
 118  1704.182
 119  1824.07
 120  1468.504
 121  1621.014
 122  1829.334
 123  1771.682
 124  1684.911
 125  968.0989
 126  1089.902
 127  1455.045
 128  1269.247
 129  1158.36
 130  1764.565
 131  1492.528
 132  1196.366
 133  1683.425
 134  1704.233
 135  1683.583
 136  1076.382
 137  1765.655
 138  1676.354
 139  1580.517
 140  1701.876
 141  1826.855
 142  1806.789
 143  1316.828
 144  1170.207
 145  1587.825
 146  1529.019
 147  1210.293
 148  1575.89
 149  1856.165
 150  1797.165
 151  1937.403
 152  1907.335
 153  1400.799
 154  1377.747
 155  1516.436
 156  1612.643
 157  1646.867
 158  1727.078
 159  1787.181
 160  1795.405
 161  1512.824
 162  1374.517
 163  1528.633
 164  1274.941
 165  1163.474
 166  1540.239
 167  1736.374
 168  1489.927
 169  1518.017
 170  1801.846
 171  1603.658
 172  1272.133
 173  1309.661
 174  1444.856
 175  1613.074
 176  1675.674
 177  1837.742
 178  2015.137
 179  1261.237
 180  1131.268
 181  1336.838
 182  1522.255
 183  1500.637
 184  1546.386
 185  1473.696
 186  1890.284
 187  1589.482
 188  1722.44
 189  1753.141
 190  1615.565
 191  1667.71
 192  1385.108
 193  1641.866
 194  1490.539
 195  1543.334
 196  1459.166
 197  1517.36
 198  1457.188
 199  1344.721
 200  1595.859
 201  1458.097
 202  1651.042
 203  1850.24
 204  2484.165
 205  1753.964
 206  1378.932
 207  1620.803
 208  1439.593
 209  962.2988
 210  1314.845
 211  1609.677
 212  1636.4
 213  1227.94
 214  1386.389
 215  1653.661
 216  1686.515
 217  1813.057
 218  1673.524
 219  1900.232
 220  1584.779
 221  1236.103
 222  1727.79
 223  1476.303
 224  1182.569
 225  1177.202
 226  1646.582
 227  1199.521
 228  1470.644
 229  1385.058
 230  1565.26
 231  1461.583
 232  1181.206
 233  1717.343
 234  1689.731
 235  1281.593
 236  1406.618
 237  1509.599
 238  1522.313
 239  1496.084
 240  1728.772
 241  1752.342
 242  1549.13
 243  1475.26
 244  1435.247
 245  1464.289
 246  1239.211
 247  1388.171
 248  1516.428
 249  1486.592
 250  1558.64
 251  1401.76
 252  1147.623
 253  684.0289
 254  1005.934
 255  1643.111
 256  1655.98
 257  1472.614
 258  1516.285
 259  1731.083
 260  1389.321
 261  906.9814
 262  1483.045
 263  1982.631
 264  1831.525
 265  1406.601
 266  1549.602
 267  1874.249
 268  1838.998
 269  1649.891
 270  1896.27
 271  1874.771
 272  1687.771
 273  1226.306
 274  1581.809
 275  1591.173
 276  1574.791
 277  1659.558
 278  1741.098
 279  1489.476
 280  1158.265
 281  1370.812
 282  1325.368
 283  1139.739
 284  1952.837
 285  1815.415
 286  1562.856
 287  1553.075
 288  1750.299
 289  1814.65
 290  1724.794
 291  1646.902
 292  1441.326
 293  1622.574
 294  1555.359
 295  1363.22
 296  1407.212
 297  1022.322
 298  1035.551
 299  1367.042
 300  1787.078
 301  1572.734
 302  1527.57
 303  1610.687
 304  1635.872
 305  1787.174
 306  1697.339
 307  1704.523
 308  1687.542
 309  1262.178
 310  1468.242
 311  1493.113
 312  1322.621
 313  1115.659
 314  1389.875
 315  1853.674
 316  1866.41
 317  1866.412
 318  1832.552
 319  2001.319
 320  2348.719
 321  2775.946
 322  3127.427
 323  3235.092
 324  3315.485
 325  3099.248
 326  2386.92
 327  1378.81
 328  1460.755
 329  1777.219
 330  1705.907
 331  1736.105
 332  1771.034
 333  1734.313
 334  1709.197
 335  1446.789
 336  1484.121
 337  1514.89
 338  1824.154
 339  1640.664
 340  1072.296
 341  1366.806
 342  1367.344
 343  1341.505
 344  1416.814
 345  1305.006
 346  1502.889
 347  1375.92
 348  1470.117
 349  1818.698
 350  1687.035
 351  1437.789
 352  1186.251
 353  1419.577
 354  1666.071
 355  1465.481
 356  1419.648
 357  1446.085
 358  1867.461
 359  1643.818
 360  1501.401
 361  1260.094
 362  1517.426
 363  1535.027
 364  1250.136
 365  1191.558
 366  1253.993
 367  1243.542
 368  1175.099
 369  1310.814
 370  1643.976
 371  1611.584
 372  1580.001
 373  1545.406
 374  1198.947
 375  1306.945
 376  1574.702
 377  1743.672
 378  1684.443
 379  1374.606
 380  1386.813
 381  1385.414
 382  1489.856
 383  1518.292
 384  1757.665
 385  1173.962
 386  1234.251
 387  1732.035
 388  1746.449
 389  1572.956
 390  1428.971
 391  1661.099
 392  1803.457
 393  1499.559
 394  1331.165
 395  1403.293
 396  1238.359
 397  1335.797
 398  1404.023
 399  1225.587
 400  968.7319
 401  1253.159
 402  1463.726
 403  1216.728
 404  1466.734
 405  1657.08
 406  1727.162
 407  1755.758
 408  1628.081
 409  1442.78
 410  975.5682
 411  1567.52
 412  1674.044
 413  1813.909
 414  1769.359
 415  1822.341
 416  1653.335
 417  1641.658
 418  1912.411
 419  1534.123
 420  1674.829
 421  1843.862
 422  1703.749
 423  1095.005
 424  1101.305
 425  1358.814
 426  1410.726
 427  1060.463
 428  1769.516
 429  1841.095
 430  1723.393
 431  1766.475
 432  1844.936
 433  1575.826
 434  1262.574
 435  1261.526
 436  1350.884
 437  1279.676
 438  1463.919
 439  1831.015
 440  1445.394
 441  1365.969
 442  1511.644
 443  1373.067
 444  1262.708
 445  1135.062
 446  1314.509
 447  1365.625
 448  1436.425
 449  1492.825
 450  1890.563
 451  1965.777
 452  1593.147
 453  1428.878
 454  1468.838
 455  1414.132
 456  1467.132
 457  1517.541
 458  1646.779
 459  1681.089
 460  1524.13
 461  1672.261
 462  1711.383
 463  1126.436
 464  1411.451
 465  1508.815
 466  1532.851
 467  1425.707
 468  1457.824
 469  1624.794
 470  1500.931
 471  1658.24
 472  1605.712
 473  1550.637
 474  1284.709
 475  1396.991
 476  1694.579
 477  1155.95
 478  1386.078
 479  1814.276
 480  2011.738
 481  1612.218
 482  1483.597
 483  1608.17
 484  1177.093
 485  1572.295
 486  1625.447
 487  1486.989
 488  1022.538
 489  817.2836
 490  1366.327
 491  1452.68
 492  1812.059
 493  1447.999
 494  1430.223
 495  1366.312
 496  1403.926
 497  1569.398
 498  1470.89
 499  1293.545
 500  1643.095
 501  1713.591
 502  2005.45
 503  1794.165
 504  1649.508
 505  1608.21
 506  1104.498
 507  1082.272
 508  1453.438
 509  1661.366
 510  1341.924
 511  1217.635
