# Input file       =  1187660879.113576_cleaned.dat
# Candidate        =  PSR_0332+5434
# Telescope        =  AR
# Epoch_topo       =  57990.075209647868
# Epoch_bary       =  N/A
# T_sample         =  0.002
# Data Folded      =  7340032
# Data Avg         =  0.0281162253741059
# Data StdDev      =  2.45733381461807 
# Profile Bins     =  1024
# Profile Avg      =  201.604604170704 
# Profile StdDev   =  208.047813175972 
# Reduced chi-sqr  =  1.179
# Prob(Noise)      <  5.98e-05   (~3.8 sigma)
# P_topo (ms)      =  714.463431463742  +/- 0.000216
# P'_topo (s/s)    =  -0                +/- 1.14e-10
# P''_topo (s/s^2) =  0                 +/- 5.03e-14
# P_bary (ms)      =  N/A
# P'_bary (s/s)    =  N/A
# P''_bary (s/s^2) =  N/A
# P_orb (s)        =  N/A
# asin(i)/c (s)    =  N/A
# eccentricity     =  N/A
# w (rad)          =  N/A
# T_peri           =  N/A
######################################################
   0  156.4332
   1  112.3519
   2  129.9136
   3  193.5424
   4  279.1991
   5  186.6712
   6  66.13876
   7  83.52671
   8  51.49319
   9  142.2542
  10  96.97892
  11  158.3824
  12  133.3383
  13  177.3026
  14  236.4342
  15  240.0427
  16  177.8247
  17  107.9728
  18  240.7474
  19  273.1426
  20  271.8826
  21  154.171
  22  190.1991
  23  215.9135
  24  161.9337
  25  182.1643
  26  197.9692
  27  220.0382
  28  265.2652
  29  344.8497
  30  324.2893
  31  239.3029
  32  214.9874
  33  246.817
  34  245.6329
  35  118.2147
  36  40.95325
  37  115.945
  38  223.0653
  39  243.669
  40  194.1239
  41  192.4418
  42  253.5173
  43  219.4741
  44  200.0179
  45  113.4403
  46  89.77767
  47  145.8922
  48  192.3777
  49  284.873
  50  159.1334
  51  91.65223
  52  136.3105
  53  374.7761
  54  434.6341
  55  349.0924
  56  258.7144
  57  207.1112
  58  198.7041
  59  144.1963
  60  179.2739
  61  152.7991
  62  233.3041
  63  245.8097
  64  226.9986
  65  289.7235
  66  276.7248
  67  232.8441
  68  258.9384
  69  352.089
  70  297.7012
  71  128.9217
  72  10.55045
  73  153.4699
  74  245.6709
  75  306.42
  76  279.3767
  77  175.5819
  78  147.9696
  79  141.0769
  80  252.1321
  81  232.2847
  82  356.4951
  83  342.0022
  84  355.969
  85  270.7972
  86  303.3503
  87  308.277
  88  312.8613
  89  242.494
  90  301.352
  91  301.8647
  92  287.8059
  93  81.3456
  94  64.05206
  95  74.43307
  96  180.4891
  97  182.5535
  98  244.1541
  99  173.2223
 100  260.8832
 101  327.5729
 102  270.4109
 103  197.0328
 104  198.333
 105  364.6022
 106  376.8943
 107  345.0623
 108  265.488
 109  239.2373
 110  315.7713
 111  342.7338
 112  190.1131
 113  21.97344
 114  44.06721
 115  190.2969
 116  265.4767
 117  256.4107
 118  233.0462
 119  199.4875
 120  242.0403
 121  156.5917
 122  127.2383
 123  113.4258
 124  207.4573
 125  168.1474
 126  217.8869
 127  133.6734
 128  82.19626
 129  135.329
 130  248.689
 131  281.2038
 132  244.2169
 133  207.1151
 134  170.4532
 135  86.02103
 136  123.0406
 137  246.3569
 138  337.1646
 139  268.2393
 140  218.746
 141  350.655
 142  392.8289
 143  324.0062
 144  203.1698
 145  272.1017
 146  342.3573
 147  360.4438
 148  223.2317
 149  163.6072
 150  147.5695
 151  148.7651
 152  62.45312
 153  -50.94047
 154  -54.75374
 155  -33.13994
 156  48.36777
 157  146.6301
 158  229.3869
 159  298.7244
 160  280.2314
 161  338.0774
 162  359.4621
 163  410.6505
 164  344.1731
 165  156.6236
 166  14.42717
 167  -6.027617
 168  -40.30701
 169  -111.915
 170  -60.90399
 171  138.0311
 172  281.984
 173  204.5055
 174  73.81403
 175  72.81097
 176  132.644
 177  191.1764
 178  33.86715
 179  -20.50564
 180  -59.53873
 181  56.84705
 182  148.4485
 183  170.29
 184  210.1174
 185  182.1696
 186  168.739
 187  146.1311
 188  152.5476
 189  164.2683
 190  174.0054
 191  351.4502
 192  494.3247
 193  396.8665
 194  267.9332
 195  26.95856
 196  29.09305
 197  2.521022
 198  66.96098
 199  46.96847
 200  145.0487
 201  186.6129
 202  148.814
 203  114.081
 204  166.2944
 205  243.272
 206  211.7795
 207  216.2921
 208  162.5563
 209  174.8426
 210  247.1833
 211  261.2523
 212  211.5417
 213  132.6026
 214  -65.7469
 215  -138.2822
 216  -233.2819
 217  -43.3826
 218  21.29856
 219  200.144
 220  151.79
 221  240.0664
 222  208.4851
 223  149.0895
 224  33.8849
 225  40.93189
 226  74.90355
 227  179.8405
 228  225.1541
 229  343.9867
 230  316.8712
 231  225.4313
 232  207.3814
 233  239.6128
 234  271.4847
 235  241.416
 236  317.2784
 237  395.3619
 238  464.9941
 239  318.5773
 240  254.9967
 241  149.4886
 242  145.688
 243  225.1596
 244  237.1678
 245  242.9281
 246  274.6124
 247  272.8876
 248  252.305
 249  256.2944
 250  291.6219
 251  242.716
 252  269.6271
 253  315.2433
 254  269.8452
 255  93.29095
 256  97.02733
 257  232.9731
 258  275.6094
 259  341.5592
 260  387.119
 261  552.0425
 262  526.4788
 263  433.5602
 264  243.6403
 265  212.8538
 266  240.1258
 267  221.0312
 268  229.4482
 269  285.8893
 270  371.4614
 271  336.3174
 272  296.8546
 273  131.462
 274  35.35946
 275  13.56158
 276  112.9624
 277  124.6485
 278  45.47612
 279  63.12833
 280  29.02672
 281  54.31025
 282  43.6667
 283  185.2358
 284  188.2666
 285  111.7561
 286  147.1913
 287  181.145
 288  237.6864
 289  193.2122
 290  203.531
 291  231.4389
 292  175.8225
 293  212.6953
 294  232.4769
 295  250.4375
 296  232.7296
 297  150.3319
 298  51.71358
 299  -47.46504
 300  -37.62934
 301  -58.29171
 302  -59.49728
 303  51.55012
 304  138.198
 305  256.7398
 306  215.117
 307  262.6782
 308  166.9107
 309  226.0029
 310  314.4091
 311  336.8498
 312  182.8237
 313  98.43475
 314  109.6879
 315  93.38712
 316  153.677
 317  249.3653
 318  364.9476
 319  417.3444
 320  412.2269
 321  375.6583
 322  237.4454
 323  109.6431
 324  71.0948
 325  110.885
 326  197.3683
 327  220.2342
 328  192.9149
 329  167.8984
 330  142.6088
 331  207.1538
 332  254.9195
 333  249.2893
 334  201.1517
 335  97.54182
 336  109.0971
 337  70.01365
 338  136.4016
 339  195.8976
 340  233.7493
 341  280.8007
 342  293.2464
 343  330.6907
 344  276.6032
 345  123.8235
 346  -2.527315
 347  80.21526
 348  283.9554
 349  301.7309
 350  235.8093
 351  145.084
 352  265.6301
 353  273.575
 354  268.4361
 355  208.6577
 356  230.5569
 357  306.2911
 358  222.6238
 359  94.46862
 360  26.17261
 361  114.6168
 362  115.0049
 363  130.8337
 364  222.6368
 365  241.7084
 366  148.432
 367  131.5315
 368  136.0281
 369  188.3681
 370  85.00225
 371  18.60335
 372  -61.016
 373  83.92919
 374  169.9363
 375  213.7226
 376  184.5766
 377  166.0645
 378  191.3285
 379  169.9217
 380  220.3797
 381  204.6339
 382  168.6817
 383  155.9429
 384  137.726
 385  141.0262
 386  85.66915
 387  135.77
 388  141.8789
 389  155.436
 390  131.2381
 391  186.1167
 392  164.7131
 393  118.2512
 394  35.06837
 395  112.4177
 396  153.7436
 397  256.2437
 398  230.8806
 399  288.5669
 400  308.3143
 401  405.0663
 402  268.5188
 403  211.6712
 404  95.14777
 405  185.2641
 406  165.8373
 407  153.8211
 408  111.6357
 409  225.4413
 410  276.2243
 411  302.3253
 412  207.1051
 413  239.642
 414  153.2788
 415  205.9814
 416  100.6374
 417  260.2631
 418  282.626
 419  319.6297
 420  243.9088
 421  213.5267
 422  85.2285
 423  148.8506
 424  204.2806
 425  423.6912
 426  380.3233
 427  298.6523
 428  242.8253
 429  264.8035
 430  271.193
 431  172.8953
 432  214.2237
 433  202.3764
 434  213.309
 435  133.2112
 436  165.1165
 437  181.7525
 438  174.7163
 439  93.82751
 440  -15.03174
 441  5.480149
 442  79.31419
 443  174.2542
 444  113.1012
 445  148.4915
 446  135.2854
 447  148.871
 448  111.5397
 449  118.6652
 450  220.1997
 451  266.3522
 452  298.3197
 453  228.0633
 454  190.6256
 455  212.3953
 456  183.2044
 457  143.9931
 458  155.7024
 459  302.1331
 460  370.3646
 461  248.8191
 462  213.5562
 463  215.5877
 464  255.3118
 465  198.5719
 466  177.4971
 467  231.7111
 468  190.3344
 469  236.9294
 470  336.2126
 471  458.3505
 472  359.6928
 473  327.7551
 474  270.5796
 475  340.82
 476  279.6867
 477  237.2363
 478  146.0711
 479  145.9355
 480  101.7886
 481  104.9406
 482  150.5936
 483  294.2834
 484  303.2225
 485  248.4745
 486  105.4608
 487  65.14851
 488  65.346
 489  116.3841
 490  221.2472
 491  297.2586
 492  357.0752
 493  230.0946
 494  167.6848
 495  183.757
 496  199.4774
 497  240.6397
 498  181.613
 499  133.6892
 500  108.6709
 501  85.6737
 502  56.65367
 503  36.05097
 504  78.65128
 505  80.76632
 506  -25.52671
 507  -41.72771
 508  15.02993
 509  80.19525
 510  182.8319
 511  266.3741
 512  310.6253
 513  179.9011
 514  196.31
 515  262.1387
 516  225.7589
 517  63.09268
 518  -188.0346
 519  -175.2283
 520  -104.7942
 521  162.8357
 522  281.3947
 523  358.3582
 524  228.937
 525  163.4701
 526  110.2606
 527  191.8733
 528  244.3578
 529  119.9752
 530  85.32549
 531  104.293
 532  178.1968
 533  161.1837
 534  209.1591
 535  247.352
 536  270.5403
 537  242.662
 538  186.1251
 539  176.8378
 540  164.291
 541  128.0666
 542  25.08419
 543  50.08274
 544  199.927
 545  197.0457
 546  118.6266
 547  69.98972
 548  237.3696
 549  215.5783
 550  143.8954
 551  26.87313
 552  175.7113
 553  315.2755
 554  313.9294
 555  202.9363
 556  26.0128
 557  -58.16509
 558  -69.16946
 559  -78.08698
 560  35.43942
 561  218.622
 562  365.232
 563  337.8184
 564  242.296
 565  298.4694
 566  295.1846
 567  250.1505
 568  200.2379
 569  328.267
 570  335.6292
 571  246.5842
 572  28.02866
 573  41.79175
 574  106.1343
 575  174.5144
 576  249.8452
 577  304.3557
 578  403.0554
 579  268.4982
 580  203.0569
 581  247.1295
 582  234.0392
 583  188.3239
 584  97.80163
 585  188.5909
 586  209.1484
 587  176.0665
 588  198.9563
 589  214.7266
 590  136.9391
 591  33.98829
 592  96.91329
 593  146.2545
 594  141.1721
 595  119.3943
 596  186.3892
 597  239.9435
 598  276.3595
 599  263.621
 600  147.406
 601  130.9844
 602  173.5804
 603  271.3521
 604  187.7722
 605  170.1222
 606  156.0722
 607  150.0295
 608  169.3113
 609  76.02538
 610  108.0828
 611  129.8067
 612  224.3449
 613  207.0249
 614  317.295
 615  293.9588
 616  272.1168
 617  147.5403
 618  174.8043
 619  247.1596
 620  152.1346
 621  72.15379
 622  52.53783
 623  17.5926
 624  -60.10757
 625  -114.1626
 626  59.05173
 627  261.1974
 628  328.8294
 629  282.5417
 630  177.5433
 631  130.5817
 632  242.3949
 633  243.0639
 634  325.4299
 635  298.9687
 636  398.4163
 637  382.3393
 638  341.308
 639  264.7274
 640  409.4506
 641  596.8137
 642  742.6292
 643  720.4407
 644  753.0098
 645  855.665
 646  1024.88
 647  1147.062
 648  1046.778
 649  918.0167
 650  724.5853
 651  700.27
 652  486.0019
 653  333.8401
 654  238.706
 655  311.0039
 656  346.1492
 657  283.2936
 658  209.6471
 659  175.7714
 660  242.9305
 661  334.2444
 662  373.3606
 663  322.2704
 664  228.2687
 665  140.9906
 666  59.66109
 667  90.90907
 668  202.1938
 669  180.5092
 670  261.8813
 671  271.5466
 672  415.1871
 673  438.5213
 674  432.1534
 675  359.7475
 676  352.155
 677  272.778
 678  316.1531
 679  342.9019
 680  214.1966
 681  173.6684
 682  58.15668
 683  140.7276
 684  211.3698
 685  326.4653
 686  368.6465
 687  283.5617
 688  73.9668
 689  56.82354
 690  69.53563
 691  235.9364
 692  246.9071
 693  353.0702
 694  315.1165
 695  319.4055
 696  153.5394
 697  176.3739
 698  153.5572
 699  236.7769
 700  176.1277
 701  106.2412
 702  5.666141
 703  67.41651
 704  92.7495
 705  -1.011275
 706  -38.02431
 707  16.73745
 708  107.7811
 709  111.5324
 710  223.2449
 711  315.9053
 712  227.2006
 713  20.61948
 714  0.3245373
 715  49.42234
 716  107.5486
 717  145.4727
 718  91.94828
 719  79.70827
 720  130.6735
 721  245.3512
 722  208.8199
 723  101.4597
 724  146.9157
 725  96.65548
 726  -0.9013385
 727  1.064832
 728  91.49197
 729  255.3176
 730  278.5521
 731  336.2571
 732  355.8321
 733  317.4048
 734  149.4346
 735  137.4504
 736  188.186
 737  359.376
 738  267.0431
 739  201.9712
 740  193.3345
 741  250.2077
 742  186.5633
 743  93.06281
 744  99.03555
 745  131.7871
 746  240.9071
 747  243.9059
 748  217.781
 749  80.50636
 750  65.73721
 751  181.8418
 752  189.1256
 753  144.175
 754  47.19597
 755  114.3387
 756  213.6268
 757  270.5568
 758  262.9101
 759  196.441
 760  161.7329
 761  157.1167
 762  242.4143
 763  247.7628
 764  154.815
 765  187.1362
 766  230.603
 767  331.6756
 768  320.0727
 769  359.5178
 770  260.4546
 771  109.9408
 772  79.17536
 773  152.1608
 774  254.6828
 775  243.7096
 776  214.7187
 777  217.0339
 778  291.9055
 779  342.9142
 780  348.8949
 781  285.4413
 782  142.3414
 783  100.2067
 784  67.64921
 785  143.4977
 786  135.5031
 787  125.0332
 788  131.982
 789  164.4502
 790  188.6823
 791  154.7127
 792  112.9647
 793  96.93781
 794  121.5133
 795  161.4812
 796  142.8749
 797  109.6561
 798  193.5646
 799  310.8402
 800  397.3713
 801  320.0291
 802  333.9905
 803  455.231
 804  436.7944
 805  288.2702
 806  168.9281
 807  221.482
 808  271.0813
 809  202.3472
 810  132.2992
 811  117.2871
 812  217.8492
 813  332.3195
 814  361.954
 815  336.1375
 816  298.4392
 817  260.7152
 818  156.9652
 819  121.0207
 820  121.8404
 821  145.0868
 822  186.3793
 823  323.6
 824  308.3433
 825  222.0438
 826  64.34093
 827  76.53658
 828  24.80301
 829  146.0786
 830  203.8444
 831  289.7476
 832  268.7667
 833  285.2417
 834  334.8812
 835  308.4498
 836  337.4822
 837  234.0144
 838  199.0661
 839  93.99016
 840  82.00004
 841  140.0308
 842  218.967
 843  242.6617
 844  161.1673
 845  114.6944
 846  116.3935
 847  183.811
 848  162.2401
 849  126.8174
 850  199.2375
 851  203.0578
 852  267.6547
 853  196.7843
 854  230.4274
 855  157.5693
 856  177.2216
 857  266.5702
 858  244.9214
 859  184.1926
 860  205.2693
 861  313.4058
 862  322.196
 863  237.6326
 864  165.5467
 865  107.5728
 866  206.6364
 867  363.1976
 868  445.1331
 869  387.4848
 870  314.4687
 871  340.0123
 872  245.3111
 873  151.4113
 874  100.2322
 875  158.4912
 876  243.2937
 877  286.3402
 878  210.1454
 879  195.5784
 880  243.9477
 881  265.1278
 882  197.5889
 883  168.3422
 884  244.8155
 885  265.6666
 886  304.8473
 887  317.8573
 888  233.4886
 889  135.1732
 890  15.63323
 891  41.45189
 892  126.4614
 893  157.9302
 894  251.2442
 895  288.9517
 896  287.7743
 897  140.945
 898  44.98722
 899  75.48783
 900  92.68475
 901  81.32449
 902  33.93243
 903  95.88249
 904  157.1118
 905  259.862
 906  274.0393
 907  176.2667
 908  231.1504
 909  177.7568
 910  232.4137
 911  251.7736
 912  222.95
 913  124.1745
 914  -52.74609
 915  -11.59307
 916  148.5401
 917  301.0032
 918  319.4065
 919  255.0078
 920  272.3226
 921  294.6375
 922  280.9238
 923  255.0099
 924  246.2941
 925  193.1308
 926  182.0762
 927  174.1816
 928  307.3536
 929  347.9694
 930  324.7974
 931  270.7953
 932  175.7918
 933  171.089
 934  117.2177
 935  147.9019
 936  188.6
 937  327.8187
 938  406.2649
 939  387.2886
 940  177.2071
 941  244.067
 942  232.7242
 943  271.9215
 944  227.0296
 945  228.2691
 946  270.6827
 947  227.8923
 948  212.1629
 949  207.411
 950  217.2503
 951  137.6078
 952  50.99744
 953  80.91947
 954  168.728
 955  180.4431
 956  155.1532
 957  107.6811
 958  95.54469
 959  54.19997
 960  126.0362
 961  139.322
 962  206.5729
 963  280.1392
 964  297.9179
 965  208.7493
 966  83.36208
 967  42.10953
 968  -28.87621
 969  2.598611
 970  83.14012
 971  313.787
 972  240.9823
 973  114.6128
 974  -30.37764
 975  2.497104
 976  199.0919
 977  238.9751
 978  298.5583
 979  234.1273
 980  314.578
 981  249.7642
 982  207.3539
 983  52.16847
 984  -13.59169
 985  -48.07343
 986  20.51472
 987  123.1643
 988  172.592
 989  150.2038
 990  163.9124
 991  207.6054
 992  287.0089
 993  359.8331
 994  313.3283
 995  279.8992
 996  233.1054
 997  335.7571
 998  307.7046
 999  281.7678
1000  147.6207
1001  166.9212
1002  234.1491
1003  261.1737
1004  203.5082
1005  177.8208
1006  231.5449
1007  254.0583
1008  242.1996
1009  192.6296
1010  186.3747
1011  263.8487
1012  276.0829
1013  300.7476
1014  271.9364
1015  220.512
1016  148.0086
1017  137.2575
1018  102.3274
1019  210.0725
1020  213.1045
1021  261.0718
1022  147.7164
1023  169.8668
