# Input file       =  1187990819.111274_cleaned.dat
# Candidate        =  PSR_0332+5434
# Telescope        =  AR
# Epoch_topo       =  57993.893959621229
# Epoch_bary       =  N/A
# T_sample         =  0.002
# Data Folded      =  7208960
# Data Avg         =  0.0632461517763495
# Data StdDev      =  3.0102158960153  
# Profile Bins     =  512
# Profile Avg      =  890.493354581324 
# Profile StdDev   =  357.18973718176  
# Reduced chi-sqr  =  1.278
# Prob(Noise)      <  2.02e-05   (~4.1 sigma)
# P_topo (ms)      =  714.463335692286  +/- 0.000119
# P'_topo (s/s)    =  -0                +/- 6.4e-11
# P''_topo (s/s^2) =  0                 +/- 2.88e-14
# P_bary (ms)      =  N/A
# P'_bary (s/s)    =  N/A
# P''_bary (s/s^2) =  N/A
# P_orb (s)        =  N/A
# asin(i)/c (s)    =  N/A
# eccentricity     =  N/A
# w (rad)          =  N/A
# T_peri           =  N/A
######################################################
   0  1268.387
   1  1057.378
   2  969.2687
   3  766.9419
   4  586.1458
   5  548.4421
   6  509.1864
   7  749.8202
   8  658.5125
   9  573.1875
  10  304.0526
  11  551.7773
  12  801.5201
  13  891.3309
  14  853.5157
  15  768.2258
  16  830.5891
  17  731.4967
  18  763.0167
  19  815.8464
  20  696.6725
  21  827.3542
  22  716.9012
  23  810.8968
  24  682.1461
  25  664.1024
  26  856.6995
  27  802.508
  28  756.6855
  29  631.0093
  30  502.5717
  31  731.4772
  32  903.7634
  33  774.7297
  34  1042.861
  35  919.8726
  36  814.3631
  37  343.8184
  38  589.1509
  39  818.4302
  40  723.6515
  41  1095.338
  42  913.7205
  43  752.0861
  44  573.2563
  45  942.7037
  46  787.7491
  47  649.2343
  48  795.0553
  49  1234.843
  50  1092.66
  51  688.7757
  52  1132.655
  53  1046.981
  54  436.5248
  55  424.152
  56  947.1378
  57  1069.945
  58  663.6398
  59  471.373
  60  520.5111
  61  456.5359
  62  464.0282
  63  603.8572
  64  423.3663
  65  567.1006
  66  826.4772
  67  1184.555
  68  866.7327
  69  402.238
  70  157.3927
  71  322.0572
  72  816.8264
  73  686.3029
  74  967.0524
  75  1226.367
  76  1199.106
  77  761.926
  78  638.038
  79  742.3318
  80  596.9702
  81  712.1198
  82  1202.573
  83  1089.279
  84  965.352
  85  720.6382
  86  370.007
  87  657.2056
  88  1030.918
  89  1235.401
  90  1399.849
  91  1182.857
  92  798.3498
  93  462.1741
  94  702.4442
  95  861.1385
  96  969.716
  97  858.7468
  98  970.3944
  99  1022.114
 100  656.1453
 101  790.4717
 102  712.188
 103  662.1826
 104  452.0241
 105  600.8
 106  698.266
 107  770.9569
 108  802.2659
 109  768.1602
 110  805.1938
 111  770.7753
 112  611.4277
 113  760.1282
 114  1068.462
 115  958.7065
 116  1033.675
 117  871.5909
 118  742.5504
 119  774.841
 120  640.7318
 121  922.1208
 122  1093.981
 123  862.7469
 124  331.7359
 125  658.5925
 126  521.5777
 127  456.8484
 128  478.488
 129  698.3546
 130  1047.901
 131  912.0528
 132  1018.258
 133  955.3229
 134  858.2049
 135  610.3891
 136  762.6401
 137  785.5161
 138  983.1088
 139  1063.479
 140  929.3041
 141  883.5546
 142  859.1353
 143  876.5513
 144  664.7386
 145  799.8324
 146  765.9214
 147  699.8165
 148  673.7668
 149  974.144
 150  1004.822
 151  957.576
 152  986.8727
 153  809.8878
 154  589.0766
 155  894.289
 156  1279.465
 157  1314.087
 158  1043.303
 159  662.3256
 160  479.4394
 161  737.2401
 162  710.6786
 163  415.7995
 164  563.5407
 165  627.6276
 166  942.5621
 167  892.2433
 168  422.2775
 169  191.9332
 170  197.1302
 171  703.4166
 172  811.1432
 173  1040.462
 174  1276.389
 175  1262.747
 176  1063.975
 177  927.4392
 178  942.5626
 179  1131.527
 180  882.123
 181  822.4225
 182  1030.281
 183  978.2475
 184  947.8886
 185  824.2791
 186  846.0164
 187  807.9757
 188  953.2123
 189  1170.159
 190  1123.118
 191  1178.734
 192  946.8724
 193  692.2332
 194  627.967
 195  626.2547
 196  594.0799
 197  1165.963
 198  1113.765
 199  1131.378
 200  884.6027
 201  624.9431
 202  1024.164
 203  1202.982
 204  1212.493
 205  911.3513
 206  945.3406
 207  1070.944
 208  1205.624
 209  1103.311
 210  1266.074
 211  909.2888
 212  759.9581
 213  962.7429
 214  1139.139
 215  1190.359
 216  1305.594
 217  992.2923
 218  620.3665
 219  1245.209
 220  1222.67
 221  1018.032
 222  847.3272
 223  865.8315
 224  911.4338
 225  753.306
 226  928.9812
 227  737.2312
 228  861.2226
 229  800.4257
 230  442.3964
 231  687.8423
 232  1336.905
 233  1396.24
 234  923.7345
 235  440.1473
 236  742.6287
 237  1045.531
 238  836.6653
 239  925.6244
 240  1228.095
 241  1087.257
 242  938.4133
 243  931.1951
 244  690.6434
 245  709.0004
 246  1011.266
 247  1223.754
 248  1166.989
 249  1072.3
 250  870.0795
 251  594.9738
 252  524.751
 253  848.6639
 254  962.2347
 255  902.7114
 256  903.9016
 257  933.4635
 258  885.5838
 259  965.5558
 260  1058.609
 261  781.485
 262  905.6746
 263  1115.75
 264  819.3612
 265  1010.276
 266  1112.414
 267  1296.383
 268  1108.245
 269  736.5369
 270  773.1671
 271  859.1782
 272  1072.048
 273  1070.226
 274  1053.793
 275  905.556
 276  961.3963
 277  1137.559
 278  1162.622
 279  1217.087
 280  875.5716
 281  657.926
 282  979.5568
 283  1064.029
 284  907.2046
 285  932.0244
 286  1155.716
 287  1051.893
 288  1046.37
 289  714.9577
 290  1165.624
 291  1103.445
 292  967.9756
 293  946.7299
 294  773.192
 295  1101.134
 296  1426.873
 297  933.6661
 298  771.0532
 299  917.3633
 300  874.7926
 301  872.651
 302  955.0118
 303  1062.303
 304  1058.387
 305  1245.743
 306  1415.429
 307  1317.964
 308  1176.519
 309  855.6947
 310  959.2357
 311  852.192
 312  1062.809
 313  801.2697
 314  745.9784
 315  614.9359
 316  375.7247
 317  824.0855
 318  1046.792
 319  1347.274
 320  1085.351
 321  1188.459
 322  984.9249
 323  924.0634
 324  663.1165
 325  719.9097
 326  601.2028
 327  806.2076
 328  663.3567
 329  913.8595
 330  916.4579
 331  1286.246
 332  1137.451
 333  698.4969
 334  759.3397
 335  941.0634
 336  1344.438
 337  1184.167
 338  821.5991
 339  981.9534
 340  563.1755
 341  730.7468
 342  995.9326
 343  1190.019
 344  793.7248
 345  660.8082
 346  992.9198
 347  978.8838
 348  723.6002
 349  902.3913
 350  1036.861
 351  871.331
 352  888.6718
 353  885.0373
 354  1119.875
 355  1323.327
 356  1337.493
 357  1324.747
 358  1356.589
 359  1499.36
 360  1711.206
 361  1848.426
 362  2069.473
 363  2556.312
 364  2735.816
 365  2776.801
 366  2457.501
 367  1965.751
 368  1426.958
 369  1182.12
 370  943.8286
 371  852.2676
 372  1256.95
 373  1120.552
 374  1154.562
 375  884.9778
 376  1015.311
 377  1144.986
 378  1108.423
 379  1150.412
 380  1097.749
 381  788.0641
 382  706.7363
 383  1050.967
 384  805.3721
 385  485.9689
 386  641.112
 387  843.1657
 388  901.5325
 389  686.6928
 390  462.2956
 391  668.9163
 392  992.2709
 393  752.6486
 394  590.6431
 395  792.794
 396  1002.275
 397  708.3907
 398  537.5177
 399  839.8926
 400  552.0132
 401  602.9326
 402  692.2208
 403  787.5066
 404  811.694
 405  802.2543
 406  744.1143
 407  507.1799
 408  857.5072
 409  802.6238
 410  954.7579
 411  1072.166
 412  952.4358
 413  978.4504
 414  965.048
 415  1051.087
 416  863.7634
 417  692.1061
 418  1241.462
 419  935.347
 420  1105.985
 421  1195.916
 422  901.2337
 423  889.6953
 424  933.2792
 425  982.0569
 426  619.8592
 427  630.5444
 428  922.0183
 429  813.4536
 430  1251.344
 431  730.2087
 432  624.6146
 433  778.0835
 434  534.179
 435  760.2997
 436  563.5828
 437  592.1592
 438  658.5299
 439  759.6938
 440  1067.339
 441  909.2191
 442  718.0574
 443  918.8326
 444  701.6623
 445  871.4493
 446  840.1483
 447  1080.388
 448  965.5518
 449  947.1221
 450  920.8367
 451  939.4559
 452  977.7663
 453  1045.069
 454  1162.305
 455  1012.674
 456  801.0457
 457  859.6949
 458  724.4855
 459  1161.812
 460  971.1343
 461  765.2148
 462  884.5643
 463  1306.392
 464  1209.101
 465  781.7128
 466  913.4354
 467  1160.263
 468  1271.648
 469  1118.523
 470  868.7247
 471  788.6017
 472  816.5219
 473  760.7314
 474  981.0342
 475  965.2551
 476  1017.045
 477  946.0349
 478  943.8471
 479  835.9673
 480  782.3352
 481  736.8293
 482  535.3393
 483  771.759
 484  1304.54
 485  972.9357
 486  1115.856
 487  1025.274
 488  463.3461
 489  597.8358
 490  506.606
 491  418.7115
 492  620.1564
 493  685.8604
 494  784.2362
 495  753.5828
 496  656.7242
 497  926.4487
 498  628.7151
 499  381.4478
 500  550.6953
 501  662.9638
 502  695.8698
 503  674.5496
 504  806.2252
 505  943.1918
 506  787.6589
 507  514.6368
 508  584.9757
 509  449.3388
 510  779.9805
 511  977.23
