# Input file       =  1187402369.104908_cleaned.dat
# Candidate        =  PSR_0332+5434
# Telescope        =  AR
# Epoch_topo       =  57987.083195658655
# Epoch_bary       =  N/A
# T_sample         =  0.002
# Data Folded      =  7340032
# Data Avg         =  0.0425852439096031
# Data StdDev      =  2.50408719684126 
# Profile Bins     =  512
# Profile Avg      =  610.502063663723 
# Profile StdDev   =  299.821963429989 
# Reduced chi-sqr  =  1.177
# Prob(Noise)      <  0.00343   (~2.7 sigma)
# P_topo (ms)      =  714.463673295241  +/- 0.000179
# P'_topo (s/s)    =  -0                +/- 9.42e-11
# P''_topo (s/s^2) =  0                 +/- 4.16e-14
# P_bary (ms)      =  N/A
# P'_bary (s/s)    =  N/A
# P''_bary (s/s^2) =  N/A
# P_orb (s)        =  N/A
# asin(i)/c (s)    =  N/A
# eccentricity     =  N/A
# w (rad)          =  N/A
# T_peri           =  N/A
######################################################
   0  444.2885
   1  642.9927
   2  692.2903
   3  432.4167
   4  515.3859
   5  607.2571
   6  669.5492
   7  718.5441
   8  488.1935
   9  1011.076
  10  884.1127
  11  668.7657
  12  743.1069
  13  812.9788
  14  559.0671
  15  540.7054
  16  445.7043
  17  546.9155
  18  538.9539
  19  670.3454
  20  511.9319
  21  600.3247
  22  696.6465
  23  587.2552
  24  708.67
  25  608.8695
  26  781.6472
  27  460.2914
  28  601.3922
  29  908.2252
  30  598.1026
  31  379.2997
  32  367.2069
  33  578.3313
  34  510.382
  35  594.8773
  36  419.6923
  37  454.3118
  38  568.03
  39  497.6911
  40  312.0886
  41  342.4285
  42  949.1599
  43  940.9537
  44  547.1832
  45  471.1816
  46  577.1321
  47  644.4384
  48  664.0793
  49  909.1241
  50  661.5555
  51  574.6837
  52  828.3805
  53  711.8417
  54  550.149
  55  399.6923
  56  261.4529
  57  279.334
  58  179.93
  59  289.1273
  60  464.6879
  61  532.9679
  62  531.1334
  63  537.7041
  64  232.7306
  65  393.314
  66  591.3752
  67  609.0963
  68  613.9726
  69  775.955
  70  408.0197
  71  265.6648
  72  291.4839
  73  226.8695
  74  570.4005
  75  649.8062
  76  714.1713
  77  758.4133
  78  835.3104
  79  1007.402
  80  509.8283
  81  514.2784
  82  294.4883
  83  533.5505
  84  482.0161
  85  616.2793
  86  695.2162
  87  736.2199
  88  623.504
  89  700.977
  90  419.6606
  91  225.4394
  92  498.266
  93  466.3382
  94  883.7423
  95  656.8983
  96  697.2932
  97  696.5129
  98  443.1486
  99  397.5104
 100  220.3702
 101  220.1225
 102  711.3354
 103  856.4587
 104  689.0016
 105  563.732
 106  652.819
 107  712.0086
 108  436.0475
 109  528.5441
 110  707.0067
 111  538.0369
 112  633.3849
 113  620.7145
 114  504.193
 115  785.0338
 116  1001.226
 117  483.2679
 118  394.2702
 119  596.7037
 120  554.3757
 121  282.1937
 122  427.7022
 123  434.0156
 124  611.3099
 125  704.6988
 126  675.9045
 127  807.6904
 128  986.8511
 129  931.4364
 130  352.8846
 131  344.9708
 132  462.0692
 133  661.6671
 134  537.7582
 135  368.926
 136  546.554
 137  796.147
 138  497.0285
 139  244.8631
 140  107.2578
 141  149.1674
 142  377.434
 143  512.5599
 144  564.1169
 145  464.6487
 146  708.1763
 147  567.8868
 148  354.5835
 149  254.6585
 150  603.6016
 151  659.5068
 152  459.1363
 153  710.3249
 154  543.2547
 155  887.755
 156  708.382
 157  790.8036
 158  812.0379
 159  534.6932
 160  630.9934
 161  934.2617
 162  884.8222
 163  683.9744
 164  743.4378
 165  449.6528
 166  565.0901
 167  508.0781
 168  414.6257
 169  507.0299
 170  265.6207
 171  309.3591
 172  510.065
 173  755.9941
 174  198.2236
 175  142.3636
 176  536.5695
 177  827.2015
 178  532.1032
 179  702.7758
 180  763.751
 181  502.8707
 182  403.8411
 183  657.5195
 184  643.7174
 185  538.0705
 186  735.8505
 187  665.6688
 188  973.1087
 189  868.8665
 190  930.699
 191  682.9592
 192  627.4115
 193  1111.1
 194  1102.843
 195  758.4352
 196  496.0241
 197  460.2461
 198  495.6395
 199  391.271
 200  455.2947
 201  533.9699
 202  978.5677
 203  770.1414
 204  737.0315
 205  635.8615
 206  315.8793
 207  269.1367
 208  550.1176
 209  745.9453
 210  456.4689
 211  395.8391
 212  957.8168
 213  949.6537
 214  703.5706
 215  386.5285
 216  127.6892
 217  629.0266
 218  462.7765
 219  540.9325
 220  285.8688
 221  428.61
 222  560.5822
 223  680.2141
 224  862.3653
 225  1210.356
 226  931.631
 227  956.4484
 228  1042.155
 229  721.3992
 230  681.6666
 231  645.6982
 232  808.812
 233  593.5244
 234  738.2097
 235  306.807
 236  530.5593
 237  533.2799
 238  332.8036
 239  532.9005
 240  348.5601
 241  426.9231
 242  691.2628
 243  414.7297
 244  611.6814
 245  724.0362
 246  489.3862
 247  367.8869
 248  506.4731
 249  445.1803
 250  712.2973
 251  552.032
 252  428.8972
 253  481.382
 254  389.9005
 255  279.0765
 256  589.9558
 257  588.2775
 258  1010.069
 259  700.8378
 260  594.0191
 261  610.7078
 262  421.8852
 263  461.9061
 264  378.3335
 265  303.4173
 266  338.1718
 267  497.5627
 268  377.3279
 269  351.7096
 270  276.1795
 271  204.8871
 272  380.4059
 273  487.7912
 274  782.086
 275  942.9866
 276  1084.395
 277  872.9137
 278  440.526
 279  450.3162
 280  656.4566
 281  911.2841
 282  642.2466
 283  280.9994
 284  694.5031
 285  746.1266
 286  738.7665
 287  701.3617
 288  786.5037
 289  440.7875
 290  358.7679
 291  783.9833
 292  656.1292
 293  626.4238
 294  793.7037
 295  607.1768
 296  732.3359
 297  523.2144
 298  383.4185
 299  451.8574
 300  555.2336
 301  899.8066
 302  733.8967
 303  310.1742
 304  401.3259
 305  807.8643
 306  1082.349
 307  783.4948
 308  395.6052
 309  301.1176
 310  636.0177
 311  620.6621
 312  460.2012
 313  259.2451
 314  532.255
 315  1048.37
 316  794.74
 317  754.2387
 318  754.4078
 319  702.0996
 320  716.0037
 321  1293.916
 322  1548.842
 323  1828.252
 324  1927.929
 325  1722.376
 326  1207.337
 327  586.5958
 328  703.9792
 329  718.0574
 330  978.007
 331  1037.787
 332  774.1642
 333  873.096
 334  885.6218
 335  543.399
 336  787.588
 337  749.4481
 338  624.2829
 339  726.829
 340  625.1262
 341  436.5577
 342  453.7092
 343  341.8912
 344  155.1869
 345  544.0374
 346  625.4849
 347  746.7544
 348  674.2311
 349  487.7852
 350  774.8186
 351  715.9186
 352  812.6697
 353  420.8223
 354  342.0879
 355  694.6629
 356  823.3235
 357  813.1453
 358  532.0898
 359  468.64
 360  648.9361
 361  627.432
 362  384.156
 363  487.2211
 364  725.9286
 365  546.2728
 366  852.1392
 367  734.2459
 368  606.2401
 369  639.3116
 370  714.0798
 371  686.8888
 372  852.8063
 373  553.3298
 374  153.0464
 375  -103.6025
 376  73.07065
 377  561.3539
 378  1004.33
 379  592.3331
 380  498.8532
 381  224.462
 382  212.0017
 383  540.8831
 384  736.7988
 385  660.4446
 386  711.7446
 387  479.3607
 388  780.9283
 389  620.741
 390  626.6505
 391  800.6981
 392  683.3401
 393  682.7266
 394  840.8898
 395  1096.562
 396  711.4956
 397  618.1675
 398  580.9674
 399  595.5001
 400  273.4858
 401  377.3611
 402  437.7986
 403  316.4436
 404  389.9541
 405  570.5186
 406  491.9988
 407  750.2192
 408  373.4553
 409  252.8876
 410  544.869
 411  333.6014
 412  344.892
 413  607.4786
 414  621.731
 415  1110.454
 416  693.2665
 417  209.7852
 418  243.318
 419  559.9792
 420  403.6887
 421  490.9499
 422  812.7513
 423  945.9985
 424  767.9316
 425  731.7332
 426  532.8495
 427  421.7427
 428  504.2888
 429  770.0714
 430  888.35
 431  594.4933
 432  635.317
 433  594.5319
 434  676.4634
 435  795.4515
 436  597.3502
 437  512.962
 438  778.9394
 439  699.6128
 440  658.6671
 441  606.2866
 442  405.0406
 443  625.7044
 444  687.4974
 445  538.7348
 446  771.4133
 447  661.7875
 448  668.5519
 449  1048.908
 450  929.462
 451  938.6493
 452  844.5935
 453  694.0689
 454  915.101
 455  878.5897
 456  879.8746
 457  531.4694
 458  649.4023
 459  972.2913
 460  943.1098
 461  595.9673
 462  456.2242
 463  572.1378
 464  966.6929
 465  1109.181
 466  1001.468
 467  583.6673
 468  525.5286
 469  271.4979
 470  300.995
 471  651.6014
 472  791.4893
 473  1049.342
 474  759.4908
 475  534.0228
 476  176.491
 477  744.9412
 478  633.0288
 479  521.8482
 480  267.3756
 481  432.9788
 482  729.8456
 483  708.6146
 484  217.7189
 485  168.6035
 486  478.7776
 487  502.666
 488  583.7414
 489  307.5626
 490  674.6832
 491  592.9036
 492  531.5391
 493  854.5513
 494  660.6644
 495  753.8216
 496  921.2517
 497  807.3195
 498  564.8821
 499  652.9479
 500  734.97
 501  715.0759
 502  582.1671
 503  333.4776
 504  323.0123
 505  477.9992
 506  719.9068
 507  620.8499
 508  635.5592
 509  1021.611
 510  582.1538
 511  520.3416
