# Input file       =  1187072595.109421_cleaned.dat
# Candidate        =  PSR_0332+5434
# Telescope        =  AR
# Epoch_topo       =  57983.266367007185
# Epoch_bary       =  N/A
# T_sample         =  0.002
# Data Folded      =  7340032
# Data Avg         =  0.0477051212188338
# Data StdDev      =  2.93638375538933 
# Profile Bins     =  512
# Profile Avg      =  683.986438724905 
# Profile StdDev   =  351.582143000176 
# Reduced chi-sqr  =  1.222
# Prob(Noise)      <  0.000415   (~3.3 sigma)
# P_topo (ms)      =  714.464545670094  +/- 0.000185
# P'_topo (s/s)    =  -0                +/- 9.74e-11
# P''_topo (s/s^2) =  0                 +/- 4.3e-14
# P_bary (ms)      =  N/A
# P'_bary (s/s)    =  N/A
# P''_bary (s/s^2) =  N/A
# P_orb (s)        =  N/A
# asin(i)/c (s)    =  N/A
# eccentricity     =  N/A
# w (rad)          =  N/A
# T_peri           =  N/A
######################################################
   0  700.6949
   1  553.449
   2  476.1185
   3  448.0601
   4  971.3282
   5  871.2875
   6  514.8952
   7  269.8005
   8  571.0585
   9  778.8878
  10  258.7361
  11  395.6799
  12  773.1692
  13  637.1107
  14  950.6903
  15  951.415
  16  510.04
  17  1057.911
  18  762.6635
  19  299.653
  20  502.5843
  21  817.1741
  22  985.8742
  23  710.7889
  24  874.0836
  25  1084.384
  26  544.3869
  27  521.3282
  28  485.7826
  29  321.0773
  30  308.2879
  31  242.8159
  32  318.082
  33  675.9301
  34  932.8677
  35  526.7899
  36  513.1114
  37  728.5182
  38  547.2385
  39  464.9099
  40  350.4081
  41  851.4935
  42  681.7315
  43  864.6699
  44  823.7269
  45  977.3521
  46  1074.55
  47  1156.431
  48  1188.504
  49  1131.864
  50  944.0692
  51  917.8245
  52  958.0765
  53  860.5193
  54  766.3724
  55  760.7434
  56  857.3832
  57  631.8951
  58  1056.904
  59  1160.693
  60  1040.116
  61  1175.764
  62  738.5966
  63  772.2233
  64  1183.346
  65  807.9906
  66  740.2098
  67  748.7789
  68  710.036
  69  687.1446
  70  643.3871
  71  756.6072
  72  508.3075
  73  507.825
  74  618.319
  75  693.1451
  76  760.2981
  77  600.1389
  78  494.7962
  79  729.2119
  80  889.1341
  81  854.6791
  82  1171.042
  83  728.9167
  84  663.324
  85  1064.733
  86  795.2913
  87  470.9682
  88  852.0705
  89  868.1461
  90  1016.821
  91  816.3258
  92  810.6796
  93  804.5522
  94  862.5416
  95  994.1763
  96  837.3195
  97  757.7845
  98  946.3206
  99  880.6691
 100  586.5637
 101  723.0264
 102  855.4352
 103  765.9432
 104  556.9128
 105  430.9227
 106  537.9598
 107  635.1249
 108  1084.01
 109  1113.502
 110  619.4172
 111  398.9346
 112  618.5363
 113  615.3431
 114  703.5768
 115  1096.983
 116  684.6478
 117  254.2814
 118  337.3466
 119  984.7729
 120  1042.721
 121  552.5735
 122  854.1666
 123  686.3658
 124  651.649
 125  1026.491
 126  969.7827
 127  1008.09
 128  1061.568
 129  747.7964
 130  742.797
 131  394.7373
 132  510.8513
 133  678.6608
 134  804.7993
 135  1223.929
 136  972.5649
 137  768.2728
 138  818.2651
 139  591.9023
 140  918.4651
 141  753.3171
 142  1214.572
 143  1273.64
 144  924.2092
 145  521.6069
 146  566.4958
 147  569.3279
 148  615.1411
 149  684.3398
 150  871.9707
 151  446.6754
 152  388.8412
 153  905.4808
 154  400.5275
 155  318.5339
 156  512.7062
 157  410.1335
 158  394.0195
 159  812.2198
 160  1138.444
 161  964.6708
 162  360.6999
 163  447.98
 164  608.83
 165  663.0475
 166  631.8519
 167  389.6198
 168  654.5978
 169  565.0637
 170  544.8531
 171  664.6385
 172  738.5682
 173  908.1255
 174  829.343
 175  502.1151
 176  562.7192
 177  734.884
 178  812.8203
 179  617.6327
 180  659.4036
 181  562.2646
 182  674.9055
 183  972.6188
 184  681.3408
 185  709.5311
 186  307.8953
 187  679.5115
 188  747.9247
 189  716.3321
 190  759.4135
 191  723.9551
 192  542.7584
 193  495.9074
 194  824.0181
 195  661.2662
 196  259.6789
 197  573.9264
 198  718.6083
 199  792.226
 200  966.2805
 201  996.955
 202  1017.716
 203  993.1044
 204  867.293
 205  1021.65
 206  760.8903
 207  749.7731
 208  800.842
 209  554.3651
 210  591.4862
 211  862.185
 212  724.2694
 213  974.1049
 214  971.8888
 215  1077.254
 216  597.7033
 217  648.5798
 218  982.8835
 219  991.9594
 220  864.7115
 221  515.2128
 222  447.8213
 223  543.1185
 224  548.4785
 225  317.2969
 226  763.7996
 227  784.486
 228  770.8645
 229  757.1203
 230  477.1748
 231  676.4254
 232  764.7375
 233  132.2476
 234  465.3787
 235  679.0363
 236  735.8272
 237  617.6273
 238  986.1389
 239  767.2421
 240  232.0882
 241  -199.7937
 242  313.1856
 243  829.4989
 244  772.8545
 245  526.8027
 246  292.1387
 247  530.8924
 248  769.8247
 249  511.1469
 250  639.8344
 251  500.7941
 252  782.7374
 253  823.5399
 254  547.0939
 255  442.7587
 256  828.2128
 257  677.5908
 258  533.2618
 259  753.3555
 260  818.3246
 261  325.5287
 262  730.6753
 263  991.7119
 264  848.6302
 265  693.4872
 266  627.1348
 267  738.2256
 268  830.7653
 269  1027.994
 270  783.4303
 271  561.5322
 272  830.9058
 273  987.4301
 274  653.6207
 275  902.1668
 276  1143.153
 277  1257.714
 278  880.2341
 279  990.4973
 280  995.8433
 281  972.7476
 282  1189.911
 283  1229.955
 284  891.8636
 285  920.6617
 286  869.5702
 287  801.7427
 288  913.4091
 289  766.1924
 290  381.074
 291  506.2976
 292  918.1773
 293  994.535
 294  843.3212
 295  1041.744
 296  942.6859
 297  700.2556
 298  693.8644
 299  567.1142
 300  883.8734
 301  612.1351
 302  881.108
 303  1398.61
 304  890.9598
 305  260.5401
 306  449.5256
 307  685.2471
 308  358.1441
 309  562.1915
 310  624.9266
 311  661.2631
 312  349.2894
 313  557.6827
 314  667.1541
 315  521.9718
 316  323.7664
 317  344.1898
 318  902.0942
 319  632.6873
 320  647.8968
 321  903.2884
 322  953.6415
 323  443.2317
 324  391.7324
 325  536.0042
 326  721.8391
 327  476.6209
 328  605.4303
 329  1022.694
 330  1048.726
 331  824.4435
 332  606.9639
 333  707.642
 334  824.5322
 335  882.0265
 336  1232.193
 337  1778.304
 338  1839.558
 339  1970.456
 340  2211.957
 341  1770.871
 342  871.8226
 343  855.0455
 344  860.6338
 345  725.4697
 346  869.5336
 347  585.4354
 348  803.4135
 349  716.4696
 350  792.1725
 351  1053.831
 352  892.8082
 353  741.6121
 354  815.5615
 355  905.4048
 356  904.4999
 357  657.1973
 358  817.7516
 359  898.4156
 360  529.8638
 361  845.4721
 362  1087.55
 363  1093.808
 364  1096.483
 365  610.5363
 366  627.8475
 367  638.6713
 368  65.72039
 369  380.714
 370  459.5672
 371  618.259
 372  671.2441
 373  520.838
 374  720.8701
 375  454.3139
 376  416.7675
 377  621.6544
 378  595.2057
 379  435.3022
 380  375.1932
 381  683.9816
 382  631.3149
 383  603.7946
 384  630.8934
 385  300.4296
 386  471.1776
 387  562.7423
 388  470.5646
 389  479.8982
 390  659.5163
 391  420.2047
 392  250.7047
 393  451.4521
 394  410.6494
 395  626.1837
 396  612.9979
 397  580.6717
 398  199.7266
 399  658.1784
 400  928.2538
 401  898.5563
 402  427.9197
 403  141.4578
 404  437.6318
 405  232.2622
 406  102.0477
 407  450.0031
 408  653.437
 409  -4.305458
 410  315.5806
 411  474.6124
 412  166.503
 413  66.67832
 414  195.187
 415  513.7598
 416  642.7617
 417  820.356
 418  656.5856
 419  545.7957
 420  415.7016
 421  -78.16553
 422  366.622
 423  401.062
 424  530.8907
 425  487.8937
 426  318.7847
 427  431.6835
 428  158.7398
 429  106.527
 430  571.4184
 431  776.4586
 432  505.2555
 433  186.5942
 434  -27.94394
 435  44.83614
 436  222.5048
 437  437.6571
 438  614.5215
 439  577.913
 440  669.6453
 441  322.2926
 442  172.9325
 443  292.7573
 444  144.978
 445  213.2446
 446  430.3376
 447  611.5218
 448  365.1075
 449  439.0606
 450  442.0753
 451  566.6667
 452  704.1299
 453  546.1636
 454  586.0698
 455  566.4689
 456  201.0761
 457  316.6549
 458  668.8544
 459  363.2994
 460  301.5993
 461  416.9355
 462  568.5352
 463  724.0186
 464  749.5937
 465  562.6005
 466  422.9692
 467  502.1835
 468  566.3564
 469  347.357
 470  529.8425
 471  616.188
 472  687.124
 473  276.6758
 474  33.67085
 475  431.7399
 476  935.1108
 477  700.7278
 478  827.1205
 479  801.7677
 480  897.5223
 481  788.3698
 482  459.292
 483  518.946
 484  911.525
 485  630.9628
 486  597.2337
 487  487.3064
 488  695.3747
 489  507.8329
 490  262.3607
 491  647.9268
 492  671.6458
 493  555.1899
 494  890.2745
 495  1178.775
 496  721.045
 497  326.4332
 498  589.9613
 499  813.6006
 500  915.0798
 501  999.8856
 502  1069.138
 503  665.9012
 504  630.9373
 505  621.5334
 506  605.8935
 507  710.1464
 508  954.4645
 509  956.1522
 510  1133.207
 511  1011.263
