# Input file       =  1187489097.112756_cleaned.dat
# Candidate        =  PSR_0332+5434
# Telescope        =  AR
# Epoch_topo       =  57988.086992045784
# Epoch_bary       =  N/A
# T_sample         =  0.002
# Data Folded      =  7340032
# Data Avg         =  0.059176694191203
# Data StdDev      =  2.88740940291519 
# Profile Bins     =  512
# Profile Avg      =  847.892013730863 
# Profile StdDev   =  345.718295073861 
# Reduced chi-sqr  =  1.355
# Prob(Noise)      <  1.42e-07   (~5.1 sigma)
# P_topo (ms)      =  714.463582680002  +/- 0.000152
# P'_topo (s/s)    =  -0                +/- 8.01e-11
# P''_topo (s/s^2) =  0                 +/- 3.53e-14
# P_bary (ms)      =  N/A
# P'_bary (s/s)    =  N/A
# P''_bary (s/s^2) =  N/A
# P_orb (s)        =  N/A
# asin(i)/c (s)    =  N/A
# eccentricity     =  N/A
# w (rad)          =  N/A
# T_peri           =  N/A
######################################################
   0  747.8714
   1  478.124
   2  1041.583
   3  798.388
   4  652.0882
   5  680.8464
   6  1159.603
   7  1014.874
   8  708.2795
   9  678.0161
  10  1095.112
  11  1256.412
  12  1079.564
  13  906.3856
  14  1023.48
  15  1110.24
  16  1099.864
  17  389.6693
  18  777.5309
  19  667.851
  20  560.7931
  21  812.6124
  22  706.4019
  23  746.4673
  24  831.6268
  25  1185.195
  26  880.3204
  27  684.3534
  28  858.3688
  29  1050.755
  30  1083.245
  31  1287.583
  32  1319.564
  33  1164.93
  34  1080.81
  35  751.6078
  36  830.5129
  37  1000.903
  38  991.4914
  39  1201.906
  40  1218.118
  41  1228.441
  42  829.9018
  43  1112.03
  44  1202.758
  45  1299.239
  46  1166.742
  47  882.8052
  48  508.2454
  49  647.1196
  50  681.0314
  51  789.017
  52  682.048
  53  566.8914
  54  807.9417
  55  977.7181
  56  688.2596
  57  1122.681
  58  1037.636
  59  1121.282
  60  954.4757
  61  798.3187
  62  1002.399
  63  840.4163
  64  1021.085
  65  888.975
  66  1070.254
  67  1139.476
  68  1130.774
  69  981.8223
  70  1033.008
  71  1173.4
  72  1099.977
  73  1029.344
  74  817.4488
  75  528.8423
  76  335.0038
  77  484.7113
  78  573.9339
  79  842.153
  80  825.3494
  81  868.6939
  82  1017.354
  83  1076.15
  84  851.6692
  85  678.4344
  86  557.7536
  87  875.8015
  88  953.4639
  89  1055.85
  90  1102.442
  91  1115.165
  92  1173.363
  93  1015.07
  94  770.8257
  95  1032.246
  96  900.1013
  97  790.4289
  98  720.7899
  99  883.6929
 100  936.871
 101  915.3932
 102  1153.771
 103  848.2547
 104  1007.374
 105  1104.784
 106  694.8964
 107  710.1288
 108  789.6005
 109  972.4579
 110  778.7009
 111  1099.628
 112  1106.397
 113  704.7047
 114  829.4
 115  931.8812
 116  1030.213
 117  1257.209
 118  1278.572
 119  1265.931
 120  1065.776
 121  1143.672
 122  1115.062
 123  971.0813
 124  676.0007
 125  918.4341
 126  1001.691
 127  779.207
 128  753.1191
 129  965.1396
 130  1229.353
 131  1397.927
 132  975.9518
 133  1036.985
 134  1042.766
 135  747.054
 136  578.7063
 137  909.3076
 138  1124.746
 139  1073.373
 140  1037.074
 141  1004.126
 142  759.4387
 143  801.856
 144  959.9692
 145  1202.62
 146  1325.449
 147  1087.1
 148  787.4495
 149  889.9601
 150  697.4262
 151  549.1276
 152  1001.835
 153  865.8924
 154  669.6577
 155  716.0844
 156  452.6314
 157  409.2512
 158  417.8982
 159  852.2964
 160  1041.433
 161  871.9081
 162  883.4679
 163  822.3843
 164  738.7766
 165  674.4482
 166  666.5837
 167  550.8021
 168  644.9741
 169  653.6646
 170  745.762
 171  944.0673
 172  1064.954
 173  855.1779
 174  967.5805
 175  1102.471
 176  922.6666
 177  883.9861
 178  986.2212
 179  890.0709
 180  825.4186
 181  775.9636
 182  1025.656
 183  1006.817
 184  845.3218
 185  631.4853
 186  380.2426
 187  715.7532
 188  989.368
 189  633.962
 190  619.4562
 191  676.8231
 192  955.5557
 193  750.1296
 194  468.1528
 195  700.8663
 196  872.551
 197  1077.842
 198  655.983
 199  424.2944
 200  150.9545
 201  528.9985
 202  670.0243
 203  810.4071
 204  853.5669
 205  805.5295
 206  675.7578
 207  475.6739
 208  819.934
 209  749.6361
 210  605.8222
 211  500.3213
 212  552.653
 213  661.0315
 214  642.2648
 215  836.386
 216  974.6718
 217  1084.387
 218  1085.17
 219  1192.734
 220  1103.948
 221  1030.033
 222  806.8059
 223  488.2054
 224  944.5
 225  1070.888
 226  913.4897
 227  527.4257
 228  714.5352
 229  598.7762
 230  307.4716
 231  418.0826
 232  669.0742
 233  783.9957
 234  764.8853
 235  881.9404
 236  1064.582
 237  955.126
 238  899.0441
 239  1042.453
 240  856.9468
 241  808.42
 242  568.0475
 243  226.6728
 244  416.8132
 245  917.5295
 246  1031.27
 247  870.6133
 248  706.4551
 249  735.7347
 250  848.852
 251  930.6333
 252  1043.119
 253  1579.047
 254  2121.12
 255  2184.926
 256  2320.784
 257  2676.641
 258  2492.378
 259  2042.276
 260  1578.842
 261  1395.816
 262  841.4548
 263  1057.462
 264  1008.917
 265  1036.105
 266  1202.654
 267  870.5189
 268  908.3409
 269  1274.654
 270  1199.201
 271  948.7359
 272  1007.612
 273  770.3768
 274  1114.964
 275  1098.802
 276  1000.468
 277  1010.001
 278  792.4139
 279  811.0041
 280  451.0995
 281  267.02
 282  446.2785
 283  696.9214
 284  937.6795
 285  659.4365
 286  419.1168
 287  780.7936
 288  981.2076
 289  1092.759
 290  625.6443
 291  726.5883
 292  409.6899
 293  398.9588
 294  940.1971
 295  970.196
 296  877.7415
 297  793.5255
 298  545.1549
 299  207.3963
 300  366.1292
 301  693.5036
 302  934.7413
 303  904.4922
 304  1069.848
 305  689.7395
 306  543.1103
 307  748.9224
 308  569.5584
 309  424.7254
 310  524.1656
 311  729.4332
 312  647.5255
 313  590.6649
 314  687.3375
 315  424.492
 316  587.6911
 317  602.5852
 318  891.3545
 319  639.2513
 320  747.0039
 321  1008.521
 322  901.8365
 323  722.7212
 324  708.0065
 325  922.0005
 326  900.6936
 327  874.7021
 328  1107.507
 329  814.9463
 330  671.8492
 331  975.205
 332  1547.306
 333  1447.24
 334  1061.727
 335  959.4873
 336  1071.962
 337  1121.814
 338  757.9802
 339  540.0737
 340  985.7801
 341  1001.116
 342  866.2565
 343  657.5532
 344  495.0431
 345  462.2796
 346  601.9378
 347  1070.425
 348  1285.44
 349  1062.265
 350  787.674
 351  823.8435
 352  871.8083
 353  722.9641
 354  924.2214
 355  1238.809
 356  1036.868
 357  813.8144
 358  781.7386
 359  786.418
 360  965.1184
 361  839.9716
 362  734.257
 363  785.6053
 364  921.0474
 365  867.6882
 366  962.2016
 367  768.895
 368  724.5501
 369  918.7159
 370  963.7584
 371  665.3074
 372  530.7651
 373  724.1473
 374  826.9676
 375  759.3464
 376  1009.399
 377  1419.087
 378  1047.773
 379  1232.094
 380  1067.49
 381  721.4133
 382  1153.803
 383  938.8626
 384  1077.956
 385  1000.397
 386  1071.32
 387  1003.341
 388  978.473
 389  846.0762
 390  1158.127
 391  1037.346
 392  741.1908
 393  1112.44
 394  1126.888
 395  1022.192
 396  832.819
 397  607.9139
 398  1159.037
 399  942.9455
 400  415.6958
 401  328.0179
 402  380.015
 403  553.5123
 404  675.9391
 405  782.1549
 406  749.6683
 407  392.8951
 408  608.3113
 409  784.3932
 410  780.0367
 411  760.4248
 412  763.2428
 413  821.4544
 414  507.2014
 415  699.6498
 416  881.0947
 417  936.0003
 418  884.3815
 419  468.8994
 420  517.8708
 421  609.4957
 422  797.9534
 423  929.5001
 424  779.3544
 425  347.4162
 426  265.6946
 427  1110.525
 428  1042.112
 429  753.0706
 430  1018.368
 431  1238.814
 432  844.1771
 433  636.5794
 434  921.3741
 435  992.0288
 436  811.8745
 437  763.1169
 438  817.7652
 439  739.4869
 440  812.8165
 441  1062.866
 442  1088.504
 443  685.4608
 444  798.2208
 445  1006.568
 446  1050.558
 447  857.7288
 448  751.1848
 449  644.6569
 450  906.6526
 451  989.2423
 452  989.9048
 453  620.5511
 454  859.5947
 455  753.4239
 456  1018.623
 457  821.984
 458  749.6129
 459  638.5498
 460  741.2272
 461  1148.368
 462  1076.065
 463  814.89
 464  846.9681
 465  1157.842
 466  578.025
 467  491.0449
 468  635.3958
 469  835.687
 470  541.929
 471  569.8929
 472  449.4214
 473  767.3261
 474  619.8393
 475  527.3258
 476  391.3764
 477  173.0373
 478  614.0143
 479  568.6863
 480  641.0518
 481  466.7707
 482  568.9341
 483  742.2848
 484  472.2736
 485  923.8849
 486  1002.222
 487  1177.419
 488  829.1564
 489  604.2719
 490  763.2531
 491  423.9451
 492  508.9042
 493  686.3446
 494  466.1724
 495  386.6238
 496  591.1625
 497  481.4749
 498  286.5838
 499  421.1507
 500  516.9695
 501  523.9701
 502  648.3163
 503  695.9467
 504  297.5666
 505  324.0294
 506  294.3229
 507  263.9591
 508  551.2365
 509  651.9992
 510  890.101
 511  1056.421
