# Input file       =  1187043050.110137_cleaned.dat
# Candidate        =  PSR_0332+5434
# Telescope        =  AR
# Epoch_topo       =  57982.924410996959
# Epoch_bary       =  N/A
# T_sample         =  0.002
# Data Folded      =  7208960
# Data Avg         =  0.232021490372294
# Data StdDev      =  5.71731015129138 
# Profile Bins     =  1024
# Profile Avg      =  1633.43094972489 
# Profile StdDev   =  479.709237952594 
# Reduced chi-sqr  =  0.421
# Prob(Noise)      <  1   (~0.0 sigma)
# P_topo (ms)      =  714.464259616978  +/- 4.39e-05
# P'_topo (s/s)    =  -0                +/- 2.36e-11
# P''_topo (s/s^2) =  0                 +/- 1.06e-14
# P_bary (ms)      =  N/A
# P'_bary (s/s)    =  N/A
# P''_bary (s/s^2) =  N/A
# P_orb (s)        =  N/A
# asin(i)/c (s)    =  N/A
# eccentricity     =  N/A
# w (rad)          =  N/A
# T_peri           =  N/A
######################################################
   0  1570.914
   1  1747.612
   2  1781.654
   3  1719.374
   4  1687.687
   5  1625.409
   6  1574.683
   7  1673.277
   8  1761.325
   9  1608.309
  10  1512.027
  11  1651.854
  12  1564.729
  13  1435.891
  14  1404.974
  15  1500.47
  16  1466.04
  17  1464.826
  18  1460.353
  19  1416.252
  20  1292.801
  21  1399.565
  22  1626.857
  23  1658.533
  24  1612.115
  25  1675.951
  26  1693.417
  27  1686.729
  28  1849.539
  29  1957.846
  30  1733.084
  31  1602.064
  32  1624.634
  33  1570.458
  34  1408.689
  35  1413.174
  36  1546.796
  37  1555.828
  38  1600.03
  39  1749.204
  40  1825.968
  41  1755.301
  42  1742.842
  43  1636.23
  44  1486.676
  45  1476.468
  46  1639.087
  47  1705.832
  48  1523.509
  49  1429.046
  50  1390.594
  51  1561.799
  52  1801.521
  53  1753.746
  54  1598.902
  55  1490.593
  56  1535.651
  57  1361.961
  58  1295.673
  59  1444.438
  60  1670.785
  61  1727.02
  62  1786.991
  63  1657.687
  64  1469.762
  65  1444.916
  66  1550.999
  67  1578.599
  68  1536.622
  69  1666.588
  70  1704.296
  71  1541.639
  72  1490.892
  73  1607.634
  74  1621.887
  75  1485.896
  76  1665.425
  77  1739.454
  78  1706.33
  79  1514.953
  80  1541.299
  81  1393.586
  82  1406.678
  83  1520.725
  84  1547.817
  85  1490.855
  86  1387.29
  87  1579.285
  88  1527.301
  89  1712.351
  90  1846.871
  91  2040.99
  92  1917.874
  93  1818.022
  94  1727.477
  95  1671.016
  96  1568.729
  97  1513.778
  98  1586.661
  99  1648.037
 100  1595.651
 101  1503.803
 102  1468.681
 103  1534.959
 104  1629.531
 105  1591.965
 106  1607.818
 107  1778.438
 108  1801.464
 109  1860.792
 110  1902.121
 111  1829.41
 112  1773.066
 113  1681.187
 114  1724.683
 115  1529.501
 116  1498.979
 117  1577.961
 118  1575.754
 119  1530.006
 120  1613.608
 121  1615.173
 122  1510.417
 123  1411.366
 124  1631.436
 125  1700.375
 126  1818.78
 127  2006.435
 128  2039.351
 129  1861.945
 130  1715.949
 131  1858.326
 132  1928.344
 133  1832.631
 134  1797.998
 135  1619.007
 136  1507.163
 137  1439.336
 138  1467.924
 139  1394.747
 140  1314.692
 141  1550.555
 142  1706.611
 143  1650.329
 144  1601.788
 145  1737.279
 146  1792.272
 147  1603.178
 148  1588.501
 149  1564.479
 150  1574.981
 151  1475.656
 152  1511.576
 153  1254.485
 154  1137.056
 155  1395.595
 156  1640.682
 157  1754.494
 158  1623.147
 159  1704.312
 160  1626.995
 161  1646.871
 162  1729.313
 163  1796.582
 164  1865.911
 165  1847.824
 166  1713.468
 167  1540.371
 168  1428.564
 169  1545.398
 170  1582.478
 171  1588.978
 172  1586.76
 173  1422.696
 174  1362.452
 175  1418.628
 176  1501.591
 177  1513.615
 178  1595.52
 179  1841.944
 180  1751.998
 181  1638.746
 182  1485.876
 183  1368.741
 184  1393.315
 185  1597.485
 186  1885.833
 187  1730.767
 188  1609.348
 189  1473.052
 190  1431.872
 191  1381.48
 192  1563.875
 193  1716.42
 194  1603.259
 195  1625.858
 196  1746.534
 197  1734.16
 198  1579.416
 199  1610.309
 200  1766.667
 201  1589.584
 202  1446.57
 203  1381.4
 204  1311.92
 205  1305.803
 206  1454.4
 207  1547.216
 208  1609.955
 209  1532.225
 210  1708.867
 211  1699.548
 212  1704.081
 213  1651.031
 214  1705.659
 215  1775.975
 216  1693.067
 217  1650.216
 218  1620.49
 219  1518.116
 220  1593.87
 221  1635.888
 222  1702.732
 223  1660.737
 224  1745.581
 225  1804.535
 226  1687.663
 227  1672.738
 228  1571.304
 229  1589.478
 230  1539.886
 231  1451.308
 232  1348.572
 233  1470.795
 234  1610.908
 235  1640.607
 236  1611.189
 237  1630.431
 238  1534.928
 239  1480.689
 240  1663.64
 241  1812.493
 242  1833.891
 243  1752.873
 244  1832.046
 245  1866.188
 246  1893.846
 247  1803.71
 248  1646.126
 249  1379.161
 250  1411.296
 251  1686.311
 252  1780.603
 253  1561.067
 254  1426.55
 255  1446.75
 256  1556.963
 257  1739.937
 258  1846.188
 259  1782.819
 260  1761.242
 261  1743.356
 262  1627.677
 263  1496.046
 264  1672.287
 265  1917.868
 266  1903.943
 267  1755.928
 268  1729.045
 269  1604.286
 270  1608.389
 271  1624.106
 272  1654.938
 273  1526.185
 274  1500.688
 275  1747.505
 276  1731.087
 277  1560.268
 278  1496.347
 279  1469.157
 280  1647.87
 281  1697.066
 282  1835.949
 283  1621.214
 284  1487.247
 285  1436.395
 286  1346.699
 287  1299.387
 288  1376.777
 289  1682.32
 290  1778.751
 291  1702.91
 292  1691.299
 293  1791.468
 294  1827.989
 295  1863.374
 296  1766.131
 297  1541.789
 298  1466.016
 299  1524.091
 300  1654.635
 301  1581.853
 302  1608.089
 303  1527.092
 304  1642.095
 305  1795.561
 306  1792.397
 307  1600.723
 308  1491.618
 309  1653.044
 310  1729.571
 311  1776.693
 312  1730.337
 313  1594.667
 314  1258.193
 315  1068.068
 316  1254.142
 317  1356.037
 318  1499.499
 319  1579.472
 320  1768.602
 321  1596.653
 322  1443.874
 323  1559.636
 324  1604.171
 325  1698.506
 326  1592.536
 327  1574.172
 328  1462.518
 329  1615.366
 330  1595.157
 331  1473.206
 332  1407.755
 333  1619.08
 334  1646.071
 335  1474.546
 336  1360.369
 337  1318.519
 338  1329.064
 339  1377.224
 340  1620.745
 341  1746.601
 342  1846.341
 343  1876.785
 344  1865.038
 345  1778.737
 346  1687.694
 347  1811.863
 348  1813.807
 349  1877.353
 350  1843.273
 351  1692.938
 352  1496.66
 353  1425.563
 354  1500.15
 355  1529.251
 356  1507.115
 357  1531.571
 358  1594.524
 359  1635.397
 360  1812.839
 361  1855.254
 362  1844.214
 363  1705.548
 364  1730.763
 365  1597.87
 366  1460.856
 367  1502.246
 368  1465.769
 369  1482.825
 370  1415.276
 371  1482.111
 372  1400.591
 373  1446.922
 374  1574.29
 375  1587.253
 376  1662.014
 377  1754.883
 378  1819.897
 379  1497.803
 380  1217.162
 381  1197.533
 382  1212.039
 383  1369.697
 384  1621.49
 385  1842.573
 386  1752.862
 387  1478.289
 388  1489.781
 389  1428.218
 390  1571.805
 391  1680.74
 392  1786.259
 393  1591.87
 394  1549.439
 395  1611.318
 396  1593.304
 397  1453.982
 398  1567.64
 399  1718.061
 400  1667.008
 401  1699.256
 402  1611.65
 403  1547.383
 404  1450.692
 405  1545.856
 406  1659.016
 407  1696.786
 408  1867.059
 409  1830.692
 410  1606.589
 411  1484.789
 412  1651.452
 413  1779.719
 414  1824.178
 415  1840.177
 416  1729.247
 417  1437.898
 418  1300.691
 419  1525.393
 420  1484.151
 421  1478.472
 422  1557.443
 423  1678.661
 424  1499.026
 425  1462.86
 426  1511.113
 427  1498.293
 428  1543.383
 429  1680.594
 430  1684.931
 431  1571.989
 432  1548.491
 433  1689.062
 434  1804.188
 435  1735.606
 436  1757.197
 437  1498.962
 438  1467.746
 439  1566.033
 440  1660.193
 441  1533.539
 442  1387.679
 443  1583.485
 444  1703.22
 445  1482.799
 446  1433.917
 447  1242.49
 448  1379.565
 449  1437.56
 450  1681.028
 451  1640.035
 452  1653.599
 453  1727.178
 454  1618.441
 455  1458.303
 456  1497.216
 457  1636.066
 458  1852.095
 459  1842.305
 460  1603.691
 461  1255.01
 462  1202.797
 463  1497.45
 464  1674.161
 465  1584.457
 466  1620.717
 467  1613.904
 468  1559.579
 469  1509.175
 470  1590.088
 471  1611.696
 472  1696.662
 473  1945.745
 474  2046.897
 475  1804.617
 476  1518.288
 477  1513.213
 478  1397.531
 479  1530.096
 480  1604.558
 481  1716.323
 482  1617.801
 483  1541.705
 484  1632.414
 485  1470.188
 486  1371.969
 487  1557.084
 488  1804.643
 489  1758.536
 490  1678.383
 491  1743.972
 492  1856.979
 493  1832.198
 494  2025.742
 495  2017.213
 496  1924.782
 497  1590.166
 498  1562.471
 499  1593.639
 500  1590.534
 501  1556.171
 502  1446.666
 503  1335.37
 504  1459.782
 505  1519.726
 506  1595.093
 507  1523.896
 508  1625.355
 509  1689.102
 510  1704.61
 511  1660.945
 512  1607.92
 513  1570.776
 514  1596.71
 515  1667.318
 516  1538.828
 517  1521.649
 518  1569.957
 519  1565.938
 520  1415.898
 521  1411.951
 522  1416.401
 523  1510.344
 524  1800.186
 525  1930.388
 526  1831.404
 527  1636.063
 528  1674.644
 529  1641.754
 530  1457.025
 531  1502.951
 532  1596.702
 533  1606.934
 534  1500.712
 535  1475.134
 536  1465.666
 537  1511.69
 538  1690.087
 539  1888.223
 540  1769.382
 541  1674.561
 542  1686.339
 543  1716.153
 544  1733.184
 545  1682.212
 546  1797.369
 547  1650.46
 548  1570.832
 549  1543.309
 550  1310.717
 551  1318.084
 552  1426.334
 553  1558.914
 554  1546.409
 555  1587.894
 556  1717.269
 557  1653.783
 558  1581.639
 559  1774.45
 560  1898.197
 561  1866.028
 562  1766.747
 563  1676.788
 564  1633.046
 565  1563.86
 566  1761.401
 567  1817.04
 568  1755.135
 569  1670.628
 570  1568.601
 571  1492.882
 572  1522.879
 573  1610.846
 574  1568.487
 575  1603.956
 576  1662.026
 577  1704.507
 578  1604.956
 579  1607.472
 580  1538.445
 581  1544.938
 582  1613.482
 583  1719.116
 584  1699.798
 585  1597.871
 586  1604.345
 587  1604.123
 588  1463.807
 589  1532.784
 590  1602.72
 591  1684.842
 592  1667.156
 593  1776.075
 594  1621.369
 595  1350.393
 596  1469.487
 597  1824.161
 598  1911.322
 599  1801.728
 600  1695.3
 601  1539.827
 602  1437.345
 603  1465.247
 604  1643.311
 605  1718.894
 606  1817.069
 607  2079.78
 608  2002.771
 609  1792.989
 610  1583.776
 611  1629.621
 612  1631.868
 613  1589.937
 614  1722.457
 615  1604.002
 616  1468.277
 617  1527.101
 618  1745.79
 619  1813.049
 620  1787.113
 621  1869.714
 622  1879.858
 623  1759.777
 624  1788.625
 625  1821.177
 626  1843.797
 627  1738.522
 628  1720.981
 629  1777.948
 630  1670.317
 631  1687.847
 632  1671.57
 633  1790.73
 634  1800.851
 635  1871.65
 636  1650.793
 637  1569.016
 638  1618.881
 639  1695.456
 640  1693.012
 641  1759.562
 642  1988.461
 643  2206.774
 644  2298.178
 645  2334.469
 646  2214.004
 647  2346.96
 648  2607.658
 649  2580.133
 650  2382.858
 651  2077.332
 652  2027.633
 653  1807.694
 654  1767.512
 655  1737.55
 656  1800.232
 657  1806.78
 658  1817.315
 659  1629.203
 660  1453.303
 661  1467.216
 662  1751.236
 663  1678.277
 664  1732.883
 665  1762.166
 666  1761.657
 667  1646.42
 668  1643.411
 669  1630.887
 670  1477.75
 671  1499.057
 672  1855.777
 673  1825.005
 674  1686.82
 675  1576.414
 676  1689.46
 677  1771.021
 678  1854.326
 679  1857.151
 680  1720.645
 681  1455.077
 682  1374.075
 683  1345.275
 684  1168.834
 685  1228.522
 686  1593.859
 687  1895.054
 688  1920.704
 689  1790.128
 690  1798.979
 691  1787.826
 692  1986.904
 693  2054.456
 694  1860.127
 695  1741.339
 696  1765.144
 697  1654.63
 698  1432.614
 699  1352.819
 700  1407.263
 701  1565.938
 702  1654.743
 703  1870.86
 704  1766.315
 705  1731.617
 706  1855.323
 707  1973.541
 708  1947.15
 709  1747.409
 710  1744.274
 711  1641.554
 712  1528.596
 713  1524.705
 714  1540.265
 715  1620.005
 716  1709.413
 717  1710.12
 718  1526.833
 719  1461.942
 720  1603.05
 721  1585.094
 722  1598.916
 723  1720.711
 724  1758.665
 725  1607.935
 726  1523.481
 727  1663.753
 728  1560.457
 729  1343.85
 730  1352.422
 731  1549.376
 732  1453.585
 733  1448.85
 734  1528.91
 735  1566.722
 736  1472.845
 737  1577.797
 738  1728.877
 739  1708.824
 740  1686.323
 741  1647.763
 742  1496.207
 743  1436.045
 744  1601.176
 745  1669.317
 746  1667.51
 747  1650.317
 748  1629.661
 749  1434.202
 750  1280.654
 751  1513.639
 752  1696.456
 753  1754.53
 754  1709.255
 755  1757.819
 756  1625.094
 757  1604.305
 758  1721.818
 759  1772.883
 760  1650.452
 761  1660.903
 762  1809.317
 763  1762.777
 764  1744.38
 765  1532.085
 766  1437.653
 767  1351.379
 768  1681.249
 769  1751.353
 770  1794.595
 771  1781.653
 772  1865.99
 773  1830.203
 774  1672.773
 775  1660.69
 776  1545.36
 777  1460.635
 778  1539.158
 779  1526.885
 780  1444.472
 781  1439.908
 782  1664.987
 783  1714.35
 784  1592.231
 785  1534.674
 786  1507.175
 787  1479.304
 788  1698.218
 789  1820.072
 790  1830.5
 791  1746.878
 792  1722.295
 793  1560.453
 794  1309.979
 795  1430.491
 796  1506.427
 797  1596.969
 798  1626.684
 799  1807.006
 800  1780.226
 801  1656.067
 802  1707.023
 803  1747.087
 804  1600.019
 805  1527.866
 806  1599.258
 807  1614.545
 808  1351.95
 809  1187.853
 810  1230.604
 811  1439.086
 812  1805.487
 813  1917.468
 814  1772.137
 815  1596.056
 816  1679.514
 817  1736.08
 818  1814.977
 819  1770.392
 820  1768.614
 821  1644.265
 822  1716.696
 823  1738.953
 824  1644.515
 825  1530.509
 826  1635.967
 827  1687.898
 828  1603.687
 829  1509.575
 830  1487.066
 831  1459.719
 832  1563.149
 833  1750.959
 834  1718.697
 835  1662.718
 836  1702.521
 837  1761.617
 838  1725.235
 839  1772.053
 840  1909.558
 841  1768.599
 842  1791.853
 843  1649.578
 844  1609.04
 845  1420.933
 846  1384.093
 847  1470.307
 848  1424.897
 849  1422.234
 850  1525.139
 851  1662.095
 852  1566.877
 853  1555.946
 854  1703.864
 855  1903.191
 856  1808.157
 857  1883.719
 858  1664.212
 859  1545.696
 860  1567.701
 861  1733.648
 862  1601.408
 863  1527.915
 864  1617.245
 865  1573.3
 866  1396.544
 867  1425.164
 868  1482.942
 869  1545.357
 870  1648.554
 871  1829.669
 872  1829.876
 873  1673.219
 874  1483.005
 875  1442.437
 876  1386.993
 877  1581.766
 878  1805.25
 879  1938.038
 880  1707.452
 881  1517.478
 882  1397.042
 883  1425.658
 884  1502.62
 885  1610.792
 886  1715.571
 887  1803.522
 888  1840.941
 889  1559.786
 890  1418.751
 891  1385.664
 892  1551.236
 893  1615.884
 894  1641.685
 895  1574.593
 896  1562.051
 897  1589.104
 898  1631.532
 899  1586.505
 900  1511.638
 901  1684.217
 902  1678.616
 903  1608.566
 904  1504.82
 905  1658.761
 906  1783.29
 907  1897.974
 908  1872.907
 909  1735.108
 910  1534.185
 911  1574.258
 912  1675.809
 913  1558.767
 914  1532.339
 915  1666.834
 916  1829.78
 917  1674.627
 918  1640.624
 919  1734.358
 920  1875.861
 921  1980.655
 922  2048.117
 923  1920.12
 924  1706.78
 925  1579.49
 926  1707.361
 927  1758.845
 928  1830.177
 929  1895.622
 930  1991.01
 931  1894.318
 932  1823.406
 933  1614.244
 934  1500.485
 935  1470.622
 936  1703.396
 937  1644.642
 938  1590.146
 939  1386.095
 940  1479.409
 941  1446.249
 942  1462.698
 943  1605.159
 944  1747.839
 945  2004.421
 946  1975.207
 947  1888.226
 948  1749.817
 949  1793.041
 950  1835.626
 951  1838.144
 952  1826.99
 953  1889.303
 954  1730.402
 955  1654.326
 956  1664.954
 957  1845.552
 958  1750.194
 959  1618.421
 960  1452.842
 961  1302.278
 962  1389.425
 963  1599.865
 964  1737.246
 965  1841.365
 966  1883.79
 967  2021.46
 968  1889.549
 969  1906.967
 970  1861.053
 971  1743.094
 972  1639.816
 973  1699.529
 974  1741.646
 975  1665.653
 976  1565.054
 977  1518.298
 978  1384.96
 979  1406.424
 980  1601.576
 981  1817.182
 982  1717.231
 983  1724.372
 984  1851.032
 985  1830.371
 986  1715.831
 987  1734.574
 988  1835.064
 989  1692.717
 990  1649.079
 991  1542.516
 992  1479.847
 993  1481.692
 994  1683.56
 995  1611.258
 996  1312.171
 997  1208.701
 998  1340.873
 999  1404.165
1000  1430.812
1001  1508.808
1002  1637.081
1003  1711.199
1004  1758.067
1005  1728.312
1006  1595.677
1007  1398.972
1008  1513.758
1009  1473.798
1010  1602.894
1011  1578.297
1012  1666.762
1013  1510.321
1014  1305.423
1015  1327.636
1016  1543.111
1017  1831.039
1018  1756.05
1019  1521.226
1020  1396.386
1021  1497.889
1022  1642.479
1023  1527.418
