# Input file       =  1187904722.109216_cleaned.dat
# Candidate        =  PSR_0332+5434
# Telescope        =  AR
# Epoch_topo       =  57992.897466541850
# Epoch_bary       =  N/A
# T_sample         =  0.002
# Data Folded      =  7143424
# Data Avg         =  0.0266602994017559
# Data StdDev      =  2.91724235724841 
# Profile Bins     =  1024
# Profile Avg      =  185.946125715414 
# Profile StdDev   =  243.655234963601 
# Reduced chi-sqr  =  0.797
# Prob(Noise)      <  1   (~0.0 sigma)
# P_topo (ms)      =  714.463332584766  +/- 0.000705
# P'_topo (s/s)    =  -0                +/- 3.82e-10
# P''_topo (s/s^2) =  0                 +/- 1.73e-13
# P_bary (ms)      =  N/A
# P'_bary (s/s)    =  N/A
# P''_bary (s/s^2) =  N/A
# P_orb (s)        =  N/A
# asin(i)/c (s)    =  N/A
# eccentricity     =  N/A
# w (rad)          =  N/A
# T_peri           =  N/A
######################################################
   0  115.4258
   1  -17.07134
   2  46.28099
   3  102.4156
   4  258.7967
   5  213.652
   6  213.6931
   7  117.2121
   8  208.3904
   9  209.263
  10  261.0941
  11  236.945
  12  267.5568
  13  246.9153
  14  159.9908
  15  245.9417
  16  189.7699
  17  145.7634
  18  147.8065
  19  187.6986
  20  147.6212
  21  67.02277
  22  114.764
  23  199.6917
  24  223.5238
  25  226.103
  26  251.0841
  27  168.2807
  28  138.9014
  29  69.42764
  30  102.3275
  31  43.80113
  32  167.5467
  33  191.2383
  34  216.6664
  35  120.9353
  36  136.0211
  37  108.8475
  38  76.85577
  39  15.4608
  40  22.30969
  41  16.00977
  42  45.53864
  43  39.30183
  44  89.67376
  45  201.4204
  46  273.1635
  47  231.9507
  48  206.7609
  49  184.2437
  50  97.62617
  51  72.98987
  52  169.5029
  53  326.1899
  54  218.7449
  55  46.01846
  56  44.12079
  57  93.71371
  58  147.3807
  59  96.95152
  60  152.8951
  61  188.0734
  62  256.6158
  63  281.0686
  64  198.0994
  65  116.0296
  66  147.9422
  67  217.8199
  68  146.5899
  69  178.2006
  70  209.0474
  71  234.2252
  72  150.3332
  73  166.8667
  74  204.3917
  75  116.5086
  76  155.1554
  77  172.1814
  78  123.4521
  79  201.599
  80  308.4077
  81  316.3556
  82  110.3163
  83  -20.09203
  84  48.73584
  85  128.9895
  86  52.84215
  87  15.22715
  88  -40.37881
  89  96.01831
  90  147.7398
  91  316.9631
  92  258.2469
  93  208.4179
  94  129.9539
  95  139.1677
  96  143.9403
  97  236.5015
  98  235.3298
  99  171.7523
 100  65.51746
 101  119.2113
 102  85.32853
 103  33.1205
 104  29.78125
 105  96.23198
 106  130.5036
 107  100.9258
 108  87.64112
 109  97.8052
 110  175.17
 111  245.5397
 112  270.1841
 113  136.1897
 114  72.29406
 115  -44.56533
 116  -102.7485
 117  -100.7623
 118  -21.04301
 119  142.0451
 120  211.6498
 121  220.8728
 122  313.6501
 123  314.9747
 124  351.4887
 125  285.7587
 126  186.6056
 127  223.0988
 128  316.3971
 129  339.7381
 130  352.8659
 131  313.6333
 132  294.4173
 133  140.4449
 134  41.25811
 135  163.8282
 136  186.9874
 137  231.0767
 138  250.4248
 139  259.4897
 140  109.8476
 141  54.18555
 142  197.1901
 143  245.214
 144  225.0658
 145  197.7463
 146  303.9803
 147  362.5051
 148  297.8513
 149  257.9854
 150  165.7281
 151  128.8501
 152  74.54641
 153  22.70856
 154  17.80018
 155  13.36704
 156  126.8822
 157  197.2888
 158  232.5081
 159  210.7155
 160  230.1612
 161  229.9253
 162  278.8432
 163  250.9691
 164  154.8258
 165  11.66408
 166  -34.13564
 167  -59.07791
 168  39.10331
 169  178.896
 170  227.4435
 171  155.9288
 172  152.7511
 173  199.6642
 174  232.466
 175  116.5885
 176  148.947
 177  62.22744
 178  113.7581
 179  205.5445
 180  260.1456
 181  193.5354
 182  232.4394
 183  308.9776
 184  292.1834
 185  144.2806
 186  96.53011
 187  153.9076
 188  133.9304
 189  140.4525
 190  212.5067
 191  271.8621
 192  209.5677
 193  198.8833
 194  219.0112
 195  202.6339
 196  189.5896
 197  138.1254
 198  132.0735
 199  100.5827
 200  209.6654
 201  260.8979
 202  248.4758
 203  171.4591
 204  170.9334
 205  145.8176
 206  111.151
 207  248.6121
 208  339.9714
 209  274.6551
 210  258.3386
 211  365.7682
 212  355.7537
 213  129.0705
 214  82.68898
 215  112.6759
 216  105.2384
 217  120.0939
 218  180.3937
 219  200.1373
 220  35.16004
 221  29.96016
 222  127.5432
 223  138.1538
 224  188.862
 225  226.4794
 226  319.8733
 227  247.7345
 228  135.5444
 229  81.84525
 230  170.8742
 231  278.3954
 232  244.9126
 233  211.4964
 234  201.7463
 235  260.9693
 236  154.3312
 237  139.2187
 238  159.4911
 239  149.7884
 240  101.2025
 241  47.02415
 242  63.15737
 243  85.55739
 244  98.73147
 245  35.41354
 246  49.66796
 247  162.2115
 248  231.5755
 249  147.5285
 250  -5.194285
 251  -73.90919
 252  -6.522222
 253  14.03959
 254  79.12478
 255  147.2965
 256  253.9063
 257  245.0133
 258  258.3321
 259  232.7439
 260  192.4358
 261  147.0891
 262  261.9653
 263  283.7083
 264  212.8345
 265  143.5408
 266  137.8749
 267  201.2821
 268  254.4019
 269  286.9738
 270  161.638
 271  86.58084
 272  89.65115
 273  110.9851
 274  145.9254
 275  227.6243
 276  277.7539
 277  254.306
 278  205.3595
 279  224.6945
 280  198.605
 281  169.3972
 282  209.7388
 283  299.7735
 284  343.0923
 285  389.492
 286  314.0923
 287  201.3612
 288  152.5118
 289  307.6964
 290  283.4567
 291  120.2356
 292  -12.61572
 293  99.09686
 294  271.1676
 295  305.7879
 296  222.0649
 297  90.02776
 298  104.6352
 299  148.8521
 300  159.1752
 301  76.82225
 302  91.576
 303  205.8854
 304  171.1079
 305  209.7657
 306  143.895
 307  95.73685
 308  -12.96726
 309  -11.06332
 310  58.34641
 311  92.27203
 312  97.13032
 313  230.9516
 314  219.3447
 315  244.7521
 316  230.8379
 317  267.2345
 318  124.5576
 319  108.3883
 320  118.13
 321  212.9572
 322  162.0577
 323  240.1361
 324  328.6183
 325  296.4673
 326  208.4168
 327  229.5693
 328  225.908
 329  171.7204
 330  149.8428
 331  250.4343
 332  304.9253
 333  241.4755
 334  262.3075
 335  325.4264
 336  303.8846
 337  203.9369
 338  139.2906
 339  130.8559
 340  186.0236
 341  205.7211
 342  248.839
 343  312.6368
 344  341.4645
 345  273.0762
 346  302.6022
 347  407.9023
 348  359.6354
 349  206.1222
 350  46.63762
 351  107.5516
 352  155.9651
 353  211.9383
 354  282.8755
 355  301.2368
 356  230.0763
 357  162.7495
 358  219.4149
 359  320.4839
 360  293.0456
 361  255.8208
 362  186.0582
 363  105.2921
 364  94.92074
 365  217.81
 366  213.6578
 367  178.0199
 368  198.8705
 369  153.6232
 370  28.3835
 371  35.80167
 372  147.9642
 373  227.6246
 374  175.8811
 375  264.59
 376  255.9044
 377  218.875
 378  140.7054
 379  199.2954
 380  224.5463
 381  236.3392
 382  202.2863
 383  144.386
 384  75.78214
 385  116.9079
 386  117.8633
 387  147.3748
 388  115.5354
 389  200.7721
 390  234.0586
 391  237.5975
 392  211.187
 393  118.4956
 394  135.5365
 395  197.9452
 396  295.9908
 397  319.7128
 398  239.2564
 399  171.5704
 400  111.6127
 401  225.1176
 402  415.725
 403  496.2052
 404  418.0332
 405  364.7857
 406  396.0672
 407  330.9163
 408  216.5605
 409  223.6802
 410  198.6014
 411  148.3769
 412  91.8189
 413  162.6833
 414  272.7921
 415  295.7032
 416  259.6329
 417  174.9711
 418  133.7023
 419  163.4311
 420  163.7536
 421  198.0676
 422  198.7128
 423  264.9946
 424  229.2027
 425  224.0014
 426  309.245
 427  358.6862
 428  366.0224
 429  278.9841
 430  184.08
 431  164.0179
 432  129.745
 433  166.2661
 434  81.72784
 435  22.58624
 436  31.33217
 437  57.55156
 438  140.2843
 439  231.2865
 440  284.1292
 441  143.7913
 442  13.63996
 443  35.05631
 444  229.4225
 445  287.9279
 446  192.0252
 447  226.5447
 448  247.0544
 449  165.4413
 450  142.2221
 451  91.85296
 452  59.38752
 453  31.71984
 454  119.7634
 455  187.5511
 456  181.6183
 457  253.3407
 458  294.3178
 459  314.4011
 460  96.58288
 461  -2.804077
 462  16.7443
 463  116.9434
 464  281.3139
 465  204.2424
 466  181.1305
 467  82.00813
 468  63.4507
 469  134.97
 470  206.1808
 471  209.1125
 472  150.1914
 473  122.6683
 474  202.0936
 475  173.164
 476  84.96063
 477  12.62545
 478  -5.973616
 479  -102.566
 480  -114.038
 481  11.59567
 482  167.1162
 483  247.7185
 484  326.0703
 485  347.3516
 486  246.1305
 487  149.4949
 488  119.7056
 489  119.5935
 490  141.3814
 491  174.18
 492  199.6539
 493  106.8246
 494  205.5411
 495  323.7596
 496  372.5241
 497  375.8789
 498  341.0613
 499  236.6145
 500  76.60262
 501  52.43858
 502  85.16203
 503  81.09586
 504  134.3641
 505  302.3311
 506  352.1629
 507  351.959
 508  240.1157
 509  331.1144
 510  309.9103
 511  337.8091
 512  355.1566
 513  332.8438
 514  322.8974
 515  289.7693
 516  257.3139
 517  208.5767
 518  245.0187
 519  274.5251
 520  252.6128
 521  197.2265
 522  362.3214
 523  462.3192
 524  300.9895
 525  151.4436
 526  69.95758
 527  80.6348
 528  89.67345
 529  55.27153
 530  62.54927
 531  77.66914
 532  142.7844
 533  171.9125
 534  159.4417
 535  270.8448
 536  234.1597
 537  191.1328
 538  136.5734
 539  219.4959
 540  204.2376
 541  229.3973
 542  341.4747
 543  313.3203
 544  187.1156
 545  78.72961
 546  166.8755
 547  208.4026
 548  244.5312
 549  254.6773
 550  205.4811
 551  25.28282
 552  -42.07187
 553  -2.308158
 554  17.2195
 555  -18.28262
 556  87.04696
 557  248.485
 558  213.6403
 559  136.4296
 560  172.1631
 561  317.2859
 562  350.4055
 563  323.1763
 564  304.1739
 565  202.9601
 566  207.5445
 567  275.5031
 568  243.7407
 569  181.5759
 570  156.4272
 571  101.7353
 572  114.0795
 573  222.1874
 574  276.7543
 575  232.3269
 576  199.4229
 577  210.2378
 578  123.1552
 579  -53.65905
 580  -73.8789
 581  -68.84122
 582  57.4729
 583  174.4044
 584  184.4872
 585  127.6786
 586  136.2235
 587  344.9667
 588  383.3728
 589  337.2816
 590  163.4426
 591  142.7224
 592  154.1611
 593  248.7208
 594  235.3729
 595  233.6678
 596  204.9106
 597  227.489
 598  223.2711
 599  227.583
 600  312.386
 601  345.8281
 602  350.3349
 603  266.6286
 604  278.278
 605  221.187
 606  210.0992
 607  247.6767
 608  325.9442
 609  298.758
 610  245.5783
 611  325.8345
 612  367.3676
 613  292.1306
 614  281.8178
 615  325.4799
 616  270.8828
 617  252.5283
 618  301.4522
 619  323.0329
 620  251.3798
 621  252.6988
 622  262.9298
 623  184.9914
 624  121.5702
 625  269.1559
 626  319.8466
 627  271.9299
 628  132.2265
 629  139.3532
 630  125.1893
 631  179.3715
 632  224.1886
 633  263.5722
 634  250.2379
 635  198.6419
 636  295.4697
 637  397.8332
 638  491.5587
 639  480.026
 640  572.2903
 641  765.5962
 642  843.8223
 643  816.46
 644  784.0273
 645  819.6682
 646  916.049
 647  867.7648
 648  860.3165
 649  725.6011
 650  623.132
 651  529.3737
 652  479.1911
 653  369.9539
 654  342.9726
 655  350.6037
 656  356.4411
 657  242.9987
 658  230.6738
 659  332.964
 660  421.4122
 661  310.81
 662  281.314
 663  343.088
 664  426.6823
 665  380.0594
 666  279.4148
 667  226.8072
 668  204.5869
 669  333.3661
 670  490.8971
 671  406.0713
 672  261.2072
 673  226.4665
 674  328.5955
 675  233.2813
 676  200.0587
 677  309.0566
 678  443.2776
 679  449.9346
 680  394.7451
 681  295.4451
 682  81.72551
 683  19.66072
 684  61.33363
 685  136.8742
 686  143.4669
 687  170.7699
 688  237.7516
 689  214.3612
 690  241.3997
 691  150.9521
 692  158.4898
 693  176.7177
 694  231.8232
 695  190.1804
 696  31.73813
 697  8.500343
 698  -123.0162
 699  -100.6751
 700  -51.79433
 701  107.837
 702  103.6673
 703  154.7858
 704  137.6831
 705  186.535
 706  216.5523
 707  271.4684
 708  248.1174
 709  184.2662
 710  212.2319
 711  286.4066
 712  250.8856
 713  226.9164
 714  161.9689
 715  139.9241
 716  59.194
 717  78.38794
 718  41.69798
 719  61.85934
 720  119.5411
 721  229.6515
 722  273.2365
 723  217.8488
 724  240.5224
 725  247.1178
 726  255.5884
 727  288.5491
 728  304.6236
 729  324.8701
 730  282.0824
 731  230.8263
 732  178.2871
 733  102.3361
 734  115.7513
 735  166.8686
 736  180.661
 737  263.3048
 738  215.5393
 739  119.9506
 740  -3.534562
 741  72.08643
 742  159.4529
 743  228.4081
 744  161.0625
 745  172.7947
 746  113.6328
 747  48.33014
 748  27.35221
 749  34.05071
 750  105.0383
 751  81.2109
 752  67.52626
 753  -54.14801
 754  -68.00362
 755  66.07501
 756  125.7552
 757  86.33611
 758  34.48259
 759  58.50666
 760  7.997633
 761  -33.48193
 762  72.31487
 763  178.0632
 764  185.8709
 765  186.3493
 766  193.4165
 767  135.4225
 768  51.54704
 769  -64.38463
 770  -16.84271
 771  61.75415
 772  137.4008
 773  93.76189
 774  -89.50857
 775  -131.6827
 776  -105.0733
 777  16.21705
 778  177.8138
 779  221.8089
 780  256.4159
 781  94.35379
 782  76.45635
 783  38.37505
 784  107.8431
 785  127.4216
 786  209.0938
 787  197.616
 788  135.2975
 789  180.8861
 790  219.067
 791  250.8508
 792  199.744
 793  143.0342
 794  37.85199
 795  -23.39146
 796  -26.61449
 797  38.51505
 798  65.96294
 799  117.7214
 800  118.58
 801  155.108
 802  250.257
 803  267.1177
 804  248.4807
 805  166.7385
 806  120.8916
 807  34.62444
 808  -15.48159
 809  1.713418
 810  0.9984082
 811  35.74744
 812  133.7017
 813  157.4122
 814  81.52294
 815  64.77184
 816  122.2984
 817  199.2193
 818  326.0739
 819  426.0468
 820  357.1593
 821  145.1743
 822  80.73606
 823  110.586
 824  118.3818
 825  3.033188
 826  2.252669
 827  -24.97871
 828  62.18169
 829  117.1686
 830  170.8172
 831  102.528
 832  37.99012
 833  54.02372
 834  134.0175
 835  114.2705
 836  116.3237
 837  65.58667
 838  83.59998
 839  168.3118
 840  262.6629
 841  207.0705
 842  146.0064
 843  177.7394
 844  304.7861
 845  344.9853
 846  345.3855
 847  259.4028
 848  270.6171
 849  208.2432
 850  284.3973
 851  315.5937
 852  302.8367
 853  266.3298
 854  262.1936
 855  229.0165
 856  171.4905
 857  156.5365
 858  186.558
 859  223.8814
 860  219.6175
 861  271.4367
 862  145.4475
 863  140.2908
 864  171.0041
 865  243.306
 866  128.678
 867  67.50352
 868  105.159
 869  148.3881
 870  162.2479
 871  172.3143
 872  191.6379
 873  161.755
 874  151.04
 875  244.0539
 876  283.9446
 877  210.505
 878  122.4661
 879  125.5884
 880  211.1459
 881  316.8459
 882  384.6352
 883  324.108
 884  269.6937
 885  218.194
 886  210.2226
 887  129.7582
 888  181.7411
 889  123.6229
 890  167.9824
 891  139.5159
 892  264.3178
 893  193.6498
 894  179.7687
 895  182.5856
 896  191.0166
 897  82.74538
 898  106.0297
 899  125.3113
 900  100.9421
 901  -1.557364
 902  142.6785
 903  176.2274
 904  188.6504
 905  143.8746
 906  178.9071
 907  119.3816
 908  70.69272
 909  139.5431
 910  216.1912
 911  249.3404
 912  255.6454
 913  282.4377
 914  88.05238
 915  9.987143
 916  39.17461
 917  201.4194
 918  196.0224
 919  162.7954
 920  174.766
 921  125.1594
 922  -7.11756
 923  -15.68223
 924  -72.29264
 925  -74.93155
 926  -32.25402
 927  -2.211556
 928  -33.77648
 929  90.55993
 930  227.4088
 931  269.3571
 932  216.3294
 933  235.6046
 934  198.957
 935  111.8852
 936  70.26631
 937  167.677
 938  113.9998
 939  107.4692
 940  54.42444
 941  148.419
 942  224.737
 943  370.0704
 944  300.3193
 945  152.892
 946  81.27866
 947  61.30628
 948  168.4623
 949  81.70499
 950  127.4915
 951  53.94101
 952  130.7404
 953  156.7514
 954  196.7846
 955  166.3848
 956  81.96945
 957  97.12202
 958  109.9077
 959  112.4621
 960  92.71122
 961  58.7609
 962  165.9259
 963  97.23657
 964  150.995
 965  56.05992
 966  115.0757
 967  180.4907
 968  176.747
 969  162.3654
 970  176.7392
 971  249.2778
 972  184.2665
 973  183.5829
 974  242.3085
 975  247.4183
 976  161.2685
 977  145.5622
 978  244.668
 979  278.6417
 980  297.7808
 981  306.9886
 982  281.5462
 983  87.19753
 984  149.8514
 985  232.0251
 986  258.1017
 987  89.99277
 988  66.4445
 989  150.8181
 990  155.8878
 991  247.9843
 992  290.1855
 993  329.6959
 994  272.8745
 995  362.8401
 996  296.3886
 997  235.8748
 998  158.8858
 999  121.4115
1000  150.5816
1001  137.3002
1002  184.9306
1003  218.3364
1004  214.7153
1005  167.9069
1006  95.77479
1007  202.822
1008  297.8101
1009  258.7961
1010  160.017
1011  107.8894
1012  99.46712
1013  149.8026
1014  181.8105
1015  258.1566
1016  271.7279
1017  277.6076
1018  249.845
1019  223.8568
1020  199.0257
1021  239.1481
1022  236.5746
1023  228.9751
