# Input file       =  1187387774.104203_cleaned.dat
# Candidate        =  PSR_0332+5434
# Telescope        =  AR
# Epoch_topo       =  57986.914272039387
# Epoch_bary       =  N/A
# T_sample         =  0.002
# Data Folded      =  7143424
# Data Avg         =  0.144537415322335
# Data StdDev      =  4.61859098492022 
# Profile Bins     =  1024
# Profile Avg      =  1008.27937894687 
# Profile StdDev   =  385.756044174866 
# Reduced chi-sqr  =  0.420
# Prob(Noise)      <  1   (~0.0 sigma)
# P_topo (ms)      =  714.463677738461  +/- 2.83e-05
# P'_topo (s/s)    =  -0                +/- 1.54e-11
# P''_topo (s/s^2) =  0                 +/- 6.97e-15
# P_bary (ms)      =  N/A
# P'_bary (s/s)    =  N/A
# P''_bary (s/s^2) =  N/A
# P_orb (s)        =  N/A
# asin(i)/c (s)    =  N/A
# eccentricity     =  N/A
# w (rad)          =  N/A
# T_peri           =  N/A
######################################################
   0  822.2485
   1  942.6968
   2  1071.2
   3  1106.523
   4  1075.549
   5  985.4117
   6  830.4539
   7  897.9179
   8  1077.133
   9  1154.665
  10  1170.398
  11  1139.91
  12  1020.098
  13  963.5683
  14  999.9758
  15  1120.466
  16  1100.657
  17  1086.779
  18  1121.069
  19  923.854
  20  989.0865
  21  1145.473
  22  1263.421
  23  1005.667
  24  845.9412
  25  904.8029
  26  1016.712
  27  1030.71
  28  1082.491
  29  962.8603
  30  964.0325
  31  858.4218
  32  1015.818
  33  841.2065
  34  801.8351
  35  798.2756
  36  809.7025
  37  794.4654
  38  780.3545
  39  807.8145
  40  916.1725
  41  1042.459
  42  1104.26
  43  958.7225
  44  915.9743
  45  1116.854
  46  1138.577
  47  1082.631
  48  957.3187
  49  1052.164
  50  967.6458
  51  957.4291
  52  989.6533
  53  956.7825
  54  784.7775
  55  843.0865
  56  903.1733
  57  891.1979
  58  840.8979
  59  1062.182
  60  1036.779
  61  1005.839
  62  937.0515
  63  983.6906
  64  954.3016
  65  1041.412
  66  1204.83
  67  1151.849
  68  1157.292
  69  1045.285
  70  966.7446
  71  808.1787
  72  869.4006
  73  938.7601
  74  900.4302
  75  930.4835
  76  958.9209
  77  1033.309
  78  967.4308
  79  1055.972
  80  1132.123
  81  1091.846
  82  1153.912
  83  1151.694
  84  1003.319
  85  802.5306
  86  980.3445
  87  995.64
  88  925.1385
  89  732.6734
  90  974.0958
  91  987.3966
  92  959.1707
  93  1052.558
  94  1061.269
  95  907.8506
  96  844.1721
  97  849.5634
  98  806.0643
  99  621.7302
 100  822.7748
 101  987.4457
 102  1015.056
 103  840.8322
 104  866.3265
 105  845.9259
 106  798.0297
 107  791.332
 108  824.8598
 109  845.1359
 110  961.067
 111  987.4936
 112  950.1535
 113  882.1628
 114  908.9163
 115  1084.657
 116  1076.545
 117  1177.375
 118  1040.663
 119  976.5447
 120  976.8387
 121  967.2496
 122  806.1586
 123  808.5718
 124  1025.141
 125  1180.865
 126  1113.941
 127  1092.153
 128  1081.204
 129  947.1899
 130  918.4371
 131  1004.163
 132  1006.28
 133  847.0136
 134  763.6244
 135  738.1423
 136  890.8652
 137  969.7839
 138  1225.465
 139  1114.928
 140  1160.49
 141  1151.009
 142  1203.504
 143  1103.959
 144  900.944
 145  895.1122
 146  817.2502
 147  964.5729
 148  1091.122
 149  989.0816
 150  938.0519
 151  938.4543
 152  1043.405
 153  921.7044
 154  912.3745
 155  931.5586
 156  884.6993
 157  785.2272
 158  960.6136
 159  1004.877
 160  941.0366
 161  981.4616
 162  1164.524
 163  1193.892
 164  1094.439
 165  1080.165
 166  1024.873
 167  842.9215
 168  720.4958
 169  849.1108
 170  869.3549
 171  1031.037
 172  1118.031
 173  1198.494
 174  1074.01
 175  1105.779
 176  1194.644
 177  1085.222
 178  1056.307
 179  1139.377
 180  1086.364
 181  971.1718
 182  972.9158
 183  1015.352
 184  984.0186
 185  867.2149
 186  863.4097
 187  694.412
 188  815.3772
 189  1097.367
 190  1267.068
 191  1144.558
 192  1010.665
 193  948.0889
 194  838.8777
 195  782.7357
 196  996.7366
 197  1049.146
 198  1057.134
 199  1060.877
 200  1153.817
 201  1093.881
 202  965.8289
 203  1032.303
 204  1054.365
 205  997.9532
 206  961.694
 207  837.9905
 208  886.452
 209  983.1238
 210  1099.862
 211  904.7699
 212  834.4126
 213  902.6993
 214  1022.59
 215  940.7745
 216  1057.879
 217  1208.192
 218  1128.634
 219  1071.011
 220  966.4374
 221  1001.582
 222  820.2601
 223  892.4747
 224  893.339
 225  729.5585
 226  712.6641
 227  786.442
 228  769.8552
 229  731.0025
 230  730.598
 231  893.2999
 232  907.7292
 233  1083.928
 234  1201.483
 235  1143.817
 236  1108.417
 237  1093.892
 238  1063.096
 239  861.1967
 240  759.6922
 241  849.5106
 242  906.5351
 243  950.5333
 244  847.0268
 245  694.8948
 246  710.8186
 247  862.2963
 248  1048.16
 249  999.2939
 250  1042.252
 251  1151.325
 252  1197.503
 253  928.3615
 254  812.224
 255  682.3447
 256  736.9176
 257  839.129
 258  977.4335
 259  897.6611
 260  774.7205
 261  917.5885
 262  1062.241
 263  1199.419
 264  1113.228
 265  921.4009
 266  784.9379
 267  772.7392
 268  903.9868
 269  780.7257
 270  795.6082
 271  1006.305
 272  1066.617
 273  997.8424
 274  892.6273
 275  1039.51
 276  909.024
 277  886.7992
 278  834.6212
 279  965.5363
 280  967.6038
 281  1071.405
 282  1171.459
 283  1091.53
 284  1022.89
 285  1010.448
 286  961.6555
 287  849.9073
 288  862.3593
 289  920.5536
 290  871.0321
 291  859.9974
 292  1021.324
 293  1037.497
 294  936.3002
 295  883.2314
 296  980.309
 297  873.3728
 298  856.254
 299  1079.408
 300  1182.385
 301  1157.299
 302  1079.433
 303  945.0104
 304  845.8555
 305  645.7694
 306  813.1366
 307  729.3166
 308  819.9666
 309  815.1752
 310  969.8068
 311  1068.101
 312  1062.6
 313  1002.41
 314  883.6909
 315  966.5281
 316  996.6111
 317  1077.073
 318  981.7324
 319  1064.336
 320  921.7006
 321  713.4216
 322  648.7357
 323  761.0611
 324  831.7433
 325  718.4765
 326  754.4236
 327  768.9785
 328  895.8684
 329  987.5943
 330  967.6596
 331  933.0833
 332  936.9373
 333  996.7914
 334  848.4225
 335  771.9254
 336  815.8682
 337  935.2375
 338  911.3137
 339  910.4948
 340  967.9642
 341  978.4673
 342  1051.852
 343  1078.434
 344  1231.712
 345  1083.904
 346  1254.95
 347  1215.292
 348  1110.243
 349  851.4485
 350  987.1296
 351  1046.655
 352  1072.291
 353  1053.863
 354  1105.083
 355  969.7483
 356  845.3798
 357  934.2162
 358  965.8071
 359  839.0671
 360  828.1057
 361  851.7073
 362  914.4803
 363  893.0624
 364  1045.615
 365  1050.961
 366  1001.266
 367  1170.261
 368  1256.754
 369  1120.86
 370  971.7101
 371  1107.202
 372  973.6927
 373  898.5732
 374  750.6779
 375  763.7042
 376  786.3981
 377  980.2075
 378  1012.626
 379  1002.442
 380  845.7234
 381  917.369
 382  735.5002
 383  742.76
 384  834.6445
 385  918.5305
 386  827.8044
 387  906.6204
 388  1063.128
 389  1091.762
 390  1022.784
 391  1105.475
 392  1071.725
 393  957.7491
 394  807.7643
 395  948.0989
 396  993.8364
 397  1126.645
 398  1116.823
 399  1007.96
 400  954.3205
 401  984.4374
 402  960.9343
 403  862.1451
 404  1010.459
 405  1280.8
 406  1224.086
 407  1064.418
 408  987.27
 409  1040.94
 410  954.0202
 411  985.9558
 412  1098.467
 413  977.2269
 414  845.2305
 415  834.2438
 416  889.3732
 417  753.1732
 418  774.0421
 419  911.3696
 420  888.4262
 421  811.0257
 422  921.9759
 423  896.8449
 424  880.1937
 425  961.8423
 426  1085.951
 427  1204.336
 428  1072.214
 429  1191.656
 430  988.0817
 431  897.6082
 432  882.6252
 433  959.2773
 434  944.7285
 435  774.0172
 436  797.1852
 437  932.2637
 438  982.0808
 439  1026.768
 440  992.0991
 441  977.9451
 442  1029.49
 443  1103.137
 444  1049.079
 445  928.813
 446  828.9347
 447  758.5486
 448  813.7324
 449  952.5004
 450  885.6799
 451  882.5144
 452  915.3832
 453  988.9001
 454  921.1279
 455  864.3397
 456  1042.514
 457  1009.545
 458  878.0058
 459  787.2859
 460  872.2849
 461  844.9807
 462  876.6982
 463  958.9145
 464  1075.724
 465  1106.756
 466  1258.513
 467  1245.285
 468  1135.918
 469  923.2353
 470  1022.919
 471  928.128
 472  980.2794
 473  1038.757
 474  1093.313
 475  959.9756
 476  922.4274
 477  945.5983
 478  895.6367
 479  882.8182
 480  1043.87
 481  1156.432
 482  1139.241
 483  1115.682
 484  1152.917
 485  1120.222
 486  983.2165
 487  1055.562
 488  988.7439
 489  913.2283
 490  896.5872
 491  1123.323
 492  1131.812
 493  1057.171
 494  986.5806
 495  954.2567
 496  872.5104
 497  920.6459
 498  946.2832
 499  1061.781
 500  1087.769
 501  1103.428
 502  1010.678
 503  907.9279
 504  899.1959
 505  981.129
 506  1027.544
 507  1062.251
 508  1007.028
 509  948.4508
 510  907.291
 511  964.6591
 512  1063.12
 513  1081.509
 514  1184.994
 515  1165.408
 516  1177.098
 517  1076.758
 518  1131.702
 519  1084.25
 520  1140.973
 521  1155.269
 522  1112.647
 523  1077.357
 524  1045.627
 525  1079.957
 526  1070.28
 527  1014.007
 528  1023.258
 529  936.4312
 530  948.3378
 531  901.6091
 532  955.3108
 533  888.8168
 534  1044.702
 535  1241.067
 536  1308.404
 537  1208.646
 538  1233.093
 539  1222.975
 540  989.437
 541  867.6235
 542  952.2111
 543  992.1349
 544  1055.221
 545  1057.939
 546  1040.824
 547  914.4507
 548  953.2591
 549  1181.595
 550  1237.102
 551  1156.005
 552  1068.91
 553  1078.92
 554  1052.981
 555  1091.397
 556  1172.009
 557  1160.663
 558  1037.631
 559  1107.899
 560  1114.008
 561  1118.278
 562  1006.469
 563  1057.351
 564  1088.174
 565  1088.724
 566  1113.424
 567  1052.701
 568  1079.545
 569  1061.766
 570  1021.159
 571  973.0914
 572  1162.209
 573  1238.522
 574  1127.38
 575  964.7708
 576  1079.533
 577  1112.456
 578  1093.495
 579  1130.916
 580  1156.502
 581  1111.177
 582  1076.178
 583  1095.006
 584  1090.185
 585  1071.556
 586  1076.528
 587  1129.744
 588  1020.087
 589  1210.286
 590  1156.455
 591  1038.165
 592  798.778
 593  981.9645
 594  1168.715
 595  1304.578
 596  1320.185
 597  1249.109
 598  1105.378
 599  954.7398
 600  1046.369
 601  1109.553
 602  1065.114
 603  1106.135
 604  1111.617
 605  1066.7
 606  882.9351
 607  816.7831
 608  829.4527
 609  835.684
 610  951.8922
 611  1066.771
 612  1140.279
 613  1080.052
 614  1092.078
 615  1042.763
 616  1019.505
 617  1057.536
 618  970.3498
 619  802.7287
 620  772.9732
 621  956.0392
 622  1171.398
 623  1182.514
 624  1199.348
 625  1126.317
 626  1027.361
 627  1025.225
 628  1189.047
 629  1216.012
 630  1153.418
 631  1106.854
 632  1096.181
 633  997.192
 634  1025.944
 635  1015.452
 636  1190.837
 637  1301.372
 638  1379.314
 639  1140.298
 640  1188.788
 641  1391.243
 642  1575.461
 643  1586.219
 644  1528.922
 645  1704.852
 646  1621.023
 647  1636.933
 648  1632.871
 649  1666.583
 650  1475.907
 651  1376.331
 652  1357.623
 653  1275.19
 654  1188.604
 655  1301.054
 656  1094.536
 657  781.9415
 658  680.2032
 659  906.918
 660  1028.841
 661  1008.344
 662  994.0659
 663  912.522
 664  840.2247
 665  869.9081
 666  1013.723
 667  1099.465
 668  1146.957
 669  1146.119
 670  1081.115
 671  1006.258
 672  1025.763
 673  1009.596
 674  985.9761
 675  956.7623
 676  916.9803
 677  953.7094
 678  1096.77
 679  1256.518
 680  1210.026
 681  1071.159
 682  1121.6
 683  1203.16
 684  1178.736
 685  1188.671
 686  1253.792
 687  1078.75
 688  944.9189
 689  929.4066
 690  955.1801
 691  882.2158
 692  969.5919
 693  963.1893
 694  1013.415
 695  849.5648
 696  1171.129
 697  1211.772
 698  1119.255
 699  915.7306
 700  920.262
 701  951.7689
 702  983.8439
 703  1107.458
 704  1007.946
 705  958.7338
 706  1101.629
 707  1282.217
 708  1192.864
 709  1066.272
 710  1067.641
 711  1006.881
 712  1092.197
 713  1167.4
 714  1154.984
 715  970.4012
 716  935.1382
 717  1020.426
 718  936.2593
 719  895.7282
 720  1133.318
 721  1174.13
 722  1031.179
 723  894.5466
 724  889.6193
 725  864.1279
 726  899.6019
 727  1037.816
 728  1170.278
 729  1096.912
 730  1108.852
 731  1009.089
 732  989.2971
 733  921.4547
 734  972.0049
 735  853.4918
 736  867.9836
 737  795.3303
 738  861.9037
 739  900.7739
 740  1078.509
 741  1057.896
 742  907.4244
 743  881.3885
 744  1080.826
 745  1225.597
 746  1025.625
 747  1002.595
 748  1056.979
 749  1159.759
 750  1174.76
 751  1065.615
 752  1010.31
 753  868.0422
 754  1063.333
 755  1071.525
 756  983.7103
 757  1006.474
 758  1157.012
 759  1176.305
 760  1008.348
 761  1030.591
 762  1158.62
 763  1179.905
 764  1056.172
 765  1055.64
 766  999.9718
 767  1092.814
 768  1186.667
 769  1271.771
 770  1082.247
 771  1199.827
 772  1136.026
 773  1054.794
 774  948.6879
 775  1115.492
 776  1166.621
 777  1101.294
 778  1107.564
 779  1043.844
 780  997.5541
 781  1003.31
 782  939.3283
 783  763.4568
 784  720.8777
 785  914.6576
 786  906.406
 787  944.4044
 788  1082.094
 789  1104.629
 790  979.439
 791  745.489
 792  934.0696
 793  968.5748
 794  1010.648
 795  979.8259
 796  1047.863
 797  1061.385
 798  981.7526
 799  1026.726
 800  987.2491
 801  1006.396
 802  1051.057
 803  1016.31
 804  970.664
 805  941.2393
 806  949.7524
 807  887.1077
 808  955.8731
 809  1093.407
 810  945.3251
 811  817.0885
 812  778.4853
 813  908.5624
 814  867.795
 815  915.9707
 816  1010.726
 817  1059.371
 818  959.549
 819  938.3043
 820  832.4997
 821  886.5849
 822  926.8782
 823  1121.075
 824  960.4134
 825  931.2116
 826  1013.205
 827  1081.981
 828  1052.961
 829  1082.324
 830  1178.284
 831  1034.794
 832  1100.854
 833  1250.612
 834  1228.355
 835  1059.66
 836  975.6754
 837  1081.803
 838  983.6074
 839  899.4208
 840  985.6369
 841  944.838
 842  1017.894
 843  986.7204
 844  989.5554
 845  991.3528
 846  1073.046
 847  1251.721
 848  1198.008
 849  1044.729
 850  1099.567
 851  1050.583
 852  1037.701
 853  934.4927
 854  961.5981
 855  869.041
 856  761.5714
 857  868.6405
 858  943.6237
 859  1003.096
 860  1017.346
 861  1092.032
 862  1114.009
 863  1031.97
 864  1052.262
 865  949.1604
 866  922.9457
 867  921.3867
 868  1001.761
 869  1046.418
 870  1202.614
 871  1227.935
 872  1224.711
 873  1126.342
 874  1215.88
 875  1055.777
 876  1004.608
 877  973.0006
 878  978.41
 879  880.7598
 880  940.8373
 881  1000.106
 882  976.1381
 883  949.3404
 884  1171.482
 885  1204.893
 886  1123.622
 887  1021.256
 888  1118.724
 889  1037.51
 890  991.2787
 891  1041.07
 892  1095.753
 893  1038.796
 894  1065.25
 895  996.4977
 896  974.994
 897  966.5731
 898  1251.533
 899  1233.292
 900  1089.84
 901  937.9146
 902  1150.276
 903  997.201
 904  906.6327
 905  881.3501
 906  1021.169
 907  1080.032
 908  1110.022
 909  1127.543
 910  969.8237
 911  994.4792
 912  1188.934
 913  1208.047
 914  1014.462
 915  1013.537
 916  1057.951
 917  1119.727
 918  1043.679
 919  1044.477
 920  1039.693
 921  1063.841
 922  1261.74
 923  1219.12
 924  1170.075
 925  1044.878
 926  1050.932
 927  1008.514
 928  970.8385
 929  1108.503
 930  1023.503
 931  1014.065
 932  982.2411
 933  1191.618
 934  1230.942
 935  1213.175
 936  1197.547
 937  1108.899
 938  1114.569
 939  1041.376
 940  996.3552
 941  917.3416
 942  1014.346
 943  999.2795
 944  1073.619
 945  1010.831
 946  1158.492
 947  1101.284
 948  1121.752
 949  1111.457
 950  1148.671
 951  995.2381
 952  1011.936
 953  970.8856
 954  973.5229
 955  836.5045
 956  920.1578
 957  877.8755
 958  907.3005
 959  888.4321
 960  1079.051
 961  1060.789
 962  1236.097
 963  1216.748
 964  1124.75
 965  903.5685
 966  977.5198
 967  1107.199
 968  1022.062
 969  1019.22
 970  1021.477
 971  954.9382
 972  859.7784
 973  1025.663
 974  1207.76
 975  1220.793
 976  1145.314
 977  1121.303
 978  1015.579
 979  825.5472
 980  872.6563
 981  876.0011
 982  972.0689
 983  988.0197
 984  1050.652
 985  956.5741
 986  986.5699
 987  1049.582
 988  880.9136
 989  835.2232
 990  847.9379
 991  1022.942
 992  1066.414
 993  1022.128
 994  1086.93
 995  930.557
 996  968.1714
 997  1015.453
 998  981.3289
 999  782.6061
1000  777.5641
1001  895.2386
1002  957.3705
1003  1008.219
1004  1152.96
1005  1021.533
1006  905.8881
1007  930.9374
1008  1202.055
1009  1077.959
1010  888.6121
1011  881.0745
1012  1026.176
1013  976.345
1014  1032.121
1015  1087.957
1016  1132.708
1017  1072.73
1018  1124.812
1019  1048.973
1020  798.1129
1021  724.8512
1022  702.6223
1023  737.8271
