# Input file       =  1187848054.111043_cleaned.dat
# Candidate        =  PSR_0332+5434
# Telescope        =  AR
# Epoch_topo       =  57992.241586933371
# Epoch_bary       =  N/A
# T_sample         =  0.002
# Data Folded      =  7340032
# Data Avg         =  0.0357523593795901
# Data StdDev      =  3.03334337879959 
# Profile Bins     =  512
# Profile Avg      =  512.475992391765 
# Profile StdDev   =  363.191413117034 
# Reduced chi-sqr  =  1.313
# Prob(Noise)      <  2.37e-06   (~4.6 sigma)
# P_topo (ms)      =  714.463686892293  +/- 0.000383
# P'_topo (s/s)    =  -0                +/- 2.02e-10
# P''_topo (s/s^2) =  0                 +/- 8.92e-14
# P_bary (ms)      =  N/A
# P'_bary (s/s)    =  N/A
# P''_bary (s/s^2) =  N/A
# P_orb (s)        =  N/A
# asin(i)/c (s)    =  N/A
# eccentricity     =  N/A
# w (rad)          =  N/A
# T_peri           =  N/A
######################################################
   0  683.8538
   1  419.887
   2  560.289
   3  764.3836
   4  779.0021
   5  486.4462
   6  76.5871
   7  572.0781
   8  750.8599
   9  383.5358
  10  406.5755
  11  535.6804
  12  603.7799
  13  934.136
  14  871.7016
  15  824.1697
  16  561.1194
  17  318.5428
  18  510.5345
  19  914.402
  20  847.1821
  21  926.0109
  22  677.2393
  23  1052.525
  24  982.8306
  25  368.4799
  26  69.4235
  27  738.8425
  28  676.2485
  29  541.2651
  30  430.563
  31  528.9987
  32  712.2668
  33  908.8102
  34  889.1824
  35  683.946
  36  614.6182
  37  380.0019
  38  538.9161
  39  739.845
  40  824.5112
  41  734.0615
  42  299.477
  43  -29.49698
  44  47.41147
  45  621.4351
  46  443.1668
  47  307.74
  48  568.2175
  49  307.0931
  50  244.0357
  51  164.2082
  52  83.70741
  53  106.1123
  54  -128.9685
  55  270.5892
  56  336.072
  57  -154.8742
  58  124.7241
  59  134.8055
  60  162.3838
  61  225.933
  62  326.2992
  63  217.2104
  64  539.0312
  65  765.232
  66  573.047
  67  410.5222
  68  342.0817
  69  158.8766
  70  -33.89453
  71  125.227
  72  321.6774
  73  292.7099
  74  493.871
  75  488.074
  76  661.8325
  77  209.4656
  78  73.42922
  79  258.3447
  80  332.2247
  81  417.6098
  82  240.237
  83  649.8938
  84  642.5269
  85  380.1184
  86  477.7365
  87  644.1707
  88  754.8299
  89  561.9077
  90  418.0668
  91  761.4412
  92  445.838
  93  449.3286
  94  466.9665
  95  466.8887
  96  708.1848
  97  802.8995
  98  710.5609
  99  283.267
 100  545.9431
 101  832.5352
 102  783.2287
 103  258.0045
 104  381.9817
 105  362.7448
 106  294.5679
 107  485.9533
 108  493.2785
 109  943.9086
 110  540.5518
 111  303.614
 112  274.8031
 113  403.3926
 114  128.2628
 115  186.122
 116  471.6016
 117  635.4995
 118  81.53116
 119  120.0621
 120  637.8187
 121  543.9011
 122  166.0457
 123  179.5414
 124  -3.913212
 125  286.9962
 126  481.5284
 127  403.1366
 128  379.1264
 129  624.6436
 130  598.8599
 131  260.107
 132  427.9659
 133  264.9554
 134  42.51831
 135  198.1479
 136  510.4045
 137  621.7556
 138  907.2988
 139  786.4274
 140  896.685
 141  435.0851
 142  334.6054
 143  537.8713
 144  459.4167
 145  132.7605
 146  174.5446
 147  395.2757
 148  1088.985
 149  850.4243
 150  770.7446
 151  620.9871
 152  420.7577
 153  452.4348
 154  514.3802
 155  725.168
 156  408.8089
 157  1018.223
 158  1017.214
 159  1013.479
 160  773.143
 161  427.4105
 162  495.2246
 163  566.7868
 164  682.139
 165  756.0137
 166  914.6722
 167  726.3304
 168  673.5493
 169  1137.177
 170  1301.846
 171  804.2968
 172  1025.981
 173  1127.32
 174  1112.987
 175  851.1356
 176  605.4199
 177  563.7632
 178  412.977
 179  90.44335
 180  246.2609
 181  660.6487
 182  648.2147
 183  314.7309
 184  313.755
 185  185.1936
 186  221.1425
 187  12.78014
 188  423.5871
 189  600.9689
 190  702.137
 191  572.7731
 192  445.3632
 193  331.9232
 194  444.5725
 195  388.4454
 196  158.3351
 197  414.1646
 198  468.8241
 199  -73.42296
 200  50.99597
 201  491.1946
 202  372.5548
 203  422.2278
 204  506.9935
 205  304.2737
 206  256.5666
 207  -73.22542
 208  -224.0735
 209  57.25959
 210  258.2997
 211  439.808
 212  62.19738
 213  273.9806
 214  489.4934
 215  403.4974
 216  538.8708
 217  347.3771
 218  245.2474
 219  552.5145
 220  563.1055
 221  760.9293
 222  745.317
 223  250.0343
 224  245.1845
 225  166.1255
 226  362.584
 227  800.2487
 228  937.3423
 229  356.1676
 230  596.4544
 231  438.9545
 232  764.674
 233  519.7133
 234  642.6586
 235  757.6187
 236  219.7526
 237  717.2468
 238  648.382
 239  671.287
 240  317.436
 241  395.9578
 242  669.6883
 243  460.3639
 244  465.717
 245  599.8635
 246  512.3644
 247  409.8367
 248  425.1302
 249  494.5237
 250  357.6009
 251  149.8669
 252  780.8264
 253  555.6382
 254  451.5435
 255  218.5688
 256  295.4805
 257  609.9844
 258  489.6512
 259  259.6203
 260  536.3256
 261  464.4613
 262  103.9524
 263  166.2545
 264  -242.5891
 265  42.33981
 266  366.6454
 267  456.4573
 268  449.6156
 269  636.0458
 270  636.2657
 271  48.59746
 272  192.1776
 273  748.1888
 274  378.3398
 275  211.2785
 276  197.2953
 277  328.7478
 278  -82.53591
 279  -2.493189
 280  374.2999
 281  304.4619
 282  -104.5832
 283  -50.8782
 284  151.2715
 285  110.0969
 286  458.9887
 287  209.7463
 288  136.6873
 289  270.7194
 290  474.3017
 291  646.6702
 292  351.188
 293  377.1675
 294  186.6017
 295  393.7923
 296  278.8574
 297  468.5816
 298  510.8243
 299  816.2269
 300  996.6123
 301  688.1852
 302  829.3311
 303  679.4449
 304  927.6589
 305  688.1335
 306  341.8018
 307  166.7621
 308  558.8353
 309  154.0095
 310  91.4513
 311  842.7703
 312  950.1829
 313  760.0234
 314  718.7134
 315  645.8049
 316  570.5886
 317  739.722
 318  594.7042
 319  867.2012
 320  1163.592
 321  1208.987
 322  2360.868
 323  2316.231
 324  2201.18
 325  1529.931
 326  1162.744
 327  958.8054
 328  458.0602
 329  273.7387
 330  439.997
 331  336.8538
 332  186.7041
 333  581.5757
 334  663.9843
 335  613.2773
 336  326.7297
 337  162.7841
 338  594.6279
 339  740.6135
 340  563.206
 341  358.9467
 342  -91.00631
 343  -26.03522
 344  385.5688
 345  715.995
 346  407.3526
 347  416.9034
 348  722.5927
 349  617.0656
 350  390.5419
 351  667.818
 352  359.3621
 353  -3.87436
 354  351.0333
 355  611.212
 356  462.4217
 357  525.0102
 358  572.3738
 359  687.26
 360  205.2953
 361  210.3683
 362  157.2154
 363  376.5885
 364  657.6897
 365  817.5418
 366  464.3566
 367  165.7122
 368  205.7162
 369  127.379
 370  243.5966
 371  411.359
 372  417.6189
 373  518.8418
 374  443.5422
 375  506.1172
 376  584.4266
 377  463.1605
 378  226.0577
 379  555.4076
 380  946.0358
 381  781.7441
 382  971.569
 383  520.5841
 384  888.7853
 385  390.4627
 386  315.6312
 387  198.2375
 388  245.459
 389  960.6812
 390  688.1548
 391  822.6304
 392  919.6599
 393  745.6617
 394  594.9446
 395  249.7354
 396  362.8243
 397  742.9919
 398  739.0331
 399  693.2804
 400  834.6661
 401  400.1623
 402  407.5951
 403  333.45
 404  694.7102
 405  501.86
 406  445.5385
 407  647.6559
 408  630.9537
 409  448.2036
 410  522.9032
 411  -42.92231
 412  248.0809
 413  517.6865
 414  510.4479
 415  201.1384
 416  504.975
 417  656.5905
 418  782.2034
 419  849.3359
 420  515.4097
 421  572.5576
 422  431.9759
 423  604.0872
 424  291.7762
 425  406.0745
 426  634.9365
 427  419.7136
 428  393.8213
 429  132.8119
 430  45.59296
 431  255.2311
 432  329.763
 433  357.8012
 434  836.2651
 435  488.3643
 436  292.773
 437  631.8582
 438  951.531
 439  612.1954
 440  572.6741
 441  617.4075
 442  676.1393
 443  327.3496
 444  93.27111
 445  312.2094
 446  326.1487
 447  622.6554
 448  718.2236
 449  585.7878
 450  957.1825
 451  463.0999
 452  524.0602
 453  787.679
 454  1061.484
 455  700.722
 456  758.8394
 457  905.6525
 458  509.743
 459  873.8193
 460  948.1765
 461  782.3062
 462  453.1729
 463  717.7103
 464  1008.211
 465  467.277
 466  815.8553
 467  822.6848
 468  548.7467
 469  594.8187
 470  593.145
 471  833.1293
 472  826.3917
 473  907.1497
 474  552.2846
 475  788.1936
 476  753.335
 477  707.3229
 478  579.1904
 479  484.2825
 480  570.285
 481  479.8551
 482  323.1059
 483  504.4475
 484  959.5696
 485  638.5485
 486  701.5273
 487  691.8136
 488  303.1456
 489  667.0208
 490  710.8704
 491  1051.081
 492  382.0531
 493  376.0545
 494  383.7102
 495  389.9603
 496  553.9288
 497  663.3702
 498  636.9862
 499  466.6693
 500  593.8259
 501  590.7659
 502  494.8971
 503  627.3952
 504  671.7124
 505  735.6874
 506  929.7067
 507  691.5874
 508  766.507
 509  602.3879
 510  375.2269
 511  357.1833
