# Input file       =  1187919303.11137_cleaned.dat
# Candidate        =  PSR_0332+5434
# Telescope        =  AR
# Epoch_topo       =  57993.066228140859
# Epoch_bary       =  N/A
# T_sample         =  0.002
# Data Folded      =  7340032
# Data Avg         =  0.0132420619681527
# Data StdDev      =  2.26386300636615 
# Profile Bins     =  1024
# Profile Avg      =  95.0253408276041 
# Profile StdDev   =  191.667792549244 
# Reduced chi-sqr  =  1.566
# Prob(Noise)      <  2.37e-28   (~11.0 sigma)
# P_topo (ms)      =  714.463344323321  +/- 0.000143
# P'_topo (s/s)    =  -0                +/- 7.53e-11
# P''_topo (s/s^2) =  0                 +/- 3.32e-14
# P_bary (ms)      =  N/A
# P'_bary (s/s)    =  N/A
# P''_bary (s/s^2) =  N/A
# P_orb (s)        =  N/A
# asin(i)/c (s)    =  N/A
# eccentricity     =  N/A
# w (rad)          =  N/A
# T_peri           =  N/A
######################################################
   0  75.28935
   1  89.03492
   2  64.41489
   3  40.60523
   4  74.28139
   5  115.8868
   6  38.22967
   7  8.905333
   8  -8.376773
   9  65.93511
  10  122.2233
  11  100.7534
  12  95.49921
  13  56.71463
  14  57.96007
  15  60.23196
  16  66.47884
  17  122.3853
  18  59.80996
  19  97.91254
  20  -27.34895
  21  47.53726
  22  -1.292611
  23  36.80901
  24  -50.64276
  25  21.32972
  26  44.16782
  27  110.0303
  28  115.2221
  29  81.91454
  30  73.96884
  31  24.75823
  32  30.14889
  33  41.97923
  34  90.16656
  35  80.75651
  36  -85.5167
  37  -41.207
  38  -5.804184
  39  83.06207
  40  51.60631
  41  101.9078
  42  -5.91947
  43  -102.0283
  44  -180.4394
  45  -141.3324
  46  -80.17104
  47  7.281518
  48  193.1946
  49  266.3152
  50  268.4817
  51  169.9462
  52  38.50394
  53  -14.80919
  54  -47.81581
  55  25.32445
  56  119.325
  57  222.1175
  58  219.6289
  59  282.4521
  60  241.1966
  61  169.8419
  62  59.90741
  63  137.5956
  64  141.414
  65  102.3892
  66  88.52314
  67  81.79758
  68  65.1397
  69  10.30329
  70  133.3452
  71  130.8713
  72  189.3026
  73  98.04638
  74  15.51381
  75  -81.62104
  76  -153.3724
  77  -119.1115
  78  -86.36542
  79  -81.38691
  80  4.849796
  81  105.1229
  82  188.7242
  83  124.8752
  84  61.66739
  85  44.65417
  86  -18.73316
  87  -38.65394
  88  -87.53844
  89  29.24528
  90  98.62547
  91  117.9108
  92  17.74129
  93  38.74171
  94  92.15671
  95  99.25511
  96  68.75745
  97  81.60224
  98  33.66546
  99  21.20933
 100  -59.6442
 101  25.77699
 102  45.32504
 103  24.55559
 104  39.19639
 105  84.59605
 106  201.1155
 107  139.5583
 108  55.37248
 109  -30.79687
 110  -3.406589
 111  28.74548
 112  51.47956
 113  67.44617
 114  170.2649
 115  185.8016
 116  122.8344
 117  -12.39488
 118  67.20535
 119  174.4866
 120  175.1331
 121  121.3258
 122  81.68222
 123  106.7302
 124  74.98588
 125  87.62348
 126  174.7147
 127  212.5034
 128  208.6436
 129  46.75933
 130  -32.15211
 131  -22.87914
 132  164.2989
 133  179.0614
 134  101.0094
 135  3.454161
 136  186.4307
 137  221.6312
 138  118.6901
 139  23.25274
 140  142.1411
 141  207.4254
 142  164.7856
 143  103.4966
 144  119.7507
 145  132.0273
 146  141.2509
 147  31.47794
 148  -153.2624
 149  -226.6738
 150  -175.2835
 151  -81.64058
 152  -39.24869
 153  50.15583
 154  43.08946
 155  24.44566
 156  -15.65328
 157  118.5908
 158  223.0074
 159  305.5499
 160  248.6445
 161  187.419
 162  100.5732
 163  0.8145139
 164  -84.75294
 165  -167.0681
 166  -152.9388
 167  -86.36416
 168  52.35413
 169  64.07136
 170  34.27805
 171  -84.13657
 172  -11.07569
 173  116.7601
 174  226.7085
 175  273.7743
 176  229.9927
 177  212.4569
 178  133.1567
 179  43.69709
 180  32.01624
 181  29.42218
 182  17.5534
 183  -32.03095
 184  -194.8541
 185  -148.4284
 186  -30.69734
 187  195.4034
 188  231.2697
 189  199.6832
 190  183.7106
 191  127.1116
 192  8.755343
 193  -36.01482
 194  -93.23002
 195  -79.83348
 196  -49.24538
 197  -6.210239
 198  -21.86384
 199  -31.92571
 200  84.95687
 201  230.0191
 202  220.4903
 203  53.37362
 204  -38.57088
 205  -73.55053
 206  2.435344
 207  -15.06471
 208  25.39591
 209  -81.43678
 210  -88.51015
 211  -28.47675
 212  54.4021
 213  60.40718
 214  50.73735
 215  66.47813
 216  63.26392
 217  59.7791
 218  92.5436
 219  82.99977
 220  129.3954
 221  102.3897
 222  134.7516
 223  89.13081
 224  91.5382
 225  200.5344
 226  155.1237
 227  137.5295
 228  69.14083
 229  55.08806
 230  45.3713
 231  23.01074
 232  58.47289
 233  105.5261
 234  164.3816
 235  247.4459
 236  240.2863
 237  174.1622
 238  108.9258
 239  72.66776
 240  40.72977
 241  -13.46128
 242  -14.04046
 243  117.5577
 244  201.1774
 245  154.215
 246  87.77709
 247  82.57051
 248  202.0862
 249  231.9375
 250  170.2506
 251  38.25706
 252  -79.36893
 253  -69.96659
 254  -27.34751
 255  134.9128
 256  81.38633
 257  158.5236
 258  170.7686
 259  273.4028
 260  201.0119
 261  124.0997
 262  59.78676
 263  99.12672
 264  90.91817
 265  52.11082
 266  11.73829
 267  79.90911
 268  101.2956
 269  101.1404
 270  -0.582478
 271  87.13368
 272  -7.756754
 273  64.04708
 274  38.06816
 275  145.5873
 276  153.0176
 277  133.3648
 278  71.54952
 279  61.91269
 280  -22.55633
 281  -67.74737
 282  -69.78862
 283  134.9366
 284  257.5425
 285  237.2432
 286  146.7547
 287  51.27213
 288  0.8478541
 289  -60.27803
 290  8.556182
 291  103.1988
 292  152.1939
 293  74.30206
 294  154.8985
 295  184.2713
 296  224.8438
 297  88.23158
 298  98.45892
 299  53.57959
 300  -32.51477
 301  -79.26159
 302  -133.0397
 303  -19.54557
 304  -1.135244
 305  34.41084
 306  -27.14558
 307  65.95863
 308  69.777
 309  83.51816
 310  13.98885
 311  62.49165
 312  -14.28111
 313  -105.9092
 314  -199.4885
 315  -156.8809
 316  -61.1691
 317  -6.89499
 318  36.78316
 319  109.6165
 320  149.2752
 321  158.6154
 322  125.7164
 323  134.9644
 324  64.75368
 325  159.697
 326  230.4702
 327  294.4564
 328  174.3678
 329  133.7511
 330  137.9872
 331  147.7178
 332  121.7951
 333  129.174
 334  140.681
 335  74.67876
 336  29.98749
 337  -61.41895
 338  -9.872539
 339  63.80164
 340  97.97729
 341  74.9836
 342  29.11888
 343  192.1515
 344  231.8609
 345  146.6812
 346  -9.110299
 347  -84.12074
 348  63.97723
 349  44.6011
 350  14.06768
 351  66.86314
 352  167.5792
 353  127.6236
 354  -45.87126
 355  -110.7273
 356  -82.93194
 357  -15.89787
 358  28.35844
 359  106.6074
 360  72.60207
 361  12.62415
 362  -63.10491
 363  13.03947
 364  148.4983
 365  247.9723
 366  233.2935
 367  138.1865
 368  114.3201
 369  36.9916
 370  46.83238
 371  74.07882
 372  221.9881
 373  178.1178
 374  151.4817
 375  142.5542
 376  279.8547
 377  356.199
 378  280.7106
 379  240.5921
 380  182.9215
 381  161.9065
 382  172.1846
 383  259.9185
 384  259.9566
 385  145.9563
 386  11.94191
 387  89.31457
 388  145.8982
 389  162.6032
 390  99.59777
 391  95.8908
 392  137.7427
 393  164.0746
 394  167.9881
 395  40.79992
 396  56.45607
 397  120.5565
 398  226.4893
 399  117.9891
 400  -61.96314
 401  -88.90183
 402  89.54525
 403  184.7679
 404  228.8169
 405  111.8883
 406  142.192
 407  144.2517
 408  121.5453
 409  82.87415
 410  39.38742
 411  86.19491
 412  65.98981
 413  78.00989
 414  95.14342
 415  138.3301
 416  87.0553
 417  82.08575
 418  157.7095
 419  175.6968
 420  53.91737
 421  -81.65375
 422  -125.0349
 423  -83.13303
 424  -76.92868
 425  -78.86793
 426  -6.4005
 427  -2.768657
 428  -34.68227
 429  -6.75336
 430  91.12775
 431  147.7714
 432  1.871465
 433  -96.9325
 434  -56.84723
 435  -63.10989
 436  73.38625
 437  110.4245
 438  239.0196
 439  225.5768
 440  174.1434
 441  74.78998
 442  -115.6091
 443  -52.2024
 444  -2.370169
 445  178.6987
 446  219.9775
 447  115.0106
 448  -11.47843
 449  -85.38174
 450  -36.47442
 451  -42.03101
 452  17.51259
 453  32.20052
 454  119.3989
 455  113.0413
 456  134.807
 457  32.87624
 458  55.16961
 459  96.67468
 460  157.605
 461  182.6972
 462  185.5866
 463  194.1196
 464  200.1356
 465  137.7718
 466  122.2648
 467  105.8112
 468  105.7451
 469  133.4584
 470  133.3338
 471  141.7357
 472  124.7172
 473  157.7014
 474  201.3371
 475  254.8978
 476  338.4119
 477  306.5845
 478  257.4313
 479  125.4506
 480  24.76343
 481  -59.80591
 482  -78.67623
 483  26.81279
 484  95.35059
 485  98.62125
 486  -23.31227
 487  -24.9108
 488  80.88196
 489  146.5041
 490  48.25402
 491  111.3412
 492  298.9926
 493  343.7647
 494  256.5462
 495  184.656
 496  157.6745
 497  134.5196
 498  81.94881
 499  118.5235
 500  170.7919
 501  148.6211
 502  171.1912
 503  108.0991
 504  191.4825
 505  87.06761
 506  23.13258
 507  -3.413241
 508  110.3022
 509  178.6965
 510  71.04998
 511  37.82553
 512  -34.53075
 513  0.05026302
 514  31.0497
 515  152.9423
 516  262.4514
 517  233.6051
 518  230.1326
 519  108.1112
 520  87.14525
 521  76.88127
 522  73.63354
 523  89.09154
 524  159.2687
 525  190.6745
 526  53.04494
 527  41.14778
 528  225.3705
 529  371.0992
 530  313.0277
 531  118.7672
 532  83.82755
 533  48.63798
 534  50.23765
 535  -61.72725
 536  -27.01301
 537  33.18075
 538  154.4169
 539  251.1382
 540  207.2941
 541  126.3371
 542  84.65384
 543  13.19262
 544  34.89161
 545  -23.09241
 546  32.98271
 547  30.20199
 548  81.50141
 549  122.1367
 550  84.74592
 551  68.67985
 552  190.5566
 553  343.3758
 554  379.2632
 555  168.6053
 556  27.27471
 557  101.0496
 558  146.0322
 559  181.1973
 560  199.5345
 561  186.1154
 562  113.6591
 563  42.02668
 564  78.21222
 565  91.60014
 566  5.44781
 567  61.60396
 568  95.76427
 569  189.6388
 570  37.63339
 571  -55.02606
 572  -34.96964
 573  81.88357
 574  111.9007
 575  127.3794
 576  41.57624
 577  -17.35886
 578  -74.65354
 579  -28.31427
 580  -12.67356
 581  -9.587195
 582  132.4491
 583  266.4283
 584  302.6106
 585  249.8251
 586  184.5134
 587  194.1798
 588  94.79172
 589  86.63083
 590  106.4398
 591  104.5571
 592  123.1733
 593  37.75651
 594  93.95101
 595  42.9087
 596  -20.23716
 597  -33.14995
 598  -8.162263
 599  59.81683
 600  -2.303685
 601  -42.54237
 602  -52.09961
 603  -70.24627
 604  -3.263934
 605  108.605
 606  223.9181
 607  168.8678
 608  -0.6265296
 609  -121.2664
 610  -122.5325
 611  -1.186979
 612  81.21255
 613  113.8052
 614  57.77505
 615  1.772666
 616  22.01242
 617  -4.997545
 618  97.66051
 619  85.05419
 620  122.3369
 621  92.07397
 622  145.6831
 623  291.3696
 624  333.7608
 625  299.6554
 626  166.5728
 627  117.698
 628  123.8183
 629  205.2543
 630  273.651
 631  310.8169
 632  341.015
 633  246.6332
 634  195.0556
 635  95.3817
 636  124.6983
 637  213.3815
 638  278.7866
 639  412.006
 640  536.2474
 641  708.7719
 642  794.6545
 643  902.2404
 644  989.9708
 645  1030.39
 646  963.368
 647  844.8977
 648  784.6337
 649  804.2719
 650  851.6096
 651  833.6716
 652  601.0773
 653  306.3389
 654  8.396751
 655  -60.45564
 656  -144.1753
 657  -132.5228
 658  -16.70515
 659  179.5541
 660  297.6125
 661  120.6082
 662  14.86003
 663  -95.88972
 664  0.2957823
 665  -36.05001
 666  -10.46491
 667  -42.13954
 668  109.5461
 669  126.2187
 670  262.1581
 671  272.05
 672  287.9078
 673  221.2858
 674  186.2312
 675  162.3359
 676  165.8697
 677  106.6922
 678  140.6548
 679  133.7468
 680  311.9698
 681  272.7155
 682  275.0134
 683  204.0843
 684  196.7455
 685  120.101
 686  -28.71811
 687  -93.36291
 688  -133.7721
 689  -166.7827
 690  -134.7684
 691  -87.63441
 692  -2.145879
 693  -59.00515
 694  9.641977
 695  153.1046
 696  293.35
 697  220.9071
 698  146.0125
 699  85.64097
 700  126.3759
 701  101.2016
 702  155.8314
 703  202.093
 704  194.4765
 705  147.801
 706  60.73605
 707  69.69641
 708  119.3797
 709  147.2591
 710  145.9083
 711  166.3194
 712  223.0756
 713  292.5391
 714  284.1292
 715  235.0929
 716  200.9827
 717  161.8721
 718  66.61507
 719  -50.34754
 720  -59.19548
 721  73.19057
 722  203.1687
 723  257.6359
 724  301.3556
 725  242.7232
 726  126.457
 727  80.80614
 728  81.94285
 729  143.5848
 730  149.8519
 731  131.0449
 732  57.71563
 733  14.47667
 734  68.77447
 735  114.029
 736  117.1422
 737  122.9947
 738  56.16896
 739  14.50338
 740  -120.7427
 741  -33.48923
 742  -89.58727
 743  9.513318
 744  73.60206
 745  219.4007
 746  192.7208
 747  102.2679
 748  95.80523
 749  177.2353
 750  232.1172
 751  165.1794
 752  78.22761
 753  51.13057
 754  94.62331
 755  167.0007
 756  92.23611
 757  -9.641832
 758  -23.19606
 759  23.78404
 760  53.95416
 761  -49.51231
 762  -99.98098
 763  -29.78786
 764  134.6864
 765  322.7623
 766  269.8627
 767  193.5203
 768  69.23701
 769  129.9768
 770  157.5085
 771  219.8705
 772  104.6944
 773  22.29889
 774  -136.4946
 775  -83.24506
 776  -137.9051
 777  -143.2344
 778  -79.84675
 779  163.8899
 780  262.3009
 781  217.0763
 782  72.13801
 783  52.56042
 784  20.23571
 785  83.45463
 786  57.87836
 787  60.56271
 788  18.89897
 789  -15.73812
 790  -26.39515
 791  -6.575103
 792  108.7873
 793  104.2281
 794  119.7821
 795  26.56786
 796  -16.92643
 797  -115.3787
 798  -99.67314
 799  -62.60545
 800  33.12719
 801  131.8304
 802  190.677
 803  184.0068
 804  134.5246
 805  82.45674
 806  190.6185
 807  204.6461
 808  198.1285
 809  77.71049
 810  75.01757
 811  90.06184
 812  193.3481
 813  218.4765
 814  237.4566
 815  293.6101
 816  275.6472
 817  218.2671
 818  129.5487
 819  181.9416
 820  163.0813
 821  98.75489
 822  -4.517119
 823  12.64791
 824  35.82746
 825  211.0455
 826  238.0207
 827  256.7374
 828  84.94379
 829  20.46423
 830  58.53849
 831  103.9863
 832  10.59078
 833  -104.0797
 834  -110.723
 835  67.10215
 836  111.0474
 837  126.8979
 838  109.9151
 839  115.6293
 840  107.7974
 841  88.54936
 842  81.59548
 843  152.3122
 844  108.7814
 845  89.61572
 846  88.34353
 847  155.6863
 848  99.84041
 849  -32.23582
 850  -4.314563
 851  36.5917
 852  114.1258
 853  66.87281
 854  106.3016
 855  143.1959
 856  234.8468
 857  208.2417
 858  64.90387
 859  -13.03069
 860  84.16468
 861  213.2768
 862  226.3575
 863  155.991
 864  22.05075
 865  -46.79728
 866  35.31562
 867  197.1743
 868  242.977
 869  121.4867
 870  72.76265
 871  74.38995
 872  86.69939
 873  54.0447
 874  27.48093
 875  81.52605
 876  158.9225
 877  149.5515
 878  83.18513
 879  -34.25837
 880  46.18703
 881  245.5563
 882  389.8283
 883  251.1579
 884  170.741
 885  115.2994
 886  122.3671
 887  50.31486
 888  18.15986
 889  37.69415
 890  44.6618
 891  123.0641
 892  184.771
 893  150.0145
 894  -9.584685
 895  -110.6471
 896  -70.10599
 897  56.56544
 898  78.68143
 899  103.1352
 900  144.8181
 901  182.1766
 902  158.9356
 903  64.53378
 904  -5.991778
 905  -30.83696
 906  -53.54827
 907  -96.31738
 908  -17.77741
 909  78.85776
 910  69.06535
 911  -41.18263
 912  -82.91615
 913  83.57112
 914  165.7639
 915  12.17427
 916  -28.22581
 917  17.73854
 918  132.9037
 919  49.28367
 920  36.3662
 921  106.3998
 922  147.4089
 923  162.5433
 924  152.1721
 925  89.92004
 926  101.1186
 927  41.21112
 928  -3.157121
 929  -56.91074
 930  -10.84281
 931  108.7738
 932  72.49334
 933  -2.034998
 934  -2.632544
 935  -80.39066
 936  -33.79621
 937  -4.876379
 938  164.552
 939  169.1461
 940  113.4536
 941  82.45477
 942  120.4106
 943  55.55684
 944  44.02813
 945  22.17246
 946  176.6757
 947  87.01607
 948  -22.80079
 949  -129.6084
 950  -72.39733
 951  -25.38317
 952  0.9186936
 953  77.66838
 954  249.131
 955  311.2714
 956  276.8774
 957  171.5108
 958  83.43324
 959  42.51334
 960  -39.01837
 961  -46.67489
 962  -5.447883
 963  40.93531
 964  131.0319
 965  160.5764
 966  203.4892
 967  82.78352
 968  -51.97211
 969  -41.60323
 970  101.5861
 971  177.7375
 972  86.99467
 973  -30.59039
 974  -47.90803
 975  46.49195
 976  120.3066
 977  178.3576
 978  182.4243
 979  180.9442
 980  213.2684
 981  193.6157
 982  275.5808
 983  210.033
 984  187.7038
 985  45.0933
 986  83.06361
 987  130.7131
 988  151.3158
 989  51.64767
 990  48.78465
 991  117.8658
 992  224.1466
 993  104.899
 994  -50.98339
 995  -115.6957
 996  -64.53386
 997  80.96568
 998  87.43579
 999  105.3183
1000  75.5503
1001  169.5487
1002  248.2113
1003  198.8286
1004  81.28974
1005  -28.12494
1006  35.43401
1007  120.8509
1008  115.3659
1009  -4.168078
1010  -68.26998
1011  -21.07508
1012  56.66848
1013  39.57797
1014  13.99249
1015  83.69971
1016  121.1126
1017  77.05559
1018  7.614777
1019  98.20605
1020  257.834
1021  314.3532
1022  190.1176
1023  87.33614
