# Input file       =  1187301600.114617_cleaned.dat
# Candidate        =  PSR_0332+5434
# Telescope        =  AR
# Epoch_topo       =  57985.916887900661
# Epoch_bary       =  N/A
# T_sample         =  0.002
# Data Folded      =  7208960
# Data Avg         =  0.109505469847301
# Data StdDev      =  4.43951060715607 
# Profile Bins     =  512
# Profile Avg      =  1541.85628964407 
# Profile StdDev   =  526.788669571776 
# Reduced chi-sqr  =  0.545
# Prob(Noise)      <  1   (~0.0 sigma)
# P_topo (ms)      =  714.4637967895    +/- 5e-05
# P'_topo (s/s)    =  -0                +/- 2.69e-11
# P''_topo (s/s^2) =  0                 +/- 1.21e-14
# P_bary (ms)      =  N/A
# P'_bary (s/s)    =  N/A
# P''_bary (s/s^2) =  N/A
# P_orb (s)        =  N/A
# asin(i)/c (s)    =  N/A
# eccentricity     =  N/A
# w (rad)          =  N/A
# T_peri           =  N/A
######################################################
   0  1858.56
   1  1652.451
   2  1026.579
   3  1137.659
   4  1405.869
   5  1329.514
   6  1130.389
   7  1828.913
   8  1811.338
   9  1714.486
  10  1816.366
  11  1795.862
  12  1519.718
  13  1262.744
  14  1245.871
  15  1402.655
  16  1246.516
  17  1542.076
  18  1783.041
  19  1412.781
  20  1393.373
  21  1500.002
  22  1381.511
  23  1200.428
  24  1156.425
  25  1337.712
  26  1369.031
  27  1447.614
  28  1515.712
  29  1935.651
  30  1939.91
  31  1545.86
  32  1442.041
  33  1448.134
  34  1424.625
  35  1469.225
  36  1528.103
  37  1679.187
  38  1645.124
  39  1540.552
  40  1705.917
  41  1631.476
  42  1132.78
  43  1424.792
  44  1546.082
  45  1484.845
  46  1462.523
  47  1417.486
  48  1657.877
  49  1499.046
  50  1682.789
  51  1604.204
  52  1492.209
  53  1274.118
  54  1449.92
  55  1667.439
  56  1107.767
  57  1454.281
  58  1903.234
  59  1956.803
  60  1548.663
  61  1542.927
  62  1541.097
  63  1167.433
  64  1629.307
  65  1588.52
  66  1497.787
  67  916.7746
  68  875.0184
  69  1398.081
  70  1531.592
  71  1786.406
  72  1387.812
  73  1451.943
  74  1332.752
  75  1457.019
  76  1554.32
  77  1433.795
  78  1346.178
  79  1658.959
  80  1757.364
  81  1994.948
  82  1760.828
  83  1636.966
  84  1578.949
  85  1038.663
  86  1127.785
  87  1499.005
  88  1671.483
  89  1272.104
  90  1256.226
  91  1543.523
  92  1697.2
  93  1544.033
  94  1735.439
  95  1443.071
  96  1618.327
  97  1399.28
  98  1336.739
  99  1991.516
 100  1764.181
 101  1883.787
 102  1874.394
 103  1750.314
 104  1353.893
 105  1208.125
 106  1197.696
 107  1584.225
 108  1523.863
 109  1171.976
 110  1812.643
 111  1554.8
 112  1594.167
 113  1673.123
 114  1544.665
 115  1682.708
 116  1450.81
 117  1721.169
 118  1955.613
 119  1652.267
 120  1287.386
 121  1512.828
 122  1477.196
 123  1269.364
 124  1372.033
 125  1567.708
 126  1853.07
 127  1787.648
 128  1650.384
 129  1778.002
 130  1592.443
 131  1384.464
 132  1306.5
 133  1472.154
 134  1303.567
 135  1357.517
 136  1395.525
 137  1648.517
 138  1302.982
 139  1099.805
 140  1360.709
 141  1415.927
 142  1615.365
 143  1596.434
 144  1715.078
 145  1485.846
 146  1397.86
 147  1498.015
 148  1599.914
 149  1357.323
 150  1584.985
 151  1534.483
 152  1396.504
 153  1292.566
 154  1310.571
 155  1544.893
 156  1357.912
 157  1534.323
 158  1482.782
 159  1535.746
 160  1488.229
 161  1514.864
 162  1461.409
 163  1525.429
 164  1378.721
 165  1559.401
 166  2028.411
 167  1411.861
 168  1405.701
 169  1575.857
 170  1384.877
 171  1240.481
 172  1071.134
 173  1289.087
 174  1475.634
 175  1735.457
 176  1968.426
 177  1955.922
 178  1678.93
 179  1340.042
 180  1280.805
 181  1375.05
 182  1674.844
 183  1650.761
 184  1918.413
 185  1938.593
 186  1435.283
 187  1311.92
 188  1448.796
 189  1517.028
 190  1485.7
 191  1526.228
 192  1825.387
 193  1423.764
 194  1215.017
 195  1409.116
 196  1519.815
 197  1621.666
 198  1275.495
 199  1566.107
 200  1563.168
 201  1788.884
 202  1729.577
 203  1402.912
 204  1138.471
 205  1500.009
 206  2061.085
 207  2042.538
 208  1795.42
 209  1755.326
 210  1781.499
 211  1459.106
 212  1655.663
 213  1816.477
 214  1804.607
 215  1593.204
 216  936.9373
 217  1147.42
 218  1472.067
 219  1192.168
 220  1259.24
 221  1761.806
 222  1434.961
 223  1229.146
 224  1738.574
 225  1675.69
 226  1636.786
 227  1087.306
 228  1791.276
 229  1693.936
 230  1563.439
 231  1761.839
 232  1800.266
 233  1778.679
 234  1222.426
 235  1236.348
 236  1652.453
 237  1411.331
 238  1283.91
 239  1572.343
 240  1895.895
 241  1803.716
 242  1957.362
 243  1845.19
 244  1340.285
 245  1428.272
 246  1507.246
 247  1655.329
 248  1607.372
 249  1784.288
 250  1770.537
 251  1810.714
 252  1415.81
 253  1437.963
 254  1499.854
 255  1225.365
 256  1219.627
 257  1582.244
 258  1742.563
 259  1441.463
 260  1584.876
 261  1775.436
 262  1557.947
 263  1251.584
 264  1305.302
 265  1473.197
 266  1659.783
 267  1648.099
 268  1899.717
 269  1940.755
 270  1191.113
 271  1161.137
 272  1392.269
 273  1461.116
 274  1575.767
 275  1491.565
 276  1529.33
 277  1898.277
 278  1575.339
 279  1746.162
 280  1740.147
 281  1601.606
 282  1649.191
 283  1377.888
 284  1676.719
 285  1433.429
 286  1575.736
 287  1440.876
 288  1518.058
 289  1450.393
 290  1362.906
 291  1602.398
 292  1464.08
 293  1655.244
 294  1965.168
 295  2453.527
 296  1631.449
 297  1368.153
 298  1690.535
 299  1341.35
 300  983.4257
 301  1346.255
 302  1631.332
 303  1618.662
 304  1204.05
 305  1460.655
 306  1652.068
 307  1692.04
 308  1800.411
 309  1681.148
 310  1904.284
 311  1513.114
 312  1241.094
 313  1767.329
 314  1434.309
 315  1112.196
 316  1283.978
 317  1587.356
 318  1226.748
 319  1463.473
 320  1428.212
 321  1527.895
 322  1441.017
 323  1201.352
 324  1791.251
 325  1612.844
 326  1259.968
 327  1442.156
 328  1530.666
 329  1518.259
 330  1498.109
 331  1746.047
 332  1737.643
 333  1541.481
 334  1456.371
 335  1459.045
 336  1401.063
 337  1264.529
 338  1431.03
 339  1499.024
 340  1525.862
 341  1518.34
 342  1404.018
 343  1049.167
 344  683.85
 345  1091.985
 346  1688.039
 347  1649.982
 348  1423.217
 349  1562
 350  1727.283
 351  1311.948
 352  907.1093
 353  1587.329
 354  2011.472
 355  1743.094
 356  1430.127
 357  1576.91
 358  1927.534
 359  1786.79
 360  1642.006
 361  1929.088
 362  1858.695
 363  1634.36
 364  1220.317
 365  1623.655
 366  1555.949
 367  1586.231
 368  1674.386
 369  1755.212
 370  1400.234
 371  1185.578
 372  1395.283
 373  1288.173
 374  1187.977
 375  1999.763
 376  1778.299
 377  1533.877
 378  1597.563
 379  1726.761
 380  1855.913
 381  1706.555
 382  1619.991
 383  1462.605
 384  1592.457
 385  1519.595
 386  1376.858
 387  1381.406
 388  990.5452
 389  1099.242
 390  1416.91
 391  1769.926
 392  1584.573
 393  1529.534
 394  1597.73
 395  1651.051
 396  1772.533
 397  1686.922
 398  1745.374
 399  1607.019
 400  1271.288
 401  1486.676
 402  1495.182
 403  1277.984
 404  1113.252
 405  1471.246
 406  1874.545
 407  1882.613
 408  1810.41
 409  1885.526
 410  2015.333
 411  2421.548
 412  2809.297
 413  3165.547
 414  3258.891
 415  3300.708
 416  3061.591
 417  2229.022
 418  1334.116
 419  1501.039
 420  1780.822
 421  1683.585
 422  1777.952
 423  1754.36
 424  1732.895
 425  1675.52
 426  1451.622
 427  1468.54
 428  1547.667
 429  1842.27
 430  1551.795
 431  1093.162
 432  1388.961
 433  1341.55
 434  1353.604
 435  1396.254
 436  1323.19
 437  1538.239
 438  1345.464
 439  1487.523
 440  1865.721
 441  1622.483
 442  1426.491
 443  1164.026
 444  1495.38
 445  1658.138
 446  1453.882
 447  1380.837
 448  1479.349
 449  1888.925
 450  1645.457
 451  1410.119
 452  1312.437
 453  1540.568
 454  1501.592
 455  1231.183
 456  1187.571
 457  1255.962
 458  1254.187
 459  1162.108
 460  1354.043
 461  1660.425
 462  1607.307
 463  1575.598
 464  1521.863
 465  1163.334
 466  1358.888
 467  1619.578
 468  1735.205
 469  1652.263
 470  1352.411
 471  1382.453
 472  1416.173
 473  1466.55
 474  1606.457
 475  1669.114
 476  1144.953
 477  1270.398
 478  1775.373
 479  1717.173
 480  1561.687
 481  1428.31
 482  1718.624
 483  1764.026
 484  1462.129
 485  1357.013
 486  1415.633
 487  1190.395
 488  1339.395
 489  1439.835
 490  1132.457
 491  1023.458
 492  1261.041
 493  1478.365
 494  1219.697
 495  1503.452
 496  1650.783
 497  1742.479
 498  1768.359
 499  1575.94
 500  1402.299
 501  965.02
 502  1658.273
 503  1687.548
 504  1807.255
 505  1768.787
 506  1825.255
 507  1619.258
 508  1693.181
 509  1869.656
 510  1532.524
 511  1696.986
