# Input file       =  1187473945.116488_cleaned.dat
# Candidate        =  PSR_0332+5434
# Telescope        =  AR
# Epoch_topo       =  57987.911621718609
# Epoch_bary       =  N/A
# T_sample         =  0.002
# Data Folded      =  7471104
# Data Avg         =  0.0724997252926413
# Data StdDev      =  3.03720780249343 
# Profile Bins     =  512
# Profile Avg      =  1058.09709356966 
# Profile StdDev   =  366.886656869406 
# Reduced chi-sqr  =  0.983
# Prob(Noise)      <  0.602   (~0.0 sigma)
# P_topo (ms)      =  714.463576452984  +/- 0.000753
# P'_topo (s/s)    =  -0                +/- 3.9e-10
# P''_topo (s/s^2) =  0                 +/- 1.69e-13
# P_bary (ms)      =  N/A
# P'_bary (s/s)    =  N/A
# P''_bary (s/s^2) =  N/A
# P_orb (s)        =  N/A
# asin(i)/c (s)    =  N/A
# eccentricity     =  N/A
# w (rad)          =  N/A
# T_peri           =  N/A
######################################################
   0  1134.164
   1  1059.575
   2  900.5217
   3  604.5008
   4  762.553
   5  1152.676
   6  1116.132
   7  961.665
   8  1131.531
   9  1507.558
  10  1389.601
  11  1049.227
  12  690.6632
  13  720.98
  14  968.2744
  15  815.0193
  16  1216.468
  17  1000.074
  18  708.9503
  19  652.6683
  20  956.0887
  21  1159.172
  22  1217.628
  23  1053.178
  24  1331.646
  25  1044.664
  26  663.7122
  27  643.9514
  28  924.2369
  29  1410.225
  30  955.3766
  31  677.3289
  32  626.9332
  33  698.8032
  34  881.6266
  35  920.3491
  36  877.6504
  37  932.1159
  38  969.7338
  39  1029.626
  40  812.4553
  41  1158.424
  42  940.5452
  43  621.1454
  44  807.5632
  45  1009.44
  46  621.1141
  47  743.8568
  48  500.6318
  49  877.8278
  50  1037.378
  51  939.8241
  52  605.6603
  53  948.9802
  54  912.1219
  55  1052.587
  56  892.0292
  57  1024.931
  58  885.6425
  59  796.9697
  60  1040.41
  61  1177.15
  62  1036.047
  63  778.6874
  64  996.597
  65  1076.803
  66  804.388
  67  1059.62
  68  1152.017
  69  1137.765
  70  795.6321
  71  999.4249
  72  767.8951
  73  935.7728
  74  918.2571
  75  1053.741
  76  1392.767
  77  924.9932
  78  649.6382
  79  1002.582
  80  1021.671
  81  664.3936
  82  918.2449
  83  945.5603
  84  1306.513
  85  1191.095
  86  1169.788
  87  981.0807
  88  1153.62
  89  1003.634
  90  787.3468
  91  777.8876
  92  794.6818
  93  1043.813
  94  1244.703
  95  1274.775
  96  871.4103
  97  815.9482
  98  933.8635
  99  837.9378
 100  1060.33
 101  1244.742
 102  1204.057
 103  873.3517
 104  850.566
 105  1096.657
 106  1221.643
 107  1258.992
 108  924.1669
 109  746.7589
 110  1036.636
 111  1055.829
 112  1024.809
 113  885.9986
 114  882.5413
 115  1048.295
 116  983.3527
 117  1042.321
 118  1073.847
 119  1101.692
 120  1366.431
 121  1209.048
 122  1227.4
 123  1083.985
 124  1046.214
 125  1054.102
 126  1249.076
 127  1516.432
 128  1448.271
 129  1205.926
 130  1038.169
 131  1021.49
 132  849.8312
 133  891.5232
 134  1158.527
 135  1241.235
 136  1215.874
 137  1205.191
 138  1445.08
 139  1515.587
 140  1013.526
 141  838.696
 142  937.5187
 143  1001.389
 144  1025.419
 145  1058.407
 146  1029.25
 147  1021.163
 148  1200.097
 149  1283.98
 150  1266.122
 151  1313.485
 152  1076.846
 153  975.764
 154  704.433
 155  817.4315
 156  1165.874
 157  1195.265
 158  1278.772
 159  1020.406
 160  1239.096
 161  1116.083
 162  1182.932
 163  1207.435
 164  1111.073
 165  1347.383
 166  1004.698
 167  1179.072
 168  1304.901
 169  1330.944
 170  1214.856
 171  1167.776
 172  1253.335
 173  937.0623
 174  993.3505
 175  994.5026
 176  948.8771
 177  1027.123
 178  986.0676
 179  1068.273
 180  629.5537
 181  511.4746
 182  944.6628
 183  1254.901
 184  1056.453
 185  760.8196
 186  686.1447
 187  1223.54
 188  1079.516
 189  888.6696
 190  1035.902
 191  1261.811
 192  1131.376
 193  1129.828
 194  902.2865
 195  644.9278
 196  1056.638
 197  1057.078
 198  931.8749
 199  846.4944
 200  1024.24
 201  952.5707
 202  918.5187
 203  1287.627
 204  1182.442
 205  1243.658
 206  1119.175
 207  525.6265
 208  1137.476
 209  1215.854
 210  1241.614
 211  1253.699
 212  1159.936
 213  993.7261
 214  958.535
 215  1071.643
 216  1001.22
 217  798.3088
 218  1016.889
 219  1057.275
 220  967.5024
 221  1122.651
 222  1064.382
 223  838.8905
 224  959.4551
 225  1224.931
 226  1136.691
 227  1332.638
 228  1110.963
 229  1087.514
 230  1114.545
 231  1091.037
 232  804.5628
 233  917.1674
 234  1116.13
 235  968.7556
 236  1053.728
 237  1404.64
 238  1503.435
 239  1249.922
 240  983.8299
 241  1073.059
 242  837.1691
 243  850.2299
 244  1036.268
 245  1273.907
 246  1430.904
 247  999.1047
 248  1048.923
 249  1059.405
 250  1000.061
 251  717.1057
 252  1011.288
 253  1172.194
 254  1233.189
 255  1003.097
 256  891.1072
 257  1234.097
 258  1054.54
 259  841.4734
 260  1078.565
 261  1093.363
 262  1175.034
 263  1106.787
 264  911.1357
 265  800.6937
 266  842.8501
 267  1230.72
 268  1296.109
 269  1031.22
 270  926.8778
 271  894.4761
 272  1237.116
 273  1292.758
 274  1171.058
 275  981.4514
 276  1039.181
 277  1093.968
 278  1177.736
 279  1214.226
 280  1251.786
 281  985.0569
 282  1143.44
 283  891.8538
 284  878.4119
 285  1170.544
 286  1232.883
 287  922.0952
 288  512.7064
 289  815.5876
 290  844.1193
 291  885.287
 292  762.7855
 293  894.9617
 294  1036.906
 295  712.5589
 296  913.1968
 297  1075.923
 298  1067.411
 299  885.9789
 300  837.2125
 301  1209.98
 302  942.5547
 303  1236.406
 304  1247.286
 305  1380.004
 306  1285.673
 307  1283.417
 308  1001.043
 309  1093.084
 310  969.0163
 311  797.3906
 312  1399.287
 313  1304.522
 314  1039.424
 315  1020.529
 316  1281.748
 317  1029.601
 318  1415.726
 319  1528.087
 320  1596.531
 321  1860.861
 322  2193.428
 323  2558.436
 324  2933.085
 325  2897.463
 326  2303.234
 327  1714.605
 328  1503.329
 329  1622.731
 330  1495.984
 331  1319.236
 332  1028.742
 333  877.2635
 334  1238.664
 335  1299.968
 336  1301.056
 337  1072.589
 338  1276.049
 339  1062.164
 340  1291.896
 341  1250.587
 342  1226.708
 343  1028.339
 344  1322.251
 345  1455.792
 346  1246.834
 347  1014.164
 348  1151.753
 349  1308.959
 350  1114.586
 351  925.683
 352  1075.881
 353  915.1006
 354  1149.726
 355  1109.294
 356  1222.584
 357  1192.166
 358  1312.921
 359  1194.139
 360  1002.207
 361  887.8945
 362  1011.136
 363  1251.054
 364  914.4133
 365  815.9835
 366  638.6934
 367  782.4022
 368  934.9926
 369  1135.119
 370  1249.881
 371  1130.462
 372  988.631
 373  880.4869
 374  980.1049
 375  651.7231
 376  695.2591
 377  998.0632
 378  992.9135
 379  790.4903
 380  591.2031
 381  1139.281
 382  1017.796
 383  626.6288
 384  942.6174
 385  931.4645
 386  1025.379
 387  871.7732
 388  777.9481
 389  986.4061
 390  1233.029
 391  1259.008
 392  1053.71
 393  1246.847
 394  1093.106
 395  1183.68
 396  1180.224
 397  1037.594
 398  988.4669
 399  1352.174
 400  1417.511
 401  1151.551
 402  952.4109
 403  1032.915
 404  893.5056
 405  1150.175
 406  1397.201
 407  1305.692
 408  992.426
 409  1269.452
 410  1111.493
 411  1210.027
 412  1331.015
 413  1280.899
 414  1192.618
 415  1363.175
 416  1156.462
 417  1134.044
 418  812.3078
 419  886.7061
 420  604.7559
 421  954.1628
 422  1203.078
 423  1461.229
 424  1088.224
 425  1408.437
 426  1445.282
 427  1031.676
 428  843.7327
 429  1085.508
 430  1243.85
 431  1355.112
 432  1039.658
 433  778.0894
 434  1313.037
 435  1145.825
 436  898.7328
 437  998.6667
 438  1245.786
 439  1588.442
 440  1166.485
 441  947.3878
 442  524.1876
 443  565.1002
 444  905.3679
 445  931.3488
 446  1086.291
 447  1055.197
 448  1035.414
 449  1044.684
 450  1064.079
 451  427.1974
 452  740.6566
 453  884.4442
 454  623.1032
 455  798.9335
 456  1062.768
 457  917.9465
 458  992.7917
 459  832.7421
 460  724.4791
 461  858.8147
 462  901.9434
 463  984.2374
 464  976.6641
 465  956.357
 466  949.8117
 467  1049.819
 468  817.6672
 469  584.1511
 470  1038.189
 471  999.7993
 472  707.7909
 473  937.3997
 474  1247.181
 475  1015.447
 476  772.2885
 477  687.3669
 478  915.3921
 479  764.8452
 480  1259.3
 481  1498.319
 482  1197.646
 483  798.9047
 484  694.6787
 485  790.0535
 486  1103.749
 487  1278.23
 488  1415.16
 489  1255.063
 490  926.8308
 491  1053.775
 492  1349.278
 493  1170.962
 494  1103.526
 495  854.0387
 496  851.1185
 497  716.9019
 498  857.9474
 499  785.4451
 500  746.977
 501  873.6666
 502  971.4958
 503  1013.313
 504  921.9113
 505  999.3602
 506  1086.746
 507  1368.163
 508  1265.755
 509  1274.948
 510  1373.484
 511  1299.216
