# Input file       =  1188795939.110369_cleaned.dat
# Candidate        =  PSR_0332+5434
# Telescope        =  AR
# Epoch_topo       =  58003.212478129273
# Epoch_bary       =  N/A
# T_sample         =  0.002
# Data Folded      =  7340032
# Data Avg         =  0.0299091423377312
# Data StdDev      =  3.04543619093366 
# Profile Bins     =  512
# Profile Avg      =  428.784844372547 
# Profile StdDev   =  364.63932223218  
# Reduced chi-sqr  =  1.164
# Prob(Noise)      <  0.00595   (~2.5 sigma)
# P_topo (ms)      =  714.46448761604   +/- 0.000209
# P'_topo (s/s)    =  -0                +/- 1.1e-10
# P''_topo (s/s^2) =  0                 +/- 4.87e-14
# P_bary (ms)      =  N/A
# P'_bary (s/s)    =  N/A
# P''_bary (s/s^2) =  N/A
# P_orb (s)        =  N/A
# asin(i)/c (s)    =  N/A
# eccentricity     =  N/A
# w (rad)          =  N/A
# T_peri           =  N/A
######################################################
   0  239.9258
   1  54.311
   2  4.909392
   3  -53.64913
   4  248.0672
   5  248.0815
   6  -66.64461
   7  230.3475
   8  369.9086
   9  407.3522
  10  784.7465
  11  696.8761
  12  480.0284
  13  523.5706
  14  981.413
  15  507.0323
  16  321.4656
  17  358.7027
  18  386.7786
  19  624.165
  20  560.1228
  21  175.83
  22  136.3522
  23  400.0847
  24  583.8605
  25  612.3912
  26  1113.33
  27  874.6458
  28  765.712
  29  721.6968
  30  555.2454
  31  337.9103
  32  172.9844
  33  279.0076
  34  180.3271
  35  453.3582
  36  612.3256
  37  858.2764
  38  531.6774
  39  232.8719
  40  408.9657
  41  626.8979
  42  975.1385
  43  664.8556
  44  520.0393
  45  363.9744
  46  385.6065
  47  482.1545
  48  566.4027
  49  531.5857
  50  52.19643
  51  434.9441
  52  558.5949
  53  190.4408
  54  490.7711
  55  263.4925
  56  307.4622
  57  239.2447
  58  -88.10763
  59  -358.4315
  60  97.45935
  61  31.86065
  62  -16.70677
  63  213.7332
  64  459.1285
  65  73.3701
  66  186.5719
  67  279.1881
  68  501.3967
  69  550.5641
  70  386.0726
  71  14.32349
  72  157.4274
  73  -182.3688
  74  86.52995
  75  -9.623961
  76  61.8171
  77  332.823
  78  461.9613
  79  257.739
  80  510.2571
  81  246.9937
  82  469.1365
  83  543.4498
  84  589.2037
  85  855.7255
  86  499.8472
  87  581.2473
  88  687.72
  89  695.1042
  90  400.3011
  91  536.2482
  92  327.835
  93  86.28639
  94  499.0982
  95  535.3676
  96  363.9527
  97  271.334
  98  605.6083
  99  402.91
 100  477.5474
 101  664.4883
 102  785.2241
 103  502.3581
 104  563.994
 105  324.5689
 106  361.0302
 107  600.623
 108  481.6257
 109  -123.8788
 110  -145.3167
 111  329.4161
 112  218.4045
 113  -204.6265
 114  -25.96627
 115  362.8466
 116  264.3816
 117  581.8882
 118  381.8341
 119  314.2744
 120  517.9778
 121  449.0146
 122  338.9438
 123  83.69034
 124  0.7533062
 125  176.5596
 126  -43.97891
 127  101.2258
 128  525.9598
 129  128.8647
 130  50.35266
 131  320.7533
 132  114.8857
 133  188.6004
 134  -42.21408
 135  246.6162
 136  506.1997
 137  5.630822
 138  199.375
 139  247.7848
 140  587.4794
 141  711.6582
 142  449.3806
 143  572.9695
 144  794.5005
 145  658.3564
 146  441.8367
 147  250.5436
 148  67.74281
 149  27.31347
 150  195.2671
 151  598.0894
 152  527.3928
 153  691.4725
 154  373.1707
 155  26.39116
 156  161.8396
 157  480.5966
 158  120.8377
 159  4.84198
 160  301.8515
 161  360.0111
 162  590.4186
 163  783.6671
 164  823.9317
 165  672.354
 166  722.752
 167  319.1163
 168  496.4129
 169  522.5738
 170  756.4105
 171  672.6212
 172  413.0916
 173  667.0934
 174  268.5137
 175  -458.6362
 176  -259.1338
 177  177.4175
 178  -100.4095
 179  185.7818
 180  534.9364
 181  501.209
 182  785.1105
 183  661.7003
 184  297.4123
 185  -71.06908
 186  -63.5608
 187  522.2361
 188  248.4295
 189  150.2675
 190  92.35006
 191  256.3463
 192  308.7664
 193  411.6498
 194  263.0419
 195  105.9349
 196  205.3315
 197  587.4907
 198  86.41369
 199  530.206
 200  413.3855
 201  549.1307
 202  669.6298
 203  109.8689
 204  238.8302
 205  361.9788
 206  162.7912
 207  210.2263
 208  443.4092
 209  354.5898
 210  627.142
 211  270.983
 212  364.4812
 213  558.8892
 214  257.0544
 215  524.4644
 216  261.4753
 217  431.3935
 218  138.3746
 219  -104.9799
 220  384.6022
 221  43.04488
 222  183.109
 223  485.2019
 224  672.19
 225  336.6628
 226  234.0531
 227  227.953
 228  556.0626
 229  512.9631
 230  629.5103
 231  146.1606
 232  47.26865
 233  404.3142
 234  366.6195
 235  663.6956
 236  914.0039
 237  832.4865
 238  950.5768
 239  426.4745
 240  272.9576
 241  570.0237
 242  518.2054
 243  234.6893
 244  665.2762
 245  387.4482
 246  445.3414
 247  311.5229
 248  104.4275
 249  107.815
 250  160.701
 251  742.6823
 252  584.3141
 253  570.7843
 254  358.4109
 255  152.0248
 256  171.8064
 257  248.8975
 258  -30.16213
 259  183.4966
 260  379.7326
 261  506.6887
 262  425.7106
 263  -58.93651
 264  361.2966
 265  416.568
 266  926.7226
 267  594.5266
 268  202.1354
 269  275.1532
 270  521.9371
 271  507.352
 272  403.9366
 273  532.5927
 274  456.3237
 275  458.9391
 276  681.3454
 277  218.0887
 278  120.8381
 279  106.3118
 280  374.8662
 281  557.2779
 282  370.0295
 283  528.0115
 284  570.8615
 285  489.2185
 286  465.1031
 287  871.9048
 288  673.5127
 289  258.5948
 290  225.4633
 291  420.6242
 292  476.0618
 293  419.0906
 294  395.1886
 295  427.314
 296  686.1516
 297  497.4549
 298  195.1837
 299  -103.7368
 300  651.8559
 301  926.9067
 302  444.9275
 303  268.6996
 304  -31.35857
 305  394.069
 306  493.3673
 307  402.3586
 308  484.8122
 309  -27.08155
 310  343.1674
 311  357.5316
 312  440.5551
 313  456.6951
 314  215.0242
 315  110.0893
 316  462.4882
 317  224.9599
 318  408.6801
 319  780.2642
 320  1040.864
 321  590.39
 322  132.1168
 323  339.4881
 324  792.4967
 325  314.3591
 326  661.8652
 327  519.1813
 328  520.4806
 329  356.2506
 330  272.7176
 331  635.6814
 332  614.579
 333  715.902
 334  732.9263
 335  710.5615
 336  455.2273
 337  214.2
 338  -183.3434
 339  -151.5406
 340  540.4328
 341  836.6692
 342  717.0297
 343  472.5682
 344  321.0256
 345  152.2056
 346  464.531
 347  625.2711
 348  487.3267
 349  494.7491
 350  390.4982
 351  179.9151
 352  551.7794
 353  878.7382
 354  603.1755
 355  442.3699
 356  -172.8972
 357  387.1881
 358  844.6522
 359  783.5223
 360  395.0335
 361  394.9452
 362  336.2658
 363  670.9459
 364  121.9001
 365  570.1199
 366  604.3654
 367  830.7947
 368  792.4229
 369  638.9147
 370  551.9008
 371  216.1858
 372  462.0634
 373  533.12
 374  692.5038
 375  1070.506
 376  960.9617
 377  838.4424
 378  563.2439
 379  289.8057
 380  340.8795
 381  626.3514
 382  663.2639
 383  658.403
 384  293.3983
 385  604.8442
 386  306.2708
 387  375.0269
 388  581.0184
 389  743.939
 390  573.1038
 391  837.6036
 392  579.4602
 393  314.726
 394  322.8231
 395  136.8206
 396  185.2362
 397  635.8328
 398  605.432
 399  524.1183
 400  602.2218
 401  753.7928
 402  377.8085
 403  661.6267
 404  382.2335
 405  475.8906
 406  487.5925
 407  691.6396
 408  656.7943
 409  726.2896
 410  586.5004
 411  385.8705
 412  202.7415
 413  371.6864
 414  -26.72398
 415  104.8425
 416  -119.5664
 417  213.3646
 418  446.6674
 419  263.8633
 420  342.9749
 421  564.8531
 422  372.5542
 423  406.7832
 424  624.2644
 425  778.1486
 426  705.4832
 427  525.7938
 428  396.7688
 429  331.9864
 430  354.7156
 431  573.6095
 432  435.1962
 433  392.6763
 434  291.0594
 435  142.5684
 436  386.2838
 437  242.4205
 438  278.7845
 439  662.712
 440  875.8422
 441  947.4549
 442  856.3151
 443  1636.252
 444  1854.209
 445  1723.683
 446  1585.964
 447  1327.787
 448  934.4728
 449  803.3289
 450  788.8368
 451  626.2273
 452  518.2607
 453  556.2125
 454  741.1644
 455  626.1722
 456  717.6721
 457  898.6885
 458  430.2773
 459  517.8869
 460  874.312
 461  865.9341
 462  749.6337
 463  579.9941
 464  452.2971
 465  446.9364
 466  845.7406
 467  738.8104
 468  500.4217
 469  766.0704
 470  1281.378
 471  893.5515
 472  52.69223
 473  4.451065
 474  268.8056
 475  610.5845
 476  732.4711
 477  440.0696
 478  186.3792
 479  345.5302
 480  358.9939
 481  885.1495
 482  649.3876
 483  495.6604
 484  666.8521
 485  382.5158
 486  234.0564
 487  427.5813
 488  430.871
 489  433.0068
 490  623.5241
 491  724.9402
 492  249.7738
 493  -71.07391
 494  12.98934
 495  810.103
 496  349.6783
 497  209.5576
 498  468.3462
 499  500.4428
 500  255.8779
 501  332.6754
 502  545.8584
 503  402.1486
 504  313.5806
 505  370.6855
 506  281.5193
 507  438.325
 508  197.0895
 509  -56.05023
 510  42.99093
 511  244.9497
