# Input file       =  1188594055.109037_cleaned.dat
# Candidate        =  PSR_0332+5434
# Telescope        =  AR
# Epoch_topo       =  58000.875857743486
# Epoch_bary       =  N/A
# T_sample         =  0.002
# Data Folded      =  7143424
# Data Avg         =  0.0849957815488937
# Data StdDev      =  3.16667637411437 
# Profile Bins     =  512
# Profile Avg      =  1185.75935413669 
# Profile StdDev   =  374.043330822561 
# Reduced chi-sqr  =  0.826
# Prob(Noise)      <  0.998   (~0.0 sigma)
# P_topo (ms)      =  714.463807626427  +/- 0.000169
# P'_topo (s/s)    =  -0                +/- 9.15e-11
# P''_topo (s/s^2) =  0                 +/- 4.15e-14
# P_bary (ms)      =  N/A
# P'_bary (s/s)    =  N/A
# P''_bary (s/s^2) =  N/A
# P_orb (s)        =  N/A
# asin(i)/c (s)    =  N/A
# eccentricity     =  N/A
# w (rad)          =  N/A
# T_peri           =  N/A
######################################################
   0  1202.596
   1  1012.332
   2  918.4102
   3  1081.159
   4  1146.906
   5  1275.657
   6  1087.089
   7  961.6075
   8  1053.16
   9  1146.412
  10  1234.234
  11  1059.623
  12  1386.75
  13  1031.767
  14  941.8362
  15  1057.376
  16  1211.854
  17  1204.421
  18  1351.128
  19  1123.483
  20  1127.858
  21  1296.926
  22  833.0806
  23  712.655
  24  930.6629
  25  1308.96
  26  1469.786
  27  1435.021
  28  1644.835
  29  1478.188
  30  993.938
  31  947.8338
  32  1223.152
  33  1195.755
  34  1353.437
  35  1495.404
  36  1503.447
  37  1204.403
  38  1161.502
  39  1174.93
  40  1028.658
  41  934.716
  42  732.6122
  43  1264.717
  44  1182.433
  45  1165.677
  46  1243.903
  47  1210.38
  48  988.3093
  49  1092.986
  50  926.7961
  51  1091.366
  52  1002.519
  53  1280.002
  54  1501.846
  55  1296.178
  56  1093.71
  57  930.9277
  58  1078.219
  59  1115.281
  60  1272.342
  61  1381.732
  62  1280.148
  63  1005.857
  64  1194.284
  65  1229.538
  66  1195.546
  67  1387.491
  68  1344.096
  69  1176.304
  70  1128.674
  71  963.3539
  72  1113.11
  73  1247.438
  74  1228.973
  75  1207.166
  76  1198.955
  77  1058.582
  78  848.7142
  79  1055.249
  80  949.3691
  81  1124.305
  82  1068.255
  83  1180.011
  84  1277.583
  85  1195.88
  86  1172.341
  87  1145.266
  88  1070.122
  89  1075.538
  90  1165.976
  91  1113.867
  92  1022.454
  93  1513.088
  94  1454.16
  95  1319.048
  96  1472.285
  97  1215.844
  98  1221.934
  99  1370.25
 100  1624.4
 101  1278.102
 102  1287.319
 103  1414.067
 104  1060.144
 105  718.1743
 106  916.1235
 107  1426.852
 108  1453.91
 109  1440.8
 110  1618.41
 111  1456.61
 112  1426.063
 113  1050.489
 114  1201.132
 115  1195.05
 116  1226.238
 117  1412.23
 118  1611.739
 119  1590.558
 120  1668.114
 121  1543.477
 122  1093.391
 123  882.0629
 124  948.6837
 125  1205.479
 126  1459.853
 127  1426.964
 128  1110.169
 129  1225.193
 130  1319.04
 131  1240.053
 132  1114.425
 133  916.377
 134  1087.638
 135  1051.822
 136  1118.878
 137  1224.457
 138  1088.767
 139  1632.459
 140  1356.474
 141  1296.411
 142  1403.126
 143  1216.571
 144  1272.639
 145  1069.466
 146  1032.137
 147  1106.134
 148  1050.156
 149  1081.732
 150  1203.119
 151  785.4141
 152  973.0797
 153  909.6173
 154  964.388
 155  837.0731
 156  702.5553
 157  917.6609
 158  1075.582
 159  1224.793
 160  1460.869
 161  1432.674
 162  1256.271
 163  1217.634
 164  1035.828
 165  1278.823
 166  1486.597
 167  1109.341
 168  922.339
 169  1031.56
 170  777.2899
 171  993.2043
 172  1008.105
 173  848.9026
 174  728.3523
 175  1131.569
 176  1399.559
 177  1199.586
 178  889.2573
 179  908.6255
 180  961.9152
 181  1032.027
 182  1307.655
 183  1258.182
 184  1332.86
 185  1360.515
 186  1204.715
 187  1514.28
 188  1347.23
 189  712.2668
 190  777.0018
 191  1093.137
 192  970.9848
 193  826.8665
 194  1123.032
 195  1422.184
 196  1708.882
 197  1417.432
 198  1293.524
 199  949.933
 200  1135.717
 201  1392.338
 202  1487.241
 203  1323.236
 204  1152.049
 205  1282.846
 206  1189.509
 207  1143.725
 208  1226.357
 209  1556.117
 210  1533.032
 211  1423.722
 212  1225.682
 213  995.5967
 214  910.8929
 215  1093.307
 216  953.4868
 217  844.5671
 218  1165.549
 219  1255.989
 220  1074.52
 221  787.0865
 222  934.4507
 223  1662.948
 224  1722.879
 225  1452.89
 226  1248.486
 227  1001.307
 228  1263.902
 229  1389.25
 230  1360.86
 231  1122.37
 232  1092.334
 233  1051.147
 234  1109.799
 235  1103.382
 236  1192.634
 237  1099.627
 238  1198.908
 239  912.1334
 240  1009.635
 241  1043.996
 242  941.784
 243  1143.823
 244  1299.204
 245  1516.031
 246  1079.142
 247  881.4919
 248  1036.65
 249  1320.681
 250  1337.18
 251  1238.527
 252  1199.461
 253  1224.646
 254  1010.436
 255  855.1381
 256  878.4861
 257  1099.884
 258  1115.283
 259  1344.72
 260  1231.181
 261  1435.124
 262  1258.088
 263  1223.799
 264  1166.228
 265  1009.916
 266  816.4458
 267  1224.663
 268  1186.136
 269  957.8062
 270  1020.153
 271  1373.369
 272  1314.217
 273  1174.931
 274  1251.563
 275  1279.042
 276  1051.621
 277  865.4518
 278  922.4707
 279  834.7357
 280  1102.249
 281  1078.705
 282  947.0012
 283  957.5881
 284  735.0609
 285  901.4929
 286  962.236
 287  1024.783
 288  1167.7
 289  1183.623
 290  1036.657
 291  1000.089
 292  1256.7
 293  1412.942
 294  1279.182
 295  1421.053
 296  1325.465
 297  1184.908
 298  850.5927
 299  1243.327
 300  1207.728
 301  1071.051
 302  1086.232
 303  1000.271
 304  1143.601
 305  1087.41
 306  1335.455
 307  1191.772
 308  1262.735
 309  1257.302
 310  1179.246
 311  1108.821
 312  1336.155
 313  1135.202
 314  1003.109
 315  957.8502
 316  970.2938
 317  1223.349
 318  1900.307
 319  2002.589
 320  2087.786
 321  2244.974
 322  2284.879
 323  2857.194
 324  2750.702
 325  2207.597
 326  1745.435
 327  1535.685
 328  1684.875
 329  1521.008
 330  1294.977
 331  1354.111
 332  1347.754
 333  1233.562
 334  1374.919
 335  1372.045
 336  1065.709
 337  918.8979
 338  1281.195
 339  1139.566
 340  1195.312
 341  1369.251
 342  1116.43
 343  1236.451
 344  1091.668
 345  1102.832
 346  1083.064
 347  1046.203
 348  987.695
 349  1008.702
 350  1390.561
 351  1166.749
 352  987.5819
 353  793.1611
 354  1099.533
 355  1432.773
 356  1526.711
 357  1312.395
 358  1274.529
 359  1246.201
 360  1264.756
 361  1073.772
 362  1184.837
 363  1195.559
 364  1486.993
 365  1415.61
 366  1339.499
 367  1197.852
 368  1079.814
 369  902.4775
 370  878.7072
 371  991.7968
 372  1140.879
 373  1298.124
 374  1290.602
 375  1252.692
 376  993.2526
 377  1041.085
 378  1241.729
 379  1207.683
 380  1074.871
 381  873.7466
 382  993.9867
 383  1070.558
 384  1068.56
 385  1368.675
 386  1483.82
 387  1164.18
 388  1074.408
 389  1193.013
 390  1560.534
 391  1554.791
 392  1360.68
 393  1197.418
 394  1062.85
 395  992.4589
 396  938.5682
 397  1242.257
 398  1337.39
 399  1259.284
 400  1469.25
 401  966.0381
 402  814.7911
 403  987.5153
 404  1217.432
 405  1080.388
 406  1222.999
 407  1152.526
 408  1393.328
 409  963.3049
 410  635.4893
 411  910.9554
 412  1203.457
 413  1163.312
 414  994.571
 415  1112.232
 416  1074.929
 417  1170.707
 418  1207.426
 419  1143.818
 420  891.5323
 421  983.592
 422  1233.193
 423  1376.352
 424  1299.645
 425  1252.879
 426  1317.714
 427  938.7526
 428  779.593
 429  1110.078
 430  1113.669
 431  1262.844
 432  1126.339
 433  980.2476
 434  1085.226
 435  1279.847
 436  1287.364
 437  1309.315
 438  1145.736
 439  1223.658
 440  1031.321
 441  987.8386
 442  1249.254
 443  1133.044
 444  1127.084
 445  938.9575
 446  1206.761
 447  1142.77
 448  1204.462
 449  1161.128
 450  1001.72
 451  733.7536
 452  939.5466
 453  1332.58
 454  1439.533
 455  1203.728
 456  1378.151
 457  1039.306
 458  1165.059
 459  973.8307
 460  916.7813
 461  1149.734
 462  1194.005
 463  1579.485
 464  1327.083
 465  1262.15
 466  1505.717
 467  1491.776
 468  1064.223
 469  1052.76
 470  1025.609
 471  1213.772
 472  923.8854
 473  925.4111
 474  1393.374
 475  1773.86
 476  1586.674
 477  1326.355
 478  1026.38
 479  933.3924
 480  866.3804
 481  1177.773
 482  1058.416
 483  1123.537
 484  802.0241
 485  721.9365
 486  1078.938
 487  717.1059
 488  1074.14
 489  1265.508
 490  1206.328
 491  1438.311
 492  1036.336
 493  949.9087
 494  1129.237
 495  1265.787
 496  1518.8
 497  1444.216
 498  1183.967
 499  1290.514
 500  1445.871
 501  1312.499
 502  1257.254
 503  1194.837
 504  1015.742
 505  1086.03
 506  1129.836
 507  1079.255
 508  1308.914
 509  1107.865
 510  1115.21
 511  1103.926
