# Input file       =  1188365153.119957_cleaned.dat
# Candidate        =  PSR_0332+5434
# Telescope        =  AR
# Epoch_topo       =  57998.226529166168
# Epoch_bary       =  N/A
# T_sample         =  0.002
# Data Folded      =  7340032
# Data Avg         =  0.0377683934826305
# Data StdDev      =  2.86583064101511 
# Profile Bins     =  512
# Profile Avg      =  541.63681509902  
# Profile StdDev   =  343.134604390313 
# Reduced chi-sqr  =  1.588
# Prob(Noise)      <  5.12e-16   (~8.0 sigma)
# P_topo (ms)      =  714.463885412459  +/- 0.000348
# P'_topo (s/s)    =  -0                +/- 1.84e-10
# P''_topo (s/s^2) =  0                 +/- 8.12e-14
# P_bary (ms)      =  N/A
# P'_bary (s/s)    =  N/A
# P''_bary (s/s^2) =  N/A
# P_orb (s)        =  N/A
# asin(i)/c (s)    =  N/A
# eccentricity     =  N/A
# w (rad)          =  N/A
# T_peri           =  N/A
######################################################
   0  848.0203
   1  617.993
   2  696.5793
   3  222.387
   4  224.8737
   5  455.2185
   6  754.4865
   7  662.7061
   8  356.7669
   9  417.47
  10  405.6989
  11  324.1038
  12  190.1305
  13  579.8358
  14  399.8911
  15  430.155
  16  234.0218
  17  43.13379
  18  314.2808
  19  432.594
  20  226.6161
  21  471.4491
  22  -27.03355
  23  -29.84217
  24  136.2417
  25  352.0773
  26  264.0385
  27  408.7887
  28  567.5273
  29  806.8293
  30  853.8908
  31  576.0699
  32  667.9675
  33  854.1591
  34  686.075
  35  756.1387
  36  740.4493
  37  698.9626
  38  878.145
  39  733.8975
  40  785.2631
  41  1173.707
  42  1350.233
  43  851.5737
  44  773.1229
  45  997.8615
  46  907.1749
  47  779.1652
  48  589.2363
  49  426.4157
  50  560.9089
  51  749.1973
  52  731.7897
  53  792.5685
  54  605.7977
  55  121.7038
  56  591.2823
  57  971.8992
  58  837.0136
  59  587.2125
  60  696.4097
  61  654.1518
  62  944.5134
  63  810.3242
  64  542.5665
  65  679.2557
  66  774.1207
  67  593.9558
  68  661.8736
  69  18.58581
  70  624.2799
  71  -30.37427
  72  133.3908
  73  738.3612
  74  921.3997
  75  299.8432
  76  -9.737623
  77  230.5988
  78  515.5815
  79  898.4301
  80  762.3828
  81  605.1306
  82  263.2202
  83  315.5396
  84  167.1464
  85  71.35196
  86  482.292
  87  696.7916
  88  508.6082
  89  256.4059
  90  -24.80412
  91  294.6865
  92  637.1446
  93  269.6761
  94  277.1516
  95  523.2278
  96  882.8943
  97  970.0687
  98  644.7203
  99  611.8531
 100  546.0399
 101  310.3124
 102  533.0287
 103  632.351
 104  102.0243
 105  188.3751
 106  482.9599
 107  644.1285
 108  457.1679
 109  460.9152
 110  636.1575
 111  893.4886
 112  780.0966
 113  370.876
 114  445.2996
 115  902.5414
 116  514.6021
 117  854.0989
 118  768.8583
 119  758.4042
 120  467.7108
 121  297.549
 122  400.2518
 123  865.3243
 124  917.346
 125  776.3511
 126  577.4057
 127  623.1328
 128  870.5669
 129  619.9458
 130  915.228
 131  698.0074
 132  584.1044
 133  671.89
 134  757.5098
 135  619.6111
 136  695.9363
 137  696.5338
 138  215.7871
 139  214.52
 140  276.3267
 141  776.6945
 142  622.6501
 143  164.8521
 144  417.9825
 145  427.0381
 146  361.1817
 147  583.2014
 148  256.2843
 149  530.7201
 150  705.6631
 151  22.01093
 152  -133.7603
 153  50.55588
 154  100.4439
 155  124.3249
 156  525.2672
 157  515.0735
 158  312.2242
 159  18.89374
 160  220.8966
 161  158.8321
 162  113.1678
 163  286.5122
 164  259.9689
 165  205.2299
 166  203.1926
 167  550.2112
 168  912.7593
 169  598.3403
 170  436.078
 171  159.0117
 172  42.78039
 173  92.40761
 174  99.43845
 175  715.3373
 176  701.2814
 177  581.6874
 178  544.6315
 179  699.5739
 180  494.4388
 181  639.8696
 182  311.3785
 183  554.4704
 184  784.6533
 185  715.3188
 186  658.8439
 187  412.6677
 188  640.0646
 189  639.2662
 190  404.9198
 191  754.8165
 192  380.2994
 193  484.5869
 194  414.6703
 195  504.2043
 196  769.931
 197  899.2699
 198  691.3237
 199  875.7435
 200  856.4839
 201  770.8672
 202  578.8616
 203  162.8767
 204  500.4688
 205  412.1572
 206  245.3784
 207  514.2017
 208  208.4787
 209  60.78222
 210  310.8477
 211  596.646
 212  159.5543
 213  312.8018
 214  627.0577
 215  425.5582
 216  117.8002
 217  7.014916
 218  229.5942
 219  244.6855
 220  537.2131
 221  319.3268
 222  169.2076
 223  318.6566
 224  424.0353
 225  406.0616
 226  512.9357
 227  645.9498
 228  369.7122
 229  677.0789
 230  370.9921
 231  91.18671
 232  186.2307
 233  435.35
 234  546.946
 235  259.6888
 236  208.0397
 237  418.2645
 238  130.3841
 239  486.9925
 240  674.6136
 241  637.2861
 242  651.5053
 243  551.2397
 244  485.6506
 245  411.152
 246  508.7053
 247  461.4322
 248  707.8293
 249  650.0649
 250  648.8748
 251  293.1169
 252  69.98238
 253  488.629
 254  816.89
 255  758.7205
 256  337.8764
 257  514.5847
 258  396.2316
 259  686.8528
 260  903.0699
 261  946.3415
 262  848.4575
 263  780.9258
 264  378.9883
 265  722.4164
 266  868.9874
 267  991.7332
 268  903.5867
 269  1187.626
 270  762.0823
 271  823.3833
 272  661.9333
 273  570.5163
 274  723.9274
 275  806.4239
 276  880.8658
 277  831.4576
 278  809.6304
 279  981.519
 280  708.9272
 281  622.9811
 282  587.8558
 283  626.9424
 284  744.9853
 285  514.2122
 286  385.9536
 287  593.1569
 288  771.6204
 289  756.1289
 290  736.9143
 291  412.51
 292  460.9562
 293  389.7281
 294  159.4013
 295  359.1803
 296  470.4458
 297  412.4335
 298  691.6577
 299  593.2463
 300  579.1582
 301  796.4864
 302  656.078
 303  843.8542
 304  839.8834
 305  605.6315
 306  557.1873
 307  1020.63
 308  1106.727
 309  615.1676
 310  688.0173
 311  458.2859
 312  236.3628
 313  294.091
 314  696.7295
 315  489.9355
 316  497.6739
 317  666.2611
 318  817.778
 319  735.9036
 320  1185.466
 321  1829.144
 322  2157.402
 323  2312
 324  1793.06
 325  1470.318
 326  1403.975
 327  964.808
 328  598.2921
 329  539.6303
 330  725.1061
 331  1004.745
 332  1291.916
 333  980.7288
 334  1040.458
 335  1234.571
 336  1220.737
 337  1159.82
 338  1141.394
 339  1045.799
 340  864.4622
 341  861.3774
 342  827.8764
 343  846.5273
 344  740.8694
 345  821.2499
 346  610.0427
 347  923.8869
 348  1026.452
 349  746.9547
 350  508.7076
 351  927.8967
 352  914.9879
 353  860.0079
 354  814.7235
 355  832.6825
 356  424.0826
 357  416.3834
 358  849.7432
 359  955.4194
 360  524.619
 361  458.2899
 362  494.4511
 363  333.7897
 364  202.2719
 365  415.3545
 366  673.0722
 367  439.3844
 368  359.8456
 369  576.0417
 370  742.994
 371  391.2675
 372  273.5688
 373  486.6799
 374  293.0383
 375  991.9719
 376  1000.199
 377  424.7372
 378  -7.789357
 379  94.07694
 380  776.261
 381  370.101
 382  385.3877
 383  620.4191
 384  580.5085
 385  367.9854
 386  432.7341
 387  136.6232
 388  677.1678
 389  332.1459
 390  208.5976
 391  282.7709
 392  770.5013
 393  692.0298
 394  415.6238
 395  629.9984
 396  834.2061
 397  519.6033
 398  585.6007
 399  773.7725
 400  544.1324
 401  266.6916
 402  11.26867
 403  471.4257
 404  766.493
 405  808.6728
 406  792.051
 407  658.6998
 408  391.2678
 409  143.3655
 410  326.9878
 411  375.4972
 412  614.6165
 413  690.8823
 414  250.4191
 415  247.2227
 416  358.5623
 417  411.1286
 418  843.1729
 419  585.5491
 420  596.8001
 421  139.4276
 422  278.6518
 423  403.8153
 424  111.3673
 425  235.3224
 426  534.7606
 427  698.2909
 428  193.7911
 429  207.623
 430  130.8208
 431  317.1425
 432  117.0974
 433  34.17895
 434  -38.56355
 435  229.4497
 436  498.6935
 437  587.8094
 438  650.7072
 439  494.9365
 440  469.2941
 441  190.1403
 442  142.8355
 443  306.7538
 444  56.22727
 445  132.9052
 446  152.4209
 447  69.22837
 448  94.7399
 449  158.11
 450  140.6277
 451  477.2501
 452  624.7233
 453  638.0513
 454  521.2006
 455  101.1799
 456  -450.3452
 457  -241.6508
 458  -115.5983
 459  38.00544
 460  116.8711
 461  235.6267
 462  263.1462
 463  187.5906
 464  184.3206
 465  28.62516
 466  267.5469
 467  277.7382
 468  428.0968
 469  331.0939
 470  677.2128
 471  460.2649
 472  146.4033
 473  216.0875
 474  477.1756
 475  525.5467
 476  307.8889
 477  480.6838
 478  519.0731
 479  827.8799
 480  1076.944
 481  765.0345
 482  635.4777
 483  615.2272
 484  796.4971
 485  343.3634
 486  506.6688
 487  1091.561
 488  830.7111
 489  580.8316
 490  668.7175
 491  432.5022
 492  564.5926
 493  682.0822
 494  513.338
 495  603.6303
 496  808.2423
 497  701.0433
 498  717.2277
 499  633.6549
 500  699.8756
 501  645.2274
 502  717.2855
 503  642.4338
 504  750.8223
 505  54.4496
 506  304.5303
 507  750.7823
 508  590.7924
 509  292.1289
 510  208.3843
 511  657.5405
