# Input file       =  1188335615.117973_cleaned.dat
# Candidate        =  PSR_0332+5434
# Telescope        =  AR
# Epoch_topo       =  57997.884654143207
# Epoch_bary       =  N/A
# T_sample         =  0.002
# Data Folded      =  7208960
# Data Avg         =  0.0671744268017142
# Data StdDev      =  3.30339286869445 
# Profile Bins     =  512
# Profile Avg      =  945.842629896144 
# Profile StdDev   =  391.977875121511 
# Reduced chi-sqr  =  0.848
# Prob(Noise)      <  0.994   (~0.0 sigma)
# P_topo (ms)      =  714.463507827718  +/- 9.1e-05
# P'_topo (s/s)    =  -0                +/- 4.89e-11
# P''_topo (s/s^2) =  0                 +/- 2.2e-14
# P_bary (ms)      =  N/A
# P'_bary (s/s)    =  N/A
# P''_bary (s/s^2) =  N/A
# P_orb (s)        =  N/A
# asin(i)/c (s)    =  N/A
# eccentricity     =  N/A
# w (rad)          =  N/A
# T_peri           =  N/A
######################################################
   0  1271.968
   1  1062.069
   2  812.4595
   3  745.5775
   4  849.909
   5  878.5744
   6  302.3138
   7  374.7106
   8  649.1586
   9  888.5906
  10  973.3913
  11  695.4802
  12  797.929
  13  846.6265
  14  811.2773
  15  611.4882
  16  1165.647
  17  1324.618
  18  1003.417
  19  949.2704
  20  1109.947
  21  904.8152
  22  731.0826
  23  638.9959
  24  821.192
  25  743.854
  26  1006.146
  27  904.2294
  28  843.3057
  29  797.7845
  30  631.9754
  31  612.5621
  32  795.7739
  33  631.5425
  34  810.3504
  35  1268.368
  36  1264.365
  37  832.2104
  38  723.6088
  39  938.8676
  40  814.3979
  41  655.4272
  42  600.8671
  43  752.9415
  44  877.8026
  45  798.9066
  46  614.3569
  47  489.778
  48  803.3021
  49  968.7986
  50  871.5441
  51  914.6971
  52  823.6412
  53  957.0002
  54  820.2435
  55  1123.595
  56  958.4668
  57  702.3777
  58  946.7145
  59  849.5873
  60  587.9863
  61  477.9858
  62  454.9697
  63  481.3959
  64  771.6818
  65  872.2737
  66  709.3194
  67  625.4495
  68  1019.088
  69  1366.198
  70  908.0832
  71  398.6226
  72  901.6818
  73  956.6005
  74  844.3398
  75  1061.011
  76  923.4435
  77  804.772
  78  1155.357
  79  1237.129
  80  959.7457
  81  963.9813
  82  1325.052
  83  1088.668
  84  934.3853
  85  945.2225
  86  726.6331
  87  992.1581
  88  795.4697
  89  625.2335
  90  657.8981
  91  810.8414
  92  1244.76
  93  1210.379
  94  1107.782
  95  1091.38
  96  1025.293
  97  1023.258
  98  1013.957
  99  1261.55
 100  1215.323
 101  1142.314
 102  1100.158
 103  942.1427
 104  765.0291
 105  704.4255
 106  1079.111
 107  1185.278
 108  1093.567
 109  1302.716
 110  962.1587
 111  769.6956
 112  1045.75
 113  725.4517
 114  947.9663
 115  1204.624
 116  1441.758
 117  1107.974
 118  758.218
 119  822.4213
 120  1117.719
 121  1274.64
 122  1086.963
 123  783.5756
 124  648.8079
 125  889.1489
 126  819.9774
 127  777.8475
 128  1007.47
 129  883.7899
 130  1222.558
 131  1313.112
 132  973.9801
 133  713.1481
 134  1030.494
 135  921.579
 136  856.5571
 137  777.2708
 138  1077.083
 139  1015.383
 140  961.0131
 141  1238.554
 142  1375.541
 143  1240.79
 144  703.1281
 145  943.9949
 146  896.6962
 147  735.8399
 148  749.1067
 149  751.4603
 150  1087.537
 151  1046.973
 152  662.3276
 153  752.645
 154  664.4638
 155  270.8127
 156  326.7082
 157  551.8407
 158  854.8358
 159  1233.765
 160  933.0511
 161  700.1649
 162  1016.435
 163  1012.265
 164  796.8823
 165  836.4197
 166  972.7422
 167  803.3723
 168  740.7303
 169  1020.317
 170  783.1489
 171  760.1444
 172  906.0414
 173  920.2315
 174  938.5377
 175  858.0501
 176  937.0825
 177  818.0719
 178  772.4415
 179  635.9527
 180  1141.126
 181  1123.17
 182  967.3409
 183  1289.346
 184  1176.909
 185  1375.914
 186  1111.009
 187  825.5113
 188  585.9098
 189  476.9352
 190  1008.209
 191  1063.473
 192  1099.124
 193  972.4247
 194  931.5526
 195  888.0124
 196  1108.589
 197  1037.568
 198  1134.107
 199  1157.309
 200  1243.268
 201  1058.61
 202  831.2328
 203  886.0374
 204  991.463
 205  1077.342
 206  887.2769
 207  1103.084
 208  1056.396
 209  1017.69
 210  1075.168
 211  878.45
 212  908.6938
 213  797.5427
 214  789.7806
 215  769.7386
 216  971.0083
 217  1267.511
 218  1161.916
 219  852.9634
 220  679.9561
 221  873.7533
 222  1018.783
 223  604.2701
 224  812.3959
 225  1176.838
 226  935.8615
 227  703.1813
 228  858.6066
 229  928.7022
 230  808.4174
 231  535.137
 232  775.9546
 233  636.4937
 234  612.27
 235  727.6445
 236  1130.266
 237  758.2
 238  669.3931
 239  287.8329
 240  504.2962
 241  626.9724
 242  738.9501
 243  947.9456
 244  607.1796
 245  885.6066
 246  1067.285
 247  841.0691
 248  785.8843
 249  1145.467
 250  1247.752
 251  1425.864
 252  899.6253
 253  686.47
 254  839.3472
 255  597.5966
 256  569.2081
 257  1269.412
 258  1018.173
 259  856.8654
 260  783.3772
 261  494.7668
 262  756.9997
 263  958.6323
 264  920.109
 265  1153.718
 266  1103.472
 267  1070.07
 268  717.2596
 269  897.5037
 270  1133.052
 271  942.946
 272  1510.488
 273  1414.647
 274  1203.087
 275  1126.441
 276  1264.98
 277  1138.821
 278  806.8079
 279  1218.05
 280  1129.693
 281  1321.816
 282  1236.265
 283  1121.429
 284  1282.529
 285  1498.793
 286  1704.176
 287  1830.834
 288  2168.584
 289  2640.767
 290  2289.485
 291  2031.429
 292  1633.014
 293  1260.135
 294  1085.147
 295  873.8778
 296  1297.543
 297  1105.595
 298  986.3112
 299  1233.476
 300  1406.179
 301  1434.625
 302  939.3595
 303  921.9866
 304  920.8249
 305  933.6411
 306  1208.943
 307  1048.111
 308  1171.455
 309  1028.343
 310  1099.457
 311  1071.862
 312  724.3497
 313  832.9402
 314  1058.798
 315  1059.93
 316  1095.117
 317  1002.682
 318  789.2748
 319  475.0528
 320  692.4868
 321  818.766
 322  674.9721
 323  807.0082
 324  972.3965
 325  1017.55
 326  1118.692
 327  962.72
 328  1006.976
 329  998.3441
 330  1260.583
 331  1292.245
 332  1255.724
 333  1109.017
 334  807.9343
 335  1001.688
 336  1001.989
 337  711.2682
 338  596.8492
 339  614.8653
 340  829.0747
 341  1100.005
 342  983.2699
 343  1064.293
 344  1111.232
 345  1014.358
 346  950.3994
 347  1150.113
 348  1189.016
 349  852.6078
 350  925.9391
 351  768.6757
 352  790.3439
 353  720.95
 354  984.9214
 355  954.6699
 356  1012.417
 357  1212.986
 358  871.2827
 359  903.8569
 360  939.9187
 361  761.2427
 362  861.4695
 363  895.9649
 364  1118.902
 365  1081.25
 366  1176.38
 367  840.8839
 368  889.4256
 369  1172.03
 370  1255.685
 371  878.5972
 372  1016.135
 373  1314.757
 374  1469.604
 375  1104.671
 376  1090.22
 377  1437.368
 378  1271.348
 379  1009.783
 380  1227.063
 381  1530.533
 382  1025.359
 383  901.9614
 384  895.9644
 385  743.2363
 386  646.4897
 387  881.1625
 388  966.8906
 389  842.3073
 390  1014.995
 391  1186.057
 392  1097.463
 393  958.3018
 394  648.8899
 395  506.8826
 396  881.6771
 397  777.2297
 398  822.1086
 399  1134.19
 400  1076.061
 401  978.4484
 402  606.0989
 403  395.9426
 404  787.0251
 405  877.4501
 406  950.6057
 407  1097.975
 408  1354.086
 409  1005.549
 410  892.2359
 411  960.7353
 412  783.7417
 413  263.973
 414  791.1067
 415  917.3383
 416  1013.28
 417  858.8047
 418  827.5941
 419  929.7366
 420  772.2535
 421  1005.097
 422  1155.488
 423  875.9368
 424  733.4085
 425  757.5578
 426  856.1262
 427  813.5757
 428  930.3881
 429  907.9235
 430  1121.888
 431  1396.966
 432  1335.764
 433  1030.737
 434  986.3688
 435  766.6071
 436  540.5655
 437  393.7491
 438  576.7448
 439  1022.998
 440  1376.633
 441  1391.29
 442  971.6434
 443  1092.914
 444  871.8162
 445  984.468
 446  1091.087
 447  1392.61
 448  1381.407
 449  1071.122
 450  1127.82
 451  938.254
 452  839.7383
 453  921.5142
 454  776.6144
 455  964.8829
 456  843.6732
 457  996.326
 458  1254.334
 459  1144.357
 460  781.4926
 461  641.0518
 462  966.4018
 463  1013.557
 464  1040.012
 465  1236.815
 466  1039.053
 467  868.8047
 468  862.999
 469  512.4304
 470  938.8171
 471  842.1766
 472  877.8021
 473  792.1835
 474  819.8317
 475  671.1818
 476  795.5227
 477  846.6639
 478  1010.382
 479  919.9127
 480  1110.802
 481  1484.864
 482  933.8604
 483  434.4158
 484  776.7675
 485  422.7606
 486  776.2768
 487  930.675
 488  667.3049
 489  717.8184
 490  759.6186
 491  710.1382
 492  906.6617
 493  856.2443
 494  798.6763
 495  904.6762
 496  1009.157
 497  980.5322
 498  974.3106
 499  859.735
 500  530.881
 501  564.7637
 502  696.4496
 503  1265.032
 504  1146.511
 505  881.1888
 506  1131.002
 507  997.3239
 508  788.549
 509  783.4808
 510  714.659
 511  900.9498
