# Input file       =  1188421806.120907_cleaned.dat
# Candidate        =  PSR_0332+5434
# Telescope        =  AR
# Epoch_topo       =  57998.882235195684
# Epoch_bary       =  N/A
# T_sample         =  0.002
# Data Folded      =  7143424
# Data Avg         =  0.0533276673421315
# Data StdDev      =  3.32997218865785 
# Profile Bins     =  512
# Profile Avg      =  744.150470205123 
# Profile StdDev   =  393.33160128825  
# Reduced chi-sqr  =  0.743
# Prob(Noise)      <  1   (~0.0 sigma)
# P_topo (ms)      =  714.463591781784  +/- 7.82e-05
# P'_topo (s/s)    =  -0                +/- 4.24e-11
# P''_topo (s/s^2) =  0                 +/- 1.92e-14
# P_bary (ms)      =  N/A
# P'_bary (s/s)    =  N/A
# P''_bary (s/s^2) =  N/A
# P_orb (s)        =  N/A
# asin(i)/c (s)    =  N/A
# eccentricity     =  N/A
# w (rad)          =  N/A
# T_peri           =  N/A
######################################################
   0  957.5292
   1  992.3089
   2  377.3465
   3  521.0332
   4  977.6557
   5  853.6185
   6  644.4809
   7  653.0614
   8  549.5014
   9  635.0602
  10  806.4584
  11  937.8702
  12  980.5133
  13  798.016
  14  707.2756
  15  623.9021
  16  471.1004
  17  511.2066
  18  731.8162
  19  1113.378
  20  713.1821
  21  1041.125
  22  922.4713
  23  592.3199
  24  435.8574
  25  277.4082
  26  737.7009
  27  904.1267
  28  623.1317
  29  388.735
  30  670.8131
  31  956.8244
  32  830.3309
  33  716.5616
  34  900.9856
  35  1103.495
  36  674.2446
  37  780.8044
  38  822.3824
  39  688.3764
  40  596.174
  41  441.523
  42  418.9305
  43  644.3183
  44  741.8008
  45  1141.577
  46  1018.349
  47  947.282
  48  592.5521
  49  318.5664
  50  612.11
  51  227.8544
  52  531.2725
  53  846.5617
  54  1096.456
  55  892.8467
  56  419.4826
  57  470.7359
  58  365.4992
  59  384.9482
  60  507.6449
  61  657.2488
  62  1055.869
  63  1178.22
  64  1006.969
  65  637.6182
  66  617.1316
  67  640.5299
  68  997.4907
  69  1112.5
  70  1053.046
  71  1157.362
  72  923.7638
  73  636.7421
  74  891.4675
  75  745.1299
  76  471.4471
  77  837.3961
  78  907.8515
  79  849.0998
  80  841.4353
  81  1130.766
  82  1039.76
  83  667.1262
  84  650.0152
  85  633.0425
  86  827.6208
  87  850.7297
  88  1093.079
  89  855.8929
  90  915.7982
  91  553.7852
  92  481.7101
  93  656.2481
  94  755.5881
  95  849.6094
  96  1042.462
  97  1009.632
  98  530.0682
  99  640.3299
 100  754.3141
 101  840.1567
 102  743.9634
 103  635.0045
 104  798.4446
 105  538.9796
 106  855.6376
 107  462.4626
 108  476.3778
 109  446.8038
 110  700.1409
 111  510.6193
 112  692.2638
 113  1017.676
 114  762.9803
 115  957.2864
 116  948.8551
 117  574.4534
 118  669.1728
 119  1030.97
 120  977.7189
 121  848.4686
 122  843.359
 123  346.3406
 124  521.6844
 125  531.1475
 126  768.0269
 127  875.4724
 128  769.6135
 129  745.6377
 130  748.2461
 131  341.4587
 132  509.3064
 133  855.8754
 134  746.8538
 135  737.3656
 136  963.1207
 137  895.3789
 138  645.7446
 139  782.6302
 140  485.4346
 141  610.0857
 142  519.2441
 143  759.4149
 144  1121.519
 145  835.0911
 146  902.9163
 147  728.3738
 148  959.6607
 149  722.0913
 150  256.3776
 151  484.6098
 152  719.6201
 153  658.159
 154  613.3931
 155  564.2242
 156  784.3317
 157  610.6729
 158  259.9647
 159  492.8541
 160  239.4519
 161  496.9818
 162  645.9443
 163  890.4193
 164  918.2158
 165  459.0947
 166  543.5674
 167  575.759
 168  651.2346
 169  628.3992
 170  925.765
 171  952.0128
 172  527.1017
 173  619.7614
 174  624.5711
 175  784.3286
 176  330.1795
 177  572.8636
 178  779.6013
 179  956.4998
 180  732.1857
 181  817.7281
 182  840.8247
 183  524.1119
 184  694.844
 185  587.8466
 186  529.4028
 187  653.7568
 188  967.431
 189  934.4391
 190  491.3707
 191  347.3351
 192  829.6935
 193  671.1561
 194  598.345
 195  1001.97
 196  851.2849
 197  740.5836
 198  726.2629
 199  1222.086
 200  1176.795
 201  714.7875
 202  731.8117
 203  638.6025
 204  751.6654
 205  574.3152
 206  777.4552
 207  491.5442
 208  529.7896
 209  323.6132
 210  749.8796
 211  858.655
 212  930.7881
 213  768.8928
 214  650.6429
 215  910.148
 216  697.9714
 217  622.452
 218  571.6863
 219  465.0789
 220  412.9451
 221  784.9872
 222  781.7494
 223  769.4809
 224  482.5287
 225  824.8708
 226  1156.731
 227  742.7862
 228  709.0178
 229  609.5549
 230  583.4445
 231  690.3323
 232  683.8849
 233  1186.979
 234  886.4034
 235  643.4932
 236  591.3584
 237  663.0307
 238  451.8009
 239  932.1516
 240  1056.96
 241  656.4112
 242  692.124
 243  571.8504
 244  806.4552
 245  833.7195
 246  428.4071
 247  590.8542
 248  619.0233
 249  594.2515
 250  803.3235
 251  919.5591
 252  736.6021
 253  912.4789
 254  986.9658
 255  992.4069
 256  899.0411
 257  836.8862
 258  534.9924
 259  895.0704
 260  781.7491
 261  690.1909
 262  364.0804
 263  338.7075
 264  722.7158
 265  601.5164
 266  778.0627
 267  687.1793
 268  801.8458
 269  721.6854
 270  375.2638
 271  642.2532
 272  505.0624
 273  630.3482
 274  783.8784
 275  733.4576
 276  774.3652
 277  974.863
 278  1010.788
 279  645.7081
 280  658.2274
 281  958.72
 282  939.3356
 283  817.9487
 284  932.0864
 285  1011.962
 286  723.7458
 287  750.9468
 288  883.116
 289  625.4531
 290  548.9399
 291  587.8043
 292  635.7922
 293  1097.203
 294  742.0021
 295  851.7395
 296  950.658
 297  901.5208
 298  897.0391
 299  956.0699
 300  832.8646
 301  565.0159
 302  805.2689
 303  822.7957
 304  991.8391
 305  662.6193
 306  647.8779
 307  523.2451
 308  522.6138
 309  566.0811
 310  1018.694
 311  944.7352
 312  616.237
 313  832.7855
 314  892.4601
 315  788.2112
 316  833.6569
 317  1102.167
 318  870.0391
 319  1119.017
 320  1297.459
 321  1827.746
 322  2006.01
 323  2073.339
 324  1843.394
 325  1726.59
 326  1174.68
 327  739.0571
 328  700.4569
 329  668.6565
 330  415.4985
 331  402.2203
 332  597.2806
 333  1042.046
 334  1019.779
 335  1222.165
 336  1285.286
 337  1137.532
 338  1048.558
 339  1168.421
 340  977.1239
 341  726.9572
 342  705.9072
 343  773.2092
 344  593.1209
 345  422.14
 346  812.4947
 347  785.5875
 348  760.6004
 349  727.9644
 350  807.2206
 351  682.9047
 352  430.1746
 353  437.0872
 354  676.8557
 355  720.3316
 356  439.9283
 357  896.918
 358  1107.128
 359  1011.42
 360  1104.202
 361  902.3294
 362  747.0141
 363  991.4363
 364  871.4188
 365  799.3907
 366  719.2244
 367  385.7546
 368  781.6271
 369  608.3456
 370  549.1775
 371  421.9233
 372  596.0381
 373  919.8645
 374  838.4127
 375  1009.158
 376  843.0458
 377  923.0656
 378  706.7808
 379  575.1268
 380  729.8289
 381  656.309
 382  713.2062
 383  618.1846
 384  1254.975
 385  881.6819
 386  1000.063
 387  1089.252
 388  997.7217
 389  673.5286
 390  283.0675
 391  697.5807
 392  622.4603
 393  906.7581
 394  1202.942
 395  879.7125
 396  427.6732
 397  808.1601
 398  857.9454
 399  1083.276
 400  966.6077
 401  1063.813
 402  997.035
 403  528.5174
 404  712.9776
 405  848.4035
 406  1133.266
 407  664.1196
 408  518.2944
 409  821.0768
 410  818.829
 411  1043.515
 412  1031.015
 413  611.2363
 414  569.425
 415  580.7625
 416  641.0931
 417  580.7671
 418  403.7955
 419  540.6963
 420  821.3733
 421  938.5161
 422  1326.404
 423  562.4979
 424  677.6396
 425  731.0579
 426  745.9937
 427  581.74
 428  721.1829
 429  421.2359
 430  583.6923
 431  1002.015
 432  1116.839
 433  800.9171
 434  507.9304
 435  716.6417
 436  688.0259
 437  556.7237
 438  665.7196
 439  611.7548
 440  622.2257
 441  591.9782
 442  1061.338
 443  957.3549
 444  672.2869
 445  633.8356
 446  623.5161
 447  497.24
 448  629.9995
 449  655.6467
 450  487.1097
 451  778.4014
 452  1077.748
 453  660.86
 454  527.676
 455  446.2308
 456  543.248
 457  846.154
 458  1077.872
 459  878.4773
 460  489.5406
 461  630.5212
 462  693.8139
 463  418.9536
 464  445.431
 465  572.2614
 466  657.6317
 467  885.2773
 468  979.4949
 469  717.2205
 470  203.3797
 471  412.8953
 472  -37.58051
 473  423.1496
 474  621.1299
 475  906.3555
 476  905.1638
 477  900.4611
 478  605.0112
 479  633.4731
 480  848.6366
 481  571.9788
 482  681.9176
 483  539.2335
 484  711.7244
 485  496.817
 486  148.987
 487  477.3163
 488  693.7926
 489  308.3272
 490  500.7939
 491  695.2372
 492  896.2781
 493  880.2678
 494  994.189
 495  719.046
 496  144.5596
 497  606.2908
 498  1008.701
 499  1066.822
 500  672.659
 501  769.02
 502  784.4543
 503  413.6858
 504  214.0086
 505  482.636
 506  914.2273
 507  760.6326
 508  713.1874
 509  659.176
 510  300.8761
 511  606.4398
