# Input file       =  1188421806.120907_cleaned.dat
# Candidate        =  PSR_0332+5434
# Telescope        =  AR
# Epoch_topo       =  57998.882235195684
# Epoch_bary       =  N/A
# T_sample         =  0.002
# Data Folded      =  7143424
# Data Avg         =  0.0533276673421315
# Data StdDev      =  3.32997218865785 
# Profile Bins     =  512
# Profile Avg      =  744.150470177137 
# Profile StdDev   =  393.33160128825  
# Reduced chi-sqr  =  0.742
# Prob(Noise)      <  1   (~0.0 sigma)
# P_topo (ms)      =  714.463591635801  +/- 7.82e-05
# P'_topo (s/s)    =  -0                +/- 4.24e-11
# P''_topo (s/s^2) =  0                 +/- 1.92e-14
# P_bary (ms)      =  N/A
# P'_bary (s/s)    =  N/A
# P''_bary (s/s^2) =  N/A
# P_orb (s)        =  N/A
# asin(i)/c (s)    =  N/A
# eccentricity     =  N/A
# w (rad)          =  N/A
# T_peri           =  N/A
######################################################
   0  1004.745
   1  845.6528
   2  741.6997
   3  731.3217
   4  1225.136
   5  1173.835
   6  708.7694
   7  734.162
   8  636.2335
   9  753.8212
  10  575.0458
  11  772.1868
  12  495.1093
  13  523.9093
  14  327.3844
  15  752.5553
  16  861.2087
  17  928.979
  18  766.499
  19  653.7156
  20  908.5617
  21  696.5923
  22  621.8982
  23  570.7529
  24  463.2664
  25  417.0928
  26  786.4398
  27  781.9362
  28  765.3733
  29  483.5505
  30  832.6931
  31  1154.576
  32  739.019
  33  708.8629
  34  607.1123
  35  583.5221
  36  693.2151
  37  686.2386
  38  1187.604
  39  884.0848
  40  639.4186
  41  593.2952
  42  660.1915
  43  455.4466
  44  936.4318
  45  1052.917
  46  654.5413
  47  690.8322
  48  574.1043
  49  809.1483
  50  829.1074
  51  427.5063
  52  593.412
  53  618.9544
  54  595.366
  55  805.95
  56  918.8345
  57  733.9764
  58  919.4588
  59  983.4646
  60  994.4666
  61  898.0627
  62  828.762
  63  541.4694
  64  894.8317
  65  781.9934
  66  684.2071
  67  363.4081
  68  341.8823
  69  721.3286
  70  605.2835
  71  777.2722
  72  690.0616
  73  796.966
  74  721.8552
  75  372.6987
  76  648.0323
  77  498.0535
  78  636.4584
  79  784.2534
  80  732.6567
  81  775.2356
  82  978.2549
  83  1008.779
  84  640.5938
  85  665.101
  86  958.0822
  87  940.9987
  88  815.7252
  89  933.3726
  90  1009.951
  91  718.9353
  92  755.8942
  93  878.9551
  94  626.5191
  95  546.0409
  96  588.8929
  97  639.0722
  98  1099.317
  99  739.2696
 100  853.5005
 101  951.1199
 102  899.7487
 103  900.5255
 104  953.5042
 105  831.3668
 106  565.2317
 107  806.081
 108  824.7261
 109  989.4682
 110  658.8254
 111  648.4805
 112  523.7901
 113  520.6031
 114  572.8583
 115  1019.554
 116  941.837
 117  611.5884
 118  839.4814
 119  892.5458
 120  784.3596
 121  839.2737
 122  1101.212
 123  868.0853
 124  1122.148
 125  1302.311
 126  1833.534
 127  2006.499
 128  2071.57
 129  1842.516
 130  1725.334
 131  1164.011
 132  739.8455
 133  695.6457
 134  669.1545
 135  413.2695
 136  404.5836
 137  601.0094
 138  1044.246
 139  1022.313
 140  1223.504
 141  1284.506
 142  1132.401
 143  1051.751
 144  1167.507
 145  974.2179
 146  723.8445
 147  709.601
 148  768.7656
 149  591.9946
 150  424.7063
 151  816.7418
 152  781.0052
 153  760.9068
 154  731.7215
 155  805.3383
 156  681.0157
 157  425.5571
 158  440.0332
 159  680.7347
 160  715.7707
 161  443.1908
 162  901.5749
 163  1109.39
 164  1007.851
 165  1107.524
 166  894.8194
 167  750.3174
 168  992.6393
 169  868.3432
 170  800.2485
 171  714.2213
 172  388.5055
 173  783.3325
 174  606.3802
 175  548.2717
 176  419.843
 177  600.8019
 178  923.7234
 179  835.6387
 180  1012.624
 181  840.1151
 182  922.1624
 183  705.988
 184  570.8148
 185  735.8668
 186  653.3165
 187  711.4335
 188  625.8696
 189  1253.093
 190  881.5256
 191  1000.124
 192  1094.036
 193  991.5502
 194  667.0919
 195  282.7178
 196  702.3543
 197  623.3236
 198  911.3885
 199  1204.894
 200  866.356
 201  432.1017
 202  809.442
 203  862.8655
 204  1080.173
 205  969.4306
 206  1065.346
 207  990.5148
 208  527.2534
 209  713.8985
 210  853.4924
 211  1130.673
 212  661.4491
 213  517.6348
 214  828.9484
 215  813.6188
 216  1049.788
 217  1024.805
 218  608.0801
 219  573.5189
 220  578.115
 221  644.7786
 222  572.3707
 223  405.7718
 224  544.9992
 225  820.5188
 226  945.0389
 227  1323.004
 228  556.0629
 229  678.0348
 230  735.2252
 231  744.6877
 232  581.9581
 233  718.5933
 234  420.0593
 235  586.9208
 236  1007.321
 237  1114.217
 238  798.2786
 239  507.2055
 240  720.4089
 241  685.0211
 242  554.076
 243  669.6259
 244  610.3153
 245  622.6116
 246  594.0055
 247  1065.558
 248  954.4766
 249  665.9904
 250  639.1973
 251  616.3041
 252  501.3353
 253  627.8616
 254  656.4479
 255  487.1597
 256  783.5791
 257  1075.898
 258  657.6429
 259  527.3381
 260  444.9315
 261  546.972
 262  850.7629
 263  1078.68
 264  871.3207
 265  488.7435
 266  631.7401
 267  693.9083
 268  416.3168
 269  446.8921
 270  574.6402
 271  657.4323
 272  891.1452
 273  977.1341
 274  708.9196
 275  203.5673
 276  410.9045
 277  -38.17991
 278  426.2719
 279  628.7384
 280  904.1975
 281  907.3707
 282  896.9173
 283  603.6686
 284  636.0245
 285  845.2511
 286  573.7578
 287  680.7054
 288  540.7026
 289  712.019
 290  490.5757
 291  149.1208
 292  484.4298
 293  692.2013
 294  304.626
 295  503.6478
 296  698.8547
 297  895.5046
 298  880.2838
 299  997.3721
 300  708.8409
 301  146.0766
 302  610.413
 303  1017.723
 304  1059.016
 305  671.4886
 306  769.8
 307  781.8766
 308  410.0693
 309  212.4335
 310  492.7618
 311  910.0775
 312  762.3877
 313  710.8831
 314  657.5438
 315  298.6865
 316  612.8138
 317  960.7728
 318  988.8247
 319  371.7983
 320  527.787
 321  978.6721
 322  848.1949
 323  647.1805
 324  651.6656
 325  548.6572
 326  637.4274
 327  810.6018
 328  937.7166
 329  979.2509
 330  795.4612
 331  705.9747
 332  622.7529
 333  467.204
 334  515.2956
 335  736.3395
 336  1109.271
 337  713.8122
 338  1047.161
 339  916.9659
 340  589.3993
 341  433.9052
 342  277.7361
 343  745.9664
 344  903.2927
 345  616.7946
 346  388.6774
 347  676.7983
 348  959.7267
 349  824.6888
 350  718.1719
 351  903.8226
 352  1103.363
 353  667.0536
 354  788.5514
 355  816.8398
 356  692.626
 357  589.7294
 358  441.4182
 359  418.04
 360  647.8287
 361  747.7691
 362  1139.572
 363  1019.493
 364  942.2194
 365  587.968
 366  322.5545
 367  610.0425
 368  227.7007
 369  533.0896
 370  851.9098
 371  1095.755
 372  889.6139
 373  413.4024
 374  473.6393
 375  364.4823
 376  387.1468
 377  506.3938
 378  662.3143
 379  1059.565
 380  1178.092
 381  1004.034
 382  633.415
 383  618.2145
 384  639.5399
 385  1005.663
 386  1109.56
 387  1054.133
 388  1155.927
 389  918.2817
 390  641.0582
 391  889.7837
 392  744.5699
 393  468.9163
 394  842.3443
 395  906.8022
 396  847.9852
 397  847.0291
 398  1128.526
 399  1041.32
 400  659.3412
 401  652.3823
 402  631.7065
 403  830.6226
 404  855.2532
 405  1089.317
 406  858.8437
 407  913.0726
 408  552.6697
 409  478.5299
 410  662.4864
 411  752.3717
 412  853.175
 413  1044.053
 414  1004.331
 415  524.6479
 416  646.097
 417  754.4017
 418  838.918
 419  744.0221
 420  635.3649
 421  800.9627
 422  534.0696
 423  857.7773
 424  457.2849
 425  478.0058
 426  449.5019
 427  698.9686
 428  511.1972
 429  695.5449
 430  1021.49
 431  759.738
 432  961.2117
 433  940.1628
 434  576.1443
 435  673.301
 436  1032.635
 437  974.0228
 438  849.7287
 439  838.8294
 440  344.1862
 441  523.9406
 442  531.8016
 443  771.528
 444  873.8107
 445  768.1757
 446  746.0458
 447  748.1158
 448  336.6165
 449  514.8925
 450  858.423
 451  741.8928
 452  745.4163
 453  958.1382
 454  895.1045
 455  646.6791
 456  780.042
 457  483.8799
 458  609.6646
 459  522.5368
 460  762.5573
 461  1122.099
 462  833.3133
 463  899.7461
 464  732.0402
 465  958.2527
 466  717.2565
 467  252.7043
 468  491.0493
 469  719.2925
 470  657.5132
 471  612.5606
 472  565.1005
 473  787.3284
 474  602.7243
 475  262.287
 476  493.3598
 477  237.0562
 478  503.0716
 479  644.9677
 480  895.9158
 481  914.3683
 482  455.3485
 483  545.3951
 484  577.288
 485  648.6376
 486  634.0766
 487  924.2178
 488  951.5891
 489  522.7982
 490  624.8403
 491  623.313
 492  786.0649
 493  323.501
 494  577.9999
 495  783.6017
 496  951.9139
 497  732.6214
 498  819.6037
 499  837.1029
 500  524.243
 501  693.9008
 502  586.1295
 503  532.8736
 504  655.0453
 505  970.1161
 506  931.3275
 507  485.2974
 508  351.3867
 509  832.5107
 510  669.5794
 511  599.663
