# Input file       =  1188507916.120346_cleaned.dat
# Candidate        =  PSR_0332+5434
# Telescope        =  AR
# Epoch_topo       =  57999.878878707706
# Epoch_bary       =  N/A
# T_sample         =  0.002
# Data Folded      =  7143424
# Data Avg         =  0.165640972827031
# Data StdDev      =  3.64749997496614 
# Profile Bins     =  1024
# Profile Avg      =  1155.5219910152  
# Profile StdDev   =  304.64814183912  
# Reduced chi-sqr  =  0.576
# Prob(Noise)      <  1   (~0.0 sigma)
# P_topo (ms)      =  714.463691854891  +/- 0.000245
# P'_topo (s/s)    =  -0                +/- 1.33e-10
# P''_topo (s/s^2) =  0                 +/- 6.02e-14
# P_bary (ms)      =  N/A
# P'_bary (s/s)    =  N/A
# P''_bary (s/s^2) =  N/A
# P_orb (s)        =  N/A
# asin(i)/c (s)    =  N/A
# eccentricity     =  N/A
# w (rad)          =  N/A
# T_peri           =  N/A
######################################################
   0  1196.225
   1  1145.749
   2  1154.952
   3  1130.418
   4  1018.347
   5  1050.431
   6  1183.08
   7  1214.086
   8  1195.76
   9  1302.142
  10  1262.786
  11  1181.503
  12  1124.519
  13  1111.6
  14  1042.946
  15  1082.854
  16  1148.255
  17  1202.09
  18  1176.311
  19  1204.046
  20  1237.015
  21  1195.323
  22  1200.688
  23  1105.657
  24  1093.224
  25  1060.305
  26  1247.462
  27  1321.005
  28  1152.743
  29  929.0787
  30  1011.625
  31  1066.095
  32  1130.118
  33  1041.267
  34  1134.594
  35  1188.639
  36  1117.046
  37  929.4112
  38  954.7172
  39  999.093
  40  1057.003
  41  1001.686
  42  1130.793
  43  1193.473
  44  1190.255
  45  1227.37
  46  1278.951
  47  1241.417
  48  1188.176
  49  1206.738
  50  1302.427
  51  1140.302
  52  1062.897
  53  1150.873
  54  1178.578
  55  1206.295
  56  1077.579
  57  1139.117
  58  1178.496
  59  1194.672
  60  1205.048
  61  1107.283
  62  1175.891
  63  1303.082
  64  1208.27
  65  1051.453
  66  971.9829
  67  1037.772
  68  1129.628
  69  1097.956
  70  1094.698
  71  1094.642
  72  1072.396
  73  995.5887
  74  1017.215
  75  1139.224
  76  1082.597
  77  1094.408
  78  1077.23
  79  1110.954
  80  1132.649
  81  1223.056
  82  1276.09
  83  1302.1
  84  1215.228
  85  1192.164
  86  1197.719
  87  1135.973
  88  1004.798
  89  896.0604
  90  1099.695
  91  1127.328
  92  1172.654
  93  1276.044
  94  1380.41
  95  1339.756
  96  1282.276
  97  1310.895
  98  1291.098
  99  1167.686
 100  1051.877
 101  1080.638
 102  973.0243
 103  963.8083
 104  994.0815
 105  1194.919
 106  1260.05
 107  1255.047
 108  1151.082
 109  1052.803
 110  1035.171
 111  1100.75
 112  1052.537
 113  1107.101
 114  1176.574
 115  1276.038
 116  1149.907
 117  1144.453
 118  1209.307
 119  1260.739
 120  1218.442
 121  1186.333
 122  1215.714
 123  1305.136
 124  1313.972
 125  1368.495
 126  1299.07
 127  1158.067
 128  1171.003
 129  1242.723
 130  1275.832
 131  1228.383
 132  1237.923
 133  1229.117
 134  1240.603
 135  1258.325
 136  1289.479
 137  1136.686
 138  1150.957
 139  1091.362
 140  1113.841
 141  1054.252
 142  1034.86
 143  1078.098
 144  1162.868
 145  1264.557
 146  1255.597
 147  1255.014
 148  1248.2
 149  1163.042
 150  1139.65
 151  1089.862
 152  1125.099
 153  1174.302
 154  1165.921
 155  1255.115
 156  1207.288
 157  1198.499
 158  1252.439
 159  1286.671
 160  1286.541
 161  1238.758
 162  1207.698
 163  1120.915
 164  1006.207
 165  1078.287
 166  1249.598
 167  1204.152
 168  1206.534
 169  1210.817
 170  1290.02
 171  1234.229
 172  1223.55
 173  1250.694
 174  1103.579
 175  1018.918
 176  1068.914
 177  1232.972
 178  1197.722
 179  1179.482
 180  1204.949
 181  1181.13
 182  1246.063
 183  1320.385
 184  1365.091
 185  1143.138
 186  1128.242
 187  1093.575
 188  1185.99
 189  1018.645
 190  995.7473
 191  979.2557
 192  1026.914
 193  1087.377
 194  1074.92
 195  1065.435
 196  1085.235
 197  1204.009
 198  1339.741
 199  1117.459
 200  1026.72
 201  989.8273
 202  1170.837
 203  1192.554
 204  1179.831
 205  1105.738
 206  1083.683
 207  1052.573
 208  948.8802
 209  1044.631
 210  1174.913
 211  1266.235
 212  1180.739
 213  1171.785
 214  1141.619
 215  1218.972
 216  1331.293
 217  1401.618
 218  1287.172
 219  1169.077
 220  1112.041
 221  1241.151
 222  1171.138
 223  1235.681
 224  1165.034
 225  1181.764
 226  1136.109
 227  1125.281
 228  1100.656
 229  1004.813
 230  1041.379
 231  1268.502
 232  1249.075
 233  1101.643
 234  1031.494
 235  1102.982
 236  1149.084
 237  1145.021
 238  1266.115
 239  1265.098
 240  1142.609
 241  1158.434
 242  1209.418
 243  1194.382
 244  1128.212
 245  1124.069
 246  1243.885
 247  1167.809
 248  1228.898
 249  1179.808
 250  1106.131
 251  1024.211
 252  1061.147
 253  1171.042
 254  1269.621
 255  1234.906
 256  1173.697
 257  1085.472
 258  1126.293
 259  1180.657
 260  1138.104
 261  1153.24
 262  1125.148
 263  1155.09
 264  1031.66
 265  1001.797
 266  998.6619
 267  1136.914
 268  1203.716
 269  1093.829
 270  999.0775
 271  998.0465
 272  1103.227
 273  1065.814
 274  1039.831
 275  1105.13
 276  1158.089
 277  1079.705
 278  970.9223
 279  1035.172
 280  1096.164
 281  1185.409
 282  1235.242
 283  1286.117
 284  1205.363
 285  1197.761
 286  1224.938
 287  1188.772
 288  1214.195
 289  1284.825
 290  1363.797
 291  1251.855
 292  1248.579
 293  1248.948
 294  1130.797
 295  995.3359
 296  1023.741
 297  1121.296
 298  1071.792
 299  1016.986
 300  1170.134
 301  1256.004
 302  1353.255
 303  1400.631
 304  1297.873
 305  1214.152
 306  1278.007
 307  1442.55
 308  1371.464
 309  1116.149
 310  1031.147
 311  894.8146
 312  922.5051
 313  949.2302
 314  1063.521
 315  1188.673
 316  1168.777
 317  1222.904
 318  1195.334
 319  1253.854
 320  1261.887
 321  1291.579
 322  1241.154
 323  1189.355
 324  1138.141
 325  1085.075
 326  1083.59
 327  1178.214
 328  1188.224
 329  1124.885
 330  1035.978
 331  982.7411
 332  963.8933
 333  1076.916
 334  1091.118
 335  1041.869
 336  976.9863
 337  1126.086
 338  1183.736
 339  1168.706
 340  1216.341
 341  1180.934
 342  1167.666
 343  1029.198
 344  1097.629
 345  1064.034
 346  1110.08
 347  1153.923
 348  1158.438
 349  1074.805
 350  1107.811
 351  1148.195
 352  1142.096
 353  942.4114
 354  1061.043
 355  1056.651
 356  1060.072
 357  939.1144
 358  1151.166
 359  1135.606
 360  1052.198
 361  1028.006
 362  1129.059
 363  1164.245
 364  1115.177
 365  1245.181
 366  1204.538
 367  1108.371
 368  1131.205
 369  1294.494
 370  1358.429
 371  1244.818
 372  1152.426
 373  1053.789
 374  980.9443
 375  964.2236
 376  1025.338
 377  1072.883
 378  1146.662
 379  1223.377
 380  1161.809
 381  1076.626
 382  1027.766
 383  1117.963
 384  1156.354
 385  1269.691
 386  1179.11
 387  1211.976
 388  1146.245
 389  1030.75
 390  943.2018
 391  858.8973
 392  974.9959
 393  1024.547
 394  1177.794
 395  1210.356
 396  1096.579
 397  947.8193
 398  910.1751
 399  1033.771
 400  1082.231
 401  1106.272
 402  1140.529
 403  1090.563
 404  975.8383
 405  1076.109
 406  1190.176
 407  1228.371
 408  1129.016
 409  1093.433
 410  1130.102
 411  1052.513
 412  1134.474
 413  1100.062
 414  1065.806
 415  1071.616
 416  1024.941
 417  1028.764
 418  1025.229
 419  1139.042
 420  1236.118
 421  1183.597
 422  1118.5
 423  1119.367
 424  1136.419
 425  1110.253
 426  1092.718
 427  1112.606
 428  1131.575
 429  1112.617
 430  1157.605
 431  1100.428
 432  1056.85
 433  1118.541
 434  1098.838
 435  1078.892
 436  995.9633
 437  1056.175
 438  1046.617
 439  1083.975
 440  1081.011
 441  1002.915
 442  891.1885
 443  897.8235
 444  1073.926
 445  1198.51
 446  1234.019
 447  1145.252
 448  1163.814
 449  1126.267
 450  1247.394
 451  1174.11
 452  1113.466
 453  986.7718
 454  951.2676
 455  1027.293
 456  1079.449
 457  1124.861
 458  1062.023
 459  1027.998
 460  1116.15
 461  1153.117
 462  1101.477
 463  1067.941
 464  1099.815
 465  1167.728
 466  1191.833
 467  1206.228
 468  1214.321
 469  1137.195
 470  1134.679
 471  1253.762
 472  1218.926
 473  1267.066
 474  1213.214
 475  1144.338
 476  1003.928
 477  980.7434
 478  1076.229
 479  1060.159
 480  1022.393
 481  1182.597
 482  1177.792
 483  1183.025
 484  1145.732
 485  1209.585
 486  1331.892
 487  1231.838
 488  1132.261
 489  1018.14
 490  1086.459
 491  1169.974
 492  1167.749
 493  1160.522
 494  1170.324
 495  1150.638
 496  1138.962
 497  1132.722
 498  1249.566
 499  1327.441
 500  1330.695
 501  1276.972
 502  1130.727
 503  1097.185
 504  1134.742
 505  1132.048
 506  1118.431
 507  1057.956
 508  1112.664
 509  1043.231
 510  1137.124
 511  1276.724
 512  1321.775
 513  1286.005
 514  1315.567
 515  1252.767
 516  1192.722
 517  1104.14
 518  1268.746
 519  1163.368
 520  1246.092
 521  1230.208
 522  1320.789
 523  1082.799
 524  942.1567
 525  962.6588
 526  1131.539
 527  1128.245
 528  1069.476
 529  1073.228
 530  1007.682
 531  973.0642
 532  1089.229
 533  1352.95
 534  1312.534
 535  1311.929
 536  1234.096
 537  1167.497
 538  1062.666
 539  1108.935
 540  1183.734
 541  1090.211
 542  1023.718
 543  1067.634
 544  933.5918
 545  855.8694
 546  1031.538
 547  1241.523
 548  1255.516
 549  1241.03
 550  1248.335
 551  1281.75
 552  1192.861
 553  1290.021
 554  1247.458
 555  1239.948
 556  1128.902
 557  1083.067
 558  1046.13
 559  1059.523
 560  1125.31
 561  1203.842
 562  1280.624
 563  1255.4
 564  1197.803
 565  1102.781
 566  1111.663
 567  1155.251
 568  1099.325
 569  1031.596
 570  1063.938
 571  1168.225
 572  1327.125
 573  1399.456
 574  1364.662
 575  1260.138
 576  1236.857
 577  1178.959
 578  1191.997
 579  1195.802
 580  1240.601
 581  1141.559
 582  960.0189
 583  941.5806
 584  931.6054
 585  913.9034
 586  1091.372
 587  1188.139
 588  1288.2
 589  1086.834
 590  1073.743
 591  1007.154
 592  927.6865
 593  1062.34
 594  1230.744
 595  1257.954
 596  1076.034
 597  1058.4
 598  1254.252
 599  1244.383
 600  1273.293
 601  1338.747
 602  1303.49
 603  1120.009
 604  1076.716
 605  1047.783
 606  1118.546
 607  1126.612
 608  1121.21
 609  1143.121
 610  1014.904
 611  1132.263
 612  1234.974
 613  1339.961
 614  1263.047
 615  1191.376
 616  1200.411
 617  1248.521
 618  1353.389
 619  1441.776
 620  1284.476
 621  1098.462
 622  1018.583
 623  1054.817
 624  1124.26
 625  1152.673
 626  1232.957
 627  1248.393
 628  1330.626
 629  1359.887
 630  1399.684
 631  1448.41
 632  1488.632
 633  1324.544
 634  1224.867
 635  1181.605
 636  1304.673
 637  1294.697
 638  1467.446
 639  1699.85
 640  1800.64
 641  1791.967
 642  1819.004
 643  1828.017
 644  1799.068
 645  1881.207
 646  1832.783
 647  1722.366
 648  1562.062
 649  1609.192
 650  1378.013
 651  1406.424
 652  1393.93
 653  1366.007
 654  1195.175
 655  1269.677
 656  1337.061
 657  1187.007
 658  973.5435
 659  1137.249
 660  1269.322
 661  1198.794
 662  1004.127
 663  1006.006
 664  986.6562
 665  951.2739
 666  940.6492
 667  1037.933
 668  931.5701
 669  947.3723
 670  1114.952
 671  1137.343
 672  1088.887
 673  1075.408
 674  1201.834
 675  1114.248
 676  1107.022
 677  1060.92
 678  1139.593
 679  1078.847
 680  1091.33
 681  1006.339
 682  989.3975
 683  920.2609
 684  1013.332
 685  1102.119
 686  1163.122
 687  1148.823
 688  1220.689
 689  1235.622
 690  1055.109
 691  922.8032
 692  860.0328
 693  928.776
 694  927.0344
 695  1032.898
 696  1101.528
 697  1133.861
 698  989.2442
 699  1008.894
 700  1020.138
 701  996.1179
 702  931.0332
 703  1070.247
 704  1120.4
 705  1066.726
 706  1006.626
 707  1089.674
 708  1039.737
 709  1040.737
 710  1148.739
 711  1289.203
 712  1222.2
 713  1142.48
 714  1168.498
 715  1124.166
 716  976.3809
 717  944.291
 718  1118.609
 719  1147.473
 720  1094.291
 721  1136.009
 722  1044.44
 723  934.5809
 724  1019.871
 725  1197.585
 726  1128.707
 727  939.4708
 728  936.0834
 729  958.2956
 730  985.4071
 731  951.6317
 732  995.2444
 733  958.2328
 734  973.6761
 735  1038.53
 736  1051.808
 737  973.3389
 738  985.0778
 739  1139.746
 740  1172.529
 741  1053.602
 742  957.555
 743  944.2008
 744  1007.632
 745  1068.901
 746  1164.092
 747  1218.623
 748  1233.039
 749  1189.222
 750  1167.137
 751  1106.872
 752  1019.56
 753  1004.103
 754  1123.21
 755  1287.269
 756  1379.394
 757  1455.714
 758  1352.829
 759  1187.589
 760  1189.244
 761  1311.461
 762  1442.501
 763  1402.588
 764  1263.387
 765  1243.165
 766  1181.64
 767  1180.239
 768  1216.892
 769  1316.851
 770  1286.592
 771  1056.337
 772  1058.272
 773  979.8627
 774  987.222
 775  1122.337
 776  1281.7
 777  1215.976
 778  1063.976
 779  985.7916
 780  1090.598
 781  1026.237
 782  1096.797
 783  1110.945
 784  1229.223
 785  1319.719
 786  1362.422
 787  1332.323
 788  1252.052
 789  1207.437
 790  1265.862
 791  1263.178
 792  1194.327
 793  1166.326
 794  1150.228
 795  1123.759
 796  1163.928
 797  1114.166
 798  1122.129
 799  1023.796
 800  1042.839
 801  1139.826
 802  1139.577
 803  1115.034
 804  1061.13
 805  1101.2
 806  1011.36
 807  1040.177
 808  1132.052
 809  1278.411
 810  1146.515
 811  1070.922
 812  1075.311
 813  1208.363
 814  1105.702
 815  959.0672
 816  981.1077
 817  1104.09
 818  1124.028
 819  1102.619
 820  948.4385
 821  885.7997
 822  951.6874
 823  1191.738
 824  1105.578
 825  952.0247
 826  1077.57
 827  1236.724
 828  1304.112
 829  1199.595
 830  1287.022
 831  1212.45
 832  1133.531
 833  1091.609
 834  1204.946
 835  1131.154
 836  1086.039
 837  1058.63
 838  1120.283
 839  1017.821
 840  1027.891
 841  1152.692
 842  1133.96
 843  1112.299
 844  1135.538
 845  1220.766
 846  1184.757
 847  1165.044
 848  1242.716
 849  1209.507
 850  1156.193
 851  1118.815
 852  1194.395
 853  1195.354
 854  1113.847
 855  1153.469
 856  1237.584
 857  1218.205
 858  1117.427
 859  1070.519
 860  1052.152
 861  1137.691
 862  1141.33
 863  1236.96
 864  1263.293
 865  1325.725
 866  1269.002
 867  1183.676
 868  1157.394
 869  1088.254
 870  1103.622
 871  1139.208
 872  1082.067
 873  1119.799
 874  1163.299
 875  1114.91
 876  1028.385
 877  1123.908
 878  1203.922
 879  1119.525
 880  1090.133
 881  1185.113
 882  1157.837
 883  1109.765
 884  1215.987
 885  1460.651
 886  1403.959
 887  1233.539
 888  1242.984
 889  1276.577
 890  1117.16
 891  953.2385
 892  1116.013
 893  1141.969
 894  1119.213
 895  1100.843
 896  1176.295
 897  1117.399
 898  1167.035
 899  1218.378
 900  1094.55
 901  1005.224
 902  952.606
 903  953.0279
 904  899.8974
 905  932.9225
 906  1128.232
 907  1244.182
 908  1161.636
 909  1199.906
 910  1214.269
 911  1253.166
 912  1171.689
 913  1292.746
 914  1328.635
 915  1328.21
 916  1359.226
 917  1310.922
 918  1207.081
 919  1135.749
 920  1070.834
 921  1121.808
 922  1054.022
 923  1077.631
 924  1053.095
 925  1105.156
 926  1129.805
 927  1208.01
 928  1307.51
 929  1302.921
 930  1173.379
 931  1186.125
 932  1267.623
 933  1272.097
 934  1309.324
 935  1245.483
 936  1354.254
 937  1238.651
 938  1195.075
 939  1134.049
 940  1158.846
 941  1080.424
 942  1137.864
 943  1154.532
 944  1236.192
 945  1140.073
 946  1310.62
 947  1262.568
 948  1206.002
 949  1107.715
 950  1267.062
 951  1310.454
 952  1271.382
 953  1239.698
 954  1288.955
 955  1194.609
 956  1074.932
 957  1147.033
 958  1253.128
 959  1159.163
 960  1135.017
 961  1141.907
 962  1133.422
 963  1050.954
 964  1137.782
 965  1081.019
 966  1052.971
 967  1102.556
 968  1213.732
 969  1282.987
 970  1329.025
 971  1477.454
 972  1414.857
 973  1320.232
 974  1217.605
 975  1363.248
 976  1347.236
 977  1261.671
 978  1207.457
 979  1281.641
 980  1179.9
 981  1191.855
 982  1222.615
 983  1242.21
 984  1146.312
 985  1076.306
 986  1152.391
 987  1038.849
 988  995.8054
 989  996.7618
 990  1096.262
 991  1075.939
 992  1047.367
 993  1045.607
 994  1211.146
 995  1220.906
 996  1283.706
 997  1229.516
 998  1243.616
 999  1285.97
1000  1263.348
1001  1277.588
1002  1183.562
1003  1259.64
1004  1451.474
1005  1535.918
1006  1497.314
1007  1093.891
1008  1016.948
1009  1052.523
1010  1143.599
1011  1346.132
1012  1423.451
1013  1486.671
1014  1296.348
1015  1256.842
1016  1124.632
1017  1056.342
1018  1186.356
1019  1272.536
1020  1133.245
1021  1017.461
1022  1162.356
1023  1322.053
