# Input file       =  1188249402.122966_cleaned.dat
# Candidate        =  PSR_0332+5434
# Telescope        =  AR
# Epoch_topo       =  57996.886818552848
# Epoch_bary       =  N/A
# T_sample         =  0.002
# Data Folded      =  7208960
# Data Avg         =  0.0875522719389252
# Data StdDev      =  3.4573203498532  
# Profile Bins     =  512
# Profile Avg      =  1232.74671947831 
# Profile StdDev   =  410.242783167781 
# Reduced chi-sqr  =  0.679
# Prob(Noise)      <  1   (~0.0 sigma)
# P_topo (ms)      =  714.463440708967  +/- 0.000325
# P'_topo (s/s)    =  -0                +/- 1.74e-10
# P''_topo (s/s^2) =  0                 +/- 7.84e-14
# P_bary (ms)      =  N/A
# P'_bary (s/s)    =  N/A
# P''_bary (s/s^2) =  N/A
# P_orb (s)        =  N/A
# asin(i)/c (s)    =  N/A
# eccentricity     =  N/A
# w (rad)          =  N/A
# T_peri           =  N/A
######################################################
   0  1694.331
   1  1297.51
   2  1264.671
   3  1338.26
   4  1186.505
   5  1332.566
   6  1138.669
   7  1285.826
   8  1195.354
   9  814.962
  10  1016.153
  11  1353.605
  12  1647.981
  13  1376.752
  14  1438.353
  15  1255.045
  16  1353.598
  17  1584.929
  18  1434.324
  19  1293.369
  20  1166.924
  21  1184.633
  22  1293.578
  23  1113.926
  24  1426.388
  25  1478
  26  1126.692
  27  942.8499
  28  1316.742
  29  1684.867
  30  1355.819
  31  1090.105
  32  1120.761
  33  1602.539
  34  1197.357
  35  620.7252
  36  938.6215
  37  1362.465
  38  1635.898
  39  1180.837
  40  906.6865
  41  1056.867
  42  849.3574
  43  1043.382
  44  891.3018
  45  1330.944
  46  1389.11
  47  1211.545
  48  1385.384
  49  1229.424
  50  1612.166
  51  1324.982
  52  1054.983
  53  1542.075
  54  1626.283
  55  1364.487
  56  1231.422
  57  1098.793
  58  1302.816
  59  1222.593
  60  1199.921
  61  1065.267
  62  1218.392
  63  1266.164
  64  1117.821
  65  1142.51
  66  946.0513
  67  1253.91
  68  1418.561
  69  1304.505
  70  1218.982
  71  943.0208
  72  1025.756
  73  1023.77
  74  1383.968
  75  1206.875
  76  1379.87
  77  1497.96
  78  1403.845
  79  1457.652
  80  1405.629
  81  1007.921
  82  1284.641
  83  1473.941
  84  1223.254
  85  1174.967
  86  1371.006
  87  1253.698
  88  1378.665
  89  1254.584
  90  1007.996
  91  1191.382
  92  1427.484
  93  1252.349
  94  1222.638
  95  1218.267
  96  1107.222
  97  772.2789
  98  1069.401
  99  1407.743
 100  1161.505
 101  1052.769
 102  932.1492
 103  950.2058
 104  901.4732
 105  1232.562
 106  1100.155
 107  724.2391
 108  1019.955
 109  1033.86
 110  851.6328
 111  858.01
 112  1301.716
 113  1112.049
 114  951.0533
 115  1268.42
 116  1071.661
 117  1132.595
 118  1187.874
 119  926.6487
 120  1141.466
 121  1373.288
 122  1285.132
 123  1360.419
 124  1466.601
 125  1380.993
 126  918.6676
 127  1011.872
 128  985.2392
 129  1297.893
 130  1211.617
 131  884.6519
 132  1074.495
 133  1164.337
 134  934.4749
 135  1027.41
 136  1254.294
 137  1307.239
 138  1306.606
 139  1288.448
 140  1360.392
 141  1670.979
 142  1764.279
 143  1551.087
 144  1141.36
 145  1223.565
 146  1435.14
 147  1355.677
 148  1280.581
 149  1119.195
 150  1376.588
 151  1574.637
 152  1234.831
 153  1179.313
 154  1109.608
 155  1062.302
 156  1042.224
 157  679.6022
 158  810.6413
 159  1358.935
 160  1464.714
 161  1262.702
 162  1091.16
 163  1194.679
 164  958.5718
 165  934.8272
 166  1381.27
 167  1318.562
 168  1314.586
 169  1286.432
 170  1030.827
 171  924.7849
 172  707.2122
 173  971.6382
 174  1406.603
 175  1345.238
 176  1120.121
 177  1282.946
 178  1359.657
 179  1259.577
 180  1325.178
 181  1314.906
 182  1116.634
 183  951.9542
 184  1015.048
 185  1325.898
 186  1427.11
 187  1428.091
 188  1159.911
 189  1094.657
 190  1378.712
 191  1255.068
 192  1129.061
 193  1032.944
 194  1021.421
 195  987.9846
 196  793.9158
 197  1109.217
 198  1352.31
 199  1289.751
 200  1093.541
 201  922.429
 202  811.4111
 203  954.4469
 204  1287.623
 205  886.7617
 206  888.2327
 207  1050.925
 208  1000.43
 209  752.4172
 210  1100.228
 211  1656.559
 212  1645.102
 213  1637.491
 214  1468.909
 215  1154.22
 216  1194.421
 217  964.9935
 218  1091.154
 219  1163.737
 220  1178.747
 221  1315.792
 222  1434.575
 223  1362.089
 224  1311.6
 225  895.0306
 226  1234.448
 227  1070.749
 228  923.9498
 229  1310.325
 230  1312.534
 231  1067.309
 232  1086.929
 233  1079.013
 234  963.8347
 235  923.4806
 236  1244.68
 237  1260.737
 238  1129.363
 239  1067.714
 240  1203.334
 241  1129.654
 242  1006.442
 243  1170.13
 244  1369.649
 245  1483.921
 246  943.3258
 247  1026.728
 248  1474.039
 249  1037.303
 250  1028.129
 251  1190.104
 252  1461.28
 253  1529.951
 254  1309.892
 255  1316.508
 256  1066.391
 257  949.2773
 258  991.2972
 259  1416.55
 260  1362.88
 261  1145.219
 262  1446.832
 263  1281.477
 264  1444.189
 265  1017.742
 266  915.4117
 267  1093.919
 268  1071.102
 269  1465.549
 270  1213.459
 271  1113.954
 272  1008.409
 273  1148.661
 274  1473.224
 275  1150.614
 276  1327.39
 277  1346.271
 278  1007.211
 279  1243.916
 280  1518.67
 281  1265.194
 282  1351.643
 283  1312.138
 284  1277.079
 285  1312.523
 286  1079.255
 287  1003.855
 288  1297.13
 289  1252.084
 290  945.82
 291  1343.56
 292  1435.989
 293  1330.652
 294  1277.699
 295  1066.467
 296  1064.763
 297  1051.646
 298  1157.47
 299  961.6281
 300  1185.85
 301  1428.92
 302  1025.398
 303  1067.326
 304  1206.573
 305  1602.982
 306  1677.002
 307  1371.887
 308  1144.74
 309  1211.936
 310  1460.307
 311  1454.192
 312  1624.312
 313  1451.167
 314  1148.259
 315  1143.004
 316  993.9354
 317  1027.317
 318  1227.309
 319  1401.009
 320  1402.424
 321  1039.628
 322  1521.98
 323  1349.239
 324  1463.263
 325  1732.478
 326  1678.411
 327  1533.46
 328  1250.492
 329  1453.917
 330  1502.372
 331  1317.415
 332  952.4988
 333  605.3542
 334  1019.667
 335  852.9756
 336  1503.214
 337  1539.634
 338  1518.806
 339  1922.281
 340  1611.845
 341  1457.369
 342  1558.03
 343  1954.289
 344  2499.103
 345  2507.413
 346  2523.792
 347  2425.501
 348  1937.368
 349  1602.449
 350  1030.338
 351  1114.68
 352  1116.439
 353  1085.108
 354  909.7869
 355  1297.681
 356  1710.106
 357  1160.815
 358  1187.948
 359  1179.403
 360  1273.329
 361  1684.87
 362  1543.963
 363  1077.797
 364  1114.982
 365  1285.832
 366  1245.928
 367  1371.985
 368  1318.402
 369  1240.561
 370  1195.917
 371  1314.026
 372  1014.118
 373  745.4558
 374  708.9648
 375  1105.48
 376  1406.353
 377  1286.606
 378  1428.671
 379  1284.061
 380  1039.855
 381  1465.542
 382  1272.31
 383  981.7737
 384  924.7916
 385  1310.671
 386  1185.152
 387  957.9244
 388  1130.632
 389  1436.424
 390  1230.38
 391  1014.292
 392  1303.265
 393  1110.465
 394  1008.221
 395  1056.448
 396  1159.842
 397  1196.841
 398  929.424
 399  1380.221
 400  1253.533
 401  1382.463
 402  1409.893
 403  1313.084
 404  1364.533
 405  1464.524
 406  1129.984
 407  736.9241
 408  1119.925
 409  1473.062
 410  1181.255
 411  1232.636
 412  1060.62
 413  1019.042
 414  1253.13
 415  1081.578
 416  1350.098
 417  961.23
 418  1103.255
 419  1073.75
 420  1314.642
 421  1346.339
 422  1077.32
 423  870.2709
 424  731.5178
 425  1181.136
 426  1065.918
 427  1320.646
 428  1414.856
 429  1233.732
 430  1198.364
 431  1185.072
 432  1262.012
 433  1353.348
 434  1153.96
 435  1203.692
 436  1095.319
 437  1439.465
 438  1333.585
 439  1079.861
 440  1357.827
 441  1613.152
 442  1314.607
 443  978.3147
 444  1202.708
 445  1470.507
 446  1359.847
 447  1556.853
 448  1209.139
 449  975.5782
 450  1430.732
 451  1258.083
 452  1280.052
 453  1325.712
 454  1625.957
 455  1372.721
 456  1153.891
 457  1165.411
 458  891.8505
 459  886.2897
 460  1001.911
 461  881.3641
 462  1138.026
 463  1413.888
 464  1350.318
 465  1255.594
 466  1844.655
 467  1462.423
 468  1444.605
 469  1436.023
 470  1285.118
 471  1235.249
 472  951.9866
 473  1130.709
 474  1199.684
 475  1232.217
 476  1589.344
 477  1317.36
 478  1165.501
 479  1078.467
 480  817.4604
 481  1068.878
 482  860.8301
 483  1411.703
 484  1112.747
 485  1232.659
 486  1364.221
 487  1154.962
 488  1300.676
 489  1081.168
 490  1345.966
 491  1197.752
 492  716.717
 493  711.7267
 494  1015.423
 495  1274.312
 496  1313.688
 497  1438.11
 498  1410.57
 499  1196.48
 500  1360.855
 501  1209.113
 502  1438.397
 503  1239.891
 504  1348.935
 505  1718.455
 506  1198.138
 507  1265.408
 508  1387.275
 509  1589.35
 510  1418.36
 511  1388.684
