# Input file       =  1188163236.117847_cleaned.dat
# Candidate        =  PSR_0332+5434
# Telescope        =  AR
# Epoch_topo       =  57995.889526826933
# Epoch_bary       =  N/A
# T_sample         =  0.002
# Data Folded      =  7143424
# Data Avg         =  0.0455161002507313
# Data StdDev      =  3.29087760019144 
# Profile Bins     =  512
# Profile Avg      =  635.032174240905 
# Profile StdDev   =  388.713803837697 
# Reduced chi-sqr  =  0.822
# Prob(Noise)      <  0.999   (~0.0 sigma)
# P_topo (ms)      =  714.463389002654  +/- 5.47e-05
# P'_topo (s/s)    =  -0                +/- 2.96e-11
# P''_topo (s/s^2) =  0                 +/- 1.34e-14
# P_bary (ms)      =  N/A
# P'_bary (s/s)    =  N/A
# P''_bary (s/s^2) =  N/A
# P_orb (s)        =  N/A
# asin(i)/c (s)    =  N/A
# eccentricity     =  N/A
# w (rad)          =  N/A
# T_peri           =  N/A
######################################################
   0  746.0633
   1  759.0216
   2  733.6467
   3  601.0923
   4  1033.605
   5  615.8806
   6  639.3091
   7  1141.805
   8  1061.468
   9  1131.741
  10  1196.75
  11  1775.012
  12  1874.279
  13  1914.396
  14  1673.353
  15  1194.712
  16  548.898
  17  375.5671
  18  783.8927
  19  701.2498
  20  1002.375
  21  958.6174
  22  607.3691
  23  555.9369
  24  803.6846
  25  1138.151
  26  934.9073
  27  628.2217
  28  695.2545
  29  526.6722
  30  658.0031
  31  548.1852
  32  501.4941
  33  945.0912
  34  843.8831
  35  891.1932
  36  725.9899
  37  873.0748
  38  851.4672
  39  855.386
  40  848.4439
  41  379.4164
  42  472.5032
  43  730.0964
  44  849.3746
  45  865.481
  46  603.3096
  47  551.8862
  48  468.8036
  49  350.4176
  50  597.0978
  51  834.4698
  52  588.1265
  53  685.9377
  54  823.4038
  55  520.9637
  56  569.7075
  57  552.6102
  58  690.5385
  59  826.0146
  60  437.5727
  61  413.621
  62  450.5486
  63  688.8613
  64  399.6001
  65  289.6466
  66  581.372
  67  434.8169
  68  509.9295
  69  981.0625
  70  818.5993
  71  962.062
  72  675.0279
  73  405.4891
  74  259.176
  75  661.6406
  76  982.2198
  77  798.2621
  78  741.7017
  79  705.1587
  80  563.8394
  81  649.1763
  82  305.5413
  83  438.6473
  84  791.3429
  85  603.5839
  86  776.6207
  87  909.5046
  88  992.7437
  89  646.5919
  90  515.1931
  91  646.4523
  92  781.3491
  93  943.3689
  94  976.6495
  95  871.875
  96  851.2633
  97  461.2472
  98  221.2906
  99  536.5334
 100  770.0526
 101  710.4714
 102  1009.966
 103  999.9855
 104  840.6672
 105  389.0262
 106  553.9028
 107  968.142
 108  965.987
 109  1101.264
 110  853.5256
 111  818.7408
 112  721.3775
 113  615.8942
 114  511.2885
 115  300.6611
 116  565.8593
 117  526.8298
 118  578.7907
 119  1073.019
 120  1285.493
 121  1001.576
 122  419.7414
 123  531.791
 124  426.5723
 125  482.8825
 126  607.7151
 127  662.6327
 128  947.1686
 129  929.3813
 130  468.7861
 131  394.3566
 132  807.2404
 133  905.2706
 134  838.3021
 135  849.4911
 136  886.7392
 137  708.1921
 138  1063.8
 139  785.8889
 140  702.8582
 141  883.5313
 142  341.0467
 143  537.5945
 144  561.9611
 145  327.5582
 146  383.8278
 147  376.1265
 148  396.9502
 149  650.6174
 150  888.6237
 151  618.9938
 152  425.8933
 153  879.3953
 154  832.2018
 155  366.9143
 156  423.0046
 157  470.5544
 158  627.7991
 159  727.2598
 160  584.3886
 161  519.4522
 162  580.2918
 163  548.0309
 164  491.7484
 165  582.0494
 166  794.3932
 167  822.9243
 168  756.5161
 169  766.7386
 170  577.3773
 171  435.3218
 172  230.9543
 173  178.9808
 174  528.5475
 175  495.5502
 176  695.9933
 177  807.2941
 178  606.9218
 179  828.3281
 180  866.4781
 181  327.5107
 182  109.9958
 183  353.5811
 184  624.1393
 185  968.8839
 186  802.774
 187  492.1327
 188  413.2922
 189  193.7314
 190  184.4958
 191  80.50644
 192  362.6684
 193  380.015
 194  444.5047
 195  671.5353
 196  638.7133
 197  327.5409
 198  877.1832
 199  487.6455
 200  262.7725
 201  531.7
 202  900.6159
 203  1081.707
 204  542.4711
 205  420.9667
 206  843.5269
 207  938.5654
 208  636.9569
 209  685.574
 210  680.9173
 211  579.7969
 212  681.1866
 213  717.9787
 214  569.7603
 215  670.6259
 216  595.5409
 217  753.2895
 218  679.8323
 219  508.3496
 220  566.9157
 221  570.6024
 222  827.3912
 223  847.5859
 224  441.1988
 225  583.1464
 226  795.191
 227  977.3316
 228  807.2667
 229  598.4185
 230  272.4352
 231  222.8384
 232  508.7159
 233  709.655
 234  780.9557
 235  805.9832
 236  889.5
 237  840.3585
 238  755.5441
 239  484.4987
 240  324.4181
 241  472.4267
 242  612.7843
 243  671.3102
 244  655.209
 245  652.1091
 246  362.7426
 247  133.7844
 248  167.151
 249  499.4024
 250  562.9609
 251  812.697
 252  983.8594
 253  690.4859
 254  439.4792
 255  174.2145
 256  219.8568
 257  96.68953
 258  631.3365
 259  850.1072
 260  693.4875
 261  538.151
 262  452.6832
 263  332.1423
 264  145.6959
 265  452.7105
 266  955.6636
 267  716.1591
 268  692.9677
 269  532.6985
 270  484.388
 271  178.1362
 272  313.4078
 273  250.7456
 274  283.4463
 275  121.3744
 276  696.1772
 277  1030.107
 278  800.5975
 279  457.3717
 280  679.6825
 281  586.1025
 282  523.2028
 283  694.4975
 284  820.5687
 285  1220.659
 286  928.4537
 287  615.9231
 288  651.2048
 289  501.1522
 290  815.3729
 291  953.9822
 292  869.3495
 293  688.0201
 294  418.479
 295  273.7701
 296  331.9826
 297  680.8149
 298  721.9818
 299  740.9017
 300  607.4005
 301  582.9357
 302  681.676
 303  755.9184
 304  663.5474
 305  625.6898
 306  198.8664
 307  511.5231
 308  386.9778
 309  418.6787
 310  592.7341
 311  578.6614
 312  443.7535
 313  201.083
 314  313.7965
 315  740.8393
 316  1157.619
 317  960.2756
 318  684.8258
 319  675.4094
 320  276.1619
 321  395.9663
 322  223.2303
 323  432.2662
 324  437.4392
 325  572.4958
 326  430.3432
 327  246.0209
 328  87.83873
 329  213.3
 330  434.5951
 331  418.993
 332  425.7909
 333  669.3304
 334  889.3422
 335  928.4825
 336  601.4412
 337  497.4178
 338  344.978
 339  91.42329
 340  515.3744
 341  719.4673
 342  656.6677
 343  631.6416
 344  340.8854
 345  354.7822
 346  186.0111
 347  756.1332
 348  381.7978
 349  313.2211
 350  630.2466
 351  812.978
 352  995.3104
 353  565.767
 354  404.3675
 355  339.7003
 356  254.6655
 357  501.7612
 358  531.554
 359  404.9732
 360  419.9193
 361  565.9451
 362  641.389
 363  470.0326
 364  525.8718
 365  403.6091
 366  580.9733
 367  751.1352
 368  819.2216
 369  818.9131
 370  679.8314
 371  536.8718
 372  223.3334
 373  217.3727
 374  222.478
 375  541.7167
 376  919.2449
 377  844.226
 378  437.3025
 379  428.3145
 380  713.0495
 381  932.809
 382  998.458
 383  989.9103
 384  896.2274
 385  651.6594
 386  809.3568
 387  610.7532
 388  733.315
 389  442.0585
 390  835.5007
 391  803.199
 392  206.56
 393  403.3806
 394  518.8812
 395  469.4099
 396  377.8646
 397  152.8247
 398  624.5062
 399  1080.075
 400  1362.076
 401  1033.062
 402  709.8089
 403  581.476
 404  394.1061
 405  450.167
 406  753.6443
 407  913.8084
 408  763.2596
 409  887.5628
 410  708.9399
 411  275.269
 412  406.2318
 413  378.5091
 414  164.6536
 415  444.7667
 416  733.4647
 417  842.2286
 418  722.3929
 419  830.0496
 420  270.6737
 421  162.3243
 422  466.6167
 423  534.2954
 424  663.3177
 425  522.4529
 426  421.2126
 427  700.1146
 428  583.1483
 429  527.2695
 430  479.1878
 431  630.2277
 432  746.0098
 433  780.511
 434  942.6566
 435  440.3628
 436  299.9393
 437  456.0133
 438  592.0753
 439  822.3334
 440  927.9003
 441  774.5308
 442  639.6651
 443  441.4862
 444  386.4538
 445  239.5474
 446  592.8289
 447  592.9964
 448  746.7502
 449  697.3103
 450  687.3846
 451  810.7915
 452  797.9378
 453  597.7905
 454  798.4493
 455  735.2825
 456  527.7974
 457  546.1649
 458  791.2117
 459  911.0862
 460  878.8405
 461  524.7168
 462  551.0116
 463  950.3319
 464  978.4313
 465  604.0918
 466  694.8048
 467  805.2399
 468  445.7426
 469  508.5141
 470  662.6198
 471  714.218
 472  1169.625
 473  929.9648
 474  826.6179
 475  905.2104
 476  668.3808
 477  782.3671
 478  339.1517
 479  472.6616
 480  543.3735
 481  456.5979
 482  625.9694
 483  679.847
 484  625.475
 485  734.8802
 486  699.9587
 487  537.0283
 488  661.4922
 489  373.5055
 490  335.3255
 491  553.9352
 492  515.0502
 493  640.3188
 494  657.7733
 495  530.182
 496  553.5453
 497  535.7692
 498  736.9539
 499  787.0913
 500  465.6406
 501  634.4194
 502  708.5748
 503  852.277
 504  516.3413
 505  707.1183
 506  784.3839
 507  976.8982
 508  1266.592
 509  915.9915
 510  347.2165
 511  431.2408
