# Input file       =  1188436404.113469_cleaned.dat
# Candidate        =  PSR_0332+5434
# Telescope        =  AR
# Epoch_topo       =  57999.051193442931
# Epoch_bary       =  N/A
# T_sample         =  0.002
# Data Folded      =  7340032
# Data Avg         =  0.0195276022745279
# Data StdDev      =  2.35439591838612 
# Profile Bins     =  1024
# Profile Avg      =  139.956190275779 
# Profile StdDev   =  199.332674810726 
# Reduced chi-sqr  =  1.094
# Prob(Noise)      <  0.0193   (~2.1 sigma)
# P_topo (ms)      =  714.463622708772  +/- 0.000154
# P'_topo (s/s)    =  -0                +/- 8.1e-11
# P''_topo (s/s^2) =  0                 +/- 3.58e-14
# P_bary (ms)      =  N/A
# P'_bary (s/s)    =  N/A
# P''_bary (s/s^2) =  N/A
# P_orb (s)        =  N/A
# asin(i)/c (s)    =  N/A
# eccentricity     =  N/A
# w (rad)          =  N/A
# T_peri           =  N/A
######################################################
   0  249.5358
   1  277.4926
   2  181.817
   3  173.3698
   4  227.6033
   5  364.3666
   6  337.7753
   7  259.4663
   8  166.4956
   9  30.36484
  10  -24.98506
  11  28.60065
  12  184.6964
  13  240.7955
  14  260.9469
  15  249.5269
  16  165.8006
  17  66.93463
  18  121.5808
  19  187.2297
  20  218.5232
  21  162.7694
  22  85.87956
  23  39.68987
  24  54.43444
  25  160.0322
  26  201.4316
  27  292.9819
  28  316.6898
  29  286.6405
  30  215.5096
  31  220.3925
  32  133.9743
  33  77.20275
  34  10.08746
  35  123.5502
  36  102.2419
  37  136.4361
  38  187.7508
  39  159.1069
  40  49.44834
  41  35.28777
  42  17.158
  43  102.4026
  44  96.17236
  45  143.9091
  46  153.0763
  47  141.2365
  48  98.37869
  49  103.1166
  50  83.55782
  51  27.54665
  52  -12.15181
  53  61.51635
  54  76.23318
  55  5.996854
  56  -20.8103
  57  17.83897
  58  146.5544
  59  58.42134
  60  71.45533
  61  24.44993
  62  34.91721
  63  -20.11772
  64  -9.052126
  65  135.2107
  66  182.5195
  67  168.165
  68  112.2786
  69  148.8922
  70  298.7308
  71  332.8582
  72  302.796
  73  262.1741
  74  106.4782
  75  -56.55641
  76  -79.94627
  77  65.3922
  78  253.0955
  79  330.8071
  80  386.987
  81  299.5975
  82  187.2738
  83  104.7697
  84  96.54919
  85  182.6652
  86  213.4624
  87  178.2897
  88  79.88821
  89  116.346
  90  169.8794
  91  164.266
  92  59.78918
  93  55.15845
  94  129.9739
  95  239.9485
  96  246.1787
  97  256.0901
  98  249.9319
  99  246.8517
 100  239.2063
 101  173.1122
 102  51.21998
 103  5.486235
 104  30.84901
 105  77.49494
 106  137.001
 107  203.4744
 108  153.1692
 109  41.73817
 110  41.0136
 111  155.6241
 112  241.7932
 113  255.8349
 114  268.0533
 115  264.2325
 116  156.0546
 117  75.38352
 118  96.22394
 119  200.2651
 120  132.7074
 121  43.46064
 122  -37.53278
 123  -0.6117247
 124  -2.527045
 125  41.97221
 126  145.9574
 127  129.7974
 128  50.77957
 129  42.75573
 130  96.107
 131  134.7299
 132  71.76885
 133  59.55338
 134  94.56397
 135  122.6897
 136  132.0523
 137  160.6894
 138  142.5519
 139  168.6104
 140  152.8995
 141  70.51455
 142  -12.87036
 143  -62.63445
 144  23.56019
 145  45.6744
 146  104.1794
 147  169.1086
 148  175.4551
 149  236.1746
 150  302.687
 151  286.1608
 152  96.04924
 153  5.000648
 154  37.50173
 155  130.2546
 156  93.15145
 157  113.1001
 158  174.566
 159  221.5901
 160  180.0814
 161  152.3554
 162  162.2919
 163  94.67731
 164  96.06812
 165  49.71182
 166  69.89861
 167  63.74472
 168  34.77432
 169  109.8521
 170  80.20141
 171  22.91413
 172  37.03812
 173  47.1926
 174  124.6146
 175  28.31525
 176  30.43997
 177  -17.53151
 178  -42.61764
 179  64.13338
 180  123.0004
 181  115.1398
 182  119.8297
 183  311.3008
 184  304.7072
 185  188.7914
 186  75.20918
 187  136.2634
 188  42.9763
 189  -1.155534
 190  -60.52536
 191  97.60266
 192  180.4183
 193  106.358
 194  28.63967
 195  -45.50865
 196  22.77571
 197  28.78782
 198  21.18977
 199  99.07133
 200  127.9249
 201  165.7403
 202  43.29337
 203  -1.498995
 204  67.34113
 205  126.3055
 206  195.413
 207  179.9819
 208  205.2839
 209  196.3125
 210  86.70333
 211  -22.57244
 212  -123.9572
 213  -160.0066
 214  -32.82665
 215  80.03613
 216  160.7582
 217  176.2581
 218  114.2752
 219  152.8936
 220  62.74492
 221  168.7402
 222  119.6453
 223  245.8734
 224  198.435
 225  185.0774
 226  141.2367
 227  140.7251
 228  80.91573
 229  24.11566
 230  84.23963
 231  143.6
 232  115.3075
 233  126.5345
 234  68.47491
 235  166.1875
 236  215.6024
 237  278.2766
 238  148.5938
 239  110.1965
 240  95.71227
 241  130.5533
 242  12.86147
 243  -25.20077
 244  -55.95429
 245  27.94769
 246  188.0521
 247  264.8836
 248  252.5013
 249  119.0402
 250  11.67716
 251  64.8034
 252  108.1403
 253  67.87656
 254  43.05214
 255  40.1851
 256  47.75441
 257  -55.85442
 258  -24.4613
 259  144.6398
 260  305.6485
 261  317.3891
 262  257.1992
 263  208.221
 264  130.6293
 265  252.153
 266  245.8265
 267  275.1213
 268  157.1132
 269  216.7916
 270  238.8133
 271  108.8992
 272  -28.09801
 273  7.587992
 274  141.7828
 275  112.5978
 276  12.72044
 277  10.01434
 278  79.26051
 279  118.4354
 280  129.6491
 281  202.3996
 282  189.8638
 283  113.3596
 284  45.66006
 285  73.45522
 286  61.98943
 287  123.7829
 288  149.0218
 289  104.9117
 290  -21.84101
 291  -13.69025
 292  37.62151
 293  30.53732
 294  33.20266
 295  164.8463
 296  279.4638
 297  200.8189
 298  99.09512
 299  -17.99272
 300  -54.96633
 301  -90.69179
 302  -15.89858
 303  69.5222
 304  63.11825
 305  30.86196
 306  85.70047
 307  129.1315
 308  90.26445
 309  77.36095
 310  195.2834
 311  268.5208
 312  227.2873
 313  157.1553
 314  215.9028
 315  187.2803
 316  104.8566
 317  67.02204
 318  85.03281
 319  99.13064
 320  153.468
 321  96.18976
 322  85.01855
 323  -37.79392
 324  68.16079
 325  -14.79431
 326  107.8722
 327  162.4133
 328  305.5679
 329  276.4477
 330  201.7542
 331  143.2088
 332  137.8567
 333  181.0573
 334  137.2853
 335  130.8092
 336  186.9683
 337  197.052
 338  172.5548
 339  143.2129
 340  117.0132
 341  161.2556
 342  225.7478
 343  327.0299
 344  232.3984
 345  173.5068
 346  131.7262
 347  143.4104
 348  81.86667
 349  95.27024
 350  152.5618
 351  111.3868
 352  89.00773
 353  61.46617
 354  85.5521
 355  89.14943
 356  124.7449
 357  173.1852
 358  158.2694
 359  148.1003
 360  201.1383
 361  281.9901
 362  287.0757
 363  260.2915
 364  184.9284
 365  190.5066
 366  164.4252
 367  155.2103
 368  216.8742
 369  317.9726
 370  384.1135
 371  255.3729
 372  102.3853
 373  82.92488
 374  -6.9163
 375  -1.007939
 376  -0.9887006
 377  124.1492
 378  282.9097
 379  249.0329
 380  261.0582
 381  242.3186
 382  211.8433
 383  55.98136
 384  -19.83951
 385  76.84666
 386  195.0785
 387  280.7484
 388  294.9658
 389  329.6665
 390  224.0021
 391  228.3048
 392  311.1443
 393  314.8033
 394  260.1871
 395  217.4388
 396  260.3135
 397  151.93
 398  16.53759
 399  2.894208
 400  127.2383
 401  131.4743
 402  197.6475
 403  183.5168
 404  234.4911
 405  139.9169
 406  194.4973
 407  273.7834
 408  278.8437
 409  170.8138
 410  121.0314
 411  247.1414
 412  315.4596
 413  415.6078
 414  396.7264
 415  352.5288
 416  285.9596
 417  231.4555
 418  270.3215
 419  256.137
 420  247.3893
 421  247.6745
 422  266.9144
 423  279.5334
 424  172.7189
 425  88.59829
 426  35.29333
 427  85.66593
 428  90.2887
 429  188.5924
 430  197.7964
 431  222.7728
 432  112.8047
 433  145.9203
 434  217.3175
 435  289.9946
 436  246.0155
 437  47.59715
 438  -33.30999
 439  -45.24279
 440  136.1795
 441  167.9005
 442  188.4255
 443  102.487
 444  128.726
 445  245.368
 446  322.262
 447  361.4771
 448  266.1814
 449  209.5925
 450  95.21053
 451  66.41419
 452  -17.79739
 453  99.98277
 454  160.4545
 455  289.107
 456  153.4301
 457  42.10628
 458  74.38669
 459  117.9415
 460  143.1556
 461  103.0813
 462  53.73279
 463  -57.34416
 464  -51.43204
 465  46.95731
 466  197.3215
 467  194.1097
 468  218.6801
 469  177.232
 470  109.9599
 471  26.70325
 472  -14.40423
 473  19.91591
 474  108.0188
 475  115.2975
 476  140.2269
 477  133.9709
 478  43.79814
 479  -2.336474
 480  28.71552
 481  153.3476
 482  182.7791
 483  154.0665
 484  161.555
 485  118.477
 486  45.79385
 487  8.238387
 488  6.719149
 489  89.28977
 490  209.8478
 491  210.481
 492  214.3383
 493  111.3762
 494  162.9618
 495  160.3268
 496  196.1041
 497  199.2331
 498  194.3313
 499  175.5176
 500  165.3502
 501  118.1683
 502  75.97694
 503  62.85175
 504  110.0185
 505  232.0111
 506  208.7621
 507  203.1615
 508  137.0564
 509  122.6656
 510  136.747
 511  237.1819
 512  279.4083
 513  81.14589
 514  -5.960488
 515  13.48086
 516  169.2276
 517  193.6423
 518  62.31886
 519  15.9205
 520  -8.749863
 521  66.41092
 522  97.63277
 523  115.7001
 524  257.2216
 525  347.4989
 526  443.5208
 527  420.4214
 528  287.1373
 529  208.9417
 530  119.5004
 531  158.6531
 532  118.1485
 533  127.9275
 534  34.53124
 535  96.63428
 536  112.5273
 537  112.3093
 538  5.794291
 539  23.4927
 540  53.16579
 541  159.7599
 542  185.3354
 543  220.9796
 544  169.1166
 545  134.1425
 546  52.05423
 547  85.88659
 548  28.61536
 549  68.47658
 550  63.17572
 551  162.8897
 552  182.8454
 553  163.1812
 554  209.3558
 555  177.8006
 556  60.98597
 557  -8.706282
 558  50.53337
 559  162.4915
 560  225.6689
 561  209.3392
 562  114.617
 563  10.29469
 564  144.4192
 565  214.7043
 566  217.0917
 567  46.56969
 568  4.999478
 569  12.24408
 570  46.87117
 571  13.45855
 572  27.87389
 573  70.11134
 574  223.2526
 575  229.4284
 576  234.7269
 577  94.99754
 578  108.3956
 579  123.46
 580  171.1559
 581  105.0118
 582  -42.13699
 583  -134.2184
 584  -76.69556
 585  -9.124537
 586  83.90022
 587  90.3903
 588  97.39339
 589  91.35807
 590  146.2114
 591  194.6226
 592  170.5021
 593  123.8535
 594  165.0379
 595  156.1595
 596  87.68724
 597  4.279425
 598  -28.02911
 599  -3.234147
 600  51.28221
 601  -9.386329
 602  -36.78473
 603  -0.4841464
 604  111.418
 605  118.0288
 606  171.2318
 607  212.2325
 608  167.0875
 609  85.25687
 610  -61.50402
 611  -69.72546
 612  20.73878
 613  212.3081
 614  293.5564
 615  195.8688
 616  187.7973
 617  207.7897
 618  185.5498
 619  91.84502
 620  10.52909
 621  83.99989
 622  110.7274
 623  135.5473
 624  132.7147
 625  191.7677
 626  141.7179
 627  102.9554
 628  10.56069
 629  -29.99033
 630  -143.0946
 631  -48.39503
 632  160.4032
 633  263.5227
 634  314.4799
 635  317.7997
 636  359.1254
 637  336.0065
 638  389.9755
 639  493.2466
 640  474.761
 641  417.8241
 642  478.1546
 643  686.3436
 644  726.3865
 645  733.68
 646  788.5146
 647  830.3689
 648  673.2675
 649  520.7963
 650  336.3268
 651  261.7317
 652  228.1599
 653  241.1688
 654  228.1729
 655  167.5961
 656  160.2698
 657  188.48
 658  135.1599
 659  99.34443
 660  -19.73281
 661  -24.29331
 662  57.06613
 663  114.0823
 664  139.2301
 665  17.22485
 666  4.74652
 667  39.1672
 668  102.3527
 669  163.1666
 670  229.7615
 671  275.8036
 672  278.3476
 673  272.6933
 674  257.0622
 675  241.2307
 676  216.7554
 677  161.7189
 678  92.80442
 679  167.2466
 680  233.7075
 681  210.5317
 682  176.8944
 683  221.7834
 684  276.0864
 685  323.3155
 686  304.1869
 687  254.2782
 688  188.4111
 689  153.1822
 690  197.6843
 691  189.1871
 692  194.9928
 693  143.0642
 694  101.0513
 695  220.1204
 696  276.5995
 697  340.046
 698  230.7093
 699  158.0788
 700  70.27348
 701  50.92432
 702  88.59514
 703  27.92526
 704  -59.48548
 705  -87.26132
 706  14.13922
 707  65.76749
 708  16.98171
 709  52.85266
 710  142.1596
 711  344.7643
 712  320.254
 713  184.9473
 714  30.41273
 715  22.54604
 716  42.99531
 717  46.53463
 718  75.35353
 719  156.7791
 720  148.7852
 721  161.5317
 722  182.4641
 723  298.6642
 724  295.6017
 725  284.8607
 726  161.8228
 727  101.5422
 728  156.4491
 729  189.2113
 730  201.7799
 731  244.0906
 732  281.0565
 733  224.3424
 734  170.8784
 735  78.26458
 736  93.17232
 737  27.31075
 738  28.02455
 739  40.21618
 740  89.97163
 741  144.3039
 742  269.4548
 743  421.1601
 744  480.5714
 745  421.5869
 746  384.7269
 747  356.1987
 748  226.6222
 749  212.1433
 750  138.2452
 751  128.1563
 752  48.52397
 753  16.03998
 754  156.6128
 755  158.7757
 756  209.738
 757  175.799
 758  242.6994
 759  308.6676
 760  316.3582
 761  253.3301
 762  199.6178
 763  177.3665
 764  236.9747
 765  258.1327
 766  345.4729
 767  363.7038
 768  425.7254
 769  477.1562
 770  437.4483
 771  315.7734
 772  182.3139
 773  119.301
 774  96.18088
 775  -7.005449
 776  8.61799
 777  40.50684
 778  154.038
 779  144.8392
 780  137.4529
 781  162.0594
 782  197.7672
 783  250.3793
 784  189.2184
 785  80.12083
 786  45.35485
 787  111.152
 788  180.0444
 789  136.2168
 790  95.29149
 791  -15.31679
 792  32.91016
 793  51.25583
 794  179.1501
 795  235.6122
 796  255.6989
 797  96.46233
 798  14.33359
 799  20.62933
 800  129.9326
 801  169.8412
 802  167.6261
 803  44.86728
 804  5.356877
 805  76.99566
 806  226.4062
 807  146.353
 808  51.68709
 809  -24.95417
 810  89.34756
 811  218.0386
 812  279.5944
 813  313.7743
 814  209.7434
 815  133.0729
 816  1.030166
 817  -27.2734
 818  -38.93496
 819  39.99459
 820  91.05899
 821  30.64511
 822  29.0066
 823  111.9929
 824  130.8765
 825  107.3434
 826  20.10109
 827  92.59591
 828  112.021
 829  180.5979
 830  131.1321
 831  110.2921
 832  53.27343
 833  -4.908589
 834  -65.54173
 835  -65.0823
 836  24.39211
 837  99.28288
 838  207.0478
 839  205.8901
 840  177.2317
 841  -15.38457
 842  -81.01946
 843  -125.0617
 844  -16.12364
 845  46.34427
 846  49.54646
 847  112.2648
 848  99.98228
 849  153.8931
 850  66.51756
 851  82.62785
 852  133.4707
 853  171.1311
 854  320.0312
 855  197.5896
 856  93.65076
 857  26.89224
 858  118.4168
 859  113.3242
 860  71.10371
 861  76.66381
 862  70.0397
 863  137.4314
 864  207.9357
 865  232.659
 866  198.0464
 867  103.7802
 868  92.69689
 869  48.1287
 870  -36.95647
 871  -67.30899
 872  17.50573
 873  155.6269
 874  159.3123
 875  129.2059
 876  69.44005
 877  41.47361
 878  60.88903
 879  153.2818
 880  243.0581
 881  234.5531
 882  182.2625
 883  104.1488
 884  23.64387
 885  -1.601786
 886  -37.16242
 887  79.81268
 888  137.6555
 889  242.8941
 890  237.1183
 891  265.4764
 892  239.7721
 893  218.7696
 894  164.2898
 895  153.6273
 896  137.3935
 897  117.1833
 898  99.24167
 899  81.10849
 900  89.37169
 901  102.979
 902  215.3492
 903  177.9332
 904  39.53063
 905  -114.4233
 906  2.90909
 907  49.76023
 908  200.7704
 909  234.374
 910  226.8041
 911  127.8442
 912  128.0152
 913  203.6192
 914  267.5865
 915  346.6172
 916  363.7649
 917  277.8636
 918  211.5327
 919  197.6572
 920  176.9671
 921  69.04557
 922  126.7553
 923  164.146
 924  183.248
 925  156.5064
 926  206.4367
 927  175.4529
 928  78.25828
 929  90.74249
 930  152.2197
 931  25.46964
 932  -112.6212
 933  -147.4009
 934  7.928351
 935  35.96389
 936  49.08903
 937  8.968821
 938  -25.6807
 939  -61.27132
 940  -68.41451
 941  19.82764
 942  102.3772
 943  81.73952
 944  114.1301
 945  178.9858
 946  183.8435
 947  130.3128
 948  109.3088
 949  197.3477
 950  167.7398
 951  97.02128
 952  26.54521
 953  41.82488
 954  50.42721
 955  121.7849
 956  155.7956
 957  219.6083
 958  242.5726
 959  331.4647
 960  347.5717
 961  329.2945
 962  165.7602
 963  103.1328
 964  101.6142
 965  175.6198
 966  118.5108
 967  119.6112
 968  247.7124
 969  305.9644
 970  331.7924
 971  268.036
 972  268.665
 973  233.0255
 974  215.3918
 975  242.3791
 976  234.1794
 977  72.20505
 978  -40.45625
 979  -106.0209
 980  69.28665
 981  89.82151
 982  120.0198
 983  37.42096
 984  41.93597
 985  -29.26219
 986  -75.44358
 987  25.86316
 988  136.9989
 989  173.8478
 990  142.362
 991  145.2571
 992  88.72246
 993  38.55578
 994  83.70156
 995  194.8544
 996  336.9148
 997  300.7317
 998  275.4471
 999  131.2397
1000  96.30829
1001  12.58702
1002  90.23588
1003  131.2193
1004  194.8093
1005  219.5567
1006  239.0986
1007  202.839
1008  78.51726
1009  24.01801
1010  -38.22618
1011  -6.645095
1012  31.19872
1013  154.0688
1014  116.5246
1015  126.0082
1016  226.6562
1017  331.3662
1018  321.5158
1019  158.0964
1020  107.0369
1021  39.68117
1022  97.40589
1023  142.2373
