# Input file       =  1188608650.106318_cleaned.dat
# Candidate        =  PSR_0332+5434
# Telescope        =  AR
# Epoch_topo       =  58001.044781323122
# Epoch_bary       =  N/A
# T_sample         =  0.002
# Data Folded      =  7340032
# Data Avg         =  0.0183720925134757
# Data StdDev      =  2.47114409810827 
# Profile Bins     =  1024
# Profile Avg      =  131.663828767414 
# Profile StdDev   =  209.217047596784 
# Reduced chi-sqr  =  1.186
# Prob(Noise)      <  3.4e-05   (~4.0 sigma)
# P_topo (ms)      =  714.463841861104  +/- 0.000243
# P'_topo (s/s)    =  -0                +/- 1.28e-10
# P''_topo (s/s^2) =  0                 +/- 5.65e-14
# P_bary (ms)      =  N/A
# P'_bary (s/s)    =  N/A
# P''_bary (s/s^2) =  N/A
# P_orb (s)        =  N/A
# asin(i)/c (s)    =  N/A
# eccentricity     =  N/A
# w (rad)          =  N/A
# T_peri           =  N/A
######################################################
   0  149.2172
   1  285.7001
   2  258.0836
   3  213.917
   4  207.4292
   5  364.9093
   6  374.739
   7  375.4179
   8  152.0239
   9  127.84
  10  54.14196
  11  228.7829
  12  239.8823
  13  212.1833
  14  215.7912
  15  216.6339
  16  165.6443
  17  70.15172
  18  30.74487
  19  168.9382
  20  259.9452
  21  399.4787
  22  401.2339
  23  446.1075
  24  342.0438
  25  184.3398
  26  111.2213
  27  118.0401
  28  142.6998
  29  82.05109
  30  56.57411
  31  24.43142
  32  121.5837
  33  229.1289
  34  347.6509
  35  354.7164
  36  302.6165
  37  233.2754
  38  184.9087
  39  131.3986
  40  228.795
  41  317.6126
  42  379.9701
  43  308.7355
  44  221.6331
  45  121.2583
  46  160.6722
  47  85.30242
  48  98.69987
  49  86.69555
  50  143.247
  51  163.9675
  52  216.1448
  53  230.1215
  54  137.0572
  55  113.4878
  56  75.90513
  57  197.0686
  58  103.7386
  59  90.67229
  60  51.79348
  61  107.1573
  62  43.82826
  63  11.38233
  64  201.5833
  65  398.0214
  66  368.9889
  67  226.7274
  68  134.4082
  69  65.4573
  70  12.47087
  71  11.31951
  72  83.47265
  73  245.9993
  74  246.491
  75  263.5418
  76  231.9411
  77  189.8584
  78  -3.67487
  79  -43.32544
  80  139.3211
  81  250.5188
  82  190.1428
  83  71.76325
  84  0.3252664
  85  35.17467
  86  14.89959
  87  42.38435
  88  115.8895
  89  234.0909
  90  267.8212
  91  218.8625
  92  125.3581
  93  42.62657
  94  0.02502375
  95  74.59132
  96  125.9249
  97  120.2086
  98  184.5087
  99  229.8204
 100  341.4211
 101  336.5298
 102  208.8224
 103  135.0142
 104  129.4117
 105  90.44896
 106  174.6939
 107  240.8206
 108  264.5757
 109  123.7469
 110  148.9699
 111  354.3232
 112  329.8596
 113  175.6134
 114  24.06574
 115  137.3168
 116  163.244
 117  224.8018
 118  253.1753
 119  270.3446
 120  214.5659
 121  218.1126
 122  217.1919
 123  257.3411
 124  189.606
 125  121.729
 126  78.20423
 127  47.37497
 128  100.3855
 129  63.66486
 130  36.15786
 131  65.46946
 132  115.8609
 133  30.84117
 134  -7.035849
 135  30.48648
 136  96.61837
 137  79.72726
 138  16.71788
 139  105.9513
 140  49.10973
 141  77.54322
 142  -113.0112
 143  -73.93809
 144  -97.28282
 145  -55.59444
 146  -92.84679
 147  -46.36472
 148  189.4463
 149  301.2286
 150  325.2827
 151  150.1102
 152  27.24943
 153  -45.12034
 154  150.0709
 155  211.0314
 156  247.2055
 157  28.69194
 158  -74.4528
 159  -91.33826
 160  9.24285
 161  176.3618
 162  213.213
 163  233.5253
 164  227.5738
 165  282.1626
 166  297.9439
 167  331.9788
 168  190.3247
 169  139.5132
 170  120.4073
 171  174.2728
 172  160.1519
 173  62.09575
 174  82.87621
 175  145.5615
 176  187.7822
 177  167.5869
 178  89.82578
 179  -38.60415
 180  -143.3006
 181  -74.86646
 182  -12.3308
 183  -49.50516
 184  -21.0807
 185  77.97605
 186  158.9922
 187  144.5018
 188  154.9419
 189  103.9476
 190  111.4201
 191  104.9854
 192  66.81725
 193  16.86994
 194  -8.572673
 195  89.17302
 196  89.41534
 197  52.50217
 198  11.97772
 199  149.7158
 200  232.7746
 201  311.7428
 202  264.9945
 203  109.6138
 204  7.745591
 205  2.881766
 206  77.54467
 207  21.22702
 208  70.09988
 209  94.36042
 210  137.151
 211  81.61128
 212  68.11701
 213  118.0444
 214  162.3929
 215  189.6021
 216  188.428
 217  196.4067
 218  96.15366
 219  193.7446
 220  236.9875
 221  316.5976
 222  166.7065
 223  70.68808
 224  -37.52633
 225  -9.775303
 226  72.9527
 227  43.68548
 228  -4.629707
 229  63.07974
 230  175.5123
 231  174.9806
 232  173.75
 233  111.991
 234  157.7947
 235  177.9276
 236  221.5465
 237  179.4035
 238  188.8018
 239  176.497
 240  161.6694
 241  101.8858
 242  111.5106
 243  106.2485
 244  24.0879
 245  -8.208758
 246  53.87562
 247  150.1926
 248  132.3832
 249  102.2474
 250  47.738
 251  72.06542
 252  31.63843
 253  26.00537
 254  -7.155719
 255  65.23472
 256  191.5882
 257  131.0258
 258  124.481
 259  213.1135
 260  282.7322
 261  202.5608
 262  174.3089
 263  234.0731
 264  260.9582
 265  155.8973
 266  55.64928
 267  40.42251
 268  153.4921
 269  204.7556
 270  106.6312
 271  32.08069
 272  67.03265
 273  219.2277
 274  228.6079
 275  161.6959
 276  16.88208
 277  90.3392
 278  127.2144
 279  163.1484
 280  162.9695
 281  129.7861
 282  95.18583
 283  -89.66472
 284  -110.3954
 285  -49.81158
 286  27.37412
 287  173.9025
 288  86.26501
 289  125.3138
 290  145.3589
 291  148.2635
 292  78.13016
 293  -26.60066
 294  54.58994
 295  76.20022
 296  143.4209
 297  104.2525
 298  164.0911
 299  179.3727
 300  205.2855
 301  155.3405
 302  21.70903
 303  2.008204
 304  11.32387
 305  133.5364
 306  219.2483
 307  316.0661
 308  358.702
 309  253.2007
 310  72.94871
 311  35.55759
 312  134.0357
 313  179.6157
 314  142.6543
 315  170.1101
 316  99.43988
 317  -9.243334
 318  -92.26493
 319  20.54356
 320  46.40355
 321  91.2216
 322  22.69328
 323  69.3121
 324  89.18204
 325  141.9122
 326  183.4267
 327  126.9556
 328  107.5613
 329  95.02762
 330  132.007
 331  184.0112
 332  236.6539
 333  331.5162
 334  280.2614
 335  154.2836
 336  141.4628
 337  213.9965
 338  307.8849
 339  284.267
 340  211.5393
 341  81.61662
 342  27.3228
 343  51.62151
 344  135.614
 345  101.1603
 346  122.5332
 347  130.0264
 348  95.44096
 349  138.3865
 350  171.3901
 351  205.7605
 352  125.7822
 353  115.3114
 354  140.1699
 355  176.1036
 356  202.4423
 357  284.4069
 358  210.5139
 359  125.0126
 360  40.12275
 361  115.1228
 362  178.3817
 363  171.7182
 364  188.9158
 365  62.12067
 366  81.64469
 367  85.47993
 368  133.808
 369  115.0455
 370  13.61567
 371  11.47109
 372  -72.5266
 373  -76.68188
 374  27.20623
 375  118.3772
 376  246.6909
 377  201.0175
 378  172.3775
 379  195.8505
 380  144.4264
 381  105.4719
 382  90.6757
 383  208.2614
 384  252.9875
 385  135.4071
 386  150.8294
 387  156.8947
 388  164.7536
 389  103.6184
 390  77.63422
 391  21.11803
 392  79.61578
 393  120.5321
 394  259.6289
 395  195.4747
 396  206.4541
 397  177.2262
 398  200.0529
 399  144.3322
 400  99.51363
 401  70.20686
 402  58.90897
 403  22.22801
 404  49.83988
 405  93.18396
 406  165.0622
 407  208.5569
 408  134.1387
 409  113.5722
 410  88.27615
 411  151.0099
 412  120.1571
 413  140.7991
 414  176.6982
 415  257.2643
 416  286.1807
 417  269.4444
 418  189.4023
 419  120.5003
 420  132.2009
 421  83.60223
 422  7.334983
 423  -50.34827
 424  -27.63655
 425  -34.61021
 426  -34.3328
 427  54.98569
 428  188.3357
 429  207.8593
 430  121.6498
 431  0.2113208
 432  35.95485
 433  130.3436
 434  193.1704
 435  161.2914
 436  46.68869
 437  21.64368
 438  102.4623
 439  242.9545
 440  267.4494
 441  223.3179
 442  154.558
 443  110.1054
 444  129.0114
 445  224.703
 446  297.4824
 447  308.6324
 448  188.249
 449  130.9752
 450  93.50771
 451  178.8231
 452  246.0998
 453  193.6086
 454  178.6319
 455  135.2099
 456  112.3256
 457  51.82054
 458  59.73576
 459  149.9888
 460  184.122
 461  155.8879
 462  104.6585
 463  99.61604
 464  136.6049
 465  195.53
 466  98.42358
 467  10.01822
 468  -62.16742
 469  70.492
 470  150.3903
 471  104.681
 472  57.44087
 473  65.96705
 474  71.99257
 475  44.23875
 476  9.566684
 477  35.96256
 478  59.33597
 479  110.6017
 480  213.7858
 481  116.7421
 482  83.94453
 483  -8.949645
 484  122.4747
 485  150.058
 486  185.9359
 487  176.6822
 488  175.3241
 489  128.8421
 490  155.7238
 491  186.4386
 492  255.5237
 493  285.7785
 494  196.073
 495  84.27828
 496  43.06923
 497  76.64856
 498  115.7977
 499  151.2345
 500  166.6886
 501  62.44063
 502  32.10528
 503  53.34241
 504  183.549
 505  174.0126
 506  163.614
 507  76.88035
 508  66.71658
 509  85.38055
 510  153.4544
 511  176.8775
 512  209.9098
 513  225.1061
 514  167.6244
 515  46.34201
 516  -32.99705
 517  -25.49381
 518  10.31879
 519  36.3908
 520  45.14205
 521  -5.706995
 522  51.67333
 523  191.3329
 524  274.4296
 525  297.2124
 526  317.1877
 527  327.4604
 528  281.2464
 529  168.371
 530  126.0835
 531  63.33026
 532  98.88818
 533  218.8451
 534  188.9275
 535  158.5358
 536  144.269
 537  229.8643
 538  232.3717
 539  248.3523
 540  221.448
 541  188.395
 542  106.8882
 543  74.70135
 544  48.48564
 545  -20.70194
 546  12.08795
 547  135.6914
 548  230.7284
 549  213.0656
 550  126.9516
 551  142.0275
 552  55.61322
 553  66.57216
 554  130.5868
 555  164.8445
 556  93.87112
 557  2.330829
 558  24.30968
 559  33.01801
 560  -63.43477
 561  -95.00488
 562  -25.32422
 563  134.0884
 564  170.4074
 565  136.4408
 566  37.06527
 567  53.53886
 568  85.69682
 569  83.84234
 570  90.12556
 571  1.75378
 572  89.66508
 573  34.97973
 574  -46.93615
 575  -168.0587
 576  -95.25348
 577  145.0363
 578  213.6117
 579  218.3058
 580  165.0699
 581  146.1056
 582  96.3526
 583  -62.75863
 584  -94.36328
 585  0.7670686
 586  164.1306
 587  157.7778
 588  99.50873
 589  91.00333
 590  26.17689
 591  -29.94941
 592  -42.59933
 593  114.9338
 594  288.6751
 595  478.965
 596  474.7834
 597  316.4469
 598  262.2172
 599  257.0212
 600  229.1778
 601  95.9119
 602  9.567157
 603  -42.68976
 604  20.23184
 605  174.2193
 606  271.5629
 607  143.3778
 608  128.3346
 609  190.2046
 610  289.6006
 611  234.1604
 612  185.8726
 613  315.9682
 614  233.4905
 615  190.2814
 616  121.9424
 617  181.4261
 618  111.6313
 619  11.76958
 620  80.99335
 621  177.225
 622  156.4751
 623  77.58005
 624  42.81868
 625  86.06055
 626  141.9954
 627  175.4664
 628  344.1653
 629  468.4892
 630  483.5033
 631  326.1663
 632  213.2632
 633  271.6294
 634  367.1135
 635  325.8732
 636  320.2013
 637  416.9109
 638  484.2904
 639  531.1641
 640  668.2246
 641  722.8074
 642  802.6494
 643  727.0113
 644  845.1144
 645  774.6756
 646  766.3224
 647  730.3243
 648  654.0201
 649  580.9009
 650  511.6504
 651  425.6179
 652  363.7733
 653  252.329
 654  159.4722
 655  36.32184
 656  17.18786
 657  -36.36679
 658  69.762
 659  102.4294
 660  237.0284
 661  227.1413
 662  279.1991
 663  230.0707
 664  206.1668
 665  150.9417
 666  120.2909
 667  126.6361
 668  226.2917
 669  172.5032
 670  -4.063742
 671  -59.16451
 672  43.2739
 673  219.857
 674  123.631
 675  100.2557
 676  12.71675
 677  76.58926
 678  24.98975
 679  55.2738
 680  179.5423
 681  245.0357
 682  151.6468
 683  -14.05592
 684  -68.7048
 685  48.23449
 686  171.0409
 687  278.5487
 688  327.4004
 689  367.9135
 690  276.0524
 691  92.39599
 692  4.61232
 693  57.31025
 694  164.1357
 695  102.5613
 696  59.12487
 697  149.9844
 698  243.4731
 699  212.0074
 700  110.8235
 701  33.07113
 702  -30.44573
 703  -60.78801
 704  7.718147
 705  50.55196
 706  26.71777
 707  -105.3814
 708  -27.18564
 709  110.7869
 710  257.9945
 711  76.45747
 712  -22.15273
 713  9.13151
 714  233.0444
 715  222.5257
 716  136.5092
 717  17.48312
 718  43.86524
 719  147.2227
 720  126.6328
 721  109.853
 722  74.94035
 723  185.2888
 724  113.977
 725  110.6946
 726  94.76601
 727  237.4776
 728  131.2541
 729  152.6348
 730  8.071938
 731  57.60641
 732  -7.724125
 733  103.4866
 734  171.5216
 735  265.1607
 736  236.693
 737  105.6427
 738  22.76664
 739  -71.78674
 740  -61.08701
 741  -98.57282
 742  -29.01776
 743  45.08979
 744  43.18925
 745  104.2459
 746  141.4172
 747  225.9078
 748  156.3097
 749  75.21062
 750  -75.01553
 751  -95.06998
 752  -133.2494
 753  -108.9096
 754  -87.18308
 755  14.20169
 756  82.0026
 757  54.19233
 758  21.83029
 759  -30.15526
 760  -3.384937
 761  -60.44116
 762  125.5155
 763  311.5521
 764  401.9102
 765  199.7214
 766  81.22167
 767  164.0524
 768  225.2399
 769  218.0238
 770  164.3517
 771  229.2447
 772  262.5074
 773  248.0459
 774  181.0477
 775  203.9027
 776  281.9749
 777  331.863
 778  312.9352
 779  316.9915
 780  341.7103
 781  375.2704
 782  306.9812
 783  412.5586
 784  401.4532
 785  293.9217
 786  92.31718
 787  135.9404
 788  199.4099
 789  283.7841
 790  280.8102
 791  317.6342
 792  317.259
 793  253.8781
 794  168.3133
 795  82.15364
 796  101.563
 797  186.9677
 798  255.8024
 799  220.2805
 800  153.5956
 801  209.2917
 802  82.86693
 803  28.71888
 804  -48.04978
 805  29.73475
 806  -8.226954
 807  -10.35871
 808  -95.96655
 809  -1.291695
 810  17.9628
 811  103.3962
 812  153.1075
 813  170.0877
 814  110.7989
 815  76.53457
 816  86.13293
 817  115.5679
 818  39.34109
 819  -48.83865
 820  -84.92793
 821  12.1163
 822  12.90263
 823  3.211502
 824  82.8112
 825  178.5771
 826  143.2619
 827  30.45438
 828  5.85865
 829  -39.26109
 830  -4.696502
 831  39.07745
 832  140.3165
 833  57.87275
 834  16.90361
 835  82.48555
 836  239.409
 837  415.4061
 838  413.3321
 839  237.7002
 840  44.67937
 841  -2.414115
 842  72.30503
 843  14.97522
 844  -30.31097
 845  -62.7896
 846  67.71554
 847  55.82903
 848  102.1308
 849  97.6022
 850  157.3575
 851  117.1583
 852  169.9178
 853  110.3215
 854  81.38721
 855  -31.58335
 856  -22.3517
 857  -43.67075
 858  -2.914698
 859  -19.04579
 860  -47.88737
 861  -22.52287
 862  57.70404
 863  153.7374
 864  109.8483
 865  112.8729
 866  200.5701
 867  189.2818
 868  204.2638
 869  22.48652
 870  -4.398437
 871  -52.45321
 872  14.35781
 873  42.14027
 874  112.3051
 875  273.1216
 876  294.4284
 877  245.2919
 878  130.5165
 879  174.2782
 880  146.7873
 881  181.4747
 882  126.6304
 883  102.2814
 884  47.24321
 885  -19.83908
 886  -34.38422
 887  -66.49493
 888  -56.39864
 889  -58.44687
 890  -3.322728
 891  19.9018
 892  70.50726
 893  -38.39897
 894  -116.077
 895  -150.436
 896  1.126411
 897  204.4412
 898  232.4657
 899  176.0769
 900  59.18818
 901  -5.765702
 902  -31.56471
 903  32.26088
 904  87.61564
 905  106.6237
 906  146.7791
 907  195.6696
 908  179.593
 909  189.8785
 910  255.2322
 911  280.5286
 912  112.2635
 913  77.42184
 914  115.1459
 915  160.7874
 916  173.1864
 917  64.37446
 918  133.7727
 919  73.15388
 920  47.9316
 921  -11.88561
 922  109.2918
 923  182.9908
 924  110.3218
 925  67.95869
 926  58.44644
 927  89.84196
 928  141.9102
 929  162.1378
 930  185.7275
 931  288.6829
 932  295.0965
 933  322.3001
 934  170.9866
 935  114.5083
 936  33.33587
 937  -19.52559
 938  37.70805
 939  -35.71974
 940  6.278833
 941  134.3229
 942  306.7018
 943  341.4973
 944  205.0777
 945  204.6283
 946  131.0333
 947  222.2386
 948  219.4071
 949  230.763
 950  189.5509
 951  147.0077
 952  214.4061
 953  246.9492
 954  192.9436
 955  194.3977
 956  210.5109
 957  256.7144
 958  78.47049
 959  5.192052
 960  -67.11436
 961  7.140211
 962  -11.92388
 963  158.5311
 964  219.4247
 965  147.7068
 966  42.61241
 967  -75.86172
 968  -70.11666
 969  -82.62751
 970  93.31451
 971  -15.5627
 972  -85.54729
 973  -154.487
 974  -78.79923
 975  33.46035
 976  24.95479
 977  -7.362238
 978  -59.92329
 979  -64.32
 980  6.963445
 981  31.69714
 982  169.9659
 983  227.1719
 984  177.0132
 985  77.9864
 986  -54.25829
 987  -23.9758
 988  -21.79862
 989  65.41892
 990  -47.14062
 991  -76.40165
 992  -34.1748
 993  39.35598
 994  182.5177
 995  135.2593
 996  207.3452
 997  246.7473
 998  275.87
 999  157.2468
1000  95.75307
1001  113.2101
1002  142.1598
1003  140.2769
1004  258.0559
1005  269.8161
1006  245.67
1007  155.457
1008  114.0527
1009  165.3048
1010  189.1964
1011  159.9323
1012  -28.52734
1013  -73.33788
1014  7.635586
1015  109.4021
1016  64.99986
1017  93.69606
1018  139.4964
1019  170.6003
1020  170.0126
1021  143.6577
1022  95.35156
1023  106.3307
