# Input file       =  1188594055.109037_cleaned.dat
# Candidate        =  PSR_0332+5434
# Telescope        =  AR
# Epoch_topo       =  58000.875857743486
# Epoch_bary       =  N/A
# T_sample         =  0.002
# Data Folded      =  7143424
# Data Avg         =  0.0849957815488937
# Data StdDev      =  3.16667637411437 
# Profile Bins     =  512
# Profile Avg      =  1185.75935424733 
# Profile StdDev   =  374.043330822561 
# Reduced chi-sqr  =  0.826
# Prob(Noise)      <  0.998   (~0.0 sigma)
# P_topo (ms)      =  714.463807624388  +/- 0.000166
# P'_topo (s/s)    =  -0                +/- 8.99e-11
# P''_topo (s/s^2) =  0                 +/- 4.08e-14
# P_bary (ms)      =  N/A
# P'_bary (s/s)    =  N/A
# P''_bary (s/s^2) =  N/A
# P_orb (s)        =  N/A
# asin(i)/c (s)    =  N/A
# eccentricity     =  N/A
# w (rad)          =  N/A
# T_peri           =  N/A
######################################################
   0  814.8725
   1  909.1217
   2  1220.41
   3  1065.967
   4  1204.137
   5  1119.826
   6  1367.454
   7  1133.099
   8  672.7844
   9  744.8487
  10  1269.379
  11  1161.649
  12  1066.539
  13  1010.047
  14  1118.279
  15  1155.318
  16  1155.305
  17  1197.614
  18  964.8156
  19  915.6796
  20  1175.581
  21  1337.063
  22  1328.089
  23  1228.407
  24  1321.944
  25  1135.822
  26  684.8207
  27  1083.328
  28  1032.151
  29  1294.755
  30  1178.777
  31  1073.738
  32  965.1417
  33  1222.664
  34  1301.83
  35  1301.261
  36  1181.932
  37  1204.286
  38  1130.185
  39  964.4512
  40  1188.895
  41  1192.765
  42  1113.258
  43  955.5439
  44  1097.055
  45  1256.298
  46  1156.888
  47  1197.774
  48  1030.76
  49  847.3454
  50  821.6925
  51  1194.349
  52  1488.4
  53  1164.29
  54  1411.469
  55  1101.755
  56  1129.626
  57  1053.823
  58  871.0066
  59  1106.848
  60  1141.145
  61  1494.718
  62  1438.112
  63  1279.407
  64  1353.444
  65  1646.812
  66  1136.336
  67  1075.214
  68  996.9583
  69  1185.543
  70  1027.626
  71  869.8882
  72  1198.982
  73  1727.699
  74  1668.243
  75  1432.586
  76  1086.859
  77  951.9847
  78  849.5351
  79  1116.757
  80  1091.048
  81  1071.897
  82  964.8889
  83  646.6452
  84  1069.654
  85  800.8001
  86  899.9536
  87  1264.418
  88  1212.823
  89  1376.699
  90  1219.069
  91  863.3849
  92  1130.906
  93  1169.625
  94  1498.391
  95  1462.776
  96  1275.526
  97  1192.098
  98  1458.191
  99  1388.811
 100  1220.965
 101  1227.071
 102  1003.412
 103  1094.038
 104  1154.085
 105  1090.686
 106  1231.983
 107  1214.908
 108  1057.328
 109  1150.463
 110  1107.957
 111  1110.899
 112  876.8553
 113  1090.366
 114  1148.436
 115  1208.416
 116  1193.873
 117  939.237
 118  1049.498
 119  1131.049
 120  1222.734
 121  1068.402
 122  1273.521
 123  1243.187
 124  907.7139
 125  1029.119
 126  1131.329
 127  1220.099
 128  1292.658
 129  1240.477
 130  1047.107
 131  1298.6
 132  1040.911
 133  659.2421
 134  888.1035
 135  1140.012
 136  1486.758
 137  1386.582
 138  1617.887
 139  1584.978
 140  1112.385
 141  869.6904
 142  1151.846
 143  1256.817
 144  1255.704
 145  1475.087
 146  1517.867
 147  1305.858
 148  1179.887
 149  1150.562
 150  1121.053
 151  941.8409
 152  784.7061
 153  1066.852
 154  1256.701
 155  1142.97
 156  1214.637
 157  1283.349
 158  995.2824
 159  1096.188
 160  948.1
 161  1054.051
 162  993.9142
 163  1217.711
 164  1377.056
 165  1463.839
 166  1120.217
 167  999.5167
 168  1011.698
 169  1103.92
 170  1223.769
 171  1328.35
 172  1378.756
 173  1002.916
 174  1169.822
 175  1201.564
 176  1238.964
 177  1295.667
 178  1410.233
 179  1230.498
 180  1127.606
 181  1040.934
 182  994.7379
 183  1219.789
 184  1285.224
 185  1159.553
 186  1272.49
 187  1057.889
 188  928.0182
 189  935.3575
 190  1049.335
 191  993.8734
 192  1159.09
 193  1031.292
 194  1353.223
 195  1184.677
 196  1199.355
 197  1185.276
 198  1091.187
 199  1036.674
 200  1101.48
 201  1196.967
 202  998.3254
 203  1369.724
 204  1501.103
 205  1366.43
 206  1403.847
 207  1349.237
 208  1148.64
 209  1298.212
 210  1606.464
 211  1402.261
 212  1234.526
 213  1403.015
 214  1219.068
 215  779.0221
 216  783.4953
 217  1300.569
 218  1482.455
 219  1399.403
 220  1630.865
 221  1489.138
 222  1499.735
 223  1057.841
 224  1158.015
 225  1245.93
 226  1209.984
 227  1312.813
 228  1571.239
 229  1599.665
 230  1643.021
 231  1616.849
 232  1250.51
 233  883.7341
 234  945.9326
 235  1088.359
 236  1389.262
 237  1480.655
 238  1180.43
 239  1164.083
 240  1304.34
 241  1307.775
 242  1133.134
 243  996.2734
 244  947.2975
 245  1159.759
 246  1017.994
 247  1257.342
 248  1079.151
 249  1466.138
 250  1507.614
 251  1279.94
 252  1383.521
 253  1293.946
 254  1208.245
 255  1190.847
 256  1008.111
 257  1082.697
 258  1070.514
 259  1010.441
 260  1287.554
 261  862.7918
 262  928.0542
 263  919.8762
 264  946.638
 265  916.4634
 266  688.4304
 267  829.7441
 268  1043.217
 269  1091.751
 270  1495.938
 271  1387.597
 272  1372.766
 273  1169.808
 274  1118.517
 275  1150.672
 276  1488.501
 277  1283.351
 278  896.5743
 279  1017.24
 280  868.0826
 281  852.1565
 282  1101.924
 283  874.6791
 284  777.7919
 285  937.5517
 286  1387.661
 287  1278.653
 288  948.3607
 289  873.4476
 290  974.4668
 291  972.632
 292  1245.38
 293  1312.376
 294  1256.742
 295  1379.286
 296  1166.215
 297  1449.011
 298  1475.284
 299  943.6733
 300  634.7407
 301  1036.381
 302  1065.852
 303  807.3884
 304  1095.414
 305  1218.205
 306  1726.734
 307  1442.449
 308  1431.448
 309  984.2491
 310  1071.889
 311  1289.572
 312  1507.268
 313  1391.467
 314  1191.86
 315  1223.674
 316  1196.948
 317  1162.22
 318  1162.54
 319  1480.65
 320  1561.354
 321  1494.708
 322  1271.667
 323  1080.027
 324  904.6343
 325  1044.197
 326  1045.119
 327  784.0652
 328  1081.878
 329  1244.615
 330  1157.375
 331  883.8545
 332  748.8906
 333  1542.4
 334  1659.825
 335  1648.825
 336  1221.643
 337  1159.472
 338  1103.853
 339  1441.058
 340  1316.788
 341  1232.61
 342  1037.639
 343  1096.911
 344  1088.482
 345  1073.552
 346  1200.769
 347  1085.703
 348  1225.149
 349  984.3343
 350  946.7912
 351  1018.394
 352  1007.952
 353  1051.562
 354  1263.895
 355  1462.899
 356  1288.28
 357  870.8725
 358  984.8141
 359  1218.451
 360  1331.191
 361  1298.42
 362  1195.359
 363  1267.533
 364  1056.301
 365  899.9171
 366  827.3503
 367  1076.025
 368  1064.819
 369  1300.5
 370  1260.508
 371  1401.868
 372  1326.217
 373  1238.679
 374  1141.217
 375  1087.938
 376  827.468
 377  1104.945
 378  1216.606
 379  1031.8
 380  907.6714
 381  1347.868
 382  1344.303
 383  1180.661
 384  1230.777
 385  1264.926
 386  1215.72
 387  815.2232
 388  981.939
 389  799.2474
 390  1031.915
 391  1100.044
 392  1002.396
 393  983.6646
 394  784.3727
 395  820.8423
 396  923.6352
 397  1052.544
 398  1083.032
 399  1220.23
 400  1060.389
 401  997.9102
 402  1177.387
 403  1382.303
 404  1290.181
 405  1380.392
 406  1377.103
 407  1291.509
 408  872.8522
 409  1090.111
 410  1286.189
 411  1090.779
 412  1118.452
 413  984.3339
 414  1136.736
 415  1063.706
 416  1258.515
 417  1276.92
 418  1211.183
 419  1297.815
 420  1183.647
 421  1109.658
 422  1248.398
 423  1254.137
 424  1048.24
 425  926.546
 426  1028.725
 427  989.4176
 428  1736.831
 429  2022.657
 430  2004.166
 431  2254.441
 432  2202.733
 433  2681.739
 434  2867.24
 435  2403.864
 436  1908.139
 437  1528.592
 438  1656.155
 439  1588.237
 440  1359.915
 441  1311.73
 442  1380.164
 443  1240.232
 444  1309.357
 445  1432.277
 446  1186.654
 447  893.7698
 448  1195.012
 449  1195.623
 450  1114.106
 451  1347.395
 452  1207.492
 453  1183.021
 454  1147.496
 455  1110.647
 456  1036.974
 457  1084.073
 458  990.6024
 459  1000.414
 460  1276.852
 461  1317.174
 462  991.2206
 463  859.1072
 464  908.9734
 465  1375.616
 466  1523.844
 467  1376.056
 468  1295.351
 469  1246.15
 470  1325.296
 471  1096.053
 472  1122.989
 473  1192.346
 474  1417.466
 475  1464.996
 476  1355.171
 477  1243.953
 478  1127.353
 479  951.0835
 480  841.4968
 481  939.8985
 482  1118.398
 483  1239.555
 484  1304.291
 485  1244.041
 486  1112.431
 487  950.0383
 488  1254.515
 489  1171.456
 490  1202.275
 491  884.8543
 492  939.5874
 493  1084.865
 494  1004.958
 495  1298.17
 496  1483.624
 497  1295.887
 498  1033.477
 499  1166.924
 500  1421.272
 501  1640.589
 502  1372.865
 503  1275.32
 504  1082.188
 505  1068.228
 506  883.9833
 507  1127.062
 508  1324.439
 509  1248.1
 510  1428.521
 511  1177.93
