# Input file       =  1188350229.11174_cleaned.dat
# Candidate        =  PSR_0332+5434
# Telescope        =  AR
# Epoch_topo       =  57998.053797589586
# Epoch_bary       =  N/A
# T_sample         =  0.002
# Data Folded      =  7340032
# Data Avg         =  0.0168056032499797
# Data StdDev      =  2.36147421363632 
# Profile Bins     =  1024
# Profile Avg      =  120.4783148655   
# Profile StdDev   =  199.931951896753 
# Reduced chi-sqr  =  1.217
# Prob(Noise)      <  1.97e-06   (~4.6 sigma)
# P_topo (ms)      =  714.463536026837  +/- 0.000151
# P'_topo (s/s)    =  -0                +/- 7.98e-11
# P''_topo (s/s^2) =  0                 +/- 3.52e-14
# P_bary (ms)      =  N/A
# P'_bary (s/s)    =  N/A
# P''_bary (s/s^2) =  N/A
# P_orb (s)        =  N/A
# asin(i)/c (s)    =  N/A
# eccentricity     =  N/A
# w (rad)          =  N/A
# T_peri           =  N/A
######################################################
   0  259.5421
   1  142.9568
   2  125.7895
   3  36.45609
   4  4.718707
   5  -26.82095
   6  16.02259
   7  102.2057
   8  194.8216
   9  183.0163
  10  191.4135
  11  135.9853
  12  80.13844
  13  6.839838
  14  63.29401
  15  156.3406
  16  150.1657
  17  161.244
  18  172.1527
  19  273.8154
  20  190.7574
  21  -6.923463
  22  -175.5624
  23  -142.0563
  24  123.3627
  25  194.187
  26  232.5485
  27  117.526
  28  172.2002
  29  257.5923
  30  241.9968
  31  122.6914
  32  -27.81908
  33  17.49973
  34  27.47936
  35  84.84444
  36  163.249
  37  217.6699
  38  63.46027
  39  38.01267
  40  76.86299
  41  162.234
  42  4.228937
  43  -53.425
  44  97.65757
  45  223.5433
  46  106.0326
  47  -114.8782
  48  -117.3525
  49  -10.75072
  50  109.6732
  51  65.03195
  52  117.0999
  53  108.4575
  54  243.7477
  55  194.5545
  56  92.88618
  57  -1.166674
  58  -17.69243
  59  94.47179
  60  119.662
  61  113.0135
  62  -37.17827
  63  -11.6764
  64  117.4322
  65  227.8905
  66  171.1255
  67  139.8537
  68  164.5687
  69  191.9832
  70  77.22242
  71  84.19687
  72  136.4303
  73  130.6315
  74  27.56751
  75  42.28952
  76  127.0389
  77  127.7841
  78  144.8167
  79  87.54815
  80  99.31142
  81  114.2556
  82  125.2385
  83  33.92338
  84  -91.14944
  85  -115.7669
  86  -107.5676
  87  0.1106178
  88  34.84317
  89  -24.38546
  90  -77.84251
  91  -29.42788
  92  11.61533
  93  127.2822
  94  213.3588
  95  252.995
  96  283.7533
  97  233.4636
  98  127.3631
  99  -44.41326
 100  -64.51385
 101  61.02837
 102  174.1174
 103  150.252
 104  138.7688
 105  166.623
 106  183.8837
 107  146.5914
 108  26.71774
 109  6.305119
 110  6.097806
 111  71.85605
 112  50.01208
 113  -28.32029
 114  -43.20706
 115  62.49397
 116  110.8305
 117  67.19239
 118  71.57761
 119  95.03725
 120  100.8594
 121  121.9886
 122  141.5545
 123  146.6304
 124  130.2841
 125  74.46104
 126  51.5524
 127  68.31651
 128  151.7999
 129  197.531
 130  146.2723
 131  134.605
 132  74.01863
 133  44.33844
 134  -67.25639
 135  43.14743
 136  64.15379
 137  75.95887
 138  21.71562
 139  2.282557
 140  -66.1244
 141  -30.444
 142  -17.89367
 143  3.925495
 144  -130.201
 145  -186.9517
 146  -10.22805
 147  153.8825
 148  229.4949
 149  146.3745
 150  79.70591
 151  83.2389
 152  -13.27034
 153  -1.259301
 154  4.574381
 155  135.4026
 156  167.3513
 157  42.15456
 158  50.23608
 159  91.9001
 160  135.8325
 161  46.98748
 162  54.55131
 163  -75.75132
 164  -176.9528
 165  -253.6821
 166  -63.54162
 167  3.33066
 168  18.28868
 169  -17.76855
 170  -27.77977
 171  -0.00756414
 172  -7.153776
 173  114.3993
 174  111.9388
 175  85.95692
 176  -89.9909
 177  -134.998
 178  -13.13779
 179  102.6007
 180  124.9602
 181  63.0262
 182  27.7107
 183  78.29075
 184  80.90955
 185  112.0472
 186  29.47985
 187  24.05764
 188  12.56039
 189  19.62679
 190  77.06377
 191  145.4856
 192  149.3353
 193  118.944
 194  161.3174
 195  231.4864
 196  297.8846
 197  216.0105
 198  252.0024
 199  230.3494
 200  320.0277
 201  214.3823
 202  136.0527
 203  -0.4633749
 204  -11.60182
 205  -96.85551
 206  -190.7481
 207  -212.3602
 208  -136.173
 209  79.59109
 210  192.7961
 211  173.8937
 212  85.40499
 213  80.97837
 214  178.6044
 215  195.7751
 216  183.506
 217  70.78538
 218  80.10734
 219  45.05101
 220  114.7
 221  55.44893
 222  58.42135
 223  184.9336
 224  237.7963
 225  191.7541
 226  68.02152
 227  90.38826
 228  145.1339
 229  127.4997
 230  116.1497
 231  123.5946
 232  136.0512
 233  76.17094
 234  33.40515
 235  26.05507
 236  12.10972
 237  -48.19016
 238  -26.48095
 239  55.09964
 240  92.88447
 241  157.0232
 242  143.2267
 243  192.4586
 244  101.1109
 245  168.9335
 246  266.2272
 247  324.9853
 248  207.8312
 249  130.4163
 250  33.55981
 251  -16.66414
 252  -0.1779988
 253  127.0747
 254  224.8398
 255  300.8854
 256  383.7112
 257  372.1212
 258  244.1519
 259  144.7457
 260  146.5294
 261  174.4682
 262  141.0346
 263  198.3308
 264  213.1969
 265  229.9919
 266  208.8908
 267  173.0252
 268  219.6799
 269  204.0209
 270  302.8589
 271  231.7057
 272  254.4417
 273  251.9638
 274  215.0204
 275  134.847
 276  108.4345
 277  246.8555
 278  263.7115
 279  139.9239
 280  75.01299
 281  136.2784
 282  119.476
 283  118.5225
 284  -24.46313
 285  -19.9082
 286  3.957258
 287  120.2734
 288  128.1902
 289  104.8884
 290  129.2883
 291  171.5298
 292  153.3816
 293  49.21838
 294  77.05023
 295  189.1724
 296  179.0478
 297  107.0403
 298  74.57706
 299  137.0191
 300  113.6726
 301  181.958
 302  210.7475
 303  161.8257
 304  105.6775
 305  141.0562
 306  99.50668
 307  127.2731
 308  81.85484
 309  131.9673
 310  44.03672
 311  59.35087
 312  225.8109
 313  351.5692
 314  290.4915
 315  137.9816
 316  120.7192
 317  145.5354
 318  202.4025
 319  179.4243
 320  234.7021
 321  175.2582
 322  214.1826
 323  248.7323
 324  292.6814
 325  136.9153
 326  102.9738
 327  120.682
 328  125.418
 329  29.18687
 330  -17.91799
 331  41.55885
 332  150.137
 333  281.5905
 334  323.6897
 335  253.5989
 336  244.3802
 337  286.2935
 338  245.159
 339  200.9659
 340  149.2883
 341  166.8996
 342  250.5651
 343  290.3675
 344  297.2947
 345  242.0789
 346  156.3797
 347  12.67536
 348  -24.32164
 349  126.6854
 350  195.3011
 351  138.623
 352  88.31711
 353  122.5319
 354  242.7108
 355  290.1293
 356  199.7822
 357  156.3802
 358  152.2661
 359  165.7703
 360  144.9831
 361  48.62402
 362  8.856882
 363  -33.65413
 364  37.93652
 365  99.93044
 366  163.7525
 367  181.8214
 368  179.71
 369  167.1085
 370  229.8676
 371  247.3084
 372  154.8098
 373  105.3784
 374  144.459
 375  199.6702
 376  141.8315
 377  136.5909
 378  206.1931
 379  319.9694
 380  245.7453
 381  171.9097
 382  98.51992
 383  112.6881
 384  180.7241
 385  50.76477
 386  93.47449
 387  61.89707
 388  109.8628
 389  83.53785
 390  148.7187
 391  197.3493
 392  205.9737
 393  214.8876
 394  150.7667
 395  104.1204
 396  92.70938
 397  141.8157
 398  172.3454
 399  212.4113
 400  125.4034
 401  76.17254
 402  65.48705
 403  224.6069
 404  311.5927
 405  309.6052
 406  216.6095
 407  139.4218
 408  66.21166
 409  52.8941
 410  65.57797
 411  85.47321
 412  134.9445
 413  138.5766
 414  143.5061
 415  126.2269
 416  67.58926
 417  78.91291
 418  130.7855
 419  267.4004
 420  250.0444
 421  266.9273
 422  238.4907
 423  223.2646
 424  183.6418
 425  152.8945
 426  133.4414
 427  46.851
 428  43.15392
 429  159.5385
 430  273.3926
 431  136.2534
 432  45.27031
 433  -15.76896
 434  43.83354
 435  58.11292
 436  1.125145
 437  63.87813
 438  107.3553
 439  226.7876
 440  258.1431
 441  189.9088
 442  151.1989
 443  167.6731
 444  234.0739
 445  263.2899
 446  238.0224
 447  110.1988
 448  108.8597
 449  60.96481
 450  77.45902
 451  28.44306
 452  121.0105
 453  204.5924
 454  229.2749
 455  166.8645
 456  59.8602
 457  83.95557
 458  166.4635
 459  68.32783
 460  0.5547079
 461  -105.8447
 462  -27.96231
 463  49.24599
 464  180.943
 465  235.3033
 466  176.4476
 467  186.6243
 468  182.4692
 469  177.8233
 470  164.927
 471  155.5094
 472  209.7704
 473  222.7787
 474  205.4099
 475  187.4822
 476  208.3675
 477  191.4347
 478  112.2506
 479  15.34207
 480  82.13864
 481  146.7774
 482  200.6147
 483  229.6097
 484  259.4987
 485  243.2092
 486  188.401
 487  254.2491
 488  261.6603
 489  237.262
 490  215.4369
 491  156.7024
 492  118.8538
 493  111.6933
 494  126.3406
 495  108.2272
 496  6.84744
 497  35.40335
 498  54.19483
 499  101.0256
 500  58.26864
 501  118.8647
 502  139.6547
 503  196.7112
 504  82.36227
 505  99.3252
 506  116.3437
 507  85.44843
 508  9.051767
 509  -5.049375
 510  94.45847
 511  128.904
 512  149.8079
 513  84.08588
 514  2.092577
 515  44.61661
 516  139.7736
 517  187.3594
 518  172.4216
 519  154.8795
 520  197.4335
 521  142.0783
 522  90.08141
 523  -30.48369
 524  77.93488
 525  118.5917
 526  134.0988
 527  25.39278
 528  -21.82767
 529  22.68092
 530  147.3676
 531  199.7991
 532  126.1572
 533  128.0798
 534  124.0239
 535  108.0225
 536  -1.659065
 537  -98.26849
 538  -122.8901
 539  -91.40744
 540  -69.47426
 541  -45.71287
 542  76.72445
 543  159.6355
 544  143.8658
 545  215.8074
 546  277.8384
 547  413.6686
 548  301.3755
 549  310.551
 550  233.4059
 551  211.9499
 552  151.8545
 553  139.87
 554  223.6085
 555  172.3266
 556  187.7121
 557  103.9097
 558  61.81419
 559  41.75431
 560  104.9639
 561  213.1244
 562  242.5917
 563  262.347
 564  256.252
 565  166.9999
 566  99.36993
 567  29.02019
 568  12.98192
 569  68.46539
 570  14.84656
 571  16.86106
 572  -169.2501
 573  -131.8711
 574  -123.347
 575  -7.243321
 576  -8.192135
 577  3.675255
 578  126.8567
 579  101.8562
 580  162.4612
 581  215.832
 582  258.5394
 583  239.985
 584  188.4356
 585  234.9246
 586  59.0827
 587  17.13662
 588  47.80519
 589  237.5654
 590  175.3707
 591  61.9014
 592  -2.89375
 593  35.59649
 594  84.54695
 595  65.04683
 596  21.25548
 597  16.26478
 598  19.68694
 599  47.69572
 600  -10.41045
 601  34.71497
 602  83.01336
 603  90.4141
 604  72.6176
 605  98.35356
 606  138.5695
 607  229.7529
 608  224.5464
 609  227.9994
 610  258.2498
 611  238.1905
 612  116.7358
 613  -54.12744
 614  -9.938818
 615  49.38614
 616  41.30114
 617  1.083428
 618  15.16248
 619  88.96732
 620  69.09403
 621  -17.21753
 622  30.18383
 623  87.16227
 624  121.4812
 625  166.9001
 626  233.3116
 627  264.8539
 628  172.916
 629  127.3524
 630  114.8096
 631  53.05843
 632  -15.8914
 633  84.01582
 634  217.8252
 635  208.6081
 636  135.191
 637  83.45572
 638  219.145
 639  356.7802
 640  589.8549
 641  696.5403
 642  711.3875
 643  720.0985
 644  715.6617
 645  711.6924
 646  741.8952
 647  844.1335
 648  816.871
 649  674.3358
 650  446.1442
 651  278.4571
 652  170.7972
 653  180.4883
 654  157.0539
 655  146.4205
 656  91.2647
 657  84.15952
 658  70.22691
 659  113.3998
 660  145.4896
 661  179.9029
 662  89.74203
 663  57.9481
 664  87.02882
 665  143.4303
 666  139.0076
 667  131.8502
 668  114.8025
 669  117.878
 670  98.00561
 671  136.0955
 672  215.0262
 673  238.3163
 674  248.8099
 675  209.7333
 676  174.7002
 677  101.4824
 678  40.33648
 679  53.89381
 680  49.06341
 681  68.44481
 682  80.03009
 683  137.9821
 684  55.73058
 685  -72.244
 686  -54.36871
 687  51.8939
 688  161.39
 689  162.89
 690  197.463
 691  228.3307
 692  75.09209
 693  -38.76453
 694  -42.01173
 695  136.0061
 696  155.2312
 697  26.96634
 698  -34.32416
 699  -63.84192
 700  -87.72887
 701  -167.2573
 702  -61.07472
 703  73.41705
 704  270.0243
 705  309.4828
 706  273.3605
 707  132.8745
 708  55.78611
 709  60.87733
 710  82.3402
 711  -58.6808
 712  -131.6539
 713  -178.2285
 714  -44.01448
 715  -27.65564
 716  47.81118
 717  73.79221
 718  137.2123
 719  106.623
 720  98.53608
 721  71.40823
 722  150.3915
 723  58.93061
 724  100.6658
 725  83.44651
 726  215.7012
 727  178.7427
 728  172.1985
 729  162.9267
 730  215.133
 731  197.7919
 732  185.5849
 733  111.2416
 734  97.13557
 735  -1.680714
 736  -31.49263
 737  8.869864
 738  80.07391
 739  182.6754
 740  107.1381
 741  87.57903
 742  75.55399
 743  196.1007
 744  211.634
 745  262.507
 746  265.34
 747  220.2108
 748  127.1635
 749  128.1933
 750  136.4426
 751  57.24882
 752  19.82839
 753  -27.44828
 754  -41.91785
 755  -70.08419
 756  68.8511
 757  190.8115
 758  210.0589
 759  94.87205
 760  -1.030268
 761  35.53762
 762  -65.03891
 763  -122.7078
 764  -167.2406
 765  -14.65067
 766  48.9817
 767  123.3753
 768  150.6949
 769  112.6128
 770  117.9305
 771  117.312
 772  170.8391
 773  30.4437
 774  -9.240957
 775  2.603532
 776  172.1064
 777  281.971
 778  247.9659
 779  175.0521
 780  153.3644
 781  136.1553
 782  12.88304
 783  -92.73811
 784  -62.17793
 785  65.99532
 786  72.91211
 787  39.36821
 788  -61.35174
 789  -71.30475
 790  -165.0656
 791  -151.7638
 792  18.78543
 793  191.9526
 794  319.3585
 795  231.7848
 796  141.2499
 797  54.66418
 798  93.74167
 799  88.60788
 800  66.51383
 801  75.95687
 802  164.6918
 803  198.48
 804  97.09076
 805  103.4658
 806  194.0792
 807  300.3394
 808  218.5453
 809  194.5413
 810  51.05175
 811  -31.08718
 812  -206.7829
 813  -188.8739
 814  -175.8889
 815  -113.7768
 816  51.9124
 817  226.9281
 818  307.9477
 819  118.7711
 820  10.53039
 821  -41.2414
 822  26.70189
 823  175.7761
 824  215.248
 825  250.3981
 826  154.4739
 827  151.5143
 828  155.5343
 829  111.1394
 830  17.56157
 831  -76.95398
 832  -128.6459
 833  -99.40442
 834  -157.7245
 835  -129.032
 836  -68.35204
 837  114.9801
 838  289.7183
 839  188.7297
 840  128.7994
 841  60.39493
 842  152.269
 843  79.03169
 844  47.86422
 845  -23.27578
 846  29.21646
 847  27.73981
 848  13.7893
 849  -146.1881
 850  -113.2936
 851  -95.83488
 852  -8.335247
 853  39.89165
 854  122.7406
 855  170.3349
 856  197.758
 857  161.1239
 858  102.3043
 859  19.44853
 860  132.1539
 861  260.5245
 862  299.9197
 863  286.2629
 864  217.0465
 865  199.4489
 866  115.817
 867  65.55668
 868  87.56294
 869  129.525
 870  119.9471
 871  145.3583
 872  194.1745
 873  177.1235
 874  101.1893
 875  20.68839
 876  34.98923
 877  30.39429
 878  149.1305
 879  116.9792
 880  176.954
 881  51.02392
 882  78.50828
 883  83.06842
 884  89.37419
 885  102.9447
 886  150.4454
 887  224.0418
 888  126.6783
 889  66.52628
 890  11.28205
 891  51.97667
 892  97.44488
 893  133.2649
 894  234.9923
 895  259.6921
 896  239.8195
 897  95.35164
 898  -10.6104
 899  38.49147
 900  26.49171
 901  111.3601
 902  117.4264
 903  162.1507
 904  187.4175
 905  202.0148
 906  298.1305
 907  363.6476
 908  337.4395
 909  287.449
 910  281.0571
 911  337.1437
 912  358.6693
 913  326.3349
 914  293.8799
 915  237.7106
 916  206.2467
 917  139.5185
 918  65.09946
 919  74.34177
 920  177.4891
 921  193.0969
 922  144.1189
 923  105.2222
 924  190.515
 925  229.3091
 926  299.3208
 927  313.1863
 928  165.0036
 929  8.97351
 930  -82.58083
 931  10.56015
 932  117.6665
 933  288.387
 934  246.5004
 935  189.1227
 936  158.4949
 937  310.2683
 938  297.9943
 939  297.2256
 940  283.9529
 941  252.1545
 942  251.5693
 943  145.0348
 944  177.9654
 945  233.1067
 946  270.4196
 947  218.8974
 948  117.8447
 949  168.7397
 950  85.37514
 951  40.74413
 952  12.22646
 953  -9.785104
 954  72.49329
 955  24.84279
 956  52.28323
 957  24.72903
 958  158.8511
 959  242.5412
 960  270.322
 961  304.2446
 962  186.9088
 963  235.1933
 964  301.1701
 965  378.3098
 966  185.1816
 967  -9.06587
 968  -104.0938
 969  14.54595
 970  133.8609
 971  150.6113
 972  224.4646
 973  244.3941
 974  328.4869
 975  267.7955
 976  273.7005
 977  259.5887
 978  144.1199
 979  11.34156
 980  -40.66135
 981  152.3352
 982  203.3102
 983  193.6325
 984  126.6523
 985  273.1507
 986  261.9242
 987  199.6869
 988  103.4363
 989  96.09614
 990  155.5457
 991  190.0739
 992  178.0777
 993  168.4818
 994  161.0813
 995  193.304
 996  122.3014
 997  168.97
 998  213.186
 999  330.34
1000  336.4488
1001  200.8146
1002  67.02424
1003  83.02007
1004  193.2654
1005  164.6867
1006  89.6231
1007  5.253234
1008  -7.258914
1009  23.0781
1010  131.8729
1011  101.6404
1012  67.45837
1013  33.9692
1014  99.20457
1015  108.0905
1016  86.38491
1017  -3.28304
1018  -43.65273
1019  -90.43059
1020  -55.2726
1021  52.7081
1022  261.8498
1023  289.8592
