# Input file       =  1189642711.126697_cleaned.dat
# Candidate        =  PSR_0332+5434
# Telescope        =  AR
# Epoch_topo       =  58013.013080170102
# Epoch_bary       =  N/A
# T_sample         =  0.002
# Data Folded      =  7340032
# Data Avg         =  0.0216198379171796
# Data StdDev      =  2.48429380737745 
# Profile Bins     =  1024
# Profile Avg      =  155.154919763834 
# Profile StdDev   =  210.330355134033 
# Reduced chi-sqr  =  1.378
# Prob(Noise)      <  8.14e-15   (~7.7 sigma)
# P_topo (ms)      =  714.466490299981  +/- 0.000189
# P'_topo (s/s)    =  -0                +/- 9.95e-11
# P''_topo (s/s^2) =  0                 +/- 4.39e-14
# P_bary (ms)      =  N/A
# P'_bary (s/s)    =  N/A
# P''_bary (s/s^2) =  N/A
# P_orb (s)        =  N/A
# asin(i)/c (s)    =  N/A
# eccentricity     =  N/A
# w (rad)          =  N/A
# T_peri           =  N/A
######################################################
   0  215.5193
   1  134.4658
   2  140.4223
   3  106.217
   4  182.5422
   5  242.3667
   6  348.0016
   7  307.6114
   8  181.7549
   9  -53.39502
  10  -134.6792
  11  -125.012
  12  12.04841
  13  42.32261
  14  70.69617
  15  -23.0279
  16  -18.01606
  17  33.13892
  18  151.5381
  19  143.287
  20  60.99037
  21  59.00364
  22  159.8692
  23  217.908
  24  189.589
  25  125.5357
  26  130.2165
  27  121.9369
  28  106.3163
  29  123.5888
  30  166.9694
  31  262.3217
  32  234.4328
  33  170.0513
  34  166.0812
  35  108.5152
  36  42.34883
  37  7.952382
  38  49.03238
  39  176.4256
  40  277.424
  41  310.0437
  42  216.5283
  43  71.441
  44  37.9545
  45  -7.533501
  46  81.85422
  47  123.6024
  48  107.6385
  49  -1.861979
  50  -73.85336
  51  40.07769
  52  110.0634
  53  102.7616
  54  106.2668
  55  157.3098
  56  129.2486
  57  -26.72852
  58  -12.37391
  59  159.3147
  60  292.142
  61  306.7984
  62  236.8905
  63  328.7303
  64  214.3875
  65  243.1082
  66  154.645
  67  208.0766
  68  234.9785
  69  289.3195
  70  341.1224
  71  291.7665
  72  262.2548
  73  305.4307
  74  249.8253
  75  166.7057
  76  82.61716
  77  136.1884
  78  208.6937
  79  266.9844
  80  325.7673
  81  376.9113
  82  384.6228
  83  350.7556
  84  188.6154
  85  52.83456
  86  -98.72121
  87  -18.31057
  88  68.99227
  89  102.4116
  90  169.3213
  91  108.2353
  92  142.8123
  93  68.44511
  94  126.8105
  95  127.8863
  96  213.9438
  97  240.465
  98  250.8261
  99  213.7292
 100  216.1057
 101  114.4141
 102  130.7433
 103  37.29525
 104  126.3247
 105  150.9945
 106  131.1306
 107  171.1823
 108  265.0236
 109  343.9921
 110  230.9255
 111  157.4319
 112  200.3995
 113  259.2518
 114  223.7745
 115  185.8952
 116  157.882
 117  140.2708
 118  101.8029
 119  139.8961
 120  181.4474
 121  135.6968
 122  58.05045
 123  85.12506
 124  90.20743
 125  127.3597
 126  97.4001
 127  124.5771
 128  33.71926
 129  32.98589
 130  133.5627
 131  249.7524
 132  192.7072
 133  79.84418
 134  -60.93119
 135  -33.72699
 136  -53.5861
 137  90.8031
 138  88.46593
 139  112.1142
 140  173.3746
 141  295.5409
 142  233.0587
 143  142.7031
 144  118.6754
 145  165.3231
 146  199.1222
 147  133.7375
 148  154.7672
 149  115.0265
 150  90.08943
 151  106.7359
 152  45.02715
 153  -19.38157
 154  -75.33052
 155  -39.9698
 156  95.54505
 157  96.92625
 158  179.1814
 159  176.8754
 160  230.5571
 161  185.3924
 162  157.5015
 163  173.5195
 164  163.2305
 165  124.3555
 166  6.95379
 167  105.355
 168  110.1289
 169  112.4868
 170  76.94139
 171  113.618
 172  149.2979
 173  163.1694
 174  173.4891
 175  236.7777
 176  264.2194
 177  251.5403
 178  219.2341
 179  185.1442
 180  176.0809
 181  62.98814
 182  51.30437
 183  124.1169
 184  151.6171
 185  131.8575
 186  175.1147
 187  235.3001
 188  334.5801
 189  373.5186
 190  199.3418
 191  91.59624
 192  -2.802717
 193  125.1395
 194  74.94801
 195  88.36941
 196  68.59576
 197  130.9423
 198  149.9025
 199  80.87805
 200  72.46818
 201  152.7352
 202  151.3911
 203  181.0877
 204  14.21024
 205  20.45209
 206  -15.15863
 207  142.3251
 208  48.49663
 209  93.78815
 210  159.8953
 211  245.9536
 212  295.431
 213  280.284
 214  282.6613
 215  120.5116
 216  11.85629
 217  -86.77362
 218  -91.37123
 219  -2.347084
 220  143.4253
 221  267.4371
 222  288.7703
 223  239.7095
 224  199.9907
 225  161.5428
 226  219.0516
 227  321.0347
 228  369.7032
 229  313.2396
 230  207.9508
 231  86.07613
 232  59.33473
 233  122.0955
 234  187.4668
 235  215.0409
 236  131.0456
 237  154.4845
 238  211.7616
 239  252.5494
 240  208.7903
 241  197.3387
 242  328.6308
 243  353.6667
 244  279.7043
 245  160.5987
 246  247.3673
 247  214.1102
 248  179.3345
 249  176.9992
 250  164.2201
 251  172.1427
 252  99.47448
 253  279.1128
 254  257.4605
 255  200.596
 256  33.96908
 257  -22.89764
 258  28.76557
 259  108.3841
 260  184.733
 261  179.8568
 262  203.8055
 263  180.5735
 264  115.1262
 265  64.9135
 266  77.0568
 267  84.33678
 268  42.12351
 269  67.36957
 270  105.9312
 271  227.4317
 272  86.52013
 273  56.05226
 274  -6.212297
 275  86.65901
 276  202.2057
 277  280.8291
 278  283.5968
 279  288.4167
 280  235.0447
 281  267.3771
 282  132.177
 283  111.4797
 284  -5.860571
 285  61.36931
 286  27.94974
 287  194.5032
 288  140.129
 289  175.6824
 290  145.4031
 291  181.4545
 292  175.8131
 293  36.92733
 294  71.20612
 295  42.5097
 296  142.307
 297  114.5463
 298  107.6403
 299  -26.4084
 300  -95.38957
 301  -38.2112
 302  94.41576
 303  204.0266
 304  323.9319
 305  389.6823
 306  397.305
 307  320.7218
 308  237.741
 309  262.5091
 310  330.0948
 311  334.9744
 312  269.5114
 313  174.2297
 314  110.3848
 315  68.5845
 316  114.2137
 317  171.1831
 318  186.6344
 319  203.3008
 320  176.7013
 321  195.5308
 322  130.3884
 323  126.674
 324  125.7631
 325  156.9707
 326  170.6385
 327  191.7107
 328  291.8493
 329  262.5543
 330  252.0016
 331  243.4252
 332  311.8352
 333  246.4305
 334  90.98557
 335  -98.58984
 336  -100.3155
 337  33.50935
 338  240.4957
 339  260.4668
 340  162.1016
 341  137.7395
 342  163.297
 343  275.2113
 344  108.3794
 345  69.3792
 346  70.10271
 347  240.7641
 348  267.7752
 349  220.5952
 350  189.3959
 351  227.387
 352  187.1943
 353  227.4465
 354  232.3959
 355  303.4145
 356  277.1573
 357  272.3506
 358  282.1135
 359  345.3435
 360  349.9425
 361  301.592
 362  245.2793
 363  325.8501
 364  377.9412
 365  426.2047
 366  394.4365
 367  352.1536
 368  269.7665
 369  175.6299
 370  121.9654
 371  206.4589
 372  247.6495
 373  205.0036
 374  34.88217
 375  -63.22123
 376  -56.62517
 377  79.55214
 378  69.38999
 379  69.45474
 380  27.91629
 381  6.075273
 382  8.847355
 383  -31.49339
 384  109.8821
 385  239.7615
 386  296.2227
 387  331.1156
 388  216.8745
 389  132.5806
 390  42.86776
 391  114.0601
 392  238.5531
 393  252.634
 394  291.2852
 395  257.5461
 396  288.0769
 397  48.03654
 398  -82.59657
 399  -97.46147
 400  52.9176
 401  96.39944
 402  33.79465
 403  41.07884
 404  23.20265
 405  68.81043
 406  100.8813
 407  180.8605
 408  185.3074
 409  131.4605
 410  37.7612
 411  36.81434
 412  38.9765
 413  70.13641
 414  75.04656
 415  73.80913
 416  69.35712
 417  189.5133
 418  186.7808
 419  112.2399
 420  156.4263
 421  173.0686
 422  196.3933
 423  -23.8774
 424  2.195425
 425  184.8229
 426  330.7827
 427  294.0322
 428  122.9071
 429  34.84323
 430  -10.90393
 431  -8.083199
 432  61.93352
 433  164.042
 434  235.2337
 435  265.5388
 436  303.6791
 437  269.3235
 438  129.813
 439  24.73503
 440  81.88325
 441  129.9968
 442  55.37689
 443  80.16748
 444  70.89983
 445  198.6961
 446  118.0599
 447  137.8873
 448  77.67079
 449  49.91179
 450  143.179
 451  188.2478
 452  91.50014
 453  34.81083
 454  68.48874
 455  196.18
 456  152.7588
 457  224.4194
 458  193.8297
 459  124.7968
 460  25.13246
 461  24.47766
 462  57.11139
 463  46.91301
 464  -27.79459
 465  -63.4662
 466  -115.1133
 467  51.55186
 468  15.89417
 469  30.75874
 470  -17.9141
 471  117.5332
 472  152.9689
 473  122.7733
 474  40.18586
 475  -149.0475
 476  -120.6086
 477  -19.95857
 478  -61.93846
 479  -179.9674
 480  -240.426
 481  -64.98325
 482  7.252151
 483  32.52504
 484  -22.2851
 485  -91.24511
 486  10.16515
 487  179.4408
 488  264.9092
 489  227.9008
 490  139.5293
 491  140.2907
 492  143.5795
 493  202.0125
 494  143.9519
 495  130.0083
 496  2.162935
 497  66.00987
 498  125.4718
 499  180.9695
 500  147.4478
 501  24.48465
 502  -8.698467
 503  9.414497
 504  207.8931
 505  236.7353
 506  175.87
 507  106.1263
 508  187.097
 509  181.724
 510  205.5909
 511  278.3266
 512  232.639
 513  148.0897
 514  82.11552
 515  167.0949
 516  100.2284
 517  30.49775
 518  66.18224
 519  233.7958
 520  249.5094
 521  192.4966
 522  155.9988
 523  203.7611
 524  325.9558
 525  259.2118
 526  161.6837
 527  38.65955
 528  41.72114
 529  116.0213
 530  213.0316
 531  252.6985
 532  317.3615
 533  371.5382
 534  367.3228
 535  335.2208
 536  190.5626
 537  133.2898
 538  25.78406
 539  106.5758
 540  163.0126
 541  109.8656
 542  7.979279
 543  1.969249
 544  135.6116
 545  325.3537
 546  268.0302
 547  87.43993
 548  -29.31376
 549  -55.46404
 550  -31.98879
 551  -36.89711
 552  60.91904
 553  87.83022
 554  108.4147
 555  104.3611
 556  101.6072
 557  96.86162
 558  47.2224
 559  25.25483
 560  7.90648
 561  88.21894
 562  146.2035
 563  186.8705
 564  201.0806
 565  175.0838
 566  131.4655
 567  2.307652
 568  39.07751
 569  165.3252
 570  299.5842
 571  230.8665
 572  155.9575
 573  95.29726
 574  59.99714
 575  190.5972
 576  425.3916
 577  401.6898
 578  309.7356
 579  115.8748
 580  102.3718
 581  5.073237
 582  -25.53134
 583  76.90543
 584  145.7694
 585  182.6845
 586  126.4706
 587  94.17024
 588  201.0682
 589  244.5537
 590  332.7196
 591  351.7037
 592  301.7929
 593  178.4012
 594  229.6381
 595  342.4909
 596  431.0312
 597  323.4089
 598  319.2818
 599  284.0902
 600  306.4609
 601  375.2159
 602  411.1992
 603  456.8716
 604  401.0933
 605  439.9034
 606  312.1874
 607  320.0196
 608  285.8681
 609  303.8206
 610  274.7036
 611  194.906
 612  132.3065
 613  48.96091
 614  90.80692
 615  183.1894
 616  312.4005
 617  281.8962
 618  179.8425
 619  119.4568
 620  -9.04503
 621  33.80543
 622  -10.04909
 623  93.67238
 624  20.68367
 625  72.09936
 626  133.7743
 627  221.4065
 628  292.4661
 629  310.517
 630  261.6798
 631  263.6123
 632  335.8557
 633  433.3737
 634  365.2777
 635  318.3748
 636  330.0795
 637  534.9926
 638  765.8147
 639  903.049
 640  986.563
 641  983.3305
 642  904.947
 643  886.2293
 644  953.8129
 645  1006.172
 646  862.2783
 647  740.9247
 648  555.6915
 649  402.1376
 650  137.4212
 651  82.81945
 652  60.67324
 653  170.2274
 654  154.9339
 655  218.6556
 656  94.11053
 657  121.3784
 658  43.98561
 659  134.4237
 660  192.1115
 661  272.961
 662  343.0589
 663  325.2609
 664  273.3455
 665  187.0468
 666  143.7797
 667  141.3647
 668  125.6525
 669  151.6866
 670  327.3806
 671  411.3959
 672  274.864
 673  153.76
 674  114.7209
 675  215.6581
 676  24.35398
 677  -10.39257
 678  8.514209
 679  28.64931
 680  -51.24771
 681  -68.57217
 682  -1.142151
 683  -3.292075
 684  19.59686
 685  122.5849
 686  143.3109
 687  139.7684
 688  148.583
 689  122.1978
 690  86.32965
 691  53.16615
 692  -1.393251
 693  -77.48868
 694  -57.66637
 695  94.14172
 696  153.0485
 697  150.4139
 698  134.1875
 699  73.38538
 700  68.58334
 701  -3.664565
 702  -55.06958
 703  -84.30321
 704  18.98458
 705  74.80315
 706  46.02242
 707  64.81584
 708  73.51451
 709  122.3718
 710  138.6392
 711  176.1858
 712  183.9627
 713  188.1446
 714  221.5981
 715  185.5068
 716  294.0378
 717  307.1386
 718  343.9023
 719  274.7016
 720  271.651
 721  312.0107
 722  345.9138
 723  407.8945
 724  423.9506
 725  343.3923
 726  191.8336
 727  18.05185
 728  -1.439742
 729  17.20663
 730  98.88267
 731  92.71736
 732  75.74245
 733  41.82615
 734  63.91014
 735  179.2158
 736  220.0613
 737  299.4197
 738  267.855
 739  276.6813
 740  286.4292
 741  275.7268
 742  238.007
 743  200.451
 744  90.85738
 745  -28.07995
 746  -103.4951
 747  6.724261
 748  183.1689
 749  257.7833
 750  376.6409
 751  321.2345
 752  244.3541
 753  206.0461
 754  161.0638
 755  103.3199
 756  138.9064
 757  233.181
 758  345.9478
 759  204.3303
 760  160.6925
 761  129.6493
 762  93.84445
 763  171.5143
 764  250.7471
 765  251.7538
 766  187.6657
 767  202.8725
 768  225.0043
 769  97.26548
 770  -109.7198
 771  -153.1739
 772  -103.5024
 773  21.62064
 774  63.09302
 775  108.622
 776  50.70369
 777  21.43357
 778  92.88576
 779  201.9476
 780  234.1366
 781  217.8672
 782  219.8359
 783  248.4251
 784  125.3706
 785  121.2695
 786  108.0126
 787  88.50399
 788  -13.38096
 789  26.1622
 790  106.8638
 791  190.5373
 792  198.3357
 793  246.9697
 794  209.4767
 795  122.197
 796  65.52161
 797  40.75596
 798  21.1146
 799  105.6018
 800  125.141
 801  98.12734
 802  128.5967
 803  133.0499
 804  211.6681
 805  104.7747
 806  83.95638
 807  -126.452
 808  -159.0753
 809  -171.6974
 810  -0.6939608
 811  54.3104
 812  56.77295
 813  15.23431
 814  53.20998
 815  169.2994
 816  192.7016
 817  172.8159
 818  211.9732
 819  237.9747
 820  165.2122
 821  5.843662
 822  -82.24555
 823  10.06151
 824  86.17915
 825  72.32708
 826  101.8985
 827  140.2663
 828  128.322
 829  49.18848
 830  114.9712
 831  157.902
 832  123.1085
 833  41.39318
 834  77.93079
 835  162.1965
 836  174.4762
 837  171.5574
 838  154.8186
 839  85.65415
 840  21.72494
 841  12.3651
 842  42.44359
 843  26.18148
 844  13.00674
 845  96.43532
 846  170.0911
 847  270.1822
 848  192.4358
 849  210.0118
 850  195.0741
 851  391.1393
 852  404.9775
 853  365.0208
 854  332.8502
 855  375.4362
 856  384.8071
 857  271.5014
 858  217.0304
 859  216.4667
 860  226.2301
 861  275.5393
 862  221.4808
 863  151.1398
 864  37.63448
 865  -16.88902
 866  -49.37897
 867  -56.26757
 868  6.132926
 869  130.877
 870  231.1086
 871  284.3529
 872  183.5638
 873  166.3247
 874  55.47977
 875  63.82888
 876  78.68531
 877  96.28262
 878  66.28909
 879  88.76176
 880  137.8891
 881  175.6542
 882  208.9846
 883  248.1252
 884  170.7439
 885  11.16465
 886  -4.227155
 887  32.20994
 888  70.89833
 889  98.05004
 890  177.1963
 891  241.0148
 892  233.2071
 893  128.2073
 894  -5.146165
 895  34.03635
 896  133.1515
 897  263.3773
 898  238.4914
 899  221.371
 900  102.7955
 901  60.95578
 902  2.617003
 903  113.3406
 904  335.0532
 905  386.3533
 906  362.7634
 907  226.0424
 908  251.8398
 909  181.4628
 910  124.2445
 911  115.3456
 912  174.3096
 913  234.3399
 914  172.3819
 915  153.8171
 916  160.3406
 917  223.3146
 918  268.6799
 919  257.9795
 920  317.6159
 921  208.2697
 922  167.8624
 923  126.5204
 924  138.6276
 925  194.0183
 926  287.6172
 927  288.2539
 928  184.1932
 929  54.02454
 930  104.343
 931  215.5305
 932  187.3462
 933  38.07067
 934  25.64492
 935  138.3094
 936  148.5335
 937  39.60913
 938  -19.86577
 939  81.43023
 940  184.2268
 941  302.9553
 942  301.3571
 943  224.3769
 944  220.3953
 945  192.757
 946  160.2194
 947  158.1041
 948  211.8944
 949  287.3054
 950  296.5316
 951  292.7755
 952  270.2895
 953  153.9435
 954  66.4486
 955  94.52076
 956  185.8775
 957  286.3598
 958  148.984
 959  70.67594
 960  87.54511
 961  216.0782
 962  289.1953
 963  299.3169
 964  175.6182
 965  73.60811
 966  -41.81179
 967  -22.69374
 968  -2.971935
 969  117.8973
 970  190.3924
 971  159.7412
 972  56.00153
 973  51.92217
 974  55.07171
 975  66.77235
 976  1.28303
 977  107.3425
 978  127.4376
 979  65.61971
 980  65.365
 981  75.40971
 982  123.5692
 983  -33.08472
 984  11.94464
 985  42.62
 986  26.05096
 987  112.4107
 988  197.4898
 989  298.5031
 990  187.2854
 991  114.0454
 992  69.22357
 993  205.6843
 994  314.1638
 995  339.7741
 996  241.8847
 997  182.6056
 998  224.8966
 999  169.4592
1000  58.77962
1001  -69.60236
1002  -64.19305
1003  80.11783
1004  268.8539
1005  329.4571
1006  282.9085
1007  49.22451
1008  -92.05487
1009  -2.221424
1010  91.86313
1011  219.8385
1012  214.9621
1013  312.8681
1014  264.3869
1015  145.7652
1016  34.89425
1017  -20.42882
1018  17.29918
1019  74.77162
1020  80.72125
1021  151.8756
1022  232.9234
1023  282.9396
