# Input file       =  1189197207.127362_cleaned.dat
# Candidate        =  PSR_0332+5434
# Telescope        =  AR
# Epoch_topo       =  58007.856783881507
# Epoch_bary       =  N/A
# T_sample         =  0.002
# Data Folded      =  7208960
# Data Avg         =  0.0619089690608565
# Data StdDev      =  3.48863940497307 
# Profile Bins     =  512
# Profile Avg      =  871.681818642138 
# Profile StdDev   =  413.959076434938 
# Reduced chi-sqr  =  0.716
# Prob(Noise)      <  1   (~0.0 sigma)
# P_topo (ms)      =  714.46504928921   +/- 0.000837
# P'_topo (s/s)    =  -0                +/- 4.5e-10
# P''_topo (s/s^2) =  0                 +/- 2.02e-13
# P_bary (ms)      =  N/A
# P'_bary (s/s)    =  N/A
# P''_bary (s/s^2) =  N/A
# P_orb (s)        =  N/A
# asin(i)/c (s)    =  N/A
# eccentricity     =  N/A
# w (rad)          =  N/A
# T_peri           =  N/A
######################################################
   0  735.0327
   1  807.0947
   2  855.8279
   3  1033.034
   4  771.4079
   5  859.0004
   6  1109.545
   7  982.7093
   8  970.2927
   9  811.0773
  10  848.5898
  11  894.4636
  12  717.6362
  13  837.2637
  14  638.4606
  15  579.7925
  16  818.0095
  17  959.808
  18  1009.52
  19  1002.785
  20  694.1349
  21  624.5964
  22  885.9084
  23  991.3633
  24  947.4962
  25  939.14
  26  823.7339
  27  684.8616
  28  340.2104
  29  611.3378
  30  882.342
  31  608.4929
  32  657.8206
  33  611.7712
  34  804.0135
  35  891.2234
  36  763.59
  37  774.1611
  38  743.7263
  39  832.7094
  40  696.3872
  41  933.9564
  42  955.4615
  43  919.1448
  44  1001.107
  45  1008.836
  46  798.1212
  47  725.8793
  48  1170.606
  49  889.0851
  50  789.4496
  51  517.0762
  52  926.508
  53  715.7967
  54  611.4955
  55  960.032
  56  927.3323
  57  820.533
  58  689.492
  59  1137.145
  60  1177.399
  61  936.0383
  62  555.8291
  63  871.196
  64  873.3051
  65  675.6735
  66  749.9046
  67  543.054
  68  682.6565
  69  896.5553
  70  757.8068
  71  631.2536
  72  709.5226
  73  787.0409
  74  1131.506
  75  800.1946
  76  505.3878
  77  714.3353
  78  1065.049
  79  957.6332
  80  518.9123
  81  871.277
  82  781.0062
  83  1063.621
  84  770.6417
  85  945.5226
  86  813.3454
  87  477.9619
  88  793.5277
  89  985.9562
  90  1093.958
  91  1011.58
  92  977.6171
  93  890.2917
  94  751.6252
  95  985.5688
  96  1190.935
  97  1168.449
  98  745.6382
  99  953.94
 100  885.0813
 101  822.2907
 102  574.6334
 103  1099.179
 104  965.9412
 105  1425.587
 106  1050.548
 107  652.5097
 108  820.7916
 109  650.0189
 110  625.7573
 111  761.6314
 112  1219.923
 113  1207.11
 114  1141.917
 115  903.6133
 116  878.4157
 117  731.6501
 118  761.1706
 119  895.5202
 120  1167.036
 121  1137.901
 122  1115.823
 123  896.6094
 124  748.4156
 125  622.8441
 126  489.2268
 127  505.1818
 128  584.067
 129  836.1546
 130  990.3109
 131  776.8632
 132  840.564
 133  772.9101
 134  802.3758
 135  809.6904
 136  785.9459
 137  887.8799
 138  820.588
 139  1157.203
 140  1073.495
 141  1080.768
 142  549.4259
 143  777.5938
 144  1214.032
 145  1160.686
 146  802.7572
 147  685.9777
 148  1019.838
 149  780.717
 150  1220.801
 151  825.4203
 152  851.51
 153  1023.593
 154  1221.589
 155  1398.38
 156  852.7756
 157  664.1786
 158  812.4872
 159  1063.53
 160  976.002
 161  1058.535
 162  950.288
 163  920.2993
 164  1024.203
 165  717.2096
 166  1105.591
 167  1366.829
 168  1153.251
 169  743.9943
 170  1035.649
 171  828.5832
 172  789.2515
 173  908.573
 174  1099.734
 175  1293.375
 176  605.397
 177  671.2303
 178  493.8443
 179  609.6952
 180  853.7125
 181  1196.276
 182  1283.157
 183  1244.046
 184  891.6722
 185  976.2668
 186  669.2432
 187  577.936
 188  721.7142
 189  431.5738
 190  653.5327
 191  1024.565
 192  715.8599
 193  717.3127
 194  719.5455
 195  797.6368
 196  831.771
 197  724.5262
 198  880.4698
 199  919.0633
 200  673.5765
 201  713.5837
 202  626.4359
 203  783.6571
 204  901.8306
 205  797.3052
 206  1225.804
 207  662.6978
 208  768.1819
 209  686.2676
 210  871.8342
 211  613.2761
 212  556.5848
 213  677.9861
 214  1179.24
 215  1260.484
 216  760.1318
 217  1058.671
 218  466.2469
 219  998.3578
 220  1094.147
 221  1008.141
 222  1083.239
 223  923.5786
 224  843.5775
 225  532.1342
 226  638.3486
 227  791.4047
 228  1065.147
 229  919.1866
 230  1198.478
 231  1029.667
 232  745.5186
 233  905.3975
 234  830.5728
 235  682.7659
 236  812.9851
 237  1205.168
 238  1003.725
 239  1088.379
 240  1067.892
 241  871.2153
 242  674.9288
 243  618.6809
 244  635.4598
 245  616.0927
 246  1345.55
 247  949.6033
 248  1139.522
 249  878.0281
 250  783.7816
 251  870.0302
 252  591.7114
 253  829.1508
 254  996.6541
 255  1117.68
 256  1031.701
 257  852.4132
 258  1157.034
 259  1144.079
 260  700.0338
 261  915.6943
 262  910.97
 263  787.2027
 264  844.3569
 265  1099.381
 266  929.9131
 267  645.2915
 268  561.538
 269  893.5612
 270  1339.662
 271  1299.884
 272  2022.799
 273  2206.588
 274  2475.839
 275  2555.589
 276  2231.894
 277  1951.2
 278  1244.726
 279  1356.497
 280  835.9554
 281  1080.906
 282  1046.559
 283  787.4147
 284  700.1608
 285  1065.99
 286  1259.131
 287  1202.354
 288  1232.151
 289  1123.279
 290  965.2665
 291  922.2126
 292  890.0158
 293  821.417
 294  797.0892
 295  1067.662
 296  943.5973
 297  608.9766
 298  752.5127
 299  1177.132
 300  882.8065
 301  963.2274
 302  1132.659
 303  1224.971
 304  710.0271
 305  307.1343
 306  871.5895
 307  913.8091
 308  748.5751
 309  801.3275
 310  871.0115
 311  906.5468
 312  773.1201
 313  927.0938
 314  921.5206
 315  929.7847
 316  725.6469
 317  1061.845
 318  649.2181
 319  972.9614
 320  911.5308
 321  824.8101
 322  985.7554
 323  1014.384
 324  1041.693
 325  1078.101
 326  923.5629
 327  879.7061
 328  1175.69
 329  871.4082
 330  1011.405
 331  1124.943
 332  951.6992
 333  603.1265
 334  502.5616
 335  702.9554
 336  1027.738
 337  838.0846
 338  584.9669
 339  612.8395
 340  915.228
 341  1046.672
 342  603.4198
 343  379.4036
 344  532.4709
 345  564.4515
 346  954.9647
 347  825.0583
 348  1021.004
 349  1099.606
 350  801.2457
 351  903.5037
 352  711.1562
 353  885.7288
 354  988.1243
 355  752.5179
 356  553.2557
 357  598.3292
 358  809.9409
 359  795.4518
 360  686.1669
 361  756.8821
 362  816.1358
 363  700.6881
 364  770.132
 365  892.3854
 366  885.5777
 367  903.3433
 368  1139.374
 369  883.1185
 370  1119.462
 371  769.1824
 372  706.0242
 373  791.1233
 374  1026.554
 375  1239.76
 376  750.8386
 377  972.8524
 378  755.1251
 379  864.8135
 380  1000.592
 381  663.1373
 382  851.3264
 383  1008.307
 384  940.0571
 385  871.1138
 386  752.1243
 387  909.3679
 388  1173.557
 389  895.0018
 390  956.452
 391  1133.178
 392  802.6462
 393  465.809
 394  714.5509
 395  951.9106
 396  877.8527
 397  843.9901
 398  974.727
 399  689.8296
 400  265.8716
 401  349.5522
 402  750.0561
 403  932.781
 404  1251.004
 405  704.8039
 406  729.0196
 407  848.2169
 408  772.4908
 409  835.0925
 410  1030.157
 411  641.9276
 412  701.5128
 413  857.39
 414  829.5416
 415  1072.655
 416  924.1676
 417  559.7429
 418  660.132
 419  1000.047
 420  564.1374
 421  386.5424
 422  875.8596
 423  891.4683
 424  1022.533
 425  1128.484
 426  1197.89
 427  919.9971
 428  671.9988
 429  649.5607
 430  476.5146
 431  598.1849
 432  820.4559
 433  897.9594
 434  536.4082
 435  663.7532
 436  988.001
 437  737.4753
 438  349.3107
 439  478.3477
 440  553.6386
 441  633.1128
 442  731.981
 443  995.7099
 444  814.4752
 445  673.3382
 446  833.3605
 447  686.5053
 448  481.8058
 449  827.3343
 450  1076.047
 451  903.5428
 452  484.1245
 453  875.9254
 454  1293.087
 455  1163.153
 456  900.7681
 457  1095.377
 458  950.7795
 459  773.6179
 460  577.3739
 461  768.5114
 462  1102.717
 463  1221.083
 464  1421.506
 465  851.7104
 466  592.6412
 467  547.2661
 468  509.8731
 469  777.5524
 470  982.9476
 471  1098.482
 472  794.3235
 473  788.656
 474  893.7523
 475  841.4733
 476  539.8911
 477  455.3319
 478  681.4437
 479  921.6811
 480  1142.771
 481  1019.934
 482  751.7121
 483  554.9294
 484  610.326
 485  699.0432
 486  845.3726
 487  963.186
 488  900.7702
 489  810.8554
 490  904.2423
 491  589.6381
 492  592.4155
 493  840.3138
 494  598.1874
 495  673.6116
 496  776.1326
 497  730.7869
 498  634.9325
 499  523.9684
 500  637.947
 501  752.1602
 502  755.5475
 503  660.5765
 504  847.7355
 505  887.0325
 506  1006.254
 507  866.572
 508  829.5112
 509  1192.394
 510  1072.578
 511  784.9455
