# Input file       =  1189298030.121802_cleaned.dat
# Candidate        =  PSR_0332+5434
# Telescope        =  AR
# Epoch_topo       =  58009.023716687523
# Epoch_bary       =  N/A
# T_sample         =  0.002
# Data Folded      =  7340032
# Data Avg         =  0.0291376933050092
# Data StdDev      =  2.39524774438996 
# Profile Bins     =  512
# Profile Avg      =  417.037831629289 
# Profile StdDev   =  286.790285310411 
# Reduced chi-sqr  =  1.570
# Prob(Noise)      <  2.67e-15   (~7.8 sigma)
# P_topo (ms)      =  714.465346757425  +/- 0.000183
# P'_topo (s/s)    =  -0                +/- 9.65e-11
# P''_topo (s/s^2) =  0                 +/- 4.26e-14
# P_bary (ms)      =  N/A
# P'_bary (s/s)    =  N/A
# P''_bary (s/s^2) =  N/A
# P_orb (s)        =  N/A
# asin(i)/c (s)    =  N/A
# eccentricity     =  N/A
# w (rad)          =  N/A
# T_peri           =  N/A
######################################################
   0  472.4324
   1  409.6023
   2  349.0397
   3  504.5786
   4  331.1944
   5  284.7133
   6  360.0562
   7  193.1019
   8  209.0993
   9  388.843
  10  158.6646
  11  190.6778
  12  -24.63614
  13  176.932
  14  559.7015
  15  838.6882
  16  507.2239
  17  467.0169
  18  574.0043
  19  501.6892
  20  564.1445
  21  641.4671
  22  711.5098
  23  481.1263
  24  121.3355
  25  69.15225
  26  401.8116
  27  423.5266
  28  290.7058
  29  230.5161
  30  242.7201
  31  321.006
  32  290.7768
  33  126.2231
  34  -8.78476
  35  362.7628
  36  622.6503
  37  348.122
  38  212.236
  39  162.0896
  40  98.78466
  41  122.2803
  42  262.4115
  43  535.1096
  44  425.1633
  45  172.293
  46  191.4835
  47  31.21187
  48  222.5444
  49  335.9751
  50  214.445
  51  289.0764
  52  299.0153
  53  178.6259
  54  482.2263
  55  435.655
  56  452.8923
  57  270.9588
  58  279.5786
  59  191.0871
  60  460.6009
  61  715.8634
  62  444.9288
  63  851.2551
  64  454.0181
  65  292.4738
  66  407.7255
  67  533.5053
  68  441.8815
  69  395.6237
  70  557.5355
  71  458.6255
  72  561.4695
  73  466.1901
  74  409.1406
  75  250.5435
  76  363.1305
  77  677.9595
  78  428.8907
  79  649.1258
  80  360.7192
  81  228.8436
  82  344.4768
  83  398.6495
  84  392.0008
  85  637.1658
  86  832.5933
  87  242.1655
  88  413.3319
  89  579.3629
  90  428.455
  91  127.1257
  92  52.19811
  93  13.52129
  94  332.499
  95  647.7311
  96  442.4657
  97  637.6906
  98  210.897
  99  395.5388
 100  563.0878
 101  607.4924
 102  589.6398
 103  334.3041
 104  703.598
 105  716.863
 106  632.9202
 107  788.2268
 108  807.1004
 109  354.6281
 110  513.3747
 111  184.3496
 112  207.0877
 113  360.948
 114  282.4263
 115  263.076
 116  347.5557
 117  203.7072
 118  293.1707
 119  359.5354
 120  352.4337
 121  335.0872
 122  356.2642
 123  462.8405
 124  253.7003
 125  -59.37851
 126  290.5994
 127  551.0053
 128  576.6207
 129  431.3309
 130  501.2804
 131  327.6929
 132  279.2868
 133  123.9225
 134  452.2869
 135  97.97147
 136  288.7492
 137  434.2868
 138  458.1983
 139  93.08284
 140  119.0724
 141  139.0911
 142  297.2171
 143  348.8429
 144  94.99911
 145  259.4773
 146  305.4088
 147  290.2027
 148  321.6885
 149  112.2514
 150  144.9916
 151  74.04866
 152  371.2985
 153  439.3911
 154  507.9803
 155  291.4679
 156  158.4049
 157  243.2987
 158  279.449
 159  -15.69249
 160  304.1253
 161  541.0632
 162  489.7432
 163  512.1759
 164  516.2821
 165  662.4172
 166  359.7419
 167  204.513
 168  411.5412
 169  500.3795
 170  519.163
 171  417.2833
 172  154.0832
 173  569.6985
 174  267.0685
 175  124.8384
 176  389.7314
 177  465.1738
 178  317.1652
 179  128.2745
 180  381.1745
 181  404.973
 182  279.4733
 183  193.4934
 184  294.7703
 185  659.9701
 186  494.2303
 187  313.585
 188  508.0686
 189  348
 190  378.3552
 191  315.5177
 192  449.6079
 193  464.6831
 194  193.3602
 195  501.0576
 196  520.9512
 197  484.9707
 198  342.0983
 199  178.6968
 200  583.2621
 201  837.7852
 202  641.2161
 203  337.2635
 204  373.2995
 205  204.107
 206  149.9505
 207  655.2352
 208  925.47
 209  853.835
 210  671.5268
 211  643.5214
 212  381.2665
 213  198.0734
 214  481.4643
 215  611.5357
 216  416.5897
 217  526.6635
 218  703.3616
 219  702.3443
 220  775.2492
 221  528.8269
 222  392.3126
 223  560.7818
 224  596.8445
 225  737.1951
 226  256.926
 227  157.5855
 228  346.137
 229  231.7916
 230  87.95669
 231  265.9411
 232  367.5448
 233  241.2533
 234  136.9179
 235  343.3416
 236  192.0717
 237  183.6526
 238  396.1141
 239  429.6251
 240  366.1874
 241  170.3443
 242  187.1168
 243  463.7324
 244  253.559
 245  448.8013
 246  472.8387
 247  450.9331
 248  414.459
 249  359.2883
 250  453.0154
 251  342.9759
 252  339.9842
 253  145.343
 254  36.99693
 255  505.1855
 256  536.5789
 257  436.0073
 258  425.22
 259  452.8341
 260  662.1263
 261  539.4477
 262  315.8243
 263  320.9669
 264  299.1921
 265  507.3968
 266  573.2778
 267  580.9883
 268  450.269
 269  398.8802
 270  118.8635
 271  12.67977
 272  402.024
 273  606.5623
 274  189.0691
 275  184.4773
 276  81.47069
 277  145.6992
 278  91.14861
 279  205.2525
 280  258.1768
 281  514.2808
 282  786.5054
 283  585.1038
 284  583.4008
 285  683.5775
 286  590.3128
 287  138.1158
 288  308.9443
 289  365.1404
 290  196.5972
 291  348.6277
 292  272.9778
 293  187.5538
 294  551.6862
 295  514.9058
 296  276.2696
 297  398.399
 298  334.983
 299  372.4223
 300  420.7066
 301  503.1491
 302  359.6007
 303  530.2714
 304  462.7664
 305  482.4084
 306  356.7694
 307  340.3225
 308  507.9738
 309  751.6401
 310  604.5695
 311  550.4514
 312  375.4776
 313  491.5822
 314  431.4482
 315  373.6992
 316  393.8349
 317  212.453
 318  329.6636
 319  650.7545
 320  125.2202
 321  -90.84278
 322  -146.0956
 323  17.84392
 324  253.3083
 325  269.5149
 326  285.0645
 327  351.6449
 328  423.0827
 329  489.2763
 330  361.552
 331  183.8908
 332  279.4122
 333  192.8596
 334  115.2822
 335  322.361
 336  428.9106
 337  327.7759
 338  505.3547
 339  527.4084
 340  428.7757
 341  192.5977
 342  -34.08254
 343  165.8566
 344  58.11594
 345  -55.44433
 346  255.3698
 347  356.3991
 348  507.965
 349  626.3658
 350  305.0214
 351  522.1576
 352  765.4366
 353  413.4086
 354  361.6224
 355  482.6472
 356  434.9601
 357  617.9838
 358  321.0886
 359  411.2788
 360  360.3624
 361  176.4232
 362  401.2159
 363  299.9272
 364  287.5385
 365  -124.33
 366  303.2957
 367  565.2119
 368  519.7066
 369  238.3766
 370  367.3158
 371  234.2502
 372  451.3266
 373  347.2404
 374  477.5239
 375  731.0887
 376  546.1078
 377  534.2855
 378  629.73
 379  684.6647
 380  277.7893
 381  339.4181
 382  732.591
 383  806.2369
 384  695.1395
 385  340.2774
 386  110.4681
 387  292.6197
 388  666.6556
 389  314.4708
 390  125.5333
 391  421.8425
 392  421.1986
 393  401.3699
 394  369.6885
 395  394.2935
 396  540.7288
 397  617.2034
 398  669.7155
 399  555.2194
 400  316.346
 401  533.0608
 402  584.9119
 403  503.1717
 404  523.7164
 405  395.2583
 406  347.3204
 407  222.2482
 408  62.9859
 409  162.7687
 410  362.0428
 411  272.3789
 412  95.93288
 413  332.8998
 414  559.7097
 415  248.3308
 416  252.37
 417  410.1979
 418  420.3514
 419  634.6154
 420  356.1646
 421  514.6742
 422  311.554
 423  498.4416
 424  534.4919
 425  295.52
 426  43.2938
 427  69.90195
 428  298.2334
 429  446.5607
 430  494.3879
 431  598.2271
 432  762.5186
 433  922.7349
 434  985.8823
 435  1222.969
 436  1795.169
 437  1846.798
 438  2174.308
 439  2435.2
 440  1885.9
 441  1313.458
 442  849.5262
 443  281.8935
 444  109.5268
 445  51.37298
 446  466.1012
 447  739.4374
 448  700.6741
 449  597.9373
 450  534.6479
 451  387.8475
 452  237.4536
 453  125.5342
 454  711.5923
 455  936.7757
 456  576.7026
 457  481.5695
 458  471.0648
 459  418.8342
 460  161.0405
 461  197.2395
 462  728.4833
 463  359.1871
 464  360.284
 465  182.6943
 466  294.187
 467  336.3076
 468  407.3457
 469  478.3608
 470  243.5984
 471  483.2292
 472  251.6074
 473  458.6302
 474  595.0115
 475  445.9027
 476  150.9647
 477  330.7219
 478  859.2468
 479  672.3807
 480  782.6895
 481  675.0543
 482  670.4571
 483  696.1204
 484  589.8179
 485  153.4134
 486  240.3582
 487  176.0765
 488  787.8947
 489  982.6578
 490  770.7656
 491  556.5875
 492  715.9661
 493  390.4421
 494  503.5274
 495  485.3895
 496  655.6111
 497  624.3008
 498  424.78
 499  432.5671
 500  541.0781
 501  418.1404
 502  499.7484
 503  494.1494
 504  579.8992
 505  872.0284
 506  626.6451
 507  166.0142
 508  695.9806
 509  580.8873
 510  382.5139
 511  514.2334
