# Input file       =  1189111040.110165_cleaned.dat
# Candidate        =  PSR_0332+5434
# Telescope        =  AR
# Epoch_topo       =  58006.859480441723
# Epoch_bary       =  N/A
# T_sample         =  0.002
# Data Folded      =  7143424
# Data Avg         =  0.11640823735864 
# Data StdDev      =  3.26472534504755 
# Profile Bins     =  1024
# Profile Avg      =  812.049590153658 
# Profile StdDev   =  272.677866157642 
# Reduced chi-sqr  =  0.717
# Prob(Noise)      <  1   (~0.0 sigma)
# P_topo (ms)      =  714.464824921333  +/- 0.000216
# P'_topo (s/s)    =  -0                +/- 1.17e-10
# P''_topo (s/s^2) =  0                 +/- 5.32e-14
# P_bary (ms)      =  N/A
# P'_bary (s/s)    =  N/A
# P''_bary (s/s^2) =  N/A
# P_orb (s)        =  N/A
# asin(i)/c (s)    =  N/A
# eccentricity     =  N/A
# w (rad)          =  N/A
# T_peri           =  N/A
######################################################
   0  639.4479
   1  641.1751
   2  794.655
   3  838.4257
   4  896.5614
   5  849.8138
   6  830.9703
   7  795.9796
   8  909.2226
   9  1022.201
  10  1207.608
  11  1198.364
  12  1227.774
  13  1133.028
  14  1097.802
  15  975.6132
  16  905.7225
  17  807.213
  18  670.501
  19  650.4368
  20  687.3842
  21  769.3895
  22  841.8234
  23  978.2396
  24  940.6078
  25  909.4218
  26  961.4355
  27  952.3781
  28  802.1608
  29  781.954
  30  831.4551
  31  715.9251
  32  754.7059
  33  922.5635
  34  1018.617
  35  884.6069
  36  849.5714
  37  873.8812
  38  814.9114
  39  843.5276
  40  967.3519
  41  981.7078
  42  833.4688
  43  803.6425
  44  851.421
  45  816.1285
  46  773.6653
  47  772.1
  48  788.4487
  49  756.8076
  50  833.7486
  51  796.054
  52  768.0305
  53  778.3469
  54  894.7219
  55  877.3472
  56  834.7916
  57  824.6063
  58  807.8383
  59  798.0411
  60  754.6454
  61  725.0901
  62  725.0527
  63  838.2988
  64  905.3518
  65  784.7863
  66  620.9697
  67  682.2208
  68  714.706
  69  758.5392
  70  754.8712
  71  846.8702
  72  743.2405
  73  783.0217
  74  816.6819
  75  938.377
  76  917.1591
  77  933.5418
  78  895.2493
  79  818.6331
  80  714.4985
  81  657.1902
  82  642.275
  83  730.3654
  84  739.426
  85  815.356
  86  762.7994
  87  793.21
  88  779.1405
  89  850.6501
  90  866.377
  91  917.188
  92  923.2007
  93  843.8994
  94  929.3583
  95  1002.82
  96  876.6075
  97  641.1056
  98  631.4678
  99  722.3911
 100  812.0326
 101  977.2164
 102  1030.143
 103  938.5466
 104  861.7132
 105  838.3196
 106  823.9628
 107  787.8532
 108  824.2621
 109  794.6458
 110  737.0249
 111  758.3975
 112  847.813
 113  915.3636
 114  864.7703
 115  855.0137
 116  743.5106
 117  739.3582
 118  756.6437
 119  792.4356
 120  724.3377
 121  751.3259
 122  907.0236
 123  950.9539
 124  868.0116
 125  874.9604
 126  841.313
 127  815.9827
 128  718.0626
 129  825.9107
 130  834.1528
 131  850.7966
 132  746.1314
 133  694.7253
 134  679.1323
 135  757.4797
 136  925.5883
 137  927.1713
 138  940.9293
 139  956.6091
 140  834.834
 141  772.9298
 142  799.0388
 143  986.0526
 144  941.9545
 145  798.363
 146  813.1652
 147  800.6718
 148  867.0856
 149  809.7717
 150  848.3402
 151  762.2139
 152  808.2946
 153  747.1384
 154  736.315
 155  722.7432
 156  770.3456
 157  755.2283
 158  807.0153
 159  792.9414
 160  783.1541
 161  655.605
 162  646.3017
 163  685.1118
 164  781.0193
 165  692.8458
 166  676.0208
 167  760.4008
 168  875.913
 169  848.902
 170  816.5095
 171  766.5294
 172  825.9786
 173  892.501
 174  887.2343
 175  795.6872
 176  714.564
 177  772.8004
 178  875.1559
 179  954.2322
 180  906.4996
 181  877.4363
 182  927.2359
 183  1007.653
 184  953.4483
 185  888.0159
 186  782.8997
 187  809.929
 188  866.4507
 189  918.5604
 190  780.3276
 191  721.6528
 192  607.2872
 193  631.3888
 194  639.3068
 195  645.7582
 196  697.8405
 197  777.3762
 198  881.3837
 199  839.0397
 200  867.723
 201  950.8751
 202  948.6073
 203  985.8749
 204  979.3986
 205  1007.885
 206  783.1495
 207  777.3419
 208  848.7932
 209  931.9194
 210  898.6481
 211  865.9062
 212  818.7209
 213  661.428
 214  576.9386
 215  625.1761
 216  582.2017
 217  575.2665
 218  690.4787
 219  832.8647
 220  897.5887
 221  1035.966
 222  1019.368
 223  984.3478
 224  933.5762
 225  1017.108
 226  918.6875
 227  839.6407
 228  827.3173
 229  884.3914
 230  793.6589
 231  801.8682
 232  801.1225
 233  712.7736
 234  730.453
 235  802.0648
 236  936.1661
 237  821.8658
 238  838.7847
 239  841.2021
 240  861.4479
 241  882.4599
 242  951.8854
 243  884.7974
 244  732.1333
 245  591.6298
 246  560.1871
 247  574.2007
 248  623.3326
 249  701.2034
 250  581.3396
 251  633.2108
 252  739.7254
 253  748.5512
 254  789.1299
 255  690.4737
 256  861.7076
 257  886.0731
 258  900.5887
 259  858.7007
 260  794.3994
 261  751.9269
 262  791.0173
 263  835.3359
 264  875.4786
 265  782.7089
 266  810.077
 267  747.1306
 268  670.9975
 269  718.5917
 270  761.9089
 271  747.8759
 272  785.7184
 273  880.9447
 274  986.2413
 275  774.7814
 276  589.8803
 277  627.282
 278  694.3458
 279  799.9686
 280  680.2239
 281  688.6271
 282  651.4023
 283  626.2211
 284  643.629
 285  709.5941
 286  900.8094
 287  999.5021
 288  959.645
 289  894.1616
 290  772.4204
 291  645.2497
 292  601.2392
 293  650.5219
 294  695.7919
 295  631.5804
 296  744.9253
 297  859.7746
 298  855.771
 299  842.9032
 300  888.2118
 301  879.4971
 302  770.3021
 303  804.3811
 304  935.119
 305  995.1452
 306  933.7567
 307  902.6243
 308  843.2506
 309  828.3092
 310  786.8559
 311  755.1756
 312  776.6387
 313  872.8964
 314  945.4266
 315  850.9848
 316  740.9097
 317  755.2811
 318  801.3972
 319  865.743
 320  943.7095
 321  970.1918
 322  917.0976
 323  727.6394
 324  645.5797
 325  623.6793
 326  726.3602
 327  810.4816
 328  972.3238
 329  986.629
 330  990.543
 331  901.2438
 332  969.9088
 333  847.7023
 334  918.9789
 335  854.4789
 336  904.2233
 337  829.2186
 338  833.5872
 339  719.5402
 340  703.1465
 341  855.6069
 342  1013.769
 343  1008.925
 344  876.3655
 345  726.8171
 346  601.6124
 347  632.9013
 348  756.4524
 349  792.3892
 350  738.6088
 351  690.759
 352  693.9795
 353  702.5537
 354  692.5576
 355  637.5884
 356  594.9231
 357  693.6203
 358  876.0374
 359  895.1674
 360  670.968
 361  634.5526
 362  710.3943
 363  784.6692
 364  836.6733
 365  937.6138
 366  960.7452
 367  914.6917
 368  935.8842
 369  894.7478
 370  853.1152
 371  873.1209
 372  910.9178
 373  882.2767
 374  681.3092
 375  699.0065
 376  755.7922
 377  928.2841
 378  899.6787
 379  938.8723
 380  907.818
 381  928.9581
 382  961.2626
 383  852.5914
 384  769.9167
 385  646.6953
 386  742.6506
 387  711.1624
 388  697.8659
 389  775.3669
 390  803.8625
 391  737.5449
 392  682.4962
 393  759.5236
 394  767.4844
 395  817.5178
 396  889.7624
 397  1026.134
 398  1049.159
 399  1019.45
 400  1000.766
 401  885.6681
 402  958.3329
 403  952.2369
 404  869.3234
 405  724.498
 406  675.993
 407  759.4552
 408  722.0225
 409  694.3961
 410  686.1387
 411  630.8843
 412  745.0253
 413  846.1
 414  849.4531
 415  788.791
 416  780.0183
 417  841.3729
 418  730.7949
 419  610.2
 420  583.4028
 421  594.2748
 422  710.7092
 423  680.2261
 424  621.7065
 425  623.0042
 426  824.356
 427  913.1177
 428  872.4453
 429  809.5392
 430  880.1238
 431  820.3981
 432  742.4623
 433  726.5232
 434  883.5961
 435  901.2601
 436  867.0141
 437  801.0505
 438  804.6387
 439  842.2274
 440  929.7296
 441  958.0104
 442  910.4706
 443  774.8542
 444  705.4858
 445  570.1372
 446  550.0654
 447  561.072
 448  651.3971
 449  729.3162
 450  768.0532
 451  765.9865
 452  759.1802
 453  968.228
 454  1065.52
 455  1075.417
 456  866.492
 457  727.0358
 458  591.4091
 459  607.8042
 460  776.6791
 461  1040.479
 462  998.2533
 463  932.3907
 464  818.299
 465  752.4763
 466  702.225
 467  811.3391
 468  796.6451
 469  722.9417
 470  694.2104
 471  849.4441
 472  804.6644
 473  660.7843
 474  557.9018
 475  742.2462
 476  817.5618
 477  844.473
 478  908.1403
 479  893.9084
 480  769.3857
 481  710.9654
 482  756.1784
 483  758.7146
 484  704.9181
 485  813.4413
 486  858.3802
 487  819.3416
 488  870.3752
 489  884.86
 490  805.4942
 491  654.1418
 492  760.949
 493  734.5152
 494  627.6522
 495  509.0023
 496  670.8265
 497  719.4879
 498  726.7693
 499  756.248
 500  882.3212
 501  928.9938
 502  1033.378
 503  1056.157
 504  1003.225
 505  958.4554
 506  1009.944
 507  959.592
 508  832.0365
 509  754.4333
 510  766.0112
 511  799.6044
 512  735.4487
 513  762.5341
 514  841.0889
 515  840.9155
 516  665.0747
 517  541.8127
 518  590.2693
 519  791.3939
 520  892.2516
 521  861.6502
 522  743.0782
 523  686.9802
 524  670.7255
 525  579.8409
 526  637.9443
 527  713.8149
 528  788.3646
 529  803.4113
 530  772.6519
 531  706.3297
 532  715.7314
 533  890.8859
 534  982.2913
 535  897.429
 536  798.0633
 537  755.3645
 538  720.4042
 539  669.0905
 540  640.5035
 541  669.3571
 542  655.5914
 543  675.5539
 544  767.5574
 545  765.7661
 546  820.5543
 547  797.4034
 548  818.5654
 549  755.2579
 550  777.9631
 551  851.9423
 552  820.5455
 553  720.9554
 554  619.1491
 555  540.6085
 556  509.4404
 557  633.296
 558  752.5259
 559  871.3862
 560  904.7056
 561  966.8166
 562  915.765
 563  1017.917
 564  1062.039
 565  992.4105
 566  853.2274
 567  786.6127
 568  757.7085
 569  593.3195
 570  568.5739
 571  706.8837
 572  877.7187
 573  910.7106
 574  910.2842
 575  869.0222
 576  781.9258
 577  712.5624
 578  754.6685
 579  706.0241
 580  669.7025
 581  694.6912
 582  741.9814
 583  792.3006
 584  811.707
 585  888.3795
 586  927.7073
 587  1008.903
 588  977.0574
 589  949.7258
 590  905.9413
 591  964.5192
 592  895.6721
 593  928.9443
 594  864.8341
 595  849.1854
 596  760.8568
 597  741.7352
 598  700.2886
 599  668.5883
 600  831.3189
 601  971.0975
 602  989.5942
 603  810.3521
 604  729.4646
 605  819.8105
 606  935.893
 607  979.2728
 608  1007.114
 609  959.7906
 610  791.817
 611  656.4468
 612  606.3195
 613  714.9633
 614  687.4094
 615  704.3382
 616  627.1316
 617  811.8599
 618  845.3973
 619  856.1487
 620  702.845
 621  654.1644
 622  726.1895
 623  757.8394
 624  800.4907
 625  791.509
 626  902.9462
 627  886.4235
 628  955.654
 629  1057.081
 630  1068.478
 631  1079.932
 632  1078.603
 633  1124.789
 634  1043.668
 635  953.4336
 636  941.8522
 637  1018.228
 638  1085.486
 639  1184.882
 640  1228.612
 641  1224.53
 642  1324.882
 643  1398.887
 644  1521.863
 645  1430.002
 646  1541.19
 647  1461.824
 648  1447.264
 649  1316.224
 650  1152.514
 651  970.0133
 652  870.7303
 653  852.9997
 654  760.6455
 655  685.7712
 656  753.7296
 657  747.1492
 658  707.0084
 659  773.9174
 660  857.3629
 661  941.9481
 662  985.8588
 663  1063.186
 664  988.0545
 665  862.7936
 666  862.175
 667  882.0094
 668  860.2869
 669  915.8948
 670  955.619
 671  941.0624
 672  801.8386
 673  862.0619
 674  906.4921
 675  797.4629
 676  673.1537
 677  668.075
 678  745.9172
 679  779.9647
 680  798.606
 681  777.4515
 682  816.8168
 683  787.8685
 684  788.7839
 685  742.102
 686  697.8118
 687  795.9258
 688  825.4073
 689  826.0369
 690  708.2668
 691  677.1714
 692  655.2344
 693  674.8191
 694  738.7537
 695  791.9641
 696  841.7695
 697  857.7924
 698  834.244
 699  753.4302
 700  681.6544
 701  721.7266
 702  813.9007
 703  905.679
 704  924.8571
 705  894.0853
 706  816.3557
 707  916.7358
 708  852.8456
 709  852.1788
 710  796.5518
 711  874.2863
 712  908.75
 713  855.7826
 714  955.2442
 715  970.0237
 716  931.2997
 717  821.9199
 718  803.1789
 719  699.7692
 720  610.3276
 721  507.7445
 722  606.5814
 723  598.3693
 724  606.9139
 725  567.8066
 726  666.2882
 727  781.5688
 728  835.4304
 729  722.1223
 730  724.9371
 731  764.6647
 732  874.7408
 733  848.1765
 734  954.8095
 735  1065.062
 736  1031.729
 737  888.9028
 738  854.0094
 739  869.7925
 740  789.9385
 741  641.9644
 742  735.0869
 743  783.8056
 744  749.0273
 745  739.0395
 746  700.5229
 747  706.8854
 748  667.8402
 749  741.8565
 750  783.7195
 751  773.2367
 752  760.7887
 753  743.5194
 754  691.569
 755  770.3452
 756  826.403
 757  775.4141
 758  739.2853
 759  741.9786
 760  734.3036
 761  666.8884
 762  671.3143
 763  777.3182
 764  844.2331
 765  825.9861
 766  809.3552
 767  714.5586
 768  645.2095
 769  741.5471
 770  805.611
 771  748.963
 772  672.2906
 773  778.9343
 774  938.8123
 775  960.5326
 776  934.8726
 777  865.8555
 778  782.6832
 779  777.7824
 780  696.9347
 781  719.9577
 782  805.1799
 783  903.1898
 784  785.4304
 785  754.0643
 786  838.6226
 787  852.3697
 788  666.5509
 789  541.446
 790  620.1349
 791  638.459
 792  689.8858
 793  754.0971
 794  876.2839
 795  787.8135
 796  746.9855
 797  751.662
 798  720.939
 799  741.1785
 800  885.155
 801  985.034
 802  854.8051
 803  726.6038
 804  657.6945
 805  594.2935
 806  651.9547
 807  752.9528
 808  741.9745
 809  722.3229
 810  703.4106
 811  706.3007
 812  646.779
 813  728.0153
 814  825.8481
 815  739.4391
 816  750.4483
 817  775.9286
 818  794.3199
 819  720.7805
 820  757.5776
 821  875.9199
 822  795.585
 823  802.275
 824  875.1342
 825  911.9849
 826  777.1805
 827  796.1629
 828  859.9836
 829  916.1675
 830  925.065
 831  915.772
 832  771.4398
 833  632.9718
 834  667.6991
 835  749.1877
 836  849.3207
 837  862.6465
 838  886.7773
 839  868.5981
 840  872.7861
 841  885.1556
 842  841.3819
 843  679.7404
 844  672.3987
 845  717.4934
 846  778.2016
 847  848.3798
 848  924.7635
 849  801.3073
 850  768.6635
 851  840.9437
 852  948.5284
 853  827.2016
 854  726.6669
 855  864.6353
 856  891.2195
 857  805.2603
 858  705.5273
 859  764.8759
 860  746.6656
 861  715.8964
 862  725.0579
 863  690.2104
 864  664.1414
 865  707.282
 866  773.0352
 867  767.1462
 868  709.3265
 869  807.7495
 870  839.9374
 871  857.522
 872  908.9995
 873  899.2368
 874  806.4427
 875  711.6951
 876  784.1572
 877  767.4711
 878  709.184
 879  711.6249
 880  668.1417
 881  673.2635
 882  679.8286
 883  733.8293
 884  827.7437
 885  816.1345
 886  773.5474
 887  685.1723
 888  670.4709
 889  788.5717
 890  850.6801
 891  804.7422
 892  685.8229
 893  660.4296
 894  729.1406
 895  717.2838
 896  761.8793
 897  797.0803
 898  818.4877
 899  732.8823
 900  622.0682
 901  622.0122
 902  663.4131
 903  765.7504
 904  736.1993
 905  666.7236
 906  627.3959
 907  655.6044
 908  773.0985
 909  833.0147
 910  801.7654
 911  672.4902
 912  598.7476
 913  688.5723
 914  830.2783
 915  847.3879
 916  856.1344
 917  810.2117
 918  848.8105
 919  841.6007
 920  950.5736
 921  962.7019
 922  839.6671
 923  766.8445
 924  851.4792
 925  901.7442
 926  964.2874
 927  928.1728
 928  953.5945
 929  914.1441
 930  1034.271
 931  1064.516
 932  941.194
 933  914.5015
 934  984.0594
 935  1024.463
 936  853.5891
 937  681.258
 938  712.1718
 939  827.3978
 940  887.6006
 941  907.8599
 942  764.6691
 943  725.5006
 944  641.1558
 945  662.5721
 946  689.7281
 947  841.2648
 948  869.386
 949  815.7222
 950  737.9913
 951  831.9141
 952  853.1572
 953  880.6373
 954  917.2047
 955  924.183
 956  770.6608
 957  676.3181
 958  673.4161
 959  668.5969
 960  735.1456
 961  830.9294
 962  929.6788
 963  860.7753
 964  804.8749
 965  774.0056
 966  736.9085
 967  885.6922
 968  1009.199
 969  1123.015
 970  914.0487
 971  879.9969
 972  811.5767
 973  764.4353
 974  699.0236
 975  748.2808
 976  782.5767
 977  744.1738
 978  752.3864
 979  792.4648
 980  856.6142
 981  929.7498
 982  898.3871
 983  709.0603
 984  651.4125
 985  738.6613
 986  860.8091
 987  889.4171
 988  881.8972
 989  888.8863
 990  802.334
 991  784.9496
 992  923.5294
 993  994.6437
 994  899.4918
 995  738.6368
 996  641.3726
 997  680.2821
 998  764.7911
 999  926.2971
1000  897.7526
1001  844.0178
1002  890.118
1003  931.0792
1004  849.9517
1005  760.6482
1006  722.6771
1007  820.5583
1008  933.6986
1009  907.6791
1010  658.9773
1011  592.9781
1012  765.5339
1013  936.5803
1014  991.5756
1015  901.1127
1016  912.8249
1017  810.0428
1018  822.7005
1019  881.835
1020  978.2162
1021  818.7674
1022  702.424
1023  629.7616
