# Input file       =  1189369560.126245_cleaned.dat
# Candidate        =  PSR_0332+5434
# Telescope        =  AR
# Epoch_topo       =  58009.851610257465
# Epoch_bary       =  N/A
# T_sample         =  0.002
# Data Folded      =  7208960
# Data Avg         =  0.00727684848580209
# Data StdDev      =  1.00004745263436 
# Profile Bins     =  512
# Profile Avg      =  102.457059711778 
# Profile StdDev   =  118.664806484013 
# Reduced chi-sqr  =  1.659
# Prob(Noise)      <  4.2e-19   (~8.9 sigma)
# P_topo (ms)      =  714.465547120968  +/- 0.000223
# P'_topo (s/s)    =  -0                +/- 1.2e-10
# P''_topo (s/s^2) =  0                 +/- 5.38e-14
# P_bary (ms)      =  N/A
# P'_bary (s/s)    =  N/A
# P''_bary (s/s^2) =  N/A
# P_orb (s)        =  N/A
# asin(i)/c (s)    =  N/A
# eccentricity     =  N/A
# w (rad)          =  N/A
# T_peri           =  N/A
######################################################
   0  71.1671
   1  115.6347
   2  47.53495
   3  -7.60546
   4  12.44755
   5  141.9881
   6  104.185
   7  6.092505
   8  44.5363
   9  -27.08817
  10  -7.291583
  11  -36.19977
  12  85.5321
  13  -3.688938
  14  50.55703
  15  19.44226
  16  73.38956
  17  111.5857
  18  117.3185
  19  0.6605648
  20  44.82726
  21  143.5396
  22  152.3908
  23  200.7398
  24  72.76823
  25  135.4437
  26  92.40909
  27  164.8436
  28  179.1662
  29  180.9685
  30  106.9171
  31  37.29451
  32  57.77758
  33  124.8686
  34  79.28037
  35  47.86946
  36  64.55406
  37  127.9904
  38  175.2982
  39  185.4021
  40  80.23976
  41  207.6171
  42  296.7479
  43  308.1501
  44  328.1317
  45  410.9636
  46  618.7235
  47  846.789
  48  831.3933
  49  793.0607
  50  694.5836
  51  427.2148
  52  196.3531
  53  98.49142
  54  27.29665
  55  90.22393
  56  58.64756
  57  164.4242
  58  133.8854
  59  164.4951
  60  200.5187
  61  307.9737
  62  242.1141
  63  158.2639
  64  99.19709
  65  109.3343
  66  156.001
  67  109.9668
  68  -15.6729
  69  73.60394
  70  162.6922
  71  -17.53586
  72  -1.323598
  73  -18.57359
  74  8.848526
  75  -76.00304
  76  14.36334
  77  216.5174
  78  190.1478
  79  122.5303
  80  161.6184
  81  220.2618
  82  244.9171
  83  212.4865
  84  105.6247
  85  113.0809
  86  48.16371
  87  145.7749
  88  254.5023
  89  312.6379
  90  229.1845
  91  156.5585
  92  149.3644
  93  100.3039
  94  83.50308
  95  232.9717
  96  144.4357
  97  72.71564
  98  125.0024
  99  177.6095
 100  214.0595
 101  69.51316
 102  -23.30712
 103  -53.52137
 104  2.212736
 105  97.89704
 106  182.5922
 107  162.1014
 108  137.8332
 109  86.75711
 110  98.59106
 111  137.7389
 112  243.6931
 113  139.181
 114  82.5146
 115  -9.907248
 116  70.19909
 117  107.8073
 118  161.2029
 119  309.5268
 120  231.1807
 121  61.14989
 122  100.6175
 123  29.43938
 124  -25.76889
 125  100.7828
 126  93.87511
 127  -16.41562
 128  125.6916
 129  226.6319
 130  190.9967
 131  56.04159
 132  55.974
 133  51.32485
 134  127.8651
 135  170.0478
 136  107.5775
 137  47.29905
 138  72.89925
 139  79.09112
 140  42.6054
 141  75.75513
 142  -7.577353
 143  101.3042
 144  20.7883
 145  -28.01557
 146  17.93713
 147  -18.30362
 148  105.1677
 149  148.4115
 150  103.1357
 151  146.3882
 152  151.0852
 153  -29.32448
 154  125.8289
 155  100.6302
 156  225.7765
 157  248.0541
 158  21.49728
 159  134.9878
 160  35.02319
 161  -28.34154
 162  98.6432
 163  250.151
 164  83.76324
 165  -24.35065
 166  7.589725
 167  -83.45805
 168  -77.96761
 169  -20.58499
 170  168.4644
 171  184.6527
 172  11.84314
 173  -14.59735
 174  25.47207
 175  175.6726
 176  117.84
 177  91.40073
 178  -25.13093
 179  60.46181
 180  138.2239
 181  106.3659
 182  104.8057
 183  114.7838
 184  246.9709
 185  206.5025
 186  222.7842
 187  99.34983
 188  20.35344
 189  90.17341
 190  135.3256
 191  255.8684
 192  113.6786
 193  97.16388
 194  48.3375
 195  7.73384
 196  -146.0041
 197  -38.19143
 198  51.17178
 199  51.72939
 200  -21.05528
 201  -74.76231
 202  -49.20993
 203  72.57509
 204  209.021
 205  68.85312
 206  93.30074
 207  140.2207
 208  57.62333
 209  173.2099
 210  49.52193
 211  81.85698
 212  174.8743
 213  269.0251
 214  158.6129
 215  -65.73248
 216  -83.39147
 217  0.8939945
 218  151.2252
 219  210.5422
 220  150.9351
 221  27.83636
 222  90.02477
 223  96.52016
 224  108.2598
 225  22.30301
 226  39.92749
 227  -60.82751
 228  -74.07367
 229  -83.19681
 230  31.61049
 231  107.8402
 232  242.108
 233  143.6211
 234  86.55617
 235  147.0089
 236  67.23468
 237  57.61456
 238  88.88508
 239  189.7478
 240  148.3398
 241  31.37734
 242  34.85887
 243  97.30862
 244  48.07502
 245  20.72604
 246  125.3027
 247  112.4221
 248  130.6264
 249  85.57635
 250  88.94674
 251  130.7227
 252  102.2249
 253  99.39055
 254  48.69371
 255  69.82761
 256  118.7443
 257  47.51112
 258  95.67661
 259  116.7524
 260  183.8784
 261  285.8131
 262  194.1954
 263  -18.5735
 264  -20.29646
 265  47.63149
 266  305.0091
 267  220.4526
 268  28.80672
 269  190.6876
 270  105.6745
 271  99.29402
 272  235.2791
 273  94.94912
 274  15.91257
 275  159.3319
 276  191.5602
 277  79.43189
 278  42.57499
 279  205.1398
 280  180.8808
 281  186.3129
 282  143.5023
 283  47.22639
 284  52.9161
 285  155.1034
 286  54.50241
 287  27.52811
 288  3.462222
 289  9.758168
 290  222.9936
 291  215.9501
 292  159.1948
 293  178.0075
 294  139.5294
 295  20.11175
 296  1.658997
 297  61.73759
 298  -62.64143
 299  76.19521
 300  82.86092
 301  148.4154
 302  117.0415
 303  5.274971
 304  -23.90746
 305  -33.98195
 306  57.08966
 307  216.9404
 308  123.5157
 309  26.05179
 310  66.18116
 311  138.5157
 312  66.40717
 313  80.64589
 314  96.51893
 315  133.3127
 316  148.3834
 317  84.89271
 318  91.74729
 319  172.7224
 320  287.9811
 321  13.09601
 322  -14.13153
 323  266.4525
 324  313.8346
 325  53.62145
 326  37.16161
 327  259.4181
 328  224.6921
 329  124.8235
 330  62.2632
 331  174.3196
 332  195.8144
 333  77.07188
 334  74.32246
 335  -49.4648
 336  -44.40957
 337  -29.58002
 338  19.62174
 339  197.4778
 340  169.0737
 341  -40.96538
 342  52.57366
 343  169.6323
 344  220.7663
 345  274.5157
 346  152.4903
 347  5.750977
 348  78.36045
 349  246.6308
 350  213.1033
 351  286.9872
 352  213.5227
 353  186.0988
 354  96.46995
 355  133.5472
 356  181.3307
 357  41.55723
 358  -20.48483
 359  104.2324
 360  79.10674
 361  -47.30393
 362  -176.8509
 363  -104.4064
 364  116.66
 365  106.8719
 366  194.7997
 367  186.0966
 368  213.2848
 369  81.53398
 370  -16.39368
 371  120.5617
 372  249.4626
 373  128.5439
 374  55.81952
 375  62.87471
 376  108.357
 377  -26.53872
 378  6.800998
 379  -5.364964
 380  -25.21086
 381  88.15034
 382  81.59663
 383  111.64
 384  197.5353
 385  81.02875
 386  2.310839
 387  37.51866
 388  112.2706
 389  127.5433
 390  178.7115
 391  173.9921
 392  17.97624
 393  26.68352
 394  -37.79429
 395  43.41887
 396  115.7094
 397  94.53013
 398  122.1339
 399  -1.326064
 400  -30.90399
 401  3.142688
 402  77.26188
 403  88.86992
 404  75.63217
 405  179.3326
 406  42.34063
 407  -29.47173
 408  76.99852
 409  83.21434
 410  75.23885
 411  115.2909
 412  5.889252
 413  -140.0601
 414  -168.1939
 415  -18.84945
 416  133.1318
 417  67.84047
 418  91.39557
 419  88.55979
 420  112.4492
 421  25.48566
 422  -38.21702
 423  10.78323
 424  115.4551
 425  161.9512
 426  195.6378
 427  126.879
 428  89.64925
 429  123.1682
 430  52.6297
 431  46.81337
 432  -13.19522
 433  78.87015
 434  93.53458
 435  124.2697
 436  175.0911
 437  95.63848
 438  108.6274
 439  110.5664
 440  178.3577
 441  180.09
 442  87.20375
 443  55.61222
 444  71.73756
 445  58.76873
 446  144.7419
 447  133.5219
 448  112.6362
 449  142.1902
 450  95.47762
 451  93.28706
 452  39.97564
 453  96.72629
 454  27.00538
 455  112.6128
 456  98.02077
 457  -1.219879
 458  -35.10496
 459  116.0929
 460  98.45814
 461  61.15295
 462  36.49171
 463  87.81271
 464  253.4913
 465  194.3653
 466  114.7021
 467  196.7809
 468  84.26606
 469  -49.22582
 470  88.94013
 471  324.2102
 472  328.6798
 473  240.4189
 474  211.1406
 475  41.20263
 476  23.21402
 477  47.99733
 478  37.10689
 479  38.63552
 480  120.9811
 481  163.5856
 482  72.97122
 483  82.85567
 484  205.4186
 485  168.1786
 486  135.3847
 487  111.6187
 488  96.83807
 489  114.7015
 490  147.2522
 491  -19.96613
 492  -70.82654
 493  8.331458
 494  126.7993
 495  42.48192
 496  -5.577353
 497  -29.44966
 498  55.462
 499  65.05117
 500  15.50776
 501  74.05061
 502  -77.55531
 503  28.04697
 504  -90.97459
 505  35.34829
 506  58.9049
 507  19.79743
 508  96.37095
 509  123.1001
 510  225.4417
 511  257.6369
