# Input file       =  1189399122.117035_cleaned.dat
# Candidate        =  PSR_0332+5434
# Telescope        =  AR
# Epoch_topo       =  58010.193762928648
# Epoch_bary       =  N/A
# T_sample         =  0.002
# Data Folded      =  7340032
# Data Avg         =  0.0461678609364232
# Data StdDev      =  3.65936024762095 
# Profile Bins     =  512
# Profile Avg      =  661.79714385638  
# Profile StdDev   =  438.146313644091 
# Reduced chi-sqr  =  1.467
# Prob(Noise)      <  2.57e-11   (~6.6 sigma)
# P_topo (ms)      =  714.465989236219  +/- 0.000188
# P'_topo (s/s)    =  -0                +/- 9.91e-11
# P''_topo (s/s^2) =  0                 +/- 4.37e-14
# P_bary (ms)      =  N/A
# P'_bary (s/s)    =  N/A
# P''_bary (s/s^2) =  N/A
# P_orb (s)        =  N/A
# asin(i)/c (s)    =  N/A
# eccentricity     =  N/A
# w (rad)          =  N/A
# T_peri           =  N/A
######################################################
   0  783.7643
   1  968.436
   2  685.7595
   3  440.9788
   4  363.7034
   5  22.50154
   6  -405.4445
   7  -136.4057
   8  -1.741645
   9  179.6805
  10  396.9183
  11  528.5316
  12  309.7525
  13  875.5956
  14  1039.076
  15  1025.165
  16  788.8124
  17  207.1896
  18  495.5559
  19  396.7862
  20  544.3174
  21  494.2421
  22  663.6002
  23  98.65903
  24  615.7534
  25  638.7125
  26  471.1245
  27  896.412
  28  905.6917
  29  668.6643
  30  216.2242
  31  654.4396
  32  982.8323
  33  855.1602
  34  464.1706
  35  553.2297
  36  808.7168
  37  1345.745
  38  1347.431
  39  555.2807
  40  331.1217
  41  891.2726
  42  1144.655
  43  445.5625
  44  547.9338
  45  1070.365
  46  1226.614
  47  921.8999
  48  838.1183
  49  638.6464
  50  869.7868
  51  707.6555
  52  611.5209
  53  1090.25
  54  950.5806
  55  637.8826
  56  705.2842
  57  682.4951
  58  989.7344
  59  1069.74
  60  1240.577
  61  1012.748
  62  513.6342
  63  773.6547
  64  719.3297
  65  438.7942
  66  668.4006
  67  598.8358
  68  676.3289
  69  832.3577
  70  404.4334
  71  693.7457
  72  373.3296
  73  275.3443
  74  689.4695
  75  577.6723
  76  442.1124
  77  538.8651
  78  542.6201
  79  301.6353
  80  458.7664
  81  639.1193
  82  620.6087
  83  675.9667
  84  764.792
  85  633.3477
  86  418.3721
  87  353.4486
  88  572.4094
  89  512.5827
  90  608.1494
  91  382.7186
  92  213.023
  93  443.1653
  94  517.7133
  95  646.4327
  96  204.8918
  97  762.4498
  98  1419.669
  99  1269.295
 100  642.2826
 101  578.339
 102  995.0513
 103  860.1671
 104  857.8367
 105  501.3093
 106  405.0859
 107  556.4663
 108  772.6248
 109  561.2985
 110  309.8709
 111  475.0551
 112  460.526
 113  220.8441
 114  -206.6916
 115  251.6812
 116  583.6618
 117  930.0666
 118  625.937
 119  570.0681
 120  720.4481
 121  693.5728
 122  918.2878
 123  1155.026
 124  1135.02
 125  1057.291
 126  1060.32
 127  1197.529
 128  1086.089
 129  854.4233
 130  319.3219
 131  587.8677
 132  931.9922
 133  1088.469
 134  836.1588
 135  821.209
 136  617.1019
 137  742.1926
 138  819.6542
 139  1101.444
 140  1206.904
 141  1301.962
 142  836.6407
 143  851.5458
 144  934.2751
 145  1358.967
 146  1022.654
 147  676.646
 148  526.2604
 149  733.9195
 150  1021.938
 151  1100.589
 152  713.0389
 153  976.8412
 154  842.6209
 155  446.1925
 156  150.3756
 157  286.5197
 158  558.4967
 159  779.5452
 160  877.8423
 161  874.1436
 162  735.6558
 163  371.0871
 164  707.9001
 165  1351.55
 166  934.1573
 167  356.2345
 168  121.6883
 169  285.8665
 170  548.4538
 171  963.6289
 172  1014.994
 173  771.2695
 174  804.0584
 175  793.0066
 176  835.5488
 177  895.9253
 178  502.5695
 179  300.1272
 180  265.5105
 181  540.2264
 182  788.1248
 183  960.8891
 184  514.6728
 185  590.793
 186  776.8895
 187  878.418
 188  782.4865
 189  1108.257
 190  959.6202
 191  694.1943
 192  317.8065
 193  436.7495
 194  247.2377
 195  130.5387
 196  1107.036
 197  1399.931
 198  774.6222
 199  1234.684
 200  1008.622
 201  376.3924
 202  401.4488
 203  944.1827
 204  796.5351
 205  514.9051
 206  478.0951
 207  608.7784
 208  261.455
 209  762.1279
 210  882.0101
 211  307.779
 212  512.9325
 213  792.7802
 214  409.8186
 215  655.97
 216  449.2897
 217  537.6193
 218  528.2626
 219  652.6721
 220  112.0254
 221  637.0892
 222  844.4254
 223  181.6624
 224  201.9734
 225  490.2087
 226  441.3294
 227  566.0165
 228  366.865
 229  324.2313
 230  225.2915
 231  695.324
 232  628.6047
 233  496.5308
 234  167.9691
 235  137.0307
 236  -81.01157
 237  3.482364
 238  183.5208
 239  348.4533
 240  529.3091
 241  49.17566
 242  251.6757
 243  451.6031
 244  392.0468
 245  -24.42652
 246  213.302
 247  830.3259
 248  725.8777
 249  559.2953
 250  462.965
 251  548.2225
 252  407.1795
 253  597.9959
 254  379.4441
 255  320.7824
 256  788.8814
 257  664.3523
 258  641.378
 259  689.1569
 260  351.0276
 261  299.0288
 262  58.73507
 263  84.19287
 264  379.3588
 265  508.2372
 266  728.5672
 267  235.9758
 268  282.9363
 269  432.1892
 270  28.74623
 271  -485.543
 272  127.233
 273  478.7381
 274  677.0566
 275  213.8721
 276  570.8458
 277  620.7472
 278  798.087
 279  605.642
 280  983.7038
 281  249.6703
 282  322.8785
 283  876.0677
 284  550.6489
 285  406.875
 286  243.1085
 287  258.3116
 288  469.0515
 289  524.5963
 290  553.955
 291  -18.34599
 292  -283.6444
 293  550.3935
 294  678.3347
 295  746.4305
 296  378.7056
 297  305.8759
 298  -43.51744
 299  126.7828
 300  -157.2587
 301  24.49468
 302  778.553
 303  906.2979
 304  346.4108
 305  606.9607
 306  596.9199
 307  286.1031
 308  304.5865
 309  426.5764
 310  625.2122
 311  320.5746
 312  165.7751
 313  564.1541
 314  859.3853
 315  338.1939
 316  228.5488
 317  348.1668
 318  515.5068
 319  91.8268
 320  64.26989
 321  348.395
 322  405.7707
 323  642.5972
 324  499.4006
 325  740.8325
 326  411.5357
 327  144.7733
 328  -46.39776
 329  22.41002
 330  446.2993
 331  377.3363
 332  1122.165
 333  400.0681
 334  432.2429
 335  797.2296
 336  476.1275
 337  548.4355
 338  555.5349
 339  538.9928
 340  721.0779
 341  482.2852
 342  1032.922
 343  1311.721
 344  728.1938
 345  838.6736
 346  1129.822
 347  955.6402
 348  963.1725
 349  835.7724
 350  1214.475
 351  720.7956
 352  619.7369
 353  685.8566
 354  1070.397
 355  1310.368
 356  1453.617
 357  992.2234
 358  978.1312
 359  1053.891
 360  535.7006
 361  414.1464
 362  436.64
 363  783.7626
 364  1091.784
 365  1371.916
 366  993.3983
 367  748.1593
 368  893.3017
 369  1003.474
 370  1571.412
 371  2043.497
 372  2383.41
 373  2223.116
 374  2615.636
 375  2461.711
 376  1411.904
 377  1771.698
 378  1885.015
 379  1242.391
 380  738.9909
 381  638.4617
 382  698.0263
 383  692.9749
 384  485.7686
 385  991.2013
 386  1154.15
 387  1279.95
 388  1477.452
 389  1250.542
 390  1159.236
 391  879.2078
 392  813.3727
 393  775.7224
 394  948.7795
 395  966.4679
 396  743.6588
 397  940.4973
 398  1157.271
 399  858.2838
 400  400.0813
 401  917.0693
 402  1075.796
 403  987.792
 404  1048.47
 405  707.1903
 406  862.9065
 407  893.8357
 408  352.7253
 409  317.8589
 410  778.5984
 411  904.5154
 412  1040.361
 413  1005.86
 414  840.2959
 415  748.3839
 416  806.0859
 417  833.7256
 418  1046.717
 419  1229.201
 420  1010.211
 421  1034.828
 422  991.4093
 423  498.5714
 424  452.8351
 425  558.2194
 426  661.3397
 427  767.3669
 428  764.6924
 429  590.9996
 430  725.0544
 431  695.1926
 432  1202.935
 433  973.454
 434  562.0599
 435  875.3395
 436  946.7106
 437  675.9742
 438  379.5332
 439  261.0799
 440  736.1492
 441  1318.525
 442  1020.324
 443  722.871
 444  748.8386
 445  938.9901
 446  1148.25
 447  1048.912
 448  613.588
 449  822.8044
 450  944.6083
 451  1167.141
 452  1247.891
 453  1657.461
 454  1088.255
 455  617.8466
 456  266.35
 457  538.3766
 458  785.9252
 459  574.3076
 460  1105.6
 461  1203.725
 462  272.8347
 463  249.7162
 464  675.2567
 465  365.9341
 466  215.507
 467  674.3834
 468  413.356
 469  378.9958
 470  134.5141
 471  394.3521
 472  827.5156
 473  422.1152
 474  945.2507
 475  835.1425
 476  154.2328
 477  380.2279
 478  497.7491
 479  921.038
 480  825.9096
 481  907.3116
 482  480.8065
 483  433.2305
 484  719.4838
 485  511.2118
 486  580.5115
 487  1033.065
 488  1237.834
 489  710.2719
 490  361.1021
 491  379.4894
 492  3.884951
 493  870.5357
 494  586.8984
 495  340.5442
 496  464.6299
 497  433.0534
 498  587.9454
 499  235.8727
 500  656.0192
 501  529.8599
 502  369.3242
 503  215.141
 504  116.0003
 505  257.0235
 506  546.5847
 507  535.3036
 508  333.5786
 509  -203.5579
 510  -82.40951
 511  298.7016
