# Input file       =  1189111040.110165_cleaned.dat
# Candidate        =  PSR_0332+5434
# Telescope        =  AR
# Epoch_topo       =  58006.859480441723
# Epoch_bary       =  N/A
# T_sample         =  0.002
# Data Folded      =  7143424
# Data Avg         =  0.11640823735864 
# Data StdDev      =  3.26472534504755 
# Profile Bins     =  512
# Profile Avg      =  1624.09918030732 
# Profile StdDev   =  385.624736479092 
# Reduced chi-sqr  =  0.756
# Prob(Noise)      <  1   (~0.0 sigma)
# P_topo (ms)      =  714.464824921333  +/- 0.00022
# P'_topo (s/s)    =  -0                +/- 1.19e-10
# P''_topo (s/s^2) =  0                 +/- 5.41e-14
# P_bary (ms)      =  N/A
# P'_bary (s/s)    =  N/A
# P''_bary (s/s^2) =  N/A
# P_orb (s)        =  N/A
# asin(i)/c (s)    =  N/A
# eccentricity     =  N/A
# w (rad)          =  N/A
# T_peri           =  N/A
######################################################
   0  1608.68
   1  1441.057
   2  1502.939
   3  1960.036
   4  1538.679
   5  1759.339
   6  1986.158
   7  1748.272
   8  1261.628
   9  1402.723
  10  1331.098
  11  1661.775
  12  1554.086
  13  1382.119
  14  1558.249
  15  1696.862
  16  1844.247
  17  2125.751
  18  2158.723
  19  2166.878
  20  1894.996
  21  2105.702
  22  2416.005
  23  2550.1
  24  2923.387
  25  2971.878
  26  2906.434
  27  2464.4
  28  1837.711
  29  1611.106
  30  1439.616
  31  1454.58
  32  1634.18
  33  1928.604
  34  2050.271
  35  1724.11
  36  1741.872
  37  1873.552
  38  1740.437
  39  1769.279
  40  1467.721
  41  1416.659
  42  1577.831
  43  1595.108
  44  1575.232
  45  1440.707
  46  1622.313
  47  1531.337
  48  1331.866
  49  1416.92
  50  1634.367
  51  1689.883
  52  1435.229
  53  1537.31
  54  1830.775
  55  1709.635
  56  1770.649
  57  1646.91
  58  1784.23
  59  1812.019
  60  1900.377
  61  1624.255
  62  1305.226
  63  1115.576
  64  1205.106
  65  1236.706
  66  1618.35
  67  1445.313
  68  1642.089
  69  1804.912
  70  2096.016
  71  1741.42
  72  1656.996
  73  1379.364
  74  1531.766
  75  1439.29
  76  1372.875
  77  1527.686
  78  1532.762
  79  1436.302
  80  1597.889
  81  1512.452
  82  1476.239
  83  1338.655
  84  1623.001
  85  1634.211
  86  1358.86
  87  1549.182
  88  1419.949
  89  1722.286
  90  1893.131
  91  1647.298
  92  1472.728
  93  1529.193
  94  1685.196
  95  1595.686
  96  1513.561
  97  1164.095
  98  1329.241
  99  1631.553
 100  1533.883
 101  1471.631
 102  1630.041
 103  1835.836
 104  1383.322
 105  1247.523
 106  1494.938
 107  1425.956
 108  1352.065
 109  1556.396
 110  1487.959
 111  1570.346
 112  1480.553
 113  1670.747
 114  1679.467
 115  1685.927
 116  1659.348
 117  1840.361
 118  1684.4
 119  1300.228
 120  1600.547
 121  1749.716
 122  1742.187
 123  1724.134
 124  1352.206
 125  1497.436
 126  1773.759
 127  1569.125
 128  1790.972
 129  1552.275
 130  1757.031
 131  1508.099
 132  1511.547
 133  1440.748
 134  1354.374
 135  1480.722
 136  1476.917
 137  1649.109
 138  1767.545
 139  1703.122
 140  1495.715
 141  1475.776
 142  1379.583
 143  1354.016
 144  1562.263
 145  1588.428
 146  1355.873
 147  1639.694
 148  1488.945
 149  1391.014
 150  1479.837
 151  1615.694
 152  1352.711
 153  1285.897
 154  1501.404
 155  1293.437
 156  1432.612
 157  1633.098
 158  1268.936
 159  1522.433
 160  1703.729
 161  1658.16
 162  1795.02
 163  1800.417
 164  1618.866
 165  1867.341
 166  1881.488
 167  1950.295
 168  2002.989
 169  1901.314
 170  1872.753
 171  1394.006
 172  1717.485
 173  1669.678
 174  1365.77
 175  1352.905
 176  1712.719
 177  1552.948
 178  1687.529
 179  1797.55
 180  1690.601
 181  1351.08
 182  1404.284
 183  1762.413
 184  1664.89
 185  1510.607
 186  1899.805
 187  2033.48
 188  1690.207
 189  1461.252
 190  1531.401
 191  1496.105
 192  1651.831
 193  1827.351
 194  1358.336
 195  1602.646
 196  1771.298
 197  1689.781
 198  1711.259
 199  1890.435
 200  1378.679
 201  1447.227
 202  1825.561
 203  1735.347
 204  1778.414
 205  1481.896
 206  1757.252
 207  1562.593
 208  1363.482
 209  1929.248
 210  1812.359
 211  1631.081
 212  1861.283
 213  1516.668
 214  1270.196
 215  1439.035
 216  1734.889
 217  1679.769
 218  1708.496
 219  2233.446
 220  2425.08
 221  2229.143
 222  1878.037
 223  1473.533
 224  1339.474
 225  1615.786
 226  1918.57
 227  1871.357
 228  1750.139
 229  1614.828
 230  1471.238
 231  1942.149
 232  1734.335
 233  1686.979
 234  1813.771
 235  1812.037
 236  1655.939
 237  1588.819
 238  1560.25
 239  1591.702
 240  1562.237
 241  1676.699
 242  1710.695
 243  1631.725
 244  1552.036
 245  1450.857
 246  1744.058
 247  1402.379
 248  1398.538
 249  1513.637
 250  1591.043
 251  1601.244
 252  1855.28
 253  1828.139
 254  1530.259
 255  1299.048
 256  1472.194
 257  1577.474
 258  1571.82
 259  1719.436
 260  1839.588
 261  1775.093
 262  1875.999
 263  1271.828
 264  1537.455
 265  2009.611
 266  1798.616
 267  1660.309
 268  1612.851
 269  1529.985
 270  1608.494
 271  1780.232
 272  1595.487
 273  1497.789
 274  1515.801
 275  1662.802
 276  1815.579
 277  1717.511
 278  1532.534
 279  1661.475
 280  1595.746
 281  1372.641
 282  1686.006
 283  1868.401
 284  1789.483
 285  1574.204
 286  1925.834
 287  1611.907
 288  1668.25
 289  1657.596
 290  1570.259
 291  1481.646
 292  1493.922
 293  1562.592
 294  1575.438
 295  1300.706
 296  1466.659
 297  1368.146
 298  1640.611
 299  1663.292
 300  1594.596
 301  1778.494
 302  1508.958
 303  1650.928
 304  1859.418
 305  1806.021
 306  1960.517
 307  1668.442
 308  1678.288
 309  1695.867
 310  1327.963
 311  1270.726
 312  1344.493
 313  1660.204
 314  1709.255
 315  1899.036
 316  1967.106
 317  1786.866
 318  1629.907
 319  1829.887
 320  1681.878
 321  1235.817
 322  1207.341
 323  1268.443
 324  1733.354
 325  2056.125
 326  1917.49
 327  1934.037
 328  1667.02
 329  1676.77
 330  1602.48
 331  1442.032
 332  1741.124
 333  1660.069
 334  1702.644
 335  1835.973
 336  1613.036
 337  1150.428
 338  1198.908
 339  1282.109
 340  1374.799
 341  1536.379
 342  1554.806
 343  1787.498
 344  1651.032
 345  1544.114
 346  1712.054
 347  1590.787
 348  1416.132
 349  1481.201
 350  1536.07
 351  1868.389
 352  1358.521
 353  1324.709
 354  1479.386
 355  1339.765
 356  1269.462
 357  1615.89
 358  1958.933
 359  1661.76
 360  1244.925
 361  1346.837
 362  1379.397
 363  1715.712
 364  1732.446
 365  1646.878
 366  1744.072
 367  1927.435
 368  1744.473
 369  1614.142
 370  1532.486
 371  1819.924
 372  1587.933
 373  1559.493
 374  1811.17
 375  1885.55
 376  1370.511
 377  1351.225
 378  1786.782
 379  1975.957
 380  1871.101
 381  1766.881
 382  1757.536
 383  1661.838
 384  1422.7
 385  1873.413
 386  1881.329
 387  1325.847
 388  1392.025
 389  1528.653
 390  1384.729
 391  1396.307
 392  1231.599
 393  1574.004
 394  1560.978
 395  1347.023
 396  1622.849
 397  1899.821
 398  1850.699
 399  1746.351
 400  1784.621
 401  1559.576
 402  1458.584
 403  1828.332
 404  1846.812
 405  1890.492
 406  1619.234
 407  1389.172
 408  1408.65
 409  1580.686
 410  1417.732
 411  1529.253
 412  1709.995
 413  2076.395
 414  2019.061
 415  1844.037
 416  1819.414
 417  1399.993
 418  1480.583
 419  1379.357
 420  1378.309
 421  1696.168
 422  1568.735
 423  1570.461
 424  1191.902
 425  1306.3
 426  1299.6
 427  1452.436
 428  1784.415
 429  1690.839
 430  1561.188
 431  1613.962
 432  1766.132
 433  1604.522
 434  1774.843
 435  1866.951
 436  1476.702
 437  1118.132
 438  1214.906
 439  1499.074
 440  1525.749
 441  2037.489
 442  1937.478
 443  1315.658
 444  1391.011
 445  2037.641
 446  1748.61
 447  1452.668
 448  1609.023
 449  1417.122
 450  1654.649
 451  1216.183
 452  1562.714
 453  1754.521
 454  1659.056
 455  1469.023
 456  1462.322
 457  1673.918
 458  1690.821
 459  1687.343
 460  1416.767
 461  1358.257
 462  1182.488
 463  1445.794
 464  1641.703
 465  1963.937
 466  2058.212
 467  1968.773
 468  1788.748
 469  1520.87
 470  1533.349
 471  1605.166
 472  1502.891
 473  1133.927
 474  1686.159
 475  1601.632
 476  1357.315
 477  1218.525
 478  1504.201
 479  1575.253
 480  1422.682
 481  1875.7
 482  1692.193
 483  1474.329
 484  1308.721
 485  1325.797
 486  1445.531
 487  1586.717
 488  1616.014
 489  1533.805
 490  1670.379
 491  1336.836
 492  1050.208
 493  1389.795
 494  1777.936
 495  1882.894
 496  2081.958
 497  1840.454
 498  1544.296
 499  1159.424
 500  1590.512
 501  1820.246
 502  1649.066
 503  1466.331
 504  1374.769
 505  1439.028
 506  1605.179
 507  1816.959
 508  1986.71
 509  1855.281
 510  1858.644
 511  1792.933
