# Input file       =  1189972712.116665_cleaned.dat
# Candidate        =  PSR_0332+5434
# Telescope        =  AR
# Epoch_topo       =  58016.832536072507
# Epoch_bary       =  N/A
# T_sample         =  0.002
# Data Folded      =  7143424
# Data Avg         =  0.532359672707099
# Data StdDev      =  15.7744063417948 
# Profile Bins     =  512
# Profile Avg      =  7427.53586930738 
# Profile StdDev   =  1863.25054813459 
# Reduced chi-sqr  =  0.989
# Prob(Noise)      <  0.564   (~0.0 sigma)
# P_topo (ms)      =  714.467829713063  +/- 0.000175
# P'_topo (s/s)    =  -0                +/- 9.47e-11
# P''_topo (s/s^2) =  0                 +/- 4.3e-14
# P_bary (ms)      =  N/A
# P'_bary (s/s)    =  N/A
# P''_bary (s/s^2) =  N/A
# P_orb (s)        =  N/A
# asin(i)/c (s)    =  N/A
# eccentricity     =  N/A
# w (rad)          =  N/A
# T_peri           =  N/A
######################################################
   0  7560.447
   1  8296.163
   2  8207.186
   3  6752.853
   4  7197.264
   5  7079.437
   6  8311.119
   7  7953.74
   8  6587.37
   9  6034.487
  10  5917.331
  11  7870.037
  12  5603.767
  13  5960.658
  14  6875.252
  15  7174.292
  16  6788.953
  17  7107.729
  18  7135.367
  19  7773.343
  20  8028.044
  21  8001.164
  22  7202.579
  23  7810.53
  24  6126.494
  25  6159.679
  26  7502.718
  27  5809.589
  28  6137.514
  29  7728.288
  30  8366.098
  31  8690.728
  32  6039.371
  33  5233.661
  34  6290.561
  35  6581.864
  36  9170.941
  37  8812.789
  38  7588.089
  39  7970.5
  40  8090.552
  41  8146.807
  42  8166.337
  43  7383.32
  44  7255.406
  45  6772.632
  46  6815.32
  47  7744.872
  48  8082.978
  49  8234.248
  50  8603.077
  51  6495.682
  52  5694.315
  53  7145.76
  54  7672.196
  55  8109.796
  56  7864.245
  57  8383.111
  58  8499.14
  59  10806.16
  60  10019.22
  61  9563.531
  62  9606.605
  63  8953.095
  64  9414.032
  65  7983.17
  66  6670.353
  67  6812.825
  68  8272.646
  69  7495.223
  70  7995.977
  71  6850.153
  72  7772.872
  73  8213.811
  74  9050.775
  75  7751.854
  76  6504.899
  77  7194.051
  78  7669.109
  79  7546.248
  80  6438.087
  81  5829.727
  82  6285.585
  83  5834.898
  84  6013.703
  85  6741.195
  86  6653.098
  87  7563.908
  88  7486.654
  89  7098.947
  90  5494.01
  91  6450.861
  92  5107.625
  93  4166.252
  94  5018.538
  95  5342.788
  96  4965.114
  97  4206.812
  98  5053.45
  99  5960.135
 100  4917.55
 101  5926.172
 102  6553.677
 103  5741.59
 104  6423.589
 105  7380.115
 106  8215.091
 107  8896.71
 108  8506.904
 109  7974.395
 110  6702.359
 111  5924.413
 112  6446.569
 113  8276.975
 114  9151.957
 115  6627.046
 116  7108.688
 117  6364.748
 118  5081.977
 119  6951.349
 120  7154.078
 121  7501.569
 122  7391.207
 123  6727.286
 124  6456.07
 125  6376.015
 126  5775.53
 127  5471.835
 128  5847.939
 129  7433.262
 130  8014.706
 131  7178.431
 132  6860.949
 133  7470.065
 134  7315.07
 135  7322.009
 136  8136.371
 137  9012.47
 138  9623.544
 139  7893.623
 140  8198.51
 141  8685.924
 142  7873.258
 143  7326.946
 144  7380.953
 145  8260.422
 146  8852.821
 147  7146.017
 148  6924.569
 149  7099.481
 150  7228.684
 151  7387.414
 152  5628.328
 153  4645.883
 154  6085.851
 155  7134.011
 156  7279.316
 157  6552.881
 158  7095.904
 159  6989.79
 160  5714.791
 161  6619.039
 162  6272.728
 163  7097.979
 164  8713.201
 165  9010.079
 166  7849.134
 167  6682.103
 168  7613.586
 169  8571.478
 170  8517.424
 171  8492.693
 172  8637.143
 173  8511.567
 174  8726.251
 175  9032.396
 176  8223.736
 177  8974.961
 178  8562.381
 179  9312.609
 180  9304.855
 181  8332.982
 182  7958.624
 183  7332.773
 184  5747.066
 185  5177.232
 186  4899.625
 187  5566.146
 188  6850.536
 189  7372.944
 190  6533.486
 191  5589.027
 192  6634.095
 193  6572.909
 194  7239.075
 195  8384.51
 196  7750.165
 197  7521.211
 198  7485.169
 199  7544.461
 200  7925.298
 201  8539.768
 202  8816.988
 203  8533.98
 204  9009.996
 205  7167.492
 206  7383.713
 207  6237.461
 208  6386.974
 209  7401.193
 210  7051.494
 211  8007.845
 212  8146.641
 213  8588.682
 214  7284.953
 215  7359.451
 216  6369.859
 217  7589.855
 218  9785.041
 219  9535.973
 220  9040.812
 221  9852.364
 222  8499.685
 223  7212.616
 224  7045.549
 225  6818.043
 226  6823.371
 227  7692.729
 228  7416.405
 229  6536.07
 230  7030.591
 231  7963.117
 232  7513.917
 233  9055.031
 234  6676.879
 235  6880.453
 236  8768.196
 237  8958.73
 238  8814.826
 239  7808.423
 240  6971.962
 241  7330.623
 242  7988.878
 243  7400.017
 244  7693.128
 245  8212.297
 246  7696.696
 247  8355.958
 248  7210.445
 249  7829.706
 250  9332.247
 251  9950.694
 252  8089.119
 253  7617.238
 254  6806.618
 255  5752.865
 256  6668.135
 257  8131.938
 258  6759.718
 259  7515.354
 260  9058.47
 261  9809.191
 262  8955.6
 263  9224.201
 264  9230.556
 265  9441.527
 266  9575.431
 267  9733.2
 268  9583.993
 269  9132.062
 270  10512.65
 271  11495.49
 272  9319.1
 273  9554.098
 274  8210.529
 275  7948.321
 276  8917.89
 277  8726.038
 278  8142.543
 279  7499.169
 280  7234.988
 281  6530.927
 282  6577.002
 283  7290.142
 284  5911.399
 285  4319.631
 286  3536.48
 287  4372.118
 288  6062.773
 289  6940.497
 290  6743.447
 291  5002.667
 292  5486.701
 293  5261.546
 294  5623.105
 295  5532.884
 296  5803.156
 297  6447.205
 298  7091.319
 299  7838.461
 300  7593.948
 301  6833.842
 302  7538.379
 303  8108.973
 304  8278.173
 305  7639.239
 306  7317.306
 307  9105.987
 308  9693.785
 309  8968.163
 310  7340.912
 311  6490.178
 312  8713.608
 313  8150.625
 314  7494.421
 315  7754.822
 316  6673.676
 317  6857.291
 318  8870.454
 319  7865.774
 320  7072.109
 321  6975.472
 322  8082.076
 323  7964.564
 324  7615.268
 325  6781.227
 326  7266.902
 327  5439.957
 328  5723.594
 329  6902.404
 330  7636.271
 331  7349.281
 332  6954.91
 333  5777.197
 334  5645.023
 335  5116.448
 336  7044.448
 337  6779.675
 338  5730.335
 339  5992.754
 340  5729.788
 341  4978.458
 342  5462.197
 343  5083.692
 344  7398.446
 345  8499.458
 346  7920.147
 347  7943.703
 348  6648.881
 349  7904.978
 350  7375.242
 351  8229.832
 352  8413.186
 353  8216.506
 354  7992.868
 355  9055.587
 356  10210.31
 357  8205.56
 358  6825.519
 359  8031.99
 360  8963.77
 361  8716.739
 362  8387.782
 363  7135.065
 364  7256.971
 365  7904.59
 366  8031.245
 367  8653.503
 368  8743.921
 369  8866.041
 370  8312.036
 371  8152.538
 372  6650.755
 373  7561.654
 374  8129.011
 375  6404.501
 376  6644.533
 377  7700.189
 378  7065.185
 379  6191.29
 380  5224.289
 381  5114.334
 382  5197.893
 383  5627.936
 384  5741.071
 385  4648.019
 386  4471.342
 387  4919.999
 388  5702.885
 389  4681.242
 390  5493.708
 391  6190.784
 392  7185.75
 393  7407.037
 394  6972.713
 395  7033.328
 396  6878.623
 397  7723.434
 398  9268.758
 399  9616.567
 400  10063.43
 401  8215.624
 402  7379.128
 403  8693.696
 404  8764.437
 405  8047.185
 406  9935.651
 407  10813.23
 408  10628.78
 409  8923.244
 410  8086.386
 411  7583.477
 412  8280.977
 413  8470.547
 414  7713.202
 415  7450.527
 416  8457.777
 417  9900.916
 418  9734.64
 419  7519.416
 420  6164.757
 421  7636.723
 422  9429.634
 423  7933.633
 424  8939.157
 425  9608.48
 426  8486.497
 427  8644.104
 428  9502.67
 429  8444.066
 430  8207.208
 431  8826.312
 432  8918.361
 433  9025.281
 434  8048.893
 435  8082.636
 436  9313.351
 437  9625.926
 438  8398.36
 439  8062.074
 440  8464.976
 441  9693.601
 442  9734.544
 443  11636.94
 444  10820.14
 445  9990.189
 446  9202.556
 447  9240.312
 448  8269.027
 449  8467.788
 450  9119.831
 451  9985.376
 452  9915.36
 453  8818.364
 454  7116.216
 455  6979.128
 456  6850.418
 457  7302.93
 458  7064.714
 459  6464.209
 460  6310.293
 461  5995.09
 462  6102.311
 463  6437.062
 464  6395.358
 465  7421.489
 466  8216.507
 467  6923.674
 468  7767.724
 469  7481.011
 470  7168.605
 471  6242.749
 472  5392.193
 473  5834.122
 474  6380.091
 475  6935.549
 476  6328.93
 477  4801.041
 478  5733.856
 479  6632.514
 480  5369.613
 481  5983.394
 482  6325.025
 483  4748.614
 484  5120.302
 485  6116.459
 486  4282.532
 487  5220.815
 488  4999.878
 489  5855.482
 490  6335.027
 491  8056.292
 492  5943.106
 493  5973.833
 494  5817.167
 495  7460.593
 496  6914.958
 497  5373.795
 498  6319.107
 499  7323.112
 500  7123.906
 501  7753.441
 502  7758.568
 503  7275.687
 504  8376.417
 505  6989.962
 506  5637.401
 507  4891.706
 508  7296.544
 509  8489.3
 510  8618.688
 511  7894.191
