# Input file       =  1189399122.117035_cleaned.dat
# Candidate        =  PSR_0332+5434
# Telescope        =  AR
# Epoch_topo       =  58010.193762928648
# Epoch_bary       =  N/A
# T_sample         =  0.002
# Data Folded      =  7340032
# Data Avg         =  0.0461678609364232
# Data StdDev      =  3.65936024762095 
# Profile Bins     =  512
# Profile Avg      =  661.797144029365 
# Profile StdDev   =  438.146313644091 
# Reduced chi-sqr  =  1.467
# Prob(Noise)      <  2.61e-11   (~6.6 sigma)
# P_topo (ms)      =  714.465989329173  +/- 0.000185
# P'_topo (s/s)    =  -0                +/- 9.75e-11
# P''_topo (s/s^2) =  0                 +/- 4.3e-14
# P_bary (ms)      =  N/A
# P'_bary (s/s)    =  N/A
# P''_bary (s/s^2) =  N/A
# P_orb (s)        =  N/A
# asin(i)/c (s)    =  N/A
# eccentricity     =  N/A
# w (rad)          =  N/A
# T_peri           =  N/A
######################################################
   0  899.7135
   1  1119.056
   2  761.6342
   3  623.0153
   4  669.7418
   5  795.6678
   6  1072.24
   7  1165.046
   8  1209.13
   9  729.2759
  10  537.9555
  11  860.6337
  12  492.9928
  13  551.2094
  14  700.2418
  15  575.152
  16  814.6684
  17  616.7705
  18  464.3753
  19  703.9517
  20  179.4116
  21  516.2158
  22  691.669
  23  449.0318
  24  474.1866
  25  572.6918
  26  401.0593
  27  355.5965
  28  613.2009
  29  578.7346
  30  638.8947
  31  709.8096
  32  805.5976
  33  430.8524
  34  396.3667
  35  436.8092
  36  605.1282
  37  487.8469
  38  613.1186
  39  217.1661
  40  306.3758
  41  493.6298
  42  615.3684
  43  462.2995
  44  326.0037
  45  1137.11
  46  1476.388
  47  952.3796
  48  489.8676
  49  844.9755
  50  931.3245
  51  902.3317
  52  632.1149
  53  479.3762
  54  384.8728
  55  780.6667
  56  644.2316
  57  462.9593
  58  292.2095
  59  546.9775
  60  306.6287
  61  4.784127
  62  -29.08801
  63  417.1464
  64  806.0728
  65  773.886
  66  595.5444
  67  620.2458
  68  737.759
  69  733.1586
  70  1070.903
  71  1185.998
  72  1071.61
  73  1105.24
  74  1048.452
  75  1240.654
  76  928.8408
  77  695.6287
  78  263.2008
  79  872.4164
  80  923.7686
  81  1103.507
  82  727.5248
  83  791.4174
  84  591.059
  85  752.746
  86  967.0186
  87  1182.962
  88  1283.806
  89  1138.304
  90  723.1266
  91  962.7097
  92  1115.106
  93  1320.786
  94  765.868
  95  592.1208
  96  543.2918
  97  963.6548
  98  1042.483
  99  945.1517
 100  703.4373
 101  1112.257
 102  612.7084
 103  276.8949
 104  127.2554
 105  403.6731
 106  725.6578
 107  806.4872
 108  930.9941
 109  831.9253
 110  551.5839
 111  405.4977
 112  1026.142
 113  1326.457
 114  566.7197
 115  286.8745
 116  126.6752
 117  426.8473
 118  704.1749
 119  1063.142
 120  837.0853
 121  790.5845
 122  844.1182
 123  726.9943
 124  941.0417
 125  677.7821
 126  455.0672
 127  211.1204
 128  431.1986
 129  629.7794
 130  940.7706
 131  753.6099
 132  435.6226
 133  773.1575
 134  821.3063
 135  866.3932
 136  825.3744
 137  1163.024
 138  773.7416
 139  572.9094
 140  351.0101
 141  397.943
 142  79.15853
 143  433.7813
 144  1561.422
 145  939.2341
 146  1027.945
 147  1143.381
 148  782.9365
 149  205.9459
 150  770.6047
 151  902.0515
 152  639.4819
 153  475.7203
 154  546.2506
 155  504.5607
 156  324.9604
 157  1012.152
 158  518.0128
 159  305.4269
 160  816.7234
 161  543.4283
 162  546.9139
 163  504.8795
 164  521.08
 165  461.2273
 166  698.8102
 167  335.342
 168  262.2369
 169  904.1324
 170  555.6285
 171  51.49449
 172  410.7648
 173  494.5867
 174  463.1535
 175  505.6046
 176  325.0871
 177  223.3308
 178  444.6509
 179  708.1758
 180  607.3088
 181  309.0937
 182  160.4392
 183  53.26705
 184  -147.8837
 185  170.5574
 186  209.4562
 187  516.1166
 188  317.3621
 189  36.50669
 190  404.743
 191  396.7425
 192  286.4382
 193  -107.7321
 194  656.1861
 195  742.212
 196  650.5992
 197  514.2059
 198  553.2943
 199  485.9882
 200  476.0678
 201  542.9223
 202  161.7119
 203  602.1374
 204  760.5972
 205  649.5461
 206  703.3912
 207  559.6733
 208  306.9374
 209  192.5488
 210  54.81446
 211  180.2657
 212  463.8769
 213  591.3302
 214  657.8508
 215  58.02826
 216  513.2321
 217  187.9805
 218  -234.1609
 219  -352.1139
 220  463.3834
 221  576.7924
 222  454.5405
 223  312.1746
 224  632.4865
 225  742.043
 226  651.4376
 227  849.9835
 228  684.5672
 229  129.5268
 230  621.4863
 231  826.2441
 232  446.5968
 233  377.0609
 234  177.1796
 235  359.267
 236  468.4463
 237  580.4558
 238  318.1126
 239  -278.2769
 240  28.79395
 241  761.4907
 242  728.5278
 243  580.0749
 244  365.2613
 245  81.53893
 246  41.20392
 247  -0.226574
 248  -189.3149
 249  368.7548
 250  1008.662
 251  647.7913
 252  394.1176
 253  680.7367
 254  429.3848
 255  270.4255
 256  351.4476
 257  583.1732
 258  505.1943
 259  190.2657
 260  300.2153
 261  797.2375
 262  672.2963
 263  178.5903
 264  251.6351
 265  470.4153
 266  364.1554
 267  -20.49684
 268  192.0856
 269  444.8973
 270  506.3273
 271  643.2999
 272  549.2064
 273  625.3109
 274  251.5169
 275  28.2701
 276  -48.30546
 277  213.7309
 278  398.426
 279  730.1179
 280  1005.37
 281  171.9935
 282  718.1734
 283  637.0966
 284  462.9303
 285  607.236
 286  430.3312
 287  738.9752
 288  554.2386
 289  693.0949
 290  1306.399
 291  977.3262
 292  723.7853
 293  1036.023
 294  1084.806
 295  881.4596
 296  917.7404
 297  990.9517
 298  1146.501
 299  516.8824
 300  634.3634
 301  889.2297
 302  1117.544
 303  1523.447
 304  1158.947
 305  999.3501
 306  1021.591
 307  816.1547
 308  422.7373
 309  398.7893
 310  649.9011
 311  936.2771
 312  1250.74
 313  1221.097
 314  786.3903
 315  857.4308
 316  928.3318
 317  1256.447
 318  1768.367
 319  2288.147
 320  2321.275
 321  2301.794
 322  2777.199
 323  1854.787
 324  1458.813
 325  1982.59
 326  1573.121
 327  986.9267
 328  598.0831
 329  663.7449
 330  786.168
 331  507.7382
 332  727.2963
 333  1111.742
 334  1172.394
 335  1432.03
 336  1330.911
 337  1263.991
 338  975.6495
 339  912.23
 340  738.7209
 341  881.4568
 342  978.5341
 343  852.5172
 344  756.152
 345  1058.763
 346  1137.157
 347  500.1006
 348  645.2418
 349  1067.688
 350  1054.641
 351  987.6359
 352  968.1617
 353  574.9421
 354  1083.434
 355  545.714
 356  277.1244
 357  520.0842
 358  921.165
 359  948.6416
 360  1013.594
 361  975.678
 362  678.7785
 363  842.8876
 364  826.3082
 365  918.058
 366  1219.994
 367  1095.712
 368  943.4344
 369  1106.708
 370  740.1526
 371  406.4666
 372  496.9222
 373  650.5061
 374  691.0216
 375  869.9803
 376  597.0356
 377  674.5338
 378  628.7161
 379  974.1523
 380  1198.406
 381  724.9225
 382  584.328
 383  1020.259
 384  836.8353
 385  539.4917
 386  294.9831
 387  344.84
 388  1114.093
 389  1231.967
 390  838.0401
 391  752.31
 392  765.1078
 393  1097.019
 394  1131.137
 395  843.0118
 396  677.2948
 397  895.8195
 398  1028.445
 399  1225.901
 400  1420.739
 401  1544.773
 402  735.8458
 403  469.2818
 404  289.9803
 405  740.6109
 406  687.2476
 407  733.4846
 408  1366.773
 409  751.8264
 410  40.46243
 411  539.5777
 412  583.6716
 413  241.798
 414  451.7096
 415  622.3626
 416  312.7186
 417  325.6172
 418  81.52756
 419  759.4949
 420  602.7697
 421  540.4658
 422  1141.66
 423  446.6509
 424  170.1996
 425  478.6337
 426  615.9464
 427  943.782
 428  816.4202
 429  815.9892
 430  327.3584
 431  667.2822
 432  621.4003
 433  488.1649
 434  816.9703
 435  1192.4
 436  1049.968
 437  422.0897
 438  453.1206
 439  100.8318
 440  388.4118
 441  873.2764
 442  380.6247
 443  426.1321
 444  396.9441
 445  610.1437
 446  398.9279
 447  361.5446
 448  678.2903
 449  408.0185
 450  294.4924
 451  149.703
 452  157.9121
 453  462.8763
 454  526.8759
 455  505.7905
 456  -1.29732
 457  -189.3471
 458  63.7398
 459  552.0046
 460  941.3145
 461  839.7728
 462  559.8448
 463  366.9848
 464  288.4135
 465  -217.5079
 466  -328.3476
 467  -65.17379
 468  20.18123
 469  308.6075
 470  529.7517
 471  431.4987
 472  458.3426
 473  1097.795
 474  1008.873
 475  973.2704
 476  469.6655
 477  242.0873
 478  547.1954
 479  460.2446
 480  475.93
 481  618.9842
 482  395.119
 483  248.4655
 484  766.4792
 485  448.9679
 486  644.0873
 487  964.1237
 488  842.3728
 489  416.7427
 490  321.1109
 491  920.3815
 492  893.166
 493  725.966
 494  403.636
 495  717.4086
 496  1023.06
 497  1508.699
 498  992.5694
 499  276.5251
 500  587.0764
 501  1125.552
 502  829.2114
 503  313.0055
 504  824.4918
 505  1233.467
 506  1061.641
 507  877.3958
 508  741.2705
 509  728.2696
 510  889.3309
 511  548.9265
