# Input file       =  1189470387.118155_cleaned.dat
# Candidate        =  PSR_0332+5434
# Telescope        =  AR
# Epoch_topo       =  58011.018589330495
# Epoch_bary       =  N/A
# T_sample         =  0.002
# Data Folded      =  7340032
# Data Avg         =  0.0102400913362674
# Data StdDev      =  2.52105848114369 
# Profile Bins     =  1024
# Profile Avg      =  73.4141452716477 
# Profile StdDev   =  213.443001016205 
# Reduced chi-sqr  =  1.384
# Prob(Noise)      <  3.33e-15   (~7.8 sigma)
# P_topo (ms)      =  714.465884456542  +/- 0.00013
# P'_topo (s/s)    =  -0                +/- 6.88e-11
# P''_topo (s/s^2) =  0                 +/- 3.04e-14
# P_bary (ms)      =  N/A
# P'_bary (s/s)    =  N/A
# P''_bary (s/s^2) =  N/A
# P_orb (s)        =  N/A
# asin(i)/c (s)    =  N/A
# eccentricity     =  N/A
# w (rad)          =  N/A
# T_peri           =  N/A
######################################################
   0  83.21555
   1  6.920489
   2  -34.48431
   3  85.22633
   4  119.3887
   5  148.3554
   6  116.1138
   7  118.0839
   8  102.0836
   9  58.30566
  10  -39.04719
  11  -0.6060483
  12  152.7759
  13  257.0861
  14  263.4737
  15  171.9887
  16  115.6954
  17  -24.67263
  18  -30.39585
  19  4.176924
  20  40.99788
  21  40.96327
  22  -72.1797
  23  10.14192
  24  58.43783
  25  138.0171
  26  30.5779
  27  92.7301
  28  108.0506
  29  61.9711
  30  -16.29111
  31  6.783296
  32  77.05883
  33  -29.10332
  34  -12.41803
  35  79.38531
  36  129.2997
  37  120.361
  38  -64.1326
  39  -45.53979
  40  -30.51195
  41  75.734
  42  54.06635
  43  43.09265
  44  61.03899
  45  -8.006291
  46  -53.75647
  47  -114.3173
  48  22.9964
  49  85.19192
  50  293.2795
  51  250.4025
  52  180.3253
  53  70.31178
  54  -37.86946
  55  -121.214
  56  -200.7962
  57  -29.71922
  58  68.47695
  59  41.06373
  60  -60.71215
  61  -0.2291795
  62  116.2681
  63  143.1267
  64  60.03779
  65  33.6763
  66  -17.63541
  67  53.83327
  68  179.2875
  69  235.7231
  70  98.4446
  71  -7.091941
  72  37.29502
  73  42.49997
  74  -69.44118
  75  -38.89418
  76  109.0292
  77  264.2611
  78  148.2446
  79  122.6047
  80  109.8
  81  211.7087
  82  79.63396
  83  -48.50761
  84  -144.2533
  85  -133.141
  86  -73.47355
  87  85.24067
  88  137.8864
  89  141.5226
  90  59.56681
  91  5.047431
  92  -76.53091
  93  -98.18678
  94  -38.24105
  95  -11.6839
  96  -40.304
  97  39.72558
  98  97.48935
  99  119.7994
 100  2.026799
 101  83.1123
 102  29.85748
 103  44.56063
 104  70.04246
 105  156.9794
 106  180.1533
 107  60.92242
 108  4.267601
 109  -122.9435
 110  -53.30433
 111  -53.79669
 112  -18.50865
 113  -56.97427
 114  -71.13509
 115  -76.73608
 116  -22.20084
 117  13.85661
 118  51.0023
 119  142.5792
 120  155.5113
 121  67.59304
 122  83.17375
 123  76.78097
 124  22.14932
 125  -48.30774
 126  138.0585
 127  290.4085
 128  360.5659
 129  226.8414
 130  207.2632
 131  128.7848
 132  142.8519
 133  103.9795
 134  34.85587
 135  51.62168
 136  189.8172
 137  200.797
 138  136.9605
 139  12.65169
 140  -8.213465
 141  -71.43359
 142  -16.3991
 143  34.92472
 144  6.147156
 145  67.55287
 146  157.8885
 147  248.2513
 148  159.6239
 149  122.8246
 150  206.2257
 151  263.4896
 152  225.9643
 153  82.82147
 154  8.906047
 155  114.1902
 156  229.809
 157  226.622
 158  166.2058
 159  147.9415
 160  218.6357
 161  251.1433
 162  301.1024
 163  159.6151
 164  -1.86964
 165  -52.22751
 166  101.546
 167  187.5855
 168  130.3531
 169  11.57842
 170  -4.398962
 171  72.65874
 172  64.46142
 173  36.00502
 174  5.565291
 175  83.54165
 176  51.22112
 177  -52.8357
 178  -209.2839
 179  -239.2036
 180  -148.4978
 181  -1.827576
 182  110.0269
 183  66.55406
 184  -59.42588
 185  -88.77299
 186  82.81069
 187  230.7666
 188  224.0018
 189  49.71552
 190  -51.72083
 191  13.88943
 192  168.5969
 193  216.1162
 194  274.0857
 195  185.752
 196  151.732
 197  81.61399
 198  27.87106
 199  33.30003
 200  0.4133989
 201  170.3189
 202  145.5156
 203  116.8117
 204  -22.23809
 205  -15.86061
 206  67.38152
 207  213.6466
 208  260.1151
 209  268.7869
 210  191.3403
 211  156.0384
 212  171.4091
 213  152.8827
 214  133.0235
 215  55.31671
 216  79.09981
 217  72.90807
 218  76.17423
 219  -54.78767
 220  -63.61503
 221  40.86473
 222  84.66034
 223  5.90044
 224  33.41965
 225  144.0071
 226  242.3322
 227  214.3535
 228  166.2328
 229  104.151
 230  118.065
 231  132.9665
 232  130.8947
 233  37.49601
 234  85.43188
 235  106.3599
 236  162.5568
 237  157.4029
 238  209.8226
 239  257.9167
 240  268.2115
 241  213.0736
 242  92.26093
 243  -6.269668
 244  -68.22601
 245  -51.70431
 246  -66.00481
 247  -135.5618
 248  -128.9606
 249  -36.62531
 250  203.9453
 251  80.60186
 252  -13.93635
 253  -111.2473
 254  -42.19736
 255  -71.77332
 256  25.07238
 257  32.56239
 258  57.20374
 259  -48.32429
 260  -56.49478
 261  -95.8733
 262  -162.2865
 263  -94.00454
 264  25.69943
 265  181.2974
 266  239.3099
 267  99.03914
 268  54.39972
 269  -51.50718
 270  -25.38788
 271  -60.18719
 272  -50.15538
 273  22.46315
 274  174.9719
 275  210.6998
 276  73.7457
 277  -190.1948
 278  -231.4447
 279  -207.0971
 280  -3.027467
 281  -45.03537
 282  -19.98235
 283  -46.10497
 284  -0.3814433
 285  73.91206
 286  83.1379
 287  80.71123
 288  41.21615
 289  34.37807
 290  -23.26428
 291  -89.96049
 292  -231.8677
 293  -197.3111
 294  -76.78588
 295  92.06773
 296  200.8328
 297  124.4656
 298  107.9216
 299  24.47971
 300  -72.8202
 301  -93.10682
 302  5.441005
 303  106.6977
 304  74.19937
 305  128.8912
 306  88.54406
 307  52.05412
 308  20.33373
 309  77.52113
 310  121.6976
 311  85.65018
 312  50.24872
 313  20.2338
 314  39.45896
 315  38.62478
 316  -1.120185
 317  -101.4758
 318  44.39661
 319  142.0081
 320  239.1098
 321  151.8449
 322  169.137
 323  102.0067
 324  39.2031
 325  -9.294951
 326  60.7515
 327  88.63409
 328  145.6589
 329  145.4721
 330  113.2955
 331  137.399
 332  190.2243
 333  193.209
 334  89.22105
 335  -2.277985
 336  -53.3371
 337  25.42803
 338  72.98859
 339  136.7364
 340  152.4915
 341  170.3459
 342  60.18712
 343  -11.89814
 344  52.80827
 345  250.4117
 346  301.7898
 347  337.7991
 348  179.9349
 349  -87.44608
 350  -227.5919
 351  -87.77158
 352  74.62569
 353  53.86098
 354  -15.33661
 355  30.98626
 356  57.89103
 357  64.5573
 358  43.2756
 359  21.09127
 360  60.9263
 361  129.4697
 362  220.3093
 363  133.7909
 364  -23.01538
 365  41.29708
 366  105.3621
 367  204.0672
 368  126.6144
 369  96.36791
 370  97.50215
 371  69.73236
 372  40.57042
 373  -9.076607
 374  -76.02021
 375  -82.42342
 376  -97.75682
 377  -21.85341
 378  -45.43674
 379  109.4926
 380  155.8474
 381  128.9397
 382  88.02429
 383  52.47669
 384  20.19183
 385  -10.73184
 386  92.4959
 387  237.9667
 388  262.1375
 389  168.0835
 390  91.65778
 391  69.15496
 392  73.44276
 393  52.28539
 394  21.02094
 395  -31.27668
 396  -36.36755
 397  -35.29113
 398  -117.3162
 399  -72.974
 400  70.64342
 401  79.90038
 402  54.58933
 403  67.82112
 404  215.5936
 405  148.9269
 406  131.8566
 407  61.08346
 408  -0.6961738
 409  32.04722
 410  154.6252
 411  190.6353
 412  85.21463
 413  -68.44908
 414  -128.998
 415  -144.2705
 416  34.20801
 417  151.994
 418  78.16518
 419  -62.36813
 420  -78.62783
 421  27.57101
 422  90.13811
 423  16.30843
 424  87.91856
 425  13.00629
 426  -106.2328
 427  -123.2648
 428  -133.6693
 429  135.0388
 430  183.6931
 431  290.6339
 432  178.5173
 433  -3.607637
 434  12.05462
 435  14.37418
 436  205.8549
 437  306.4137
 438  399.0094
 439  403.8004
 440  242.9296
 441  190.8139
 442  80.97356
 443  119.6196
 444  35.63163
 445  45.83656
 446  -1.04134
 447  -13.27584
 448  -91.15611
 449  -11.24816
 450  97.26396
 451  160.8298
 452  110.7888
 453  171.9162
 454  217.5531
 455  194.3608
 456  -17.51217
 457  -62.38895
 458  -17.60808
 459  82.65197
 460  13.40911
 461  49.86542
 462  59.75687
 463  139.6533
 464  70.08307
 465  12.89109
 466  18.24105
 467  38.79534
 468  59.69529
 469  12.53306
 470  10.21366
 471  29.42804
 472  95.65725
 473  76.70106
 474  2.899752
 475  3.701363
 476  117.7085
 477  121.3445
 478  74.90022
 479  110.2612
 480  211.9896
 481  235.1076
 482  232.4091
 483  209.8731
 484  100.6367
 485  -57.55231
 486  -32.43118
 487  52.12856
 488  113.2397
 489  103.5099
 490  207.897
 491  294.2833
 492  223.8689
 493  -14.67526
 494  -49.34311
 495  28.92446
 496  -2.4589
 497  -102.983
 498  -33.1269
 499  58.79432
 500  20.15204
 501  -55.38157
 502  -60.30814
 503  25.1557
 504  98.76739
 505  169.4482
 506  119.0446
 507  12.87498
 508  -46.05692
 509  -43.84473
 510  9.647921
 511  -23.30667
 512  -25.95293
 513  -110.5107
 514  -117.6235
 515  -113.1775
 516  -58.42804
 517  74.09501
 518  122.7047
 519  53.69961
 520  -12.3275
 521  -159.8335
 522  -136.8541
 523  -92.40041
 524  156.4576
 525  206.856
 526  145.6287
 527  24.14765
 528  -43.27686
 529  -123.5454
 530  -73.96498
 531  56.81579
 532  183.4671
 533  123.0742
 534  103.8262
 535  -5.163345
 536  -35.94345
 537  -133.9889
 538  -83.28488
 539  -163.9624
 540  0.02191728
 541  83.80652
 542  163.9321
 543  88.82488
 544  4.107377
 545  -90.75723
 546  -197.0873
 547  -118.6137
 548  16.22373
 549  27.67292
 550  -21.96968
 551  -21.27585
 552  61.94165
 553  38.05195
 554  12.78378
 555  83.1876
 556  178.4325
 557  230.5819
 558  107.8353
 559  84.98766
 560  106.4849
 561  156.3533
 562  76.22092
 563  -126.2741
 564  -156.9758
 565  -121.6089
 566  -9.588083
 567  3.336168
 568  111.6447
 569  70.76286
 570  100.1032
 571  54.98966
 572  -105.3518
 573  -109.499
 574  -16.00817
 575  106.6735
 576  87.36067
 577  50.09509
 578  103.8047
 579  176.1016
 580  203.1599
 581  91.37527
 582  -30.43724
 583  2.108115
 584  63.18297
 585  97.01152
 586  52.37434
 587  61.6247
 588  82.53696
 589  114.6075
 590  43.22962
 591  31.47825
 592  31.09813
 593  81.3684
 594  73.84047
 595  56.36576
 596  50.06694
 597  98.04492
 598  88.92757
 599  159.3736
 600  183.3383
 601  237.2769
 602  115.6363
 603  37.24429
 604  39.02044
 605  97.55942
 606  83.16733
 607  59.1082
 608  106.0971
 609  120.4402
 610  130.3181
 611  142.6285
 612  109.114
 613  102.0064
 614  -7.476741
 615  34.57612
 616  183.6185
 617  286.1768
 618  217.5592
 619  47.79882
 620  -24.59328
 621  19.75785
 622  5.331476
 623  19.79223
 624  63.27563
 625  127.7695
 626  155.8601
 627  125.5468
 628  77.78513
 629  136.4702
 630  215.7408
 631  251.9705
 632  152.9603
 633  148.7013
 634  136.6223
 635  226.1718
 636  410.6014
 637  631.3881
 638  820.7637
 639  858.1402
 640  1036.741
 641  1061.273
 642  979.5839
 643  861.9698
 644  870.2329
 645  796.9487
 646  648.9719
 647  560.131
 648  477.8038
 649  390.8976
 650  218.161
 651  101.8748
 652  201.4659
 653  306.199
 654  314.2054
 655  117.1414
 656  35.79523
 657  51.38191
 658  114.4815
 659  160.5827
 660  133.79
 661  113.1755
 662  107.9823
 663  170.2477
 664  189.4567
 665  214.7889
 666  208.771
 667  306.6472
 668  275.9388
 669  224.4626
 670  158.0347
 671  69.66039
 672  65.97363
 673  45.72762
 674  52.07456
 675  132.4642
 676  149.3275
 677  165.9708
 678  70.19886
 679  18.26471
 680  -72.7017
 681  -91.40228
 682  -41.76835
 683  4.927757
 684  95.72208
 685  55.68315
 686  -45.26433
 687  -174.3331
 688  -43.33176
 689  122.5823
 690  101.7531
 691  0.04059793
 692  -76.64273
 693  -95.20775
 694  -179.8073
 695  -166.285
 696  -42.2753
 697  102.2884
 698  110.3504
 699  -55.64404
 700  -177.1012
 701  -200.8891
 702  -42.6999
 703  80.68742
 704  93.85594
 705  27.02983
 706  42.14486
 707  90.03384
 708  71.48847
 709  79.04528
 710  178.425
 711  182.6294
 712  177.6321
 713  106.4715
 714  28.02257
 715  -74.79486
 716  -43.72603
 717  36.67073
 718  125.1207
 719  150.3295
 720  68.65401
 721  35.63178
 722  72.60602
 723  209.5945
 724  171.4292
 725  142.1484
 726  176.0929
 727  325.4018
 728  160.381
 729  -44.19562
 730  -247.0652
 731  -113.9699
 732  36.52851
 733  142.7079
 734  113.3009
 735  77.54982
 736  185.9314
 737  170.6393
 738  223.3424
 739  190.6012
 740  106.0555
 741  -36.60643
 742  -94.87465
 743  -80.15098
 744  -38.81668
 745  -71.58485
 746  -10.14261
 747  9.279269
 748  71.82041
 749  58.88478
 750  42.88997
 751  82.06699
 752  114.2101
 753  218.1876
 754  312.7913
 755  327.3212
 756  302.361
 757  117.0338
 758  -82.39031
 759  -149.2831
 760  -112.3223
 761  30.38791
 762  100.4901
 763  150.5273
 764  70.57132
 765  -35.79816
 766  6.308375
 767  99.25935
 768  138.0083
 769  110.2167
 770  -10.47561
 771  -75.21989
 772  -146.0062
 773  -16.57556
 774  179.0172
 775  203.7677
 776  45.24905
 777  13.90179
 778  79.37669
 779  108.0051
 780  -31.83502
 781  -4.944158
 782  71.39063
 783  129.6468
 784  59.35201
 785  185.5449
 786  207.976
 787  289.3519
 788  221.0334
 789  269.6209
 790  203.5541
 791  276.7467
 792  257.2046
 793  227.1243
 794  62.32573
 795  27.74459
 796  46.11838
 797  146.9475
 798  197.976
 799  279.2357
 800  294.3991
 801  246.7849
 802  287.3303
 803  256.1199
 804  200.7911
 805  59.69922
 806  -15.87743
 807  47.53107
 808  89.49422
 809  159.5071
 810  247.4738
 811  364.6523
 812  423.985
 813  339.0074
 814  199.4305
 815  152.668
 816  143.1937
 817  183.8575
 818  194.8269
 819  208.9982
 820  123.5365
 821  42.8352
 822  63.64608
 823  90.0963
 824  207.7416
 825  206.8542
 826  162.7086
 827  58.41979
 828  64.41519
 829  40.77264
 830  56.96217
 831  -10.80756
 832  90.94868
 833  40.53382
 834  85.93301
 835  40.21102
 836  20.32701
 837  1.498702
 838  34.24065
 839  63.13554
 840  77.13916
 841  73.36628
 842  127.2925
 843  79.8605
 844  105.6239
 845  89.47331
 846  97.12727
 847  88.18915
 848  157.4219
 849  258.4706
 850  177.3808
 851  88.1339
 852  -48.14328
 853  -28.68749
 854  -11.7819
 855  36.25069
 856  51.71553
 857  4.623502
 858  15.61228
 859  -8.035625
 860  88.92174
 861  58.70681
 862  36.25393
 863  -19.81092
 864  -14.10891
 865  11.50624
 866  -48.54433
 867  -13.34031
 868  91.26501
 869  126.9245
 870  11.64925
 871  -39.93951
 872  8.422079
 873  1.397958
 874  2.919156
 875  136.627
 876  224.4968
 877  225.5572
 878  174.9118
 879  161.4935
 880  183.3421
 881  142.8735
 882  146.8235
 883  74.77268
 884  5.703569
 885  -52.72859
 886  32.6175
 887  160.8896
 888  113.9274
 889  -10.61374
 890  -97.59581
 891  -39.06818
 892  -111.7543
 893  -85.84614
 894  -39.03696
 895  183.4551
 896  170.9955
 897  153.5505
 898  149.5393
 899  220.0184
 900  208.1971
 901  79.41019
 902  -76.81824
 903  -246.8448
 904  -280.9551
 905  -140.8895
 906  -68.33829
 907  -101.0583
 908  -158.2616
 909  -42.61478
 910  10.56991
 911  -128.3681
 912  -197.7844
 913  -70.65945
 914  170.8451
 915  198.4277
 916  134.8701
 917  48.55602
 918  128.8335
 919  92.53899
 920  49.73574
 921  -0.8772808
 922  18.44504
 923  -12.93535
 924  -106.2271
 925  -121.327
 926  -63.39359
 927  108.8912
 928  49.61819
 929  -130.1886
 930  -191.8854
 931  -72.6748
 932  53.35479
 933  71.30825
 934  55.52032
 935  102.2831
 936  170.9935
 937  214.0574
 938  133.7764
 939  7.385787
 940  -108.5853
 941  -140.4811
 942  -132.9642
 943  -45.68818
 944  83.07059
 945  66.88956
 946  27.54558
 947  84.76189
 948  157.2644
 949  211.7326
 950  40.2521
 951  -75.96468
 952  -114.2059
 953  55.57765
 954  113.0177
 955  155.0318
 956  56.94556
 957  53.26005
 958  83.8484
 959  113.4293
 960  151.237
 961  196.0559
 962  202.3385
 963  220.7494
 964  194.6174
 965  165.1769
 966  -30.77576
 967  -125.3722
 968  -38.64853
 969  83.0247
 970  66.27549
 971  -21.72522
 972  -142.2769
 973  -155.5553
 974  -219.7379
 975  20.25295
 976  195.3631
 977  315.4781
 978  322.0638
 979  289.1499
 980  233.6942
 981  97.86526
 982  56.34787
 983  127.437
 984  214.1558
 985  62.90521
 986  -34.33931
 987  -95.96409
 988  12.71834
 989  -43.00444
 990  -168.3839
 991  -53.13752
 992  59.85671
 993  143.7767
 994  97.81901
 995  57.82447
 996  11.67562
 997  -28.03029
 998  -77.30584
 999  15.26426
1000  103.6472
1001  191.4714
1002  194.5831
1003  163.9665
1004  24.50537
1005  -146.9032
1006  -233.8407
1007  -307.6336
1008  -143.9195
1009  23.63442
1010  229.011
1011  223.6784
1012  45.51078
1013  -56.19003
1014  -33.2921
1015  77.16061
1016  112.526
1017  103.7585
1018  201.1633
1019  220.4368
1020  181.1939
1021  35.83192
1022  0.5893691
1023  68.24052
