# Input file       =  1189972712.116665_cleaned.dat
# Candidate        =  PSR_0332+5434
# Telescope        =  AR
# Epoch_topo       =  58016.832536072507
# Epoch_bary       =  N/A
# T_sample         =  0.002
# Data Folded      =  7143424
# Data Avg         =  0.532359672707099
# Data StdDev      =  15.7744063417948 
# Profile Bins     =  512
# Profile Avg      =  7427.53586917509 
# Profile StdDev   =  1863.25054813459 
# Reduced chi-sqr  =  0.996
# Prob(Noise)      <  0.519   (~0.0 sigma)
# P_topo (ms)      =  714.46782988093   +/- 0.000178
# P'_topo (s/s)    =  -0                +/- 9.63e-11
# P''_topo (s/s^2) =  0                 +/- 4.37e-14
# P_bary (ms)      =  N/A
# P'_bary (s/s)    =  N/A
# P''_bary (s/s^2) =  N/A
# P_orb (s)        =  N/A
# asin(i)/c (s)    =  N/A
# eccentricity     =  N/A
# w (rad)          =  N/A
# T_peri           =  N/A
######################################################
   0  7638.423
   1  8050.795
   2  9035.03
   3  8015.946
   4  6816.907
   5  6890.478
   6  7624.002
   7  7673.359
   8  6799.074
   9  5721.479
  10  6233.539
  11  5891.207
  12  5914.16
  13  6590.582
  14  6731.864
  15  7323.631
  16  7585.3
  17  7397.775
  18  5649.563
  19  6237.715
  20  5531.042
  21  4372.836
  22  4672.233
  23  5440.507
  24  5014.472
  25  4232.108
  26  4681.005
  27  6028.432
  28  5145.532
  29  5400.914
  30  6806.746
  31  5794.38
  32  6093.232
  33  7427.335
  34  7691.329
  35  8985.243
  36  8540.121
  37  8058.794
  38  7176.121
  39  5987.386
  40  6372.814
  41  7418.265
  42  9567.179
  43  6923.696
  44  7077.338
  45  6744.141
  46  5238.919
  47  6316.02
  48  7276.066
  49  7353.913
  50  7469.47
  51  6852.138
  52  6569.854
  53  6302.879
  54  6243.749
  55  5140.867
  56  5900.273
  57  6792.715
  58  8218.178
  59  7356.435
  60  6795.06
  61  7394.595
  62  7360.447
  63  7259.125
  64  7954.81
  65  8578.153
  66  9915.792
  67  8146.091
  68  7853.158
  69  8797.896
  70  8141.755
  71  7462.43
  72  7301.361
  73  7957.463
  74  8650.15
  75  8067.494
  76  6400.476
  77  7429.626
  78  6918.22
  79  7481.607
  80  6242.946
  81  4617.015
  82  5770.023
  83  6882.4
  84  7519.217
  85  6300.009
  86  7157.202
  87  7128.681
  88  6087.506
  89  6189.008
  90  6414.328
  91  6659.58
  92  8513.863
  93  8990.427
  94  8346.581
  95  6803.073
  96  7202.793
  97  8406.592
  98  8493.604
  99  8481.561
 100  8647.942
 101  8710.8
 102  8561.233
 103  9032.296
 104  8241.663
 105  8793.535
 106  8749.22
 107  9049.996
 108  9473.257
 109  8537.381
 110  7927.48
 111  7714.334
 112  6025.398
 113  5359.909
 114  4851.267
 115  5289.113
 116  6663.39
 117  7320.889
 118  6867.617
 119  5489.782
 120  6376.259
 121  6750.825
 122  6812.78
 123  8491.631
 124  7773.412
 125  7569.146
 126  7363.398
 127  7625.139
 128  7908.072
 129  8231.115
 130  8946.818
 131  8362.4
 132  9297.74
 133  7460.335
 134  7322.325
 135  6635.315
 136  6032.085
 137  7442.837
 138  6791.515
 139  7962.015
 140  7914.156
 141  8878.018
 142  7281.011
 143  7655.08
 144  6374.595
 145  7090.894
 146  9286.709
 147  10058.02
 148  8704.622
 149  9939.665
 150  8833.639
 151  7529.362
 152  6969.675
 153  6933.393
 154  6688.669
 155  7596.706
 156  7535.629
 157  6859.747
 158  6651.5
 159  8061.495
 160  7057.01
 161  9150.646
 162  7265.862
 163  6528.914
 164  8356.033
 165  8848.281
 166  9003.643
 167  8211.831
 168  7084.729
 169  7006.411
 170  8116.727
 171  7346.12
 172  7656.432
 173  8255.249
 174  7700.298
 175  8284.227
 176  7536.822
 177  7520.646
 178  8831.133
 179  10090.56
 180  8476.445
 181  7688.061
 182  7065.269
 183  5977.677
 184  6160.135
 185  8321.604
 186  6772.492
 187  7237.482
 188  8405.863
 189  10158.67
 190  8973.276
 191  9146.501
 192  9386.321
 193  9233.137
 194  9651.538
 195  9538.938
 196  9706.862
 197  9234.68
 198  9784.996
 199  11791.23
 200  9622.521
 201  9722.119
 202  8413.125
 203  7960.668
 204  8625.706
 205  8859.598
 206  8327.585
 207  7731.105
 208  7081.461
 209  6936.651
 210  6270.931
 211  7342.916
 212  6426.262
 213  4552.793
 214  3767.219
 215  3836.247
 216  5638.522
 217  6954.481
 218  6887.084
 219  5503.843
 220  5142.644
 221  5512.852
 222  5307.711
 223  5690.745
 224  5522.24
 225  6336.235
 226  6900.27
 227  7767.136
 228  7784.073
 229  6880.148
 230  7329.122
 231  8042.166
 232  8308.698
 233  7709.371
 234  7335.471
 235  8687.056
 236  9585.412
 237  9430.39
 238  7694.31
 239  6523.049
 240  7898.312
 241  8764.151
 242  7199.214
 243  7981.118
 244  6763.804
 245  6796.901
 246  8427.21
 247  8374.128
 248  7121.236
 249  6843.946
 250  7865.545
 251  8121.955
 252  7640.007
 253  7057.708
 254  7188.507
 255  6015.935
 256  5229.439
 257  6704.01
 258  7541.921
 259  7508.349
 260  7081.656
 261  5966.737
 262  5780.68
 263  5065.247
 264  6433.909
 265  7104.915
 266  5998.448
 267  5829.778
 268  5995.367
 269  4918.838
 270  5546.043
 271  4818.467
 272  6825.385
 273  8470.102
 274  7984.839
 275  8090.944
 276  6829.635
 277  7540.108
 278  7677.764
 279  7965.456
 280  8475.699
 281  8188.342
 282  7824.949
 283  8913.656
 284  9928.526
 285  9073.037
 286  6677.583
 287  7835.905
 288  8700.191
 289  8823.215
 290  8647.98
 291  7444.526
 292  6914.598
 293  7839.084
 294  7897.92
 295  8860.963
 296  8524.363
 297  9203.479
 298  8019.225
 299  8626.065
 300  6690.161
 301  7201.396
 302  8392.116
 303  6747.711
 304  6370.64
 305  7422.332
 306  7348.059
 307  6425.193
 308  5481.276
 309  4859.799
 310  5320.5
 311  5394.297
 312  5977.84
 313  4898.392
 314  4427.181
 315  4673.852
 316  5677.323
 317  4854.06
 318  5211.582
 319  6096.732
 320  6850.684
 321  7512.4
 322  7011.975
 323  7033.307
 324  7030.474
 325  7200.468
 326  8997.306
 327  9576.668
 328  9965.444
 329  8940.03
 330  7139.168
 331  8417.038
 332  8967.459
 333  8097.558
 334  9232.919
 335  10736.57
 336  10955.41
 337  9303.188
 338  8494.073
 339  7373.955
 340  8166.763
 341  8426.44
 342  7842.355
 343  7555.987
 344  8096.275
 345  9742.341
 346  9849.003
 347  8073.687
 348  6341.624
 349  6938.016
 350  9358.759
 351  8263.043
 352  8522.463
 353  9648.386
 354  8716.697
 355  8611.626
 356  9369.565
 357  8769.843
 358  7960.008
 359  8836.062
 360  8628.31
 361  9315.922
 362  8250.504
 363  8094.611
 364  8966.842
 365  9807.913
 366  8450.985
 367  8156.242
 368  8241.629
 369  9432.338
 370  9595.839
 371  11184.02
 372  11296.22
 373  10291.47
 374  9233.508
 375  9434.399
 376  8296.189
 377  8397.328
 378  8965.598
 379  9673.898
 380  10103.96
 381  9216.389
 382  7493.877
 383  6921.292
 384  6968.18
 385  7073.33
 386  7288.462
 387  6478.546
 388  6420.402
 389  5912.527
 390  6122.239
 391  6254.985
 392  6667.176
 393  6736.367
 394  8562.006
 395  6875.99
 396  7674.587
 397  7578.151
 398  7151.21
 399  6660.135
 400  5350.151
 401  5851.124
 402  6218.646
 403  6754.998
 404  6747.588
 405  5055.837
 406  5197.42
 407  6707.812
 408  5626.579
 409  5636.447
 410  6531.082
 411  5024.699
 412  4930.357
 413  6024.934
 414  4783.815
 415  4885.65
 416  5093.058
 417  5542.931
 418  5974.009
 419  7963.936
 420  6478.19
 421  5952.333
 422  5740.382
 423  7162.62
 424  7275.123
 425  5622.68
 426  5753.629
 427  7377.122
 428  7038.073
 429  7505.345
 430  7939.829
 431  7266.274
 432  8348.583
 433  7307.862
 434  6013.296
 435  4799.8
 436  6474.4
 437  8538.448
 438  8600.155
 439  8319.473
 440  7270.722
 441  8102.381
 442  8487.217
 443  6952.588
 444  7238.417
 445  6759.671
 446  8209.951
 447  8113.18
 448  6966.627
 449  6081.518
 450  5902.181
 451  7564.622
 452  6184.407
 453  5510.949
 454  6739.596
 455  7320.321
 456  6695.615
 457  7222.963
 458  6967.23
 459  7788.737
 460  7778.218
 461  8189.167
 462  7182.178
 463  7887.161
 464  6644.418
 465  5848.007
 466  7537.471
 467  6103.671
 468  5574.196
 469  7568.435
 470  8238.671
 471  8898.773
 472  6642.957
 473  5099.726
 474  6128.356
 475  6309.255
 476  8655.038
 477  9192.087
 478  7736.266
 479  7755.738
 480  8229.809
 481  7924.377
 482  8371.485
 483  7509.28
 484  7172.655
 485  7108.58
 486  6610.818
 487  7483.617
 488  8054.188
 489  8068.124
 490  8830.265
 491  7030.951
 492  5716.635
 493  6734.047
 494  7700.241
 495  7938.661
 496  7901.498
 497  8330.729
 498  8246.069
 499  10402.61
 500  10237.46
 501  9783.211
 502  9468.147
 503  9046.648
 504  9273.862
 505  8634.354
 506  6819.618
 507  6613.338
 508  8169.476
 509  7440.051
 510  8084.72
 511  6918.84
