# Input file       =  1189197207.127362_cleaned.dat
# Candidate        =  PSR_0332+5434
# Telescope        =  AR
# Epoch_topo       =  58007.856783881507
# Epoch_bary       =  N/A
# T_sample         =  0.002
# Data Folded      =  7208960
# Data Avg         =  0.0619089690608565
# Data StdDev      =  3.48863940497307 
# Profile Bins     =  512
# Profile Avg      =  871.681818679806 
# Profile StdDev   =  413.959076434938 
# Reduced chi-sqr  =  0.711
# Prob(Noise)      <  1   (~0.0 sigma)
# P_topo (ms)      =  714.465049339624  +/- 0.000838
# P'_topo (s/s)    =  -0                +/- 4.5e-10
# P''_topo (s/s^2) =  0                 +/- 2.02e-13
# P_bary (ms)      =  N/A
# P'_bary (s/s)    =  N/A
# P''_bary (s/s^2) =  N/A
# P_orb (s)        =  N/A
# asin(i)/c (s)    =  N/A
# eccentricity     =  N/A
# w (rad)          =  N/A
# T_peri           =  N/A
######################################################
   0  805.9763
   1  535.2277
   2  598.9316
   3  487.6062
   4  864.6884
   5  990.5107
   6  1074.607
   7  762.6304
   8  802.3693
   9  932.1558
  10  739.8889
  11  534.6674
  12  469.3897
  13  741.8989
  14  944.4746
  15  1156.041
  16  968.5868
  17  758.8586
  18  489.8177
  19  621.1624
  20  721.2271
  21  864.3719
  22  1008.932
  23  846.1391
  24  868.4557
  25  842.0228
  26  567.4034
  27  625.2225
  28  824.1589
  29  593.9852
  30  680.2425
  31  804.6758
  32  708.8082
  33  619.7447
  34  534.0166
  35  645.5999
  36  759.6839
  37  758.0533
  38  656.7788
  39  865.9991
  40  904.5028
  41  1012.44
  42  825.6924
  43  851.1774
  44  1254.41
  45  976.7294
  46  809.0952
  47  737.6786
  48  797.7957
  49  900.6957
  50  978.0208
  51  789.2337
  52  873.0178
  53  1154.646
  54  938.6346
  55  969.9197
  56  759.4739
  57  918.7212
  58  864.2053
  59  700.9406
  60  850.9833
  61  587.4221
  62  610.6738
  63  850.2635
  64  963.8635
  65  1023.34
  66  960.6357
  67  644.0843
  68  657.0295
  69  948.4967
  70  949.2112
  71  984.2849
  72  885.8976
  73  854.0255
  74  606.1896
  75  354.9349
  76  675.5425
  77  852.7239
  78  600.9364
  79  629.34
  80  655.9979
  81  840.4628
  82  886.5038
  83  718.0825
  84  784.3405
  85  789.8788
  86  789.3134
  87  716.8212
  88  951.7066
  89  971.067
  90  912.4671
  91  1021.822
  92  945.3087
  93  774.6136
  94  777.3038
  95  1182.127
  96  842.3647
  97  763.9325
  98  549.5183
  99  937.5195
 100  680.2439
 101  642.6335
 102  1003.702
 103  878.0997
 104  806.8795
 105  727.0798
 106  1199.079
 107  1142.838
 108  857.1171
 109  587.2726
 110  887.1795
 111  846.2331
 112  633.7233
 113  796.0505
 114  460.0619
 115  778.5477
 116  867.7762
 117  749.8196
 118  673.9895
 119  652.6487
 120  899.6946
 121  1078.224
 122  775.9379
 123  479.1807
 124  775.4796
 125  1085.292
 126  871.8144
 127  566.4387
 128  821.0939
 129  877.5887
 130  985.5631
 131  821.2528
 132  924.3579
 133  791.8439
 134  456.1948
 135  861.1956
 136  1011.457
 137  1069.383
 138  1049.041
 139  926.643
 140  897.3843
 141  737.0156
 142  1062.729
 143  1163.016
 144  1123.871
 145  721.4487
 146  974.8572
 147  887.7813
 148  737.5709
 149  673.4982
 150  1085.792
 151  1054.402
 152  1383.406
 153  985.1476
 154  627.0393
 155  846.5689
 156  599.8839
 157  632.5375
 158  877.0524
 159  1220.949
 160  1223.657
 161  1081.614
 162  898.9326
 163  851.0195
 164  723.1767
 165  795.1501
 166  904.568
 167  1198.166
 168  1120.049
 169  1136.881
 170  826.3629
 171  755.0265
 172  569.6349
 173  486.4589
 174  502.6321
 175  615.7648
 176  899.1202
 177  945.808
 178  813.418
 179  788.0677
 180  801.4637
 181  776.8953
 182  848.5626
 183  804.1165
 184  846.3502
 185  864.9025
 186  1139.355
 187  1126.64
 188  940.5793
 189  579.4651
 190  862.9231
 191  1258.023
 192  1100.662
 193  736.403
 194  745.8732
 195  997.9042
 196  835.2852
 197  1214.715
 198  757.7624
 199  882.516
 200  1062.252
 201  1261.253
 202  1395.611
 203  716.8495
 204  715.9418
 205  809.5111
 206  1092.462
 207  965.4435
 208  1039.748
 209  983.4875
 210  906.8752
 211  1050.211
 212  679.5204
 213  1200.585
 214  1343.205
 215  1070.411
 216  761.5399
 217  1059.597
 218  765.8867
 219  836.6772
 220  921.9706
 221  1162.342
 222  1206.939
 223  558.002
 224  679.9495
 225  488.0939
 226  612.6127
 227  962.8996
 228  1135.871
 229  1384.359
 230  1122
 231  959.4105
 232  881.5637
 233  653.7133
 234  600.9556
 235  674.2645
 236  453.1996
 237  698.6526
 238  1077.807
 239  610.7719
 240  786.7477
 241  665.5358
 242  855.1072
 243  796.4465
 244  727.6511
 245  921.7442
 246  848.1081
 247  719.7939
 248  647.3307
 249  662.827
 250  830.2174
 251  880.1052
 252  861.9165
 253  1163.817
 254  667.2888
 255  753.7237
 256  732.8776
 257  796.6447
 258  624.7631
 259  532.4508
 260  755.5583
 261  1250.136
 262  1137.458
 263  803.2419
 264  1008.904
 265  487.7699
 266  1070.838
 267  1077.77
 268  970.4774
 269  1109.287
 270  872.8689
 271  834.6597
 272  509.3286
 273  673.0581
 274  860.6248
 275  1050.3
 276  929.329
 277  1177.961
 278  986.1087
 279  731.4424
 280  956.7034
 281  769.844
 282  676.9876
 283  904.0613
 284  1185.218
 285  1007.898
 286  1077.186
 287  1062.799
 288  825.5813
 289  704.9344
 290  581.2274
 291  620.6078
 292  697.4709
 293  1375.845
 294  919.0434
 295  1141.185
 296  847.4177
 297  777.7546
 298  873.1845
 299  532.636
 300  945.5118
 301  971.9494
 302  1146.054
 303  1002.074
 304  840.7626
 305  1240.576
 306  1022.953
 307  734.7194
 308  905.6638
 309  931.6384
 310  737.3442
 311  921.9181
 312  1055.694
 313  899.3802
 314  594.4798
 315  603.2195
 316  993.0485
 317  1317.204
 318  1417.154
 319  2081.218
 320  2263.369
 321  2474.137
 322  2546.866
 323  2165.529
 324  1853.827
 325  1233.364
 326  1273.22
 327  863.8188
 328  1071.907
 329  1044.547
 330  701.1641
 331  790.1943
 332  1086.057
 333  1241.449
 334  1232.396
 335  1210.559
 336  1129.486
 337  920.3203
 338  945.5959
 339  856.665
 340  818.9183
 341  830.8918
 342  1072.851
 343  888.1526
 344  573.5688
 345  850.5313
 346  1163.616
 347  863.0222
 348  1004.632
 349  1182.62
 350  1162.158
 351  602.0095
 352  341.0611
 353  925.7402
 354  894.1872
 355  729.401
 356  855.0632
 357  824.5676
 358  959.3661
 359  732.1897
 360  943.4616
 361  930.1138
 362  878.6918
 363  813.5309
 364  982.9142
 365  660.3429
 366  984.4775
 367  931.855
 368  805.356
 369  1024.61
 370  988.8626
 371  1056.194
 372  1094.714
 373  888.5498
 374  942.5264
 375  1128.449
 376  881.5604
 377  1019.719
 378  1156.62
 379  868.9198
 380  551.0827
 381  520.2496
 382  757.1948
 383  1049.379
 384  796.8762
 385  556.0024
 386  633.8092
 387  979.8908
 388  1001.549
 389  532.6672
 390  393.4809
 391  535.2835
 392  613.1843
 393  967.4817
 394  808.8665
 395  1099.957
 396  1040.363
 397  802.8732
 398  866.6449
 399  716.6932
 400  928.8128
 401  966.8304
 402  683.7656
 403  578.9187
 404  591.0469
 405  874.2196
 406  735.1729
 407  738.4559
 408  711.5144
 409  852.8101
 410  660.8666
 411  832.0212
 412  863.4709
 413  880.6442
 414  989.3439
 415  1078.459
 416  925.033
 417  1067.594
 418  742.5942
 419  706.2853
 420  822.5686
 421  1107.726
 422  1149.906
 423  733.7328
 424  991.2757
 425  741.8223
 426  892.8088
 427  988.5297
 428  636.8774
 429  918.2368
 430  961.2679
 431  965.2851
 432  838.2037
 433  754.7643
 434  971.4091
 435  1133.041
 436  903.3813
 437  976.0714
 438  1119.959
 439  714.8938
 440  475.681
 441  802.5898
 442  925.5264
 443  845.4674
 444  850.3517
 445  1009.18
 446  569.142
 447  248.218
 448  404.1051
 449  798.1807
 450  1013.886
 451  1197.912
 452  687.9299
 453  716.6154
 454  860.2747
 455  740.6039
 456  925.4401
 457  978.1863
 458  584.132
 459  755.2204
 460  855.0754
 461  874.5926
 462  1059.361
 463  898.625
 464  481.8482
 465  778.6035
 466  931.884
 467  511.8262
 468  408.4784
 469  974.6635
 470  829.3702
 471  1083.257
 472  1132.911
 473  1202.428
 474  874.1683
 475  636.2818
 476  667.3898
 477  421.7818
 478  664.3268
 479  823.7637
 480  879.8389
 481  482.273
 482  748.913
 483  977.1615
 484  644.1384
 485  383.8326
 486  450.0547
 487  631.8483
 488  570.2202
 489  847.0137
 490  970.1198
 491  778.5168
 492  679.596
 493  809.0683
 494  675.0308
 495  474.9903
 496  928.8788
 497  1057.059
 498  812.4848
 499  483.6932
 500  989.1536
 501  1293.912
 502  1097.647
 503  923.7457
 504  1115.814
 505  937.4872
 506  716.1349
 507  582.9133
 508  820.7545
 509  1138.909
 510  1276.353
 511  1336.225
