# Input file       =  1189125652.118063_cleaned.dat
# Candidate        =  PSR_0332+5434
# Telescope        =  AR
# Epoch_topo       =  58007.028600903504
# Epoch_bary       =  N/A
# T_sample         =  0.002
# Data Folded      =  7340032
# Data Avg         =  0.0262136177469594
# Data StdDev      =  2.44136958298929 
# Profile Bins     =  256
# Profile Avg      =  751.820434682908 
# Profile StdDev   =  413.392433599175 
# Reduced chi-sqr  =  1.432
# Prob(Noise)      <  7.18e-06   (~4.3 sigma)
# P_topo (ms)      =  714.46487537908   +/- 0.000161
# P'_topo (s/s)    =  -0                +/- 8.48e-11
# P''_topo (s/s^2) =  0                 +/- 3.74e-14
# P_bary (ms)      =  N/A
# P'_bary (s/s)    =  N/A
# P''_bary (s/s^2) =  N/A
# P_orb (s)        =  N/A
# asin(i)/c (s)    =  N/A
# eccentricity     =  N/A
# w (rad)          =  N/A
# T_peri           =  N/A
######################################################
   0  1007.51
   1  351.7001
   2  591.714
   3  566.1265
   4  658.5317
   5  392.9004
   6  -221.2369
   7  508.8193
   8  1372.035
   9  539.4593
  10  384.2168
  11  332.3156
  12  263.8626
  13  782.0521
  14  464.2914
  15  -194.2806
  16  1212.451
  17  433.9832
  18  398.2821
  19  841.5779
  20  625.6042
  21  538.5071
  22  1101.07
  23  513.657
  24  373.5674
  25  540.3781
  26  792.0691
  27  739.5393
  28  857.413
  29  231.4831
  30  388.9844
  31  585.663
  32  837.4184
  33  634.7863
  34  842.5754
  35  1200.604
  36  653.2825
  37  965.4853
  38  443.6166
  39  714.4122
  40  969.686
  41  578.4027
  42  1150.142
  43  1512.435
  44  791.2654
  45  552.9816
  46  1004.868
  47  527.1063
  48  443.7545
  49  594.1907
  50  627.6619
  51  266.8118
  52  878.7365
  53  1237.315
  54  568.114
  55  574.7958
  56  961.7076
  57  165.6727
  58  836.289
  59  1517.554
  60  1102.671
  61  1094.418
  62  692.2537
  63  712.8236
  64  925.9927
  65  618.3273
  66  902.5139
  67  1057.013
  68  957.6468
  69  830.6192
  70  998.1359
  71  1000.229
  72  799.077
  73  719.076
  74  1142.773
  75  501.3844
  76  1283.134
  77  1266.304
  78  1484.601
  79  1062.859
  80  880.6046
  81  1048.026
  82  559.8641
  83  609.6122
  84  710.0599
  85  584.7764
  86  724.0008
  87  1253.961
  88  338.3456
  89  653.5184
  90  559.5817
  91  271.67
  92  717.3299
  93  432.6403
  94  1171.525
  95  602.9252
  96  1448.584
  97  786.8627
  98  712.0526
  99  125.768
 100  647.1822
 101  472.2478
 102  646.3776
 103  568.9518
 104  983.9158
 105  336.5831
 106  595.8995
 107  847.5657
 108  457.1123
 109  126.2982
 110  183.0799
 111  622.2807
 112  852.5553
 113  686.9421
 114  916.7756
 115  435.8462
 116  1020.258
 117  359.5446
 118  522.0063
 119  515.1069
 120  480.349
 121  962.8358
 122  761.9717
 123  -447.7072
 124  1004.509
 125  650.6593
 126  387.348
 127  1340.716
 128  610.03
 129  446.5036
 130  778.8694
 131  315.1727
 132  1181.683
 133  928.7924
 134  876.9747
 135  746.1815
 136  693.8589
 137  481.4264
 138  1250.484
 139  1768.932
 140  1137.583
 141  297.1046
 142  557.3208
 143  669.6189
 144  1087.017
 145  822.2442
 146  1225.504
 147  437.507
 148  697.2865
 149  917.5312
 150  403.229
 151  824.3685
 152  886.6357
 153  555.6498
 154  956.5504
 155  639.3224
 156  712.5182
 157  575.5567
 158  430.9823
 159  2182.089
 160  3590.46
 161  3293.792
 162  2028.43
 163  660.0629
 164  783.4354
 165  662.5006
 166  691.8297
 167  770.7825
 168  648.851
 169  782.9687
 170  580.5468
 171  732.2484
 172  728.069
 173  405.8851
 174  451.6925
 175  386.2357
 176  718.6761
 177  575.5653
 178  970.4039
 179  832.0934
 180  880.913
 181  840.2717
 182  1190.082
 183  996.2007
 184  485.0247
 185  430.1997
 186  842.6954
 187  1243.747
 188  1009.431
 189  106.9833
 190  472.0209
 191  1519.436
 192  550.8264
 193  712.2997
 194  470.7672
 195  432.7264
 196  515.2767
 197  1202.528
 198  1256.279
 199  602.7252
 200  541.717
 201  598.076
 202  41.87544
 203  622.0756
 204  988.8259
 205  1147.507
 206  -1.654772
 207  1040.441
 208  386.1701
 209  94.03592
 210  572.287
 211  981.0866
 212  1204.984
 213  852.4211
 214  584.5112
 215  781.738
 216  222.9754
 217  75.14387
 218  670.8691
 219  1664.03
 220  676.4564
 221  1316.674
 222  940.4146
 223  618.4222
 224  983.9707
 225  1104.452
 226  1241.347
 227  770.2823
 228  683.0251
 229  904.8667
 230  730.8671
 231  711.4227
 232  333.1978
 233  581.7363
 234  735.9641
 235  540.2426
 236  725.692
 237  446.3998
 238  997.536
 239  1228.976
 240  1044.964
 241  375.8961
 242  1028.779
 243  736.9022
 244  783.5582
 245  464.1905
 246  345.9265
 247  84.50095
 248  927.3605
 249  965.4507
 250  819.2441
 251  944.9131
 252  669.6485
 253  45.63803
 254  762.0382
 255  669.7773
