# Input file       =  1189125652.118063_cleaned.dat
# Candidate        =  PSR_0332+5434
# Telescope        =  AR
# Epoch_topo       =  58007.028600903504
# Epoch_bary       =  N/A
# T_sample         =  0.002
# Data Folded      =  7340032
# Data Avg         =  0.0262136177469594
# Data StdDev      =  2.44136958298929 
# Profile Bins     =  1024
# Profile Avg      =  187.955108647219 
# Profile StdDev   =  206.696216799588 
# Reduced chi-sqr  =  1.196
# Prob(Noise)      <  1.37e-05   (~4.2 sigma)
# P_topo (ms)      =  714.46487529879   +/- 0.000135
# P'_topo (s/s)    =  -0                +/- 7.13e-11
# P''_topo (s/s^2) =  0                 +/- 3.15e-14
# P_bary (ms)      =  N/A
# P'_bary (s/s)    =  N/A
# P''_bary (s/s^2) =  N/A
# P_orb (s)        =  N/A
# asin(i)/c (s)    =  N/A
# eccentricity     =  N/A
# w (rad)          =  N/A
# T_peri           =  N/A
######################################################
   0  349.3767
   1  332.1002
   2  136.779
   3  -39.06344
   4  -60.51464
   5  52.82871
   6  254.7138
   7  283.5142
   8  227.5218
   9  147.1299
  10  70.81729
  11  25.37443
  12  10.74801
  13  182.2979
  14  222.6943
  15  290.9006
  16  223.4912
  17  179.5515
  18  74.78519
  19  102.564
  20  160.1308
  21  137.345
  22  56.72488
  23  -75.88274
  24  -124.4669
  25  -82.7671
  26  -17.35025
  27  95.88827
  28  100.4304
  29  155.3821
  30  126.2181
  31  200.3168
  32  298.9327
  33  404.5141
  34  398.7483
  35  301.7713
  36  187.2398
  37  86.42619
  38  73.60161
  39  91.04928
  40  75.59905
  41  62.61552
  42  99.12686
  43  207.0641
  44  165.5601
  45  66.08857
  46  -21.58551
  47  26.16287
  48  -16.7298
  49  28.71648
  50  138.4445
  51  243.6446
  52  205.628
  53  150.0125
  54  212.3164
  55  150.2032
  56  112.2763
  57  83.16559
  58  151.9872
  59  94.4086
  60  -2.174009
  61  -127.7914
  62  -108.1132
  63  30.57501
  64  337.9443
  65  429.3817
  66  340.2768
  67  66.43052
  68  86.78851
  69  123.2106
  70  182.2239
  71  37.42408
  72  19.67624
  73  104.0815
  74  166.1522
  75  217.1391
  76  171.7535
  77  200.2729
  78  231.1063
  79  259.1567
  80  232.0185
  81  136.3806
  82  74.95229
  83  72.74464
  84  143.1302
  85  166.6521
  86  135.7527
  87  102.1401
  88  254.1711
  89  379.7318
  90  318.248
  91  191.4102
  92  43.84642
  93  91.79778
  94  167.5524
  95  298.201
  96  227.5047
  97  22.00918
  98  -46.6963
  99  34.72181
 100  110.9729
 101  83.47946
 102  178.0861
 103  272.8784
 104  256.7395
 105  200.7318
 106  127.7455
 107  139.3246
 108  107.3536
 109  216.531
 110  225.544
 111  232.6182
 112  192.5377
 113  266.8922
 114  219.6053
 115  148.8038
 116  68.44618
 117  37.0896
 118  53.01292
 119  -22.22157
 120  -5.351443
 121  65.70439
 122  243.5263
 123  194.0435
 124  126.4131
 125  90.85831
 126  171.4686
 127  187.7489
 128  211.3072
 129  217.7673
 130  240.6876
 131  192.6931
 132  188.3809
 133  170.3412
 134  111.4879
 135  74.53468
 136  -0.8200363
 137  248.0314
 138  356.0585
 139  407.7916
 140  253.1508
 141  299.023
 142  301.098
 143  314.5753
 144  112.9657
 145  151.158
 146  134.7284
 147  194.1908
 148  204.5155
 149  257.0737
 150  285.3031
 151  220.8871
 152  165.573
 153  62.91824
 154  82.91286
 155  126.6624
 156  166.7662
 157  190.2901
 158  169.9251
 159  230.0406
 160  287.2245
 161  299.5298
 162  207.8096
 163  101.9375
 164  141.8751
 165  145.6637
 166  157.7825
 167  208.6855
 168  266.6258
 169  285.3842
 170  298.3409
 171  370.3615
 172  428.9003
 173  428.6871
 174  322.3134
 175  256.4991
 176  255.4918
 177  230.7816
 178  131.5597
 179  105.7213
 180  178.3794
 181  165.5913
 182  114.2024
 183  90.89858
 184  252.4376
 185  299.6668
 186  317.4541
 187  175.6414
 188  168.9784
 189  50.87396
 190  157.7039
 191  126.9941
 192  157.5403
 193  60.68596
 194  99.82585
 195  152.3277
 196  77.96021
 197  142.24
 198  163.9108
 199  234.5841
 200  149.6656
 201  178.0108
 202  120.3636
 203  108.6981
 204  82.25637
 205  100.3001
 206  40.10932
 207  17.6562
 208  101.7157
 209  254.4316
 210  355.6123
 211  281.4799
 212  307.0852
 213  329.7178
 214  319.1499
 215  266.9238
 216  214.8802
 217  164.355
 218  57.87738
 219  11.73658
 220  114.8793
 221  144.9492
 222  208.4224
 223  162.7414
 224  243.0518
 225  263.815
 226  259.4703
 227  251.9731
 228  129.8917
 229  -8.798504
 230  -74.21712
 231  23.49747
 232  138.0528
 233  252.5951
 234  267.4861
 235  336.3646
 236  355.3325
 237  406.5314
 238  375.4241
 239  402.8355
 240  347.6001
 241  241.3594
 242  191.8378
 243  232.8385
 244  245.8872
 245  244.5603
 246  316.9021
 247  338.4287
 248  279.8824
 249  156.203
 250  55.9266
 251  104.6529
 252  176.6758
 253  177.9004
 254  182.7393
 255  198.5723
 256  186.1393
 257  220.4005
 258  279.1208
 259  271.2763
 260  153.3591
 261  123.2176
 262  138.8515
 263  167.5875
 264  181.2483
 265  276.0153
 266  250.3848
 267  215.7765
 268  184.185
 269  284.853
 270  315.9423
 271  270.6977
 272  195.319
 273  238.5508
 274  281.7448
 275  266.4614
 276  202.1673
 277  196.7953
 278  186.3369
 279  227.8479
 280  263.1306
 281  233.7907
 282  252.859
 283  287.5663
 284  261.0099
 285  237.1659
 286  225.5275
 287  231.3806
 288  238.5242
 289  210.5902
 290  163.7287
 291  139.3444
 292  94.1689
 293  168.1198
 294  219.6886
 295  321.6316
 296  318.3163
 297  266.8609
 298  290.0177
 299  198.4089
 300  108.9281
 301  40.88955
 302  159.8783
 303  258.0465
 304  366.5232
 305  328.2422
 306  309.8261
 307  313.768
 308  401.1449
 309  317.5708
 310  249.3302
 311  231.7177
 312  357.6724
 313  400.2858
 314  412.7437
 315  348.793
 316  301.2476
 317  232.9747
 318  288.34
 319  181.3167
 320  199.3907
 321  202.4067
 322  258.1207
 323  288.6995
 324  308.4665
 325  336.8633
 326  181.0084
 327  164.3854
 328  74.71634
 329  149.5701
 330  134.1439
 331  219.0021
 332  154.7285
 333  174.3274
 334  117.9223
 335  84.53691
 336  86.03442
 337  188.0376
 338  240.7706
 339  316.5514
 340  267.7793
 341  80.99807
 342  20.30663
 343  131.0557
 344  245.1881
 345  173.657
 346  145.1312
 347  205.0112
 348  305.6891
 349  344.3776
 350  345.291
 351  223.8837
 352  77.85794
 353  18.91013
 354  78.788
 355  149.4048
 356  114.2314
 357  192.2387
 358  163.4159
 359  180.0784
 360  79.74171
 361  173.3371
 362  168.3645
 363  189.5137
 364  106.4855
 365  60.1237
 366  -16.11646
 367  50.71897
 368  155.6347
 369  234.0268
 370  178.9711
 371  171.9101
 372  141.2912
 373  101.1312
 374  62.03472
 375  135.0034
 376  285.3813
 377  346.5505
 378  352.2718
 379  180.8642
 380  131.7034
 381  59.68417
 382  196.3982
 383  290.9918
 384  339.9912
 385  402.7126
 386  398.2034
 387  292.7567
 388  186.6571
 389  143.3978
 390  222.1714
 391  205.5116
 392  213.9116
 393  187.3143
 394  154.9348
 395  102.0019
 396  27.94515
 397  11.27
 398  16.66875
 399  53.03024
 400  74.46588
 401  155.5768
 402  244.3439
 403  274.3703
 404  166.1812
 405  10.89207
 406  108.6375
 407  142.8939
 408  227.4403
 409  88.66942
 410  169.6943
 411  145.8575
 412  149.1882
 413  41.67314
 414  182.6553
 415  258.0626
 416  303.5135
 417  236.9227
 418  228.7291
 419  148.0529
 420  89.01075
 421  57.11247
 422  83.76177
 423  26.91081
 424  59.50692
 425  145.4508
 426  251.2431
 427  277.6694
 428  278.0526
 429  269.8297
 430  129.376
 431  83.09538
 432  96.76267
 433  135.4493
 434  141.6198
 435  95.00694
 436  106.969
 437  25.31594
 438  -7.843517
 439  -88.76366
 440  -8.822853
 441  47.63194
 442  117.8487
 443  128.2088
 444  138.9809
 445  159.7941
 446  150.8032
 447  211.071
 448  224.3119
 449  227.3009
 450  210.3146
 451  189.9263
 452  209.7819
 453  125.3919
 454  154.7334
 455  197.0681
 456  312.8602
 457  247.3131
 458  159.1315
 459  145.8459
 460  59.49223
 461  140.5737
 462  71.91936
 463  241.2371
 464  233.2581
 465  293.5698
 466  242.7016
 467  196.5
 468  161.4991
 469  51.97565
 470  40.27352
 471  41.00631
 472  45.18829
 473  128.9614
 474  221.0501
 475  211.7415
 476  166.5546
 477  140.1422
 478  86.55424
 479  40.28542
 480  76.66637
 481  153.8073
 482  169.791
 483  144.7033
 484  207.6996
 485  273.36
 486  269.3869
 487  247.1085
 488  254.0048
 489  200.8004
 490  156.6445
 491  2.398048
 492  -69.57206
 493  -180.907
 494  -143.0129
 495  -2.647527
 496  156.401
 497  289.9598
 498  359.8195
 499  361.8433
 500  189.629
 501  102.8379
 502  91.77397
 503  169.9741
 504  109.6774
 505  86.08835
 506  50.17637
 507  146.2203
 508  311.8112
 509  430.584
 510  354.5517
 511  272.3551
 512  277.7469
 513  222.5888
 514  30.91589
 515  -68.36342
 516  36.70269
 517  167.4094
 518  200.6789
 519  126.0743
 520  200.6022
 521  228.474
 522  218.5254
 523  109.0725
 524  21.97635
 525  68.96517
 526  83.41395
 527  245.1496
 528  344.2465
 529  334.6803
 530  252.8622
 531  243.7702
 532  357.3889
 533  238.372
 534  158.0931
 535  129.1638
 536  238.2864
 537  239.7193
 538  226.9292
 539  176.49
 540  196.8647
 541  225.9997
 542  166.9193
 543  92.49978
 544  158.8294
 545  237.0621
 546  199.2801
 547  76.25124
 548  54.13218
 549  164.3192
 550  175.328
 551  168.4627
 552  221.185
 553  344.2598
 554  399.8099
 555  407.1747
 556  391.4685
 557  448.6693
 558  469.3945
 559  483.0942
 560  350.1583
 561  274.0274
 562  191.4889
 563  202.0141
 564  130.3775
 565  39.6101
 566  9.654427
 567  32.82932
 568  108.7914
 569  162.6717
 570  160.2206
 571  217.8958
 572  121.6424
 573  156.2061
 574  164.2293
 575  214.4413
 576  215.2437
 577  236.8384
 578  365.8716
 579  298.6933
 580  187.5394
 581  112.9362
 582  231.0149
 583  331.7168
 584  374.4732
 585  280.7043
 586  243.4381
 587  305.8385
 588  268.008
 589  63.13196
 590  -49.89666
 591  44.25377
 592  169.6225
 593  149.8832
 594  196.9971
 595  293.4026
 596  317.4587
 597  296.2885
 598  122.3366
 599  37.78923
 600  31.72349
 601  118.0818
 602  180.2856
 603  129.6258
 604  161.2095
 605  209.1892
 606  238.3228
 607  289.1826
 608  222.2136
 609  261.2114
 610  185.6813
 611  114.4764
 612  51.35777
 613  94.06485
 614  213.6219
 615  303.9004
 616  340.543
 617  269.8335
 618  137.8121
 619  66.41654
 620  104.3259
 621  199.6929
 622  244.9773
 623  175.5497
 624  105.3569
 625  201.1461
 626  234.6124
 627  188.4626
 628  98.92941
 629  150.1533
 630  137.7454
 631  132.2403
 632  -38.38044
 633  79.62048
 634  190.9644
 635  339.7582
 636  373.325
 637  500.9392
 638  744.8381
 639  775.8196
 640  827.6342
 641  826.3287
 642  1026.473
 643  1050.291
 644  1025.157
 645  742.7553
 646  678.8262
 647  638.6052
 648  675.4035
 649  519.0266
 650  347.4803
 651  303.303
 652  227.6909
 653  110.4712
 654  84.31373
 655  159.8391
 656  220.9573
 657  196.0805
 658  214.9004
 659  135.8118
 660  113.4765
 661  116.176
 662  237.7901
 663  240.9421
 664  234.4199
 665  178.4348
 666  123.4133
 667  61.41824
 668  35.78825
 669  160.6737
 670  325.2304
 671  420.1184
 672  202.6864
 673  125.8816
 674  20.80936
 675  256.0392
 676  198.1325
 677  261.3928
 678  116.636
 679  158.5155
 680  114.8594
 681  135.5456
 682  136.0022
 683  220.8301
 684  215.7412
 685  198.4421
 686  133.2888
 687  146.7386
 688  144.5812
 689  212.1165
 690  205.4337
 691  202.7361
 692  203.6767
 693  107.4621
 694  5.689671
 695  -40.93004
 696  128.1431
 697  140.6156
 698  168.4881
 699  56.63107
 700  187.7935
 701  119.2544
 702  69.218
 703  13.99634
 704  44.46178
 705  207.4922
 706  279.6916
 707  250.6597
 708  172.8678
 709  72.63499
 710  137.9224
 711  202.2444
 712  298.3142
 713  279.7798
 714  214.4498
 715  182.392
 716  214.3746
 717  179.4706
 718  237.4497
 719  210.8428
 720  317.261
 721  212.0132
 722  160.102
 723  134.0885
 724  183.2893
 725  247.6375
 726  220.9357
 727  255.7573
 728  313.0309
 729  358.3687
 730  288.9145
 731  184.2016
 732  191.7255
 733  347.4848
 734  272.3853
 735  156.059
 736  92.32026
 737  176.5923
 738  124.314
 739  44.52248
 740  15.91734
 741  139.824
 742  155.9533
 743  214.7957
 744  114.4704
 745  208.2461
 746  247.9472
 747  340.6604
 748  307.2612
 749  290.8142
 750  329.6946
 751  283.5898
 752  277.7943
 753  246.9431
 754  221.9333
 755  206.8198
 756  94.07319
 757  17.20818
 758  -31.60314
 759  -80.08304
 760  -2.517123
 761  131.0345
 762  224.1335
 763  314.6931
 764  369.1495
 765  463.7229
 766  374.6406
 767  229.0017
 768  121.3769
 769  102.83
 770  178.3514
 771  145.5363
 772  196.816
 773  177.3629
 774  219.1653
 775  75.83215
 776  10.8584
 777  30.20739
 778  237.724
 779  291.7662
 780  145.4941
 781  40.48321
 782  57.75731
 783  44.36405
 784  44.80907
 785  78.05278
 786  261.3095
 787  277.2307
 788  388.0871
 789  331.0964
 790  258.391
 791  176.751
 792  329.3517
 793  388.8224
 794  360.0489
 795  140.8916
 796  142.073
 797  172.4782
 798  136.6388
 799  179.445
 800  169.3356
 801  191.5472
 802  66.1163
 803  39.24145
 804  158.7997
 805  147.4493
 806  209.4497
 807  109.189
 808  40.73725
 809  -121.7047
 810  29.26978
 811  110.1574
 812  223.9787
 813  121.2731
 814  148.0759
 815  146.165
 816  205.0919
 817  283.9765
 818  282.4634
 819  313.847
 820  344.3943
 821  374.7236
 822  228.8706
 823  31.80495
 824  -93.46606
 825  -40.40673
 826  56.52035
 827  161.4336
 828  246.8587
 829  241.0726
 830  310.107
 831  309.1895
 832  266.9185
 833  30.21182
 834  -41.75196
 835  -33.16221
 836  43.96483
 837  -11.00942
 838  55.44352
 839  37.3523
 840  82.12032
 841  122.0487
 842  213.4259
 843  262.3525
 844  260.4976
 845  242.0218
 846  198.1923
 847  304.9506
 848  336.7441
 849  342.2747
 850  292.3448
 851  171.3509
 852  192.4946
 853  184.9126
 854  281.2644
 855  168.7401
 856  84.11739
 857  110.8578
 858  190.3615
 859  225.4642
 860  285.7042
 861  234.982
 862  136.9507
 863  10.42333
 864  -10.33315
 865  83.31689
 866  126.0753
 867  41.65969
 868  18.19692
 869  -33.74898
 870  24.70217
 871  175.2421
 872  161.6584
 873  131.5779
 874  126.9632
 875  340.0593
 876  520.3383
 877  498.2856
 878  335.3748
 879  188.7738
 880  126.9434
 881  168.1013
 882  204.6663
 883  205.5971
 884  311.3583
 885  397.0735
 886  366.2944
 887  277.7859
 888  213.9083
 889  275.7702
 890  211.4471
 891  199.3354
 892  186.9137
 893  142.0531
 894  130.4341
 895  140.385
 896  196.7648
 897  314.0148
 898  269.9476
 899  257.9068
 900  202.4727
 901  281.961
 902  316.0173
 903  343.4924
 904  353.8154
 905  333.4112
 906  282.0738
 907  195.0082
 908  195.7519
 909  220.443
 910  195.6298
 911  99.78767
 912  10.11313
 913  171.5002
 914  280.3598
 915  367.5686
 916  269.5517
 917  197.2976
 918  134.8555
 919  242.939
 920  230.0055
 921  170.9172
 922  120.5732
 923  196.1613
 924  230.3335
 925  164.59
 926  135.9902
 927  98.64241
 928  136.4351
 929  92.81049
 930  67.4066
 931  20.27063
 932  130.9324
 933  200.4633
 934  172.9375
 935  139.4962
 936  161.244
 937  217.5054
 938  213.2607
 939  137.1334
 940  96.29632
 941  149.2746
 942  164.8828
 943  87.09552
 944  73.74735
 945  216.4136
 946  278.7216
 947  231.2255
 948  124.859
 949  117.5738
 950  69.08813
 951  76.82463
 952  166.9111
 953  307.3289
 954  321.9441
 955  296.5468
 956  266.4041
 957  328.7391
 958  317.0883
 959  303.1219
 960  247.6452
 961  311.4418
 962  245.8795
 963  158.6346
 964  88.02217
 965  84.44511
 966  92.33723
 967  164.1348
 968  300.0319
 969  323.5348
 970  242.3554
 971  118.5949
 972  135.1456
 973  209.8413
 974  251.0721
 975  188.8211
 976  191.2129
 977  219.6563
 978  211.1568
 979  117.4404
 980  75.10674
 981  131.5281
 982  134.96
 983  123.7585
 984  66.36736
 985  108.5877
 986  90.98587
 987  29.38753
 988  25.24063
 989  -13.76491
 990  35.49411
 991  103.8806
 992  289.2514
 993  260.2419
 994  186.459
 995  236.118
 996  309.647
 997  272.5612
 998  168.5146
 999  165.9721
1000  238.1495
1001  225.963
1002  187.4175
1003  208.3175
1004  230.2609
1005  260.7407
1006  221.7355
1007  233.3388
1008  268.1382
1009  214.1331
1010  79.04723
1011  -28.50969
1012  -28.22152
1013  50.22183
1014  38.778
1015  44.10471
1016  167.1306
1017  220.0222
1018  256.5674
1019  144.0822
1020  137.8504
1021  125.5486
1022  196.4057
1023  323.6192
