# Input file       =  1190582619.116545_cleaned.dat
# Candidate        =  PSR_0332+5434
# Telescope        =  AR
# Epoch_topo       =  58023.891644867421
# Epoch_bary       =  N/A
# T_sample         =  0.002
# Data Folded      =  7340032
# Data Avg         =  0.0254157740231937
# Data StdDev      =  2.21615493231198 
# Profile Bins     =  1024
# Profile Avg      =  181.882112583694 
# Profile StdDev   =  187.628634165974 
# Reduced chi-sqr  =  1.782
# Prob(Noise)      <  8.58e-48   (~14.5 sigma)
# P_topo (ms)      =  714.470927534234  +/- 0.000176
# P'_topo (s/s)    =  -0                +/- 9.26e-11
# P''_topo (s/s^2) =  0                 +/- 4.09e-14
# P_bary (ms)      =  N/A
# P'_bary (s/s)    =  N/A
# P''_bary (s/s^2) =  N/A
# P_orb (s)        =  N/A
# asin(i)/c (s)    =  N/A
# eccentricity     =  N/A
# w (rad)          =  N/A
# T_peri           =  N/A
######################################################
   0  196.5918
   1  230.0437
   2  185.5649
   3  172.9758
   4  230.8266
   5  188.8414
   6  67.85066
   7  48.76905
   8  122.2064
   9  156.9893
  10  -13.80781
  11  28.62305
  12  112.3038
  13  222.0288
  14  239.6639
  15  200.6798
  16  125.9158
  17  58.45323
  18  101.9697
  19  103.3954
  20  115.1395
  21  119.3258
  22  149.3277
  23  156.9977
  24  131.1062
  25  117.3663
  26  105.3257
  27  127.85
  28  155.1518
  29  219.7005
  30  209.156
  31  114.2838
  32  97.48585
  33  173.7541
  34  275.7109
  35  278.6298
  36  275.2242
  37  243.8184
  38  128.3044
  39  93.89185
  40  144.8789
  41  265.7194
  42  253.8206
  43  196.6051
  44  51.89133
  45  -10.60608
  46  -35.42437
  47  93.68062
  48  178.0628
  49  222.6601
  50  251.4988
  51  218.196
  52  203.8473
  53  152.6545
  54  164.042
  55  261.2812
  56  210.4958
  57  244.1082
  58  182.6387
  59  251.2358
  60  255.7229
  61  232.105
  62  182.9467
  63  153.4079
  64  90.89931
  65  54.22732
  66  86.44021
  67  139.8309
  68  236.8527
  69  236.6958
  70  252.2777
  71  150.9613
  72  137.2635
  73  156.993
  74  165.1013
  75  156.5067
  76  202.4122
  77  173.2363
  78  146.3381
  79  135.8006
  80  43.72058
  81  -67.21201
  82  -111.2401
  83  22.55829
  84  200.3129
  85  231.0308
  86  144.3508
  87  70.53342
  88  83.60268
  89  136.594
  90  158.0433
  91  62.9142
  92  99.62669
  93  97.49454
  94  259.8426
  95  261.3118
  96  284.0306
  97  234.4868
  98  180.3847
  99  163.3033
 100  183.087
 101  274.5567
 102  282.3557
 103  225.0913
 104  188.7947
 105  176.3088
 106  153.5293
 107  140.2028
 108  121.4215
 109  172.3093
 110  207.4053
 111  297.3946
 112  216.5852
 113  179.0422
 114  114.0343
 115  179.222
 116  201.0248
 117  199.315
 118  167.4847
 119  82.46849
 120  -12.58618
 121  24.2705
 122  87.39541
 123  56.92622
 124  -25.08951
 125  -18.96618
 126  73.08328
 127  66.78918
 128  40.36829
 129  65.97971
 130  221.6261
 131  221.0348
 132  177.192
 133  144.5466
 134  188.3155
 135  233.541
 136  202.2089
 137  142.8435
 138  125.4188
 139  221.5446
 140  262.8934
 141  242.023
 142  315.7296
 143  266.6392
 144  343.2763
 145  283.0033
 146  325.5653
 147  235.7281
 148  232.0257
 149  190.4842
 150  41.6618
 151  -30.15736
 152  -37.31177
 153  84.26575
 154  188.6434
 155  220.7845
 156  127.0315
 157  89.13074
 158  71.0454
 159  61.13527
 160  78.45567
 161  240.7539
 162  395.5517
 163  427.8764
 164  318.8823
 165  199.8191
 166  100.1776
 167  141.1051
 168  280.0026
 169  360.0625
 170  367.6077
 171  310.1287
 172  273.844
 173  281.0671
 174  263.6869
 175  280.2952
 176  331.5344
 177  349.7199
 178  360.5209
 179  296.1125
 180  250.4312
 181  211.1165
 182  166.3421
 183  167.855
 184  275.5886
 185  270.3209
 186  238.9195
 187  154.0561
 188  213.6951
 189  308.0928
 190  380.528
 191  430.8318
 192  336.8336
 193  181.5448
 194  105.5281
 195  144.3803
 196  204.6345
 197  212.8434
 198  264.5409
 199  303.5795
 200  357.8461
 201  367.06
 202  432.6142
 203  355.7299
 204  216.9086
 205  131.6761
 206  104.222
 207  168.568
 208  214.3454
 209  230.271
 210  110.3861
 211  84.73265
 212  149.9538
 213  187.4665
 214  143.7169
 215  95.91887
 216  166.4313
 217  163.553
 218  144.1244
 219  106.2706
 220  101.376
 221  130.1683
 222  212.3149
 223  226.8758
 224  307.9109
 225  332.7144
 226  338.778
 227  272.9768
 228  204.7979
 229  246.371
 230  316.8711
 231  359.8503
 232  232.8575
 233  179.945
 234  238.7975
 235  221.2785
 236  38.21157
 237  -56.10846
 238  -13.45539
 239  39.87024
 240  89.60911
 241  35.73799
 242  -10.90847
 243  53.17355
 244  163.3126
 245  147.6342
 246  13.63701
 247  8.490668
 248  73.84014
 249  172.7918
 250  229.0163
 251  227.655
 252  206.0975
 253  162.1867
 254  233.1447
 255  241.6562
 256  314.6711
 257  363.3897
 258  400.0337
 259  380.6758
 260  316.1543
 261  195.091
 262  124.6437
 263  43.45633
 264  148.9877
 265  211.2666
 266  242.8954
 267  168.7549
 268  203.9651
 269  295.9222
 270  323.3837
 271  251.0735
 272  210.6293
 273  198.7082
 274  191.5204
 275  212.0322
 276  231.6432
 277  221.7103
 278  142.5167
 279  12.72567
 280  31.77516
 281  121.4724
 282  204.9833
 283  182.6042
 284  40.06963
 285  10.46313
 286  22.24762
 287  166.6755
 288  201.6219
 289  226.0452
 290  195.9208
 291  137.4173
 292  65.30932
 293  45.43135
 294  139.9378
 295  103.7634
 296  75.78503
 297  40.75996
 298  164.6368
 299  215.3918
 300  180.1859
 301  124.4108
 302  121.496
 303  149.4472
 304  205.7113
 305  329.9564
 306  343.0969
 307  295.6455
 308  205.6055
 309  159.3335
 310  -10.46548
 311  -33.35229
 312  43.42693
 313  105.2379
 314  89.09763
 315  161.9689
 316  257.1445
 317  191.2023
 318  40.41038
 319  -9.216202
 320  14.02343
 321  113.8872
 322  215.8133
 323  232.3455
 324  223.8017
 325  56.85357
 326  112.4601
 327  45.59057
 328  113.0936
 329  112.0761
 330  195.9223
 331  317.903
 332  284.6477
 333  210.2734
 334  101.9419
 335  39.747
 336  91.33873
 337  82.76673
 338  103.1418
 339  139.1975
 340  205.4706
 341  201.0787
 342  85.94354
 343  120.8085
 344  207.029
 345  268.6189
 346  147.1524
 347  42.11543
 348  6.418706
 349  99.57755
 350  122.2725
 351  102.6942
 352  126.5902
 353  222.5576
 354  269.6914
 355  275.8383
 356  171.3413
 357  225.9662
 358  248.3486
 359  316.7989
 360  308.2626
 361  305.9496
 362  341.5505
 363  285.0317
 364  297.5624
 365  299.836
 366  306.3612
 367  209.5033
 368  181.0411
 369  189.1937
 370  261.4652
 371  158.2139
 372  142.4266
 373  141.8192
 374  201.9843
 375  221.9536
 376  268.2032
 377  246.4963
 378  193.2991
 379  119.8511
 380  169.0923
 381  101.8947
 382  71.7298
 383  3.842287
 384  124.9378
 385  120.8199
 386  89.65845
 387  61.45433
 388  17.8359
 389  113.7925
 390  144.6944
 391  176.938
 392  189.8387
 393  175.1125
 394  192.6067
 395  122.7423
 396  204.7679
 397  140.437
 398  83.28382
 399  -20.03077
 400  42.32151
 401  154.0475
 402  153.965
 403  69.96329
 404  70.78064
 405  127.7203
 406  160.7095
 407  141.1741
 408  218.9742
 409  355.0176
 410  402.9658
 411  319.4471
 412  250.3326
 413  209.5621
 414  257.6295
 415  245.2336
 416  260.404
 417  293.1453
 418  263.6248
 419  284.9073
 420  265.1355
 421  297.6935
 422  293.6116
 423  242.6262
 424  206.2216
 425  249.2921
 426  271.2517
 427  223.2372
 428  106.3397
 429  -56.73858
 430  -149.0984
 431  -166.1516
 432  -91.96938
 433  -34.6597
 434  -83.87011
 435  1.379642
 436  125.0169
 437  235.0357
 438  138.8156
 439  142.4688
 440  259.7613
 441  300.2499
 442  191.6834
 443  118.9358
 444  139.3888
 445  222.2808
 446  241.7776
 447  285.3902
 448  285.8681
 449  239.5239
 450  173.4577
 451  134.9041
 452  221.1448
 453  251.3931
 454  279.5031
 455  200.9348
 456  154.0563
 457  181.0458
 458  178.0433
 459  163.1734
 460  60.44347
 461  76.51163
 462  85.55455
 463  129.6226
 464  126.2046
 465  68.10461
 466  92.49809
 467  194.4766
 468  300.7919
 469  237.4824
 470  232.0079
 471  270.6682
 472  298.9957
 473  249.1972
 474  153.7378
 475  116.0859
 476  111.98
 477  117.7362
 478  104.1693
 479  98.32808
 480  164.3561
 481  91.85462
 482  71.29269
 483  79.37986
 484  162.8086
 485  163.9349
 486  175.4554
 487  195.4406
 488  135.2655
 489  135.1047
 490  158.9599
 491  170.6643
 492  160.8866
 493  181.6804
 494  199.2436
 495  261.3405
 496  279.024
 497  308.1199
 498  259.3233
 499  196.7352
 500  167.6525
 501  122.1835
 502  107.5413
 503  -7.829133
 504  137.3939
 505  132.7827
 506  185.1942
 507  127.4765
 508  240.0268
 509  218.1216
 510  47.31609
 511  65.13807
 512  101.5775
 513  246.9311
 514  205.0422
 515  200.679
 516  183.1449
 517  147.7426
 518  134.905
 519  64.91826
 520  68.10896
 521  85.90134
 522  135.5712
 523  271.5545
 524  207.0062
 525  259.1301
 526  200.0157
 527  246.6817
 528  203.5305
 529  216.5975
 530  225.7962
 531  237.798
 532  165.375
 533  133.1546
 534  103.1923
 535  81.76598
 536  106.8617
 537  62.55014
 538  102.8596
 539  84.77536
 540  203.7754
 541  206.2866
 542  116.2177
 543  62.88066
 544  198.0657
 545  306.5708
 546  302.1355
 547  251.1869
 548  178.372
 549  170.2827
 550  153.5078
 551  119.8617
 552  88.46124
 553  134.4282
 554  343.4539
 555  451.5722
 556  352.6263
 557  261.2976
 558  155.0426
 559  48.61827
 560  48.73568
 561  145.0645
 562  213.0524
 563  185.2699
 564  143.3998
 565  200.67
 566  195.5152
 567  161.0679
 568  71.97066
 569  133.6525
 570  237.1919
 571  321.3667
 572  286.1296
 573  207.9687
 574  113.9945
 575  120.7726
 576  209.6007
 577  197.4919
 578  131.3874
 579  81.48241
 580  100.0221
 581  183.7934
 582  248.6371
 583  287.9167
 584  250.2877
 585  289.1261
 586  290.192
 587  309.8614
 588  215.4955
 589  147.6196
 590  39.3681
 591  8.820976
 592  17.54376
 593  93.40737
 594  147.4436
 595  201.7213
 596  159.6257
 597  144.2737
 598  141.6882
 599  215.8515
 600  280.2898
 601  257.4579
 602  282.0784
 603  276.4155
 604  240.328
 605  196.9395
 606  163.5683
 607  144.6202
 608  139.3356
 609  150.2902
 610  185.9621
 611  192.8
 612  120.2642
 613  136.2981
 614  162.3918
 615  265.4208
 616  268.9289
 617  207.4705
 618  220.9063
 619  219.7931
 620  185.1532
 621  162.377
 622  234.8993
 623  275.6448
 624  276.5534
 625  269.0588
 626  277.0491
 627  258.6039
 628  321.841
 629  490.6615
 630  655.7477
 631  699.7775
 632  698.7471
 633  661.5479
 634  653.101
 635  747.2086
 636  910.5593
 637  1014.527
 638  1159.148
 639  1263.129
 640  1369.251
 641  1300.259
 642  1195.089
 643  1023.152
 644  848.8836
 645  632.9546
 646  526.0303
 647  483.8073
 648  333.2412
 649  163.8033
 650  67.28353
 651  93.90677
 652  43.86116
 653  99.92723
 654  207.731
 655  300.0482
 656  252.9766
 657  222.3833
 658  281.3127
 659  422.7444
 660  395.7777
 661  318.4951
 662  304.3987
 663  299.9098
 664  361.6021
 665  325.1758
 666  267.5215
 667  283.942
 668  287.8811
 669  357.7687
 670  396.9171
 671  384.6674
 672  330.3924
 673  284.1781
 674  233.9847
 675  224.8359
 676  172.4663
 677  186.7518
 678  194.5851
 679  192.5959
 680  152.769
 681  122.7159
 682  158.3723
 683  81.0881
 684  85.11047
 685  195.3115
 686  348.7573
 687  322.0362
 688  306.2443
 689  334.3308
 690  357.6543
 691  402.6585
 692  349.1394
 693  178.3029
 694  61.52255
 695  97.07204
 696  190.0643
 697  189.5808
 698  226.1116
 699  273.4945
 700  242.7175
 701  211.2309
 702  143.4123
 703  124.5697
 704  59.41009
 705  68.78502
 706  91.85301
 707  101.1064
 708  153.0249
 709  254.3181
 710  329.7044
 711  230.1146
 712  106.3588
 713  22.3919
 714  69.15208
 715  142.6172
 716  246.8977
 717  269.3274
 718  258.2148
 719  177.1593
 720  166.2123
 721  116.8268
 722  173.7773
 723  216.9477
 724  262.1848
 725  155.7503
 726  29.67852
 727  102.7544
 728  179.2675
 729  254.4964
 730  165.2996
 731  94.19889
 732  6.841641
 733  57.93071
 734  147.797
 735  196.5927
 736  208.8964
 737  176.4219
 738  92.26652
 739  55.08161
 740  100.4696
 741  160.0419
 742  172.3894
 743  179.3767
 744  100.4834
 745  92.3494
 746  151.8625
 747  171.0761
 748  97.77782
 749  49.74179
 750  114.4888
 751  163.3292
 752  92.96313
 753  96.94095
 754  123.4422
 755  229.3501
 756  275.1591
 757  302.6475
 758  318.8747
 759  164.8396
 760  -25.40066
 761  -69.9277
 762  19.67701
 763  106.1641
 764  97.4807
 765  99.64888
 766  154.2693
 767  151.3727
 768  199.5292
 769  160.3939
 770  148.4928
 771  140.1388
 772  139.5744
 773  154.648
 774  223.58
 775  255.7251
 776  200.0502
 777  105.5401
 778  96.43634
 779  76.18881
 780  132.6843
 781  157.1029
 782  295.8178
 783  187.4775
 784  154.9638
 785  117.3717
 786  271.2643
 787  291.0194
 788  254.3243
 789  257.9914
 790  248.4402
 791  260.1762
 792  218.4216
 793  209.7566
 794  231.2046
 795  233.4362
 796  297.0331
 797  232.7789
 798  230.034
 799  231.2105
 800  233.4517
 801  187.7851
 802  129.014
 803  127.0961
 804  77.47267
 805  77.64023
 806  56.10735
 807  10.06849
 808  55.91607
 809  157.3655
 810  228.9405
 811  187.0708
 812  190.0268
 813  199.1797
 814  150.116
 815  87.14875
 816  116.1328
 817  140.3102
 818  100.4681
 819  68.77021
 820  124.8846
 821  158.5688
 822  193.3233
 823  122.3738
 824  175.4869
 825  152.5794
 826  163.1508
 827  154.196
 828  176.8318
 829  140.3862
 830  120.0187
 831  122.4386
 832  143.0011
 833  136.1377
 834  136.3989
 835  209.3064
 836  292.9293
 837  244.2086
 838  137.4162
 839  202.6971
 840  274.7561
 841  280.3998
 842  152.4452
 843  94.03719
 844  78.20074
 845  4.793673
 846  85.46899
 847  100.9625
 848  163.8412
 849  98.7673
 850  179.511
 851  245.3135
 852  358.314
 853  365.9646
 854  286.8813
 855  223.9372
 856  208.2595
 857  176.1806
 858  85.77832
 859  49.66895
 860  94.37148
 861  29.43403
 862  -93.92068
 863  -117.5093
 864  29.01778
 865  215.9585
 866  293.0723
 867  300.4699
 868  307.5686
 869  311.162
 870  275.0539
 871  279.2953
 872  282.9592
 873  200.6985
 874  139.2479
 875  135.1475
 876  197.4003
 877  143.6313
 878  238.8643
 879  304.6506
 880  327.5308
 881  270.8531
 882  208.118
 883  170.1044
 884  138.5126
 885  117.0795
 886  168.6579
 887  196.5889
 888  179.4257
 889  87.07468
 890  31.25199
 891  139.9634
 892  144.3064
 893  133.806
 894  71.60534
 895  123.4668
 896  54.14428
 897  41.02284
 898  114.2846
 899  176.1954
 900  149.9261
 901  65.60509
 902  105.8326
 903  147.0139
 904  199.4436
 905  271.8183
 906  255.6297
 907  144.7173
 908  43.29271
 909  26.0665
 910  191.8776
 911  227.2885
 912  243.5293
 913  210.5674
 914  192.1403
 915  225.5658
 916  148.4565
 917  140.0532
 918  60.70545
 919  8.084684
 920  92.99674
 921  97.87943
 922  67.97918
 923  51.9666
 924  94.84064
 925  165.6485
 926  83.94576
 927  18.48692
 928  -15.75609
 929  62.30489
 930  101.0875
 931  151.153
 932  103.2693
 933  96.5595
 934  -23.67577
 935  -60.30651
 936  -165.8476
 937  -123.6398
 938  -90.64893
 939  51.96825
 940  89.64127
 941  41.71279
 942  27.91441
 943  -3.678417
 944  63.76229
 945  74.26175
 946  119.327
 947  75.79071
 948  86.15948
 949  135.6764
 950  126.3905
 951  83.00292
 952  128.4685
 953  74.0349
 954  130.5192
 955  11.29059
 956  -64.64531
 957  -152.8022
 958  -55.17396
 959  86.9808
 960  76.52825
 961  27.47102
 962  15.79245
 963  101.5182
 964  149.873
 965  198.0987
 966  66.90411
 967  -44.18206
 968  -48.71294
 969  123.0982
 970  218.017
 971  215.1892
 972  195.5493
 973  290.5504
 974  197.381
 975  93.08972
 976  38.30363
 977  139.8304
 978  222.6375
 979  210.1606
 980  185.5901
 981  149.1297
 982  181.2036
 983  201.0097
 984  252.785
 985  243.004
 986  168.3937
 987  157.5509
 988  263.1777
 989  297.3695
 990  177.1503
 991  261.572
 992  306.2301
 993  319.0391
 994  151.1428
 995  225.5104
 996  193.1958
 997  112.8063
 998  10.13364
 999  42.39336
1000  109.1134
1001  94.64881
1002  135.3396
1003  125.828
1004  107.8213
1005  -37.76232
1006  -35.60097
1007  -3.948339
1008  95.56366
1009  94.93658
1010  81.86816
1011  198.2761
1012  213.8947
1013  244.1813
1014  213.4393
1015  228.5333
1016  329.658
1017  267.9818
1018  217.9723
1019  151.0468
1020  227.4793
1021  248.6949
1022  179.2269
1023  135.4967
