# Input file       =  1190762833.099269_cleaned.dat
# Candidate        =  PSR_0332+5434
# Telescope        =  AR
# Epoch_topo       =  58025.977454852647
# Epoch_bary       =  N/A
# T_sample         =  0.002
# Data Folded      =  7340032
# Data Avg         =  0.0260706076171898
# Data StdDev      =  2.57302942817282 
# Profile Bins     =  1024
# Profile Avg      =  186.885016785212 
# Profile StdDev   =  217.843071455872 
# Reduced chi-sqr  =  1.161
# Prob(Noise)      <  0.000262   (~3.5 sigma)
# P_topo (ms)      =  714.472059502987  +/- 0.000108
# P'_topo (s/s)    =  -0                +/- 5.71e-11
# P''_topo (s/s^2) =  0                 +/- 2.52e-14
# P_bary (ms)      =  N/A
# P'_bary (s/s)    =  N/A
# P''_bary (s/s^2) =  N/A
# P_orb (s)        =  N/A
# asin(i)/c (s)    =  N/A
# eccentricity     =  N/A
# w (rad)          =  N/A
# T_peri           =  N/A
######################################################
   0  257.1116
   1  209.4198
   2  217.7389
   3  286.8365
   4  285.1288
   5  331.8122
   6  309.4929
   7  159.5045
   8  59.85968
   9  97.45592
  10  194.1919
  11  132.0665
  12  126.0617
  13  110.0221
  14  131.9616
  15  101.976
  16  188.9865
  17  121.6394
  18  -46.29876
  19  -200.3844
  20  -40.90746
  21  110.4314
  22  233.9935
  23  115.9886
  24  63.47875
  25  40.57236
  26  178.598
  27  241.1895
  28  291.5771
  29  261.6285
  30  114.8554
  31  36.06596
  32  -23.44231
  33  37.53535
  34  93.6565
  35  178.4424
  36  311.6685
  37  326.46
  38  291.0517
  39  163.1014
  40  180.8279
  41  182.6168
  42  146.7551
  43  56.17694
  44  8.503324
  45  120.4109
  46  67.67098
  47  91.35378
  48  -10.34663
  49  -27.57705
  50  -33.31881
  51  -55.21183
  52  130.3206
  53  208.7837
  54  371.006
  55  353.7964
  56  391.1774
  57  243.6783
  58  162.4711
  59  127.1037
  60  180.6953
  61  271.9156
  62  170.9509
  63  133.6527
  64  187.7578
  65  218.1686
  66  142.0746
  67  161.0918
  68  228.2037
  69  240.5481
  70  73.6412
  71  -43.6942
  72  31.27936
  73  205.1656
  74  216.8994
  75  158.6913
  76  -3.17085
  77  -2.467745
  78  97.4685
  79  283.313
  80  369.7327
  81  182.714
  82  44.18336
  83  27.26152
  84  272.1577
  85  389.0693
  86  392.0174
  87  293.752
  88  240.4738
  89  218.4062
  90  132.5294
  91  130.3532
  92  130.1431
  93  204.3427
  94  197.907
  95  297.8193
  96  177.6189
  97  195.8315
  98  176.013
  99  288.3596
 100  239.4665
 101  116.3028
 102  74.37499
 103  211.3732
 104  267.0521
 105  168.0076
 106  196.5685
 107  228.3584
 108  158.3573
 109  54.4215
 110  74.83467
 111  167.6266
 112  151.1275
 113  91.16228
 114  139.2162
 115  70.80928
 116  68.1854
 117  -18.79055
 118  -13.28086
 119  -91.47973
 120  -113.6301
 121  -21.24891
 122  43.73056
 123  89.76078
 124  56.94513
 125  103.3648
 126  221.3401
 127  337.3724
 128  280.3268
 129  191.5512
 130  81.33917
 131  166.2476
 132  158.7947
 133  172.9909
 134  171.5033
 135  147.4325
 136  191.1969
 137  302.2115
 138  292.9656
 139  113.2291
 140  -5.205694
 141  32.04598
 142  161.1388
 143  241.0597
 144  268.474
 145  225.7456
 146  111.175
 147  62.03259
 148  -54.60631
 149  -83.54438
 150  -75.24982
 151  126.3645
 152  288.5185
 153  237.1496
 154  162.167
 155  168.2415
 156  342.0922
 157  272.2648
 158  277.7777
 159  148.3485
 160  263.6351
 161  296.7479
 162  295.6562
 163  240.6001
 164  256.9944
 165  291.4578
 166  365.5507
 167  351.2608
 168  337.8995
 169  221.0525
 170  228.2147
 171  268.1858
 172  345.6743
 173  297.0755
 174  196.9108
 175  78.46741
 176  132.5916
 177  178.9722
 178  181.017
 179  203.0677
 180  182.0212
 181  184.9787
 182  226.9142
 183  249.5922
 184  175.8847
 185  79.96142
 186  52.21058
 187  61.90078
 188  -15.08421
 189  4.729266
 190  -61.1788
 191  -44.04939
 192  7.953118
 193  126.3486
 194  143.4037
 195  63.10303
 196  158.5537
 197  121.1244
 198  269.856
 199  295.8011
 200  389.8297
 201  293.9919
 202  211.3873
 203  60.31997
 204  77.63562
 205  -9.17868
 206  228.2794
 207  273.2285
 208  283.9997
 209  159.7697
 210  160.9739
 211  199.4616
 212  112.9335
 213  -5.017826
 214  39.99264
 215  178.0108
 216  232.2714
 217  290.1921
 218  240.5066
 219  237.6042
 220  73.18733
 221  62.87743
 222  164.9693
 223  148.9508
 224  42.15874
 225  21.80237
 226  200.1514
 227  353.8599
 228  417.1616
 229  300.2391
 230  100.0609
 231  -60.7191
 232  -30.87455
 233  -21.15397
 234  -26.0959
 235  -4.195866
 236  75.16158
 237  184.8812
 238  141.3882
 239  119.353
 240  76.8889
 241  182.905
 242  302.6866
 243  346.4318
 244  339.716
 245  268.1555
 246  314.0017
 247  284.7034
 248  314.9817
 249  321.155
 250  322.2376
 251  299.8427
 252  347.7328
 253  263.0605
 254  152.015
 255  111.8499
 256  221.4367
 257  368.9905
 258  345.9543
 259  335.0518
 260  285.6129
 261  289.0348
 262  216.2563
 263  259.8326
 264  258.8183
 265  192.4542
 266  214.7785
 267  294.6837
 268  274.0615
 269  223.195
 270  256.7442
 271  286.9776
 272  255.651
 273  177.8685
 274  191.4233
 275  184.1802
 276  205.2697
 277  255.2181
 278  189.9323
 279  173.4153
 280  104.4702
 281  126.3863
 282  134.0399
 283  89.415
 284  99.02261
 285  106.4168
 286  70.68778
 287  142.4479
 288  138.4482
 289  167.055
 290  211.1833
 291  252.1478
 292  230.774
 293  71.83719
 294  62.31013
 295  274.1242
 296  285.9816
 297  290.4019
 298  143.9371
 299  175.3543
 300  196.5822
 301  184.159
 302  172.4274
 303  202.6557
 304  157.2666
 305  140.2199
 306  35.40408
 307  76.15592
 308  132.692
 309  199.7583
 310  238.8821
 311  261.3894
 312  217.5006
 313  87.27524
 314  -66.79207
 315  -54.19226
 316  -54.023
 317  -20.83722
 318  70.31911
 319  177.8787
 320  236.2455
 321  87.84636
 322  60.21145
 323  61.88602
 324  313.0634
 325  432.4526
 326  394.0746
 327  356.0934
 328  192.2731
 329  101.5436
 330  26.1407
 331  155.3961
 332  197.7106
 333  148.3398
 334  135.2063
 335  119.4908
 336  104.9141
 337  166.9765
 338  200.1948
 339  142.5504
 340  74.74266
 341  213.2313
 342  216.1466
 343  201.6683
 344  168.3336
 345  184.9612
 346  148.614
 347  96.134
 348  125.8453
 349  150.4446
 350  131.9281
 351  76.49528
 352  -10.17929
 353  -28.10312
 354  93.10464
 355  159.788
 356  243.9616
 357  231.4515
 358  303.6064
 359  282.4517
 360  254.7831
 361  276.6617
 362  81.37392
 363  23.20075
 364  -86.83824
 365  88.06453
 366  118.7699
 367  210.286
 368  245.875
 369  257.2461
 370  255.6762
 371  269.8931
 372  264.7428
 373  262.7593
 374  173.5746
 375  185.1728
 376  212.4886
 377  102.6777
 378  47.17475
 379  95.71114
 380  149.6532
 381  194.0363
 382  48.43827
 383  54.62457
 384  58.91855
 385  152.6084
 386  167.6776
 387  114.2095
 388  118.0295
 389  211.7551
 390  311.3691
 391  287.8268
 392  272.4494
 393  212.0141
 394  197.3988
 395  140.7684
 396  53.09177
 397  101.5781
 398  176.7624
 399  346.4697
 400  350.5136
 401  264.2307
 402  276.6522
 403  188.0595
 404  146.1451
 405  141.3012
 406  275.1082
 407  293.4299
 408  151.7289
 409  69.64285
 410  132.8936
 411  190.328
 412  37.62854
 413  -49.61292
 414  50.81988
 415  176.1884
 416  205.0982
 417  112.5797
 418  109.1419
 419  44.63408
 420  178.8472
 421  329.6281
 422  464.8076
 423  416.6761
 424  306.0038
 425  167.1963
 426  157.7197
 427  130.4458
 428  212.3163
 429  273.2142
 430  301.3655
 431  242.3222
 432  95.42915
 433  92.53011
 434  27.50868
 435  -1.331064
 436  92.49062
 437  239.4613
 438  308.2217
 439  234.0907
 440  147.7907
 441  116.6783
 442  147.0893
 443  224.8306
 444  154.6802
 445  148.0078
 446  78.6621
 447  164.8282
 448  60.68003
 449  59.52224
 450  -10.00646
 451  165.4101
 452  256.1802
 453  250.3788
 454  280.2409
 455  269.0411
 456  235.7296
 457  210.4019
 458  194.0294
 459  122.4338
 460  121.6814
 461  92.31306
 462  46.09359
 463  -110.3905
 464  -105.9749
 465  79.84609
 466  47.23985
 467  69.81447
 468  43.85906
 469  101.7524
 470  135.1248
 471  245.9742
 472  261.4872
 473  143.0944
 474  86.55335
 475  177.3434
 476  163.6965
 477  73.57752
 478  40.93856
 479  35.68694
 480  86.44755
 481  167.4322
 482  185.8074
 483  130.2072
 484  36.73216
 485  96.16943
 486  100.7598
 487  215.3925
 488  251.6022
 489  268.6034
 490  76.95831
 491  44.20198
 492  82.67358
 493  178.9154
 494  209.7084
 495  231.8624
 496  264.7613
 497  140.3026
 498  82.72659
 499  139.2062
 500  190.4457
 501  170.064
 502  71.21779
 503  174.1236
 504  272.0801
 505  339.9282
 506  315.453
 507  282.4443
 508  226.7449
 509  114.7454
 510  117.8698
 511  140.227
 512  193.3539
 513  142.5906
 514  -5.598181
 515  17.66327
 516  149.8495
 517  256.4171
 518  216.336
 519  219.074
 520  160.4491
 521  -0.2454639
 522  -186.8536
 523  -174.5637
 524  -6.772088
 525  99.76102
 526  94.39598
 527  59.11411
 528  34.53819
 529  73.1981
 530  130.6821
 531  165.018
 532  204.6993
 533  242.1976
 534  283.5846
 535  175.6475
 536  162.2512
 537  26.48277
 538  -9.11307
 539  -20.999
 540  199.4666
 541  236.18
 542  209.7814
 543  180.916
 544  196.5562
 545  166.6253
 546  131.391
 547  220.2196
 548  273.4652
 549  230.4047
 550  207.66
 551  44.86794
 552  25.10454
 553  -24.86073
 554  66.81892
 555  69.40687
 556  196.6548
 557  280.3356
 558  328.4603
 559  260.4613
 560  163.9263
 561  209.418
 562  240.4401
 563  177.4454
 564  129.4754
 565  80.34383
 566  78.18941
 567  9.150745
 568  81.79717
 569  228.5783
 570  182.5814
 571  205.2983
 572  236.9316
 573  368.515
 574  230.3082
 575  175.8507
 576  156.964
 577  244.3762
 578  268.0389
 579  297.4631
 580  289.6623
 581  166.8795
 582  174.0543
 583  143.4054
 584  205.0303
 585  114.286
 586  116.9774
 587  48.78284
 588  33.26523
 589  18.35135
 590  53.23983
 591  -3.714489
 592  5.034757
 593  -79.36348
 594  144.3051
 595  182.3419
 596  265.0271
 597  248.7075
 598  298.6572
 599  234.212
 600  149.2706
 601  232.4216
 602  341.8958
 603  270.0946
 604  178.382
 605  146.6513
 606  205.2487
 607  188.18
 608  164.613
 609  162.6188
 610  297.7737
 611  354.0269
 612  221.8107
 613  115.3013
 614  97.49998
 615  254.4244
 616  199.3158
 617  194.9596
 618  225.8749
 619  287.6753
 620  330.3331
 621  240.8184
 622  149.741
 623  136.2884
 624  71.96593
 625  119.522
 626  214.909
 627  432.0126
 628  454.7461
 629  450.0537
 630  483.2005
 631  584.8752
 632  552.5541
 633  416.8139
 634  272.4937
 635  407.9448
 636  583.481
 637  792.5367
 638  758.4492
 639  841.7346
 640  954.2821
 641  1080.784
 642  1012.738
 643  751.8981
 644  562.9738
 645  523.1787
 646  504.3865
 647  434.7085
 648  347.341
 649  221.4907
 650  262.5728
 651  232.0832
 652  316.4503
 653  223.2836
 654  349.7481
 655  334.193
 656  247.9846
 657  32.88561
 658  72.74902
 659  108.3125
 660  209.8011
 661  213.4179
 662  161.2553
 663  158.5594
 664  257.3771
 665  342.0157
 666  464.1647
 667  441.8377
 668  462.3685
 669  287.2572
 670  242.4649
 671  359.8422
 672  406.2787
 673  464.2954
 674  377.3884
 675  360.4706
 676  236.1651
 677  91.2291
 678  126.6649
 679  109.0621
 680  232.7267
 681  326.2587
 682  393.9894
 683  315.4655
 684  145.5653
 685  174.1738
 686  180.1454
 687  128.9834
 688  242.0652
 689  342.2251
 690  350.0112
 691  149.6344
 692  115.3786
 693  138.8348
 694  128.6951
 695  190.5172
 696  149.9364
 697  125.1219
 698  100.4141
 699  266.4489
 700  338.4485
 701  368.5632
 702  255.283
 703  118.4221
 704  16.55994
 705  -70.69946
 706  15.28565
 707  92.69712
 708  185.2375
 709  224.5361
 710  166.256
 711  219.0441
 712  134.6384
 713  192.0768
 714  105.7798
 715  220.1562
 716  163.8473
 717  215.1787
 718  193.4982
 719  113.9078
 720  3.462808
 721  -17.82191
 722  121.5931
 723  225.4415
 724  188.7423
 725  223.2679
 726  162.6488
 727  234.0718
 728  227.4672
 729  311.5484
 730  237.2482
 731  179.6583
 732  105.8898
 733  207.8241
 734  136.364
 735  182.7871
 736  136.7405
 737  258.3773
 738  323.0876
 739  330.6546
 740  334.7633
 741  356.0506
 742  311.3603
 743  104.0207
 744  139.2878
 745  275.4476
 746  340.5506
 747  300.5934
 748  237.4355
 749  277.2192
 750  232.5623
 751  261.9327
 752  183.932
 753  196.1381
 754  245.1458
 755  361.4204
 756  282.6396
 757  227.9892
 758  184.1632
 759  230.0741
 760  242.7426
 761  205.8527
 762  197.7589
 763  166.2768
 764  248.6795
 765  274.1459
 766  295.6369
 767  240.6915
 768  198.2854
 769  288.1251
 770  242.4983
 771  172.9147
 772  33.62078
 773  45.93682
 774  106.4176
 775  146.1062
 776  208.7658
 777  210.5173
 778  184.1414
 779  182.4114
 780  173.7517
 781  224.2512
 782  159.3091
 783  88.24957
 784  46.41935
 785  112.1113
 786  184.4516
 787  147.3578
 788  124.658
 789  120.5953
 790  176.5307
 791  199.6189
 792  198.8133
 793  96.47813
 794  -111.0472
 795  14.73304
 796  121.9736
 797  360.9915
 798  341.2267
 799  387.5403
 800  246.8933
 801  162.0307
 802  54.52654
 803  89.72311
 804  114.2907
 805  115.3671
 806  198.4719
 807  248.2188
 808  332.1086
 809  255.3987
 810  285.4973
 811  334.5133
 812  422.9248
 813  314.5829
 814  282.0984
 815  242.1017
 816  290.1071
 817  335.7061
 818  322.9524
 819  323.818
 820  259.295
 821  196.3947
 822  200.5955
 823  259.0793
 824  209.3613
 825  228.6207
 826  188.494
 827  269.1783
 828  174.4839
 829  104.0898
 830  30.79313
 831  38.61561
 832  60.66349
 833  27.31334
 834  92.54275
 835  115.6759
 836  182.9535
 837  126.955
 838  176.5049
 839  80.24559
 840  114.4473
 841  228.5191
 842  320.1753
 843  423.6779
 844  425.2206
 845  497.6787
 846  470.1626
 847  380.6765
 848  248.3689
 849  169.7969
 850  180.0473
 851  306.1267
 852  282.2234
 853  245.6869
 854  159.7675
 855  176.3409
 856  219.7111
 857  158.8249
 858  201.8382
 859  228.5063
 860  322.704
 861  282.9416
 862  31.92268
 863  -59.43805
 864  -79.34388
 865  121.6956
 866  198.3748
 867  341.851
 868  399.1131
 869  362.6778
 870  289.2144
 871  309.0417
 872  302.7845
 873  221.5975
 874  42.38559
 875  -82.9277
 876  -108.4206
 877  -103.6308
 878  -47.99075
 879  32.5155
 880  91.92229
 881  153.9985
 882  165.4117
 883  173.3419
 884  101.3273
 885  100.0015
 886  139.982
 887  233.5458
 888  206.7121
 889  252.1322
 890  258.2086
 891  233.1459
 892  190.6791
 893  163.1269
 894  149.3723
 895  133.7394
 896  70.06105
 897  73.28081
 898  33.29515
 899  99.56408
 900  137.6189
 901  252.6918
 902  345.0124
 903  319.3838
 904  235.1845
 905  211.6498
 906  195.6757
 907  258.3491
 908  321.6558
 909  311.9408
 910  202.6677
 911  96.64367
 912  80.43804
 913  169.8273
 914  139.4403
 915  93.23061
 916  37.61309
 917  232.9419
 918  345.9699
 919  295.2472
 920  125.5828
 921  26.61113
 922  10.93904
 923  103.3406
 924  234.2434
 925  323.4308
 926  365.4027
 927  406.1351
 928  443.2883
 929  447.8273
 930  371.9015
 931  308.6678
 932  303.8466
 933  259.8051
 934  117.5186
 935  9.408069
 936  -77.64829
 937  -23.18131
 938  10.01713
 939  204.6989
 940  296.055
 941  364.838
 942  385.4269
 943  333.5291
 944  274.8965
 945  160.2057
 946  139.2552
 947  87.43217
 948  111.4762
 949  175.8197
 950  235.4057
 951  151.1543
 952  58.04279
 953  12.43127
 954  88.26767
 955  144.3922
 956  270.9172
 957  240.3435
 958  225.4493
 959  133.5468
 960  184.6309
 961  210.4375
 962  261.2329
 963  182.2582
 964  94.52422
 965  62.23394
 966  86.6927
 967  74.79151
 968  51.84284
 969  115.3361
 970  197.9179
 971  154.3218
 972  -1.698795
 973  -43.95329
 974  16.59492
 975  96.36414
 976  254.7588
 977  270.1028
 978  277.1956
 979  171.5711
 980  200.954
 981  194.4092
 982  175.2702
 983  225.2821
 984  238.9594
 985  263.8034
 986  271.261
 987  319.8675
 988  361.0588
 989  295.5598
 990  268.1747
 991  334.9255
 992  456.0753
 993  421.8396
 994  346.6859
 995  151.0551
 996  60.54797
 997  103.5244
 998  155.4439
 999  168.9543
1000  192.9486
1001  298.8727
1002  264.901
1003  141.8189
1004  157.2345
1005  207.6178
1006  138.5411
1007  193.4725
1008  326.6638
1009  424.436
1010  386.5222
1011  229.5303
1012  213.3618
1013  147.4646
1014  152.3703
1015  81.8661
1016  -7.845905
1017  -53.27153
1018  -60.09966
1019  144.8131
1020  226.6723
1021  255.0611
1022  286.0154
1023  351.9844
