# Input file       =  1190935138.10484_cleaned.dat
# Candidate        =  PSR_0332+5434
# Telescope        =  AR
# Epoch_topo       =  58027.971725750460
# Epoch_bary       =  N/A
# T_sample         =  0.002
# Data Folded      =  7340032
# Data Avg         =  0.0105106573669268
# Data StdDev      =  1.00003098244734 
# Profile Bins     =  512
# Profile Avg      =  150.956972954922 
# Profile StdDev   =  119.736745999261 
# Reduced chi-sqr  =  1.400
# Prob(Noise)      <  5.51e-09   (~5.7 sigma)
# P_topo (ms)      =  714.473144345717  +/- 0.00021
# P'_topo (s/s)    =  -0                +/- 1.11e-10
# P''_topo (s/s^2) =  0                 +/- 4.89e-14
# P_bary (ms)      =  N/A
# P'_bary (s/s)    =  N/A
# P''_bary (s/s^2) =  N/A
# P_orb (s)        =  N/A
# asin(i)/c (s)    =  N/A
# eccentricity     =  N/A
# w (rad)          =  N/A
# T_peri           =  N/A
######################################################
   0  89.53224
   1  86.23745
   2  19.11018
   3  63.5287
   4  156.0893
   5  159.6846
   6  128.0258
   7  133.8824
   8  134.2972
   9  74.61975
  10  83.58688
  11  105.1808
  12  30.09731
  13  111.1505
  14  115.7328
  15  48.19107
  16  18.50431
  17  81.01186
  18  95.93569
  19  101.7044
  20  203.5908
  21  143.1075
  22  122.5765
  23  240.5018
  24  292.1432
  25  115.1273
  26  40.26669
  27  155.174
  28  207.327
  29  270.3827
  30  403.3498
  31  167.7023
  32  29.98399
  33  96.52554
  34  125.6569
  35  68.96694
  36  89.0329
  37  98.17805
  38  174.5652
  39  164.8457
  40  166.9655
  41  94.39423
  42  166.5518
  43  255.8236
  44  170.8145
  45  69.97211
  46  15.96416
  47  25.38031
  48  164.8862
  49  251.7476
  50  123.4828
  51  193.7025
  52  321.5607
  53  198.879
  54  161.9862
  55  199.2125
  56  278.014
  57  53.73123
  58  29.62127
  59  170.0409
  60  112.5179
  61  248.4466
  62  188.7677
  63  129.1772
  64  121.6704
  65  174.8091
  66  212.5217
  67  176.5842
  68  175.2215
  69  197.0319
  70  198.1693
  71  155.9623
  72  224.0668
  73  175.2663
  74  239.3316
  75  230.0174
  76  93.44418
  77  187.7094
  78  266.452
  79  286.8546
  80  78.62518
  81  -25.32158
  82  136.3392
  83  83.94124
  84  68.1691
  85  146.6433
  86  27.54399
  87  131.4671
  88  123.5151
  89  133.1311
  90  115.8398
  91  103.2715
  92  136.4422
  93  236.3378
  94  200.3862
  95  140.7734
  96  107.1157
  97  114.217
  98  194.8801
  99  92.83266
 100  -29.01554
 101  120.9468
 102  78.53387
 103  169.725
 104  299.1533
 105  162.5217
 106  141.6231
 107  100.7906
 108  108.3243
 109  16.96448
 110  126.3854
 111  180.3632
 112  174.6067
 113  154.0072
 114  217.2777
 115  169.3619
 116  233.2856
 117  266.2963
 118  209.6946
 119  196.2893
 120  273.9045
 121  178.3502
 122  66.89828
 123  32.82344
 124  32.86454
 125  121.1965
 126  214.4677
 127  145.0971
 128  80.14301
 129  86.50722
 130  14.3349
 131  177.1537
 132  327.846
 133  338.9267
 134  310.7282
 135  200.9594
 136  108.6156
 137  123.8353
 138  124.6228
 139  70.24117
 140  109.6009
 141  96.86978
 142  17.82172
 143  50.58849
 144  219.0928
 145  353.1443
 146  203.6064
 147  19.27815
 148  85.37695
 149  4.524505
 150  28.97356
 151  103.2342
 152  144.6643
 153  92.18557
 154  59.27408
 155  148.8794
 156  212.5541
 157  124.18
 158  234.0868
 159  318.0914
 160  202.7204
 161  233.7281
 162  143.7899
 163  84.93743
 164  156.5288
 165  249.8384
 166  240.097
 167  282.5273
 168  333.6516
 169  192.2475
 170  121.4461
 171  224.7016
 172  126.0704
 173  184.6553
 174  226.3825
 175  180.2954
 176  238.6098
 177  293.9227
 178  190.0379
 179  60.24459
 180  32.82864
 181  88.5279
 182  127.3573
 183  175.8257
 184  131.2235
 185  128.6308
 186  143.478
 187  310.4826
 188  124.2468
 189  129.5322
 190  251.585
 191  236.9684
 192  184.0065
 193  114.5774
 194  121.4991
 195  199.6367
 196  277.413
 197  60.18231
 198  212.0645
 199  253.9704
 200  251.0444
 201  184.4256
 202  219.7285
 203  141.0314
 204  137.1595
 205  149.2826
 206  187.9048
 207  106.4643
 208  234.0045
 209  177.4912
 210  14.40349
 211  15.18601
 212  106.2442
 213  270.8135
 214  301.3616
 215  174.3988
 216  80.88902
 217  200.6922
 218  143.7906
 219  127.9874
 220  143.7032
 221  118.5003
 222  68.0132
 223  137.6769
 224  82.45486
 225  149.7111
 226  277.1761
 227  273.6452
 228  174.5652
 229  69.53355
 230  129.2404
 231  138.8731
 232  183.8766
 233  151.6746
 234  101.0684
 235  206.4745
 236  271.415
 237  262.9243
 238  207.3749
 239  126.5505
 240  162.871
 241  67.94802
 242  158.2644
 243  141.724
 244  239.8684
 245  230.1503
 246  154.2854
 247  139.821
 248  148.8561
 249  208.4104
 250  126.9768
 251  148.6963
 252  62.53368
 253  89.21857
 254  -1.313316
 255  103.3428
 256  5.294182
 257  115.0109
 258  189.9022
 259  362.8476
 260  267.8354
 261  191.4031
 262  207.0896
 263  129.9384
 264  31.29407
 265  76.35018
 266  116.9292
 267  202.1371
 268  134.6568
 269  274.1967
 270  261.2448
 271  155.2695
 272  77.56813
 273  145.6736
 274  258.4788
 275  200.0312
 276  217.0678
 277  245.8656
 278  107.9553
 279  176.5317
 280  177.8091
 281  155.4763
 282  215.0606
 283  112.4267
 284  114.0962
 285  213.328
 286  228.2969
 287  189.8422
 288  137.6631
 289  -68.27909
 290  -39.27279
 291  79.44202
 292  146.7182
 293  152.6345
 294  25.04124
 295  -39.64661
 296  167.6373
 297  107.9744
 298  91.75613
 299  126.9582
 300  66.58698
 301  -56.8744
 302  174.2708
 303  174.9403
 304  172.6572
 305  284.2006
 306  111.2517
 307  111.0055
 308  57.86269
 309  123.2144
 310  167.8025
 311  223.8284
 312  278.4608
 313  128.3884
 314  61.26925
 315  24.45674
 316  91.92618
 317  222.5284
 318  110.4607
 319  60.43515
 320  53.87629
 321  211.136
 322  229.7938
 323  83.2038
 324  137.3131
 325  146.1977
 326  113.9134
 327  30.17048
 328  -38.17854
 329  -0.2240428
 330  18.66988
 331  232.5367
 332  362.0128
 333  178.821
 334  45.63427
 335  91.01672
 336  144.0412
 337  145.6905
 338  180.6246
 339  216.0075
 340  131.2586
 341  141.4366
 342  108.5719
 343  239.7034
 344  181.416
 345  122.0023
 346  90.49705
 347  96.73528
 348  100.4505
 349  59.10788
 350  46.72224
 351  84.75486
 352  120.219
 353  127.8088
 354  -77.90172
 355  -52.02683
 356  99.61794
 357  138.8897
 358  102.7729
 359  26.72186
 360  83.66663
 361  -9.734893
 362  4.04867
 363  160.0041
 364  182.6759
 365  191.9727
 366  99.45052
 367  60.43819
 368  28.29767
 369  210.1384
 370  170.8111
 371  124.5137
 372  49.27668
 373  98.23115
 374  -9.060593
 375  60.76775
 376  169.2337
 377  146.9505
 378  41.67144
 379  163.5336
 380  70.5275
 381  112.7118
 382  96.22433
 383  31.03075
 384  29.12278
 385  145.2337
 386  269.3647
 387  258.0406
 388  33.99488
 389  126.4343
 390  112.1563
 391  111.4232
 392  44.98609
 393  24.79388
 394  35.61282
 395  175.4081
 396  221.5515
 397  150.5419
 398  115.8952
 399  195.0832
 400  160.1804
 401  40.15388
 402  96.5206
 403  151.0084
 404  163.0134
 405  161.5316
 406  125.0067
 407  195.6944
 408  101.4221
 409  193.2413
 410  235.273
 411  25.14099
 412  19.34163
 413  143.6861
 414  170.9003
 415  179.1466
 416  212.2025
 417  175.9038
 418  223.2352
 419  267.1226
 420  315.487
 421  296.6442
 422  249.3751
 423  335.1168
 424  492.9184
 425  610.8267
 426  678.4718
 427  857.6446
 428  798.8469
 429  655.7555
 430  489.7939
 431  269.649
 432  125.8836
 433  165.7526
 434  71.71333
 435  119.5191
 436  -2.164637
 437  166.873
 438  291.5284
 439  368.3691
 440  371.6292
 441  198.3495
 442  348.5126
 443  347.1479
 444  237.1475
 445  106.1187
 446  79.61405
 447  157.8649
 448  160.7488
 449  206.2639
 450  182.5607
 451  116.9358
 452  165.3123
 453  80.48702
 454  116.2625
 455  221.8773
 456  70.1226
 457  118.1489
 458  264.604
 459  296.4432
 460  220.982
 461  31.81557
 462  -69.17109
 463  9.437679
 464  127.2686
 465  165.7854
 466  85.27364
 467  133.6744
 468  55.55614
 469  -14.51842
 470  134.5267
 471  146.7605
 472  147.0967
 473  161.3884
 474  99.05354
 475  75.96191
 476  130.927
 477  68.46391
 478  -3.647187
 479  -51.80367
 480  212.298
 481  198.8851
 482  202.6592
 483  225.6962
 484  95.19607
 485  147.1562
 486  71.12936
 487  120.3419
 488  174.6713
 489  41.62445
 490  84.04947
 491  154.965
 492  118.7452
 493  132.5134
 494  154.2751
 495  126.4491
 496  244.4576
 497  234.5556
 498  287.3179
 499  141.0798
 500  216.5381
 501  181.4593
 502  175.3678
 503  116.5523
 504  176.5067
 505  133.2435
 506  -10.1686
 507  38.06041
 508  134.8293
 509  90.14024
 510  31.34393
 511  45.50227
