# Input file       =  1190863929.112254_cleaned.dat
# Candidate        =  PSR_0332+5434
# Telescope        =  AR
# Epoch_topo       =  58027.147547595530
# Epoch_bary       =  N/A
# T_sample         =  0.002
# Data Folded      =  7340032
# Data Avg         =  0.0330181708756883
# Data StdDev      =  3.21506074996213 
# Profile Bins     =  512
# Profile Avg      =  473.250031190033 
# Profile StdDev   =  384.948985728728 
# Reduced chi-sqr  =  1.424
# Prob(Noise)      <  8.67e-10   (~6.0 sigma)
# P_topo (ms)      =  714.473025195524  +/- 0.00014
# P'_topo (s/s)    =  -0                +/- 7.39e-11
# P''_topo (s/s^2) =  0                 +/- 3.26e-14
# P_bary (ms)      =  N/A
# P'_bary (s/s)    =  N/A
# P''_bary (s/s^2) =  N/A
# P_orb (s)        =  N/A
# asin(i)/c (s)    =  N/A
# eccentricity     =  N/A
# w (rad)          =  N/A
# T_peri           =  N/A
######################################################
   0  151.2712
   1  -24.46085
   2  157.7562
   3  494.134
   4  911.9893
   5  822.585
   6  599.4864
   7  395.0831
   8  155.6943
   9  296.8807
  10  213.2925
  11  133.6592
  12  76.92891
  13  324.1013
  14  531.6437
  15  754.7332
  16  685.4597
  17  740.5838
  18  487.8133
  19  656.6723
  20  276.2952
  21  61.67649
  22  185.3838
  23  318.6212
  24  556.4208
  25  521.4175
  26  173.7842
  27  405.2942
  28  501.656
  29  474.6367
  30  123.6955
  31  107.4153
  32  691.6415
  33  236.4756
  34  -113.8445
  35  -33.68571
  36  320.4076
  37  134.8306
  38  64.3286
  39  325.7422
  40  399.6793
  41  465.5985
  42  408.8176
  43  567.1288
  44  491.868
  45  745.7643
  46  862.423
  47  253.7856
  48  449.6418
  49  352.104
  50  656.3235
  51  587.0629
  52  936.9281
  53  641.1939
  54  398.4497
  55  653.3791
  56  519.1675
  57  505.5154
  58  731.1594
  59  369.9445
  60  83.52843
  61  311.3344
  62  396.0388
  63  616.9429
  64  565.0434
  65  138.1175
  66  -311.6517
  67  160.9233
  68  194.2983
  69  362.3756
  70  434.6299
  71  250.6884
  72  188.3732
  73  656.6378
  74  521.3388
  75  441.372
  76  117.8311
  77  204.8756
  78  506.542
  79  896.3547
  80  1150.829
  81  842.8047
  82  502.5224
  83  554.8045
  84  242.6706
  85  -5.19839
  86  507.1188
  87  367.4775
  88  395.4683
  89  747.923
  90  418.5963
  91  197.6816
  92  234.4226
  93  188.6691
  94  -165.612
  95  -222.4564
  96  343.6148
  97  343.2869
  98  642.5187
  99  611.4738
 100  221.4715
 101  386.4471
 102  239.9174
 103  720.1562
 104  821.3356
 105  278.5777
 106  246.3339
 107  149.7688
 108  175.9638
 109  292.9697
 110  277.6966
 111  309.911
 112  -55.83358
 113  43.24466
 114  310.1325
 115  770.2384
 116  967.2496
 117  806.7115
 118  486.1415
 119  394.4832
 120  625.7392
 121  77.91439
 122  -61.49248
 123  758.4935
 124  776.1517
 125  288.6039
 126  52.56874
 127  366.0294
 128  -12.12195
 129  437.5821
 130  533.3494
 131  819.4484
 132  441.7422
 133  71.88012
 134  -75.53819
 135  198.3502
 136  522.5361
 137  404.358
 138  646.8164
 139  905.0529
 140  646.0082
 141  539.224
 142  705.925
 143  562.5226
 144  179.3638
 145  703.8287
 146  434.5975
 147  501.4638
 148  677.4722
 149  503.1626
 150  586.0671
 151  626.0034
 152  764.5791
 153  782.1019
 154  878.7639
 155  392.7485
 156  161.761
 157  280.0078
 158  255.3124
 159  545.188
 160  405.0028
 161  135.1012
 162  173.9172
 163  222.531
 164  396.8365
 165  339.7193
 166  524.6303
 167  460.4442
 168  736.4078
 169  -22.28562
 170  354.7541
 171  373.3642
 172  123.9741
 173  327.9219
 174  1035.789
 175  808.7265
 176  337.7576
 177  180.5423
 178  451.7313
 179  74.67417
 180  396.583
 181  473.6787
 182  725.0678
 183  558.874
 184  665.9302
 185  1106.016
 186  1169.123
 187  760.5029
 188  454.1563
 189  257.8217
 190  367.8857
 191  452.0502
 192  349.0692
 193  448.309
 194  258.9967
 195  290.5797
 196  95.43453
 197  -74.6176
 198  264.9362
 199  424.8781
 200  573.6674
 201  811.1993
 202  426.8604
 203  238.5998
 204  291.7644
 205  206.8205
 206  554.4509
 207  714.1716
 208  774.4276
 209  206.7145
 210  330.6005
 211  651.4151
 212  495.7187
 213  440.4242
 214  363.0634
 215  228.9125
 216  265.9873
 217  569.0652
 218  408.0991
 219  385.609
 220  833.608
 221  1163.058
 222  714.9479
 223  -12.27362
 224  362.5517
 225  1070.427
 226  758.6064
 227  763.9271
 228  804.0707
 229  512.6091
 230  284.2342
 231  359.7487
 232  544.4926
 233  687.2124
 234  118.3896
 235  689.9124
 236  1016.706
 237  615.1981
 238  548.811
 239  431.164
 240  557.806
 241  297.6444
 242  324.3919
 243  772.0209
 244  916.3379
 245  904.9381
 246  955.1654
 247  783.9868
 248  492.6294
 249  577.2819
 250  936.0432
 251  695.7444
 252  455.8613
 253  165.9362
 254  208.752
 255  719.5397
 256  554.4984
 257  702.1093
 258  670.5339
 259  388.7042
 260  631.9014
 261  746.3638
 262  283.3629
 263  -47.25832
 264  563.4014
 265  1121
 266  569.8586
 267  184.4072
 268  64.04355
 269  489.801
 270  27.07796
 271  365.4526
 272  548.2067
 273  314.5957
 274  503.7802
 275  272.1418
 276  383.9808
 277  281.3804
 278  -133.9831
 279  86.50206
 280  530.2936
 281  296.9154
 282  227.7115
 283  487.7718
 284  173.1792
 285  -107.2804
 286  598.9152
 287  481.9767
 288  329.4961
 289  449.541
 290  803.0629
 291  761.674
 292  449.9861
 293  654.0861
 294  509.8398
 295  70.50858
 296  336.743
 297  734.3943
 298  627.8918
 299  321.2743
 300  399.4579
 301  366.9989
 302  782.3033
 303  1062.556
 304  879.528
 305  820.0366
 306  810.3646
 307  517.9
 308  867.7732
 309  698.6832
 310  935.2391
 311  1239.209
 312  923.9025
 313  736.6412
 314  834.5609
 315  666.7661
 316  1316.185
 317  1622.44
 318  1803.939
 319  2437.433
 320  2392.033
 321  2529.004
 322  2016.253
 323  1162.31
 324  917.4354
 325  939.787
 326  714.4279
 327  708.0643
 328  177.4453
 329  141.1433
 330  377.7266
 331  623.1076
 332  538.673
 333  463.5768
 334  991.3591
 335  902.4705
 336  704.4651
 337  668.287
 338  943.0594
 339  593.9225
 340  546.942
 341  280.7296
 342  259.6765
 343  292.3965
 344  417.049
 345  731.3109
 346  542.2111
 347  462.9926
 348  444.6324
 349  557.929
 350  -325.0199
 351  119.1211
 352  519.821
 353  447.7125
 354  143.0877
 355  -372.52
 356  -94.79792
 357  54.33238
 358  212.6255
 359  313.9469
 360  151.9368
 361  57.99533
 362  806.3785
 363  383.9365
 364  381.3105
 365  716.3389
 366  874.8605
 367  661.3471
 368  263.8413
 369  377.3616
 370  181.7126
 371  -40.93216
 372  139.3151
 373  151.4321
 374  29.66699
 375  533.4265
 376  804.7308
 377  546.0054
 378  224.7619
 379  -128.5473
 380  214.8943
 381  157.4293
 382  646.118
 383  438.4621
 384  112.4396
 385  -98.51919
 386  259.9202
 387  307.4346
 388  631.5351
 389  506.8737
 390  670.465
 391  968.9373
 392  666.0305
 393  391.1846
 394  747.3109
 395  528.2538
 396  204.559
 397  517.5051
 398  216.5152
 399  402.6641
 400  370.9008
 401  536.9632
 402  710.3794
 403  217.1803
 404  316.6158
 405  268.326
 406  288.1421
 407  499.7977
 408  694.6163
 409  366.0761
 410  110.4639
 411  576.0884
 412  710.3182
 413  609.4885
 414  754.8303
 415  308.3368
 416  443.3155
 417  481.0526
 418  830.8711
 419  821.4935
 420  572.3271
 421  -84.03883
 422  66.53822
 423  467.1559
 424  297.7558
 425  662.1089
 426  700.1566
 427  536.9203
 428  349.367
 429  782.4142
 430  776.9202
 431  358.6127
 432  299.3973
 433  519.1558
 434  402.6376
 435  220.1422
 436  404.192
 437  545.601
 438  423.4553
 439  229.6917
 440  133.7017
 441  -91.64269
 442  543.5782
 443  592.8914
 444  400.2388
 445  178.8201
 446  429.3151
 447  458.7143
 448  473.0158
 449  366.0065
 450  347.3268
 451  -28.51064
 452  -140.3156
 453  698.4996
 454  648.7102
 455  60.14557
 456  132.1862
 457  522.0056
 458  631.7238
 459  147.3382
 460  179.274
 461  306.7107
 462  140.9607
 463  355.1389
 464  618.799
 465  743.9243
 466  626.6819
 467  454.1849
 468  415.7896
 469  101.2577
 470  95.03661
 471  290.05
 472  195.7859
 473  517.5931
 474  485.6655
 475  198.8964
 476  444.4342
 477  504.3913
 478  421.9336
 479  814.6215
 480  780.8004
 481  438.7567
 482  87.97634
 483  692.2707
 484  1051.07
 485  722.752
 486  637.1115
 487  887.8559
 488  484.2711
 489  584.14
 490  719.5841
 491  392.8372
 492  436.7686
 493  158.9521
 494  201.542
 495  756.2256
 496  593.8022
 497  483.0504
 498  658.8253
 499  825.9344
 500  685.8564
 501  693.7149
 502  501.4384
 503  320.404
 504  420.5596
 505  349.515
 506  342.1066
 507  205.3472
 508  861.075
 509  556.574
 510  854.722
 511  630.1512
