# Input file       =  1190777738.109756_cleaned.dat
# Candidate        =  PSR_0332+5434
# Telescope        =  AR
# Epoch_topo       =  58026.149966548102
# Epoch_bary       =  N/A
# T_sample         =  0.002
# Data Folded      =  7340032
# Data Avg         =  0.0342849414332055
# Data StdDev      =  3.0177436802083  
# Profile Bins     =  512
# Profile Avg      =  491.427233351159 
# Profile StdDev   =  361.323613838137 
# Reduced chi-sqr  =  1.318
# Prob(Noise)      <  1.71e-06   (~4.6 sigma)
# P_topo (ms)      =  714.472486248074  +/- 0.000221
# P'_topo (s/s)    =  -0                +/- 1.16e-10
# P''_topo (s/s^2) =  0                 +/- 5.14e-14
# P_bary (ms)      =  N/A
# P'_bary (s/s)    =  N/A
# P''_bary (s/s^2) =  N/A
# P_orb (s)        =  N/A
# asin(i)/c (s)    =  N/A
# eccentricity     =  N/A
# w (rad)          =  N/A
# T_peri           =  N/A
######################################################
   0  512.6002
   1  587.5452
   2  392.1094
   3  609.657
   4  596.3821
   5  491.1958
   6  796.7309
   7  936.5727
   8  671.6379
   9  151.3986
  10  395.8041
  11  463.9587
  12  443.008
  13  740.9391
  14  450.2525
  15  292.9784
  16  291.4705
  17  334.231
  18  399.8991
  19  485.468
  20  376.29
  21  337.2759
  22  238.3742
  23  653.6166
  24  730.7536
  25  364.7595
  26  268.1128
  27  472.8663
  28  512.0442
  29  834.6591
  30  779.2383
  31  584.1542
  32  295.5696
  33  419.534
  34  323.9253
  35  119.0099
  36  181.6559
  37  738.3333
  38  669.8489
  39  433.8379
  40  94.67533
  41  64.38945
  42  230.8794
  43  398.3028
  44  540.2615
  45  197.1103
  46  343.8884
  47  -154.7997
  48  -58.5569
  49  222.4646
  50  501.8353
  51  883.7162
  52  691.8124
  53  152.3104
  54  313.0216
  55  491.1794
  56  721.9042
  57  503.6085
  58  856.4509
  59  766.9599
  60  867.3277
  61  833.5682
  62  685.9813
  63  937.9394
  64  315.861
  65  149.5553
  66  618.7509
  67  684.5838
  68  515.7945
  69  569.6099
  70  596.4109
  71  792.8998
  72  464.7526
  73  539.076
  74  702.8848
  75  627.0574
  76  405.229
  77  723.649
  78  742.0792
  79  751.967
  80  844.7226
  81  308.5677
  82  13.5196
  83  -152.2153
  84  75.26652
  85  220.9256
  86  330.4997
  87  447.1755
  88  389.4248
  89  220.1253
  90  450.3224
  91  434.5089
  92  441.6167
  93  722.111
  94  857.1816
  95  475.7685
  96  22.83067
  97  -1.529634
  98  59.57953
  99  108.4511
 100  401.992
 101  -80.53315
 102  222.3163
 103  335.1441
 104  15.57357
 105  179.1283
 106  127.4957
 107  14.82678
 108  -54.1359
 109  202.4122
 110  168.7572
 111  340.5386
 112  377.7505
 113  342.9757
 114  505.5698
 115  427.2368
 116  560.0698
 117  369.527
 118  660.8338
 119  717.9952
 120  594.0109
 121  326.6459
 122  648.1794
 123  26.06689
 124  11.25516
 125  194.528
 126  670.4888
 127  908.6002
 128  590.6695
 129  189.7967
 130  452.3141
 131  672.2405
 132  990.801
 133  829.7659
 134  605.1357
 135  594.4031
 136  315.6713
 137  146.8594
 138  223.402
 139  55.99631
 140  178.0895
 141  566.6577
 142  137.6686
 143  182.939
 144  88.97443
 145  359.9936
 146  276.2058
 147  339.3845
 148  496.7789
 149  936.4772
 150  180.1612
 151  187.6284
 152  569.6603
 153  247.8562
 154  354.0648
 155  451.3621
 156  652.6114
 157  264.0477
 158  135.0587
 159  353.1217
 160  577.0399
 161  537.3167
 162  677.0803
 163  519.0096
 164  260.6302
 165  671.223
 166  577.3594
 167  595.8615
 168  549.8835
 169  379.2448
 170  289.8309
 171  311.637
 172  73.2731
 173  617.4932
 174  527.0929
 175  228.47
 176  631.4424
 177  633.6732
 178  320.5892
 179  178.0054
 180  344.9252
 181  563.7586
 182  865.9738
 183  417.2153
 184  489.2788
 185  985.5574
 186  1061.213
 187  664.5157
 188  234.375
 189  712.555
 190  1174.838
 191  748.6985
 192  769.5656
 193  806.3553
 194  679.5803
 195  472.9585
 196  595.6476
 197  487.4778
 198  436.4313
 199  536.5396
 200  684.6303
 201  333.4381
 202  534.0357
 203  836.4296
 204  595.2255
 205  274.1877
 206  652.1171
 207  355.6327
 208  206.1642
 209  439.5943
 210  401.2441
 211  565.4637
 212  229.7639
 213  217.3587
 214  789.8676
 215  638.2103
 216  270.4433
 217  153.5376
 218  602.713
 219  632.0876
 220  701.9391
 221  529.5674
 222  410.745
 223  512.3967
 224  345.3885
 225  199.1629
 226  -113.4696
 227  515.9777
 228  728.0508
 229  199.9357
 230  374.9546
 231  433.7606
 232  358.5797
 233  475.0262
 234  477.7589
 235  650.4592
 236  601.093
 237  267.268
 238  321.4659
 239  693.7991
 240  406.9026
 241  927.1439
 242  860.2287
 243  710.054
 244  405.2646
 245  388.498
 246  69.83372
 247  -288.2776
 248  289.2688
 249  925.8889
 250  1125.864
 251  673.9637
 252  175.5519
 253  201.8154
 254  273.2655
 255  324.7785
 256  211.3286
 257  407.5134
 258  234.2744
 259  148.8355
 260  430.9843
 261  191.6554
 262  386.7508
 263  671.7131
 264  641.3156
 265  603.1761
 266  117.9218
 267  309.7607
 268  368.9904
 269  131.9608
 270  696.8101
 271  593.2145
 272  482.7372
 273  365.1977
 274  433.0471
 275  595.8824
 276  688.1456
 277  724.5028
 278  992.644
 279  782.8714
 280  758.5032
 281  765.3981
 282  535.7264
 283  591.1305
 284  722.2874
 285  744.3713
 286  148.5382
 287  160.9375
 288  501.3742
 289  432.6781
 290  677.7325
 291  850.9524
 292  554.4742
 293  468.9335
 294  460.9153
 295  322.3831
 296  481.8627
 297  558.5127
 298  199.5855
 299  568.4851
 300  775.1985
 301  685.1805
 302  762.6166
 303  540.1928
 304  292.0461
 305  270.5951
 306  259.5349
 307  392.1696
 308  548.9645
 309  432.0938
 310  381.2242
 311  408.9641
 312  446.8729
 313  392.8015
 314  394.2488
 315  704.817
 316  1322.676
 317  1748.004
 318  1772.86
 319  2010.172
 320  1946.96
 321  2132.994
 322  1883.948
 323  1167.042
 324  849.7424
 325  717.2405
 326  437.5382
 327  666.5157
 328  515.2039
 329  374.7756
 330  589.6283
 331  711.937
 332  283.2189
 333  213.6013
 334  767.0063
 335  513.9388
 336  577.153
 337  590.8622
 338  401.8039
 339  136.9137
 340  340.2405
 341  379.5749
 342  115.4383
 343  277.5011
 344  286.3978
 345  267.5969
 346  211.2334
 347  269.8391
 348  149.1074
 349  313.8065
 350  548.3294
 351  17.20334
 352  104.9072
 353  159.8362
 354  123.8915
 355  288.6288
 356  136.0022
 357  200.8139
 358  249.754
 359  93.75089
 360  214.8943
 361  273.0775
 362  383.4344
 363  316.4605
 364  473.329
 365  493.666
 366  757.6447
 367  376.7598
 368  132.796
 369  293.8962
 370  501.3778
 371  597.6865
 372  510.6766
 373  827.9559
 374  626.1629
 375  664.8672
 376  1157.986
 377  643.8044
 378  489.432
 379  336.6779
 380  622.2601
 381  430.6583
 382  359.3336
 383  494.588
 384  297.2556
 385  325.2466
 386  342.7294
 387  635.1688
 388  523.1883
 389  532.0519
 390  596.2506
 391  447.8505
 392  849.0602
 393  979.0754
 394  711.7166
 395  314.952
 396  520.3947
 397  607.0441
 398  341.974
 399  519.9238
 400  957.3676
 401  493.3404
 402  526.9272
 403  441.5313
 404  623.2168
 405  736.8987
 406  1058.048
 407  860.691
 408  712.4343
 409  778.1031
 410  623.1984
 411  620.043
 412  253.8553
 413  622.7488
 414  1272.482
 415  1130.46
 416  435.2734
 417  427.0036
 418  586.7582
 419  250.9545
 420  25.31891
 421  432.4271
 422  498.173
 423  142.4574
 424  627.6259
 425  778.5936
 426  850.5343
 427  1224.421
 428  750.7866
 429  926.8097
 430  314.1623
 431  539.9604
 432  747.4958
 433  492.0963
 434  894.545
 435  1035.1
 436  602.7767
 437  590.5356
 438  668.6354
 439  673.01
 440  335.4911
 441  161.9281
 442  697.4178
 443  967.0031
 444  801.6567
 445  644.9194
 446  481.704
 447  296.7758
 448  88.9912
 449  474.2634
 450  624.0612
 451  354.5477
 452  188.6412
 453  290.0271
 454  659.1809
 455  323.7949
 456  279.5772
 457  702.8386
 458  773.2342
 459  1196.287
 460  787.8195
 461  179.7935
 462  188.9635
 463  80.35342
 464  563.5268
 465  623.2026
 466  317.6565
 467  562.8993
 468  810.4819
 469  787.4421
 470  157.5594
 471  -170.0689
 472  182.7029
 473  1036.856
 474  756.051
 475  842.085
 476  791.6895
 477  437.2122
 478  570.902
 479  389.9582
 480  303.3538
 481  555.3071
 482  551.7186
 483  434.1771
 484  398.5614
 485  688.6402
 486  539.7365
 487  657.0578
 488  922.0677
 489  406.1473
 490  138.7836
 491  266.4596
 492  253.9973
 493  339.9422
 494  245.1731
 495  309.8318
 496  564.8403
 497  384.5136
 498  438.3604
 499  133.3025
 500  774.5371
 501  417.1395
 502  234.1256
 503  383.1543
 504  703.5214
 505  422.2412
 506  337.5393
 507  219.076
 508  252.0093
 509  207.177
 510  99.49228
 511  226.4379
