# Input file       =  1190935138.10484_cleaned.dat
# Candidate        =  PSR_0332+5434
# Telescope        =  AR
# Epoch_topo       =  58027.971725750460
# Epoch_bary       =  N/A
# T_sample         =  0.002
# Data Folded      =  7340032
# Data Avg         =  0.0274435843966785
# Data StdDev      =  2.67581304929049 
# Profile Bins     =  1024
# Profile Avg      =  197.184234490017 
# Profile StdDev   =  226.545148266369 
# Reduced chi-sqr  =  1.196
# Prob(Noise)      <  1.4e-05   (~4.2 sigma)
# P_topo (ms)      =  714.473144345717  +/- 0.000216
# P'_topo (s/s)    =  -0                +/- 1.14e-10
# P''_topo (s/s^2) =  0                 +/- 5.04e-14
# P_bary (ms)      =  N/A
# P'_bary (s/s)    =  N/A
# P''_bary (s/s^2) =  N/A
# P_orb (s)        =  N/A
# asin(i)/c (s)    =  N/A
# eccentricity     =  N/A
# w (rad)          =  N/A
# T_peri           =  N/A
######################################################
   0  188.8211
   1  153.8525
   2  8.083875
   3  73.51453
   4  144.0349
   5  240.7494
   6  196.1053
   7  291.5398
   8  244.13
   9  216.2121
  10  113.5229
  11  269.6704
  12  282.2966
  13  284.4492
  14  194.8312
  15  235.5754
  16  298.6117
  17  347.1078
  18  376.1528
  19  402.8846
  20  323.3746
  21  289.0053
  22  252.0156
  23  283.9899
  24  341.8297
  25  398.0782
  26  309.8911
  27  138.8344
  28  78.8718
  29  74.31189
  30  55.76186
  31  22.30099
  32  16.04289
  33  2.697758
  34  38.87041
  35  195.7243
  36  258.5035
  37  309.4559
  38  208.7663
  39  127.1984
  40  58.73581
  41  65.95363
  42  89.78869
  43  44.79933
  44  -6.107144
  45  13.01728
  46  109.3298
  47  258.0604
  48  384.6953
  49  378.9087
  50  408.1519
  51  361.3665
  52  374.5016
  53  332.9551
  54  319.9789
  55  192.5714
  56  173.4511
  57  196.9395
  58  213.5293
  59  150.182
  60  170.6937
  61  190.5528
  62  161.2303
  63  57.5811
  64  114.9371
  65  175.6252
  66  193.3639
  67  72.28519
  68  47.58837
  69  -23.40386
  70  59.94566
  71  23.94927
  72  187.1765
  73  304.2473
  74  439.0101
  75  432.616
  76  339.072
  77  180.8085
  78  4.495192
  79  43.23702
  80  90.39278
  81  146.2655
  82  20.87392
  83  -62.0111
  84  -16.93441
  85  48.64664
  86  154.7042
  87  147.9442
  88  187.5621
  89  209.4842
  90  159.4736
  91  105.9405
  92  60.9985
  93  108.8373
  94  152.0615
  95  222.2983
  96  255.332
  97  311.903
  98  187.1602
  99  136.2165
 100  170.7214
 101  373.5492
 102  446.7259
 103  394.4669
 104  299.151
 105  272.1259
 106  275.2787
 107  295.7105
 108  212.9864
 109  113.4335
 110  33.26304
 111  150.0266
 112  155.3839
 113  241.4097
 114  291.3499
 115  371.5096
 116  323.755
 117  287.1269
 118  276.322
 119  394.3643
 120  439.1316
 121  389.0176
 122  272.4973
 123  221.9476
 124  146.2685
 125  211.3166
 126  250.5398
 127  332.999
 128  216.7106
 129  186.1627
 130  215.7535
 131  266.7845
 132  227.2754
 133  255.0761
 134  214.2748
 135  228.6066
 136  248.9754
 137  401.8861
 138  423.9463
 139  333.0336
 140  261.3138
 141  210.9256
 142  106.6456
 143  44.35527
 144  7.23823
 145  63.41719
 146  156.2066
 147  133.1351
 148  146.6735
 149  159.4855
 150  214.8364
 151  150.8625
 152  89.10303
 153  189.39
 154  183.6097
 155  184.8263
 156  165.4172
 157  205.441
 158  401.9293
 159  328.1471
 160  249.0376
 161  29.8983
 162  106.5447
 163  223.2398
 164  348.7443
 165  352.0005
 166  376.9374
 167  269.6989
 168  272.17
 169  209.7015
 170  183.4494
 171  142.6227
 172  177.1981
 173  173.0933
 174  263.6165
 175  289.4475
 176  434.7908
 177  326.7002
 178  183.284
 179  27.51308
 180  243.1779
 181  356.0175
 182  388.9425
 183  270.2702
 184  307.6534
 185  326.3454
 186  278.3393
 187  207.3743
 188  276.8332
 189  273.631
 190  234.823
 191  179.0365
 192  185.6111
 193  208.8321
 194  178.2553
 195  240.374
 196  303.004
 197  269.1118
 198  199.1632
 199  155.7072
 200  257.2528
 201  280.8408
 202  221.8711
 203  130.2441
 204  64.90535
 205  -2.577768
 206  16.93302
 207  61.01342
 208  146.0063
 209  174.1502
 210  338.2784
 211  434.7181
 212  451.633
 213  371.8376
 214  236.4888
 215  138.197
 216  59.42241
 217  62.82093
 218  182.0363
 219  258.1191
 220  180.406
 221  139.8986
 222  175.9088
 223  164.9682
 224  200.2773
 225  161.929
 226  202.6844
 227  48.96105
 228  19.03591
 229  123.1883
 230  161.6411
 231  122.2256
 232  49.49831
 233  121.0472
 234  159.2828
 235  225.0573
 236  297.7205
 237  389.311
 238  308.9995
 239  307.0297
 240  237.063
 241  202.8479
 242  51.45827
 243  67.70203
 244  65.90416
 245  154.8209
 246  95.44479
 247  207.1785
 248  196.1825
 249  219.0687
 250  200.0633
 251  248.66
 252  206.2231
 253  120.0082
 254  246.0001
 255  327.2013
 256  376.7387
 257  263.348
 258  299.4368
 259  314.2652
 260  338.7705
 261  272.3791
 262  201.5402
 263  205.6931
 264  270.7004
 265  239.8076
 266  140.4619
 267  72.76535
 268  168.8435
 269  218.2178
 270  186.3165
 271  211.8265
 272  300.0502
 273  390.9136
 274  280.6013
 275  183.6516
 276  174.9259
 277  121.9945
 278  181.039
 279  138.0872
 280  193.4449
 281  227.3013
 282  275.0196
 283  284.3902
 284  173.5189
 285  189.0021
 286  206.3052
 287  183.7258
 288  81.4963
 289  41.52235
 290  137.1793
 291  82.95323
 292  28.88712
 293  -37.15229
 294  101.342
 295  104.0448
 296  72.03137
 297  -45.90453
 298  120.0254
 299  209.0838
 300  251.1422
 301  284.4017
 302  415.3701
 303  560.764
 304  446.5322
 305  288.9269
 306  181.054
 307  256.575
 308  302.312
 309  238.4475
 310  193.7894
 311  182.3703
 312  97.34078
 313  -13.05646
 314  51.05098
 315  110.8619
 316  186.0688
 317  162.5629
 318  289.2837
 319  271.2958
 320  203.7381
 321  194.0336
 322  322.7658
 323  346.6043
 324  412.9896
 325  252.2831
 326  235.6225
 327  100.0543
 328  133.5096
 329  64.24572
 330  125.7674
 331  263.7981
 332  351.322
 333  349.4114
 334  284.5031
 335  202.8004
 336  229.0011
 337  348.6879
 338  441.3608
 339  276.5934
 340  147.2137
 341  136.3436
 342  233.4349
 343  225.9574
 344  278.8018
 345  229.8378
 346  216.4738
 347  176.951
 348  326.1541
 349  307.8472
 350  196.9108
 351  124.9017
 352  94.39518
 353  145.276
 354  170.0351
 355  353.0708
 356  339.2053
 357  241.2217
 358  220.6206
 359  197.5105
 360  216.6065
 361  71.62086
 362  -61.65741
 363  -145.6096
 364  -116.6903
 365  -17.86229
 366  34.87973
 367  125.2094
 368  214.4594
 369  225.2298
 370  280.6511
 371  143.5922
 372  80.29607
 373  -65.5733
 374  -80.88528
 375  -40.12277
 376  153.7255
 377  213.1599
 378  170.2994
 379  67.00926
 380  131.3913
 381  143.8289
 382  140.4191
 383  191.6889
 384  156.6129
 385  23.98016
 386  -95.49447
 387  47.69287
 388  188.2696
 389  247.0011
 390  219.5028
 391  208.7449
 392  202.8111
 393  295.193
 394  438.6793
 395  385.5331
 396  247.1599
 397  200.4101
 398  260.3741
 399  164.2934
 400  90.90197
 401  112.4178
 402  179.2421
 403  148.342
 404  188.2058
 405  230.6457
 406  280.0577
 407  236.1884
 408  288.9858
 409  288.0689
 410  221.5385
 411  98.19345
 412  130.8262
 413  105.5838
 414  116.276
 415  29.71335
 416  82.74109
 417  154.0735
 418  249.8787
 419  264.2006
 420  130.2626
 421  85.85396
 422  104.5508
 423  112.6608
 424  61.25759
 425  88.29913
 426  251.1555
 427  290.5977
 428  300.4839
 429  312.5998
 430  152.1942
 431  98.22369
 432  95.11681
 433  152.4689
 434  153.8309
 435  163.4713
 436  191.8934
 437  87.93589
 438  69.91714
 439  55.15149
 440  -24.51685
 441  -92.90591
 442  -49.54736
 443  -45.74343
 444  -67.24496
 445  55.69873
 446  211.1409
 447  335.6349
 448  423.1738
 449  436.9829
 450  353.4974
 451  169.718
 452  82.32867
 453  141.4582
 454  95.95813
 455  191.747
 456  155.1681
 457  205.727
 458  176.7183
 459  120.7241
 460  226.699
 461  285.3998
 462  306.8951
 463  235.1801
 464  178.5902
 465  181.7335
 466  157.3117
 467  167.1119
 468  102.6066
 469  167.3597
 470  285.6013
 471  393.1246
 472  307.4019
 473  231.3641
 474  170.5503
 475  83.62212
 476  73.5167
 477  103.9873
 478  150.1472
 479  78.20744
 480  139.6085
 481  53.35917
 482  92.61394
 483  55.84804
 484  73.80533
 485  83.64777
 486  106.0216
 487  130.0774
 488  147.1646
 489  95.50472
 490  162.6958
 491  43.86722
 492  -45.19476
 493  -181.802
 494  -118.7538
 495  -13.11182
 496  122.8197
 497  199.1352
 498  192.5019
 499  185.2615
 500  161.4997
 501  121.9333
 502  66.04119
 503  -10.42041
 504  84.38016
 505  94.89808
 506  35.14649
 507  -116.9193
 508  -97.42384
 509  40.31475
 510  168.1208
 511  155.0484
 512  173.5676
 513  233.1542
 514  265.4934
 515  218.5836
 516  113.2551
 517  117.136
 518  128.5799
 519  117.9599
 520  22.44633
 521  128.2445
 522  227.027
 523  348.4389
 524  290.9591
 525  152.6795
 526  174.8762
 527  106.8547
 528  67.70235
 529  -1.492742
 530  107.5591
 531  131.804
 532  49.36798
 533  37.15178
 534  84.996
 535  144.5632
 536  137.3555
 537  241.2395
 538  195.6785
 539  61.36983
 540  3.130522
 541  67.43857
 542  233.4941
 543  178.5511
 544  121.6682
 545  90.30276
 546  130.4216
 547  143.9877
 548  104.3511
 549  119.5722
 550  99.17295
 551  93.52069
 552  75.18172
 553  86.10793
 554  168.2922
 555  218.8565
 556  275.7464
 557  366.6016
 558  374.7412
 559  260.5933
 560  58.05669
 561  74.25149
 562  153.9749
 563  217.0472
 564  102.4319
 565  108.402
 566  183.7807
 567  181.3929
 568  115.2238
 569  93.81849
 570  72.07304
 571  -2.534106
 572  -42.11763
 573  132.013
 574  207.0051
 575  170.3358
 576  220.5456
 577  278.522
 578  241.2981
 579  163.1577
 580  125.0855
 581  170.8838
 582  148.6389
 583  318.8053
 584  252.6851
 585  190.248
 586  32.48654
 587  59.60619
 588  77.26547
 589  162.906
 590  235.1116
 591  229.5551
 592  202.5627
 593  216.9008
 594  215.9613
 595  206.4422
 596  157.19
 597  217.7869
 598  257.5404
 599  271.3066
 600  178.3864
 601  137.6401
 602  232.9713
 603  353.4065
 604  353.9332
 605  259.8279
 606  63.28825
 607  6.690452
 608  14.56057
 609  91.35532
 610  207.8553
 611  219.4591
 612  247.2225
 613  177.6061
 614  248.8131
 615  228.4085
 616  296.7252
 617  293.4792
 618  318.7689
 619  201.2512
 620  257.7718
 621  269.8875
 622  350.6127
 623  287.2109
 624  369.5846
 625  372.9327
 626  370.1174
 627  384.1913
 628  341.5552
 629  357.7911
 630  379.7107
 631  510.1438
 632  633.7252
 633  672.7298
 634  801.8836
 635  862.7476
 636  873.5203
 637  875.86
 638  1018.673
 639  1124.518
 640  1023.641
 641  928.437
 642  843.6591
 643  810.3379
 644  726.2297
 645  557.4339
 646  449.3123
 647  291.095
 648  159.4469
 649  180.0639
 650  190.741
 651  279.7128
 652  104.6456
 653  99.31
 654  151.7063
 655  176.2342
 656  44.30857
 657  -17.8648
 658  147.9427
 659  309.1397
 660  376.0616
 661  394.3867
 662  404.9458
 663  608.3854
 664  634.8193
 665  473.5356
 666  268.6368
 667  262.3826
 668  437.7616
 669  414.7498
 670  400.0835
 671  344.6361
 672  332.5688
 673  272.2551
 674  182.9241
 675  154.792
 676  113.2028
 677  172.6771
 678  234.9953
 679  240.2982
 680  228.19
 681  224.338
 682  262.869
 683  289.5159
 684  235.3757
 685  222.1091
 686  99.4351
 687  168.8043
 688  216.5299
 689  262.3396
 690  131.3786
 691  49.22192
 692  133.8341
 693  226.8932
 694  364.6789
 695  305.476
 696  237.4292
 697  71.38898
 698  120.6433
 699  243.4945
 700  375.9236
 701  410.946
 702  406.8346
 703  428.0301
 704  341.5257
 705  290.1712
 706  135.0083
 707  8.740247
 708  -98.74461
 709  -6.894063
 710  66.9027
 711  41.36066
 712  95.60735
 713  234.0632
 714  222.6402
 715  204.3474
 716  78.79723
 717  150.1679
 718  132.0937
 719  248.9829
 720  116.028
 721  50.85923
 722  -25.40577
 723  26.88494
 724  161.9158
 725  168.7075
 726  204.9622
 727  45.84524
 728  86.734
 729  164.7121
 730  187.5373
 731  179.0099
 732  120.7279
 733  168.8204
 734  141.166
 735  164.6323
 736  214.2398
 737  171.3664
 738  134.8996
 739  68.66489
 740  96.54221
 741  -12.33283
 742  -68.18657
 743  -12.69889
 744  212.4132
 745  315.29
 746  283.7128
 747  221.0795
 748  255.64
 749  397.995
 750  361.354
 751  294.6048
 752  115.3834
 753  168.5251
 754  209.5168
 755  237.9362
 756  140.2398
 757  58.08068
 758  148.625
 759  187.8271
 760  290.8036
 761  194.9781
 762  141.1729
 763  25.70732
 764  57.34718
 765  136.4708
 766  196.2536
 767  223.2425
 768  219.0178
 769  237.6132
 770  198.1259
 771  198.8105
 772  217.8367
 773  198.2359
 774  176.4174
 775  213.4302
 776  351.5208
 777  334.8595
 778  302.7733
 779  295.1343
 780  381.5712
 781  329.0602
 782  231.9138
 783  142.7856
 784  221.0273
 785  321.7378
 786  279.1696
 787  228.0074
 788  240.4369
 789  188.4568
 790  163.2823
 791  120.1427
 792  233.346
 793  230.6261
 794  160.8627
 795  101.7578
 796  -13.08727
 797  -6.346896
 798  36.81906
 799  182.5572
 800  199.6097
 801  219.732
 802  161.0117
 803  105.7882
 804  14.30376
 805  30.424
 806  41.9844
 807  12.53838
 808  38.46954
 809  121.7957
 810  185.6443
 811  72.55592
 812  40.32117
 813  29.63941
 814  83.11627
 815  81.04472
 816  215.4882
 817  240.3904
 818  263.6741
 819  170.9713
 820  150.9936
 821  131.8369
 822  136.8935
 823  172.4159
 824  148.1115
 825  172.3021
 826  34.92449
 827  90.32027
 828  57.17152
 829  139.0778
 830  154.7196
 831  162.0905
 832  129.3078
 833  25.76286
 834  119.8119
 835  204.4267
 836  195.0721
 837  142.1758
 838  93.79443
 839  70.02916
 840  45.21051
 841  81.21999
 842  87.06479
 843  105.414
 844  95.76064
 845  77.29961
 846  6.613867
 847  186.507
 848  247.6366
 849  262.4551
 850  228.6196
 851  216.9555
 852  232.1762
 853  167.4189
 854  274.5269
 855  352.1533
 856  388.6556
 857  335.4369
 858  193.5246
 859  103.3532
 860  8.742494
 861  109.902
 862  175.911
 863  272.9893
 864  275.0916
 865  300.3649
 866  320.5385
 867  389.9734
 868  559.4107
 869  483.9754
 870  348.0633
 871  117.9285
 872  55.04044
 873  64.57368
 874  82.56132
 875  212.1363
 876  196.6031
 877  192.7523
 878  126.5504
 879  95.42745
 880  140.6581
 881  177.4823
 882  160.8935
 883  150.5579
 884  223.7961
 885  273.1371
 886  221.3409
 887  236.4251
 888  245.0935
 889  166.1888
 890  103.7201
 891  79.94131
 892  184.3839
 893  247.1018
 894  311.1338
 895  322.7506
 896  232.2331
 897  129.8267
 898  70.03075
 899  94.16512
 900  82.80905
 901  -28.84723
 902  -62.90371
 903  25.97042
 904  119.6767
 905  232.2015
 906  272.4463
 907  303.1395
 908  145.4849
 909  150.1182
 910  148.3464
 911  339.9243
 912  412.7308
 913  364.7563
 914  236.015
 915  222.9372
 916  202.5078
 917  157.5603
 918  168.148
 919  300.0238
 920  402.5644
 921  315.2199
 922  129.2281
 923  -26.04672
 924  -35.9651
 925  80.52789
 926  180.5815
 927  191.8235
 928  107.5445
 929  120.6474
 930  263.7148
 931  321.419
 932  298.5221
 933  170.3394
 934  163.3546
 935  227.6565
 936  228.0514
 937  237.6196
 938  209.5402
 939  286.9427
 940  287.5881
 941  219.8002
 942  213.1391
 943  273.094
 944  261.4732
 945  199.331
 946  222.6289
 947  271.4265
 948  269.2753
 949  198.766
 950  202.7964
 951  210.1821
 952  272.6514
 953  231.9111
 954  219.5018
 955  177.5466
 956  289.1549
 957  311.767
 958  330.2115
 959  202.5029
 960  114.8889
 961  90.5214
 962  197.4601
 963  218.5702
 964  350.7754
 965  361.3464
 966  401.6166
 967  369.6535
 968  232.6468
 969  -6.189674
 970  -71.59793
 971  9.318564
 972  91.74536
 973  146.9588
 974  106.7113
 975  99.93413
 976  44.041
 977  176.7157
 978  238.4341
 979  143.3398
 980  47.45272
 981  75.68167
 982  185.2739
 983  169.1796
 984  164.7227
 985  199.7635
 986  240.2762
 987  220.5808
 988  190.1141
 989  79.1517
 990  100.7967
 991  114.0457
 992  165.7989
 993  192.4545
 994  249.3405
 995  350.3938
 996  325.7665
 997  255.0322
 998  238.1715
 999  210.318
1000  248.2857
1001  151.3583
1002  141.9097
1003  221.687
1004  279.9412
1005  263.7985
1006  200.0069
1007  30.77196
1008  -24.92743
1009  12.84177
1010  167.0873
1011  240.8386
1012  142.4029
1013  88.87107
1014  156.4077
1015  336.6008
1016  476.5113
1017  435.3603
1018  321.1335
1019  185.8165
1020  187.2814
1021  168.9643
1022  159.1596
1023  159.6234
