# Input file       =  1190920557.109346_cleaned.dat
# Candidate        =  PSR_0332+5434
# Telescope        =  AR
# Epoch_topo       =  58027.802964228540
# Epoch_bary       =  N/A
# T_sample         =  0.002
# Data Folded      =  7143424
# Data Avg         =  0.127487291584065
# Data StdDev      =  3.59678310428912 
# Profile Bins     =  1024
# Profile Avg      =  889.313565209452 
# Profile StdDev   =  300.412144438794 
# Reduced chi-sqr  =  0.711
# Prob(Noise)      <  1   (~0.0 sigma)
# P_topo (ms)      =  714.473035496353  +/- 0.000497
# P'_topo (s/s)    =  -0                +/- 2.7e-10
# P''_topo (s/s^2) =  0                 +/- 1.22e-13
# P_bary (ms)      =  N/A
# P'_bary (s/s)    =  N/A
# P''_bary (s/s^2) =  N/A
# P_orb (s)        =  N/A
# asin(i)/c (s)    =  N/A
# eccentricity     =  N/A
# w (rad)          =  N/A
# T_peri           =  N/A
######################################################
   0  833.8505
   1  845.0456
   2  906.2661
   3  776.6887
   4  752.694
   5  816.1736
   6  900.3302
   7  926.6978
   8  966.2011
   9  958.4749
  10  908.8963
  11  834.8195
  12  849.963
  13  747.6127
  14  718.7267
  15  684.5723
  16  813.5726
  17  831.1767
  18  901.3426
  19  962.9452
  20  918.2909
  21  779.5714
  22  837.0188
  23  823.1806
  24  852.4629
  25  728.2192
  26  841.2004
  27  809.0013
  28  829.7989
  29  791.0193
  30  807.576
  31  746.4888
  32  661.5893
  33  790.5211
  34  895.8548
  35  879.5271
  36  704.4966
  37  713.3871
  38  788.3251
  39  828.2915
  40  706.4584
  41  719.6993
  42  797.1448
  43  910.6348
  44  1050.163
  45  1017.121
  46  924.6389
  47  901.9998
  48  911.7056
  49  991.6686
  50  953.2947
  51  910.5459
  52  803.2781
  53  748.1833
  54  695.3905
  55  731.3713
  56  705.3535
  57  766.9154
  58  874.7381
  59  966.7432
  60  935.8237
  61  844.352
  62  875.2465
  63  939.2667
  64  887.0872
  65  803.4033
  66  736.1236
  67  865.199
  68  986.2079
  69  918.8729
  70  790.5671
  71  779.6804
  72  943.2927
  73  1020.557
  74  982.7388
  75  940.4545
  76  936.6677
  77  912.0715
  78  962.279
  79  815.4791
  80  795.5569
  81  762.7031
  82  745.9476
  83  776.805
  84  798.0293
  85  855.1448
  86  1105.092
  87  1194.31
  88  1233.906
  89  1098.327
  90  1078.172
  91  893.1144
  92  792.1713
  93  768.5228
  94  833.4547
  95  791.2917
  96  695.2231
  97  749.9222
  98  707.9973
  99  807.4203
 100  879.5135
 101  1116.475
 102  1148.548
 103  1039.79
 104  908.5496
 105  872.5512
 106  974.1069
 107  923.3162
 108  919.5173
 109  922.3969
 110  952.8312
 111  948.8449
 112  1029.915
 113  979.249
 114  959.8801
 115  886.824
 116  894.2521
 117  956.6777
 118  1011.09
 119  1110.095
 120  1048.754
 121  1047.112
 122  983.5317
 123  848.404
 124  943.0078
 125  1000.661
 126  1132.47
 127  1053.535
 128  980.1373
 129  819.9285
 130  692.4377
 131  689.0004
 132  838.3311
 133  951.8452
 134  879.2837
 135  835.4415
 136  827.0178
 137  856.4131
 138  913.7639
 139  857.1246
 140  1023.543
 141  969.8361
 142  1096.784
 143  1050.568
 144  899.8941
 145  863.5318
 146  904.7434
 147  972.7414
 148  901.1754
 149  921.773
 150  918.8543
 151  882.6082
 152  724.3229
 153  675.6522
 154  750.8268
 155  808.5344
 156  821.75
 157  773.8196
 158  790.7403
 159  841.1246
 160  800.8522
 161  790.8103
 162  841.2374
 163  849.1576
 164  778.0461
 165  660.7785
 166  696.3887
 167  791.4467
 168  909.675
 169  933.6736
 170  886.3578
 171  868.0238
 172  923.5014
 173  898.8163
 174  932.8148
 175  754.9608
 176  659.519
 177  695.7719
 178  793.4607
 179  898.3116
 180  892.879
 181  887.4779
 182  764.0524
 183  841.6605
 184  990.0677
 185  962.3333
 186  886.3472
 187  848.5962
 188  904.5
 189  803.7222
 190  839.4322
 191  912.45
 192  934.8162
 193  898.4224
 194  757.3075
 195  679.192
 196  690.8797
 197  812.1466
 198  848.054
 199  936.826
 200  1020.464
 201  1073.812
 202  1074.718
 203  1038.616
 204  921.9208
 205  961.2651
 206  805.3712
 207  867.1721
 208  868.8167
 209  871.0186
 210  856.2063
 211  912.7382
 212  996.3829
 213  1001.784
 214  921.1364
 215  984.2582
 216  917.6137
 217  954.8961
 218  918.5865
 219  959.5867
 220  924.7788
 221  948.8552
 222  844.9923
 223  809.6116
 224  860.8737
 225  853.5317
 226  901.4363
 227  937.1929
 228  963.4859
 229  977.2832
 230  868.2207
 231  921.4808
 232  931.659
 233  1020.801
 234  978.1981
 235  738.4243
 236  646.1767
 237  695.16
 238  792.1495
 239  811.4217
 240  773.3429
 241  809.7484
 242  942.4146
 243  925.7202
 244  938.6658
 245  869.5896
 246  853.4026
 247  883.789
 248  882.3857
 249  1036.731
 250  1023.557
 251  998.2261
 252  907.1343
 253  772.1093
 254  733.9716
 255  738.4896
 256  900.2177
 257  1035.495
 258  1022.299
 259  900.2176
 260  869.632
 261  875.7209
 262  941.3427
 263  888.6686
 264  990.3927
 265  1084.269
 266  1139.031
 267  1122.525
 268  1005.626
 269  1012.899
 270  1060.531
 271  1105.376
 272  1065.758
 273  922.7083
 274  771.5682
 275  789.7836
 276  865.9234
 277  1012.941
 278  1035.364
 279  1000.132
 280  888.513
 281  789.9768
 282  710.7891
 283  775.6045
 284  865.9814
 285  889.801
 286  904.7819
 287  897.3953
 288  924.869
 289  833.0566
 290  693.7555
 291  672.4503
 292  864.0661
 293  1043.774
 294  1077.695
 295  988.4457
 296  1075.857
 297  1065.961
 298  964.3023
 299  861.9202
 300  806.9626
 301  817.5405
 302  833.0875
 303  781.5729
 304  875.1607
 305  780.8187
 306  992.9045
 307  966.16
 308  960.2986
 309  839.1167
 310  860.8099
 311  851.7659
 312  742.5552
 313  835.1821
 314  945.4113
 315  927.4198
 316  779.0265
 317  884.2124
 318  986.8074
 319  1005.125
 320  864.8029
 321  862.0587
 322  904.6133
 323  915.1071
 324  1050.702
 325  923.9626
 326  769.2999
 327  521.2288
 328  630.4659
 329  728.8904
 330  770.595
 331  785.3183
 332  940.7291
 333  1063.781
 334  1079.595
 335  970.5147
 336  800.604
 337  684.4127
 338  751.2772
 339  822.9965
 340  858.7569
 341  851.4944
 342  958.8136
 343  952.3848
 344  913.2854
 345  872.6572
 346  861.7429
 347  891.7164
 348  932.0989
 349  915.0083
 350  949.7633
 351  971.0247
 352  937.9508
 353  843.3738
 354  823.5103
 355  821.9779
 356  889.652
 357  891.9207
 358  1055.474
 359  989.5141
 360  1013.091
 361  913.7339
 362  919.3646
 363  1035.341
 364  1016.423
 365  913.402
 366  850.2854
 367  973.3856
 368  1044.496
 369  985.8425
 370  738.6896
 371  645.0425
 372  552.0994
 373  655.7126
 374  721.676
 375  742.5035
 376  758.1285
 377  782.6919
 378  809.7554
 379  959.7889
 380  1066.536
 381  1075.776
 382  1101.475
 383  1045.668
 384  991.403
 385  891.4308
 386  751.7885
 387  779.1534
 388  754.6772
 389  853.3542
 390  834.8333
 391  866.3892
 392  917.1121
 393  978.2018
 394  980.4759
 395  1044.905
 396  1065.871
 397  924.9229
 398  827.1877
 399  849.7687
 400  999.6804
 401  914.9821
 402  990.3999
 403  911.5914
 404  936.6359
 405  829.2433
 406  862.8591
 407  910.121
 408  959.1879
 409  957.9837
 410  948.6599
 411  846.9034
 412  786.8394
 413  730.3846
 414  765.1761
 415  778.018
 416  779.7601
 417  788.4359
 418  858.6788
 419  934.6985
 420  993.4357
 421  993.1311
 422  962.6323
 423  1039.017
 424  899.1422
 425  734.4673
 426  767.8832
 427  877.5319
 428  898.5913
 429  850.7144
 430  878.7402
 431  919.1683
 432  824.123
 433  923.1208
 434  1056.134
 435  1158.267
 436  1088.87
 437  1024.766
 438  966.2595
 439  870.3983
 440  838.6868
 441  1042.637
 442  1093.926
 443  992.5735
 444  825.3642
 445  756.7892
 446  857.0718
 447  899.3954
 448  922.1409
 449  984.3355
 450  1093.7
 451  1051.977
 452  887.8228
 453  787.8779
 454  881.7411
 455  930.6525
 456  884.8598
 457  814.4529
 458  802.3633
 459  773.9684
 460  829.0053
 461  840.6505
 462  915.6409
 463  885.1185
 464  1020.221
 465  1116.126
 466  1097.302
 467  903.7487
 468  768.5667
 469  869.8054
 470  913.3739
 471  904.0259
 472  978.9818
 473  948.7521
 474  1047.057
 475  1024.745
 476  953.4268
 477  971.384
 478  924.7281
 479  882.7032
 480  666.3777
 481  770.7783
 482  815.1886
 483  802.4418
 484  741.5834
 485  813.1244
 486  756.2632
 487  879.9434
 488  892.9296
 489  908.4225
 490  854.6056
 491  928.6435
 492  1038.714
 493  975.1119
 494  943.0204
 495  992.9541
 496  1053.687
 497  1066.458
 498  1115.333
 499  1161.796
 500  1085.344
 501  1067.809
 502  945.0753
 503  785.5487
 504  686.795
 505  703.6606
 506  855.6071
 507  679.7799
 508  753.8073
 509  776.8448
 510  829.2346
 511  810.1775
 512  850.2953
 513  882.8867
 514  913.3154
 515  882.4965
 516  795.2701
 517  592.7478
 518  545.4249
 519  787.0881
 520  914.6056
 521  936.8737
 522  804.5576
 523  652.7481
 524  676.5004
 525  831.2217
 526  951.3849
 527  957.1688
 528  1000.088
 529  1082.45
 530  1103.64
 531  901.5462
 532  835.9683
 533  769.9843
 534  817.1972
 535  795.8453
 536  822.0928
 537  811.36
 538  717.6403
 539  693.364
 540  815.6984
 541  848.6572
 542  923.2773
 543  973.0511
 544  1002.03
 545  944.7615
 546  1018.585
 547  1119.052
 548  1159.662
 549  1079.357
 550  1079.914
 551  1044.358
 552  1061.682
 553  872.9503
 554  729.766
 555  636.133
 556  732.3319
 557  741.037
 558  736.5895
 559  773.9478
 560  915.1544
 561  1017.37
 562  1093.681
 563  1152.999
 564  1125.247
 565  1065.458
 566  876.1852
 567  766.0247
 568  790.7434
 569  747.1547
 570  736.18
 571  608.4503
 572  662.1165
 573  737.1666
 574  811.8063
 575  816.6806
 576  858.2662
 577  915.8072
 578  961.6599
 579  980.5077
 580  989.4689
 581  1049.216
 582  1027.446
 583  988.5375
 584  863.6326
 585  729.5222
 586  686.8071
 587  755.5316
 588  819.8772
 589  850.4027
 590  752.5848
 591  650.7822
 592  698.019
 593  852.6192
 594  983.067
 595  967.3203
 596  995.1144
 597  1079.83
 598  1064.009
 599  912.7336
 600  759.8132
 601  867.0989
 602  962.0964
 603  886.2485
 604  778.2699
 605  831.2896
 606  833.746
 607  854.1183
 608  867.3644
 609  946.0226
 610  872.9837
 611  740.6249
 612  718.2501
 613  663.5723
 614  812.3971
 615  931.0492
 616  1079.42
 617  1045.658
 618  1006.188
 619  970.1776
 620  1045.773
 621  1043.089
 622  915.728
 623  875.3024
 624  984.0136
 625  1113.753
 626  1073.031
 627  985.5948
 628  966.6171
 629  992.502
 630  1010.584
 631  1091.877
 632  1184.41
 633  1289.09
 634  1205.719
 635  1279.258
 636  1453.261
 637  1645.035
 638  1682.786
 639  1764.773
 640  1732.661
 641  1812.056
 642  1692.66
 643  1669.095
 644  1450.721
 645  1227.223
 646  1100.477
 647  958.2689
 648  849.1542
 649  777.6033
 650  782.2811
 651  791.5995
 652  811.2101
 653  898.8499
 654  915.744
 655  912.0651
 656  838.0155
 657  827.7443
 658  864.3254
 659  886.6114
 660  935.4019
 661  949.2424
 662  1088.453
 663  1073.45
 664  1082.891
 665  1000.776
 666  979.6286
 667  1004.605
 668  937.9979
 669  916.3581
 670  943.3973
 671  1055.283
 672  1054.923
 673  951.9531
 674  1006.532
 675  1107.487
 676  1122.366
 677  1072.742
 678  973.6765
 679  909.8122
 680  910.0211
 681  900.4185
 682  888.2397
 683  912.6443
 684  969.6216
 685  944.574
 686  854.5494
 687  752.7011
 688  697.0145
 689  747.8834
 690  856.1321
 691  950.1588
 692  998.9721
 693  1104.231
 694  1051.23
 695  1019.724
 696  1017.138
 697  1050.184
 698  1006.206
 699  998.074
 700  980.7073
 701  923.9995
 702  689.1859
 703  733.1527
 704  855.2751
 705  1053.02
 706  1062.964
 707  1040.602
 708  952.4047
 709  740.6456
 710  727.0215
 711  890.7312
 712  978.1089
 713  941.8183
 714  954.2173
 715  879.3785
 716  812.4418
 717  797.8398
 718  833.6938
 719  819.2031
 720  791.3131
 721  784.0767
 722  830.9881
 723  789.2621
 724  925.929
 725  924.649
 726  949.4634
 727  968.3224
 728  912.9366
 729  901.8422
 730  949.326
 731  982.7822
 732  999.7307
 733  839.6069
 734  925.2524
 735  885.1274
 736  947.5988
 737  818.684
 738  841.1623
 739  939.5011
 740  1029.669
 741  998.1197
 742  961.6388
 743  937.0921
 744  794.2426
 745  800.1669
 746  698.7078
 747  875.1754
 748  813.371
 749  830.8434
 750  791.6963
 751  816.803
 752  825.0758
 753  839.1921
 754  952.3421
 755  932.283
 756  841.9058
 757  721.5177
 758  766.0201
 759  806.5837
 760  833.4695
 761  817.4187
 762  874.9613
 763  892.3976
 764  898.7039
 765  851.0796
 766  865.3902
 767  862.6902
 768  850.6224
 769  830.1451
 770  909.2924
 771  857.4484
 772  770.7072
 773  628.6187
 774  512.6309
 775  617.6043
 776  855.3781
 777  1043.581
 778  1154.764
 779  1136.665
 780  1186.412
 781  1045.668
 782  985.4338
 783  916.6619
 784  973.3914
 785  858.9878
 786  847.2703
 787  771.6185
 788  822.1465
 789  723.472
 790  725.6163
 791  725.9767
 792  797.6226
 793  814.3103
 794  857.3349
 795  802.0723
 796  905.5539
 797  942.2148
 798  893.5394
 799  806.0764
 800  732.2578
 801  761.6294
 802  714.7552
 803  707.3972
 804  734.4924
 805  669.8495
 806  651.8253
 807  724.7557
 808  772.3419
 809  890.5719
 810  881.0472
 811  1011.38
 812  987.4614
 813  1054.993
 814  1014.122
 815  908.2932
 816  771.2472
 817  726.137
 818  697.1921
 819  658.3565
 820  623.3828
 821  606.2411
 822  607.4953
 823  656.8666
 824  775.9456
 825  952.707
 826  1027.828
 827  960.2224
 828  933.6797
 829  1008.542
 830  1018.338
 831  897.415
 832  850.6366
 833  743.5517
 834  728.7325
 835  735.9205
 836  800.5751
 837  910.6567
 838  959.1016
 839  878.3277
 840  840.6221
 841  940.7868
 842  967.37
 843  833.9697
 844  880.4487
 845  907.3885
 846  841.8419
 847  716.9283
 848  814.3904
 849  785.4709
 850  787.4514
 851  838.4972
 852  890.3001
 853  953.6315
 854  758.6636
 855  739.1219
 856  680.2169
 857  731.1111
 858  718.4617
 859  761.6728
 860  799.2339
 861  876.6681
 862  928.8793
 863  941.0807
 864  872.469
 865  737.8806
 866  789.9626
 867  679.4978
 868  770.2953
 869  785.3101
 870  803.0807
 871  717.6946
 872  776.4128
 873  811.6324
 874  863.8019
 875  840.4784
 876  947.4584
 877  923.8934
 878  908.6263
 879  918.1278
 880  851.3762
 881  710.0475
 882  818.3113
 883  902.3529
 884  1091.086
 885  1128.899
 886  1077.435
 887  964.2182
 888  840.6635
 889  788.7663
 890  715.0872
 891  606.1092
 892  718.9598
 893  901.1465
 894  950.478
 895  1002.172
 896  929.1545
 897  968.9536
 898  866.3698
 899  867.5715
 900  853.5502
 901  761.0987
 902  710.7994
 903  699.7115
 904  711.6931
 905  767.0377
 906  823.9031
 907  760.5124
 908  675.9108
 909  668.8199
 910  807.8759
 911  806.3505
 912  690.9333
 913  813.4467
 914  856.1284
 915  992.4948
 916  868.1911
 917  839.2136
 918  841.1666
 919  867.6972
 920  883.1761
 921  944.7644
 922  936.8071
 923  940.2497
 924  751.5261
 925  762.71
 926  769.7817
 927  808.1439
 928  883.2617
 929  809.1011
 930  877.5105
 931  777.8484
 932  759.9715
 933  817.7336
 934  973.6056
 935  967.2159
 936  875.3098
 937  830.4116
 938  943.4305
 939  983.5277
 940  928.0274
 941  870.732
 942  767.8103
 943  740.795
 944  891.7154
 945  906.6168
 946  918.799
 947  861.75
 948  841.7769
 949  726.1891
 950  755.8386
 951  667.8209
 952  664.5862
 953  712.2336
 954  849.1588
 955  844.0715
 956  809.2378
 957  923.7332
 958  1026.156
 959  993.777
 960  945.9855
 961  836.3885
 962  880.6636
 963  984.3624
 964  1042.035
 965  1084.101
 966  908.3589
 967  799.0778
 968  706.3102
 969  686.5433
 970  636.5452
 971  687.2789
 972  821.3112
 973  911.871
 974  892.4133
 975  900.9693
 976  860.7438
 977  844.6625
 978  948.6331
 979  998.231
 980  966.7137
 981  888.2087
 982  893.9313
 983  1005.648
 984  1159.577
 985  1160.864
 986  1042.102
 987  943.2858
 988  917.8502
 989  870.3653
 990  744.7829
 991  703.4147
 992  837.1922
 993  939.8141
 994  861.3126
 995  675.2947
 996  774.2188
 997  843.7525
 998  839.9783
 999  825.2529
1000  897.8648
1001  1040.679
1002  1007.639
1003  1109.884
1004  1147.966
1005  1056.01
1006  904.6581
1007  743.6245
1008  762.2626
1009  755.8401
1010  666.1833
1011  614.2141
1012  753.7457
1013  933.4005
1014  1014.503
1015  926.0296
1016  975.808
1017  1000.03
1018  977.6698
1019  915.6466
1020  727.1348
1021  747.4753
1022  765.13
1023  779.9536
