# Input file       =  1190748188.106715_cleaned.dat
# Candidate        =  PSR_0332+5434
# Telescope        =  AR
# Epoch_topo       =  58025.807952624018
# Epoch_bary       =  N/A
# T_sample         =  0.002
# Data Folded      =  7208960
# Data Avg         =  0.157158996139399
# Data StdDev      =  3.73444658485272 
# Profile Bins     =  1024
# Profile Avg      =  1106.36573486243 
# Profile StdDev   =  313.337649696987 
# Reduced chi-sqr  =  0.650
# Prob(Noise)      <  1   (~0.0 sigma)
# P_topo (ms)      =  714.471955218984  +/- 0.000251
# P'_topo (s/s)    =  -0                +/- 1.35e-10
# P''_topo (s/s^2) =  0                 +/- 6.06e-14
# P_bary (ms)      =  N/A
# P'_bary (s/s)    =  N/A
# P''_bary (s/s^2) =  N/A
# P_orb (s)        =  N/A
# asin(i)/c (s)    =  N/A
# eccentricity     =  N/A
# w (rad)          =  N/A
# T_peri           =  N/A
######################################################
   0  950.4827
   1  952.8496
   2  1014.197
   3  1040.037
   4  1001.033
   5  1018.068
   6  1093.706
   7  1055.526
   8  966.0817
   9  919.3066
  10  1062.356
  11  1178.23
  12  1157.624
  13  1293.393
  14  1380.605
  15  1465.61
  16  1421.657
  17  1278.01
  18  1177.723
  19  981.0158
  20  970.2504
  21  997.5298
  22  1010.843
  23  1122.312
  24  1162.114
  25  1211.813
  26  1263.707
  27  1260.441
  28  1124.642
  29  905.8638
  30  826.0012
  31  950.5343
  32  1170.614
  33  1224.4
  34  1145.821
  35  1020.461
  36  997.1416
  37  1031.333
  38  1043.509
  39  1082.56
  40  1064.985
  41  1086.906
  42  1050.175
  43  1050.263
  44  1149.157
  45  1121.951
  46  1009.785
  47  1013.795
  48  1108.106
  49  1163.802
  50  1034.787
  51  1185.616
  52  1289.739
  53  1239.724
  54  1135.12
  55  1162.765
  56  1141.238
  57  1012.113
  58  861.0423
  59  908.7549
  60  1061.432
  61  1172.69
  62  1214.269
  63  1120.061
  64  1029.392
  65  920.7593
  66  956.8498
  67  920.7626
  68  973.1646
  69  1033.545
  70  1128.29
  71  1006.78
  72  1053.148
  73  1087.247
  74  1141.472
  75  1127.304
  76  1135.718
  77  1159.422
  78  1118.225
  79  1053.162
  80  1014.372
  81  1040.619
  82  1044.558
  83  1098.252
  84  1102.956
  85  1113.892
  86  1087.665
  87  1015.368
  88  1065.303
  89  1097.711
  90  1080.109
  91  1141.731
  92  1007.824
  93  1057.623
  94  1007.867
  95  979.4019
  96  981.6001
  97  1109.661
  98  1274.911
  99  1263.743
 100  1028.924
 101  931.2831
 102  870.7403
 103  1022.728
 104  1131.823
 105  1240.287
 106  1297.039
 107  1251.737
 108  1223.088
 109  1207.794
 110  1242.524
 111  1238.323
 112  1249.908
 113  1329.487
 114  1237.315
 115  1081.711
 116  1023.05
 117  1036.39
 118  1008.636
 119  1043.59
 120  1111.016
 121  1172.609
 122  1137.936
 123  1095.933
 124  1123.19
 125  1078.358
 126  953.6713
 127  930.242
 128  987.6198
 129  1004.992
 130  945.2408
 131  948.8242
 132  967.8168
 133  964.8311
 134  1152.152
 135  1121.057
 136  943.4736
 137  864.3301
 138  984.5245
 139  1081.745
 140  1129.351
 141  1256.728
 142  1379.812
 143  1371.345
 144  1235.829
 145  1252.235
 146  1172.505
 147  1179.237
 148  1145.009
 149  1055.91
 150  1144.798
 151  1039.472
 152  1021.536
 153  1072.66
 154  1019.075
 155  1064.091
 156  1030.814
 157  1045.89
 158  1065.06
 159  1008.315
 160  982.0779
 161  971.0338
 162  981.9754
 163  1050.412
 164  1044.134
 165  1073.976
 166  1103.41
 167  1102.263
 168  1116.978
 169  1055.602
 170  1043.613
 171  1145.887
 172  1238.406
 173  1099.544
 174  980.0778
 175  1032.252
 176  1201.368
 177  1307.383
 178  1296.71
 179  1367.9
 180  1420.522
 181  1332.499
 182  1304.722
 183  1120.381
 184  1205.443
 185  1188.666
 186  1228.811
 187  1109.915
 188  1042.741
 189  1100.184
 190  1177.108
 191  1057.888
 192  1052.839
 193  1081.305
 194  1144.91
 195  1122.71
 196  1111.117
 197  1093.022
 198  980.8771
 199  1145.251
 200  1153.675
 201  1160.42
 202  1102.706
 203  1245.2
 204  1243.58
 205  1224.571
 206  1215.005
 207  1278.917
 208  1259.809
 209  1288.978
 210  1261.885
 211  1121.711
 212  1148.368
 213  1159.565
 214  1168.059
 215  1003.5
 216  941.961
 217  1046.114
 218  1078.899
 219  1061.162
 220  1110.317
 221  1176.869
 222  1269.608
 223  1209.454
 224  1290.001
 225  1264.487
 226  1308.473
 227  1240.318
 228  1235.677
 229  1161.174
 230  1035.803
 231  1077.786
 232  1118.245
 233  1153.892
 234  1172.629
 235  1047.87
 236  1152.939
 237  1196.976
 238  1186.462
 239  1133.296
 240  1020.818
 241  1053.67
 242  956.2408
 243  964.6993
 244  917.5917
 245  808.1887
 246  869.5485
 247  989.8755
 248  1069.231
 249  1109.132
 250  1027.83
 251  1079.042
 252  1071.359
 253  998.6063
 254  1065.39
 255  1135.818
 256  1139.978
 257  1026.02
 258  888.5938
 259  922.1428
 260  883.0063
 261  981.4418
 262  1024.067
 263  1005.88
 264  1015.681
 265  975.9833
 266  909.8156
 267  949.3234
 268  973.2963
 269  952.9533
 270  919.7625
 271  1108.003
 272  1247.081
 273  1225.283
 274  1235.145
 275  1180.87
 276  1049.16
 277  983.7184
 278  992.5684
 279  1047.095
 280  958.0531
 281  949.758
 282  942.0577
 283  907.0814
 284  1007.936
 285  1160.332
 286  1235.453
 287  1106.302
 288  1090.427
 289  1131.162
 290  1177.912
 291  1089.34
 292  1059.217
 293  955.9695
 294  970.8687
 295  1019.101
 296  1163.102
 297  1084.368
 298  991.645
 299  938.2935
 300  869.8474
 301  939.8854
 302  964.4477
 303  1051.277
 304  1018.986
 305  1071.03
 306  1047.935
 307  889.6107
 308  953.7642
 309  1108
 310  1224.052
 311  1236.98
 312  1174.092
 313  1122.046
 314  995.5544
 315  964.6838
 316  958.2954
 317  1042.115
 318  976.3871
 319  1056.465
 320  1072.7
 321  1153.317
 322  1016.808
 323  1001.504
 324  1077.066
 325  1072.113
 326  1003.277
 327  1053.227
 328  1148.145
 329  999.4938
 330  920.0104
 331  925.0231
 332  1114.371
 333  1245.658
 334  1159.398
 335  1062.697
 336  924.7837
 337  1011.246
 338  1105.046
 339  1252.206
 340  1236.432
 341  1091.141
 342  1062.327
 343  1179.968
 344  1236.063
 345  1322.935
 346  1214.174
 347  1159.639
 348  1053.875
 349  1106.689
 350  1188.681
 351  1100.85
 352  1059.46
 353  1049.302
 354  1048.441
 355  1223.986
 356  1212.88
 357  1153.893
 358  1068.17
 359  977.6542
 360  1025.4
 361  1020.016
 362  1102.173
 363  1171.104
 364  1147.651
 365  1166.856
 366  1049.226
 367  981.2349
 368  857.7953
 369  844.0842
 370  943.8442
 371  1048.733
 372  1040.785
 373  1269.662
 374  1358.68
 375  1331.209
 376  1180.401
 377  1141.983
 378  1069.083
 379  899.6504
 380  946.828
 381  1168.069
 382  1256.232
 383  1207.151
 384  1104.003
 385  1107.95
 386  1104.782
 387  1173.871
 388  1120.443
 389  1078.509
 390  1047.063
 391  1001.347
 392  1034.492
 393  835.1912
 394  840.4727
 395  778.1019
 396  869.3629
 397  964.4563
 398  1090.512
 399  1050.184
 400  1142.117
 401  1207.585
 402  1244.54
 403  1117.117
 404  1010.131
 405  1075.206
 406  985.4105
 407  1011.507
 408  896.6913
 409  995.4617
 410  1028.643
 411  1080.25
 412  1031.322
 413  965.538
 414  908.5484
 415  902.2655
 416  925.0408
 417  1036.983
 418  1012.016
 419  1203.034
 420  1364.936
 421  1408.266
 422  1261.004
 423  1219.738
 424  1207.087
 425  1199.608
 426  1018.538
 427  1030.381
 428  968.0847
 429  1078.772
 430  1017.386
 431  1153.479
 432  1134.821
 433  1112.207
 434  1051.16
 435  1206.104
 436  1245.862
 437  1108.794
 438  932.5808
 439  941.1139
 440  957.9411
 441  1012.291
 442  1064.955
 443  1118.313
 444  1102.775
 445  1073.195
 446  1131.177
 447  1051.499
 448  1082.813
 449  1017.067
 450  996.7867
 451  1093.533
 452  1183.139
 453  1246.999
 454  1198.188
 455  1080.52
 456  1017.913
 457  1050.385
 458  1052.278
 459  1106.972
 460  1069.674
 461  1118.209
 462  1069.974
 463  979.4631
 464  939.2265
 465  849.0029
 466  1081.181
 467  1222.635
 468  1245.618
 469  1135.388
 470  1049.357
 471  992.3864
 472  1022.248
 473  1153.706
 474  1265.916
 475  1194.244
 476  1196.034
 477  1119.219
 478  1078.194
 479  1174.4
 480  1266.805
 481  1320.761
 482  1148.233
 483  1217.246
 484  1189.885
 485  1227.201
 486  1139.561
 487  1180.991
 488  1253.306
 489  1120.239
 490  1118.87
 491  1036.212
 492  1139.407
 493  1069.574
 494  1038.342
 495  970.6873
 496  978.5617
 497  1104.776
 498  1233.419
 499  1232.01
 500  1180.589
 501  1184.515
 502  1171.596
 503  1122.741
 504  1125.288
 505  1125.099
 506  1183.919
 507  1168.81
 508  1197.495
 509  1087.844
 510  1111.468
 511  1132.715
 512  1112.323
 513  1070.33
 514  1043.842
 515  1079.108
 516  1185.839
 517  1077.462
 518  1114.307
 519  1136.46
 520  1158.34
 521  1242.588
 522  1171.09
 523  1170.886
 524  1013.06
 525  1029.525
 526  1049.688
 527  1099.224
 528  1132.756
 529  1169.043
 530  1087.312
 531  1111.681
 532  1183.698
 533  1179.364
 534  1237.194
 535  1251.737
 536  1254.595
 537  1173.737
 538  1189.963
 539  1189.923
 540  1175.414
 541  1142.565
 542  1138.08
 543  1058.215
 544  1042.726
 545  1125.69
 546  1105.348
 547  1002.228
 548  873.4429
 549  848.2228
 550  919.4667
 551  1026.526
 552  1183.245
 553  1316.948
 554  1174.75
 555  1131.947
 556  1066.432
 557  1085.075
 558  1068.658
 559  981.3032
 560  905.1187
 561  895.48
 562  1067.5
 563  1043.8
 564  951.7817
 565  885.4249
 566  1149.391
 567  1203.173
 568  1231.259
 569  1276.791
 570  1307.276
 571  1230.525
 572  1194.815
 573  1185.595
 574  1135.729
 575  1046.931
 576  1116.362
 577  1142.814
 578  1195.514
 579  1217.288
 580  1196.199
 581  1195.23
 582  1136.872
 583  1113.999
 584  1115.418
 585  1060.779
 586  1103.409
 587  1028.066
 588  1027.954
 589  1058.457
 590  1049.259
 591  1152.249
 592  1214.431
 593  1185.878
 594  1175.938
 595  1016.336
 596  965.1241
 597  980.054
 598  1054.8
 599  1170.21
 600  1178.352
 601  1067.728
 602  1042.074
 603  1005.632
 604  1187.119
 605  1203.369
 606  1258.88
 607  1223.026
 608  1030.878
 609  1071.663
 610  1066.117
 611  987.272
 612  953.6491
 613  987.6298
 614  1220.952
 615  1146.489
 616  1027.526
 617  1076.244
 618  1207.582
 619  1229.224
 620  1169.287
 621  1111.283
 622  1169.672
 623  1058.697
 624  1021.825
 625  1017.122
 626  969.5647
 627  1066.942
 628  1219.717
 629  1359.819
 630  1349.671
 631  1349.576
 632  1387.397
 633  1388.736
 634  1435.506
 635  1635.228
 636  1833.223
 637  1931.538
 638  1999.939
 639  1921.494
 640  2041.054
 641  1945.846
 642  1908.998
 643  1836.861
 644  1803.895
 645  1640.465
 646  1482.829
 647  1429.413
 648  1364.256
 649  1316.64
 650  1234.03
 651  1256.589
 652  1238.993
 653  1254.326
 654  1200.666
 655  974.6006
 656  954.8329
 657  970.272
 658  1117.913
 659  1115.873
 660  1087.715
 661  1108.233
 662  1199.187
 663  1111.721
 664  1130.322
 665  1219.209
 666  1213.31
 667  1147.262
 668  1105.886
 669  1216.902
 670  1078.143
 671  1025.384
 672  1066.51
 673  1182.852
 674  1291.115
 675  1272.535
 676  1394.531
 677  1352.443
 678  1249.834
 679  1070.857
 680  1008.842
 681  1162.662
 682  1315.107
 683  1311.851
 684  1098.693
 685  1003.056
 686  1012.485
 687  1105.707
 688  1087.901
 689  1008.243
 690  1057.735
 691  1012.663
 692  1013.89
 693  1004.938
 694  950.8874
 695  1018.965
 696  1110.424
 697  1062.998
 698  990.0605
 699  935.4859
 700  1074.791
 701  1058.398
 702  1132.851
 703  1095.352
 704  1013.459
 705  919.6567
 706  915.0532
 707  952.6843
 708  1001.657
 709  1096.636
 710  1206.671
 711  1153.564
 712  1170.552
 713  1227.129
 714  1288.361
 715  1241.767
 716  1144.446
 717  1070.224
 718  1093.887
 719  1102.278
 720  1106.208
 721  1097.831
 722  1117.269
 723  1183.948
 724  1166.085
 725  1223.988
 726  1103.994
 727  999.8169
 728  894.452
 729  919.8365
 730  975.8126
 731  1105.485
 732  1185.25
 733  1214.591
 734  1066.091
 735  986.8163
 736  987.1562
 737  1015.752
 738  970.6383
 739  1017.976
 740  1096.948
 741  1152.336
 742  1183.941
 743  1232.936
 744  1264.21
 745  1212.713
 746  1131.233
 747  1167.822
 748  1159.757
 749  1074.733
 750  1001.378
 751  876.8735
 752  856.3732
 753  754.5267
 754  851.5222
 755  968.3578
 756  974.2812
 757  899.543
 758  906.3608
 759  963.2747
 760  1038.377
 761  1109.019
 762  1143.446
 763  1212.213
 764  1173.079
 765  1245.02
 766  1038.686
 767  1016.669
 768  1030.895
 769  1162.475
 770  1111.394
 771  979.1846
 772  1034.544
 773  1015.134
 774  1072.179
 775  1124.87
 776  1129.888
 777  1158.605
 778  1103.87
 779  1165.971
 780  1184.906
 781  1149.095
 782  1151.103
 783  1284.498
 784  1392.059
 785  1288.437
 786  1189.83
 787  1176.289
 788  1155.989
 789  1154.561
 790  1042.778
 791  969.077
 792  964.6882
 793  1042.742
 794  1066.438
 795  1079.915
 796  1125.757
 797  1138.923
 798  1167.289
 799  1194.085
 800  1281.892
 801  1346.426
 802  1414.657
 803  1359.103
 804  1294.257
 805  1111.445
 806  1071.592
 807  993.5247
 808  959.8983
 809  963.3619
 810  984.9318
 811  1048.307
 812  1013.256
 813  909.2427
 814  945.3257
 815  1021.117
 816  1098.1
 817  1128.556
 818  1026.447
 819  1008.153
 820  963.0241
 821  1010.645
 822  1079.042
 823  1125.617
 824  1179.703
 825  1187.322
 826  1173.116
 827  1120.392
 828  1091.026
 829  1073.836
 830  891.5667
 831  905.8665
 832  1022.661
 833  1236.188
 834  1119.547
 835  1103.092
 836  1164.711
 837  1275.191
 838  1199.71
 839  1151.338
 840  1054.62
 841  963.7832
 842  914.6823
 843  1047.314
 844  1119.847
 845  1188.16
 846  1103.092
 847  1099.146
 848  1039.305
 849  967.9919
 850  944.5155
 851  1061.893
 852  1161.804
 853  1118.387
 854  1037.51
 855  1039.459
 856  1037.65
 857  1051.59
 858  1102.185
 859  1031.828
 860  972.3439
 861  823.9316
 862  789.1475
 863  849.4907
 864  1024.755
 865  1096.376
 866  1144.401
 867  1212.358
 868  1149.99
 869  1134.319
 870  1176.78
 871  1265.997
 872  1084.668
 873  1101.484
 874  1192.678
 875  1259.291
 876  1187.801
 877  1159.528
 878  1120.594
 879  1180.32
 880  1243.354
 881  1340.607
 882  1258.408
 883  1104.246
 884  1051.238
 885  1072.254
 886  1058.32
 887  1088.121
 888  1004.173
 889  1028.516
 890  1091.014
 891  1233.998
 892  1223.666
 893  1127.485
 894  1079.675
 895  1067.693
 896  1044.431
 897  1052.957
 898  1123.657
 899  1109.103
 900  1101.863
 901  1155.058
 902  1202.377
 903  1158.738
 904  1180.793
 905  1237.884
 906  1180.202
 907  1179.622
 908  1114.597
 909  1065.924
 910  1027.151
 911  1015.191
 912  1063.928
 913  1094.278
 914  1181.725
 915  1167.72
 916  1124.13
 917  1061.526
 918  1104.774
 919  1043.318
 920  1015.88
 921  1002.238
 922  1093.651
 923  1059.68
 924  961.3697
 925  941.8871
 926  1039.141
 927  1088.779
 928  1160.439
 929  1194.283
 930  1164.018
 931  1113.517
 932  1178.81
 933  1145.233
 934  1100.747
 935  1031.037
 936  1034.244
 937  914.2548
 938  869.3466
 939  850.0939
 940  933.2885
 941  986.4809
 942  1023.014
 943  1092.611
 944  1110.018
 945  1045.427
 946  1093.956
 947  1098.272
 948  1146.692
 949  1109.83
 950  1056.152
 951  947.0861
 952  940.0101
 953  931.0626
 954  945.6635
 955  927.8063
 956  910.9178
 957  806.1724
 958  680.2498
 959  740.1957
 960  916.1717
 961  974.1775
 962  1025.251
 963  981.8339
 964  1096.137
 965  1005.728
 966  1121.268
 967  1164.987
 968  1203.679
 969  1140.361
 970  969.2821
 971  835.3376
 972  891.3959
 973  986.7587
 974  1115.621
 975  1110.406
 976  1055.593
 977  1115.816
 978  1062.756
 979  1103.975
 980  1056.557
 981  1104.784
 982  1195.085
 983  1229.261
 984  1333.091
 985  1209.337
 986  1158.772
 987  1018.474
 988  1128.1
 989  1209.276
 990  1301.77
 991  1270.644
 992  1272.358
 993  1266.282
 994  1229.785
 995  1099.867
 996  1141.741
 997  1154.878
 998  1174.531
 999  1106.614
1000  1165.213
1001  1255.293
1002  1266.237
1003  1368.531
1004  1290.6
1005  1047.575
1006  1029.159
1007  1098.41
1008  1205.591
1009  1052.464
1010  1039.096
1011  1186.961
1012  1148.775
1013  1184.92
1014  1252.261
1015  1209.648
1016  1122.988
1017  985.3154
1018  1124.191
1019  1172.061
1020  1130.918
1021  1061.648
1022  1041.336
1023  1022.194
