# Input file       =  1191868328.113797_cleaned.dat
# Candidate        =  PSR_0332+5434
# Telescope        =  AR
# Epoch_topo       =  58038.772536039316
# Epoch_bary       =  N/A
# T_sample         =  0.002
# Data Folded      =  7143424
# Data Avg         =  0.0197853615941105
# Data StdDev      =  3.09011861724055 
# Profile Bins     =  1024
# Profile Avg      =  137.967808525521 
# Profile StdDev   =  258.094284103058 
# Reduced chi-sqr  =  1.117
# Prob(Noise)      <  0.00516   (~2.6 sigma)
# P_topo (ms)      =  714.47993057874   +/- 0.000105
# P'_topo (s/s)    =  -0                +/- 5.72e-11
# P''_topo (s/s^2) =  0                 +/- 2.59e-14
# P_bary (ms)      =  N/A
# P'_bary (s/s)    =  N/A
# P''_bary (s/s^2) =  N/A
# P_orb (s)        =  N/A
# asin(i)/c (s)    =  N/A
# eccentricity     =  N/A
# w (rad)          =  N/A
# T_peri           =  N/A
######################################################
   0  142.5773
   1  152.3267
   2  129.5366
   3  149.3882
   4  230.5724
   5  183.5359
   6  141.5133
   7  148.1335
   8  295.9001
   9  243.6336
  10  198.395
  11  135.4554
  12  125.0312
  13  210.0578
  14  278.1306
  15  256.8149
  16  188.3018
  17  153.2088
  18  132.6188
  19  70.29317
  20  99.28855
  21  160.255
  22  222.8279
  23  151.5394
  24  232.5347
  25  202.5311
  26  135.0349
  27  135.4414
  28  252.0822
  29  266.6339
  30  259.5277
  31  284.047
  32  277.6116
  33  234.0566
  34  173.0747
  35  180.982
  36  89.37499
  37  10.07506
  38  -16.89001
  39  112.3028
  40  190.5665
  41  208.854
  42  236.27
  43  256.1597
  44  140.5093
  45  42.84187
  46  58.51562
  47  187.3046
  48  201.7959
  49  175.258
  50  173.7176
  51  199.7271
  52  230.948
  53  148.983
  54  80.88596
  55  47.40431
  56  142.9793
  57  278.1059
  58  346.7762
  59  335.5444
  60  208.0145
  61  259.0356
  62  360.2114
  63  336.2511
  64  221.9064
  65  128.2701
  66  185.0148
  67  166.5004
  68  113.4286
  69  74.04967
  70  79.8164
  71  92.70386
  72  184.7308
  73  295.8176
  74  360.8506
  75  357.1963
  76  356.02
  77  323.7775
  78  337.294
  79  380.0435
  80  402.5438
  81  354.978
  82  281.8424
  83  277.6509
  84  241.1929
  85  165.2655
  86  45.12489
  87  132.4786
  88  169.6944
  89  226.18
  90  126.6344
  91  173.0625
  92  238.4183
  93  221.6533
  94  163.5747
  95  67.83756
  96  115.088
  97  145.5385
  98  115.1224
  99  115.3883
 100  -39.87591
 101  -165.6756
 102  -183.5396
 103  -56.91354
 104  -32.65646
 105  14.70881
 106  -41.69033
 107  88.26538
 108  68.68555
 109  146.5521
 110  165.9579
 111  155.486
 112  150.6293
 113  68.76294
 114  158.5108
 115  98.18344
 116  37.56625
 117  -40.83226
 118  -86.88227
 119  -141.0475
 120  -107.6944
 121  -90.65849
 122  -6.389358
 123  61.97981
 124  157.9817
 125  187.1094
 126  193.0641
 127  207.3036
 128  87.93007
 129  61.53339
 130  85.44893
 131  89.06557
 132  -11.18818
 133  -42.26439
 134  -37.68633
 135  -31.03169
 136  -110.2301
 137  -74.43732
 138  -50.95409
 139  98.10531
 140  241.9447
 141  320.7004
 142  298.2021
 143  202.4364
 144  211.5656
 145  195.7933
 146  213.5421
 147  193.099
 148  163.6991
 149  182.4094
 150  197.8961
 151  245.6725
 152  200.7076
 153  67.08823
 154  -42.73019
 155  -140.1919
 156  -211.4483
 157  -149.499
 158  -19.19633
 159  173.4096
 160  124.7758
 161  169.7443
 162  173.0006
 163  125.965
 164  74.9834
 165  129.2566
 166  155.5711
 167  204.732
 168  116.509
 169  151.167
 170  27.64896
 171  -71.98401
 172  -128.2142
 173  -43.11071
 174  83.54955
 175  120.9315
 176  86.03076
 177  204.2626
 178  254.2384
 179  315.121
 180  275.696
 181  306.4812
 182  224.1849
 183  84.92032
 184  -43.86184
 185  -20.3586
 186  -29.61596
 187  23.89774
 188  34.47085
 189  152.5201
 190  191.9565
 191  243.0006
 192  351.6806
 193  340.142
 194  272.0788
 195  239.0315
 196  219.3718
 197  200.5867
 198  198.2926
 199  259.4899
 200  242.9463
 201  90.45036
 202  33.27872
 203  155.4162
 204  183.7452
 205  215.3754
 206  206.6985
 207  282.2399
 208  191.2113
 209  13.87152
 210  65.47422
 211  129.9972
 212  126.1387
 213  94.60249
 214  139.6479
 215  115.2363
 216  60.72815
 217  169.8027
 218  300.9511
 219  247.0215
 220  134.4278
 221  55.11596
 222  82.24491
 223  184.9127
 224  161.9922
 225  138.4605
 226  297.1234
 227  425.8697
 228  413.1818
 229  245.8864
 230  103.3055
 231  188.1534
 232  133.0915
 233  120.2936
 234  113.8902
 235  186.7185
 236  251.6382
 237  232.0852
 238  188.5162
 239  219.8104
 240  195.5353
 241  139.4683
 242  153.0549
 243  251.5382
 244  340.8886
 245  331.8301
 246  233.4954
 247  84.45452
 248  -77.75238
 249  -88.41796
 250  68.98875
 251  173.9185
 252  187.5686
 253  126.5597
 254  84.10354
 255  74.42277
 256  102.466
 257  260.4463
 258  279.4695
 259  307.8279
 260  290.136
 261  303.2613
 262  192.4937
 263  49.96888
 264  1.204042
 265  175.3013
 266  137.8199
 267  137.1147
 268  102.2623
 269  150.5682
 270  141.5414
 271  131.9947
 272  185.5486
 273  113.2902
 274  86.86755
 275  39.80684
 276  55.96371
 277  1.688304
 278  14.57116
 279  72.4786
 280  46.30941
 281  68.68852
 282  85.37125
 283  117.8431
 284  70.05257
 285  -32.26445
 286  -35.84056
 287  -15.20163
 288  84.19812
 289  102.0779
 290  150.2782
 291  120.0881
 292  211.8802
 293  216.5678
 294  243.7838
 295  173.1469
 296  122.775
 297  74.08499
 298  75.87659
 299  -23.90906
 300  -92.31312
 301  -194.2324
 302  -201.7705
 303  -184.1556
 304  -141.2227
 305  -13.15421
 306  -0.7962929
 307  15.51424
 308  99.4943
 309  130.2813
 310  142.8742
 311  135.747
 312  156.8572
 313  154.3017
 314  47.03362
 315  130.0243
 316  121.7127
 317  56.65422
 318  -48.57492
 319  -42.28892
 320  6.736349
 321  72.84325
 322  143.6468
 323  271.8182
 324  245.589
 325  185.0056
 326  144.3498
 327  70.53508
 328  103.049
 329  83.27641
 330  136.1192
 331  67.1349
 332  -42.05775
 333  -7.582832
 334  69.27282
 335  98.24149
 336  103.1673
 337  84.60281
 338  88.92104
 339  -46.3175
 340  -5.685753
 341  15.55469
 342  70.07658
 343  48.18328
 344  55.71231
 345  25.35307
 346  -46.63475
 347  -105.5
 348  -189.741
 349  -222.2614
 350  -191.3778
 351  -69.3245
 352  71.10233
 353  84.08709
 354  94.35003
 355  80.0675
 356  173.1648
 357  128.3626
 358  76.67397
 359  44.57466
 360  35.10434
 361  -51.01985
 362  -29.91542
 363  44.5399
 364  58.98847
 365  11.61192
 366  -30.21094
 367  84.26251
 368  61.7957
 369  79.6331
 370  71.36841
 371  170.2884
 372  189.7947
 373  129.3256
 374  119.4265
 375  34.96609
 376  4.827218
 377  -12.12323
 378  55.86738
 379  110.488
 380  131.4855
 381  99.42152
 382  3.244143
 383  -2.928895
 384  30.35994
 385  25.08149
 386  51.38666
 387  46.88638
 388  138.2299
 389  138.0269
 390  107.5008
 391  31.0748
 392  38.24832
 393  126.9493
 394  219.6532
 395  213.9517
 396  208.3731
 397  98.83247
 398  120.2753
 399  109.486
 400  138.3099
 401  33.79777
 402  87.68089
 403  198.2604
 404  216.7278
 405  233.6862
 406  237.2759
 407  286.456
 408  185.2044
 409  173.5236
 410  123.6033
 411  218.6901
 412  161.5414
 413  126.0229
 414  -27.8116
 415  -138.1861
 416  -109.6021
 417  -12.89563
 418  -12.80529
 419  -62.85018
 420  -104.3877
 421  -127.3308
 422  -47.34506
 423  18.19265
 424  100.2962
 425  75.02461
 426  -13.69671
 427  22.55688
 428  42.0549
 429  118.6398
 430  119.3246
 431  23.78657
 432  -59.26061
 433  -169.8987
 434  -195.0907
 435  -249.6216
 436  -201.6709
 437  -117.7302
 438  121.4312
 439  231.4023
 440  174.2178
 441  24.55743
 442  106.5287
 443  174.0145
 444  121.141
 445  8.138835
 446  -13.6473
 447  69.01071
 448  103.291
 449  151.3461
 450  83.44461
 451  86.61552
 452  -35.07992
 453  -40.18377
 454  -91.95547
 455  17.2554
 456  216.9817
 457  324.4937
 458  297.0913
 459  213.9287
 460  168.2622
 461  130.5943
 462  104.0034
 463  124.5951
 464  150.502
 465  152.6118
 466  60.23542
 467  88.90101
 468  18.57178
 469  -50.05407
 470  -104.1565
 471  -49.968
 472  24.1741
 473  50.26104
 474  30.80202
 475  67.27563
 476  68.61025
 477  15.88799
 478  120.3516
 479  171.6108
 480  115.1288
 481  81.1142
 482  44.32119
 483  3.243771
 484  -84.28151
 485  -52.10919
 486  -7.350215
 487  63.6335
 488  110.0412
 489  211.4943
 490  161.4866
 491  98.96003
 492  77.10968
 493  69.17041
 494  154.472
 495  175.19
 496  185.7437
 497  45.27842
 498  2.817272
 499  -69.61322
 500  -10.02611
 501  -40.68063
 502  -63.1285
 503  -85.78199
 504  -46.92043
 505  -4.375225
 506  17.41027
 507  121.7836
 508  161.3824
 509  179.1789
 510  199.6911
 511  221.111
 512  182.0128
 513  -5.68838
 514  -77.1734
 515  -106.5055
 516  -198.9272
 517  -273.8546
 518  -173.5093
 519  12.72954
 520  58.48691
 521  55.65102
 522  87.87197
 523  84.25092
 524  141.6768
 525  182.0081
 526  199.2616
 527  97.75104
 528  39.28888
 529  85.46397
 530  140.856
 531  100.3428
 532  82.02351
 533  117.2761
 534  135.6318
 535  150.7407
 536  82.612
 537  177.6105
 538  161.0908
 539  114.8204
 540  137.116
 541  179.9112
 542  250.9529
 543  222.9245
 544  276.878
 545  184.4585
 546  97.60878
 547  -14.99379
 548  7.799974
 549  65.9151
 550  123.5888
 551  260.556
 552  300.2791
 553  262.1958
 554  277.4861
 555  359.2717
 556  335.3114
 557  283.7166
 558  169.916
 559  158.6936
 560  73.71098
 561  118.5618
 562  152.5459
 563  85.07071
 564  15.13803
 565  168.9284
 566  340.382
 567  280.88
 568  168.2294
 569  99.47154
 570  248.5879
 571  334.4046
 572  307.2267
 573  234.9116
 574  194.9455
 575  210.5376
 576  223.9037
 577  249.2786
 578  282.3806
 579  299.7904
 580  327.0677
 581  202.3567
 582  143.741
 583  140.0305
 584  192.2771
 585  189.0453
 586  131.897
 587  115.2054
 588  91.62698
 589  95.62975
 590  220.7469
 591  314.6324
 592  339.9041
 593  167.1493
 594  221.4061
 595  246.4252
 596  343.0023
 597  334.9965
 598  296.5021
 599  201.821
 600  151.4265
 601  224.9462
 602  259.9076
 603  121.8469
 604  31.87868
 605  76.8283
 606  254.1666
 607  280.7366
 608  147.7871
 609  93.00616
 610  156.5159
 611  226.3708
 612  210.018
 613  184.0733
 614  249.0161
 615  226.2689
 616  331.29
 617  337.1494
 618  309.3434
 619  222.9793
 620  314.715
 621  389.8597
 622  366.0139
 623  260.7264
 624  326.3335
 625  396.4838
 626  503.6373
 627  410.7962
 628  475.9635
 629  384.9565
 630  397.0643
 631  474.0715
 632  518.9897
 633  742.2338
 634  815.0049
 635  1030.619
 636  1032.721
 637  1060.579
 638  1056.156
 639  1057.868
 640  1058.077
 641  1001.708
 642  894.3697
 643  746.9225
 644  564.4857
 645  411.6963
 646  249.9214
 647  120.1711
 648  117.1191
 649  130.3612
 650  145.345
 651  4.371533
 652  -74.18179
 653  -35.21237
 654  33.78924
 655  151.5425
 656  234.5621
 657  184.9862
 658  176.1121
 659  255.9696
 660  374.4363
 661  439.6221
 662  297.766
 663  267.3846
 664  167.8683
 665  187.3652
 666  158.1875
 667  133.3949
 668  111.933
 669  112.9735
 670  221.8978
 671  273.5526
 672  272.3742
 673  174.6081
 674  122.5317
 675  207.0842
 676  181.8811
 677  162.9939
 678  178.055
 679  294.7081
 680  306.1323
 681  182.9799
 682  118.2632
 683  -43.01933
 684  1.072584
 685  -31.05962
 686  -36.83942
 687  -46.06742
 688  38.515
 689  113.054
 690  55.54688
 691  57.66154
 692  183.5168
 693  319.7824
 694  305.5573
 695  100.3574
 696  131.581
 697  254.8546
 698  412.5482
 699  363.6716
 700  393.8413
 701  341.3624
 702  186.9733
 703  244.5219
 704  309.4831
 705  201.7894
 706  -2.559574
 707  7.47403
 708  149.289
 709  173.7773
 710  172.5056
 711  176.7852
 712  313.435
 713  275.9518
 714  164.6514
 715  101.6939
 716  228.2806
 717  392.2973
 718  367.0796
 719  289.1416
 720  158.926
 721  165.7865
 722  171.1918
 723  175.5093
 724  154.325
 725  40.84601
 726  -48.00241
 727  -85.93831
 728  -13.45832
 729  41.21434
 730  -71.0882
 731  -53.23182
 732  -16.42968
 733  95.63818
 734  125.6555
 735  79.238
 736  51.67549
 737  22.2288
 738  115.0726
 739  167.3987
 740  256.5815
 741  210.9561
 742  231.4806
 743  275.9651
 744  245.4541
 745  221.7304
 746  104.837
 747  168.4158
 748  164.3108
 749  155.564
 750  32.63861
 751  30.75764
 752  110.3867
 753  129.5413
 754  119.6981
 755  141.3857
 756  222.8987
 757  160.5547
 758  151.3622
 759  98.58275
 760  133.8382
 761  133.6913
 762  107.9087
 763  186.5908
 764  211.6471
 765  243.8026
 766  114.7173
 767  -67.8832
 768  -69.9594
 769  -28.41456
 770  88.45958
 771  35.64895
 772  55.49363
 773  122.3172
 774  183.2223
 775  162.5727
 776  132.8831
 777  177.3843
 778  95.64266
 779  149.9017
 780  183.8588
 781  265.5912
 782  154.8073
 783  49.12843
 784  91.3783
 785  83.08159
 786  87.42951
 787  -16.41615
 788  70.65002
 789  61.31192
 790  189.5861
 791  234.2754
 792  193.9853
 793  119.9265
 794  39.76339
 795  102.8266
 796  19.58766
 797  5.675956
 798  -20.13753
 799  46.26703
 800  42.66756
 801  40.02103
 802  122.3737
 803  95.55694
 804  158.9253
 805  188.0942
 806  207.957
 807  199.0952
 808  68.21246
 809  -5.999661
 810  -0.1615689
 811  19.71799
 812  -19.56909
 813  -166.5491
 814  -170.6849
 815  -115.9339
 816  -64.8596
 817  -23.20299
 818  -29.24946
 819  50.71663
 820  53.36924
 821  140.7568
 822  178.7805
 823  200.8557
 824  196.4973
 825  228.2327
 826  289.0277
 827  252.7308
 828  110.9712
 829  32.02789
 830  -21.5493
 831  -28.07071
 832  -52.69619
 833  21.84648
 834  70.8769
 835  77.76741
 836  16.70461
 837  57.94036
 838  79.9856
 839  127.5722
 840  107.0709
 841  190.2393
 842  142.5907
 843  123.187
 844  179.3194
 845  207.1214
 846  185.9306
 847  108.7296
 848  80.77491
 849  166.9392
 850  139.9095
 851  160.9243
 852  269.771
 853  310.4533
 854  224.2729
 855  100.2561
 856  192.6399
 857  199.272
 858  139.4694
 859  141.4417
 860  302.1336
 861  375.1908
 862  285.0575
 863  249.9345
 864  331.2184
 865  359.5332
 866  239.224
 867  224.823
 868  118.0312
 869  62.57323
 870  69.14136
 871  224.1982
 872  279.0769
 873  111.1446
 874  27.58865
 875  105.0191
 876  212.925
 877  121.2022
 878  38.95349
 879  -92.31506
 880  -47.85311
 881  68.69876
 882  149.0142
 883  148.7041
 884  63.78485
 885  68.5711
 886  113.0285
 887  116.3261
 888  185.5146
 889  186.5207
 890  90.73011
 891  89.63194
 892  267.1233
 893  404.7775
 894  336.5441
 895  160.1016
 896  89.82755
 897  -8.914546
 898  -40.72095
 899  -33.81751
 900  69.85818
 901  79.37518
 902  12.0347
 903  42.78392
 904  141.7238
 905  183.8156
 906  242.1754
 907  259.5208
 908  315.2462
 909  231.5623
 910  128.6652
 911  169.481
 912  250.6035
 913  355.7068
 914  477.0073
 915  527.5787
 916  358.9836
 917  243.174
 918  219.0211
 919  298.412
 920  245.1872
 921  201.0155
 922  246.0437
 923  171.7554
 924  192.6223
 925  213.8753
 926  208.6399
 927  108.7238
 928  19.66115
 929  90.40507
 930  32.40633
 931  74.61821
 932  176.2263
 933  207.2176
 934  77.92043
 935  -79.55661
 936  8.717834
 937  44.15433
 938  -2.582237
 939  -25.08611
 940  19.46142
 941  -11.75403
 942  -117.1614
 943  -56.14572
 944  -15.09267
 945  -17.08518
 946  4.857999
 947  23.1075
 948  33.026
 949  -11.19275
 950  -39.84297
 951  38.53819
 952  115.9723
 953  156.6785
 954  66.73177
 955  -53.74886
 956  -108.7553
 957  -13.57159
 958  56.7921
 959  53.0056
 960  37.4448
 961  12.75619
 962  111.2364
 963  104.4179
 964  72.08703
 965  127.6826
 966  27.3506
 967  35.93879
 968  92.86734
 969  228.2571
 970  248.8113
 971  126.634
 972  103.3147
 973  56.9732
 974  12.50837
 975  -29.58714
 976  -50.50182
 977  -40.90297
 978  9.295206
 979  109.607
 980  128.0206
 981  78.45404
 982  61.91447
 983  149.3759
 984  175.1874
 985  116.8814
 986  94.37637
 987  72.46954
 988  159.1099
 989  258.3089
 990  402.815
 991  407.7359
 992  342.6097
 993  191.2976
 994  47.45599
 995  20.20225
 996  43.26574
 997  95.41873
 998  159.5676
 999  177.9324
1000  177.8421
1001  224.6738
1002  311.6843
1003  258.2474
1004  272.9863
1005  393.2022
1006  438.8145
1007  381.6007
1008  320.6086
1009  291.9885
1010  293.0701
1011  124.9067
1012  22.79763
1013  -34.56906
1014  28.88265
1015  149.8673
1016  216.7312
1017  282.0529
1018  341.0759
1019  372.9638
1020  312.0193
1021  201.1831
1022  58.16393
1023  54.08308
