# Input file       =  1191796778.119522_cleaned.dat
# Candidate        =  PSR_0332+5434
# Telescope        =  AR
# Epoch_topo       =  58037.944411105578
# Epoch_bary       =  N/A
# T_sample         =  0.002
# Data Folded      =  7340032
# Data Avg         =  0.0289299860565474
# Data StdDev      =  2.27255748115788 
# Profile Bins     =  256
# Profile Avg      =  829.854455561742 
# Profile StdDev   =  384.807803855559 
# Reduced chi-sqr  =  2.052
# Prob(Noise)      <  1.2e-20   (~9.2 sigma)
# P_topo (ms)      =  714.47936782838   +/- 0.000288
# P'_topo (s/s)    =  -0                +/- 1.52e-10
# P''_topo (s/s^2) =  0                 +/- 6.71e-14
# P_bary (ms)      =  N/A
# P'_bary (s/s)    =  N/A
# P''_bary (s/s^2) =  N/A
# P_orb (s)        =  N/A
# asin(i)/c (s)    =  N/A
# eccentricity     =  N/A
# w (rad)          =  N/A
# T_peri           =  N/A
######################################################
   0  823.5987
   1  844.9818
   2  1021.902
   3  484.0623
   4  1188.61
   5  1245.196
   6  459.4289
   7  630.2776
   8  1205.783
   9  933.0317
  10  749.772
  11  1079.753
  12  953.2181
  13  760.8713
  14  792.5759
  15  596.1337
  16  984.6458
  17  534.5804
  18  725.0353
  19  241.602
  20  469.3557
  21  917.9404
  22  750.3005
  23  1021.739
  24  1029.854
  25  1442.318
  26  1371.779
  27  899.6132
  28  715.5928
  29  727.0654
  30  1054.277
  31  423.0081
  32  757.1095
  33  695.4594
  34  617.5899
  35  566.529
  36  190.2848
  37  73.19595
  38  940.4539
  39  1266.047
  40  797.1516
  41  799.7386
  42  963.7919
  43  687.4396
  44  857.3641
  45  1059.883
  46  613.2821
  47  738.3054
  48  -92.10191
  49  1073.451
  50  687.0458
  51  329.0958
  52  782.1595
  53  670.921
  54  925.178
  55  816.0666
  56  844.1597
  57  607.1658
  58  703.5525
  59  1241.143
  60  1139.596
  61  512.5425
  62  960.7419
  63  1024.944
  64  861.1099
  65  923.8602
  66  718.7921
  67  570.1915
  68  1100.274
  69  413.2069
  70  857.4607
  71  1165.705
  72  743.2393
  73  564.839
  74  1052.98
  75  813.9108
  76  478.6297
  77  229.6606
  78  852.3724
  79  826.1771
  80  169.9235
  81  446.3455
  82  480.9693
  83  -19.95257
  84  271.1002
  85  291.929
  86  202.7015
  87  271.3583
  88  1155.215
  89  1169.949
  90  768.8486
  91  1180.218
  92  951.0474
  93  930.1508
  94  714.9094
  95  432.9094
  96  638.7982
  97  931.8701
  98  474.089
  99  960.291
 100  579.9357
 101  394.1306
 102  704.3781
 103  1202.942
 104  882.3588
 105  936.1921
 106  699.7619
 107  731.9496
 108  662.2075
 109  730.0012
 110  362.0364
 111  443.6699
 112  1180.423
 113  1061.667
 114  974.4067
 115  650.3661
 116  686.9798
 117  1253.787
 118  605.0256
 119  366.1189
 120  665.0911
 121  544.3713
 122  808.9711
 123  831.2769
 124  1112.792
 125  828.2389
 126  367.7404
 127  678.7656
 128  814.5882
 129  797.7223
 130  160.8273
 131  488.1697
 132  769.9041
 133  581.1734
 134  669.6716
 135  1137.835
 136  669.8222
 137  771.7009
 138  920.7241
 139  482.8875
 140  888.3203
 141  425.2781
 142  765.5536
 143  511.3084
 144  657.7941
 145  523.5681
 146  1199.819
 147  1047.257
 148  976.4986
 149  438.7973
 150  525.2323
 151  984.0822
 152  903.1545
 153  1191.487
 154  476.3853
 155  936.4009
 156  1424.381
 157  2401.847
 158  3631.624
 159  4199.657
 160  4166.702
 161  1940.55
 162  1076.254
 163  982.6227
 164  1210.161
 165  1249.823
 166  1354.444
 167  991.4247
 168  563.8622
 169  461.3895
 170  1079.956
 171  1385.636
 172  1302.219
 173  477.5869
 174  838.9913
 175  681.5967
 176  979.1511
 177  992.9763
 178  1126.296
 179  285.0331
 180  815.8052
 181  712.4221
 182  897.8784
 183  622.7171
 184  695.4344
 185  1008.489
 186  792.7495
 187  943.2646
 188  806.5026
 189  555.8279
 190  1092.899
 191  392.6767
 192  794.62
 193  524.9142
 194  323.0852
 195  634.0251
 196  649.8307
 197  812.3937
 198  483.0636
 199  769.9355
 200  372.7261
 201  241.8656
 202  605.3594
 203  832.7888
 204  864.0036
 205  495.3123
 206  208.4006
 207  1124.126
 208  1548.213
 209  612.8961
 210  567.1801
 211  773.0861
 212  614.3292
 213  1477.021
 214  954.0159
 215  1105.192
 216  862.3252
 217  893.3344
 218  1580.438
 219  682.7578
 220  730.4764
 221  636.1529
 222  672.4937
 223  1107.904
 224  997.6626
 225  1062.472
 226  765.2427
 227  1216.147
 228  438.4014
 229  922.5256
 230  896.2481
 231  1209.594
 232  447.8708
 233  1382.313
 234  1235.343
 235  753.8262
 236  414.9959
 237  1210.059
 238  1386.734
 239  1105.441
 240  1011.468
 241  668.4052
 242  279.3657
 243  946.9846
 244  953.3439
 245  729.6058
 246  603.7722
 247  815.8503
 248  619.6434
 249  632.275
 250  1025.824
 251  675.2143
 252  1107.831
 253  690.0936
 254  405.3685
 255  -46.11723
