# Input file       =  1191366003.118769_cleaned.dat
# Candidate        =  PSR_0332+5434
# Telescope        =  AR
# Epoch_topo       =  58032.958589337606
# Epoch_bary       =  N/A
# T_sample         =  0.002
# Data Folded      =  7340032
# Data Avg         =  0.0264335354149807
# Data StdDev      =  2.2736668075604  
# Profile Bins     =  1024
# Profile Avg      =  189.562941037419 
# Profile StdDev   =  192.497821984863 
# Reduced chi-sqr  =  1.074
# Prob(Noise)      <  0.0492   (~1.7 sigma)
# P_topo (ms)      =  714.47609263944   +/- 0.000163
# P'_topo (s/s)    =  -0                +/- 8.61e-11
# P''_topo (s/s^2) =  0                 +/- 3.8e-14
# P_bary (ms)      =  N/A
# P'_bary (s/s)    =  N/A
# P''_bary (s/s^2) =  N/A
# P_orb (s)        =  N/A
# asin(i)/c (s)    =  N/A
# eccentricity     =  N/A
# w (rad)          =  N/A
# T_peri           =  N/A
######################################################
   0  19.96881
   1  52.14919
   2  109.8029
   3  82.89487
   4  161.4005
   5  106.8541
   6  69.81629
   7  -17.83813
   8  184.2619
   9  224.718
  10  234.6729
  11  196.6081
  12  201.779
  13  191.3859
  14  164.0119
  15  161.7068
  16  203.7473
  17  239.0706
  18  269.802
  19  145.0975
  20  -32.78397
  21  -66.16131
  22  -34.71038
  23  50.53533
  24  129.1385
  25  194.7515
  26  271.4904
  27  251.1151
  28  200.9429
  29  180.7201
  30  206.3355
  31  250.6626
  32  138.1303
  33  107.2204
  34  101.9384
  35  180.2741
  36  294.0677
  37  273.0562
  38  191.8594
  39  96.43513
  40  295.0735
  41  411.1471
  42  355.3609
  43  167.7198
  44  48.23489
  45  48.08828
  46  73.94514
  47  201.5481
  48  222.1739
  49  210.9721
  50  196.0593
  51  228.7097
  52  210.4912
  53  240.2376
  54  225.9498
  55  213.8328
  56  192.8212
  57  297.1936
  58  289.5367
  59  319.968
  60  332.8077
  61  356.664
  62  207.0261
  63  86.59293
  64  104.4489
  65  161.0926
  66  215.9563
  67  312.6474
  68  344.7869
  69  321.2256
  70  246.9331
  71  256.9866
  72  274.1877
  73  238.1675
  74  289.1983
  75  302.429
  76  221.9241
  77  115.4788
  78  209.8493
  79  273.1851
  80  308.521
  81  298.6692
  82  238.4845
  83  139.4608
  84  16.42075
  85  69.67307
  86  87.25393
  87  170.1741
  88  255.2311
  89  343.1411
  90  304.5641
  91  289.4435
  92  336.1992
  93  453.0887
  94  439.0226
  95  378.1629
  96  242.7665
  97  105.4534
  98  57.03818
  99  26.39823
 100  105.9967
 101  5.615463
 102  43.04543
 103  68.48785
 104  43.36579
 105  106.9332
 106  181.2729
 107  275.7979
 108  217.1088
 109  144.2497
 110  150.129
 111  115.7362
 112  175.7948
 113  213.2632
 114  211.3369
 115  126.1263
 116  80.11761
 117  155.7878
 118  247.7389
 119  279.8788
 120  248.3462
 121  171.3096
 122  182.4297
 123  163.8633
 124  209.6299
 125  175.6382
 126  233.2995
 127  139.8624
 128  72.71241
 129  69.25984
 130  165.0972
 131  166.8102
 132  40.17373
 133  -36.60691
 134  -9.334059
 135  -40.35145
 136  18.93396
 137  44.98449
 138  210.6491
 139  291.8802
 140  314.4023
 141  224.4934
 142  100.8595
 143  122.1466
 144  247.5721
 145  236.9894
 146  172.9063
 147  36.74365
 148  58.29089
 149  41.04119
 150  65.87471
 151  57.90518
 152  129.8759
 153  145.1933
 154  170.7563
 155  111.1752
 156  101.1786
 157  40.53982
 158  53.86524
 159  122.586
 160  119.63
 161  36.36682
 162  64.19044
 163  149.8084
 164  188.586
 165  205.5823
 166  279.6936
 167  275.9286
 168  155.9744
 169  50.02389
 170  109.4359
 171  154.4155
 172  282.8077
 173  367.473
 174  372.5359
 175  248.864
 176  188.8154
 177  80.55076
 178  45.7378
 179  -15.89045
 180  15.84981
 181  36.45673
 182  117.5773
 183  170.1054
 184  139.5973
 185  54.33344
 186  74.94316
 187  91.15461
 188  160.5017
 189  141.191
 190  171.8194
 191  185.0404
 192  237.67
 193  249.2992
 194  271.7488
 195  182.1216
 196  255.7362
 197  196.0675
 198  127.5674
 199  9.058453
 200  21.34455
 201  40.54975
 202  70.43456
 203  50.84236
 204  168.8456
 205  226.883
 206  312.0365
 207  301.1704
 208  251.9383
 209  223.9615
 210  201.0202
 211  179.1773
 212  144.8257
 213  36.97377
 214  118.4422
 215  196.6343
 216  247.6049
 217  294.5402
 218  288.4915
 219  353.4849
 220  226.6898
 221  178.4424
 222  158.3
 223  102.4918
 224  105.5818
 225  82.47831
 226  86.9367
 227  74.02642
 228  64.20226
 229  129.9567
 230  125.7005
 231  158.4541
 232  170.3696
 233  208.1779
 234  185.8157
 235  234.5587
 236  279.4048
 237  347.2006
 238  388.3936
 239  331.2198
 240  357.4268
 241  262.445
 242  246.7792
 243  181.5084
 244  217.0624
 245  248.278
 246  254.0965
 247  188.4531
 248  221.6437
 249  223.2588
 250  255.3659
 251  154.7383
 252  93.5583
 253  98.38264
 254  194.7448
 255  266.7945
 256  264.9146
 257  284.0304
 258  214.8673
 259  186.6083
 260  182.9469
 261  261.7585
 262  246.6295
 263  148.2373
 264  120.4902
 265  190.9662
 266  212.9027
 267  161.7684
 268  108.9559
 269  225.3586
 270  333.9974
 271  403.6551
 272  311.8589
 273  227.8726
 274  159.9512
 275  89.95124
 276  128.7826
 277  160.353
 278  193.5307
 279  168.8746
 280  213.8605
 281  177.0475
 282  201.7918
 283  220.4544
 284  229.7961
 285  180.3627
 286  186.5688
 287  261.5432
 288  263.7739
 289  203.7652
 290  196.2217
 291  203.692
 292  203.786
 293  82.76244
 294  100.9291
 295  121.3024
 296  185.6822
 297  173.2769
 298  164.1325
 299  106.4706
 300  102.7256
 301  111.3083
 302  166.5814
 303  248.2375
 304  186.1795
 305  170.383
 306  118.6507
 307  212.6522
 308  291.4039
 309  279.0947
 310  278.0519
 311  193.9777
 312  66.57754
 313  3.147925
 314  -27.85589
 315  38.91895
 316  146.0681
 317  166.4732
 318  153.7381
 319  67.97089
 320  143.7164
 321  115.104
 322  172.4878
 323  174.6124
 324  158.1742
 325  95.38255
 326  93.06318
 327  86.60921
 328  120.7366
 329  173.8732
 330  244.5732
 331  297.0046
 332  234.9904
 333  177.355
 334  77.80948
 335  68.61043
 336  150.5503
 337  179.5068
 338  246.1642
 339  244.6036
 340  263.7862
 341  274.9605
 342  281.4249
 343  189.2931
 344  51.17004
 345  62.54964
 346  167.4664
 347  318.7665
 348  333.4036
 349  435.5579
 350  462.8587
 351  392.4481
 352  249.4942
 353  229.6827
 354  176.1972
 355  188.8661
 356  37.88071
 357  -4.795749
 358  50.51417
 359  144.1967
 360  276.0782
 361  166.5345
 362  141.6308
 363  140.7505
 364  129.887
 365  63.02264
 366  86.57948
 367  232.5355
 368  292.2184
 369  243.3224
 370  169.3815
 371  224.2148
 372  171.811
 373  198.111
 374  166.3121
 375  237.6222
 376  132.2702
 377  110.7579
 378  119.8434
 379  152.9961
 380  115.0154
 381  68.75076
 382  128.5937
 383  151.1442
 384  226.0507
 385  224.9972
 386  269.1068
 387  240.7991
 388  233.5097
 389  257.4068
 390  349.6267
 391  323.2749
 392  216.4725
 393  202.1298
 394  240.1638
 395  275.4233
 396  238.1069
 397  136.6792
 398  69.77273
 399  141.5275
 400  169.614
 401  278.0172
 402  254.8595
 403  386.4598
 404  345.5212
 405  327.9115
 406  334.2141
 407  313.4492
 408  228.2424
 409  148.5974
 410  159.402
 411  257.4338
 412  252.7556
 413  256.1611
 414  224.8298
 415  210.7738
 416  135.7681
 417  73.08794
 418  79.90379
 419  96.97393
 420  195.8751
 421  274.8772
 422  266.9849
 423  188.0762
 424  41.5714
 425  135.7718
 426  206.7752
 427  234.0263
 428  240.5482
 429  270.0936
 430  318.4407
 431  313.2664
 432  201.2923
 433  129.1029
 434  122.1038
 435  179.4926
 436  234.6487
 437  225.5036
 438  199.9025
 439  241.2709
 440  269.6936
 441  268.4242
 442  157.1469
 443  83.05467
 444  198.8149
 445  331.9029
 446  374.7778
 447  264.3345
 448  188.1959
 449  176.0811
 450  226.821
 451  192.7243
 452  151.5314
 453  200.9751
 454  208.0103
 455  142.7037
 456  31.84653
 457  -53.77034
 458  -118.1249
 459  -114.7391
 460  59.36367
 461  216.3723
 462  242.7543
 463  168.7705
 464  114.9112
 465  142.9187
 466  110.3494
 467  86.83196
 468  82.23142
 469  147.8542
 470  114.1102
 471  130.8743
 472  201.1517
 473  319.6538
 474  321.9873
 475  187.8278
 476  85.32236
 477  5.046655
 478  7.552015
 479  -40.9153
 480  -5.301425
 481  118.6416
 482  169.2549
 483  118.5043
 484  5.53586
 485  0.1499252
 486  36.46817
 487  68.30849
 488  133.1265
 489  322.8803
 490  313.3806
 491  237.6408
 492  110.2853
 493  248.0638
 494  288.5816
 495  321.5286
 496  275.406
 497  262.2296
 498  211.6783
 499  256.4095
 500  194.2335
 501  35.72775
 502  -42.57005
 503  75.22058
 504  155.2391
 505  234.4122
 506  191.721
 507  241.4743
 508  143.2611
 509  166.5184
 510  125.3065
 511  176.155
 512  145.4804
 513  216.3012
 514  309.2651
 515  306.4583
 516  132.3248
 517  120.0121
 518  171.9945
 519  308.747
 520  236.9904
 521  212.5337
 522  217.8364
 523  225.7839
 524  230.1278
 525  193.5703
 526  279.2069
 527  332.2966
 528  366.6209
 529  288.6689
 530  247.2092
 531  243.8586
 532  279.1379
 533  295.115
 534  302.019
 535  346.1341
 536  281.3782
 537  287.4413
 538  272.4037
 539  229.6794
 540  216.3407
 541  242.7905
 542  252.077
 543  262.9973
 544  243.1424
 545  285.9686
 546  212.4288
 547  144.7563
 548  18.8296
 549  -31.58189
 550  -32.8975
 551  -48.70552
 552  6.59704
 553  87.51722
 554  149.6925
 555  135.1445
 556  167.869
 557  231.5951
 558  269.455
 559  235.5931
 560  221.169
 561  229.2955
 562  211.6714
 563  190.6058
 564  231.5547
 565  259.8046
 566  209.6448
 567  179.9889
 568  160.0963
 569  178.7658
 570  132.3887
 571  202.2342
 572  197.2835
 573  146.6883
 574  138.8685
 575  92.40834
 576  114.8209
 577  115.2217
 578  130.1531
 579  122.0087
 580  125.2473
 581  168.5976
 582  160.7122
 583  115.3048
 584  74.25448
 585  141.8858
 586  195.6426
 587  216.5088
 588  255.7312
 589  270.5032
 590  257.2877
 591  162.1574
 592  80.02488
 593  55.4963
 594  93.5872
 595  166.002
 596  176.9504
 597  156.7059
 598  174.4888
 599  163.0006
 600  154.6624
 601  73.91608
 602  116.6746
 603  101.0338
 604  101.4404
 605  -17.04767
 606  28.12145
 607  167.3554
 608  358.3382
 609  399.9464
 610  329.706
 611  162.4161
 612  205.1443
 613  223.1425
 614  269.1437
 615  235.7849
 616  224.1744
 617  276.7332
 618  217.8788
 619  206.7734
 620  132.4543
 621  141.3382
 622  191.463
 623  185.1579
 624  216.0426
 625  145.0117
 626  104.8975
 627  116.5401
 628  227.5889
 629  373.8961
 630  400.6191
 631  467.3662
 632  381.4158
 633  384.6186
 634  444.8422
 635  619.5742
 636  793.1626
 637  879.0823
 638  881.1105
 639  826.3344
 640  836.0233
 641  811.9297
 642  758.0032
 643  639.5173
 644  503.5265
 645  358.9907
 646  286.2963
 647  299.624
 648  397.1767
 649  379.337
 650  304.3223
 651  184.5396
 652  141.0425
 653  60.54884
 654  62.35855
 655  71.62866
 656  101.742
 657  122.9913
 658  143.8636
 659  167.6652
 660  197.982
 661  221.373
 662  313.1387
 663  377.2654
 664  424.6808
 665  367.1669
 666  274.9925
 667  191.6113
 668  171.6547
 669  204.4211
 670  194.7868
 671  182.2038
 672  218.7321
 673  282.5868
 674  171.1903
 675  139.9731
 676  176.3203
 677  288.9678
 678  258.3261
 679  243.5821
 680  182.3042
 681  101.6537
 682  -33.13101
 683  -64.83099
 684  -81.52586
 685  18.65931
 686  56.65911
 687  124.572
 688  28.03625
 689  23.70225
 690  -32.84454
 691  117.3472
 692  161.0448
 693  182.3887
 694  187.0373
 695  168.9844
 696  249.378
 697  287.7816
 698  287.7348
 699  212.46
 700  63.98867
 701  163.6936
 702  195.2222
 703  278.8371
 704  226.6896
 705  271.2463
 706  218.453
 707  170.3613
 708  138.2695
 709  168.4421
 710  226.6786
 711  230.0072
 712  329.9415
 713  374.8891
 714  363.5533
 715  294.1791
 716  217.106
 717  185.723
 718  132.9465
 719  150.3269
 720  97.51006
 721  171.8894
 722  179.9631
 723  196.3408
 724  185.328
 725  296.8321
 726  255.277
 727  349.8297
 728  258.0532
 729  247.9416
 730  174.0459
 731  184.4726
 732  166.24
 733  157.879
 734  188.9046
 735  196.4879
 736  175.4303
 737  131.6884
 738  38.14525
 739  54.5993
 740  140.5391
 741  215.834
 742  220.9709
 743  231.7718
 744  230.4908
 745  264.3078
 746  253.3792
 747  271.2009
 748  168.7828
 749  125.971
 750  67.0275
 751  103.817
 752  165.5031
 753  162.3894
 754  194.0235
 755  199.406
 756  218.3269
 757  163.755
 758  141.2107
 759  112.3377
 760  199.6077
 761  149.1063
 762  134.5939
 763  48.96513
 764  60.4363
 765  98.44044
 766  134.5177
 767  201.1014
 768  254.7763
 769  249.9381
 770  102.7744
 771  21.37472
 772  -11.09047
 773  59.68871
 774  20.66053
 775  14.37959
 776  40.99075
 777  76.61947
 778  176.4719
 779  135.0057
 780  177.2703
 781  83.0889
 782  65.00537
 783  162.906
 784  178.3172
 785  218.9443
 786  151.9515
 787  186.2951
 788  191.2307
 789  276.5903
 790  341.713
 791  274.5957
 792  189.0594
 793  188.0774
 794  300.4089
 795  319.4643
 796  258.0994
 797  113.863
 798  43.43251
 799  36.5003
 800  109.0977
 801  49.91062
 802  68.12094
 803  74.69617
 804  163.266
 805  85.18518
 806  118.2925
 807  212.7787
 808  329.1487
 809  330.0233
 810  253.3148
 811  207.1147
 812  219.2764
 813  245.8984
 814  236.5899
 815  253.8086
 816  142.4951
 817  117.1102
 818  96.76354
 819  192.8215
 820  247.053
 821  300.4965
 822  264.1199
 823  287.8825
 824  344.515
 825  504.7755
 826  411.6541
 827  223.6388
 828  89.3669
 829  84.29192
 830  78.88072
 831  120.2037
 832  178.0034
 833  261.9284
 834  249.0191
 835  230.512
 836  164.6396
 837  166.4082
 838  141.5647
 839  167.4699
 840  206.9604
 841  207.7987
 842  87.05381
 843  20.5469
 844  37.56678
 845  144.6139
 846  208.4596
 847  168.3867
 848  122.3264
 849  46.60481
 850  64.74144
 851  100.8696
 852  78.37917
 853  158.7157
 854  228.7541
 855  251.9985
 856  268.6502
 857  259.7158
 858  217.7183
 859  193.9375
 860  217.1943
 861  314.7731
 862  366.7668
 863  330.5554
 864  239.2361
 865  189.7574
 866  163.2989
 867  231.2059
 868  261.8344
 869  228.1956
 870  158.6882
 871  81.78977
 872  82.66995
 873  90.43012
 874  195.8115
 875  214.0495
 876  167.2818
 877  103.1276
 878  180.6655
 879  196.1225
 880  230.0647
 881  169.045
 882  204.3012
 883  174.0965
 884  184.4402
 885  239.2735
 886  234.6919
 887  224.8534
 888  187.7588
 889  196.1731
 890  189.5841
 891  106.2995
 892  90.35327
 893  224.6217
 894  318.1092
 895  374.5014
 896  262.2765
 897  183.6434
 898  136.7821
 899  19.62657
 900  95.52439
 901  145.3944
 902  168.6909
 903  78.0038
 904  93.37138
 905  200.6226
 906  228.2844
 907  232.2424
 908  202.9564
 909  230.5856
 910  173.5952
 911  124.0848
 912  123.0002
 913  198.7405
 914  213.0601
 915  207.3861
 916  123.5693
 917  185.1891
 918  146.4465
 919  106.9044
 920  106.5637
 921  283.4144
 922  286.7445
 923  297.7701
 924  148.7984
 925  173.5827
 926  122.2495
 927  140.4083
 928  78.96507
 929  -15.98341
 930  -15.91808
 931  13.5117
 932  132.1911
 933  176.282
 934  177.1915
 935  141.3221
 936  147.0759
 937  318.5039
 938  369.2239
 939  394.0898
 940  323.2034
 941  251.0185
 942  252.9404
 943  252.8488
 944  330.9455
 945  300.9188
 946  305.8219
 947  265.2938
 948  248.9803
 949  236.6466
 950  250.712
 951  162.2391
 952  210.6082
 953  144.6045
 954  174.727
 955  110.6042
 956  193.586
 957  198.0681
 958  204.2251
 959  159.1419
 960  163.6471
 961  84.50303
 962  171.361
 963  209.0656
 964  274.5836
 965  152.5187
 966  125.506
 967  108.4131
 968  105.9141
 969  65.11201
 970  16.27588
 971  32.06984
 972  113.1757
 973  229.8357
 974  362.4464
 975  300.6366
 976  318.8756
 977  161.0149
 978  117.4047
 979  -22.03402
 980  -9.645279
 981  -17.13461
 982  54.45039
 983  143.7462
 984  221.0262
 985  290.129
 986  291.7589
 987  344.1816
 988  324.1369
 989  369.087
 990  289.0307
 991  157.0041
 992  131.9399
 993  199.3872
 994  361.1724
 995  258.2531
 996  188.4996
 997  198.2633
 998  223.1575
 999  265.0176
1000  273.1828
1001  327.3587
1002  243.7879
1003  170.9655
1004  160.1608
1005  201.1338
1006  200.5726
1007  239.1031
1008  250.0682
1009  211.0196
1010  154.1707
1011  155.5464
1012  99.60551
1013  65.33668
1014  144.4801
1015  237.6573
1016  307.0528
1017  241.7945
1018  200.528
1019  128.0792
1020  156.0279
1021  253.8865
1022  278.8194
1023  141.4063
