# Input file       =  1191796778.119522_cleaned.dat
# Candidate        =  PSR_0332+5434
# Telescope        =  AR
# Epoch_topo       =  58037.944411105578
# Epoch_bary       =  N/A
# T_sample         =  0.002
# Data Folded      =  7340032
# Data Avg         =  0.0289299860565474
# Data StdDev      =  2.27255748115788 
# Profile Bins     =  1024
# Profile Avg      =  207.463613896033 
# Profile StdDev   =  192.40390192778  
# Reduced chi-sqr  =  1.560
# Prob(Noise)      <  7.73e-28   (~10.9 sigma)
# P_topo (ms)      =  714.47936776755   +/- 0.000276
# P'_topo (s/s)    =  -0                +/- 1.45e-10
# P''_topo (s/s^2) =  0                 +/- 6.42e-14
# P_bary (ms)      =  N/A
# P'_bary (s/s)    =  N/A
# P''_bary (s/s^2) =  N/A
# P_orb (s)        =  N/A
# asin(i)/c (s)    =  N/A
# eccentricity     =  N/A
# w (rad)          =  N/A
# T_peri           =  N/A
######################################################
   0  184.9294
   1  206.5677
   2  220.4477
   3  274.1671
   4  206.9323
   5  215.5882
   6  171.5926
   7  236.0487
   8  273.616
   9  323.3476
  10  208.2035
  11  130.39
  12  -5.383497
  13  120.286
  14  179.0583
  15  275.8056
  16  214.1416
  17  241.6569
  18  374.188
  19  458.791
  20  407.2215
  21  258.9843
  22  242.4345
  23  202.4429
  24  210.987
  25  98.21551
  26  49.78605
  27  44.67607
  28  68.83588
  29  159.9552
  30  208.4177
  31  342.4414
  32  324.8241
  33  279.8878
  34  262.6368
  35  253.6998
  36  243.9952
  37  201.5358
  38  246.6092
  39  234.5572
  40  114.387
  41  164.1571
  42  238.0949
  43  272.9553
  44  221.2132
  45  233.0743
  46  325.2116
  47  295.0714
  48  231.0247
  49  234.9138
  50  245.897
  51  200.3427
  52  152.6608
  53  147.7881
  54  235.5835
  55  291.4731
  56  257.7072
  57  208.7866
  58  120.3178
  59  96.60126
  60  92.97253
  61  108.3117
  62  221.0206
  63  281.2262
  64  281.416
  65  268.0135
  66  192.5023
  67  188.5209
  68  146.9799
  69  91.24857
  70  137.0614
  71  159.3865
  72  212.4526
  73  218.7737
  74  146.6332
  75  38.76136
  76  -95.41234
  77  16.98241
  78  190.5116
  79  283.5935
  80  200.2638
  81  93.63028
  82  9.151742
  83  72.3465
  84  221.217
  85  313.1147
  86  235.0712
  87  189.4666
  88  157.9528
  89  202.6149
  90  227.8932
  91  168.2809
  92  222.4818
  93  221.3298
  94  335.8794
  95  258.4506
  96  197.414
  97  228.5131
  98  301.0351
  99  323.7216
 100  339.7601
 101  366.7073
 102  424.0233
 103  336.8068
 104  357.9512
 105  370.2663
 106  345.5415
 107  262.0942
 108  239.9525
 109  218.1451
 110  207.0276
 111  218.9466
 112  228.1455
 113  200.3927
 114  97.08029
 115  164.344
 116  255.7348
 117  222.3485
 118  103.3439
 119  147.9801
 120  325.4416
 121  363.5566
 122  221.0652
 123  103.5
 124  111.7342
 125  68.40478
 126  112.014
 127  162.4947
 128  249.4081
 129  182.8753
 130  181.5577
 131  103.4299
 132  153.4863
 133  181.3476
 134  219.455
 135  193.831
 136  163.699
 137  128.5352
 138  143.0353
 139  159.6112
 140  214.7747
 141  172.2237
 142  74.07323
 143  75.63155
 144  136.255
 145  55.22266
 146  -3.479168
 147  -44.75839
 148  62.38221
 149  6.948348
 150  -14.44108
 151  49.29745
 152  213.8878
 153  293.956
 154  272.45
 155  287.9778
 156  315.0016
 157  348.063
 158  292.9526
 159  327.7112
 160  289.4796
 161  200.6643
 162  121.9179
 163  38.48322
 164  148.8952
 165  179.1979
 166  291.9616
 167  324.2706
 168  390.4607
 169  278.6149
 170  138.722
 171  -5.332292
 172  64.63985
 173  161.0116
 174  281.9882
 175  306.3836
 176  255.0447
 177  213.6676
 178  163.7977
 179  188.8394
 180  283.8085
 181  299.4377
 182  287.8254
 183  169.8109
 184  80.36564
 185  120.2981
 186  194.6899
 187  266.096
 188  221.8607
 189  299.2805
 190  98.86701
 191  -41.71834
 192  -202.2552
 193  -81.13424
 194  103.5526
 195  274.3997
 196  288.4316
 197  261.8293
 198  236.7073
 199  251.4961
 200  264.1103
 201  154.6401
 202  108.8952
 203  85.24119
 204  95.58054
 205  52.50177
 206  67.48465
 207  161.8304
 208  233.4663
 209  200.2118
 210  166.7486
 211  166.1185
 212  157.5498
 213  184.2375
 214  163.2862
 215  153.3217
 216  161.7609
 217  177.6151
 218  339.3726
 219  360.0676
 220  298.7219
 221  153.3709
 222  84.61144
 223  191.946
 224  238.9279
 225  256.7499
 226  209.5031
 227  81.3768
 228  59.91497
 229  176.2423
 230  210.3696
 231  215.8245
 232  62.9217
 233  131.2646
 234  268.2784
 235  348.8474
 236  333.539
 237  267.4343
 238  298.1144
 239  298.8562
 240  281.2408
 241  284.0502
 242  273.9989
 243  269.817
 244  177.1935
 245  100.9632
 246  50.13768
 247  143.1583
 248  182.8906
 249  285.5247
 250  251.9559
 251  317.462
 252  274.9672
 253  287.8864
 254  207.2796
 255  238.515
 256  290.3307
 257  221.891
 258  177.9648
 259  83.83569
 260  238.6684
 261  212.7298
 262  300.904
 263  195.6696
 264  128.4495
 265  143.5179
 266  212.6601
 267  278.7851
 268  132.1179
 269  75.33674
 270  98.40659
 271  264.1306
 272  323.2878
 273  317.7133
 274  232.1202
 275  179.1239
 276  70.22797
 277  79.55855
 278  110.4584
 279  176.8182
 280  183.3695
 281  165.4115
 282  262.0028
 283  299.8023
 284  295.5036
 285  277.2075
 286  281.1089
 287  286.2209
 288  174.5254
 289  164.2612
 290  164.5541
 291  224.3552
 292  228.0148
 293  126.1559
 294  65.41254
 295  111.1421
 296  235.697
 297  282.3099
 298  305.8373
 299  302.6683
 300  302.2563
 301  188.6669
 302  120.5413
 303  99.70302
 304  112.753
 305  186.7956
 306  99.19568
 307  66.51418
 308  -21.91622
 309  35.92794
 310  109.603
 311  118.5004
 312  200.528
 313  219.9902
 314  244.0779
 315  249.4695
 316  257.4973
 317  274.2087
 318  136.8218
 319  66.83289
 320  50.0144
 321  47.45293
 322  44.16781
 323  69.93854
 324  110.8037
 325  134.3667
 326  117.7629
 327  47.15224
 328  108.7766
 329  165.1532
 330  147.0901
 331  45.11816
 332  20.29534
 333  49.18693
 334  -71.76729
 335  -63.21656
 336  -49.95343
 337  127.3717
 338  109.0624
 339  226.5807
 340  152.4097
 341  90.70126
 342  -23.97326
 343  -39.00573
 344  77.43649
 345  99.46905
 346  23.7487
 347  20.39408
 348  72.29819
 349  103.6887
 350  73.42963
 351  73.07371
 352  237.2945
 353  305.0518
 354  373.636
 355  342.8961
 356  294.4501
 357  260.0236
 358  312.2824
 359  239.4429
 360  172.3173
 361  110.054
 362  233.7386
 363  317.7124
 364  305.9977
 365  326.2432
 366  260.9694
 367  228.0825
 368  183.0846
 369  266.912
 370  257.0122
 371  260.609
 372  230.4722
 373  249.2695
 374  223.881
 375  186.0049
 376  218.61
 377  191.4176
 378  179.998
 379  35.59201
 380  -30.70798
 381  56.80492
 382  265.7198
 383  270.9337
 384  179.3353
 385  111.7647
 386  138.3004
 387  165.9925
 388  251.3085
 389  314.3235
 390  214.5769
 391  123.0164
 392  96.02074
 393  125.6303
 394  145.8644
 395  95.37743
 396  173.8419
 397  228.06
 398  379.7277
 399  229.3936
 400  149.4218
 401  77.25021
 402  149.469
 403  204.2923
 404  127.244
 405  48.65168
 406  86.58916
 407  100.9338
 408  176.7417
 409  134.7167
 410  206.3803
 411  255.1342
 412  253.2823
 413  300.6212
 414  351.7848
 415  324.8454
 416  224.4756
 417  145.1325
 418  216.3576
 419  307.5861
 420  303.5251
 421  280.5298
 422  128.8635
 423  112.9776
 424  49.96367
 425  175.2069
 426  262.503
 427  294.5653
 428  259.0791
 429  153.161
 430  138.1267
 431  68.72111
 432  101.9798
 433  209.4742
 434  225.8574
 435  169.8929
 436  162.5616
 437  218.6234
 438  203.5553
 439  138.6594
 440  100.6376
 441  66.73224
 442  99.91585
 443  58.64648
 444  75.32536
 445  69.37818
 446  161.3248
 447  257.6075
 448  260.019
 449  303.8148
 450  291.6212
 451  361.271
 452  307.9799
 453  266.385
 454  184.6193
 455  270.7945
 456  275.597
 457  287.0241
 458  192.4497
 459  121.2584
 460  154.4341
 461  135.2126
 462  198.9259
 463  211.081
 464  252.3146
 465  205.9492
 466  41.65529
 467  169.4453
 468  278.3384
 469  404.9267
 470  335.5173
 471  305.9905
 472  191.969
 473  130.2472
 474  89.57243
 475  54.57288
 476  107.4254
 477  60.99663
 478  107.355
 479  162.4381
 480  191.8445
 481  147.3304
 482  142.7744
 483  187.9583
 484  217.1214
 485  100.4986
 486  83.73959
 487  88.92014
 488  197.3769
 489  174.8181
 490  276.3685
 491  274.0765
 492  351.6264
 493  231.723
 494  96.97083
 495  45.70169
 496  191.5614
 497  325.2312
 498  375.7457
 499  302.1373
 500  287.9205
 501  206.4228
 502  130.5346
 503  129.8263
 504  170.6527
 505  104.8001
 506  29.69719
 507  24.91387
 508  124.1133
 509  170.2948
 510  229.7744
 511  293.2434
 512  276.7871
 513  194.1397
 514  123.322
 515  114.7603
 516  223.5235
 517  212.8214
 518  237.4421
 519  113.4033
 520  61.3824
 521  -22.25343
 522  34.92516
 523  108.5404
 524  144.781
 525  117.9857
 526  72.25749
 527  206.1247
 528  300.8243
 529  245.2946
 530  82.24768
 531  28.63577
 532  90.42664
 533  145.7563
 534  196.8169
 535  285.3172
 536  185.9443
 537  88.30683
 538  125.666
 539  294.0322
 540  416.1942
 541  264.478
 542  199.1893
 543  163.1581
 544  199.7503
 545  146.6655
 546  149.5397
 547  211.6729
 548  264.1971
 549  146.2085
 550  142.4589
 551  222.8202
 552  250.5104
 553  169.9722
 554  241.9305
 555  290.3025
 556  223.877
 557  74.01581
 558  -14.33192
 559  119.6824
 560  177.0456
 561  279.7148
 562  261.3311
 563  186.7113
 564  107.0821
 565  43.84809
 566  94.50495
 567  184.9901
 568  185.3401
 569  190.697
 570  181.6818
 571  240.6854
 572  222.7477
 573  116.4809
 574  31.22926
 575  57.8508
 576  135.4564
 577  181.7348
 578  186.8999
 579  217.3608
 580  128.149
 581  48.90694
 582  128.0557
 583  259.9365
 584  386.6343
 585  297.3127
 586  250.6617
 587  224.6263
 588  195.1971
 589  309.8819
 590  268.687
 591  304.7976
 592  185.5964
 593  239.5754
 594  273.2709
 595  247.944
 596  58.32799
 597  61.57667
 598  114.8851
 599  185.3969
 600  134.1042
 601  60.70535
 602  152.6773
 603  231.494
 604  231.3159
 605  228.7343
 606  234.106
 607  303.9272
 608  294.085
 609  177.2481
 610  188.9182
 611  198.0282
 612  284.035
 613  298.4442
 614  352.9827
 615  250.7324
 616  140.9888
 617  56.99767
 618  108.9036
 619  136.4148
 620  165.1274
 621  234.0325
 622  309.245
 623  288.7614
 624  316.2181
 625  312.2989
 626  427.9905
 627  490.4246
 628  508.5498
 629  588.6004
 630  658.8114
 631  795.7456
 632  830.1153
 633  879.7982
 634  988.9932
 635  1059.608
 636  1056.646
 637  1040.59
 638  1047.63
 639  1058.786
 640  1074.328
 641  1100.856
 642  1035.454
 643  785.3173
 644  572.6544
 645  404.1814
 646  422.6462
 647  344.9586
 648  300.0522
 649  242.3108
 650  249.9033
 651  212.9886
 652  179.7799
 653  245.138
 654  293.7802
 655  324.1414
 656  338.8269
 657  345.2941
 658  267.6316
 659  200.9131
 660  272.7729
 661  330.0686
 662  347.2547
 663  393.0374
 664  406.0348
 665  354.0114
 666  261.9123
 667  281.6089
 668  286.5657
 669  261.8781
 670  209.2689
 671  156.2354
 672  107.5766
 673  141.6383
 674  166.3528
 675  192.4735
 676  150.6946
 677  60.41891
 678  60.91127
 679  211.2966
 680  338.4472
 681  301.6323
 682  183.2571
 683  267.95
 684  397.3591
 685  407.7532
 686  326.7067
 687  229.7524
 688  384.0398
 689  386.5087
 690  337.2439
 691  132.6081
 692  75.19476
 693  86.16311
 694  172.0446
 695  193.4889
 696  261.2202
 697  225.249
 698  182.8324
 699  140.1666
 700  175.2698
 701  148.748
 702  228.7441
 703  132.8825
 704  241.3971
 705  242.7877
 706  269.7882
 707  270.1299
 708  259.7576
 709  266.5006
 710  218.9833
 711  253.6126
 712  353.4026
 713  374.9309
 714  193.819
 715  87.80184
 716  -40.07101
 717  90.72908
 718  102.6654
 719  189.9008
 720  117.7094
 721  211.6345
 722  270.1054
 723  263.34
 724  212.6141
 725  156.8037
 726  172.8467
 727  103.3674
 728  181.2549
 729  300.7101
 730  248.6173
 731  199.484
 732  129.3953
 733  196.616
 734  150.3423
 735  105.4475
 736  119.0978
 737  200.7536
 738  228.5382
 739  199.7585
 740  195.8163
 741  267.5445
 742  308.9708
 743  292.1111
 744  212.6014
 745  205.4878
 746  134.7306
 747  214.9189
 748  258.4711
 749  270.9073
 750  208.8287
 751  155.3935
 752  207.2971
 753  226.1346
 754  207.6548
 755  134.0773
 756  82.73284
 757  113.7569
 758  196.2914
 759  256.515
 760  322.6492
 761  325.3345
 762  231.1178
 763  146.3867
 764  79.07587
 765  69.62831
 766  111.8787
 767  133.7295
 768  181.951
 769  239.7777
 770  206.4157
 771  143.141
 772  64.01879
 773  144.0512
 774  191.3729
 775  180.2299
 776  65.96886
 777  26.99822
 778  43.43282
 779  129.5779
 780  109.7858
 781  155.1418
 782  189.2008
 783  255.3082
 784  206.1528
 785  88.88012
 786  123.013
 787  219.7165
 788  257.5204
 789  214.9749
 790  160.6542
 791  121.8911
 792  79.46584
 793  92.63178
 794  171.9167
 795  134.6417
 796  175.5411
 797  210.3492
 798  231.9212
 799  214.1919
 800  81.76358
 801  80.77962
 802  36.90091
 803  117.9176
 804  56.38705
 805  40.15068
 806  27.08767
 807  121.8055
 808  167.7948
 809  176.6443
 810  145.3843
 811  113.4032
 812  194.903
 813  177.2029
 814  257.6666
 815  288.9525
 816  337.0771
 817  205.5684
 818  112.0873
 819  116.6565
 820  171.2027
 821  163.3714
 822  77.84785
 823  33.19019
 824  -31.28854
 825  2.076102
 826  121.1323
 827  243.7294
 828  323.8839
 829  280.4055
 830  241.4195
 831  329.8044
 832  446.5214
 833  450.9295
 834  331.0735
 835  277.0953
 836  196.575
 837  149.616
 838  92.60479
 839  106.5344
 840  166.7808
 841  153.588
 842  130.3639
 843  98.6569
 844  216.009
 845  280.5242
 846  183.6559
 847  84.07333
 848  108.5758
 849  184.7007
 850  189.1735
 851  185.0785
 852  376.2718
 853  455.9691
 854  404.2294
 855  297.7372
 856  286.3557
 857  254.564
 858  194.4699
 859  146.2407
 860  331.9193
 861  306.7047
 862  294.7281
 863  173.4718
 864  226.0091
 865  210.7884
 866  238.0811
 867  220.5364
 868  260.5202
 869  133.8531
 870  225.5907
 871  399.5106
 872  516.6591
 873  405.2307
 874  279.5218
 875  245.7803
 876  202.8753
 877  152.4332
 878  119.3729
 879  199.1127
 880  222.3794
 881  177.9296
 882  167.2912
 883  134.128
 884  164.3691
 885  109.6249
 886  171.1596
 887  272.452
 888  242.6518
 889  113.1334
 890  76.3222
 891  206.5674
 892  319.3426
 893  323.4402
 894  203.9045
 895  247.7192
 896  197.8525
 897  225.7737
 898  286.2576
 899  367.3094
 900  303.4736
 901  228.7432
 902  207.7902
 903  238.5164
 904  173.6206
 905  157.4238
 906  210.9441
 907  284.6877
 908  292.5087
 909  350.2566
 910  263.743
 911  266.184
 912  142.3787
 913  98.552
 914  55.36943
 915  89.28064
 916  161.6636
 917  248.7574
 918  303.7522
 919  290.2864
 920  209.7699
 921  153.4163
 922  215.0191
 923  350.7354
 924  341.3621
 925  353.999
 926  229.0101
 927  183.2322
 928  100.9898
 929  118.4258
 930  98.35094
 931  115.9716
 932  222.5575
 933  400.5747
 934  448.6382
 935  467.5157
 936  348.9861
 937  323.817
 938  227.1656
 939  226.4828
 940  196.5422
 941  210.4862
 942  139.1752
 943  204.5014
 944  135.5897
 945  92.42268
 946  55.25624
 947  46.36859
 948  196.6616
 949  279.6775
 950  483.5403
 951  403.6797
 952  334.6628
 953  285.1332
 954  409.412
 955  363.9488
 956  294.5369
 957  196.8892
 958  280.3745
 959  295.5995
 960  315.7664
 961  253.8083
 962  211.703
 963  162.0811
 964  189.939
 965  162.3463
 966  174.5385
 967  118.223
 968  145.2073
 969  29.03076
 970  6.133833
 971  120.7371
 972  211.2094
 973  257.568
 974  262.577
 975  219.304
 976  145.0419
 977  213.8331
 978  320.2366
 979  343.6679
 980  159.6472
 981  95.04871
 982  211.6452
 983  238.785
 984  217.3877
 985  85.22495
 986  116.1304
 987  155.984
 988  149.4736
 989  196.2214
 990  217.1107
 991  271.9944
 992  227.839
 993  141.5215
 994  94.45512
 995  58.33163
 996  66.28705
 997  141.2196
 998  260.1476
 999  284.3018
1000  296.6674
1001  278.8611
1002  218.789
1003  148.5833
1004  83.31607
1005  225.5017
1006  192.3418
1007  228.5314
1008  243.0633
1009  349.7228
1010  284.4312
1011  229.7408
1012  120.5142
1013  211.641
1014  152.3122
1015  183.4812
1016  115.6569
1017  139.0447
1018  65.22365
1019  -26.13876
1020  -122.5048
1021  -44.47194
1022  70.29668
1023  157.9666
