# Input file       =  1191553201.113077_cleaned.dat
# Candidate        =  PSR_0332+5434
# Telescope        =  AR
# Epoch_topo       =  58035.125232790240
# Epoch_bary       =  N/A
# T_sample         =  0.002
# Data Folded      =  7340032
# Data Avg         =  0.0389674423848712
# Data StdDev      =  2.64800460156354 
# Profile Bins     =  512
# Profile Avg      =  558.571672847411 
# Profile StdDev   =  317.053631284851 
# Reduced chi-sqr  =  1.327
# Prob(Noise)      <  9.35e-07   (~4.8 sigma)
# P_topo (ms)      =  714.477809398649  +/- 0.00016
# P'_topo (s/s)    =  -0                +/- 8.45e-11
# P''_topo (s/s^2) =  0                 +/- 3.73e-14
# P_bary (ms)      =  N/A
# P'_bary (s/s)    =  N/A
# P''_bary (s/s^2) =  N/A
# P_orb (s)        =  N/A
# asin(i)/c (s)    =  N/A
# eccentricity     =  N/A
# w (rad)          =  N/A
# T_peri           =  N/A
######################################################
   0  148.8315
   1  86.89323
   2  460.6849
   3  698.3513
   4  567.5717
   5  144.8399
   6  399.6609
   7  554.8145
   8  361.7301
   9  504.6756
  10  534.4515
  11  423.1697
  12  593.2302
  13  592.7308
  14  564.7241
  15  445.4472
  16  385.0635
  17  411.2111
  18  874.0637
  19  613.3423
  20  707.8365
  21  710.0309
  22  866.777
  23  679.4022
  24  573.8239
  25  790.4878
  26  326.327
  27  452.5836
  28  784.7418
  29  735.7074
  30  540.5818
  31  682.9489
  32  501.9589
  33  581.1969
  34  668.5601
  35  644.9855
  36  323.8231
  37  51.86398
  38  356.5254
  39  689.8798
  40  1023.648
  41  692.521
  42  696.4861
  43  951.4501
  44  676.0552
  45  553.2351
  46  663.1082
  47  701.6192
  48  399.0357
  49  292.4523
  50  601.4019
  51  439.8849
  52  579.1529
  53  652.554
  54  677.8748
  55  659.7153
  56  519.7748
  57  321.6724
  58  444.2414
  59  574.8713
  60  512.8375
  61  560.0408
  62  781.1277
  63  855.6862
  64  822.6133
  65  567.0928
  66  512.767
  67  1105.056
  68  651.8924
  69  360.3566
  70  539.4521
  71  678.7416
  72  581.8622
  73  537.1705
  74  550.4666
  75  646.9355
  76  740.7398
  77  970.0944
  78  726.7125
  79  411.1801
  80  389.6005
  81  364.0303
  82  374.8292
  83  382.2714
  84  750.5168
  85  712.2308
  86  474.2343
  87  260.8309
  88  748.5113
  89  671.1295
  90  559.485
  91  668.051
  92  825.5016
  93  632.7968
  94  733.7576
  95  565.1262
  96  183.2256
  97  62.69815
  98  381.5345
  99  498.8038
 100  620.1404
 101  905.8935
 102  832.7726
 103  736.8938
 104  606.7253
 105  709.8552
 106  815.3651
 107  457.8191
 108  403.9966
 109  839.7537
 110  675.8395
 111  517.986
 112  679.746
 113  874.885
 114  914.0179
 115  774.1089
 116  486.0992
 117  629.9128
 118  673.6663
 119  667.9007
 120  181.0263
 121  49.27546
 122  411.3037
 123  378.7043
 124  415.6283
 125  379.9378
 126  347.1465
 127  242.1428
 128  237.3943
 129  429.3264
 130  803.6357
 131  436.5717
 132  175.2589
 133  191.7208
 134  307.3354
 135  540.1789
 136  220.4933
 137  289.2402
 138  457.8143
 139  708.7208
 140  527.9007
 141  572.9614
 142  653.2504
 143  726.2484
 144  673.1584
 145  544.3729
 146  472.8916
 147  327.4238
 148  147.024
 149  499.5573
 150  494.1473
 151  191.1383
 152  268.8701
 153  462.5846
 154  395.282
 155  113.5232
 156  -19.81041
 157  -13.66491
 158  8.991138
 159  41.05899
 160  330.1671
 161  280.0568
 162  320.8163
 163  327.9206
 164  458.897
 165  377.4819
 166  743.4929
 167  665.9764
 168  352.5347
 169  194.9802
 170  462.7835
 171  761.3816
 172  826.4956
 173  729.9933
 174  493.1292
 175  204.5143
 176  191.048
 177  505.029
 178  668.6129
 179  530.6466
 180  88.15076
 181  228.6164
 182  253.091
 183  216.2402
 184  437.0348
 185  919.539
 186  614.4015
 187  319.5591
 188  387.0305
 189  559.7365
 190  340.2081
 191  335.369
 192  528.6974
 193  556.8126
 194  410.4254
 195  526.127
 196  337.7048
 197  152.7643
 198  628.1237
 199  657.6585
 200  676.5961
 201  500.7797
 202  332.0426
 203  473.8481
 204  704.0561
 205  851.1279
 206  698.4196
 207  677.2989
 208  856.1585
 209  507.6228
 210  807.1561
 211  695.0532
 212  453.6011
 213  448.6447
 214  911.823
 215  819.0608
 216  661.9642
 217  654.1356
 218  886.448
 219  597.9149
 220  376.0288
 221  801.7484
 222  854.8445
 223  1031.034
 224  306.6971
 225  322.0511
 226  507.6403
 227  694.1953
 228  642.4459
 229  856.3121
 230  483.1147
 231  394.6908
 232  463.5432
 233  398.1913
 234  723.6513
 235  698.2559
 236  242.4278
 237  311.2829
 238  251.1021
 239  230.6913
 240  255.5247
 241  402.7597
 242  551.9848
 243  622.546
 244  384.5554
 245  295.9138
 246  294.3294
 247  729.296
 248  627.6837
 249  642.2308
 250  1006.219
 251  700.0853
 252  476.8915
 253  821.851
 254  950.9127
 255  780.9133
 256  750.8188
 257  725.6078
 258  598.2177
 259  729.5134
 260  617.8225
 261  560.5098
 262  332.0558
 263  304.838
 264  417.7507
 265  746.9277
 266  760.3936
 267  690.5126
 268  801.1453
 269  1115.045
 270  1548.818
 271  1925.92
 272  2501.411
 273  2290.595
 274  1767.128
 275  1308.016
 276  456.311
 277  379.177
 278  605.9537
 279  425.1083
 280  434.083
 281  393.1142
 282  682.9285
 283  643.9568
 284  696.0324
 285  685.2219
 286  721.4124
 287  1107.744
 288  1101.721
 289  1078.323
 290  691.9689
 291  819.4659
 292  805.6156
 293  801.8317
 294  448.1953
 295  509.3873
 296  915.929
 297  742.4416
 298  328.8517
 299  427.8647
 300  923.7357
 301  748.277
 302  667.8906
 303  798.8797
 304  525.9189
 305  446.5872
 306  904.1036
 307  875.6263
 308  601.4813
 309  447.6664
 310  234.9135
 311  320.4507
 312  256.5685
 313  698.3743
 314  876.9341
 315  524.7531
 316  690.0707
 317  493.1407
 318  183.1013
 319  446.3333
 320  1036.008
 321  653.8212
 322  375.646
 323  465.7858
 324  249.0164
 325  575.7101
 326  465.1086
 327  287.7226
 328  311.9612
 329  750.772
 330  858.3288
 331  955.3237
 332  616.0692
 333  476.4557
 334  595.5988
 335  592.2418
 336  683.0547
 337  707.5723
 338  446.4589
 339  844.9664
 340  572.1293
 341  490.2353
 342  540.7473
 343  357.6332
 344  736.9874
 345  858.6541
 346  446.4234
 347  607.3367
 348  514.1611
 349  809.8444
 350  759.9205
 351  1058.973
 352  714.0847
 353  510.4431
 354  684.6262
 355  304.8469
 356  333.6245
 357  988.4696
 358  855.787
 359  503.7731
 360  441.6128
 361  648.1722
 362  716.5276
 363  923.496
 364  823.4659
 365  909.3122
 366  668.0939
 367  651.1982
 368  593.644
 369  698.0463
 370  827.3253
 371  662.684
 372  870.6278
 373  890.2775
 374  737.4346
 375  410.8384
 376  142.2667
 377  342.5672
 378  508.7341
 379  555.3111
 380  863.5434
 381  694.9067
 382  289.1904
 383  293.1113
 384  513.8143
 385  546.5873
 386  878.56
 387  630.1382
 388  439.3194
 389  377.821
 390  491.9929
 391  573.9006
 392  335.8827
 393  218.2064
 394  457.9004
 395  650.4599
 396  472.7296
 397  387.9382
 398  617.9016
 399  347.2744
 400  451.2134
 401  472.8167
 402  436.1964
 403  -77.02058
 404  311.4173
 405  458.1759
 406  412.7538
 407  334.4748
 408  510.9701
 409  399.6133
 410  445.5363
 411  503.561
 412  508.6176
 413  534.7729
 414  674.5438
 415  753.471
 416  787.5391
 417  828.0354
 418  496.4703
 419  400.7746
 420  659.6925
 421  576.123
 422  588.407
 423  712.2183
 424  626.5707
 425  366.6702
 426  349.7159
 427  287.5847
 428  399.2485
 429  495.6514
 430  436.743
 431  594.4225
 432  625.3675
 433  454.63
 434  379.592
 435  338.7665
 436  416.2067
 437  403.0282
 438  607.0222
 439  687.8141
 440  509.7047
 441  530.2283
 442  433.1744
 443  445.0857
 444  599.6535
 445  268.4384
 446  68.08445
 447  406.136
 448  565.0532
 449  361.8257
 450  277.2478
 451  330.6819
 452  301.6827
 453  685.2941
 454  796.636
 455  512.8238
 456  634.4655
 457  306.6652
 458  283.7116
 459  352.9018
 460  222.3585
 461  469.7313
 462  857.1857
 463  1046.922
 464  709.6884
 465  1065.083
 466  906.0539
 467  698.9374
 468  533.989
 469  272.5891
 470  486.0793
 471  498.0018
 472  703.8618
 473  809.7006
 474  872.1281
 475  723.5804
 476  622.5968
 477  364.8045
 478  404.2964
 479  509.2377
 480  587.7809
 481  612.3707
 482  613.8867
 483  144.7334
 484  367.6237
 485  357.5673
 486  313.4622
 487  255.8087
 488  641.3992
 489  391.5784
 490  319.1369
 491  349.4864
 492  722.1142
 493  577.1225
 494  544.949
 495  514.9229
 496  514.721
 497  312.6254
 498  251.9177
 499  430.5446
 500  664.3215
 501  489.5016
 502  494.6433
 503  369.1311
 504  65.77504
 505  157.4484
 506  333.6608
 507  372.0777
 508  462.4535
 509  365.1764
 510  428.833
 511  214.4981
