# Input file       =  1191279866.119208_cleaned.dat
# Candidate        =  PSR_0332+5434
# Telescope        =  AR
# Epoch_topo       =  58031.961633324165
# Epoch_bary       =  N/A
# T_sample         =  0.002
# Data Folded      =  7340032
# Data Avg         =  0.0252966697215535
# Data StdDev      =  2.30598880803083 
# Profile Bins     =  1024
# Profile Avg      =  181.001673479416 
# Profile StdDev   =  195.234333188731 
# Reduced chi-sqr  =  1.243
# Prob(Noise)      <  1.47e-07   (~5.1 sigma)
# P_topo (ms)      =  714.475477767585  +/- 0.00026
# P'_topo (s/s)    =  -0                +/- 1.37e-10
# P''_topo (s/s^2) =  0                 +/- 6.05e-14
# P_bary (ms)      =  N/A
# P'_bary (s/s)    =  N/A
# P''_bary (s/s^2) =  N/A
# P_orb (s)        =  N/A
# asin(i)/c (s)    =  N/A
# eccentricity     =  N/A
# w (rad)          =  N/A
# T_peri           =  N/A
######################################################
   0  68.85567
   1  142.409
   2  159.2868
   3  197.9272
   4  203.8525
   5  206.3789
   6  268.1066
   7  264.8329
   8  262.9878
   9  166.4487
  10  189.7459
  11  232.6645
  12  260.5754
  13  215.7309
  14  123.2232
  15  198.8241
  16  182.0877
  17  103.5564
  18  -0.4330236
  19  129.9571
  20  294.219
  21  325.1
  22  298.8156
  23  231.75
  24  264.9645
  25  183.9842
  26  83.70203
  27  26.91018
  28  60.52433
  29  19.27558
  30  8.2498
  31  78.94779
  32  275.8042
  33  305.3905
  34  237.8978
  35  162.5661
  36  177.5671
  37  230.7701
  38  269.736
  39  233.381
  40  166.824
  41  119.6223
  42  43.50014
  43  37.15889
  44  72.32513
  45  108.2501
  46  227.2644
  47  125.383
  48  134.4364
  49  -37.32368
  50  71.35275
  51  126.8617
  52  289.0525
  53  237.9996
  54  302.4321
  55  268.8918
  56  262.1323
  57  94.05846
  58  -51.87663
  59  -113.6335
  60  -64.44364
  61  64.30779
  62  107.5346
  63  166.6354
  64  198.7446
  65  248.6403
  66  111.3748
  67  68.33012
  68  35.97201
  69  72.84426
  70  87.27889
  71  127.7134
  72  54.88206
  73  3.033406
  74  -45.14416
  75  57.752
  76  129.4151
  77  184.0212
  78  258.3731
  79  283.9376
  80  243.8509
  81  185.2032
  82  173.6991
  83  132.9581
  84  58.69869
  85  71.97335
  86  192.6811
  87  174.4356
  88  167.879
  89  145.1735
  90  162.6177
  91  112.1065
  92  19.66166
  93  -6.182295
  94  93.34005
  95  217.2464
  96  226.3697
  97  122.7703
  98  99.92586
  99  228.3119
 100  186.6923
 101  125.1119
 102  140.9932
 103  222.3064
 104  223.9928
 105  222.741
 106  282.372
 107  227.8734
 108  177.5686
 109  112.6799
 110  118.6511
 111  59.89559
 112  94.57041
 113  158.4704
 114  255.9461
 115  216.1921
 116  133.5201
 117  82.37837
 118  95.0976
 119  34.67837
 120  31.17057
 121  79.08008
 122  173.6662
 123  172.1625
 124  317.7094
 125  366.0184
 126  294.6633
 127  181.2365
 128  174.2088
 129  131.5597
 130  62.99029
 131  -16.82081
 132  65.12806
 133  152.4836
 134  212.3901
 135  262.391
 136  294.826
 137  345.7085
 138  257.2528
 139  146.8741
 140  25.00221
 141  109.7076
 142  248.4762
 143  278.2807
 144  256.0956
 145  245.2467
 146  196.3008
 147  109.9801
 148  133.6435
 149  196.4735
 150  321.455
 151  277.9212
 152  221.2163
 153  150.5314
 154  81.40292
 155  122.8002
 156  63.81006
 157  152.2253
 158  118.0261
 159  219.2868
 160  190.8022
 161  127.4142
 162  10.68266
 163  29.37703
 164  163.8102
 165  124.5943
 166  156.9949
 167  196.473
 168  238.4263
 169  183.2195
 170  193.5852
 171  200.8017
 172  216.5176
 173  187.7097
 174  270.6441
 175  223.151
 176  126.278
 177  -8.8733
 178  99.14272
 179  285.0526
 180  314.5237
 181  170.0582
 182  79.28244
 183  125.3624
 184  246.3065
 185  198.6916
 186  123.9919
 187  59.17361
 188  108.4774
 189  152.7179
 190  178.3269
 191  169.8044
 192  160.3454
 193  146.9365
 194  51.97506
 195  -93.17054
 196  -78.02629
 197  97.66773
 198  218.1064
 199  198.2389
 200  139.9404
 201  130.4284
 202  98.1011
 203  53.85614
 204  79.36606
 205  45.45077
 206  115.9927
 207  161.5296
 208  197.4574
 209  239.5282
 210  320.1251
 211  410.0624
 212  359.6314
 213  221.0861
 214  141.4845
 215  190.6792
 216  293.5655
 217  226.3773
 218  172.48
 219  10.33032
 220  11.17953
 221  116.1787
 222  162.0933
 223  147.8257
 224  66.66592
 225  186.1775
 226  214.3493
 227  192.0871
 228  170.7232
 229  220.3921
 230  190.8585
 231  66.71791
 232  3.939085
 233  33.03199
 234  161.7879
 235  179.063
 236  168.064
 237  54.60295
 238  98.32459
 239  114.3167
 240  144.582
 241  97.48943
 242  72.67117
 243  105.6587
 244  164.0468
 245  93.82465
 246  88.09377
 247  123.9559
 248  153.3925
 249  135.505
 250  84.08372
 251  91.1456
 252  138.2112
 253  200.1746
 254  263.5775
 255  220.5091
 256  72.71717
 257  -31.84169
 258  93.30933
 259  111.1029
 260  109.0144
 261  84.28114
 262  165.6358
 263  171.1021
 264  119.4582
 265  179.1569
 266  259.7666
 267  275.4564
 268  242.0845
 269  230.5051
 270  214.6384
 271  136.1605
 272  151.8482
 273  204.6706
 274  176.8501
 275  176.8318
 276  109.2758
 277  154.0264
 278  84.25473
 279  157.3233
 280  191.6615
 281  199.7626
 282  205.8098
 283  171.7927
 284  131.3813
 285  164.9244
 286  152.3818
 287  124.9535
 288  88.83549
 289  105.7074
 290  179.6238
 291  187.6917
 292  148.0535
 293  102.3886
 294  134.3089
 295  187.4832
 296  185.1768
 297  116.2134
 298  112.9477
 299  22.05788
 300  13.27356
 301  -11.65532
 302  80.46948
 303  109.4075
 304  28.28614
 305  14.84983
 306  41.33867
 307  122.4215
 308  184.5781
 309  233.2813
 310  176.0496
 311  159.1996
 312  75.25886
 313  126.9815
 314  192.3577
 315  267.3805
 316  261.349
 317  248.3661
 318  273.2372
 319  353.3951
 320  302.4007
 321  284.4409
 322  215.6432
 323  168.2582
 324  133.2086
 325  193.6808
 326  124.2169
 327  43.39244
 328  5.774512
 329  36.25506
 330  80.14577
 331  50.42928
 332  96.48676
 333  125.8974
 334  178.0394
 335  287.7275
 336  312.1467
 337  306.4053
 338  209.2176
 339  168.3643
 340  151.4202
 341  187.8348
 342  155.6917
 343  164.5283
 344  105.5707
 345  173.568
 346  134.9753
 347  122.4675
 348  33.0847
 349  9.205878
 350  76.34696
 351  118.7721
 352  98.80829
 353  92.3754
 354  104.623
 355  105.4047
 356  126.5738
 357  199.6555
 358  190.2538
 359  196.7086
 360  186.006
 361  135.4763
 362  107.6221
 363  104.8852
 364  179.3207
 365  130.6119
 366  138.1091
 367  184.5603
 368  219.8218
 369  185.9368
 370  145.0637
 371  124.3855
 372  164.2342
 373  174.9415
 374  144.7359
 375  46.5775
 376  9.563831
 377  73.88373
 378  98.7707
 379  22.24293
 380  41.48838
 381  164.6798
 382  195.1436
 383  41.01565
 384  -50.9874
 385  17.14903
 386  121.1135
 387  181.5002
 388  156.9374
 389  181.2242
 390  100.4148
 391  -31.57119
 392  -21.36595
 393  87.3966
 394  166.49
 395  159.6128
 396  212.4482
 397  267.863
 398  295.6646
 399  151.7465
 400  1.894747
 401  27.70392
 402  110.8058
 403  191.2702
 404  177.6102
 405  138.6236
 406  205.5497
 407  181.1281
 408  298.7184
 409  251.357
 410  210.7376
 411  160.2048
 412  162.6464
 413  243.5186
 414  315.0291
 415  343.1929
 416  190.1912
 417  8.202842
 418  8.865642
 419  45.67034
 420  168.5024
 421  213.7695
 422  203.6775
 423  86.82189
 424  134.2066
 425  175.2881
 426  182.7964
 427  96.03249
 428  69.15771
 429  77.42809
 430  36.30138
 431  49.02362
 432  93.86315
 433  161.9393
 434  149.945
 435  237.7309
 436  291.6824
 437  236.0618
 438  126.8027
 439  47.66448
 440  141.4349
 441  187.0235
 442  185.4148
 443  164.1415
 444  135.2987
 445  261.0847
 446  313.6328
 447  293.7656
 448  219.3302
 449  201.6897
 450  257.0902
 451  306.944
 452  390.3791
 453  313.4629
 454  277.9559
 455  254.5743
 456  356.1112
 457  316.9829
 458  280.3873
 459  258.5559
 460  280.7962
 461  180.0507
 462  187.9892
 463  197.0103
 464  270.1426
 465  222.4247
 466  214.5441
 467  188.0168
 468  131.8663
 469  104.4128
 470  79.57917
 471  33.95951
 472  0.037442
 473  14.10785
 474  67.50295
 475  87.59316
 476  171.9951
 477  254.4436
 478  238.9173
 479  124.3522
 480  136.6427
 481  208.042
 482  157.7014
 483  80.02866
 484  61.92668
 485  111.7671
 486  133.2794
 487  109.6805
 488  159.924
 489  222.7074
 490  216.1066
 491  188.9884
 492  84.71449
 493  61.20986
 494  115.4917
 495  178.9982
 496  349.2899
 497  367.4164
 498  357.7181
 499  264.0577
 500  302.697
 501  245.7951
 502  190.2182
 503  94.2935
 504  56.69431
 505  104.9687
 506  202.5084
 507  238.7642
 508  281.2111
 509  222.2782
 510  205.4922
 511  82.35911
 512  15.00377
 513  38.48654
 514  193.4051
 515  361.2289
 516  334.4
 517  152.7125
 518  133.8418
 519  232.3159
 520  296.0225
 521  217.224
 522  65.00202
 523  28.7893
 524  -4.215389
 525  58.62597
 526  113.6479
 527  215.1033
 528  234.5416
 529  277.2244
 530  284.3269
 531  212.811
 532  74.99796
 533  4.806464
 534  100.7856
 535  197.7775
 536  214.1553
 537  135.1348
 538  46.53666
 539  20.94297
 540  55.87561
 541  204.6473
 542  224.7097
 543  260.768
 544  174.4332
 545  318.8278
 546  351.2426
 547  253.5718
 548  85.3384
 549  53.51376
 550  94.90708
 551  181.007
 552  235.2339
 553  287.5145
 554  283.3194
 555  192.6139
 556  185.4008
 557  163.0674
 558  224.9282
 559  206.4716
 560  107.1637
 561  50.68902
 562  129.9903
 563  141.3089
 564  72.12453
 565  -19.7185
 566  79.75704
 567  224.0216
 568  265.0143
 569  267.6536
 570  227.2896
 571  261.2924
 572  210.0519
 573  151.9545
 574  1.644228
 575  24.02276
 576  138.4124
 577  279.6583
 578  262.6555
 579  235.2742
 580  154.564
 581  143.349
 582  166.944
 583  222.6246
 584  281.1834
 585  288.6221
 586  263.9387
 587  247.7232
 588  217.4293
 589  252.6684
 590  229.5641
 591  152.8122
 592  77.45221
 593  74.30609
 594  76.21706
 595  85.48546
 596  151.9132
 597  178.5388
 598  201.8762
 599  231.2044
 600  333.8163
 601  219.1747
 602  149.5466
 603  221.8422
 604  341.1355
 605  326.9763
 606  308.1152
 607  284.5194
 608  282.0169
 609  228.3145
 610  246.0067
 611  165.4295
 612  179.9115
 613  243.753
 614  174.4502
 615  49.95319
 616  5.505776
 617  122.3804
 618  196.7621
 619  225.4311
 620  211.9472
 621  229.5508
 622  269.1713
 623  265.3431
 624  278.3758
 625  262.0699
 626  392.6555
 627  439.2976
 628  399.8309
 629  281.5829
 630  322.5996
 631  444.2906
 632  562.2759
 633  689.4526
 634  798.8484
 635  874.3273
 636  806.6564
 637  848.489
 638  878.7395
 639  893.8416
 640  913.5265
 641  939.7681
 642  886.498
 643  756.3732
 644  561.3051
 645  415.0767
 646  334.8854
 647  331.4459
 648  273.9458
 649  138.0999
 650  41.09234
 651  32.53152
 652  64.43056
 653  109.1804
 654  66.37706
 655  49.61958
 656  113.5372
 657  226.8748
 658  260.1164
 659  212.6438
 660  206.0648
 661  191.2165
 662  292.5439
 663  334.1039
 664  424.6944
 665  334.4497
 666  375.5637
 667  389.3199
 668  393.7323
 669  379.0123
 670  264.754
 671  205.5627
 672  260.2863
 673  264.4495
 674  209.0755
 675  95.76507
 676  151.6133
 677  184.9901
 678  200.2054
 679  235.5524
 680  201.2724
 681  218.9716
 682  200.9084
 683  184.0841
 684  111.8934
 685  166.1134
 686  209.8817
 687  145.4724
 688  86.16676
 689  83.77979
 690  84.65007
 691  139.4175
 692  97.5441
 693  31.24769
 694  -53.83533
 695  63.38825
 696  138.3466
 697  183.998
 698  6.681394
 699  -111.6191
 700  -102.0647
 701  -17.1349
 702  137.5513
 703  263.3431
 704  280.8178
 705  283.3591
 706  153.9765
 707  232.8181
 708  217.547
 709  295.6675
 710  155.3719
 711  119.8809
 712  32.85461
 713  81.67989
 714  214.9784
 715  386.4226
 716  350.0457
 717  256.3358
 718  176.5654
 719  152.3238
 720  206.2074
 721  287.119
 722  412.4978
 723  401.605
 724  353.3618
 725  280.0987
 726  138.7282
 727  29.85003
 728  53.06954
 729  172.2878
 730  206.8002
 731  247.6823
 732  289.7275
 733  371.5742
 734  398.2004
 735  298.1686
 736  196.4898
 737  145.0119
 738  194.9912
 739  200.7828
 740  172.3128
 741  119.1643
 742  131.7666
 743  84.39478
 744  135.7385
 745  183.0055
 746  277.64
 747  277.2155
 748  255.6297
 749  126.4234
 750  242.397
 751  265.3587
 752  322.3507
 753  110.719
 754  54.55758
 755  40.32777
 756  88.88336
 757  180.7705
 758  208.9549
 759  259.9627
 760  232.9754
 761  156.6357
 762  110.358
 763  51.36708
 764  215.4095
 765  289.5744
 766  331.9015
 767  163.1803
 768  160.5258
 769  139.0242
 770  232.8558
 771  225.1573
 772  267.899
 773  323.7363
 774  317.8619
 775  330.5042
 776  298.1707
 777  267.0351
 778  171.016
 779  136.9984
 780  82.07204
 781  58.82051
 782  108.9096
 783  330.9385
 784  381.3284
 785  333.5166
 786  178.5253
 787  135.2292
 788  154.0572
 789  224.1724
 790  305.1676
 791  298.2227
 792  237.8871
 793  246.5214
 794  231.4284
 795  222.546
 796  221.9507
 797  275.1657
 798  368.3874
 799  279.9388
 800  267.7297
 801  275.9834
 802  261.0146
 803  267.6541
 804  139.6998
 805  58.87609
 806  -26.52258
 807  132.9018
 808  243.639
 809  275.8405
 810  246.7585
 811  273.1651
 812  264.1387
 813  121.8569
 814  26.41513
 815  -20.45009
 816  -10.52638
 817  12.36192
 818  28.20755
 819  10.25173
 820  -79.82832
 821  -40.18632
 822  66.51283
 823  250.9957
 824  311.9781
 825  322.648
 826  288.1532
 827  239.3303
 828  154.9447
 829  96.37745
 830  80.00676
 831  116.7944
 832  134.5574
 833  183.1904
 834  151.5232
 835  117.5147
 836  150.4627
 837  100.4058
 838  97.39911
 839  85.67497
 840  164.7381
 841  187.2881
 842  237.9816
 843  219.0934
 844  288.3802
 845  217.5863
 846  228.3217
 847  182.854
 848  159.0103
 849  114.9962
 850  152.897
 851  213.6329
 852  226.1505
 853  187.5762
 854  119.4663
 855  109.4408
 856  157.4815
 857  205.6682
 858  262.4146
 859  321.3878
 860  286.6669
 861  194.351
 862  116.3419
 863  215.5255
 864  275.6726
 865  367.9752
 866  346.8226
 867  314.1062
 868  194.9488
 869  133.3811
 870  122.9245
 871  170.812
 872  241.2168
 873  246.1767
 874  194.8425
 875  73.23511
 876  66.41149
 877  171.9192
 878  362.7558
 879  401.7027
 880  473.791
 881  303.0224
 882  141.2876
 883  6.74569
 884  113.0539
 885  165.568
 886  145.0957
 887  115.7711
 888  184.2004
 889  274.1991
 890  163.4312
 891  106.6976
 892  115.9776
 893  174.3202
 894  284.8812
 895  331.9127
 896  359.3419
 897  329.0928
 898  311.0651
 899  238.3428
 900  244.3116
 901  239.4313
 902  210.5825
 903  130.848
 904  134.6064
 905  192.6966
 906  192.6412
 907  133.0318
 908  98.19543
 909  166.8564
 910  291.4103
 911  359.0119
 912  254.0308
 913  135.1349
 914  134.4428
 915  156.9942
 916  186.3532
 917  169.1584
 918  151.4369
 919  149.9542
 920  39.8771
 921  -23.54162
 922  -17.72187
 923  167.3101
 924  179.742
 925  114.3459
 926  171.4657
 927  242.5596
 928  300.4832
 929  169.8227
 930  55.73528
 931  24.83913
 932  108.2363
 933  145.2739
 934  189.4304
 935  245.9947
 936  272.5601
 937  207.5359
 938  200.4132
 939  229.6736
 940  267.5363
 941  205.6224
 942  223.1411
 943  214.0694
 944  210.7375
 945  215.1288
 946  230.765
 947  159.0318
 948  98.50935
 949  174.9779
 950  316.2333
 951  306.7964
 952  237.828
 953  164.8842
 954  221.6811
 955  279.9687
 956  244.894
 957  191.3338
 958  146.3358
 959  251.2201
 960  370.3585
 961  346.5161
 962  301.0154
 963  102.5135
 964  53.38189
 965  5.400781
 966  25.05259
 967  0.50292
 968  23.62902
 969  30.696
 970  175.3816
 971  217.0908
 972  216.7188
 973  133.0526
 974  123.8439
 975  29.13532
 976  2.657484
 977  169.1339
 978  281.9628
 979  312.5429
 980  250.4212
 981  310.4382
 982  359.2277
 983  363.001
 984  282.1382
 985  156.7219
 986  121.9605
 987  43.18305
 988  138.5151
 989  139.6413
 990  190.2634
 991  276.2945
 992  363.5675
 993  286.3964
 994  87.3
 995  26.93202
 996  23.0845
 997  75.64468
 998  -14.6646
 999  -14.252
1000  83.10433
1001  210.2544
1002  253.9448
1003  285.4535
1004  355.7086
1005  309.7546
1006  111.3927
1007  23.73964
1008  102.9555
1009  198.023
1010  308.0613
1011  321.7965
1012  259.4507
1013  236.5443
1014  267.6754
1015  322.6287
1016  303.5409
1017  182.9545
1018  132.6395
1019  87.72865
1020  78.7257
1021  37.01871
1022  -36.11211
1023  19.38702
