# Input file       =  1191725510.105498_cleaned.dat
# Candidate        =  PSR_0332+5434
# Telescope        =  AR
# Epoch_topo       =  58037.119549832154
# Epoch_bary       =  N/A
# T_sample         =  0.002
# Data Folded      =  7340032
# Data Avg         =  0.064353766961306
# Data StdDev      =  2.86458059235493 
# Profile Bins     =  512
# Profile Avg      =  922.479333677367 
# Profile StdDev   =  342.984932268611 
# Reduced chi-sqr  =  1.418
# Prob(Noise)      <  1.31e-09   (~6.0 sigma)
# P_topo (ms)      =  714.479137031707  +/- 0.000289
# P'_topo (s/s)    =  -0                +/- 1.53e-10
# P''_topo (s/s^2) =  0                 +/- 6.74e-14
# P_bary (ms)      =  N/A
# P'_bary (s/s)    =  N/A
# P''_bary (s/s^2) =  N/A
# P_orb (s)        =  N/A
# asin(i)/c (s)    =  N/A
# eccentricity     =  N/A
# w (rad)          =  N/A
# T_peri           =  N/A
######################################################
   0  1232.29
   1  1433.906
   2  1848.427
   3  2080.564
   4  2394.013
   5  2797.2
   6  2927.383
   7  2770.604
   8  2390.5
   9  1791.139
  10  1357.033
  11  638.8943
  12  744.0247
  13  985.6671
  14  1103.31
  15  987.0779
  16  1057.293
  17  945.1082
  18  819.9519
  19  884.7519
  20  1117.375
  21  1111.947
  22  1212.038
  23  1150.095
  24  876.8921
  25  836.058
  26  737.6356
  27  825.4747
  28  977.5264
  29  1060.793
  30  799.4401
  31  790.6132
  32  915.4407
  33  1172.37
  34  1024.325
  35  843.8499
  36  981.3892
  37  907.2637
  38  992.6087
  39  1122.525
  40  941.2797
  41  788.7956
  42  751.3289
  43  835.1089
  44  777.9796
  45  822.5571
  46  864.148
  47  1201.755
  48  1081.705
  49  393.2893
  50  456.7793
  51  992.2135
  52  1102.717
  53  1376.206
  54  1150.459
  55  1088.416
  56  899.1793
  57  840.5314
  58  1155.194
  59  1280.068
  60  1236.928
  61  1341.257
  62  1252.677
  63  1257.741
  64  1464.249
  65  1032.964
  66  983.1448
  67  879.2814
  68  917.6176
  69  996.0425
  70  1076.885
  71  1037.481
  72  1154.428
  73  1156.832
  74  780.3763
  75  1007.521
  76  950.1697
  77  840.3497
  78  979.5676
  79  1232.594
  80  1195.672
  81  951.5956
  82  783.5116
  83  1019.415
  84  1078.659
  85  871.6504
  86  894.1696
  87  794.6195
  88  839.994
  89  532.5411
  90  413.6917
  91  723.3145
  92  792.5649
  93  856.9153
  94  859.7442
  95  1032.467
  96  1033.445
  97  806.5099
  98  592.862
  99  737.6259
 100  876.3696
 101  1030.731
 102  921.9854
 103  706.5898
 104  993.9579
 105  1012.297
 106  1181.925
 107  973.329
 108  1016.719
 109  1031.201
 110  729.2538
 111  1002.805
 112  863.2214
 113  884.153
 114  455.3352
 115  848.184
 116  746.5419
 117  990.1198
 118  883.2625
 119  835.4172
 120  563.7496
 121  787.6443
 122  757.017
 123  696.9128
 124  513.4105
 125  449.2803
 126  886.8595
 127  862.3711
 128  716.2778
 129  776.3538
 130  959.139
 131  939.9072
 132  799.3714
 133  1127.747
 134  1191.677
 135  1224.23
 136  864.2137
 137  674.9959
 138  667.6061
 139  1018.661
 140  1275.143
 141  891.8693
 142  880.863
 143  829.0499
 144  995.491
 145  770.2215
 146  858.8714
 147  965.9301
 148  995.7536
 149  1014.355
 150  1132.699
 151  1084.782
 152  886.9255
 153  596.0209
 154  458.8015
 155  843.9553
 156  898.5122
 157  909.1682
 158  874.9856
 159  839.1095
 160  688.494
 161  708.3117
 162  995.256
 163  754.8276
 164  422.2542
 165  544.6819
 166  547.657
 167  762.8851
 168  692.4679
 169  658.1694
 170  725.9242
 171  677.1243
 172  931.8945
 173  749.849
 174  532.2328
 175  965.3444
 176  934.6546
 177  902.2805
 178  722.2299
 179  321.11
 180  522.5768
 181  602.1271
 182  1218.554
 183  688.735
 184  315.8817
 185  427.7338
 186  464.9576
 187  380.0784
 188  769.4656
 189  581.7985
 190  795.5432
 191  861.7383
 192  584.1679
 193  740.9806
 194  954.4789
 195  1060.739
 196  913.1132
 197  422.2895
 198  629.9653
 199  301.3429
 200  717.3969
 201  701.8468
 202  827.2084
 203  862.0177
 204  632.0704
 205  613.1891
 206  527.7463
 207  511.5872
 208  582.0363
 209  775.7571
 210  732.2167
 211  553.3582
 212  887.3457
 213  958.8464
 214  979.2134
 215  927.6213
 216  1089.266
 217  1096.768
 218  984.2809
 219  622.5037
 220  601.3542
 221  904.4866
 222  887.9348
 223  993.0474
 224  1339.043
 225  972.2097
 226  988.7383
 227  1041.251
 228  933.7156
 229  1167.598
 230  1108.554
 231  833.3851
 232  942.6147
 233  1039.582
 234  754.4843
 235  1033.704
 236  777.6138
 237  874.186
 238  1155.774
 239  772.5742
 240  1189.43
 241  1232.649
 242  1095.321
 243  910.8727
 244  725.6014
 245  826.9426
 246  916.5092
 247  960.8737
 248  807.3645
 249  1015.36
 250  846.2621
 251  858.5451
 252  663.1406
 253  868.1837
 254  1102.953
 255  1082.128
 256  824.6207
 257  1144.263
 258  1037.296
 259  646.678
 260  703.5588
 261  898.7775
 262  710.9839
 263  748.668
 264  563.8396
 265  957.6645
 266  673.992
 267  651.1973
 268  732.902
 269  828.166
 270  894.999
 271  1071.154
 272  842.9465
 273  960.2052
 274  1013.276
 275  1362.212
 276  1300.716
 277  819.4824
 278  759.0625
 279  700.0873
 280  797.8624
 281  778.1789
 282  1091.116
 283  867.1885
 284  630.7438
 285  656.8639
 286  406.7547
 287  395.9275
 288  511.759
 289  913.4944
 290  857.0604
 291  776.9417
 292  886.8784
 293  1043.37
 294  895.6039
 295  1088.755
 296  1312.179
 297  1171.977
 298  1092.89
 299  958.5589
 300  1075.018
 301  1107.435
 302  924.5013
 303  714.0665
 304  741.1727
 305  979.915
 306  988.2509
 307  699.1807
 308  759.2107
 309  734.8588
 310  871.4367
 311  768.0482
 312  718.6473
 313  467.3164
 314  616.0634
 315  794.5435
 316  552.5231
 317  786.9747
 318  1121.069
 319  1117.36
 320  849.9664
 321  434.9132
 322  493.1759
 323  143.2496
 324  322.5595
 325  708.7701
 326  853.7867
 327  801.3429
 328  548.5867
 329  646.9532
 330  691.8067
 331  696.8868
 332  1058.161
 333  1153.676
 334  935.7632
 335  723.1797
 336  933.523
 337  1161.491
 338  942.9717
 339  739.5983
 340  830.5125
 341  1043.441
 342  1141.989
 343  770.4388
 344  1203.467
 345  1039.159
 346  525.6732
 347  673.1163
 348  720.5685
 349  846.0941
 350  985.0937
 351  930.6763
 352  749.162
 353  900.7914
 354  1021.192
 355  1024.212
 356  696.6594
 357  444.0898
 358  1109.804
 359  973.9266
 360  1235.093
 361  834.5194
 362  1065.109
 363  1246.77
 364  1222.119
 365  1255.64
 366  1249.581
 367  954.6077
 368  1209.005
 369  1273.225
 370  1073.376
 371  845.166
 372  1023.236
 373  772.3893
 374  626.1529
 375  894.6016
 376  787.7315
 377  629.3741
 378  828.7398
 379  953.4331
 380  706.8635
 381  308.3809
 382  669.5817
 383  1043.897
 384  1067.232
 385  1007.458
 386  857.7018
 387  919.3313
 388  933.5488
 389  854.2972
 390  706.4244
 391  544.2871
 392  706.8411
 393  603.756
 394  1015.214
 395  1077.29
 396  1212.33
 397  801.0068
 398  588.7948
 399  454.4261
 400  1109.377
 401  1109.873
 402  765.6957
 403  1001.175
 404  623.092
 405  808.1087
 406  681.1171
 407  774.908
 408  819.9743
 409  755.5516
 410  988.0023
 411  1115.352
 412  680.3162
 413  727.4146
 414  947.946
 415  937.428
 416  1223.98
 417  1372.59
 418  846.7903
 419  1053.685
 420  929.433
 421  1060.108
 422  934.4525
 423  985.2959
 424  772.454
 425  799.1916
 426  690.8015
 427  642.0234
 428  939.4862
 429  1042.292
 430  1324.708
 431  1119.928
 432  1388.862
 433  1411.291
 434  1237.249
 435  1227.85
 436  1310.027
 437  1052.536
 438  737.127
 439  913.9473
 440  1152.159
 441  1043.196
 442  1286.176
 443  1128.93
 444  1050.608
 445  852.1735
 446  1187.225
 447  1360.902
 448  1092.632
 449  1348.83
 450  1158.198
 451  1015.572
 452  945.481
 453  989.3515
 454  942.4931
 455  821.4948
 456  577.3792
 457  731.2487
 458  992.0115
 459  606.074
 460  743.8181
 461  588.4902
 462  764.1258
 463  819.007
 464  934.3556
 465  1448.073
 466  1380.941
 467  1218.847
 468  1162.196
 469  1447.85
 470  1519
 471  1298.545
 472  1125.067
 473  1163.739
 474  1141.766
 475  1100.164
 476  730.5651
 477  865.9366
 478  1027.172
 479  853.5775
 480  1036.931
 481  1030.911
 482  1077.674
 483  1275.915
 484  1113.241
 485  879.4993
 486  980.695
 487  754.8823
 488  837.2247
 489  911.6163
 490  1071.088
 491  1141.582
 492  964.2161
 493  839.1633
 494  1131.828
 495  980.9117
 496  789.2286
 497  942.6208
 498  1414.566
 499  1477.738
 500  1213.489
 501  778.4092
 502  633.1956
 503  704.7103
 504  762.0201
 505  748.9634
 506  987.9625
 507  823.4777
 508  927.877
 509  946.4342
 510  1008.263
 511  1021.773
