# Input file       =  1191294783.105678_cleaned.dat
# Candidate        =  PSR_0332+5434
# Telescope        =  AR
# Epoch_topo       =  58032.134283630534
# Epoch_bary       =  N/A
# T_sample         =  0.002
# Data Folded      =  7340032
# Data Avg         =  0.0402156718950469
# Data StdDev      =  2.69273777887307 
# Profile Bins     =  512
# Profile Avg      =  576.314831351595 
# Profile StdDev   =  322.409670430902 
# Reduced chi-sqr  =  1.063
# Prob(Noise)      <  0.155   (~1.0 sigma)
# P_topo (ms)      =  714.475919581349  +/- 0.000585
# P'_topo (s/s)    =  -0                +/- 3.09e-10
# P''_topo (s/s^2) =  0                 +/- 1.36e-13
# P_bary (ms)      =  N/A
# P'_bary (s/s)    =  N/A
# P''_bary (s/s^2) =  N/A
# P_orb (s)        =  N/A
# asin(i)/c (s)    =  N/A
# eccentricity     =  N/A
# w (rad)          =  N/A
# T_peri           =  N/A
######################################################
   0  597.0473
   1  424.5518
   2  886.8452
   3  855.0234
   4  588.236
   5  52.75954
   6  137.166
   7  303.834
   8  419.5239
   9  580.3537
  10  736.8773
  11  684.7868
  12  626.3564
  13  431.8521
  14  614.2189
  15  598.0492
  16  252.6093
  17  393.6541
  18  607.258
  19  551.0943
  20  351.8457
  21  443.4488
  22  293.4101
  23  109.7366
  24  269.2856
  25  375.8489
  26  841.1512
  27  583.2186
  28  378.6226
  29  656.5441
  30  586.0668
  31  580.5636
  32  466.3774
  33  681.2765
  34  386.5698
  35  674.8844
  36  529.8728
  37  516.7065
  38  548.848
  39  744.9775
  40  800.6384
  41  788.9868
  42  523.1985
  43  688.8343
  44  982.541
  45  440.1516
  46  120.5651
  47  299.0102
  48  480.0885
  49  518.3309
  50  320.7859
  51  281.5407
  52  687.811
  53  487.6939
  54  892.7994
  55  761.3885
  56  474.6349
  57  250.3262
  58  674.3298
  59  367.7265
  60  411.5859
  61  479.5405
  62  401.554
  63  778.576
  64  656.9691
  65  445.9104
  66  462.8483
  67  693.3502
  68  663.7934
  69  633.1299
  70  454.1626
  71  719.3899
  72  420.2478
  73  579.2467
  74  697.0521
  75  447.7767
  76  438.903
  77  339.5151
  78  479.3388
  79  552.6223
  80  420.3212
  81  466.4642
  82  679.8655
  83  408.0623
  84  294.235
  85  380.3067
  86  854.7617
  87  676.6794
  88  399.1344
  89  595.0558
  90  540.6617
  91  425.4806
  92  541.6954
  93  592.2305
  94  597.0722
  95  501.686
  96  472.2569
  97  470.4562
  98  504.0957
  99  758.0424
 100  789.3642
 101  675.9856
 102  681.101
 103  479.6208
 104  310.6755
 105  492.3415
 106  352.6905
 107  351.3964
 108  629.3525
 109  378.0181
 110  607.3593
 111  317.3002
 112  554.4185
 113  671.6244
 114  549.5944
 115  483.3651
 116  706.647
 117  706.241
 118  868.3972
 119  693.411
 120  505.5083
 121  199.2413
 122  119.3148
 123  113.1627
 124  236.3261
 125  763.9259
 126  753.1023
 127  898.657
 128  554.2515
 129  623.1271
 130  375.9342
 131  582.3533
 132  623.1753
 133  468.6969
 134  126.5142
 135  214.7364
 136  222.2532
 137  232.1604
 138  508.6717
 139  444.8635
 140  613.471
 141  581.224
 142  746.7181
 143  615.8813
 144  588.0573
 145  583.4725
 146  663.3538
 147  907.4835
 148  706.7987
 149  850.6804
 150  607.2365
 151  672.3373
 152  396.6739
 153  507.5525
 154  681.2507
 155  567.7124
 156  653.5072
 157  298.0846
 158  74.12242
 159  184.0038
 160  384.5181
 161  573.0949
 162  878.0496
 163  764.9437
 164  790.0784
 165  866.4782
 166  675.7327
 167  826.7445
 168  768.0974
 169  749.7357
 170  734.7885
 171  610.8052
 172  638.5859
 173  728.7996
 174  658.0867
 175  512.8154
 176  837.8083
 177  983.967
 178  692.9509
 179  585.5157
 180  468.1529
 181  -13.32594
 182  618.4365
 183  895.6252
 184  1064.188
 185  806.6713
 186  571.451
 187  636.8151
 188  372.4252
 189  221.6677
 190  754.8723
 191  848.5042
 192  869.9219
 193  457.4599
 194  376.9
 195  332.4488
 196  556.9317
 197  677.5951
 198  572.0756
 199  711.0404
 200  601.0783
 201  588.9626
 202  312.8626
 203  291.7369
 204  963.0383
 205  857.9742
 206  585.1561
 207  665.4398
 208  386.1674
 209  526.191
 210  594.6956
 211  519.8031
 212  629.4737
 213  656.1406
 214  575.8193
 215  498.7177
 216  574.7511
 217  507.3811
 218  606.8327
 219  546.0402
 220  464.0362
 221  673.2948
 222  523.3105
 223  567.84
 224  495.8477
 225  383.7339
 226  814.6973
 227  952.4449
 228  784.8447
 229  781.6748
 230  815.9206
 231  964.0284
 232  1034.321
 233  1120.796
 234  704.3354
 235  661.6934
 236  709.5474
 237  674.2404
 238  725.603
 239  869.0222
 240  1038.795
 241  543.7681
 242  538.6249
 243  740.9227
 244  803.5864
 245  577.4122
 246  226.2733
 247  361.1779
 248  312.5633
 249  603.2961
 250  565.3142
 251  347.3784
 252  611.9286
 253  723.884
 254  667.4177
 255  244.0807
 256  793.6689
 257  719.4891
 258  527.8395
 259  677.4344
 260  947.7599
 261  845.5715
 262  572.3658
 263  541.3307
 264  573.4485
 265  451.2703
 266  353.6237
 267  547.9421
 268  791.2903
 269  627.7234
 270  544.7552
 271  507.7525
 272  598.702
 273  573.98
 274  532.3683
 275  681.2332
 276  915.7155
 277  485.6314
 278  245.0051
 279  286.0742
 280  664.3301
 281  605.6409
 282  234.6743
 283  292.1936
 284  894.8742
 285  389.2372
 286  10.84749
 287  225.7224
 288  420.06
 289  758.3559
 290  753.3651
 291  563.6074
 292  429.1495
 293  697.6054
 294  936.302
 295  618.6834
 296  282.3233
 297  124.5977
 298  521.1068
 299  610.4487
 300  369.595
 301  627.4918
 302  951.1907
 303  777.9954
 304  393.5074
 305  729.6167
 306  460.7914
 307  409.2025
 308  828.6789
 309  660.3398
 310  306.8918
 311  354.3829
 312  615.6068
 313  534.537
 314  766.1251
 315  711.8487
 316  817.4251
 317  655.9012
 318  241.9554
 319  251.1567
 320  359.7845
 321  817.7965
 322  682.0516
 323  409.442
 324  433.9153
 325  435.4671
 326  679.6555
 327  432.0619
 328  306.3623
 329  610.9471
 330  622.8207
 331  578.3901
 332  805.3163
 333  600.9291
 334  668.4553
 335  547.2134
 336  641.0847
 337  731.6087
 338  740.7451
 339  680.2189
 340  465.051
 341  438.2777
 342  239.1925
 343  197.617
 344  329.0556
 345  839.4336
 346  828.025
 347  618.0867
 348  365.7007
 349  543.5311
 350  566.7869
 351  338.283
 352  465.8182
 353  672.8798
 354  668.3486
 355  627.5718
 356  849.6426
 357  514.4028
 358  256.8562
 359  314.1111
 360  387.4436
 361  372.2363
 362  502.2535
 363  666.0508
 364  562.8728
 365  748.3319
 366  441.0566
 367  465.0848
 368  509.6667
 369  573.4791
 370  438.3296
 371  675.9274
 372  511.3955
 373  330.198
 374  258.0013
 375  419.3801
 376  531.2803
 377  745.1949
 378  574.3934
 379  293.7143
 380  462.7287
 381  347.152
 382  264.4225
 383  622.8607
 384  768.5199
 385  663.6981
 386  656.9327
 387  480.9582
 388  349.3908
 389  474.7578
 390  580.5404
 391  579.7817
 392  342.5647
 393  328.1122
 394  547.4799
 395  437.1058
 396  588.8504
 397  495.8104
 398  456.1989
 399  753.3666
 400  760.8655
 401  655.1745
 402  659.3539
 403  269.1367
 404  562.5005
 405  506.3172
 406  590.14
 407  743.7741
 408  759.229
 409  637.1912
 410  602.2254
 411  657.1043
 412  454.3699
 413  500.7056
 414  643.0545
 415  761.2843
 416  478.1531
 417  530.7569
 418  586.495
 419  755.347
 420  890.8752
 421  861.9271
 422  522.9487
 423  379.6118
 424  329.3617
 425  559.7711
 426  796.6774
 427  438.0436
 428  191.9397
 429  289.7739
 430  465.1455
 431  398.0228
 432  377.8535
 433  379.86
 434  345.7264
 435  348.2
 436  322.295
 437  353.6093
 438  372.837
 439  285.7025
 440  465.219
 441  153.0065
 442  126.8662
 443  516.0669
 444  708.2318
 445  456.6629
 446  271.5107
 447  388.3163
 448  253.8187
 449  706.8439
 450  594.8925
 451  457.8904
 452  384.9251
 453  520.848
 454  448.5865
 455  660.3945
 456  527.9722
 457  604.5375
 458  556.616
 459  423.574
 460  479.7865
 461  498.3723
 462  493.1364
 463  456.6664
 464  316.7015
 465  624.6572
 466  686.9276
 467  635.179
 468  540.7181
 469  405.145
 470  442.1535
 471  686.0204
 472  822.6405
 473  922.7401
 474  801.127
 475  292.3332
 476  388.5932
 477  572.1169
 478  647.1985
 479  745.8005
 480  705.3972
 481  839.0456
 482  578.5558
 483  313.9742
 484  546.89
 485  890.7147
 486  738.4144
 487  677.6551
 488  662.2098
 489  572.7744
 490  645.27
 491  850.6418
 492  810.0139
 493  1138.678
 494  1151.338
 495  1119.259
 496  1489.745
 497  1993.178
 498  2110.526
 499  2050.097
 500  1821.92
 501  1335.826
 502  983.415
 503  878.7332
 504  871.762
 505  617.0756
 506  698.2908
 507  671.3946
 508  662.277
 509  876.2095
 510  516.2587
 511  499.0115
