# Input file       =  1191006699.107559_cleaned.dat
# Candidate        =  PSR_0332+5434
# Telescope        =  AR
# Epoch_topo       =  58028.799978096744
# Epoch_bary       =  N/A
# T_sample         =  0.002
# Data Folded      =  7208960
# Data Avg         =  0.0882475982631815
# Data StdDev      =  3.51945975408629 
# Profile Bins     =  512
# Profile Avg      =  1242.36963045734 
# Profile StdDev   =  417.616193658381 
# Reduced chi-sqr  =  0.762
# Prob(Noise)      <  1   (~0.0 sigma)
# P_topo (ms)      =  714.473596469815  +/- 8.28e-05
# P'_topo (s/s)    =  -0                +/- 4.45e-11
# P''_topo (s/s^2) =  0                 +/- 2e-14
# P_bary (ms)      =  N/A
# P'_bary (s/s)    =  N/A
# P''_bary (s/s^2) =  N/A
# P_orb (s)        =  N/A
# asin(i)/c (s)    =  N/A
# eccentricity     =  N/A
# w (rad)          =  N/A
# T_peri           =  N/A
######################################################
   0  1688.865
   1  1143.76
   2  781.5505
   3  1134.839
   4  1300.356
   5  1079.279
   6  1511.926
   7  1254.436
   8  873.5023
   9  803.348
  10  999.1219
  11  1435.412
  12  1416.327
  13  1645.033
  14  1471.296
  15  1487.201
  16  1104.947
  17  1276.864
  18  1365.42
  19  1239.158
  20  1050.267
  21  1473.32
  22  1624.106
  23  1198.625
  24  1158.542
  25  1159.556
  26  1238.937
  27  1168.785
  28  1343.868
  29  1373.548
  30  1345.221
  31  1334.737
  32  1367.366
  33  1355.896
  34  944.5349
  35  914.4041
  36  1057.148
  37  1340.311
  38  999.001
  39  1417.895
  40  1454.626
  41  1377.784
  42  1469.768
  43  1517.128
  44  1388.965
  45  980.7027
  46  1495.868
  47  1270.563
  48  1075.315
  49  1544.236
  50  1616.09
  51  1238.339
  52  988.0037
  53  1216.636
  54  1402.935
  55  1434.182
  56  1278.276
  57  1021.108
  58  1111.997
  59  1137.818
  60  1302.646
  61  1436.183
  62  1481.726
  63  1645.971
  64  1235.898
  65  1046.621
  66  783.8002
  67  1214.528
  68  1391.377
  69  1314.082
  70  1430.19
  71  1352.043
  72  1410.95
  73  1373.295
  74  1144.734
  75  1293.747
  76  950.3266
  77  900.5364
  78  1208.604
  79  1527.152
  80  1445.828
  81  1360.51
  82  1203.285
  83  1023.53
  84  1176.495
  85  1035.552
  86  1002.632
  87  1166.686
  88  1420.617
  89  1046.689
  90  810.6377
  91  1076.14
  92  1106.244
  93  1249.61
  94  1103.21
  95  1070.979
  96  1006.706
  97  1360.936
  98  1169.432
  99  1031.955
 100  1276.195
 101  1186.39
 102  1054.618
 103  1001.903
 104  1556.219
 105  1243.822
 106  1218.733
 107  1113.873
 108  1327.329
 109  1226.216
 110  995.5662
 111  1099.317
 112  862.8506
 113  1124.982
 114  955.8347
 115  1130.689
 116  1288.492
 117  1128.407
 118  934.3255
 119  1164.343
 120  1217.21
 121  1206.635
 122  1323.472
 123  1298.725
 124  1073.155
 125  1097.807
 126  1413.917
 127  1148.372
 128  1120.816
 129  1258.425
 130  1373.615
 131  878.1984
 132  705.7921
 133  1274.579
 134  1198.009
 135  1202.511
 136  1147.798
 137  1319.109
 138  1015.355
 139  1335.385
 140  1354.177
 141  1194.979
 142  1367.127
 143  1386.186
 144  1513.283
 145  1304.566
 146  1665.946
 147  1521.489
 148  1447.965
 149  1175.965
 150  1034.559
 151  1113.958
 152  1298.668
 153  1471.617
 154  1194.227
 155  1147.572
 156  1088.013
 157  834.9722
 158  868.7366
 159  1187.605
 160  1329.083
 161  1560.129
 162  1319.689
 163  1104.53
 164  1015.193
 165  1006.818
 166  1057.973
 167  1377.049
 168  1566.576
 169  1414.78
 170  1279.354
 171  1271.753
 172  1408.059
 173  1209.39
 174  1141.133
 175  1425.01
 176  1128.378
 177  756.3234
 178  1211.8
 179  1384.123
 180  1316.792
 181  1268.023
 182  1424.894
 183  1443.552
 184  1039.554
 185  1312.884
 186  1331.462
 187  1584.527
 188  1365.799
 189  1348.72
 190  1423.914
 191  1098.581
 192  1095.505
 193  1163.652
 194  1168.606
 195  1316.534
 196  1049.562
 197  1335.172
 198  1108.938
 199  1270.474
 200  1385.801
 201  1311.493
 202  1078.951
 203  1163.566
 204  933.7193
 205  847.8584
 206  850.4711
 207  913.1228
 208  1127.946
 209  1020.057
 210  879.3106
 211  1429.561
 212  1449.166
 213  1299.716
 214  1188.383
 215  1225.988
 216  1231.479
 217  552.7219
 218  950.4415
 219  1413.589
 220  1421.505
 221  1140.131
 222  1184.291
 223  1344.403
 224  960.4203
 225  1046.413
 226  1358.55
 227  1362.074
 228  1549.133
 229  1351.062
 230  1131.723
 231  1150.239
 232  1315.468
 233  1340.355
 234  1057.483
 235  1429.205
 236  1398.808
 237  1076.589
 238  905.3052
 239  1242.366
 240  1052.955
 241  931.3609
 242  1111.284
 243  789.4807
 244  964.0316
 245  1368.349
 246  1242.814
 247  1196.597
 248  945.8456
 249  1037.794
 250  1048.378
 251  1180.215
 252  1265.513
 253  1517.954
 254  1466.146
 255  1572.956
 256  981.1296
 257  868.5431
 258  608.2333
 259  650.5571
 260  857.2711
 261  1635.251
 262  1561.584
 263  1263.855
 264  1210.165
 265  1053.605
 266  1368.557
 267  1194.643
 268  1165.65
 269  1520.535
 270  1236.532
 271  792.5922
 272  839.6224
 273  1065.608
 274  1164.873
 275  1205.244
 276  1241.788
 277  1342.105
 278  1472.37
 279  1512.618
 280  1148.502
 281  1260.47
 282  1310.37
 283  1072.108
 284  1483.377
 285  1610.858
 286  1530.769
 287  1341.017
 288  1405.534
 289  994.1473
 290  1107.977
 291  1177.856
 292  1249.453
 293  1276.628
 294  1489.743
 295  1782.774
 296  1558.713
 297  1275.267
 298  1382.896
 299  1028.028
 300  1317.776
 301  1355.665
 302  1452.039
 303  1610.919
 304  1169.528
 305  993.7278
 306  977.1324
 307  1274.035
 308  1348.984
 309  1446.714
 310  1385.697
 311  1698.022
 312  1211.803
 313  977.5917
 314  1598.328
 315  1107.567
 316  1067.302
 317  1127.172
 318  1250.962
 319  1557.763
 320  1094.516
 321  971.2452
 322  1036.926
 323  1156.277
 324  1271.449
 325  1142.587
 326  1475.572
 327  1449.548
 328  1659.708
 329  1637.734
 330  1327.36
 331  995.1168
 332  1380.849
 333  1363.44
 334  1388.31
 335  1529.958
 336  1527.701
 337  1518.054
 338  1432.891
 339  1239.593
 340  1070.505
 341  1311.333
 342  1099.003
 343  1290.529
 344  1171.725
 345  1232.654
 346  1072.73
 347  1097.903
 348  1252.719
 349  1277.014
 350  1153.448
 351  1312.108
 352  1689.857
 353  1612.591
 354  1287.683
 355  1046.181
 356  1090.839
 357  759.0997
 358  914.6592
 359  1249.192
 360  1119.346
 361  1271.745
 362  1258.99
 363  999.5039
 364  625.1407
 365  824.2987
 366  910.5627
 367  1223.109
 368  1415.812
 369  1232.579
 370  851.2477
 371  910.6422
 372  892.1372
 373  823.3738
 374  1140.309
 375  1016.238
 376  1296.582
 377  1103.164
 378  1061.264
 379  1267.867
 380  1178.003
 381  1065.833
 382  1329.595
 383  1152.827
 384  924.7474
 385  1000.155
 386  1181.106
 387  814.9263
 388  989.5623
 389  1140.027
 390  1271.981
 391  1424.94
 392  1044.186
 393  1509.184
 394  1232.622
 395  1200.352
 396  1274.63
 397  1264.648
 398  1520.101
 399  1386.878
 400  1340.359
 401  1455.022
 402  1620.061
 403  1512.873
 404  1488.434
 405  1868.576
 406  1935.836
 407  2583.978
 408  2714.759
 409  2744.453
 410  2787.431
 411  2727.315
 412  1917.602
 413  1438.693
 414  1124.094
 415  1235.693
 416  1396.122
 417  1497.228
 418  1336.711
 419  1278.069
 420  1460.998
 421  1249.103
 422  1217.049
 423  1476.744
 424  1787.579
 425  1282.983
 426  1613.78
 427  1461.873
 428  1642.059
 429  1339.926
 430  1205.366
 431  1084.78
 432  1222.827
 433  1373.436
 434  1409.439
 435  1197.347
 436  1205.031
 437  1206.112
 438  1059.214
 439  911.6813
 440  1316.724
 441  1446.671
 442  1330.555
 443  1641.987
 444  1337.948
 445  1136.054
 446  1120.102
 447  1159.557
 448  1419.751
 449  1346.415
 450  1461.821
 451  1456.482
 452  1452.261
 453  1685.844
 454  1518.745
 455  1448.359
 456  1322.963
 457  936.2433
 458  1310.923
 459  1141.684
 460  1449.697
 461  1266.075
 462  1327.024
 463  1122.266
 464  957.2726
 465  1027.702
 466  1133.279
 467  1012.86
 468  1106.466
 469  1304.53
 470  1683.83
 471  804.7893
 472  1004.7
 473  1208.381
 474  1335.413
 475  1320.292
 476  1145.318
 477  1010.744
 478  1039.195
 479  1311.196
 480  1549.946
 481  1218.48
 482  1102.755
 483  1208.419
 484  1376.182
 485  1400.072
 486  1092.542
 487  732.1203
 488  899.2372
 489  1002.861
 490  832.118
 491  1152.34
 492  1115.226
 493  1340.891
 494  1169.076
 495  1063.075
 496  1070.716
 497  847.8336
 498  1321.617
 499  980.6826
 500  956.4456
 501  1161.001
 502  1108.981
 503  1020.541
 504  758.6816
 505  750.591
 506  921.7582
 507  926.5179
 508  1160.989
 509  1256.451
 510  1106.593
 511  1520.226
