# Input file       =  1191882929.123109_cleaned.dat
# Candidate        =  PSR_0332+5434
# Telescope        =  AR
# Epoch_topo       =  58038.941529202653
# Epoch_bary       =  N/A
# T_sample         =  0.002
# Data Folded      =  7340032
# Data Avg         =  0.028864027198454
# Data StdDev      =  2.2889367668349  
# Profile Bins     =  1024
# Profile Avg      =  206.646840796733 
# Profile StdDev   =  193.790638457516 
# Reduced chi-sqr  =  1.632
# Prob(Noise)      <  7.35e-34   (~12.1 sigma)
# P_topo (ms)      =  714.480063778411  +/- 0.000227
# P'_topo (s/s)    =  -0                +/- 1.2e-10
# P''_topo (s/s^2) =  0                 +/- 5.29e-14
# P_bary (ms)      =  N/A
# P'_bary (s/s)    =  N/A
# P''_bary (s/s^2) =  N/A
# P_orb (s)        =  N/A
# asin(i)/c (s)    =  N/A
# eccentricity     =  N/A
# w (rad)          =  N/A
# T_peri           =  N/A
######################################################
   0  292.9461
   1  232.2732
   2  121.7181
   3  151.214
   4  69.0071
   5  102.2366
   6  174.2939
   7  324.7509
   8  325.5262
   9  277.6875
  10  321.5376
  11  336.5717
  12  299.9968
  13  205.2606
  14  236.5387
  15  274.677
  16  320.4976
  17  301.1482
  18  351.7734
  19  405.9891
  20  367.5987
  21  238.4964
  22  115.2991
  23  166.0685
  24  222.8766
  25  315.2481
  26  255.8192
  27  296.2339
  28  232.3958
  29  162.687
  30  60.42243
  31  60.94065
  32  139.3593
  33  165.499
  34  164.0484
  35  202.4373
  36  177.6862
  37  112.3086
  38  138.3458
  39  125.7188
  40  84.93235
  41  33.22869
  42  58.35897
  43  24.6653
  44  28.40909
  45  49.26831
  46  90.02526
  47  22.57734
  48  49.15112
  49  102.7148
  50  119.7402
  51  104.3172
  52  161.9838
  53  143.2222
  54  122.6762
  55  57.33807
  56  106.7936
  57  142.9241
  58  262.4565
  59  325.3239
  60  334.132
  61  277.1709
  62  175.7718
  63  118.0161
  64  161.8788
  65  207.8838
  66  170.3617
  67  151.8435
  68  154.8355
  69  175.914
  70  111.7124
  71  117.8661
  72  179.457
  73  339.96
  74  389.5846
  75  343.3293
  76  305.4317
  77  211.0567
  78  130.8175
  79  110.2438
  80  85.47128
  81  141.896
  82  254.4914
  83  406.8699
  84  348.4316
  85  203.7326
  86  48.19146
  87  87.02202
  88  73.2583
  89  133.6794
  90  170.4289
  91  309.4922
  92  375.6924
  93  289.2897
  94  138.7607
  95  37.62049
  96  35.19596
  97  91.04655
  98  149.2402
  99  195.4466
 100  212.1017
 101  224.3025
 102  198.0585
 103  245.6036
 104  229.4875
 105  188.0448
 106  210.1632
 107  227.6884
 108  287.1557
 109  215.561
 110  106.9716
 111  85.3022
 112  188.5122
 113  226.9342
 114  225.4651
 115  193.6797
 116  186.8377
 117  109.408
 118  118.5821
 119  153.2958
 120  138.3145
 121  110.6378
 122  124.9776
 123  198.8365
 124  221.5131
 125  262.8343
 126  243.4727
 127  158.4155
 128  86.56227
 129  38.54027
 130  -22.54577
 131  -44.3247
 132  -49.81667
 133  44.82363
 134  143.2845
 135  193.9675
 136  201.8896
 137  220.9837
 138  211.9434
 139  164.9152
 140  40.56559
 141  82.26116
 142  97.49799
 143  136.338
 144  114.9771
 145  163.6389
 146  148.5892
 147  175.58
 148  211.159
 149  226.4087
 150  204.576
 151  271.6451
 152  284.405
 153  297.9844
 154  229.6236
 155  275.4428
 156  211.6129
 157  177.3943
 158  153.4999
 159  178.3721
 160  175.7076
 161  212.463
 162  212.2619
 163  283.9132
 164  183.483
 165  227.8188
 166  260.7379
 167  314.4532
 168  258.2629
 169  153.7979
 170  34.83391
 171  83.29774
 172  113.4441
 173  198.6939
 174  113.5741
 175  152.122
 176  91.88467
 177  9.607506
 178  -84.08018
 179  -46.28806
 180  -32.99068
 181  -33.51984
 182  43.39491
 183  121.936
 184  25.56339
 185  107.3882
 186  91.55955
 187  106.2409
 188  -70.66826
 189  -30.3546
 190  109.2461
 191  136.042
 192  206.5338
 193  201.2631
 194  207.9878
 195  171.2035
 196  174.2995
 197  146.8073
 198  123.9
 199  29.04578
 200  45.63105
 201  88.64744
 202  201.7057
 203  265.4331
 204  172.767
 205  151.5007
 206  124.9423
 207  154.0364
 208  149.7228
 209  168.2311
 210  187.6697
 211  188.8705
 212  174.0567
 213  171.0018
 214  236.4439
 215  187.8967
 216  106.4282
 217  37.23139
 218  118.7118
 219  120.091
 220  159.9125
 221  218.4274
 222  252.0632
 223  149.4333
 224  48.02015
 225  20.90728
 226  27.10196
 227  152.2506
 228  251.348
 229  216.7615
 230  147.5278
 231  136.1307
 232  209.0213
 233  212.6301
 234  149.1479
 235  71.51523
 236  -10.99549
 237  47.94304
 238  157.7312
 239  186.4992
 240  103.9436
 241  119.507
 242  264.5817
 243  323.1552
 244  268.8316
 245  195.9395
 246  134.2236
 247  78.00712
 248  66.48725
 249  203.4638
 250  267.3504
 251  242.9283
 252  134.4617
 253  153.935
 254  235.1042
 255  301.3048
 256  275.0293
 257  166.8409
 258  144.2379
 259  18.62208
 260  17.0772
 261  56.53558
 262  191.2938
 263  185.9728
 264  181.1347
 265  150.3425
 266  129.924
 267  57.69772
 268  48.94948
 269  30.78914
 270  89.26954
 271  98.08334
 272  116.2722
 273  27.08718
 274  36.26177
 275  155.2062
 276  116.3009
 277  99.47643
 278  88.62323
 279  135.7657
 280  128.8922
 281  157.1696
 282  208.1924
 283  146.5311
 284  100.1097
 285  80.49843
 286  190.6746
 287  205.1523
 288  185.9135
 289  85.56339
 290  40.36559
 291  36.11467
 292  122.8994
 293  191.503
 294  228.942
 295  202.4845
 296  182.4346
 297  201.3534
 298  259.0939
 299  202.4088
 300  170.061
 301  149.4035
 302  241.1351
 303  342.1362
 304  347.9273
 305  346.4441
 306  229.9542
 307  192.4427
 308  211.4763
 309  239.286
 310  243.3181
 311  212.7001
 312  220.4273
 313  134.0279
 314  60.47518
 315  -26.81285
 316  -60.5323
 317  -71.08723
 318  -53.77981
 319  117.3878
 320  222.2926
 321  232.4023
 322  167.546
 323  138.2274
 324  170.5663
 325  225.7758
 326  134.588
 327  113.9126
 328  185.2136
 329  297.9969
 330  310.0288
 331  311.7372
 332  352.2338
 333  274.8303
 334  169.904
 335  149.263
 336  249.2732
 337  254.511
 338  234.4061
 339  236.9215
 340  119.2481
 341  95.31169
 342  90.88298
 343  254.8757
 344  220.4399
 345  198.9212
 346  224.0193
 347  219.8043
 348  154.0347
 349  108.1495
 350  146.799
 351  145.7908
 352  121.4801
 353  147.3931
 354  168.5837
 355  177.0663
 356  266.5336
 357  364.0989
 358  323.9684
 359  203.4897
 360  115.6646
 361  61.63789
 362  17.26662
 363  24.92111
 364  97.48979
 365  184.7645
 366  286.7199
 367  344.1062
 368  461.7701
 369  463.7927
 370  440.4041
 371  397.6256
 372  386.9508
 373  412.4024
 374  300.922
 375  251.2855
 376  169.3342
 377  148.4261
 378  189.681
 379  304.0576
 380  310.1765
 381  225.79
 382  245.6563
 383  247.5735
 384  281.4745
 385  201.9083
 386  259.1292
 387  250.1818
 388  303.0844
 389  244.937
 390  239.4434
 391  264.698
 392  265.8383
 393  286.9853
 394  294.5264
 395  308.1149
 396  315.0263
 397  265.2325
 398  244.2243
 399  193.2074
 400  293.9822
 401  251.3975
 402  231.6785
 403  102.9056
 404  41.21143
 405  -63.54502
 406  -19.79635
 407  123.5177
 408  253.6902
 409  244.6749
 410  176.6757
 411  45.74982
 412  130.6248
 413  209.5803
 414  356.1414
 415  347.4655
 416  305.7086
 417  259.7382
 418  186.2074
 419  139.9462
 420  147.1814
 421  204.791
 422  263.2107
 423  127.0818
 424  81.17162
 425  45.78816
 426  214.9331
 427  250.9603
 428  299.6197
 429  167.371
 430  183.6728
 431  196.0487
 432  181.0741
 433  144.2982
 434  134.5199
 435  64.18637
 436  24.50852
 437  62.88177
 438  157.4071
 439  211.5396
 440  175.318
 441  79.73439
 442  -17.19468
 443  15.64476
 444  95.14548
 445  64.83659
 446  28.4548
 447  118.9447
 448  149.4694
 449  174.4024
 450  99.96141
 451  151.2663
 452  250.4724
 453  240.5345
 454  186.0226
 455  80.73428
 456  63.7823
 457  77.67551
 458  193.7475
 459  245.728
 460  154.5423
 461  53.42945
 462  76.46376
 463  197.0325
 464  298.7375
 465  278.2016
 466  182.5817
 467  163.2649
 468  122.1392
 469  187.3023
 470  194.9395
 471  262.18
 472  226.5433
 473  225.9816
 474  203.5766
 475  234.5248
 476  244.893
 477  283.0979
 478  246.1085
 479  254.8842
 480  147.6455
 481  54.07782
 482  41.65113
 483  190.3538
 484  244.1019
 485  253.9009
 486  243.0239
 487  280.8194
 488  222.0594
 489  208.8257
 490  167.6811
 491  235.3807
 492  179.8922
 493  206.6519
 494  158.5325
 495  95.24496
 496  75.36777
 497  236.4187
 498  375.2679
 499  430.8754
 500  385.7238
 501  415.159
 502  361.21
 503  248.4465
 504  261.61
 505  357.0253
 506  417.0305
 507  365.152
 508  251.7358
 509  235.9728
 510  168.5789
 511  110.999
 512  92.72945
 513  175.3563
 514  391.7432
 515  408.925
 516  331.8868
 517  303.1579
 518  274.5886
 519  303.8385
 520  182.2219
 521  170.6535
 522  160.4882
 523  238.1182
 524  288.7414
 525  338.903
 526  312.7386
 527  202.0343
 528  80.97424
 529  157.7405
 530  303.9578
 531  372.0881
 532  374.7675
 533  351.6841
 534  348.6531
 535  310.0732
 536  220.4549
 537  171.7186
 538  260.7396
 539  265.0402
 540  280.9338
 541  222.5568
 542  180.0599
 543  100.1402
 544  139.7324
 545  270.9944
 546  309.0128
 547  251.6199
 548  143.6173
 549  159.8368
 550  125.0993
 551  118.0222
 552  41.99574
 553  179.2021
 554  290.493
 555  319.2717
 556  184.969
 557  108.1259
 558  152.4887
 559  250.5344
 560  290.645
 561  224.7325
 562  238.6047
 563  255.43
 564  229.4639
 565  137.0127
 566  150.741
 567  150.2129
 568  270.757
 569  294.1347
 570  302.6038
 571  222.1032
 572  209.7631
 573  320.194
 574  279.179
 575  224.7852
 576  117.6542
 577  144.1305
 578  151.1567
 579  165.3874
 580  173.0077
 581  235.442
 582  235.7986
 583  208.0023
 584  124.2268
 585  162.8082
 586  194.0948
 587  234.3117
 588  238.3906
 589  264.2266
 590  190.31
 591  168.5452
 592  126.8597
 593  140.7168
 594  159.4394
 595  197.9757
 596  182.0396
 597  102.1793
 598  80.50589
 599  225.4338
 600  391.5601
 601  506.3011
 602  456.5274
 603  330.9812
 604  260.6863
 605  253.4014
 606  215.8524
 607  112.223
 608  55.06776
 609  161.8829
 610  150.7289
 611  178.8459
 612  224.0637
 613  356.9604
 614  340.7326
 615  276.1223
 616  234.614
 617  141.0671
 618  119.7839
 619  181.9568
 620  229.3869
 621  241.0865
 622  215.8878
 623  262.7703
 624  321.714
 625  337.9135
 626  346.2661
 627  328.0297
 628  397.5215
 629  422.7854
 630  528.8077
 631  657.6031
 632  835.9171
 633  897.9337
 634  1002.261
 635  1071.717
 636  1207.103
 637  1215.114
 638  1274.804
 639  1278.301
 640  1267.452
 641  1058.915
 642  846.7465
 643  612.0822
 644  502.9894
 645  331.7375
 646  291.4622
 647  199.3987
 648  268.6834
 649  260.3221
 650  180.0468
 651  52.2149
 652  125.3175
 653  239.9505
 654  324.9534
 655  318.8563
 656  340.1949
 657  362.2669
 658  367.4188
 659  283.7396
 660  204.6287
 661  132.4973
 662  73.64069
 663  62.73923
 664  121.0408
 665  238.2623
 666  192.1479
 667  246.3739
 668  260.6856
 669  321.5828
 670  443.3529
 671  500.1463
 672  534.4504
 673  440.0314
 674  288.6144
 675  108.3065
 676  -12.40706
 677  91.1507
 678  205.8304
 679  208.2991
 680  169.6431
 681  131.0524
 682  158.7819
 683  98.87041
 684  76.24562
 685  99.0607
 686  204.8831
 687  148.8438
 688  3.969052
 689  -20.82864
 690  23.78174
 691  62.88541
 692  63.63946
 693  142.8969
 694  144.4865
 695  64.69849
 696  110.3879
 697  168.7617
 698  239.6934
 699  273.571
 700  228.4565
 701  159.6733
 702  38.94298
 703  92.65511
 704  255.3205
 705  260.1729
 706  167.8869
 707  105.8136
 708  153.1678
 709  158.6007
 710  58.87204
 711  23.8003
 712  160.5537
 713  223.0499
 714  194.3264
 715  129.8402
 716  114.2952
 717  58.91095
 718  126.9613
 719  144.7534
 720  228.4253
 721  122.7694
 722  138.868
 723  215.1054
 724  371.852
 725  444.618
 726  450.4064
 727  362.6851
 728  355.154
 729  282.251
 730  268.4776
 731  202.6159
 732  154.8072
 733  123.4934
 734  173.2345
 735  168.7163
 736  178.7148
 737  242.7764
 738  330.6919
 739  249.4428
 740  165.5767
 741  94.42368
 742  128.7345
 743  132.7193
 744  150.1471
 745  212.9968
 746  169.4811
 747  179.5305
 748  134.6844
 749  186.9665
 750  172.2339
 751  138.2455
 752  121.4087
 753  121.901
 754  126.8032
 755  169.724
 756  204.2461
 757  240.6509
 758  151.0118
 759  180.5247
 760  272.9621
 761  349.8846
 762  196.3908
 763  154.5564
 764  153.7693
 765  242.9805
 766  236.8443
 767  166.9582
 768  133.1916
 769  26.47494
 770  85.25345
 771  189.7413
 772  315.1905
 773  295.7178
 774  274.6143
 775  370.4064
 776  381.4256
 777  261.7397
 778  105.9751
 779  37.72649
 780  -3.961037
 781  62.36528
 782  171.1572
 783  233.3889
 784  180.4055
 785  214.9409
 786  306.858
 787  360.447
 788  201.3532
 789  169.8216
 790  150.7054
 791  287.9247
 792  260.4852
 793  218.9527
 794  148.0496
 795  132.7416
 796  141.8629
 797  196.621
 798  178.7933
 799  186.4399
 800  130.9413
 801  168.8822
 802  103.9969
 803  170.8317
 804  188.707
 805  186.9461
 806  199.8845
 807  236.0857
 808  332.7429
 809  221.9263
 810  258.433
 811  337.0986
 812  395.3097
 813  374.6695
 814  302.9689
 815  207.8614
 816  148.2643
 817  251.7776
 818  296.9504
 819  272.3433
 820  244.6552
 821  245.6209
 822  221.8002
 823  195.1963
 824  212.3076
 825  199.8911
 826  184.814
 827  98.82894
 828  126.0825
 829  168.6891
 830  304.0593
 831  220.2467
 832  168.0487
 833  250.9633
 834  371.4439
 835  398.4606
 836  302.9351
 837  225.9539
 838  288.5028
 839  340.2237
 840  333.84
 841  218.6023
 842  251.0296
 843  313.0014
 844  372.4062
 845  268.2667
 846  176.3914
 847  227.5324
 848  342.6224
 849  342.8623
 850  230.2089
 851  190.093
 852  240.1522
 853  216.0059
 854  237.5907
 855  237.4621
 856  350.562
 857  451.2435
 858  420.2388
 859  245.367
 860  219.9141
 861  253.1634
 862  330.1159
 863  266.9876
 864  154.3382
 865  73.54209
 866  49.65215
 867  139.2956
 868  196.7289
 869  225.731
 870  343.2415
 871  367.9862
 872  366.9359
 873  321.4955
 874  292.8234
 875  266.3508
 876  202.0239
 877  141.5269
 878  161.7102
 879  113.7457
 880  102.3242
 881  89.08128
 882  138.1822
 883  196.7645
 884  293.3376
 885  371.5351
 886  349.3329
 887  258.557
 888  129.9339
 889  117.7273
 890  31.09655
 891  49.03595
 892  89.96158
 893  184.6734
 894  240.0964
 895  209.9902
 896  253.5149
 897  300.781
 898  284.6815
 899  170.3099
 900  129.0955
 901  173.9582
 902  242.3774
 903  242.4911
 904  293.4391
 905  334.8121
 906  338.0037
 907  177.5754
 908  175.4556
 909  182.5409
 910  238.0313
 911  214.9348
 912  275.688
 913  304.4391
 914  243.7336
 915  197.3663
 916  191.3678
 917  125.3178
 918  140.856
 919  246.5251
 920  402.0964
 921  408.3233
 922  259.3991
 923  204.9595
 924  276.0467
 925  244.7374
 926  191.6468
 927  23.93966
 928  103.1885
 929  96.16248
 930  68.69268
 931  28.12736
 932  -20.34616
 933  137.4131
 934  238.0882
 935  301.826
 936  192.2804
 937  56.11736
 938  29.54847
 939  71.72859
 940  89.45982
 941  159.4016
 942  148.5264
 943  106.9282
 944  93.19649
 945  139.5703
 946  228.8559
 947  197.9213
 948  173.4424
 949  169.3848
 950  158.7118
 951  172.7825
 952  181.4792
 953  219.2405
 954  216.6458
 955  202.0408
 956  267.3343
 957  337.4791
 958  314.7045
 959  287.9948
 960  271.1239
 961  336.3886
 962  275.1139
 963  182.5213
 964  122.7715
 965  131.0579
 966  142.1633
 967  122.4885
 968  217.0676
 969  267.182
 970  316.0931
 971  295.8495
 972  289.3239
 973  330.586
 974  222.1541
 975  215.1684
 976  167.1304
 977  188.4272
 978  27.21782
 979  69.40066
 980  139.1651
 981  287.8873
 982  242.3575
 983  226.4435
 984  177.5638
 985  209.2972
 986  340.2553
 987  412.7765
 988  400.399
 989  274.5823
 990  275.2154
 991  251.4612
 992  270.1872
 993  172.3616
 994  187.5584
 995  195.7575
 996  212.38
 997  243.6904
 998  181.6263
 999  232.0946
1000  226.8522
1001  321.8941
1002  256.9199
1003  145.3371
1004  113.2951
1005  127.8955
1006  161.3235
1007  160.6416
1008  126.8212
1009  142.2945
1010  68.71477
1011  69.24121
1012  -29.00457
1013  30.16681
1014  120.4312
1015  306.1047
1016  252.1543
1017  243.5059
1018  216.2366
1019  397.794
1020  352.969
1021  236.4366
1022  187.4948
1023  294.6746
