# Input file       =  1191467071.114228_cleaned.dat
# Candidate        =  PSR_0332+5434
# Telescope        =  AR
# Epoch_topo       =  58034.128357803565
# Epoch_bary       =  N/A
# T_sample         =  0.002
# Data Folded      =  7340032
# Data Avg         =  0.0459589970113093
# Data StdDev      =  2.71776813579589 
# Profile Bins     =  512
# Profile Avg      =  658.548010794994 
# Profile StdDev   =  325.406631066866 
# Reduced chi-sqr  =  1.235
# Prob(Noise)      <  0.000222   (~3.5 sigma)
# P_topo (ms)      =  714.477166657108  +/- 0.000159
# P'_topo (s/s)    =  -0                +/- 8.4e-11
# P''_topo (s/s^2) =  0                 +/- 3.71e-14
# P_bary (ms)      =  N/A
# P'_bary (s/s)    =  N/A
# P''_bary (s/s^2) =  N/A
# P_orb (s)        =  N/A
# asin(i)/c (s)    =  N/A
# eccentricity     =  N/A
# w (rad)          =  N/A
# T_peri           =  N/A
######################################################
   0  764.4169
   1  718.8578
   2  498.8533
   3  296.7941
   4  646.9347
   5  663.1657
   6  603.4203
   7  873.1951
   8  682.5103
   9  510.7421
  10  679.207
  11  474.4742
  12  587.7746
  13  682.381
  14  836.274
  15  787.259
  16  772.3815
  17  965.1279
  18  681.3187
  19  624.7183
  20  381.5643
  21  469.5949
  22  486.8608
  23  860.5437
  24  761.6833
  25  749.6354
  26  714.9922
  27  494.8539
  28  676.5912
  29  862.3456
  30  1004.271
  31  870.2507
  32  929.2837
  33  687.2859
  34  588.7126
  35  737.7072
  36  933.0277
  37  974.2614
  38  670.7839
  39  840.9131
  40  1066.867
  41  1010.216
  42  841.5032
  43  831.399
  44  1254.678
  45  931.4511
  46  684.1031
  47  728.2795
  48  923.7651
  49  874.1819
  50  850.4998
  51  803.2755
  52  460.4413
  53  594.2128
  54  512.6748
  55  289.9303
  56  158.34
  57  687.9348
  58  1085.934
  59  833.4522
  60  668.1791
  61  567.465
  62  425.4826
  63  502.0748
  64  526.6019
  65  718.645
  66  703.2221
  67  414.0423
  68  438.785
  69  400.5474
  70  545.4393
  71  682.4449
  72  774.6776
  73  673.6921
  74  588.6917
  75  829.7549
  76  442.6251
  77  540.5555
  78  633.2697
  79  629.0135
  80  679.7239
  81  712.6429
  82  647.5199
  83  596.4141
  84  1078.999
  85  1702.888
  86  2367.948
  87  2505.533
  88  2463.222
  89  2035.991
  90  1356.106
  91  1191.953
  92  842.6973
  93  1123.628
  94  568.8272
  95  506.8205
  96  872.5409
  97  758.4069
  98  558.4208
  99  896.4092
 100  1056.24
 101  718.9164
 102  595.6367
 103  851.7357
 104  1060.224
 105  878.6647
 106  881.9431
 107  758.268
 108  924.6904
 109  392.3975
 110  267.097
 111  593.4633
 112  896.178
 113  705.1052
 114  226.9428
 115  359.3041
 116  661.3059
 117  541.058
 118  796.8123
 119  778.8525
 120  667.2255
 121  618.9244
 122  646.5114
 123  678.8384
 124  486.8541
 125  569.1148
 126  379.4662
 127  534.7232
 128  711.8971
 129  551.158
 130  737.752
 131  714.4767
 132  780.9612
 133  665.3646
 134  475.0366
 135  551.4129
 136  104.8805
 137  256.8963
 138  592.2756
 139  865.4722
 140  799.0494
 141  502.8919
 142  537.1322
 143  820.954
 144  451.6453
 145  432.6198
 146  592.0426
 147  849.3859
 148  550.9266
 149  529.0203
 150  722.1594
 151  893.8253
 152  641.1595
 153  446.3552
 154  763.0437
 155  776.972
 156  450.6959
 157  207.8978
 158  343.801
 159  412.4232
 160  571.5026
 161  616.8715
 162  842.0483
 163  1052.012
 164  841.8991
 165  947.9083
 166  502.4287
 167  358.7369
 168  282.9342
 169  419.8706
 170  339.1582
 171  805.4141
 172  629.3141
 173  519.5535
 174  531.3645
 175  287.7934
 176  619.1777
 177  742.3265
 178  789.9971
 179  338.8827
 180  394.6896
 181  745.9899
 182  705.0628
 183  746.7208
 184  609.4247
 185  715.1102
 186  313.4492
 187  276.9426
 188  304.1201
 189  620.5665
 190  375.2706
 191  419.5041
 192  617.4497
 193  780.3893
 194  582.5518
 195  470.4215
 196  239.6953
 197  383.5726
 198  598.1083
 199  397.3958
 200  587.407
 201  432.3126
 202  287.1915
 203  456.6124
 204  475.5086
 205  550.9315
 206  571.6661
 207  744.2887
 208  764.9349
 209  575.4653
 210  543.5692
 211  845.7269
 212  630.49
 213  794.2742
 214  732.3087
 215  345.0439
 216  445.5651
 217  553.9853
 218  764.4097
 219  713.3173
 220  356.1359
 221  674.7109
 222  658.4615
 223  457.5861
 224  657.4921
 225  586.7046
 226  586.9977
 227  918.876
 228  917.7687
 229  142.3585
 230  -37.83443
 231  442.7305
 232  469.1702
 233  411.9399
 234  327.6432
 235  534.9039
 236  694.3522
 237  578.6554
 238  381.3865
 239  382.7785
 240  514.95
 241  490.9824
 242  1018.057
 243  814.2338
 244  573.3306
 245  272.8849
 246  192.1591
 247  519.0501
 248  457.5554
 249  559.9815
 250  692.9879
 251  799.834
 252  911.6841
 253  726.2892
 254  587.7805
 255  805.1805
 256  660.3972
 257  300.3893
 258  637.0594
 259  379.1053
 260  251.5812
 261  409.0185
 262  271.509
 263  613.1934
 264  665.5656
 265  424.1956
 266  320.7721
 267  540.6743
 268  845.723
 269  482.1378
 270  726.2517
 271  770.5948
 272  362.9293
 273  254.2178
 274  266.6912
 275  531.8109
 276  670.5982
 277  741.4648
 278  747.3064
 279  640.3027
 280  823.4299
 281  464.0736
 282  553.828
 283  942.7342
 284  965.0682
 285  899.305
 286  592.2277
 287  387.7067
 288  568.1685
 289  662.5992
 290  551.433
 291  690.7851
 292  870.309
 293  612.5811
 294  772.2087
 295  287.0759
 296  427.5057
 297  476.7696
 298  754.2581
 299  719.9022
 300  615.7693
 301  595.7153
 302  538.7287
 303  806.2978
 304  785.5411
 305  529.3906
 306  433.6531
 307  452.5237
 308  279.0085
 309  495.959
 310  604.4508
 311  530.4283
 312  573.4304
 313  509.2824
 314  327.6726
 315  747.6855
 316  950.7541
 317  1020.453
 318  1120.184
 319  943.3018
 320  580.6736
 321  352.0237
 322  380.1188
 323  631.8061
 324  724.5082
 325  906.8654
 326  836.0275
 327  807.3022
 328  865.468
 329  865.0628
 330  556.286
 331  768.6052
 332  802.8231
 333  604.603
 334  311.2005
 335  688.7609
 336  542.5561
 337  558.2228
 338  447.1617
 339  814.9677
 340  538.2753
 341  537.694
 342  356.0225
 343  559.6222
 344  615.2281
 345  438.8267
 346  459.5616
 347  483.3271
 348  533.9913
 349  683.4293
 350  694.4467
 351  583.0157
 352  606.7035
 353  837.7833
 354  781.6947
 355  477.6782
 356  544.2739
 357  518.9026
 358  668.8504
 359  498.4256
 360  297.3418
 361  480.4469
 362  874.9299
 363  683.014
 364  635.173
 365  952.7106
 366  811.8486
 367  790.6217
 368  443.6086
 369  729.8054
 370  780.8035
 371  742.2577
 372  559.6829
 373  674.1227
 374  411.4446
 375  395.2703
 376  517.3934
 377  654.2585
 378  597.7835
 379  529.9254
 380  706.8478
 381  700.0804
 382  709.3739
 383  821.6032
 384  710.0535
 385  1127.615
 386  806.433
 387  510.8209
 388  468.4645
 389  640.4429
 390  1021.39
 391  754.9982
 392  726.6929
 393  656.8831
 394  668.4271
 395  770.0649
 396  1039.229
 397  999.5643
 398  963.4581
 399  858.5477
 400  728.5792
 401  487.4066
 402  396.9486
 403  831.8458
 404  546.2991
 405  504.4949
 406  438.8994
 407  610.255
 408  586.9438
 409  297.2142
 410  343.1631
 411  80.31427
 412  322.6044
 413  846.5833
 414  635.8073
 415  472.4615
 416  400.4053
 417  479.461
 418  276.7673
 419  409.434
 420  684.0827
 421  966.0207
 422  1115.073
 423  848.4835
 424  652.8295
 425  478.1377
 426  804.2161
 427  758.1601
 428  891.3993
 429  915.3721
 430  630.7542
 431  383.8446
 432  399.4722
 433  856.7098
 434  887.0811
 435  986.3477
 436  666.7334
 437  718.569
 438  746.4384
 439  768.1669
 440  1041.983
 441  841.1119
 442  586.04
 443  319.8704
 444  818.25
 445  723.2153
 446  915.6308
 447  735.4465
 448  810.4553
 449  1005.558
 450  884.1411
 451  848.8079
 452  1049.703
 453  846.2479
 454  595.8638
 455  468.042
 456  913.8812
 457  733.7391
 458  415.9182
 459  548.816
 460  579.7526
 461  591.346
 462  665.2984
 463  903.5251
 464  1132.885
 465  817.3581
 466  857.7097
 467  702.6312
 468  845.5626
 469  968.7249
 470  938.4599
 471  833.03
 472  846.5795
 473  747.5491
 474  766.7947
 475  853.9583
 476  848.897
 477  471.1725
 478  719.6951
 479  613.4243
 480  605.463
 481  882.3115
 482  879.8773
 483  677.0323
 484  583.0488
 485  488.5446
 486  618.4146
 487  805.9553
 488  608.5791
 489  646.5698
 490  533.1898
 491  313.7704
 492  731.2346
 493  892.3824
 494  1004.187
 495  600.2363
 496  659.8762
 497  455.497
 498  793.1494
 499  663.8224
 500  494.4863
 501  375.9205
 502  491.9031
 503  747.8296
 504  567.374
 505  527.6188
 506  290.8807
 507  199.7345
 508  424.0601
 509  789.5045
 510  955.1081
 511  997.7589
