# Input file       =  1191179035.128983_cleaned.dat
# Candidate        =  PSR_0332+5434
# Telescope        =  AR
# Epoch_topo       =  58030.794607974341
# Epoch_bary       =  N/A
# T_sample         =  0.002
# Data Folded      =  7208960
# Data Avg         =  0.0807145814284341
# Data StdDev      =  2.88232882765297 
# Profile Bins     =  512
# Profile Avg      =  1136.42211547951 
# Profile StdDev   =  342.014763055235 
# Reduced chi-sqr  =  1.270
# Prob(Noise)      <  3.25e-05   (~4.0 sigma)
# P_topo (ms)      =  714.474758055406  +/- 0.000114
# P'_topo (s/s)    =  -0                +/- 6.15e-11
# P''_topo (s/s^2) =  0                 +/- 2.76e-14
# P_bary (ms)      =  N/A
# P'_bary (s/s)    =  N/A
# P''_bary (s/s^2) =  N/A
# P_orb (s)        =  N/A
# asin(i)/c (s)    =  N/A
# eccentricity     =  N/A
# w (rad)          =  N/A
# T_peri           =  N/A
######################################################
   0  1658.561
   1  1371.867
   2  1085.736
   3  1110.608
   4  1332.805
   5  1260.707
   6  1201.245
   7  1458.814
   8  1179.796
   9  832.4153
  10  659.8115
  11  1196.248
  12  1124.776
  13  993.4203
  14  1282.589
  15  1377.489
  16  1214.98
  17  1197.479
  18  1195.184
  19  1008.147
  20  979.5193
  21  1127.864
  22  1101.364
  23  1054.668
  24  1181.08
  25  1096.6
  26  997.0901
  27  1073.651
  28  924.8564
  29  922.3753
  30  1282.434
  31  1305.403
  32  1383.061
  33  1074.106
  34  1166.316
  35  970.1849
  36  963.3054
  37  861.4556
  38  759.2092
  39  879.5399
  40  1047.583
  41  1078.377
  42  970.9581
  43  835.9223
  44  785.8124
  45  859.2172
  46  870.1074
  47  1017.192
  48  973.0129
  49  1107.407
  50  1381.653
  51  1081.898
  52  916.3005
  53  1195.476
  54  1001.495
  55  790.7593
  56  994.4951
  57  1221.474
  58  1201.376
  59  913.1028
  60  821.5747
  61  1002.094
  62  1315.594
  63  1057.618
  64  1095.023
  65  1352.483
  66  1381.847
  67  1324.422
  68  1053.079
  69  992.3821
  70  969.1018
  71  783.8029
  72  1125.435
  73  1319.591
  74  1431.384
  75  1092.541
  76  955.3063
  77  1153.218
  78  1158.599
  79  953.1873
  80  1081.927
  81  949.4595
  82  1257.006
  83  1532.819
  84  1608.467
  85  1338.232
  86  1423.911
  87  1332.884
  88  1115.182
  89  1010.864
  90  1291.341
  91  1009.561
  92  854.6993
  93  883.8581
  94  1218.971
  95  1172.034
  96  1063.427
  97  1188.316
  98  1323.606
  99  1590.63
 100  1258.705
 101  990.7045
 102  915.8337
 103  1049.695
 104  1059.803
 105  1204.999
 106  1327.859
 107  1299.669
 108  898.7454
 109  953.2109
 110  1022.133
 111  1053.785
 112  1205.922
 113  1386.908
 114  1280.837
 115  1266.474
 116  1213.349
 117  1265.505
 118  1180.406
 119  998.8249
 120  959.2225
 121  1086.577
 122  1097.927
 123  1151.562
 124  1389.723
 125  1307.352
 126  1089.445
 127  1234.728
 128  1207.359
 129  878.1273
 130  1189.398
 131  1116.204
 132  1192.246
 133  1008.547
 134  1188.163
 135  1243.877
 136  1115.917
 137  1075.722
 138  1169.426
 139  1116.307
 140  1105.688
 141  1038.536
 142  1039.512
 143  1035.044
 144  966.5795
 145  1408.818
 146  1173.159
 147  1273.015
 148  1357.76
 149  1358.336
 150  1500.178
 151  1353.1
 152  1311.757
 153  1301.774
 154  1234.164
 155  1239.023
 156  1237.537
 157  1041.118
 158  807.1008
 159  896.9575
 160  1013.794
 161  1252.292
 162  1269.56
 163  1028.039
 164  1124.159
 165  1412.514
 166  1395.385
 167  1170.03
 168  1043.71
 169  1106.35
 170  1029.776
 171  1037.021
 172  1086.906
 173  1251.925
 174  1065.281
 175  909.9416
 176  1121.345
 177  1243.362
 178  1270.247
 179  1492.208
 180  1595.01
 181  1442.438
 182  1318.522
 183  1173.27
 184  1175.595
 185  1130.252
 186  1416.919
 187  1204.6
 188  1162.713
 189  1496.427
 190  1533.493
 191  1408.609
 192  1005.068
 193  999.8099
 194  1024.655
 195  1182.787
 196  1078.501
 197  1153.074
 198  1568.609
 199  1331.461
 200  1002.124
 201  881.5585
 202  977.3685
 203  1036.724
 204  821.4479
 205  900.0012
 206  1093.126
 207  1181.286
 208  1038.266
 209  977.795
 210  1053.123
 211  896.629
 212  1018.138
 213  1150.858
 214  1284.24
 215  1217.204
 216  1088.658
 217  1198.624
 218  852.2119
 219  746.5988
 220  1140.056
 221  971.8328
 222  1097.007
 223  937.5614
 224  743.4717
 225  896.5795
 226  943.1912
 227  1106.266
 228  1211.616
 229  1170.032
 230  976.217
 231  1085.761
 232  1027.063
 233  1254.879
 234  1542.99
 235  1285.517
 236  1158.836
 237  857.9728
 238  1004.492
 239  1222.545
 240  1252.603
 241  1136.751
 242  1086.91
 243  1120.405
 244  1018.037
 245  1103.637
 246  1089.38
 247  1060.906
 248  1295.024
 249  1290.103
 250  799.0144
 251  839.7451
 252  1019.902
 253  1005.757
 254  1051.021
 255  1236.442
 256  1373.181
 257  1155.543
 258  1198.495
 259  1099.271
 260  1015.753
 261  868.783
 262  1179.618
 263  1623.868
 264  1515.632
 265  1641.66
 266  1242.827
 267  1135.828
 268  922.5909
 269  1201.877
 270  1178.025
 271  1302.841
 272  1329.151
 273  1181.179
 274  1047.367
 275  1175.362
 276  1232.086
 277  1029.653
 278  1015.174
 279  1241.27
 280  1148.751
 281  981.3437
 282  1087.203
 283  1185.844
 284  1012.451
 285  787.8276
 286  1011.731
 287  1056.838
 288  1004.845
 289  1144.435
 290  849.9478
 291  910.5978
 292  1177.308
 293  1554.161
 294  1326.216
 295  949.5986
 296  836.5227
 297  932.4417
 298  1140.246
 299  1208.48
 300  1237.41
 301  1178.143
 302  996.9527
 303  867.7903
 304  1252.724
 305  1192.87
 306  1042.643
 307  1145.062
 308  1008.155
 309  923.6581
 310  1232.173
 311  1383.769
 312  1590.515
 313  1527.928
 314  1533.511
 315  1581.055
 316  1888.091
 317  2262.208
 318  2858.284
 319  3222.485
 320  3362.657
 321  3119.346
 322  2319.259
 323  1703.584
 324  1474.082
 325  1304.718
 326  1070.038
 327  1307.702
 328  1052.506
 329  1185.821
 330  1447.706
 331  1379.266
 332  1295.142
 333  1308.159
 334  1378.15
 335  1321.479
 336  1300.283
 337  1402.162
 338  1339.898
 339  968.6831
 340  905.7019
 341  1201.014
 342  948.577
 343  1071.289
 344  603.853
 345  864.6816
 346  1013.058
 347  1238.025
 348  855.6652
 349  1141.792
 350  1172.484
 351  1020.665
 352  1020.94
 353  1251.372
 354  1394.749
 355  1366.802
 356  1330.016
 357  1001.743
 358  913.1236
 359  867.1272
 360  726.7309
 361  1064.887
 362  1338.794
 363  1328.341
 364  1102.069
 365  896.293
 366  891.7768
 367  931.2564
 368  1148.664
 369  1087.667
 370  1057.839
 371  1357.056
 372  1328.032
 373  1095.474
 374  1028.63
 375  1268.012
 376  1414.55
 377  1475.735
 378  1371.85
 379  1107.247
 380  1098.67
 381  989.3359
 382  942.8925
 383  1437.209
 384  1297.47
 385  1325.915
 386  886.8394
 387  1022.734
 388  1184.829
 389  768.4256
 390  1007.061
 391  919.8282
 392  914.2026
 393  977.3517
 394  1201.829
 395  1185.952
 396  1318.5
 397  1203.403
 398  871.7966
 399  1123.142
 400  1236.778
 401  1245.592
 402  994.2482
 403  1208.326
 404  1200.366
 405  1296.584
 406  873.6306
 407  1039.063
 408  955.248
 409  920.3836
 410  1076.96
 411  1185.086
 412  1420.914
 413  1313.61
 414  1117.113
 415  877.2213
 416  856.5987
 417  750.6431
 418  830.9403
 419  681.9019
 420  865.2852
 421  901.9619
 422  642.0657
 423  611.1666
 424  792.4468
 425  948.9196
 426  845.6807
 427  724.1305
 428  953.1232
 429  1220.3
 430  1412.819
 431  1252.696
 432  1118.536
 433  1143.841
 434  1478.906
 435  1160.2
 436  1024.339
 437  1141.801
 438  1189.187
 439  798.972
 440  616.1224
 441  1110.677
 442  1048.315
 443  934.632
 444  1347.232
 445  1376.284
 446  935.0863
 447  794.0312
 448  529.428
 449  738.0219
 450  731.8293
 451  912.9897
 452  1103.554
 453  1229.378
 454  1352.43
 455  1142.009
 456  742.0456
 457  793.2957
 458  1214.337
 459  1144.592
 460  1215.047
 461  1182.511
 462  1115.742
 463  892.0956
 464  829.946
 465  863.2217
 466  1332.208
 467  1192.578
 468  1027.571
 469  1024.492
 470  1142.225
 471  754.0211
 472  757.963
 473  835.8434
 474  688.8387
 475  651.6347
 476  903.5486
 477  1310.462
 478  1305.808
 479  1033.138
 480  1018.279
 481  954.0615
 482  952.1965
 483  1051.052
 484  1029.23
 485  1005.422
 486  1055.674
 487  1378.864
 488  1377.645
 489  807.5223
 490  908.3466
 491  1113.502
 492  1311.436
 493  1123.64
 494  1027.734
 495  877.9065
 496  860.6274
 497  796.1458
 498  1167.047
 499  1205.269
 500  1196.624
 501  1231.293
 502  1007.975
 503  1250.705
 504  1050.477
 505  1107.477
 506  1167.387
 507  955.0776
 508  1047.022
 509  963.0699
 510  1000.887
 511  1437.518
