# Input file       =  1191609817.124128_cleaned.dat
# Candidate        =  PSR_0332+5434
# Telescope        =  AR
# Epoch_topo       =  58035.780510695928
# Epoch_bary       =  N/A
# T_sample         =  0.002
# Data Folded      =  7208960
# Data Avg         =  0.00173216633160013
# Data StdDev      =  2.94746424055468 
# Profile Bins     =  1024
# Profile Avg      =  12.0950292911088 
# Profile StdDev   =  247.306126012709 
# Reduced chi-sqr  =  1.046
# Prob(Noise)      <  0.151   (~1.0 sigma)
# P_topo (ms)      =  714.47789057828   +/- 7.56e-05
# P'_topo (s/s)    =  -0                +/- 4.06e-11
# P''_topo (s/s^2) =  0                 +/- 1.83e-14
# P_bary (ms)      =  N/A
# P'_bary (s/s)    =  N/A
# P''_bary (s/s^2) =  N/A
# P_orb (s)        =  N/A
# asin(i)/c (s)    =  N/A
# eccentricity     =  N/A
# w (rad)          =  N/A
# T_peri           =  N/A
######################################################
   0  60.08802
   1  -37.66636
   2  31.64803
   3  -121.5204
   4  -178.7825
   5  -85.73296
   6  76.68726
   7  71.93991
   8  25.28654
   9  47.15864
  10  77.29451
  11  -1.554942
  12  -62.57812
  13  -153.5394
  14  -194.7567
  15  -213.7453
  16  -100.0558
  17  -129.7004
  18  -163.0194
  19  -196.8346
  20  -88.54037
  21  15.13498
  22  171.4778
  23  191.7826
  24  251.5469
  25  54.59276
  26  -51.66054
  27  27.54471
  28  152.5909
  29  49.04528
  30  -8.299571
  31  -30.12361
  32  -24.7292
  33  -41.25613
  34  33.979
  35  99.86924
  36  134.1359
  37  128.4395
  38  260.9439
  39  340.8486
  40  314.5013
  41  127.9149
  42  53.0368
  43  107.8105
  44  161.3718
  45  123.4053
  46  218.0834
  47  258.8532
  48  327.3276
  49  341.9397
  50  264.9687
  51  35.58825
  52  -69.85471
  53  -78.56432
  54  -28.07011
  55  32.33954
  56  211.5644
  57  276.8601
  58  179.4
  59  126.4087
  60  152.2011
  61  206.7647
  62  178.9902
  63  166.8482
  64  201.6116
  65  179.1674
  66  39.19043
  67  40.29544
  68  -5.650124
  69  10.52806
  70  24.40592
  71  50.7529
  72  47.81514
  73  8.111863
  74  9.413219
  75  79.41241
  76  89.63031
  77  84.89608
  78  102.0537
  79  139.692
  80  114.3649
  81  33.53049
  82  -6.401402
  83  78.73324
  84  137.7245
  85  -27.85251
  86  -18.84939
  87  -156.1816
  88  -106.6133
  89  -32.14246
  90  127.2972
  91  31.22182
  92  19.30715
  93  -4.410275
  94  47.065
  95  28.00067
  96  23.15774
  97  73.91264
  98  118.2952
  99  201.9745
 100  122.366
 101  41.21117
 102  27.87668
 103  54.61555
 104  86.34232
 105  148.7409
 106  77.00799
 107  15.10388
 108  -0.9285059
 109  -75.35439
 110  -102.9388
 111  -23.03545
 112  159.3838
 113  183.9921
 114  116.2942
 115  -18.25887
 116  -18.43724
 117  12.95681
 118  47.0402
 119  -76.05772
 120  -133.0968
 121  -90.48648
 122  -89.14693
 123  -135.1941
 124  -117.636
 125  -29.30856
 126  182.6797
 127  273.0253
 128  139.0334
 129  78.25206
 130  65.43449
 131  58.37455
 132  -7.761239
 133  -105.4902
 134  -137.4374
 135  -82.73781
 136  6.530403
 137  75.43874
 138  43.79649
 139  128.6253
 140  165.9111
 141  177.2459
 142  237.8188
 143  195.5012
 144  116.3927
 145  34.19867
 146  75.24934
 147  73.33694
 148  95.9372
 149  66.16132
 150  123.3603
 151  41.71227
 152  32.19361
 153  -10.20762
 154  23.20181
 155  -63.14371
 156  -6.72741
 157  61.25553
 158  110.8556
 159  40.26865
 160  86.75584
 161  88.96653
 162  22.03269
 163  -109.699
 164  -58.63568
 165  -31.43589
 166  41.64917
 167  52.6194
 168  148.8098
 169  85.88068
 170  106.8124
 171  -42.34418
 172  -86.50433
 173  -47.28417
 174  17.2304
 175  48.87256
 176  47.43801
 177  47.54612
 178  -28.17853
 179  -32.43796
 180  9.380218
 181  -147.1074
 182  -96.89494
 183  -65.09723
 184  48.33005
 185  -104.985
 186  -217.9255
 187  -122.046
 188  28.3483
 189  121.3092
 190  49.47143
 191  -17.36905
 192  -82.90293
 193  -78.06271
 194  34.70931
 195  170.0459
 196  74.92432
 197  -18.06276
 198  -120.2339
 199  -112.793
 200  -190.4919
 201  -135.8537
 202  -106.9886
 203  -20.62189
 204  69.32681
 205  246.5957
 206  207.9043
 207  231.9138
 208  133.1409
 209  80.75653
 210  101.2285
 211  148.8805
 212  198.0148
 213  261.6795
 214  147.5181
 215  73.0837
 216  -70.20707
 217  -36.36235
 218  -73.79292
 219  -114.4855
 220  73.87443
 221  88.96356
 222  84.177
 223  -56.94119
 224  -13.32811
 225  7.757745
 226  30.58763
 227  57.62141
 228  54.52967
 229  -83.29919
 230  -126.5204
 231  -33.1818
 232  190.5732
 233  111.5972
 234  -47.2889
 235  -113.292
 236  -75.11828
 237  -93.34277
 238  -62.5171
 239  -40.0061
 240  2.032713
 241  17.72145
 242  65.46276
 243  -36.11567
 244  -179.0014
 245  -94.66511
 246  -18.49094
 247  52.07253
 248  87.85012
 249  73.95131
 250  139.6073
 251  27.11194
 252  11.2984
 253  5.343659
 254  -0.2589337
 255  -63.83161
 256  -57.84367
 257  -3.713338
 258  133.1895
 259  107.1644
 260  191.4232
 261  260.0528
 262  185.1546
 263  84.51559
 264  -5.540463
 265  -83.27584
 266  -143.6053
 267  -196.5968
 268  -104.7523
 269  34.72272
 270  25.5764
 271  -0.2222747
 272  1.038981
 273  2.612375
 274  -14.90348
 275  160.2849
 276  245.0728
 277  88.23488
 278  -50.05106
 279  -66.87072
 280  -126.9536
 281  -216.5756
 282  -141.6307
 283  -71.63771
 284  -175.7191
 285  -180.1572
 286  -129.2171
 287  -18.39864
 288  -19.93519
 289  -6.266082
 290  -55.16098
 291  -35.47652
 292  -82.48403
 293  -67.58502
 294  -79.36621
 295  -78.52612
 296  -96.86694
 297  -142.7565
 298  -130.5132
 299  -101.8789
 300  -11.89685
 301  71.11582
 302  -28.80628
 303  7.646198
 304  -16.34078
 305  -83.14442
 306  -183.8402
 307  -230.3805
 308  -124.0679
 309  -88.5872
 310  5.603074
 311  -41.94593
 312  43.28656
 313  71.37393
 314  100.3555
 315  48.58988
 316  -47.86931
 317  -77.26322
 318  -175.1222
 319  -83.73199
 320  -90.62639
 321  -147.44
 322  -197.1065
 323  2.040817
 324  62.59874
 325  33.86675
 326  -61.99253
 327  -104.7691
 328  41.81385
 329  102.0352
 330  94.64376
 331  45.26062
 332  53.90331
 333  -54.0462
 334  -128.8795
 335  -149.4375
 336  -41.3688
 337  -28.50033
 338  93.0922
 339  170.9574
 340  164.6084
 341  102.6884
 342  15.13416
 343  -60.9288
 344  -41.8213
 345  -35.85034
 346  79.53408
 347  83.27171
 348  -13.98096
 349  -205.2373
 350  -164.9377
 351  -118.3327
 352  -97.25681
 353  -66.82705
 354  13.45666
 355  62.93105
 356  12.13951
 357  -21.08641
 358  -18.45613
 359  -18.72424
 360  58.85646
 361  82.69028
 362  121.1492
 363  8.96666
 364  -150.7332
 365  -119.8908
 366  -122.3162
 367  -166.9596
 368  -102.8548
 369  64.75594
 370  64.18556
 371  38.49353
 372  115.759
 373  127.232
 374  93.92419
 375  47.32745
 376  21.57599
 377  2.132643
 378  -22.25635
 379  60.19307
 380  91.27909
 381  100.9558
 382  -24.03687
 383  -62.61242
 384  -81.53817
 385  -66.86204
 386  -74.95609
 387  44.45351
 388  81.46911
 389  -52.46582
 390  -69.15684
 391  -9.57125
 392  39.87095
 393  4.297851
 394  44.07349
 395  -15.12521
 396  -6.652462
 397  -82.4034
 398  13.78511
 399  31.40337
 400  53.41639
 401  -22.43843
 402  -52.84182
 403  -8.316757
 404  9.687224
 405  -0.1196367
 406  -8.394361
 407  -58.79551
 408  -95.84032
 409  -40.2651
 410  -74.42963
 411  -196.6351
 412  -263.2074
 413  -167.6359
 414  -142.522
 415  -159.9965
 416  -146.0509
 417  -113.9918
 418  -52.34707
 419  -66.83652
 420  -29.73846
 421  6.759754
 422  33.48276
 423  114.8078
 424  186.8974
 425  198.9021
 426  76.94094
 427  72.89536
 428  139.8475
 429  81.94317
 430  98.89828
 431  -6.081147
 432  -67.60574
 433  -178.2945
 434  -146.9419
 435  -94.78256
 436  -61.36135
 437  11.74083
 438  73.98637
 439  73.04945
 440  21.52175
 441  28.70691
 442  87.89056
 443  119.9445
 444  -26.0847
 445  -244.2859
 446  -79.98481
 447  -83.94868
 448  -128.8933
 449  -216.3808
 450  -107.0303
 451  -51.4006
 452  50.51013
 453  152.178
 454  135.8067
 455  71.18932
 456  10.6659
 457  44.88063
 458  -40.19166
 459  -132.4023
 460  -139.0635
 461  -32.3367
 462  46.27337
 463  23.95613
 464  54.5615
 465  62.81688
 466  -14.74257
 467  -73.49183
 468  -66.674
 469  -99.09846
 470  -185.0169
 471  -68.099
 472  64.95512
 473  144.067
 474  71.70933
 475  -40.74623
 476  -113.4601
 477  -74.79761
 478  -42.33534
 479  -12.01253
 480  -61.05216
 481  29.66641
 482  -35.23023
 483  -96.10479
 484  -115.0775
 485  -90.8326
 486  14.74551
 487  71.17066
 488  119.3212
 489  219.0592
 490  238.5352
 491  258.0381
 492  188.9376
 493  117.4527
 494  13.4469
 495  75.9096
 496  48.1135
 497  55.1917
 498  -70.86828
 499  -42.41845
 500  -14.63849
 501  -170.226
 502  -193.259
 503  -131.9078
 504  -92.10145
 505  -98.87624
 506  17.86649
 507  131.0683
 508  226.7826
 509  139.8884
 510  149.2418
 511  105.7434
 512  106.5988
 513  -13.37696
 514  16.62464
 515  -10.87774
 516  -10.45489
 517  -154.2861
 518  -196.0448
 519  -122.2403
 520  12.93985
 521  160.2907
 522  152.4107
 523  95.0909
 524  55.14197
 525  6.152372
 526  -23.55051
 527  -11.78299
 528  20.98709
 529  -5.92496
 530  -82.79667
 531  -137.5863
 532  -25.38055
 533  123.484
 534  63.13393
 535  -40.34311
 536  -128.7225
 537  -28.53534
 538  90.08892
 539  229.3969
 540  316.3285
 541  145.3425
 542  148.6399
 543  101.4947
 544  23.78064
 545  -135.1313
 546  -120.0808
 547  -69.99255
 548  -90.95994
 549  -95.67921
 550  -127.6622
 551  -67.88525
 552  -90.44173
 553  -105.6842
 554  -83.74261
 555  -66.64289
 556  -26.14558
 557  -32.24277
 558  0.8289473
 559  -53.05192
 560  -196.6104
 561  -229.617
 562  -180.2653
 563  -144.2947
 564  -19.49958
 565  -81.89889
 566  -254.6063
 567  -246.1342
 568  -72.23523
 569  17.57424
 570  63.17305
 571  11.79998
 572  -12.64412
 573  -94.43001
 574  -185.8746
 575  -162.8831
 576  -131.1024
 577  -42.30189
 578  -5.194688
 579  -1.146714
 580  15.90576
 581  -96.2707
 582  -142.836
 583  -41.37865
 584  -42.29345
 585  -187.3013
 586  -206.1212
 587  -91.26263
 588  5.98973
 589  45.98425
 590  92.46756
 591  129.9056
 592  30.92699
 593  -70.2529
 594  -52.73482
 595  32.87225
 596  -42.17497
 597  -187.4198
 598  -206.3359
 599  -110.698
 600  -133.8427
 601  -70.44903
 602  17.51329
 603  126.4772
 604  141.457
 605  163.4854
 606  83.02283
 607  98.24091
 608  64.86789
 609  52.8139
 610  83.0672
 611  91.90829
 612  -14.98899
 613  -83.15636
 614  -100.5008
 615  -0.3949167
 616  -72.8281
 617  -53.52631
 618  -25.90326
 619  -4.98325
 620  52.17102
 621  151.0526
 622  193.1301
 623  192.4575
 624  149.1479
 625  130.691
 626  40.30112
 627  11.61164
 628  -3.276366
 629  152.9357
 630  216.732
 631  325.0835
 632  435.299
 633  486.2549
 634  528.876
 635  717.7817
 636  898.0015
 637  1056.456
 638  1133.138
 639  959.0521
 640  807.4243
 641  657.818
 642  613.2505
 643  410.1373
 644  140.1969
 645  183.0836
 646  155.5108
 647  92.77681
 648  -94.82462
 649  -157.1353
 650  -180.803
 651  -229.9835
 652  -269.8708
 653  -216.0448
 654  -64.11987
 655  107.4983
 656  183.4315
 657  172.1618
 658  13.23136
 659  -100.08
 660  -162.1498
 661  -131.0688
 662  -124.7708
 663  -54.02672
 664  -2.740395
 665  -67.76568
 666  3.44475
 667  91.13789
 668  178.2381
 669  218.7326
 670  277.6057
 671  173.98
 672  72.54572
 673  127.9808
 674  176.9109
 675  150.2874
 676  66.17955
 677  62.56121
 678  0.4691786
 679  -104.0482
 680  -57.54488
 681  30.75987
 682  91.19462
 683  134.0471
 684  66.43026
 685  118.3738
 686  104.7478
 687  165.8806
 688  135.9943
 689  177.2249
 690  144.1344
 691  200.5361
 692  117.1239
 693  -38.96909
 694  -16.8639
 695  -10.72317
 696  82.86829
 697  -33.69492
 698  -22.83678
 699  -54.23787
 700  -6.466813
 701  55.48986
 702  22.49951
 703  -53.994
 704  -47.8546
 705  99.70845
 706  229.192
 707  375.2515
 708  334.9352
 709  208.6058
 710  26.23436
 711  -85.63747
 712  -236.1558
 713  -283.7594
 714  -129.5534
 715  94.49269
 716  181.1133
 717  153.8451
 718  78.92735
 719  124.5039
 720  196.6742
 721  124.535
 722  92.58693
 723  83.35197
 724  104.2025
 725  79.6259
 726  52.72886
 727  17.38961
 728  64.60021
 729  43.62175
 730  -79.50649
 731  -129.1932
 732  -70.18037
 733  -99.37728
 734  -81.32961
 735  -36.78324
 736  48.19384
 737  -42.61303
 738  -122.4658
 739  -100.8484
 740  -83.54565
 741  -55.51457
 742  -35.05038
 743  -28.68504
 744  -77.54917
 745  -3.525077
 746  -34.25112
 747  127.1812
 748  82.61985
 749  31.19958
 750  11.73685
 751  -36.72852
 752  -160.4608
 753  -222.6728
 754  -116.1043
 755  -52.9841
 756  -131.5599
 757  -229.6304
 758  -175.4071
 759  -157.7576
 760  -237.2527
 761  -184.9982
 762  -37.46286
 763  -6.988811
 764  -107.047
 765  -58.36635
 766  68.538
 767  34.40053
 768  -1.102938
 769  30.40366
 770  10.14697
 771  -81.57553
 772  -111.451
 773  -55.56372
 774  -137.952
 775  -115.9107
 776  -109.6583
 777  -34.63507
 778  -77.56981
 779  32.17369
 780  128.2356
 781  109.1668
 782  -20.57676
 783  -73.31042
 784  45.68604
 785  55.00975
 786  -48.53754
 787  -104.2337
 788  -68.79549
 789  -20.44608
 790  34.78124
 791  90.16885
 792  -14.123
 793  -67.42464
 794  -69.70654
 795  -119.6561
 796  -146.9346
 797  -91.34827
 798  71.35193
 799  98.76161
 800  88.62415
 801  21.11525
 802  -60.81129
 803  -60.93053
 804  7.23028
 805  -22.34433
 806  12.92777
 807  41.94547
 808  68.37334
 809  78.53072
 810  -39.50247
 811  -133.947
 812  -96.25574
 813  -48.8816
 814  -38.07499
 815  -142.0259
 816  -124.5747
 817  -154.6143
 818  55.65069
 819  121.0295
 820  242.9527
 821  294.6739
 822  331.8484
 823  243.6009
 824  180.5032
 825  122.3931
 826  -6.228658
 827  -219.1035
 828  -279.3525
 829  -169.2294
 830  -180.2057
 831  -15.22033
 832  25.02337
 833  100.7924
 834  140.9882
 835  47.93081
 836  18.24747
 837  -79.43326
 838  -1.710702
 839  16.51872
 840  93.32258
 841  130.5438
 842  23.11359
 843  -50.52602
 844  9.534619
 845  32.76458
 846  0.1851685
 847  -107.4351
 848  -121.2361
 849  -67.81064
 850  143.2391
 851  277.9552
 852  373.0572
 853  237.1567
 854  106.5906
 855  -38.96012
 856  -73.90187
 857  -62.43731
 858  -60.35043
 859  -77.21436
 860  -146.9798
 861  -144.1152
 862  -73.80756
 863  38.5266
 864  -96.74341
 865  -211.3827
 866  -130.2391
 867  -25.47226
 868  96.62943
 869  50.84167
 870  6.808557
 871  -11.96085
 872  65.34201
 873  119.9832
 874  195.8864
 875  107.496
 876  7.839147
 877  -25.29483
 878  70.32621
 879  133.9832
 880  167.9076
 881  155.7444
 882  160.0494
 883  96.57425
 884  53.4841
 885  -62.00176
 886  4.566591
 887  149.4647
 888  142.3069
 889  14.63435
 890  -33.22113
 891  13.6891
 892  33.34109
 893  34.87408
 894  -26.84264
 895  -61.28542
 896  -179.9967
 897  -221.2097
 898  -280.7976
 899  -82.356
 900  -125.2122
 901  -176.8861
 902  -155.1009
 903  22.45036
 904  -73.28681
 905  -51.88239
 906  96.47855
 907  236.5857
 908  117.0625
 909  17.83692
 910  7.119897
 911  104.8801
 912  18.14917
 913  -129.4257
 914  -239.8292
 915  -277.5828
 916  -176.3228
 917  -53.46532
 918  8.911182
 919  0.9378524
 920  -105.5679
 921  -99.5987
 922  -65.22907
 923  -86.86423
 924  -94.23759
 925  -89.0628
 926  -95.67216
 927  -8.100643
 928  27.79454
 929  -63.81559
 930  -203.2018
 931  -239.9754
 932  -181.8192
 933  -91.86652
 934  -148.6798
 935  -62.42195
 936  30.76831
 937  15.30514
 938  -32.59058
 939  6.819841
 940  190.7877
 941  191.24
 942  47.22067
 943  37.9207
 944  84.70998
 945  156.5875
 946  154.0375
 947  148.9831
 948  30.04278
 949  -2.775975
 950  -17.07016
 951  28.57625
 952  -45.64385
 953  -12.6387
 954  40.4906
 955  34.43598
 956  -39.11998
 957  -138.6896
 958  -120.9759
 959  -112.8604
 960  -105.9045
 961  -172.0911
 962  -143.0032
 963  -85.32541
 964  -1.352861
 965  53.06042
 966  4.609823
 967  28.49587
 968  -5.590994
 969  87.3821
 970  201.8359
 971  214.8227
 972  200.5918
 973  27.07351
 974  -0.6671307
 975  -176.5137
 976  -174.6343
 977  -133.1701
 978  -67.1943
 979  -0.3586654
 980  -78.18372
 981  4.737665
 982  -27.72143
 983  88.01645
 984  84.04501
 985  50.56656
 986  64.06829
 987  34.85013
 988  -63.65559
 989  -62.39764
 990  -21.66623
 991  33.35067
 992  57.6861
 993  -20.42426
 994  -87.01975
 995  -140.0304
 996  -98.08017
 997  -86.45975
 998  -8.29773
 999  87.03598
1000  148.9639
1001  129.5812
1002  28.1512
1003  -44.76585
1004  -134.0874
1005  -16.88758
1006  -8.638149
1007  -101.6774
1008  -200.9302
1009  -209.6962
1010  -112.2075
1011  4.026575
1012  20.61277
1013  -121.9933
1014  -154.4938
1015  -114.4334
1016  -25.22458
1017  -38.32829
1018  -22.46785
1019  -38.1237
1020  -9.623467
1021  190.5198
1022  249.5612
1023  159.9111
