# Input file       =  1191208577.114983_cleaned.dat
# Candidate        =  PSR_0332+5434
# Telescope        =  AR
# Epoch_topo       =  58031.136529108604
# Epoch_bary       =  N/A
# T_sample         =  0.002
# Data Folded      =  7340032
# Data Avg         =  0.0456151960315765
# Data StdDev      =  2.81638621913863 
# Profile Bins     =  512
# Profile Avg      =  653.979381424152 
# Profile StdDev   =  337.214473627149 
# Reduced chi-sqr  =  1.308
# Prob(Noise)      <  3.14e-06   (~4.5 sigma)
# P_topo (ms)      =  714.47531308502   +/- 0.000146
# P'_topo (s/s)    =  -0                +/- 7.69e-11
# P''_topo (s/s^2) =  0                 +/- 3.4e-14
# P_bary (ms)      =  N/A
# P'_bary (s/s)    =  N/A
# P''_bary (s/s^2) =  N/A
# P_orb (s)        =  N/A
# asin(i)/c (s)    =  N/A
# eccentricity     =  N/A
# w (rad)          =  N/A
# T_peri           =  N/A
######################################################
   0  916.8654
   1  442.5095
   2  638.5132
   3  391.0994
   4  618.0785
   5  769.6404
   6  552.5502
   7  695.5377
   8  721.1124
   9  668.1347
  10  650.1527
  11  427.0545
  12  544.7468
  13  153.6984
  14  587.0087
  15  528.3226
  16  535.5369
  17  695.21
  18  837.7335
  19  758.0547
  20  659.8031
  21  750.0978
  22  760.9825
  23  919.8792
  24  924.8559
  25  725.7886
  26  348.7708
  27  319.0927
  28  272.8464
  29  202.1853
  30  598.2792
  31  869.6019
  32  678.9407
  33  256.4925
  34  655.0135
  35  557.5673
  36  993.04
  37  1191.829
  38  972.2303
  39  795.3539
  40  932.1857
  41  826.7637
  42  679.9831
  43  292.8393
  44  197.485
  45  555.6835
  46  657.688
  47  718.8315
  48  842.0728
  49  596.061
  50  719.1313
  51  911.7421
  52  862.3944
  53  695.1231
  54  960.4248
  55  1273.868
  56  925.4701
  57  525.6967
  58  689.4328
  59  797.4276
  60  544.4853
  61  493.2184
  62  364.825
  63  382.2995
  64  409.3369
  65  668.576
  66  495.9188
  67  312.4932
  68  708.5146
  69  613.7755
  70  407.5833
  71  457.3052
  72  812.8983
  73  761.2233
  74  436.0907
  75  462.556
  76  763.3236
  77  627.9707
  78  697.9703
  79  933.662
  80  767.6727
  81  725.9079
  82  561.8162
  83  425.0876
  84  561.942
  85  624.9294
  86  699.6523
  87  1007.153
  88  954.1389
  89  834.2041
  90  951.5438
  91  696.4416
  92  734.7822
  93  955.0225
  94  672.1166
  95  821.3271
  96  1000.87
  97  765.3697
  98  767.32
  99  653.9337
 100  583.6304
 101  321.2956
 102  323.3604
 103  253.4184
 104  477.3847
 105  627.5868
 106  357.5718
 107  81.13303
 108  351.7336
 109  768.7413
 110  919.0505
 111  818.6169
 112  971.4062
 113  723.0592
 114  812.8673
 115  724.9999
 116  801.7749
 117  841.0531
 118  775.7806
 119  1091.602
 120  841.4645
 121  603.7911
 122  479.7612
 123  500.4923
 124  453.1438
 125  518.1838
 126  764.1439
 127  314.9453
 128  258.5415
 129  651.5159
 130  847.5875
 131  1025.117
 132  931.2707
 133  590.1678
 134  550.402
 135  237.1633
 136  402.6556
 137  849.7637
 138  974.3686
 139  493.9304
 140  727.1146
 141  418.351
 142  403.7924
 143  657.9052
 144  523.8533
 145  463.5415
 146  547.46
 147  750.143
 148  780.9677
 149  369.1495
 150  477.7401
 151  967.6544
 152  937.3032
 153  592.2211
 154  375.4897
 155  543.6051
 156  535.7034
 157  522.5976
 158  484.9686
 159  314.0723
 160  443.2922
 161  522.9186
 162  476.6801
 163  219.622
 164  231.0682
 165  406.4336
 166  319.0246
 167  455.3307
 168  685.966
 169  826.9455
 170  250.7464
 171  392.2732
 172  553.0647
 173  490.8997
 174  726.8179
 175  877.561
 176  655.5644
 177  473.0343
 178  493.9303
 179  539.8256
 180  640.9421
 181  497.1984
 182  904.441
 183  649.0941
 184  91.50701
 185  208.2745
 186  423.4583
 187  728.4005
 188  631.017
 189  410.0451
 190  415.6578
 191  567.9174
 192  470.0092
 193  478.7943
 194  772.1702
 195  661.6578
 196  508.4045
 197  310.4021
 198  362.9573
 199  350.8751
 200  275.467
 201  887.9833
 202  1107.527
 203  837.3663
 204  749.9211
 205  565.6453
 206  515.3101
 207  429.9359
 208  396.5176
 209  427.5854
 210  183.7832
 211  400.0378
 212  218.6088
 213  403.698
 214  833.1772
 215  640.9056
 216  573.6647
 217  726.1911
 218  845.1645
 219  1039.298
 220  793.6618
 221  674.6074
 222  765.9811
 223  757.9987
 224  727.9207
 225  752.6654
 226  827.4642
 227  598.8623
 228  496.3459
 229  809.6936
 230  767.9769
 231  621.1788
 232  590.4537
 233  1210.386
 234  1035.819
 235  717.9342
 236  667.0166
 237  526.592
 238  473.4193
 239  606.9377
 240  752.0175
 241  470.766
 242  328.8611
 243  719.1632
 244  519.6461
 245  475.6314
 246  584.7376
 247  416.5424
 248  420.5641
 249  526.6067
 250  576.6472
 251  662.0889
 252  933.0802
 253  616.6498
 254  144.4271
 255  420.4532
 256  617.8892
 257  941.8055
 258  1320.771
 259  803.5496
 260  515.4013
 261  468.9774
 262  621.3489
 263  644.8943
 264  492.9601
 265  577.7649
 266  747.4964
 267  233.5768
 268  246.94
 269  540.0229
 270  305.4843
 271  305.5528
 272  668.8167
 273  771.1937
 274  914.876
 275  483.8549
 276  440.5183
 277  131.392
 278  189.5718
 279  775.2301
 280  527.7629
 281  398.2149
 282  452.971
 283  703.6512
 284  507.8406
 285  501.502
 286  378.1531
 287  550.1168
 288  983.3134
 289  909.2581
 290  822.5815
 291  883.1115
 292  493.9481
 293  477.3733
 294  479.8347
 295  483.4058
 296  431.7918
 297  348.3484
 298  748.9189
 299  685.8007
 300  692.743
 301  832.0594
 302  1111.214
 303  817.5927
 304  609.7712
 305  496.6484
 306  908.5519
 307  1239.248
 308  684.4458
 309  471.0965
 310  736.2667
 311  895.739
 312  809.0527
 313  779.5151
 314  894.691
 315  976.1763
 316  1455.977
 317  1893.856
 318  2211.398
 319  2181.068
 320  2166.292
 321  2006.521
 322  1542
 323  874.0168
 324  748.9425
 325  539.838
 326  165.0943
 327  521.127
 328  732.4618
 329  927.1194
 330  459.5535
 331  478.7433
 332  587.5657
 333  818.0309
 334  1241.784
 335  925.3011
 336  726.3198
 337  489.4357
 338  462.4681
 339  442.1131
 340  932.9455
 341  955.7866
 342  960.5988
 343  566.1327
 344  708.0845
 345  750.3849
 346  701.2919
 347  672.2592
 348  604.4305
 349  537.6017
 350  807.8651
 351  981.72
 352  1417.197
 353  1296.578
 354  979.6333
 355  917.9299
 356  1035.796
 357  900.0354
 358  1064.041
 359  855.0125
 360  1066.966
 361  1098.287
 362  970.4744
 363  523.2593
 364  687.6614
 365  612.0004
 366  763.1582
 367  634.6709
 368  531.2189
 369  639.3344
 370  385.4825
 371  579.3195
 372  501.553
 373  302.437
 374  588.7952
 375  738.1185
 376  999.7591
 377  1081.966
 378  923.543
 379  464.8842
 380  894.7733
 381  620.2234
 382  581.5104
 383  834.3882
 384  677.494
 385  516.7634
 386  507.286
 387  568.5216
 388  665.0574
 389  993.7411
 390  973.6691
 391  516.9084
 392  389.9597
 393  790.1859
 394  764.3032
 395  750.8342
 396  400.5519
 397  410.8923
 398  347.5278
 399  790.7578
 400  463.3884
 401  269.9585
 402  467.171
 403  436.1718
 404  392.3546
 405  399.0615
 406  589.0002
 407  890.7857
 408  738.031
 409  868.2233
 410  781.2897
 411  565.6429
 412  538.3946
 413  659.2225
 414  609.3596
 415  744.0613
 416  326.6561
 417  543.1823
 418  811.3142
 419  562.8033
 420  633.3185
 421  638.5895
 422  590.2271
 423  753.6735
 424  842.1251
 425  676.1717
 426  896.3293
 427  860.4838
 428  491.6136
 429  185.1664
 430  448.6035
 431  542.3125
 432  305.4108
 433  429.8232
 434  710.5543
 435  573.2862
 436  492.332
 437  575.5635
 438  998.701
 439  901.8482
 440  966.0034
 441  941.1513
 442  646.6654
 443  862.7458
 444  795.5379
 445  851.3654
 446  805.8674
 447  877.8619
 448  899.2451
 449  759.9945
 450  877.9766
 451  694.3427
 452  787.3977
 453  964.9597
 454  1054.717
 455  687.0227
 456  860.5192
 457  1190.822
 458  723.4516
 459  459.7001
 460  445.3517
 461  752.0981
 462  1141.782
 463  770.2006
 464  513.2224
 465  631.9276
 466  824.3044
 467  716.301
 468  488.3102
 469  547.2248
 470  878.6818
 471  494.1479
 472  536.3226
 473  366.1693
 474  139.6496
 475  212.9031
 476  618.3242
 477  915.3698
 478  982.3724
 479  544.7701
 480  124.7278
 481  552.8398
 482  546.6762
 483  409.4191
 484  326.6987
 485  699.0727
 486  615.2023
 487  420.5987
 488  320.1456
 489  317.8853
 490  -24.56656
 491  216.2102
 492  216.775
 493  731.7722
 494  689.9506
 495  681.8284
 496  553.0262
 497  543.8021
 498  332.3201
 499  318.9253
 500  96.99636
 501  252.4088
 502  268.3803
 503  412.4959
 504  274.8844
 505  681.7678
 506  603.2244
 507  650.186
 508  805.4803
 509  907.8939
 510  902.0283
 511  885.5183
