# Input file       =  1191695979.111746_cleaned.dat
# Candidate        =  PSR_0332+5434
# Telescope        =  AR
# Epoch_topo       =  58036.777755922987
# Epoch_bary       =  N/A
# T_sample         =  0.002
# Data Folded      =  7208960
# Data Avg         =  0.141006043559702
# Data StdDev      =  3.61874392889164 
# Profile Bins     =  1024
# Profile Avg      =  992.679682289377 
# Profile StdDev   =  303.629652150686 
# Reduced chi-sqr  =  0.672
# Prob(Noise)      <  1   (~0.0 sigma)
# P_topo (ms)      =  714.478556635194  +/- 8.47e-05
# P'_topo (s/s)    =  -0                +/- 4.55e-11
# P''_topo (s/s^2) =  0                 +/- 2.05e-14
# P_bary (ms)      =  N/A
# P'_bary (s/s)    =  N/A
# P''_bary (s/s^2) =  N/A
# P_orb (s)        =  N/A
# asin(i)/c (s)    =  N/A
# eccentricity     =  N/A
# w (rad)          =  N/A
# T_peri           =  N/A
######################################################
   0  1078.921
   1  1135.161
   2  1201.618
   3  1121.363
   4  1047.574
   5  1106.029
   6  1157.224
   7  1062.574
   8  1148.155
   9  1042.335
  10  1060.667
  11  1019.515
  12  1001.106
  13  923.8605
  14  802.8464
  15  720.0657
  16  824.1489
  17  942.3058
  18  1061.097
  19  1069.911
  20  1175.145
  21  1140.25
  22  1096.881
  23  1114.03
  24  1051.391
  25  900.4053
  26  942.5399
  27  1104.146
  28  1081.651
  29  1145.597
  30  1046.696
  31  994.5616
  32  932.0361
  33  1057.482
  34  1005.65
  35  979.8344
  36  993.0362
  37  1078.417
  38  1154.024
  39  1217.396
  40  1171.172
  41  1085.865
  42  1087.826
  43  1132.523
  44  1163.933
  45  1204.255
  46  1232.232
  47  1105.94
  48  1199.387
  49  1118.683
  50  1046.198
  51  976.1267
  52  957.5342
  53  1009.145
  54  1005.778
  55  1073.062
  56  1175.242
  57  1208.489
  58  1083.996
  59  833.6071
  60  802.2608
  61  808.4078
  62  882.5736
  63  871.6122
  64  857.8965
  65  809.3799
  66  857.6411
  67  1094.951
  68  1082.239
  69  1059.665
  70  1144.049
  71  1148.246
  72  1062.532
  73  977.9011
  74  1059.328
  75  1075.275
  76  1136.425
  77  1055.854
  78  909.5308
  79  800.6855
  80  838.6448
  81  975.2027
  82  1005.356
  83  1081.199
  84  1132.016
  85  1232.811
  86  1082.996
  87  1072.243
  88  1084.281
  89  1274.587
  90  1118.323
  91  1164.151
  92  1073.53
  93  969.8343
  94  1067.943
  95  1123.262
  96  1096.872
  97  960.1076
  98  900.7783
  99  1030.677
 100  926.5361
 101  1064.268
 102  1005.892
 103  1190.325
 104  1333.25
 105  1322.827
 106  1145.869
 107  1117.165
 108  1090.083
 109  935.7079
 110  943.7043
 111  852.2452
 112  846.985
 113  845.7139
 114  917.9023
 115  1039.635
 116  1121.864
 117  1231.801
 118  1337.801
 119  1205.689
 120  1037.745
 121  860.2509
 122  942.892
 123  970.1727
 124  915.7374
 125  1001.592
 126  1072.323
 127  1003.101
 128  1007.099
 129  1057.257
 130  1071.214
 131  1072.522
 132  1179.706
 133  1219.448
 134  1058.265
 135  1070.361
 136  1070.458
 137  1175.965
 138  1142.516
 139  1212.668
 140  1051.213
 141  972.6257
 142  852.0107
 143  962.3146
 144  964.2606
 145  895.1925
 146  844.4191
 147  909.6166
 148  904.6362
 149  843.5109
 150  1005.227
 151  1154.668
 152  1087.7
 153  1025.298
 154  1003.322
 155  949.781
 156  792.0659
 157  978.9074
 158  1192.925
 159  1070.094
 160  874.2922
 161  702.5361
 162  862.6365
 163  824.6986
 164  848.8991
 165  777.9343
 166  905.8678
 167  966.6588
 168  1023.536
 169  1169.191
 170  1085.779
 171  1045.184
 172  1212.932
 173  1270.352
 174  1152.25
 175  1032.29
 176  1046.168
 177  1021.962
 178  946.293
 179  960.4985
 180  1036.222
 181  1012.596
 182  1084.138
 183  1098.124
 184  1043.333
 185  989.8544
 186  964.53
 187  1082.216
 188  1007.729
 189  950.7764
 190  1013.728
 191  1151.665
 192  1015.264
 193  914.3398
 194  956.0726
 195  1065.481
 196  1069.292
 197  1051.54
 198  1040.823
 199  1009.337
 200  1017.164
 201  1075.086
 202  970.114
 203  1005.049
 204  990.1496
 205  1050.819
 206  968.4628
 207  967.4132
 208  995.8683
 209  1142.203
 210  1183.006
 211  1121.282
 212  1226.095
 213  1095.096
 214  1083.68
 215  959.8091
 216  1005.243
 217  823.1514
 218  812.082
 219  956.6819
 220  1067.524
 221  1003.176
 222  1027.524
 223  983.6398
 224  985.508
 225  913.0635
 226  857.1772
 227  834.9634
 228  845.0449
 229  769.9352
 230  629.5499
 231  682.7722
 232  664.8597
 233  809.5095
 234  872.843
 235  863.4487
 236  857.9741
 237  1012.816
 238  1075.309
 239  950.3887
 240  895.9966
 241  927.9869
 242  921.7146
 243  885.8983
 244  922.6511
 245  870.3281
 246  832.5735
 247  825.3006
 248  842.9605
 249  888.4217
 250  891.8481
 251  918.1561
 252  986.7788
 253  1187.733
 254  1081.203
 255  1044.066
 256  907.73
 257  830.101
 258  856.5397
 259  938.9239
 260  949.8912
 261  806.9899
 262  847.3495
 263  961.2018
 264  871.8916
 265  817.5043
 266  868.8782
 267  885.5549
 268  889.7117
 269  780.9528
 270  714.1522
 271  767.5422
 272  769.5421
 273  892.3655
 274  962.5163
 275  927.4835
 276  839.4967
 277  869.5305
 278  1055.411
 279  1072.761
 280  1062.719
 281  1106.969
 282  1145.239
 283  1082.349
 284  1083.414
 285  999.2274
 286  840.5498
 287  766.193
 288  781.49
 289  862.6293
 290  960.7335
 291  864.6522
 292  905.1516
 293  955.5677
 294  1061.302
 295  960.5369
 296  975.4175
 297  940.9471
 298  1037.235
 299  1062.302
 300  1095.193
 301  1072.434
 302  1101.408
 303  1221.024
 304  1126.844
 305  1131.046
 306  1067.747
 307  1009.845
 308  995.4769
 309  1108.816
 310  1201.978
 311  1108.646
 312  1055.166
 313  1009.088
 314  975.4111
 315  878.9281
 316  841.1757
 317  922.5266
 318  1023.299
 319  970.5794
 320  1006.625
 321  1041.945
 322  951.3865
 323  822.6718
 324  954.2987
 325  1000.429
 326  892.0476
 327  797.6786
 328  993.5469
 329  1016.762
 330  994.5758
 331  970.2654
 332  999.5756
 333  1087.969
 334  981.1011
 335  1006.502
 336  1043.717
 337  1050.268
 338  1020.755
 339  1014.849
 340  1054.275
 341  1057.023
 342  1028.151
 343  1108.165
 344  1059.831
 345  957.1844
 346  966.3361
 347  986.5005
 348  924.1097
 349  1028.246
 350  1071.1
 351  1061.257
 352  974.4756
 353  893.6296
 354  864.1169
 355  904.538
 356  745.0291
 357  806.6489
 358  844.2787
 359  947.2566
 360  845.501
 361  820.2733
 362  863.2491
 363  927.5909
 364  958.0662
 365  927.7152
 366  855.1266
 367  938.7076
 368  1152.147
 369  920.9072
 370  745.2401
 371  695.1113
 372  931.2582
 373  975.5633
 374  1078.202
 375  1025.865
 376  1129.217
 377  1068.735
 378  1035.476
 379  1010.532
 380  1008.242
 381  890.1912
 382  866.8437
 383  942.4653
 384  917.3496
 385  716.2122
 386  768.8262
 387  861.4411
 388  904.3577
 389  937.6241
 390  1005.011
 391  873.4709
 392  846.3014
 393  856.9583
 394  932.7437
 395  885.3065
 396  864.6237
 397  883.2065
 398  860.5402
 399  1026.889
 400  1115.915
 401  1071.525
 402  990.9764
 403  948.3587
 404  1109.144
 405  1190.068
 406  1023.978
 407  781.2023
 408  810.9431
 409  937.6846
 410  866.9191
 411  880.9453
 412  845.4716
 413  875.3895
 414  823.3801
 415  806.3331
 416  806.7028
 417  768.8788
 418  879.7654
 419  947.7032
 420  975.3938
 421  943.8016
 422  953.0196
 423  971.2734
 424  933.2366
 425  762.4573
 426  825.9385
 427  867.4935
 428  862.9727
 429  810.772
 430  970.4196
 431  1004.787
 432  1032.395
 433  1146.969
 434  1085.971
 435  890.6688
 436  884.0237
 437  955.5482
 438  1058.145
 439  958.1976
 440  1145.452
 441  1123.099
 442  1149.797
 443  868.2988
 444  814.0238
 445  845.7292
 446  1011.729
 447  1079.224
 448  1087.564
 449  1007.615
 450  778.8507
 451  836.8344
 452  884.9195
 453  752.9443
 454  678.4636
 455  786.9047
 456  1003.721
 457  1139.745
 458  1112.121
 459  1065.403
 460  963.5731
 461  857.7992
 462  1002.755
 463  999.9583
 464  1073.75
 465  994.9035
 466  994.5569
 467  1097.747
 468  1041.695
 469  1041.326
 470  1128.092
 471  1096.723
 472  1008.439
 473  1013.116
 474  896.5532
 475  771.8046
 476  710.9209
 477  873.9507
 478  946.4792
 479  957.6565
 480  934.7054
 481  1018.869
 482  1021.799
 483  1148.95
 484  1160.382
 485  1112.734
 486  993.6753
 487  877.8107
 488  924.0953
 489  939.8704
 490  923.7558
 491  944.7867
 492  961.1436
 493  938.0963
 494  937.011
 495  1091.304
 496  1081.2
 497  1062.185
 498  1048.064
 499  1024.645
 500  917.4756
 501  898.0801
 502  936.1832
 503  855.7594
 504  885.1123
 505  982.6744
 506  1072.121
 507  1020.842
 508  931.1169
 509  872.8554
 510  838.9858
 511  857.2401
 512  907.9506
 513  1051.947
 514  1004.96
 515  988.8232
 516  1052.056
 517  1145.18
 518  1138.244
 519  1066.012
 520  1079.624
 521  932.7713
 522  802.6249
 523  911.7843
 524  1024.921
 525  1005.541
 526  995.3097
 527  937.1578
 528  883.1698
 529  862.5967
 530  933.3065
 531  875.2883
 532  982.5348
 533  894.8582
 534  939.014
 535  989.5633
 536  1101.568
 537  1068.181
 538  1023.079
 539  960.5262
 540  1052.134
 541  860.2982
 542  951.5444
 543  927.306
 544  989.9652
 545  959.137
 546  983.2667
 547  1029.255
 548  1074.078
 549  988.9722
 550  1058.928
 551  1073.905
 552  978.9235
 553  990.5003
 554  987.1125
 555  972.4052
 556  837.6586
 557  840.7286
 558  834.7304
 559  839.3445
 560  1019.328
 561  1138.236
 562  1166.863
 563  1134.888
 564  1206.874
 565  1143.568
 566  1144.422
 567  1095.318
 568  1117.457
 569  1048.768
 570  929.6147
 571  931.6099
 572  1090.1
 573  1177.717
 574  1100.387
 575  993.9008
 576  898.8568
 577  883.5332
 578  940.2089
 579  1104.644
 580  1037.414
 581  1103.896
 582  1164.547
 583  1185.74
 584  1022.356
 585  1030.194
 586  933.9966
 587  820.6837
 588  760.3178
 589  738.4565
 590  742.609
 591  826.095
 592  863.4655
 593  833.6166
 594  999.893
 595  1035.702
 596  1100.297
 597  1052.681
 598  1019.754
 599  944.7523
 600  980.5451
 601  1048.437
 602  948.9498
 603  810.1732
 604  808.8773
 605  851.4595
 606  834.3828
 607  852.278
 608  857.4907
 609  838.9734
 610  885.379
 611  840.4455
 612  965.1639
 613  1052.107
 614  1018.618
 615  999.9972
 616  1035.962
 617  989.0403
 618  986.2782
 619  995.2039
 620  1053.909
 621  1016.941
 622  1128.916
 623  1139.716
 624  1079.353
 625  1091.505
 626  1237.655
 627  1138.814
 628  1050.637
 629  1026.966
 630  1149.775
 631  1264.01
 632  1250.916
 633  1316.237
 634  1466.562
 635  1608.414
 636  1745.007
 637  1802.49
 638  1871.648
 639  1797.515
 640  1737.512
 641  1729.443
 642  1509.664
 643  1341.454
 644  1214.05
 645  1245.786
 646  1281.937
 647  1297.863
 648  1141.65
 649  912.8207
 650  926.5624
 651  1078.177
 652  1145.403
 653  1037.625
 654  786.0084
 655  679.0024
 656  664.4563
 657  681.2593
 658  788.1661
 659  928.6902
 660  998.7553
 661  1027.745
 662  1113.808
 663  1212.67
 664  1203.131
 665  1171.647
 666  1103.159
 667  1000.917
 668  918.3511
 669  1031.124
 670  936.2253
 671  790.2557
 672  784.6901
 673  918.4307
 674  996.3175
 675  924.9434
 676  875.81
 677  929.3731
 678  974.1044
 679  880.6161
 680  873.9491
 681  973.244
 682  1029.628
 683  1041.626
 684  1100.703
 685  1092.117
 686  1005.507
 687  907.6498
 688  936.0882
 689  741.576
 690  760.1718
 691  793.1737
 692  810.271
 693  794.1733
 694  815.2655
 695  863.253
 696  919.3485
 697  979.5057
 698  1082.458
 699  1113.92
 700  1097.466
 701  1043.879
 702  1080.428
 703  1059.182
 704  944.9688
 705  760.3886
 706  843.1581
 707  825.9476
 708  791.0058
 709  863.2497
 710  888.6091
 711  980.378
 712  1127.557
 713  1145.236
 714  1087.105
 715  1041.057
 716  1143.362
 717  1194.125
 718  997.7802
 719  841.5328
 720  799.9652
 721  786.5203
 722  659.5268
 723  724.2229
 724  861.6994
 725  931.6102
 726  731.4375
 727  722.8271
 728  870.2819
 729  895.3226
 730  880.1689
 731  1087.694
 732  1097.96
 733  1094.476
 734  1025.533
 735  958.9199
 736  844.0599
 737  818.0403
 738  865.7565
 739  974.5546
 740  1064.494
 741  1115.25
 742  1063.793
 743  1042.95
 744  1021.909
 745  1013.493
 746  1077.14
 747  1000.751
 748  906.8402
 749  930.0508
 750  1013.807
 751  972.076
 752  1030.585
 753  1163.733
 754  1124.206
 755  996.6083
 756  895.1107
 757  841.6663
 758  855.7376
 759  982.5188
 760  1080.333
 761  1054.88
 762  943.6902
 763  1037.114
 764  1139.837
 765  1149.485
 766  1019.99
 767  960.0591
 768  1026.719
 769  885.1057
 770  705.9422
 771  856.9088
 772  911.8431
 773  956.9039
 774  1004.312
 775  1008.842
 776  971.1207
 777  876.7159
 778  939.1208
 779  1074.204
 780  1032.029
 781  958.4702
 782  891.7775
 783  963.6213
 784  1008.942
 785  1062.769
 786  1053.482
 787  1054.136
 788  871.9075
 789  955.6446
 790  914.244
 791  853.9713
 792  872.3857
 793  1157.272
 794  1200.007
 795  1087.432
 796  995.1535
 797  960.3809
 798  912.4205
 799  1041.864
 800  1047.954
 801  963.2851
 802  889.9775
 803  1003.607
 804  1047.082
 805  963.253
 806  954.5517
 807  908.0043
 808  1019.072
 809  933.1185
 810  960.7802
 811  1027.133
 812  1082.468
 813  1048.572
 814  1129.12
 815  1117.285
 816  1049.069
 817  1004.211
 818  1023.905
 819  899.0909
 820  752.2562
 821  773.4116
 822  825.6376
 823  808.2015
 824  811.9203
 825  892.8506
 826  1013.865
 827  1066.626
 828  895.838
 829  804.7144
 830  915.8118
 831  985.8684
 832  905.3311
 833  1083.985
 834  1111.99
 835  1161.318
 836  987.0617
 837  1011.377
 838  920.3035
 839  779.8314
 840  741.9346
 841  905.7001
 842  961.4325
 843  993.6816
 844  957.5601
 845  1096.772
 846  1210.458
 847  1200.966
 848  1184.507
 849  1169.469
 850  1076.651
 851  1068.903
 852  1124.184
 853  1029.626
 854  974.6225
 855  1064.441
 856  993.6319
 857  843.6169
 858  932.3456
 859  1002.242
 860  997.1337
 861  902.7208
 862  1002.223
 863  1038.76
 864  1087.11
 865  1133.605
 866  1127.719
 867  1007.502
 868  953.1183
 869  848.0109
 870  948.4813
 871  806.2482
 872  806.0018
 873  845.8373
 874  931.3916
 875  1021.292
 876  1083.404
 877  1064.584
 878  975.7366
 879  1058.679
 880  1129.694
 881  1034.867
 882  749.7548
 883  838.9224
 884  991.2272
 885  1046.545
 886  971.963
 887  830.7162
 888  728.2457
 889  785.7169
 890  858.6962
 891  931.9324
 892  958.7971
 893  936.7965
 894  986.0699
 895  999.1481
 896  1016.519
 897  1045.116
 898  1163.87
 899  1142.753
 900  1038.66
 901  1034.279
 902  1007.462
 903  1007.702
 904  888.7488
 905  897.6122
 906  809.7752
 907  824.6132
 908  928.1037
 909  1021.48
 910  1050.773
 911  1018.351
 912  1052.76
 913  1087.588
 914  1074.7
 915  921.6923
 916  989.3405
 917  1058.323
 918  992.2604
 919  951.1751
 920  1185.449
 921  1108.15
 922  946.3519
 923  948.3312
 924  1142.52
 925  1081.612
 926  1041.136
 927  996.2603
 928  1044.574
 929  968.4772
 930  1050.361
 931  1015.138
 932  1072.879
 933  1056.5
 934  1116.188
 935  1092.762
 936  1086.613
 937  1060.063
 938  1093.151
 939  1117.768
 940  975.6298
 941  969.2543
 942  971.1618
 943  1046.09
 944  1043.593
 945  1152.86
 946  1216.065
 947  1122.061
 948  1108.522
 949  1049.148
 950  935.4456
 951  897.3741
 952  863.8632
 953  880.7729
 954  913.3344
 955  881.8831
 956  925.1884
 957  881.0899
 958  897.699
 959  938.2184
 960  1131.164
 961  1210.172
 962  1237.349
 963  1209.825
 964  1109.287
 965  922.6873
 966  804.6909
 967  903.471
 968  1006.319
 969  925.6082
 970  836.9848
 971  728.7523
 972  869.9958
 973  927.6476
 974  868.4924
 975  841.789
 976  910.889
 977  992.5095
 978  1029.259
 979  1072.242
 980  1048.59
 981  1090.724
 982  1143.162
 983  1041.992
 984  896.8483
 985  985.7924
 986  1020.954
 987  915.5884
 988  820.162
 989  1014.087
 990  908.8848
 991  901.9939
 992  867.9743
 993  1016.1
 994  1065.486
 995  1113.491
 996  1116.928
 997  1212.545
 998  1240.833
 999  1251.255
1000  1059.904
1001  988.8274
1002  960.8398
1003  930.7809
1004  935.0405
1005  902.017
1006  888.1985
1007  1036.956
1008  1067.595
1009  1084.472
1010  1138.087
1011  1088.04
1012  1109.956
1013  1142.262
1014  1111.196
1015  1051.487
1016  1098.342
1017  994.4962
1018  912.5006
1019  778.8359
1020  749.9687
1021  882.2398
1022  991.2139
1023  1125.194
