# Input file       =  1191036238.128165_cleaned.dat
# Candidate        =  PSR_0332+5434
# Telescope        =  AR
# Epoch_topo       =  58029.141864909318
# Epoch_bary       =  N/A
# T_sample         =  0.002
# Data Folded      =  7340032
# Data Avg         =  0.0310062962931365
# Data StdDev      =  3.13586244713247 
# Profile Bins     =  512
# Profile Avg      =  444.634959279039 
# Profile StdDev   =  375.466332455047 
# Reduced chi-sqr  =  1.236
# Prob(Noise)      <  0.000207   (~3.5 sigma)
# P_topo (ms)      =  714.474142086926  +/- 0.000252
# P'_topo (s/s)    =  -0                +/- 1.33e-10
# P''_topo (s/s^2) =  0                 +/- 5.87e-14
# P_bary (ms)      =  N/A
# P'_bary (s/s)    =  N/A
# P''_bary (s/s^2) =  N/A
# P_orb (s)        =  N/A
# asin(i)/c (s)    =  N/A
# eccentricity     =  N/A
# w (rad)          =  N/A
# T_peri           =  N/A
######################################################
   0  420.5551
   1  342.2681
   2  257.9248
   3  236.5585
   4  -9.769705
   5  26.88099
   6  504.1115
   7  462.6221
   8  363.7948
   9  335.5318
  10  239.3745
  11  237.5663
  12  276.1089
  13  148.7582
  14  144.0859
  15  91.60625
  16  350.3349
  17  681.2468
  18  494.5386
  19  194.2121
  20  324.9889
  21  572.8222
  22  511.5128
  23  705.2527
  24  1203.65
  25  1321.675
  26  1455.988
  27  2073.414
  28  2117.225
  29  1670.092
  30  1260.099
  31  1227.643
  32  855.6217
  33  563.0554
  34  586.6575
  35  475.137
  36  601.8229
  37  1217.731
  38  1253.862
  39  690.5115
  40  471.3387
  41  547.6324
  42  484.918
  43  451.8084
  44  844.994
  45  815.1362
  46  428.4874
  47  404.696
  48  641.6774
  49  835.329
  50  508.0789
  51  520.2648
  52  334.7479
  53  137.4327
  54  227.3522
  55  384.2737
  56  607.1045
  57  148.0912
  58  -101.2789
  59  368.9294
  60  347.1074
  61  210.7307
  62  440.6974
  63  430.2389
  64  1000.577
  65  560.4518
  66  131.8652
  67  61.36142
  68  285.9523
  69  758.4368
  70  523.1989
  71  602.4342
  72  1009.138
  73  756.5038
  74  359.392
  75  407.0721
  76  659.4225
  77  542.3555
  78  499.7169
  79  390.0964
  80  504.5614
  81  515.7529
  82  404.7648
  83  236.09
  84  705.3072
  85  761.7541
  86  115.8707
  87  452.8613
  88  851.0775
  89  609.8729
  90  693.4604
  91  301.4273
  92  3.286563
  93  13.6281
  94  324.6409
  95  355.9761
  96  261.3322
  97  598.002
  98  394.9776
  99  86.41592
 100  195.2835
 101  487.9273
 102  392.6368
 103  354.5762
 104  443.0936
 105  689.072
 106  144.2915
 107  -87.26086
 108  96.69259
 109  156.0379
 110  115.9838
 111  244.4126
 112  231.5312
 113  77.44341
 114  -196.1803
 115  -112.4535
 116  95.88715
 117  158.1439
 118  238.219
 119  884.3716
 120  985.918
 121  509.4373
 122  435.7256
 123  31.01999
 124  493.507
 125  545.7473
 126  477.1606
 127  82.09259
 128  415.2656
 129  390.7125
 130  385.8719
 131  382.9792
 132  170.4897
 133  -84.22664
 134  12.86167
 135  208.5025
 136  230.7369
 137  456.6987
 138  729.2217
 139  725.2744
 140  598.8113
 141  299.6137
 142  347.0795
 143  324.4174
 144  -12.66943
 145  134.6952
 146  -100.7847
 147  368.678
 148  375.8949
 149  402.5195
 150  619.1097
 151  826.6323
 152  772.7594
 153  632.1601
 154  163.0738
 155  726.1799
 156  494.2483
 157  445.6667
 158  509.3482
 159  576.7556
 160  774.8493
 161  316.9055
 162  324.2021
 163  31.20294
 164  395.9109
 165  295.0251
 166  878.1691
 167  907.8317
 168  791.9821
 169  595.1108
 170  485.1316
 171  12.0401
 172  -72.43334
 173  747.7858
 174  684.5633
 175  699.3745
 176  445.0637
 177  372.1621
 178  279.5163
 179  497.4836
 180  792.8022
 181  760.5842
 182  79.9514
 183  -23.4195
 184  192.5732
 185  239.236
 186  339.2726
 187  370.9541
 188  112.4802
 189  -101.3485
 190  258.0945
 191  321.2695
 192  402.6617
 193  737.4915
 194  574.6118
 195  460.3842
 196  298.942
 197  575.0016
 198  604.6461
 199  552.9081
 200  449.8474
 201  534.5055
 202  644.6585
 203  480.1304
 204  362.6577
 205  616.2352
 206  444.4271
 207  641.8683
 208  290.6283
 209  150.852
 210  332.64
 211  161.2475
 212  151.0201
 213  322.6534
 214  717.4282
 215  578.5381
 216  579.6906
 217  611.6375
 218  207.8914
 219  -115.8592
 220  527.2521
 221  635.5749
 222  218.2253
 223  179.0161
 224  259.2553
 225  85.14496
 226  45.05638
 227  549.0588
 228  649.6996
 229  570.0215
 230  285.5316
 231  279.5367
 232  405.0339
 233  289.8429
 234  373.8488
 235  75.79861
 236  46.0066
 237  216.7252
 238  454.5203
 239  529.3004
 240  554.1487
 241  506.1706
 242  483.7745
 243  220.9331
 244  790.0093
 245  1029.095
 246  323.5535
 247  -6.650957
 248  -9.632024
 249  75.88172
 250  489.455
 251  342.3833
 252  419.2771
 253  476.4076
 254  343.7639
 255  110.5105
 256  59.95796
 257  397.5727
 258  809.1412
 259  931.0534
 260  779.5149
 261  570.0414
 262  238.4922
 263  680.5801
 264  651.9332
 265  568.5427
 266  659.1151
 267  670.7447
 268  707.1679
 269  614.3076
 270  304.1897
 271  519.76
 272  274.6487
 273  355.1841
 274  120.2738
 275  81.97051
 276  75.11765
 277  282.0635
 278  231.6888
 279  549.7387
 280  1119.213
 281  1076.816
 282  535.7969
 283  324.068
 284  244.5662
 285  104.8677
 286  279.5509
 287  276.6517
 288  21.56618
 289  -207.0489
 290  167.3752
 291  452.9521
 292  264.1783
 293  187.4544
 294  541.8687
 295  699.2305
 296  609.6652
 297  797.4861
 298  667.748
 299  749.4867
 300  402.4774
 301  550.3782
 302  296.1351
 303  254.7069
 304  568.8793
 305  616.678
 306  446.0706
 307  522.4078
 308  517.0651
 309  323.7844
 310  617.8944
 311  549.8942
 312  162.1756
 313  464.0927
 314  495.5889
 315  345.1743
 316  341.9631
 317  534.6751
 318  661.1133
 319  707.9209
 320  655.972
 321  773.0239
 322  581.0424
 323  206.4683
 324  115.5921
 325  347.6853
 326  400.2137
 327  351.3469
 328  413.3605
 329  686.4109
 330  534.5609
 331  345.9337
 332  669.5169
 333  714.031
 334  1111.416
 335  1020.166
 336  619.6401
 337  525.3483
 338  135.8673
 339  503.7019
 340  923.2029
 341  277.8016
 342  318.4323
 343  274.3661
 344  524.7128
 345  977.0097
 346  1169.349
 347  769.2649
 348  152.1679
 349  54.38401
 350  357.054
 351  658.848
 352  652.7248
 353  924.726
 354  1033.234
 355  1031.587
 356  615.9714
 357  732.2018
 358  648.9197
 359  534.9576
 360  824.7402
 361  325.6232
 362  456.1729
 363  600.1647
 364  962.3893
 365  882.6646
 366  511.8653
 367  462.9276
 368  702.2734
 369  525.0509
 370  687.2487
 371  653.9998
 372  718.4683
 373  634.7988
 374  750.2733
 375  637.5786
 376  444.5302
 377  550.4105
 378  350.7222
 379  53.64774
 380  -9.293525
 381  239.8834
 382  67.77663
 383  152.5686
 384  448.3494
 385  564.0928
 386  376.1547
 387  310.2599
 388  402.8413
 389  302.8015
 390  300.7496
 391  195.6199
 392  178.9612
 393  12.90221
 394  145.9675
 395  581.6204
 396  761.1356
 397  785.4194
 398  689.431
 399  416.6347
 400  266.2315
 401  599.7809
 402  235.2405
 403  629.2868
 404  562.2861
 405  179.6593
 406  362.4521
 407  391.9681
 408  328.5019
 409  446.2912
 410  522.8447
 411  315.1391
 412  372.6895
 413  437.5068
 414  598.4689
 415  559.0035
 416  222.8341
 417  40.86947
 418  -241.6138
 419  155.4202
 420  244.2956
 421  229.7004
 422  221.0877
 423  66.75012
 424  183.5732
 425  314.9841
 426  52.38393
 427  -156.4685
 428  -84.46593
 429  -95.46648
 430  275.8499
 431  81.74821
 432  268.6936
 433  554.3405
 434  -18.50092
 435  -30.86324
 436  61.88211
 437  -51.53298
 438  -122.9241
 439  320.427
 440  647.5352
 441  500.6335
 442  521.4642
 443  512.7301
 444  107.5336
 445  643.5035
 446  836.1071
 447  388.3607
 448  351.3647
 449  342.0087
 450  235.3625
 451  234.8853
 452  0.8529695
 453  336.3765
 454  270.1901
 455  401.7504
 456  278.9811
 457  167.1606
 458  182.7735
 459  85.34418
 460  568.9458
 461  830.8983
 462  353.9409
 463  185.9164
 464  286.1013
 465  525.3232
 466  603.9839
 467  686.1345
 468  778.2405
 469  797.9637
 470  747.2803
 471  296.2836
 472  317.7764
 473  401.8149
 474  382.748
 475  781.2551
 476  418.5468
 477  609.0073
 478  324.6821
 479  227.2666
 480  322.8712
 481  1257.73
 482  1251.533
 483  590.9916
 484  509.0777
 485  694.8593
 486  238.5354
 487  553.7617
 488  746.5579
 489  676.5518
 490  643.0855
 491  426.2684
 492  849.3809
 493  493.3705
 494  522.9764
 495  41.6093
 496  412.7015
 497  970.7368
 498  579.7886
 499  235.8388
 500  571.4851
 501  775.9668
 502  302.9351
 503  -89.74555
 504  404.4601
 505  429.5735
 506  660.9297
 507  295.4711
 508  412.4345
 509  466.4373
 510  363.22
 511  733.3218
