# Input file       =  1191467071.114228_cleaned.dat
# Candidate        =  PSR_0332+5434
# Telescope        =  AR
# Epoch_topo       =  58034.128357803565
# Epoch_bary       =  N/A
# T_sample         =  0.002
# Data Folded      =  7340032
# Data Avg         =  0.0459589970113093
# Data StdDev      =  2.71776813579589 
# Profile Bins     =  256
# Profile Avg      =  1317.09602194781 
# Profile StdDev   =  460.1944709409   
# Reduced chi-sqr  =  1.433
# Prob(Noise)      <  6.71e-06   (~4.4 sigma)
# P_topo (ms)      =  714.477166539299  +/- 0.000197
# P'_topo (s/s)    =  -0                +/- 1.04e-10
# P''_topo (s/s^2) =  0                 +/- 4.58e-14
# P_bary (ms)      =  N/A
# P'_bary (s/s)    =  N/A
# P''_bary (s/s^2) =  N/A
# P_orb (s)        =  N/A
# asin(i)/c (s)    =  N/A
# eccentricity     =  N/A
# w (rad)          =  N/A
# T_peri           =  N/A
######################################################
   0  1210.232
   1  1598.348
   2  1799.827
   3  929.483
   4  1261.824
   5  1279.305
   6  1479.847
   7  974.0755
   8  951.9918
   9  1481.824
  10  1170.55
  11  1414.655
  12  1226.364
  13  884.3281
  14  839.0392
  15  1083.918
  16  1080.042
  17  1204.039
  18  1996.831
  19  1994.715
  20  842.6399
  21  1080.967
  22  1664.056
  23  1635.906
  24  1685.734
  25  1377.367
  26  1289.208
  27  1036.336
  28  1105.02
  29  1299.944
  30  1042.549
  31  949.298
  32  1008.428
  33  935.1923
  34  1278.839
  35  1238.9
  36  1509.525
  37  1202.821
  38  1092.791
  39  1128.692
  40  838.9908
  41  1505.147
  42  1616.836
  43  1558.346
  44  1234.344
  45  1489.267
  46  1222.682
  47  800.7408
  48  1184.886
  49  1128.989
  50  1421.949
  51  1525.534
  52  1914.735
  53  1213.321
  54  1182.403
  55  1726.164
  56  1395.058
  57  1489.899
  58  2031.046
  59  1799.017
  60  1129.168
  61  1283.902
  62  990.4155
  63  1081.917
  64  841.4639
  65  400.4356
  66  1286.638
  67  1021.636
  68  897.9212
  69  709.8302
  70  1760.733
  71  1887.021
  72  1128.263
  73  1589.908
  74  1794.802
  75  944.1213
  76  1356.198
  77  1863.922
  78  1368.991
  79  1541.368
  80  1881.176
  81  876.1774
  82  1585.623
  83  1617.763
  84  1873.686
  85  1692.895
  86  1830.675
  87  1073.882
  88  1620.724
  89  1005.949
  90  1162.505
  91  1667.002
  92  1868.268
  93  1543.918
  94  1885.785
  95  1745.036
  96  1573.631
  97  1663.253
  98  1233.645
  99  1316.403
 100  1576.605
 101  1498.72
 102  1065.997
 103  1436.077
 104  1258.934
 105  827.869
 106  1719.677
 107  1532.297
 108  1090.349
 109  1439.347
 110  854.1249
 111  1272.021
 112  1076.464
 113  462.6756
 114  1316.675
 115  1942.317
 116  1486.017
 117  751.1061
 118  1299.641
 119  1529.43
 120  1160.519
 121  1124.1
 122  1335.3
 123  1589.499
 124  1765.797
 125  1259.204
 126  857.4045
 127  1399.533
 128  1513.199
 129  1151.058
 130  1621.382
 131  1855.814
 132  1568.672
 133  1387.951
 134  1883.226
 135  1574.448
 136  2042.22
 137  1686.045
 138  2157.7
 139  1409.61
 140  1781.818
 141  1605.029
 142  1065.909
 143  722.4316
 144  1012.336
 145  1835.69
 146  1197.687
 147  946.6417
 148  1306.469
 149  1047.9
 150  840.9892
 151  1264.95
 152  1420.084
 153  1443.286
 154  985.2269
 155  1247.91
 156  1392.777
 157  1278.994
 158  3058.908
 159  4928.693
 160  4311.228
 161  2433.869
 162  1961.151
 163  1036.936
 164  1593.124
 165  1548.988
 166  1684.502
 167  1554.109
 168  1893.479
 169  1659.526
 170  1162.656
 171  969.1964
 172  1540.709
 173  633.3087
 174  1211.089
 175  1599.04
 176  1234.709
 177  1314.25
 178  1047.489
 179  965.0646
 180  1251.101
 181  1438.483
 182  1408.31
 183  1019.959
 184  409.9113
 185  1519.693
 186  1192.141
 187  1379.855
 188  909.9272
 189  1480.748
 190  1042.922
 191  1634.661
 192  1063.002
 193  1543.682
 194  589.1263
 195  803.8061
 196  1209.459
 197  1949.689
 198  1765.398
 199  763.4795
 200  716.0809
 201  1254.456
 202  1122.213
 203  771.1486
 204  1431.841
 205  1006.34
 206  1236.713
 207  1422.889
 208  1304.978
 209  555.5441
 210  975.1906
 211  803.1163
 212  1424.433
 213  998.6009
 214  666.824
 215  972.1547
 216  969.7621
 217  789.1591
 218  1047.386
 219  1325.117
 220  1309.773
 221  1428.35
 222  1431.675
 223  1002.942
 224  1053.162
 225  1424.781
 226  1085.715
 227  1090.949
 228  1253.904
 229  1573.973
 230  828.1701
 231  540.9351
 232  865.8187
 233  923.5344
 234  1211.97
 235  813.6644
 236  1046.481
 237  1792.793
 238  764.9246
 239  781.3699
 240  1023.642
 241  1535.375
 242  1581.427
 243  1462.157
 244  894.6188
 245  945.4419
 246  673.494
 247  960.0307
 248  1025.536
 249  946.8892
 250  1283.283
 251  1488.103
 252  568.0942
 253  905.7515
 254  1428.447
 255  1401.476
