# Input file       =  1191208577.114983_cleaned.dat
# Candidate        =  PSR_0332+5434
# Telescope        =  AR
# Epoch_topo       =  58031.136529108604
# Epoch_bary       =  N/A
# T_sample         =  0.002
# Data Folded      =  7340032
# Data Avg         =  0.0456151960315765
# Data StdDev      =  2.81638621913863 
# Profile Bins     =  512
# Profile Avg      =  653.979381362177 
# Profile StdDev   =  337.214473627149 
# Reduced chi-sqr  =  1.308
# Prob(Noise)      <  3.1e-06   (~4.5 sigma)
# P_topo (ms)      =  714.475313097546  +/- 0.000146
# P'_topo (s/s)    =  -0                +/- 7.71e-11
# P''_topo (s/s^2) =  0                 +/- 3.4e-14
# P_bary (ms)      =  N/A
# P'_bary (s/s)    =  N/A
# P''_bary (s/s^2) =  N/A
# P_orb (s)        =  N/A
# asin(i)/c (s)    =  N/A
# eccentricity     =  N/A
# w (rad)          =  N/A
# T_peri           =  N/A
######################################################
   0  554.765
   1  489.9763
   2  724.5498
   3  877.9924
   4  658.6831
   5  472.773
   6  494.626
   7  537.7897
   8  642.0329
   9  495.5272
  10  901.7158
  11  654.6431
  12  94.12983
  13  204.7578
  14  423.307
  15  727.0215
  16  631.6626
  17  412.2977
  18  414.3157
  19  566.9454
  20  472.1187
  21  475.8481
  22  772.606
  23  661.8684
  24  510.2032
  25  311.5367
  26  361.6882
  27  353.7109
  28  270.6577
  29  883.1218
  30  1109.567
  31  839.7343
  32  750.0634
  33  567.7032
  34  514.3813
  35  431.7796
  36  394.812
  37  429.9459
  38  183.0345
  39  399.1375
  40  219.9869
  41  400.149
  42  832.4778
  43  642.8005
  44  572.7061
  45  724.8757
  46  843.1613
  47  1040.547
  48  795.9777
  49  673.2906
  50  766.1489
  51  758.65
  52  726.9969
  53  752.3682
  54  827.8599
  55  601.4079
  56  494.3945
  57  808.6196
  58  768.9497
  59  622.5156
  60  587.8569
  61  1207.083
  62  1040.229
  63  717.1268
  64  669.1935
  65  526.2537
  66  475.1443
  67  603.9604
  68  753.0984
  69  473.4864
  70  326.4248
  71  717.4486
  72  522.3815
  73  474.8126
  74  585.2701
  75  418.3144
  76  417.4424
  77  527.5823
  78  576.1592
  79  660.3964
  80  932.2396
  81  621.6403
  82  144.8732
  83  417.9483
  84  617.7295
  85  935.7742
  86  1322.849
  87  806.1674
  88  518.4476
  89  466.4938
  90  620.1057
  91  645.9781
  92  493.9955
  93  576.9521
  94  749.0579
  95  237.5572
  96  242.5103
  97  540.2269
  98  308.0435
  99  301.4336
 100  669.0875
 101  769.3759
 102  916.5187
 103  484.7358
 104  441.5417
 105  134.7297
 106  184.2738
 107  774.2859
 108  529.8838
 109  399.0992
 110  452.2138
 111  703.3137
 112  508.756
 113  500.8957
 114  379.0347
 115  546.1002
 116  982.4099
 117  912.7943
 118  818.9023
 119  885.5245
 120  496.7083
 121  477.7975
 122  479.8197
 123  482.101
 124  433.3058
 125  346.3345
 126  747.7793
 127  687.0112
 128  692.1746
 129  830.6303
 130  1109.655
 131  820.6312
 132  611.1079
 133  494.6925
 134  903.515
 135  1242.585
 136  686.7645
 137  472.4807
 138  732.4985
 139  896.9161
 140  809.501
 141  777.0084
 142  896.6031
 143  975.067
 144  1450.618
 145  1889.394
 146  2210.462
 147  2181.483
 148  2167.072
 149  2009.896
 150  1545.963
 151  877.39
 152  749.0325
 153  544.2877
 154  164.5711
 155  518.3536
 156  730.6698
 157  928.8994
 158  462.2989
 159  476.3876
 160  589.414
 161  811.6155
 162  1243.01
 163  926.0361
 164  729.2701
 165  488.7677
 166  465.2185
 167  439.2533
 168  930.1871
 169  955.661
 170  963.1678
 171  567.355
 172  705.8398
 173  750.4139
 174  702.1096
 175  671.5109
 176  607.47
 177  534.6298
 178  807.9306
 179  978.2852
 180  1415.366
 181  1299.199
 182  982.1346
 183  917.2641
 184  1032.821
 185  902.2413
 186  1063.176
 187  857.4958
 188  1064.194
 189  1098.693
 190  972.0273
 191  526.6555
 192  686.7411
 193  611.7358
 194  762.4492
 195  636.8135
 196  528.6799
 197  641.4572
 198  383.9601
 199  580.5324
 200  503.0569
 201  302.1794
 202  585.1659
 203  738.9904
 204  996.8779
 205  1082.173
 206  928.6281
 207  462.7249
 208  893.7438
 209  623.0649
 210  579.5193
 211  832.9346
 212  680.755
 213  516.871
 214  506.8871
 215  568.5613
 216  660.7713
 217  993.9642
 218  974.9302
 219  521.1618
 220  388.2684
 221  788.9098
 222  765.2809
 223  750.1364
 224  402.0098
 225  411.3011
 226  346.5183
 227  789.3884
 228  466.5863
 229  270.7418
 230  464.4125
 231  439.1021
 232  391.0804
 233  400.0067
 234  584.7571
 235  890.0756
 236  740.1068
 237  865.4859
 238  784.1023
 239  566.3165
 240  538.0001
 241  659.3914
 242  608.7463
 243  744.657
 244  329.3448
 245  536.8235
 246  814.8913
 247  562.7291
 248  632.6642
 249  637.8326
 250  591.5192
 251  751.1643
 252  844.2811
 253  675.1687
 254  894.2662
 255  863.5208
 256  494.6736
 257  185.9439
 258  444.6245
 259  544.4722
 260  306.4167
 261  425.8177
 262  713.3008
 263  572.1371
 264  495.3182
 265  570.185
 266  998.4103
 267  901.9976
 268  965.2457
 269  942.5206
 270  647.5898
 271  860.8703
 272  796.6403
 273  850.7524
 274  807.0701
 275  876.1257
 276  901.1492
 277  758.8818
 278  878.1346
 279  695.4327
 280  785.8465
 281  962.761
 282  1058.166
 283  686.9099
 284  856.8079
 285  1191.13
 286  729.2286
 287  459.2701
 288  445.704
 289  745.2202
 290  1142.791
 291  774.9998
 292  513.5406
 293  630.4418
 294  823.3256
 295  718.2047
 296  489.75
 297  544.3489
 298  879.0112
 299  496.1839
 300  535.7969
 301  368.4836
 302  142.1438
 303  208.7941
 304  616.6921
 305  912.3906
 306  982.4019
 307  550.4239
 308  125.1558
 309  548.4747
 310  550.2006
 311  409.629
 312  325.5502
 313  696.2498
 314  617.6396
 315  422.2456
 316  319.7038
 317  321.2296
 318  -25.97905
 319  217.2385
 320  213.7009
 321  729.6918
 322  689.2225
 323  682.4932
 324  554.8246
 325  543.5755
 326  334.3766
 327  320.0069
 328  95.06342
 329  252.9767
 330  267.75
 331  412.2423
 332  274.6656
 333  679.6152
 334  605.489
 335  647.6306
 336  804.5628
 337  907.1108
 338  902.0211
 339  884.6901
 340  919.5097
 341  443.4297
 342  639.1865
 343  392.6255
 344  614.1237
 345  769.9654
 346  553.7855
 347  693.8739
 348  723.1175
 349  667.5675
 350  650.7246
 351  427.851
 352  545.2551
 353  155.0871
 354  584.2514
 355  529.2577
 356  534.1876
 357  692.607
 358  839.1188
 359  758.3011
 360  662.2473
 361  747.6121
 362  761.7092
 363  917.6605
 364  925.9553
 365  728.5205
 366  349.8212
 367  318.8935
 368  273.3337
 369  201.9119
 370  593.8521
 371  870.1379
 372  682.1603
 373  256.8923
 374  651.379
 375  559.6208
 376  987.5052
 377  1192.112
 378  975.187
 379  793.4647
 380  934.0364
 381  826.4936
 382  682.1631
 383  296.1375
 384  195.2687
 385  553.7225
 386  657.5246
 387  717.2302
 388  843.0955
 389  598.0372
 390  716.4199
 391  911.0432
 392  864.2125
 393  694.2318
 394  956.899
 395  1274.101
 396  930.5186
 397  528.1289
 398  687.4704
 399  797.3533
 400  545.4386
 401  493.6276
 402  366.2027
 403  381.4916
 404  408.4762
 405  665.2858
 406  500.519
 407  310.2851
 408  707.6058
 409  616.8671
 410  408.0734
 411  453.7633
 412  810.6602
 413  763.7407
 414  438.7248
 415  459.9105
 416  762.3774
 417  629.8935
 418  694.4598
 419  935.9276
 420  767.2322
 421  726.5787
 422  563.0546
 423  424.8998
 424  562.7885
 425  624.4459
 426  697.9623
 427  1004.531
 428  955.9802
 429  831.8048
 430  953.7977
 431  697.8215
 432  731.355
 433  957.717
 434  672.7955
 435  818.0636
 436  1002.427
 437  765.0906
 438  769.9486
 439  651.744
 440  588.799
 441  319.0835
 442  325.045
 443  252.756
 444  474.9504
 445  628.9501
 446  360.5312
 447  81.65489
 448  346.5551
 449  766.7345
 450  919.7917
 451  817.0112
 452  973.0204
 453  721.7057
 454  814.7289
 455  725.3788
 456  800.7173
 457  842.0991
 458  773.698
 459  1090.47
 460  845.1907
 461  604.4709
 462  480.7203
 463  500.3348
 464  453.2484
 465  516.5554
 466  763.2733
 467  320.4672
 468  254.3286
 469  650.8889
 470  845.6193
 471  1024.027
 472  933.8864
 473  591.5736
 474  551.7338
 475  238.1033
 476  399.1754
 477  846.4171
 478  977.7346
 479  496.1822
 480  725.541
 481  422.5296
 482  399.876
 483  657.956
 484  525.0095
 485  463.2487
 486  546.6553
 487  747.1171
 488  784.4801
 489  371.1014
 490  474.4387
 491  965.145
 492  939.6503
 493  594.4291
 494  375.7234
 495  542.3204
 496  536.4062
 497  522.0769
 498  485.0346
 499  315.9626
 500  440.2124
 501  524.5529
 502  478.0235
 503  222.206
 504  227.4989
 505  407.1773
 506  317.5754
 507  455.6283
 508  683.895
 509  828.8135
 510  254.3133
 511  387.5677
