# Input file       =  1191193657.11263_cleaned.dat
# Candidate        =  PSR_0332+5434
# Telescope        =  AR
# Epoch_topo       =  58030.963843896177
# Epoch_bary       =  N/A
# T_sample         =  0.002
# Data Folded      =  7340032
# Data Avg         =  0.0332857082342213
# Data StdDev      =  2.3463827647069  
# Profile Bins     =  1024
# Profile Avg      =  238.625044204301 
# Profile StdDev   =  198.654248831445 
# Reduced chi-sqr  =  1.446
# Prob(Noise)      <  2.92e-19   (~8.9 sigma)
# P_topo (ms)      =  714.474874294082  +/- 0.000311
# P'_topo (s/s)    =  -0                +/- 1.64e-10
# P''_topo (s/s^2) =  0                 +/- 7.24e-14
# P_bary (ms)      =  N/A
# P'_bary (s/s)    =  N/A
# P''_bary (s/s^2) =  N/A
# P_orb (s)        =  N/A
# asin(i)/c (s)    =  N/A
# eccentricity     =  N/A
# w (rad)          =  N/A
# T_peri           =  N/A
######################################################
   0  37.55677
   1  24.21024
   2  57.7163
   3  198.9709
   4  209.5827
   5  228.3658
   6  275.4866
   7  275.1298
   8  251.636
   9  272.231
  10  223.457
  11  231.3706
  12  260.2517
  13  190.291
  14  59.80799
  15  -116.2656
  16  -36.16603
  17  2.180562
  18  72.55956
  19  70.68875
  20  179.4146
  21  203.1666
  22  207.5207
  23  183.5151
  24  247.6973
  25  231.0102
  26  168.796
  27  179.0553
  28  155.3862
  29  150.5682
  30  80.66071
  31  129.5497
  32  183.9051
  33  214.005
  34  169.3367
  35  173.8574
  36  200.7823
  37  245.2709
  38  259.8869
  39  325.3909
  40  344.3335
  41  263.1683
  42  224.7627
  43  266.1802
  44  233.9238
  45  216.7095
  46  243.5664
  47  310.5299
  48  268.3343
  49  221.4137
  50  293.0683
  51  317.0804
  52  231.5137
  53  175.2982
  54  189.0004
  55  202.4636
  56  232.5177
  57  274.2965
  58  345.4185
  59  282.8074
  60  127.6841
  61  75.48076
  62  210.5968
  63  309.8488
  64  303.3417
  65  161.2694
  66  223.9308
  67  249.6559
  68  138.6742
  69  78.5892
  70  145.1254
  71  306.549
  72  349.8523
  73  327.0678
  74  261.864
  75  254.0215
  76  200.1449
  77  237.1025
  78  278.8982
  79  405.4208
  80  387.9211
  81  247.6407
  82  230.2691
  83  265.4449
  84  328.8348
  85  363.3557
  86  449.7114
  87  526.0826
  88  356.8542
  89  273.526
  90  152.937
  91  149.0617
  92  171.9089
  93  219.135
  94  283.5042
  95  299.4548
  96  297.1061
  97  312.1556
  98  280.6534
  99  308.4308
 100  323.6343
 101  236.1194
 102  103.5209
 103  37.78954
 104  62.91602
 105  188.5594
 106  239.4191
 107  306.0802
 108  317.8072
 109  257.8186
 110  168.7252
 111  86.10959
 112  182.4895
 113  295.9906
 114  298.4532
 115  228.5636
 116  116.369
 117  146.2106
 118  180.0638
 119  254.5016
 120  282.3293
 121  358.9146
 122  443.7974
 123  415.1136
 124  338.2262
 125  237.4637
 126  200.7371
 127  181.0336
 128  182.7832
 129  238.148
 130  363.2927
 131  442.953
 132  423.5882
 133  256.2069
 134  296.3296
 135  306.0079
 136  292.9263
 137  267.2759
 138  268.312
 139  196.6001
 140  148.1143
 141  174.4218
 142  274.4257
 143  269.2072
 144  221.8537
 145  162.4657
 146  96.79946
 147  152.0974
 148  171.1909
 149  219.7565
 150  235.6335
 151  203.2811
 152  180.2009
 153  206.711
 154  291.0542
 155  323.4344
 156  299.1975
 157  163.776
 158  156.327
 159  146.7327
 160  167.5849
 161  220.0795
 162  308.7361
 163  354.6765
 164  341.3183
 165  279.5813
 166  241.3992
 167  218.1636
 168  203.6701
 169  221.1461
 170  248.2966
 171  189.506
 172  145.0995
 173  213.4424
 174  237.3965
 175  309.7636
 176  280.653
 177  346.4851
 178  338.0557
 179  274.5137
 180  131.2948
 181  54.76466
 182  74.62166
 183  96.95108
 184  156.5464
 185  173.6943
 186  254.7961
 187  308.7021
 188  387.341
 189  323.5865
 190  264.2287
 191  197.7545
 192  149.935
 193  128.7612
 194  180.5441
 195  224.3753
 196  258.3107
 197  204.0505
 198  172.7471
 199  258.2754
 200  263.8694
 201  333.2586
 202  303.3426
 203  278.5248
 204  242.7263
 205  247.8108
 206  241.1699
 207  150.2704
 208  98.96909
 209  139.728
 210  269.22
 211  275.6776
 212  310.6654
 213  311.3522
 214  351.5212
 215  286.8054
 216  162.8318
 217  107.2419
 218  97.93176
 219  121.7574
 220  95.64991
 221  52.20295
 222  -46.92148
 223  47.71745
 224  129.8699
 225  233.2067
 226  242.2092
 227  281.3808
 228  257.9328
 229  293.7062
 230  320.8743
 231  228.6751
 232  147.9315
 233  175.5049
 234  311.0735
 235  284.723
 236  187.2262
 237  133.5336
 238  287.0249
 239  272.5626
 240  192.6713
 241  99.50293
 242  159.6979
 243  249.7292
 244  280.9191
 245  314.515
 246  289.7226
 247  284.3232
 248  359.8575
 249  317.976
 250  214.6345
 251  142.0373
 252  159.7025
 253  232.0802
 254  329.2906
 255  483.5139
 256  492.7204
 257  459.5117
 258  326.0301
 259  297.8489
 260  212.3736
 261  259.1962
 262  234.1963
 263  209.8282
 264  88.29232
 265  58.01786
 266  49.78951
 267  88.1441
 268  155.1151
 269  324.2841
 270  280.9792
 271  207.7447
 272  90.06762
 273  96.40225
 274  78.24191
 275  49.02448
 276  121.5156
 277  82.53391
 278  107.1467
 279  140.8442
 280  257.0322
 281  232.1111
 282  170.8298
 283  152.8564
 284  285.7408
 285  294.9346
 286  283.8534
 287  213.3484
 288  253.2503
 289  224.2744
 290  93.18658
 291  49.69049
 292  129.4314
 293  257.7251
 294  354.9092
 295  304.4455
 296  150.098
 297  76.56174
 298  147.763
 299  236.4713
 300  249.9404
 301  256.2038
 302  292.1
 303  291.3784
 304  297.4263
 305  332.7543
 306  346.8692
 307  317.8615
 308  273.192
 309  288.3104
 310  249.3815
 311  237.7113
 312  187.6366
 313  191.2666
 314  198.7178
 315  194.1514
 316  219.1032
 317  229.7697
 318  240.516
 319  238.8617
 320  256.9707
 321  326.2813
 322  438.8385
 323  393.2622
 324  336.4202
 325  259.9947
 326  324.7801
 327  332.521
 328  315.5814
 329  302.2044
 330  231.2429
 331  209.6754
 332  46.63774
 333  40.31589
 334  94.01627
 335  302.567
 336  414.0121
 337  439.6038
 338  454.3107
 339  343.3037
 340  327.195
 341  264.1157
 342  306.2157
 343  241.112
 344  257.1883
 345  303.4495
 346  311.8837
 347  282.9113
 348  177.4836
 349  193.4271
 350  267.163
 351  329.8604
 352  255.004
 353  189.215
 354  161.8117
 355  215.3134
 356  234.5432
 357  323.809
 358  334.8207
 359  325.8912
 360  262.0207
 361  237.7251
 362  232.8422
 363  222.7592
 364  284.9333
 365  377.4482
 366  365.9362
 367  268.5831
 368  194.6001
 369  203.8822
 370  219.3149
 371  243.8428
 372  300.8776
 373  241.8271
 374  165.9078
 375  34.85848
 376  70.63464
 377  132.9769
 378  244.4173
 379  243.6441
 380  184.244
 381  101.9819
 382  90.022
 383  -0.9967256
 384  3.593086
 385  28.81522
 386  186.0166
 387  310.2212
 388  305.69
 389  256.9321
 390  265.2536
 391  277.1876
 392  268.6495
 393  273.6771
 394  282.0549
 395  250.6032
 396  201.144
 397  99.4805
 398  -50.37653
 399  -73.66125
 400  -9.237652
 401  38.63005
 402  -14.53027
 403  -6.712821
 404  96.59464
 405  214.1067
 406  283.4751
 407  219.8714
 408  163.7367
 409  163.0058
 410  242.7943
 411  228.5054
 412  229.0279
 413  213.5851
 414  303.6896
 415  251.076
 416  182.0005
 417  180.2892
 418  225.7555
 419  185.9583
 420  79.56699
 421  96.58244
 422  130.3971
 423  167.6886
 424  74.39149
 425  95.22997
 426  24.304
 427  13.53397
 428  123.4083
 429  281.3173
 430  369.0632
 431  317.8253
 432  230.3365
 433  96.26073
 434  60.25086
 435  85.44389
 436  207.0353
 437  239.8649
 438  327.9088
 439  330.247
 440  313.1729
 441  274.6906
 442  286.6488
 443  259.9379
 444  232.3912
 445  135.8447
 446  121.04
 447  129.0981
 448  216.24
 449  271.6639
 450  295.5136
 451  382.5661
 452  449.5632
 453  365.1163
 454  201.2205
 455  202.8748
 456  370.8781
 457  379.219
 458  261.2213
 459  195.117
 460  302.0133
 461  371.8069
 462  436.3982
 463  393.9561
 464  320.907
 465  243.448
 466  162.1659
 467  199.6966
 468  269.7237
 469  300.5948
 470  322.6625
 471  385.417
 472  424.1151
 473  336.9966
 474  276.0803
 475  326.6001
 476  381.2288
 477  291.0985
 478  234.6946
 479  187.6673
 480  152.9348
 481  153.0598
 482  215.8499
 483  291.6714
 484  325.2688
 485  304.4188
 486  320.0747
 487  257.8072
 488  329.5052
 489  295.9352
 490  260.582
 491  193.3878
 492  265.7144
 493  273.2799
 494  301.1074
 495  306.5054
 496  317.671
 497  272.4278
 498  215.379
 499  177.7673
 500  180.3449
 501  278.6117
 502  403.1968
 503  337.7333
 504  202.0777
 505  165.9718
 506  236.2816
 507  294.0765
 508  306.4565
 509  372.4292
 510  359.9474
 511  305.205
 512  227.5112
 513  268.1762
 514  200.1994
 515  222.2654
 516  328.9054
 517  402.6366
 518  348.7233
 519  284.657
 520  270.862
 521  248.6247
 522  327.9669
 523  313.3005
 524  342.4665
 525  239.9274
 526  286.2138
 527  314.4519
 528  344.4069
 529  210.0849
 530  265.2949
 531  338.9038
 532  426.9237
 533  275.3067
 534  207.0372
 535  232.1709
 536  264.4053
 537  261.0934
 538  214.2609
 539  199.9156
 540  229.8103
 541  335.0097
 542  351.3065
 543  246.0401
 544  93.9268
 545  201.0622
 546  261.2997
 547  342.7832
 548  324.8411
 549  348.4395
 550  301.7709
 551  292.9125
 552  280.1467
 553  177.777
 554  109.6522
 555  37.46902
 556  126.9553
 557  176.6819
 558  225.0079
 559  324.5498
 560  279.0974
 561  280.9765
 562  172.161
 563  114.1948
 564  143.2396
 565  269.9094
 566  359.4092
 567  343.5527
 568  316.5737
 569  256.4048
 570  179.6352
 571  152.9024
 572  287.3112
 573  272.9711
 574  231.1161
 575  146.328
 576  147.1966
 577  198.922
 578  311.0527
 579  382.6046
 580  435.4453
 581  316.1054
 582  125.6881
 583  -46.8352
 584  -1.814912
 585  52.62691
 586  114.8875
 587  207.1237
 588  285.3837
 589  213.2669
 590  20.60295
 591  40.81412
 592  164.77
 593  235.3839
 594  252.4526
 595  127.9544
 596  238.1418
 597  240.6952
 598  387.6638
 599  319.0798
 600  340.9532
 601  260.8959
 602  218.1554
 603  200.562
 604  193.3423
 605  250.5988
 606  342.5048
 607  364.4233
 608  312.5326
 609  144.5867
 610  134.0781
 611  149.943
 612  118.7118
 613  37.02815
 614  -12.93287
 615  50.56256
 616  70.07732
 617  161.6706
 618  196.5007
 619  232.6109
 620  254.2245
 621  258.8377
 622  323.5167
 623  443.2612
 624  450.709
 625  394.376
 626  360.8773
 627  462.422
 628  385.0904
 629  328.8407
 630  342.0125
 631  549.7917
 632  681.8703
 633  844.0762
 634  885.006
 635  845.8344
 636  834.0246
 637  946.724
 638  1115.791
 639  1148.344
 640  1153.508
 641  1147.204
 642  1125.344
 643  926.5949
 644  703.3056
 645  548.2074
 646  530.5287
 647  445.3122
 648  433.6267
 649  484.3104
 650  579.5265
 651  458.4268
 652  285.376
 653  220.5802
 654  222.8164
 655  298.6765
 656  181.0844
 657  241.774
 658  327.1875
 659  395.9591
 660  352.6204
 661  362.5662
 662  436.2215
 663  420.2849
 664  303.8889
 665  375.6933
 666  469.7551
 667  561.7819
 668  546.7986
 669  539.7219
 670  521.7379
 671  481.7794
 672  501.7954
 673  411.09
 674  257.2906
 675  214.63
 676  189.0573
 677  172.5851
 678  171.3063
 679  216.8111
 680  265.1647
 681  238.6112
 682  200.2158
 683  205.699
 684  245.1046
 685  294.4118
 686  356.0832
 687  303.4427
 688  252.5351
 689  165.115
 690  177.8795
 691  187.8706
 692  234.6963
 693  228.6757
 694  230.9851
 695  206.3251
 696  267.0107
 697  270.5501
 698  278.9863
 699  249.9371
 700  199.8198
 701  196.2805
 702  205.9227
 703  285.4052
 704  315.1362
 705  329.1639
 706  288.3622
 707  244.6679
 708  297.287
 709  404.0493
 710  356.9037
 711  288.4359
 712  155.0354
 713  88.7235
 714  95.39716
 715  250.0599
 716  330.2925
 717  296.145
 718  260.3765
 719  183.027
 720  80.54694
 721  -11.78728
 722  -3.59292
 723  98.30906
 724  162.1422
 725  192.5247
 726  143.2956
 727  33.86391
 728  67.12258
 729  158.4646
 730  330.2249
 731  286.7028
 732  249.4961
 733  175.4254
 734  209.1291
 735  291.7344
 736  248.7431
 737  282.8695
 738  248.4355
 739  331.2973
 740  218.2184
 741  215.6674
 742  271.1592
 743  369.9008
 744  339.975
 745  302.9475
 746  220.9514
 747  135.2892
 748  144.1964
 749  236.3977
 750  263.6614
 751  294.3785
 752  243.8033
 753  167.1823
 754  80.62183
 755  193.1495
 756  220.8281
 757  298.6646
 758  305.1373
 759  291.8751
 760  148.6021
 761  44.1666
 762  65.37056
 763  73.48075
 764  128.7531
 765  170.9257
 766  122.1684
 767  -2.78226
 768  -51.24408
 769  -10.47848
 770  47.21187
 771  155.3701
 772  198.8764
 773  198.4052
 774  53.46489
 775  117.9803
 776  139.3751
 777  294.7158
 778  312.3669
 779  374.3987
 780  259.5313
 781  224.2507
 782  221.8467
 783  242.2932
 784  155.5461
 785  174.0175
 786  201.1931
 787  198.9058
 788  123.8248
 789  198.146
 790  260.926
 791  300.5922
 792  235.3008
 793  176.6084
 794  231.5318
 795  306.6252
 796  379.5133
 797  293.3106
 798  237.8415
 799  201.7475
 800  193.9793
 801  131.6538
 802  83.98895
 803  38.81902
 804  26.32758
 805  88.13747
 806  138.6091
 807  217.2695
 808  198.463
 809  273.9367
 810  170.9323
 811  201.2492
 812  210.0646
 813  345.5082
 814  313.5126
 815  178.2679
 816  110.789
 817  141.559
 818  133.5436
 819  114.7702
 820  -36.50203
 821  -43.69724
 822  -35.93792
 823  72.1744
 824  90.36208
 825  121.212
 826  239.6752
 827  319.5413
 828  337.1079
 829  280.6628
 830  306.9152
 831  344.5922
 832  292.2649
 833  343.7355
 834  362.7468
 835  330.982
 836  174.8197
 837  145.359
 838  239.0231
 839  254.671
 840  254.9219
 841  233.0008
 842  301.0119
 843  356.6573
 844  387.5147
 845  358.0926
 846  187.7884
 847  143.2587
 848  245.9396
 849  355.1976
 850  332.1926
 851  283.1528
 852  309.1885
 853  293.2007
 854  150.2998
 855  146.467
 856  168.5732
 857  218.0587
 858  214.6072
 859  268.3257
 860  250.1357
 861  183.3979
 862  216.3814
 863  240.436
 864  243.8342
 865  175.1745
 866  195.9124
 867  165.0467
 868  153.1908
 869  127.1887
 870  166.4425
 871  272.951
 872  380.1462
 873  414.7812
 874  326.2625
 875  339.1773
 876  351.5977
 877  274.0375
 878  253.1129
 879  330.95
 880  432.0447
 881  294.4985
 882  153.6538
 883  37.97796
 884  140.6829
 885  94.2117
 886  154.9409
 887  94.13233
 888  179.5181
 889  231.1991
 890  302.489
 891  268.5778
 892  203.0301
 893  207.0904
 894  148.4095
 895  179.9409
 896  197.2264
 897  185.125
 898  144.9548
 899  104.2724
 900  134.6379
 901  109.0758
 902  213.585
 903  297.4601
 904  425.7634
 905  252.524
 906  196.1228
 907  161.2701
 908  255.7696
 909  171.5211
 910  192.8821
 911  273.8471
 912  287.7688
 913  246.6987
 914  258.6028
 915  292.3431
 916  258.4668
 917  321.2972
 918  286.0695
 919  204.6479
 920  171.3404
 921  203.2781
 922  197.4392
 923  154.8433
 924  236.8212
 925  212.5656
 926  120.4091
 927  -2.319434
 928  32.33398
 929  124.8842
 930  208.6546
 931  254.7868
 932  285.925
 933  283.3499
 934  338.7583
 935  289.144
 936  207.9478
 937  165.1693
 938  192.7076
 939  146.9178
 940  84.52441
 941  42.1699
 942  74.94195
 943  168.0991
 944  265.8369
 945  302.4268
 946  267.0808
 947  136.3101
 948  65.49474
 949  45.49228
 950  36.21192
 951  45.85816
 952  116.9504
 953  175.1913
 954  86.26402
 955  3.702311
 956  -37.4452
 957  82.04588
 958  154.2124
 959  239.1806
 960  273.5154
 961  245
 962  163.2195
 963  145.3279
 964  202.4756
 965  284.5538
 966  291.9105
 967  225.9545
 968  263.526
 969  182.0345
 970  195.1827
 971  138.043
 972  143.4556
 973  150.0076
 974  144.9398
 975  228.5222
 976  255.6083
 977  239.2699
 978  207.759
 979  396.1957
 980  438.8116
 981  353.5735
 982  185.375
 983  138.1061
 984  140.8767
 985  114.6944
 986  24.83458
 987  -50.84011
 988  -77.74013
 989  68.49299
 990  119.0153
 991  184.4149
 992  258.5533
 993  348.9603
 994  245.8916
 995  211.0168
 996  205.0074
 997  279.8006
 998  190.1829
 999  279.057
1000  237.9052
1001  228.293
1002  136.3448
1003  169.9383
1004  212.7913
1005  223.78
1006  221.7885
1007  179.1264
1008  170.0506
1009  168.2126
1010  218.0233
1011  295.6736
1012  387.6457
1013  389.4869
1014  260.415
1015  201.474
1016  199.3947
1017  223.9493
1018  210.558
1019  149.5019
1020  166.5293
1021  197.427
1022  207.1856
1023  200.4242
