# Input file       =  1191954469.124143_cleaned.dat
# Candidate        =  PSR_0332+5434
# Telescope        =  AR
# Epoch_topo       =  58039.769538473876
# Epoch_bary       =  N/A
# T_sample         =  0.002
# Data Folded      =  7208960
# Data Avg         =  0.0728060162255796
# Data StdDev      =  3.07966339258352 
# Profile Bins     =  512
# Profile Avg      =  1025.01593266124 
# Profile StdDev   =  365.430319885469 
# Reduced chi-sqr  =  1.155
# Prob(Noise)      <  0.00858   (~2.4 sigma)
# P_topo (ms)      =  714.48063834783   +/- 0.000165
# P'_topo (s/s)    =  -0                +/- 8.86e-11
# P''_topo (s/s^2) =  0                 +/- 3.98e-14
# P_bary (ms)      =  N/A
# P'_bary (s/s)    =  N/A
# P''_bary (s/s^2) =  N/A
# P_orb (s)        =  N/A
# asin(i)/c (s)    =  N/A
# eccentricity     =  N/A
# w (rad)          =  N/A
# T_peri           =  N/A
######################################################
   0  924.8915
   1  814.672
   2  781.9077
   3  1028.401
   4  1163.177
   5  1269.31
   6  1219.917
   7  876.4708
   8  738.0251
   9  772.5817
  10  1157.387
  11  1044.22
  12  937.5172
  13  1033.426
  14  1054.753
  15  872.2656
  16  1321.621
  17  1297.595
  18  921.6891
  19  916.6428
  20  847.9357
  21  773.3627
  22  958.7265
  23  1053.579
  24  964.0186
  25  1033.523
  26  714.4431
  27  989.1524
  28  1046.397
  29  946.7162
  30  1064.934
  31  1285.258
  32  1028.868
  33  680.567
  34  662.8172
  35  901.6137
  36  1193.45
  37  1313.44
  38  1421.508
  39  1180.396
  40  944.7825
  41  986.8463
  42  864.7477
  43  1104.367
  44  755.9928
  45  655.3744
  46  904.3774
  47  992.7268
  48  881.3561
  49  1092.058
  50  983.4946
  51  885.6384
  52  1071.073
  53  1157.943
  54  1027.445
  55  1056.924
  56  1336.592
  57  1245.295
  58  1118.098
  59  1438.224
  60  905.9172
  61  725.6669
  62  999.149
  63  926.2736
  64  763.1846
  65  731.6105
  66  640.902
  67  686.2443
  68  768.4684
  69  759.1689
  70  1157.184
  71  964.019
  72  1153.441
  73  1339.604
  74  1003.498
  75  788.6372
  76  857.5947
  77  844.8047
  78  722.5634
  79  931.3395
  80  934.3105
  81  1114.011
  82  1158.332
  83  1007.012
  84  843.2407
  85  498.3787
  86  750.1096
  87  562.9326
  88  607.7449
  89  774.9314
  90  891.0988
  91  978.223
  92  1021.284
  93  903.6598
  94  967.1467
  95  1232.328
  96  1092.603
  97  980.8242
  98  989.0681
  99  804.1347
 100  620.7898
 101  726.21
 102  1041.972
 103  1074.747
 104  1125.542
 105  807.0626
 106  876.0219
 107  1076.441
 108  923.8511
 109  764.5933
 110  1017.055
 111  1065.483
 112  867.5867
 113  850.4583
 114  902.7823
 115  1145.149
 116  1040.314
 117  789.4165
 118  704.2606
 119  687.051
 120  621.7542
 121  903.4293
 122  920.5433
 123  1059.189
 124  877.6833
 125  1144.194
 126  1219.245
 127  1200.056
 128  1245.059
 129  1204.555
 130  1024.286
 131  1043.741
 132  814.9248
 133  712.9835
 134  1014.068
 135  1198.782
 136  840.6865
 137  1044.812
 138  798.7279
 139  841.1083
 140  747.0248
 141  685.8231
 142  785.5903
 143  982.3357
 144  1008.016
 145  1120.218
 146  929.9764
 147  858.5636
 148  770.5151
 149  945.6454
 150  1088.589
 151  1019.276
 152  937.9225
 153  1351.68
 154  1100.156
 155  971.7315
 156  1168.641
 157  1032.932
 158  1159.231
 159  1243.038
 160  1232.711
 161  1194.346
 162  866.1097
 163  849.2997
 164  1348.232
 165  957.5031
 166  866.8786
 167  700.0963
 168  974.8241
 169  1172.458
 170  1261.52
 171  1063.996
 172  1143.386
 173  1129.395
 174  1235.36
 175  923.9444
 176  928.321
 177  1343.207
 178  1054.675
 179  1001.899
 180  1028.825
 181  784.2185
 182  881.5114
 183  1129.453
 184  1067.849
 185  1322.351
 186  954.2842
 187  878.5573
 188  939.3494
 189  1028.011
 190  899.2672
 191  784.6035
 192  800.8742
 193  1065.839
 194  1363.876
 195  953.4158
 196  927.3601
 197  757.7645
 198  894.8347
 199  984.2662
 200  995.4086
 201  1276.189
 202  991.1929
 203  728.5363
 204  1112.854
 205  823.8381
 206  752.0298
 207  969.3073
 208  926.9136
 209  839.7465
 210  970.9091
 211  1259.623
 212  1323.75
 213  1112.459
 214  1000.188
 215  975.4104
 216  732.2179
 217  953.6757
 218  932.3832
 219  773.2199
 220  913.8823
 221  1023.845
 222  915.15
 223  916.9971
 224  724.7527
 225  716.5113
 226  1026.527
 227  1141.66
 228  1181.099
 229  1139.124
 230  1092.81
 231  1192.668
 232  1239.244
 233  1043.649
 234  857.7499
 235  788.7778
 236  940.1356
 237  1323.135
 238  1505.121
 239  934.9634
 240  931.9325
 241  786.7892
 242  910.4164
 243  954.1572
 244  1086.297
 245  1406.845
 246  1341.534
 247  1006.728
 248  438.4654
 249  348.6313
 250  699.8126
 251  737.9678
 252  1043.823
 253  1112.989
 254  846.8824
 255  1077.91
 256  786.1135
 257  805.6247
 258  726.0854
 259  897.9179
 260  683.6197
 261  913.8953
 262  992.2142
 263  1116.511
 264  1262.135
 265  960.921
 266  1120.485
 267  921.2735
 268  850.6953
 269  996.2477
 270  1149.017
 271  1132.641
 272  741.3915
 273  1067.203
 274  1351.417
 275  1199.433
 276  1111.901
 277  808.2639
 278  1054.478
 279  1227.07
 280  1494.533
 281  1312.452
 282  1065.252
 283  935.3067
 284  786.0524
 285  989.853
 286  1171.143
 287  1444.915
 288  1190.934
 289  1019.404
 290  1216.96
 291  1007.905
 292  1169.747
 293  1004.07
 294  1001.421
 295  1124.922
 296  1074.583
 297  1009.007
 298  1074.721
 299  1017.844
 300  1083.929
 301  1054.165
 302  1016.334
 303  1298.612
 304  1108.854
 305  1103.579
 306  915.0609
 307  954.6703
 308  1233.915
 309  1022.818
 310  1317.792
 311  1640.855
 312  1623.178
 313  1188.199
 314  1297.862
 315  1627.141
 316  2021.525
 317  2828.826
 318  3085.511
 319  3492.63
 320  2934.671
 321  2465.205
 322  2101.57
 323  1481.192
 324  1338.829
 325  1441.184
 326  1212.154
 327  1115.002
 328  1249.753
 329  1334.081
 330  1242.875
 331  1071.211
 332  1102.312
 333  1404.254
 334  1229.617
 335  1489.392
 336  1497.388
 337  1289.063
 338  1126.016
 339  1029.722
 340  798.002
 341  919.2676
 342  1142.891
 343  1063.915
 344  1033.963
 345  756.3665
 346  1058.963
 347  1119.995
 348  1003.382
 349  544.1907
 350  746.8245
 351  1053.825
 352  1365.344
 353  1131.288
 354  1075.442
 355  1217.709
 356  781.2342
 357  792.6223
 358  759.7884
 359  737.1326
 360  1015.217
 361  1106.289
 362  949.2817
 363  926.9918
 364  918.2513
 365  713.6383
 366  543.8698
 367  889.9895
 368  807.5895
 369  821.834
 370  1146.992
 371  1238.961
 372  1243.219
 373  1090.97
 374  945.7578
 375  847.4818
 376  726.8716
 377  946.8432
 378  1105.375
 379  1013.474
 380  952.5555
 381  1118.162
 382  851.1465
 383  872.1185
 384  917.2318
 385  1022.416
 386  949.3324
 387  903.2786
 388  966.7081
 389  829.9731
 390  1237.744
 391  1326.265
 392  1133.688
 393  1350.038
 394  1225.618
 395  1070.912
 396  818.9269
 397  516.4749
 398  715.1967
 399  989.5411
 400  1432.238
 401  848.0044
 402  967.9754
 403  714.496
 404  698.2731
 405  634.6117
 406  481.5188
 407  670.3896
 408  976.3008
 409  1060.569
 410  1087.539
 411  1006.405
 412  1102.932
 413  1003.783
 414  1013.907
 415  751.1119
 416  851.4583
 417  866.9302
 418  900.209
 419  933.8495
 420  939.8067
 421  1144.422
 422  1265.221
 423  1139.587
 424  864.627
 425  546.3978
 426  1161.197
 427  1047.831
 428  1038.378
 429  901.3647
 430  942.3607
 431  860.2978
 432  988.9097
 433  962.8277
 434  930.2188
 435  1009.511
 436  965.4511
 437  1308.384
 438  890.3195
 439  1067.47
 440  1176.28
 441  1194.486
 442  966.4786
 443  1074.466
 444  954.6026
 445  1257.689
 446  1352.471
 447  1072.156
 448  912.1983
 449  596.5011
 450  935.6049
 451  1070.187
 452  878.0139
 453  1215.143
 454  1120.584
 455  977.4152
 456  1016.863
 457  1233.953
 458  1089.909
 459  1139.286
 460  1070.175
 461  896.1754
 462  1034.58
 463  894.4332
 464  994.1511
 465  835.1646
 466  1000.921
 467  1095.834
 468  1076.253
 469  1188.328
 470  1052.456
 471  1201.943
 472  900.7774
 473  707.7283
 474  783.6852
 475  1108.072
 476  1268.839
 477  1393.292
 478  1197.836
 479  730.1201
 480  830.917
 481  929.7236
 482  864.1881
 483  1133.682
 484  1003.994
 485  1032.8
 486  777.7985
 487  771.1191
 488  964.0602
 489  964.7748
 490  957.7413
 491  1100.443
 492  1022.803
 493  1031.16
 494  876.4306
 495  990.9094
 496  1077.416
 497  867.8892
 498  912.8248
 499  1100.735
 500  841.1811
 501  917.3742
 502  1031.419
 503  911.2899
 504  1079.48
 505  923.9833
 506  1096.363
 507  929.2124
 508  994.8607
 509  1285.587
 510  1331.331
 511  957.4319
