# Input file       =  1191006699.107559_cleaned.dat
# Candidate        =  PSR_0332+5434
# Telescope        =  AR
# Epoch_topo       =  58028.799978096744
# Epoch_bary       =  N/A
# T_sample         =  0.002
# Data Folded      =  7208960
# Data Avg         =  0.0882475982631815
# Data StdDev      =  3.51945975408629 
# Profile Bins     =  512
# Profile Avg      =  1242.36963044726 
# Profile StdDev   =  417.616193658381 
# Reduced chi-sqr  =  0.759
# Prob(Noise)      <  1   (~0.0 sigma)
# P_topo (ms)      =  714.47359651932   +/- 8.29e-05
# P'_topo (s/s)    =  -0                +/- 4.45e-11
# P''_topo (s/s^2) =  0                 +/- 2e-14
# P_bary (ms)      =  N/A
# P'_bary (s/s)    =  N/A
# P''_bary (s/s^2) =  N/A
# P_orb (s)        =  N/A
# asin(i)/c (s)    =  N/A
# eccentricity     =  N/A
# w (rad)          =  N/A
# T_peri           =  N/A
######################################################
   0  1142.529
   1  805.196
   2  1019.291
   3  1112.593
   4  1248.703
   5  1110.666
   6  1093.837
   7  988.317
   8  1334.6
   9  1209.203
  10  1036.511
  11  1229.132
  12  1225.095
  13  1107.651
  14  919.3762
  15  1523.844
  16  1279.979
  17  1210.149
  18  1135.529
  19  1254.435
  20  1315.878
  21  974.8874
  22  1140.483
  23  860.7337
  24  1059.776
  25  1003.444
  26  1074.885
  27  1292.38
  28  1189.433
  29  908.3889
  30  1148.541
  31  1214.614
  32  1226.204
  33  1275.502
  34  1338.788
  35  1132.712
  36  1025.205
  37  1407.824
  38  1172.826
  39  1134.034
  40  1182.254
  41  1431.432
  42  955.5836
  43  688.5217
  44  1183.679
  45  1220.712
  46  1211.1
  47  1128.889
  48  1323.359
  49  1040.021
  50  1236.633
  51  1407.371
  52  1190.802
  53  1341.139
  54  1394.573
  55  1503.378
  56  1318.972
  57  1641.078
  58  1565.124
  59  1439.118
  60  1224.268
  61  1053.398
  62  1098.748
  63  1256.257
  64  1481.433
  65  1227.524
  66  1169.675
  67  1098.818
  68  889.0927
  69  775.577
  70  1171.78
  71  1291.042
  72  1563.45
  73  1356.818
  74  1124.446
  75  1006.578
  76  1025.509
  77  1016.8
  78  1333.99
  79  1547.017
  80  1441.547
  81  1309.749
  82  1255.47
  83  1404.033
  84  1264.459
  85  1119.476
  86  1399.397
  87  1224.571
  88  764.5776
  89  1118.39
  90  1390.573
  91  1312.459
  92  1267.979
  93  1364.321
  94  1510.802
  95  1090.071
  96  1262.071
  97  1318.753
  98  1554.185
  99  1429.159
 100  1304.77
 101  1427.93
 102  1156.598
 103  1054.534
 104  1206.732
 105  1104.921
 106  1367.38
 107  1026.466
 108  1304.683
 109  1155.662
 110  1243.614
 111  1387.006
 112  1362.574
 113  1061.425
 114  1174.953
 115  964.137
 116  852.8618
 117  857.1542
 118  881.9694
 119  1114.387
 120  1059.616
 121  864.7739
 122  1311.097
 123  1518.055
 124  1286.046
 125  1212.286
 126  1203.438
 127  1248.356
 128  674.5643
 129  780.7034
 130  1396.65
 131  1465.226
 132  1172.057
 133  1149.929
 134  1341.901
 135  1040.212
 136  975.7444
 137  1345.298
 138  1328.705
 139  1539.12
 140  1398.218
 141  1186.482
 142  1100.181
 143  1327.887
 144  1340.535
 145  1104.198
 146  1333.996
 147  1451.362
 148  1149.05
 149  857.521
 150  1238.961
 151  1090.435
 152  926.2351
 153  1088.384
 154  854.9387
 155  865.9694
 156  1340.352
 157  1279.877
 158  1198.327
 159  976.4752
 160  1020.164
 161  1051.209
 162  1163.748
 163  1233.844
 164  1482.758
 165  1461.748
 166  1592.523
 167  1074.661
 168  893.0087
 169  627.3054
 170  655.6901
 171  777.777
 172  1545.223
 173  1601.741
 174  1310.139
 175  1205.039
 176  1073.037
 177  1295.537
 178  1271.897
 179  1092.37
 180  1493.216
 181  1354.067
 182  826.894
 183  805.4397
 184  1020.649
 185  1125.573
 186  1237.823
 187  1204.039
 188  1364.477
 189  1408.831
 190  1560.442
 191  1197.843
 192  1211.66
 193  1356.744
 194  1052.811
 195  1424.454
 196  1590.774
 197  1592.564
 198  1326.978
 199  1446.612
 200  1071.539
 201  1062.112
 202  1169.142
 203  1226.936
 204  1256.49
 205  1426.777
 206  1762.128
 207  1620.422
 208  1278.719
 209  1395.071
 210  1074.288
 211  1234.363
 212  1375.797
 213  1408.34
 214  1609.015
 215  1308.749
 216  941.8667
 217  1013.809
 218  1195.644
 219  1343.851
 220  1444.567
 221  1365.094
 222  1679.084
 223  1352.831
 224  909.2958
 225  1558.958
 226  1224.453
 227  1020.884
 228  1151.345
 229  1160.92
 230  1566.032
 231  1186.422
 232  942.0798
 233  1034.509
 234  1108.594
 235  1291.922
 236  1113.639
 237  1448.764
 238  1416.909
 239  1670.619
 240  1636.007
 241  1418.203
 242  991.1536
 243  1327.498
 244  1416.295
 245  1332.199
 246  1535.964
 247  1493.807
 248  1548.104
 249  1436.547
 250  1306.191
 251  1065.893
 252  1275.606
 253  1124.579
 254  1269.564
 255  1215.907
 256  1202.72
 257  1128.635
 258  1055.021
 259  1231.296
 260  1267.529
 261  1176.41
 262  1247.486
 263  1668.063
 264  1635.064
 265  1339.375
 266  1077.335
 267  1085.05
 268  831.5674
 269  801.1674
 270  1250.905
 271  1144.818
 272  1263.885
 273  1243.024
 274  1077.104
 275  655.0001
 276  793.8159
 277  912.4133
 278  1153.117
 279  1414.535
 280  1286.823
 281  887.3706
 282  866.918
 283  926.8777
 284  814.6875
 285  1094.804
 286  1025.577
 287  1240.097
 288  1181.886
 289  1005.112
 290  1263.614
 291  1219.972
 292  1053.328
 293  1273.435
 294  1199.398
 295  948.4854
 296  959.0325
 297  1220.235
 298  847.8221
 299  946.7668
 300  1126.469
 301  1236.651
 302  1445.38
 303  1077.737
 304  1424.412
 305  1343.057
 306  1146.044
 307  1297.536
 308  1220.565
 309  1509.693
 310  1402.841
 311  1333.92
 312  1402.566
 313  1648.443
 314  1502.911
 315  1481.87
 316  1788.249
 317  1918.192
 318  2462.721
 319  2737.562
 320  2725.377
 321  2779.048
 322  2772.531
 323  2075.102
 324  1487.6
 325  1174.248
 326  1221.831
 327  1346.186
 328  1528.104
 329  1348.636
 330  1293.044
 331  1428.631
 332  1304.032
 333  1200.066
 334  1369.824
 335  1837.915
 336  1316.323
 337  1589.27
 338  1454.538
 339  1606.889
 340  1407.661
 341  1206.059
 342  1095.122
 343  1201.959
 344  1350.952
 345  1424.238
 346  1212.306
 347  1221.77
 348  1209.412
 349  1092.902
 350  891.1686
 351  1239.171
 352  1473.935
 353  1313.431
 354  1634.565
 355  1414.283
 356  1157.652
 357  1090.137
 358  1156.352
 359  1395.025
 360  1361.348
 361  1418.207
 362  1502.765
 363  1396.636
 364  1694.518
 365  1520.674
 366  1471.651
 367  1370.797
 368  963.3227
 369  1222.262
 370  1172.146
 371  1414.943
 372  1284.505
 373  1328.346
 374  1154.657
 375  979.9708
 376  1006.392
 377  1142.146
 378  1014.383
 379  1101.315
 380  1204.765
 381  1731.01
 382  931.4399
 383  895.3529
 384  1222.727
 385  1311.844
 386  1364.576
 387  1162.241
 388  1023.512
 389  1031.29
 390  1239.833
 391  1540.901
 392  1263.425
 393  1145.999
 394  1129.555
 395  1393.215
 396  1373.874
 397  1178.928
 398  751.1139
 399  848.439
 400  1068.972
 401  794.9688
 402  1120.098
 403  1093.851
 404  1348.959
 405  1203.161
 406  1060.008
 407  1086.559
 408  848.8315
 409  1244.511
 410  1098.315
 411  861.5885
 412  1211.536
 413  1073.167
 414  1072.989
 415  785.0076
 416  744.7711
 417  913.727
 418  899.6455
 419  1130.74
 420  1258.844
 421  1122.985
 422  1395.504
 423  1741.558
 424  1221.959
 425  815.7796
 426  1013.005
 427  1340.045
 428  1100.284
 429  1413.976
 430  1369.509
 431  881.0776
 432  823.4667
 433  927.9573
 434  1420.478
 435  1390.559
 436  1616.551
 437  1517.801
 438  1490.8
 439  1164.842
 440  1228.052
 441  1384.657
 442  1277.431
 443  1004.474
 444  1409.604
 445  1660.634
 446  1273.799
 447  1132.412
 448  1128.796
 449  1241.283
 450  1148.948
 451  1366.433
 452  1333.698
 453  1391.969
 454  1269.265
 455  1399.327
 456  1366.812
 457  1056.151
 458  881.606
 459  1000.85
 460  1347.785
 461  992.6248
 462  1371.034
 463  1468.21
 464  1409.133
 465  1427.349
 466  1500.903
 467  1465.676
 468  999.6696
 469  1418.235
 470  1370.342
 471  1005.86
 472  1491.394
 473  1639.21
 474  1318.052
 475  994.9507
 476  1133.855
 477  1427.864
 478  1400.37
 479  1358.501
 480  999.5024
 481  1108.942
 482  1114.623
 483  1263.948
 484  1434.847
 485  1469.046
 486  1653.84
 487  1321.221
 488  1052.443
 489  830.7383
 490  1082.829
 491  1468.755
 492  1256.484
 493  1474.086
 494  1317.934
 495  1436.178
 496  1391.146
 497  1142.662
 498  1285.733
 499  1018.148
 500  862.822
 501  1146.407
 502  1500.227
 503  1469.827
 504  1385.822
 505  1214.479
 506  1041.734
 507  1133.198
 508  1119.369
 509  940.0273
 510  1160.858
 511  1392.143
