# Input file       =  1191969090.136214_cleaned.dat
# Candidate        =  PSR_0332+5434
# Telescope        =  AR
# Epoch_topo       =  58039.938763150625
# Epoch_bary       =  N/A
# T_sample         =  0.002
# Data Folded      =  7340032
# Data Avg         =  0.0257831084080473
# Data StdDev      =  2.23396815268192 
# Profile Bins     =  1024
# Profile Avg      =  184.891036964728 
# Profile StdDev   =  189.136773402712 
# Reduced chi-sqr  =  1.934
# Prob(Noise)      <  2.33e-63   (~16.8 sigma)
# P_topo (ms)      =  714.480773797543  +/- 0.000186
# P'_topo (s/s)    =  -0                +/- 9.83e-11
# P''_topo (s/s^2) =  0                 +/- 4.34e-14
# P_bary (ms)      =  N/A
# P'_bary (s/s)    =  N/A
# P''_bary (s/s^2) =  N/A
# P_orb (s)        =  N/A
# asin(i)/c (s)    =  N/A
# eccentricity     =  N/A
# w (rad)          =  N/A
# T_peri           =  N/A
######################################################
   0  53.56305
   1  -32.26899
   2  10.99717
   3  82.43749
   4  164.2654
   5  203.3085
   6  203.2399
   7  149.4232
   8  184.5527
   9  249.1103
  10  272.7551
  11  193.8367
  12  123.1755
  13  165.9069
  14  111.3536
  15  96.28342
  16  52.759
  17  18.03842
  18  20.0412
  19  62.78001
  20  125.9861
  21  59.16158
  22  -4.052863
  23  93.12338
  24  87.29544
  25  76.09137
  26  -13.55699
  27  59.41018
  28  162.6831
  29  203.6523
  30  191.4297
  31  149.1376
  32  106.2534
  33  126.7055
  34  19.02301
  35  80.11811
  36  54.52633
  37  97.00493
  38  160.9581
  39  181.9202
  40  269.6524
  41  298.6632
  42  312.4246
  43  300.7061
  44  226.3465
  45  253.2829
  46  95.49302
  47  76.72126
  48  21.60383
  49  142.9398
  50  106.0016
  51  133.4885
  52  163.1954
  53  66.7012
  54  34.71669
  55  32.80566
  56  142.8896
  57  92.31985
  58  58.46267
  59  57.21646
  60  100.6301
  61  165.7124
  62  189.5482
  63  137.135
  64  28.48267
  65  48.82394
  66  177.4707
  67  176.9673
  68  113.5249
  69  17.83944
  70  69.30927
  71  71.83
  72  133.6775
  73  158.3001
  74  196.5263
  75  251.8392
  76  360.0081
  77  345.3672
  78  249.6283
  79  110.7921
  80  95.10653
  81  112.5604
  82  94.57288
  83  158.5295
  84  123.8704
  85  179.5185
  86  105.6357
  87  198.0238
  88  235.7792
  89  233.4332
  90  132.5482
  91  167.3993
  92  178.4348
  93  168.6529
  94  31.51811
  95  -6.626967
  96  13.26787
  97  -0.169536
  98  18.43396
  99  26.89455
 100  123.5321
 101  212.289
 102  198.4384
 103  159.723
 104  121.1977
 105  128.7769
 106  136.7084
 107  181.2162
 108  281.8265
 109  269.229
 110  238.4504
 111  123.439
 112  100.8644
 113  155.7699
 114  191.5154
 115  175.5216
 116  167.901
 117  154.6067
 118  247.4647
 119  208.1592
 120  291.6256
 121  241.6396
 122  286.5792
 123  294.6006
 124  339.9477
 125  355.0178
 126  316.9692
 127  158.3039
 128  74.20451
 129  28.25576
 130  18.17809
 131  43.36747
 132  -6.236107
 133  42.08302
 134  74.01167
 135  119.4332
 136  91.47923
 137  99.65392
 138  207.9656
 139  241.0672
 140  279.3128
 141  303.6513
 142  334.1393
 143  263.4684
 144  63.7424
 145  27.05635
 146  83.89987
 147  163.5816
 148  120.8579
 149  87.39198
 150  69.38316
 151  46.36987
 152  171.6615
 153  288.2762
 154  209.7238
 155  101.4602
 156  41.71497
 157  70.78701
 158  83.75987
 159  89.10786
 160  195.4134
 161  244.0081
 162  343.3527
 163  206.9342
 164  63.79522
 165  -57.57463
 166  49.74174
 167  85.7644
 168  110.871
 169  108.0158
 170  250.581
 171  310.8411
 172  324.8766
 173  201.1103
 174  166.0406
 175  210.7221
 176  290.6368
 177  294.0879
 178  177.163
 179  188.1336
 180  205.101
 181  198.9726
 182  142.7129
 183  108.408
 184  109.3145
 185  167.7704
 186  185.68
 187  136.029
 188  31.29441
 189  -18.44493
 190  67.47208
 191  177.8788
 192  230.9235
 193  204.4072
 194  231.2422
 195  230.2069
 196  202.541
 197  87.96255
 198  87.74231
 199  89.21927
 200  75.95842
 201  -15.04697
 202  35.97812
 203  22.26095
 204  70.19704
 205  56.31299
 206  75.25159
 207  98.83513
 208  149.1214
 209  270.3507
 210  246.8466
 211  225.888
 212  182.7468
 213  306.066
 214  300.7224
 215  324.8585
 216  184.9607
 217  160.3295
 218  132.3873
 219  49.91002
 220  8.724106
 221  141.5147
 222  296.4619
 223  429.0774
 224  450.7897
 225  482.0602
 226  466.3694
 227  391.8163
 228  258.6824
 229  90.3157
 230  -35.49252
 231  -33.38348
 232  72.61604
 233  233.8548
 234  363.4091
 235  250.6742
 236  140.2035
 237  149.4706
 238  246.6829
 239  205.0088
 240  146.3314
 241  150.0742
 242  254.2399
 243  169.1928
 244  169.7018
 245  158.6488
 246  166.8394
 247  83.5339
 248  -27.05449
 249  66.44083
 250  122.4763
 251  179.4261
 252  124.0271
 253  184.8738
 254  192.5158
 255  203.3706
 256  85.73249
 257  101.6407
 258  158.5477
 259  315.2191
 260  395.6824
 261  331.7451
 262  257.2784
 263  208.4715
 264  147.2527
 265  120.2849
 266  93.93587
 267  195.4072
 268  193.5307
 269  233.597
 270  112.5916
 271  -43.46649
 272  -140.111
 273  47.43235
 274  241.1107
 275  304.3679
 276  225.703
 277  182.6805
 278  198.4699
 279  142.4493
 280  72.99788
 281  139.4093
 282  220.4801
 283  238.7543
 284  95.6744
 285  32.20354
 286  -18.69628
 287  68.48103
 288  150.2408
 289  303.035
 290  198.568
 291  131.3622
 292  74.11441
 293  175.1516
 294  262.407
 295  324.9504
 296  398.7367
 297  334.7073
 298  264.715
 299  215.4645
 300  203.9354
 301  197.8485
 302  180.9417
 303  290.1694
 304  304.9908
 305  268.0316
 306  223.5823
 307  191.0685
 308  182.3968
 309  193.6072
 310  154.6521
 311  141.193
 312  211.1588
 313  218.9152
 314  212.4991
 315  133.7584
 316  68.3288
 317  82.43222
 318  61.63301
 319  150.268
 320  128.0515
 321  240.0402
 322  221.3444
 323  203.588
 324  32.25499
 325  48.31393
 326  57.64756
 327  128.2116
 328  142.2937
 329  183.6168
 330  137.9286
 331  140.6313
 332  60.37044
 333  67.32381
 334  42.74718
 335  59.53322
 336  82.89581
 337  155.3591
 338  164.0305
 339  248.1069
 340  192.1703
 341  183.3846
 342  210.7236
 343  336.5131
 344  351.3275
 345  331.867
 346  322.5816
 347  323.0113
 348  265.1317
 349  222.7166
 350  165.6628
 351  202.3694
 352  262.3624
 353  351.0993
 354  297.2893
 355  258.7052
 356  230.3018
 357  187.7995
 358  93.70408
 359  -37.94143
 360  -76.24363
 361  70.89044
 362  240.4904
 363  396.4513
 364  408.989
 365  427.9398
 366  313.7869
 367  153.848
 368  24.08436
 369  107.4692
 370  256.4668
 371  362.0754
 372  330.1296
 373  229.5628
 374  211.4927
 375  171.1345
 376  28.02925
 377  -89.14796
 378  5.296152
 379  208.3141
 380  326.7396
 381  306.5067
 382  298.693
 383  218.3895
 384  203.3366
 385  177.0441
 386  179.7581
 387  189.3881
 388  171.6444
 389  194.0568
 390  209.7804
 391  267.0962
 392  283.6684
 393  241.4157
 394  183.6408
 395  92.30295
 396  61.92418
 397  10.49822
 398  28.81255
 399  33.67849
 400  63.70617
 401  -39.95979
 402  -113.659
 403  -32.84639
 404  50.34043
 405  205.7421
 406  164.3457
 407  214.9081
 408  230.6463
 409  213.631
 410  144.9989
 411  140.7253
 412  224.2845
 413  270.6995
 414  259.1576
 415  262.3991
 416  237.1457
 417  179.3175
 418  127.5036
 419  128.9389
 420  198.1726
 421  180.4449
 422  163.467
 423  82.18399
 424  139.3803
 425  95.75777
 426  74.36472
 427  102.7898
 428  227.1999
 429  196.4431
 430  185.0897
 431  157.4081
 432  264.1238
 433  305.3665
 434  314.1623
 435  274.7499
 436  188.4659
 437  204.2077
 438  211.9623
 439  239.0086
 440  147.3422
 441  227.563
 442  223.9709
 443  165.28
 444  35.57127
 445  25.60171
 446  77.80209
 447  169.9704
 448  301.1809
 449  382.1292
 450  372.8682
 451  274.9628
 452  247.8278
 453  195.8038
 454  197.9348
 455  172.4787
 456  161.0874
 457  254.2929
 458  306.6956
 459  364.8935
 460  270.6475
 461  225.6906
 462  251.2136
 463  355.2986
 464  380.4362
 465  333.9682
 466  246.4078
 467  72.15888
 468  107.4263
 469  243.7035
 470  431.7131
 471  418.5967
 472  334.1182
 473  299.801
 474  380.2871
 475  424.0461
 476  404.607
 477  343.1556
 478  360.4103
 479  300.0174
 480  236.0495
 481  275.4734
 482  367.6439
 483  356.0963
 484  311.4764
 485  287.5782
 486  308.8187
 487  349.1272
 488  238.2682
 489  168.7944
 490  164.871
 491  353.0795
 492  286.1883
 493  243.8445
 494  159.2403
 495  191.7466
 496  118.3153
 497  79.86308
 498  43.58064
 499  30.13886
 500  92.76923
 501  170.4704
 502  183.6855
 503  181.3699
 504  242.6274
 505  387.9685
 506  340.9151
 507  353.3413
 508  304.1766
 509  259.265
 510  37.06351
 511  -41.8002
 512  105.6042
 513  248.3243
 514  247.9396
 515  127.4059
 516  26.56705
 517  92.28551
 518  182.0704
 519  233.4399
 520  223.0076
 521  163.2787
 522  130.7363
 523  75.09093
 524  59.5185
 525  42.47634
 526  27.57119
 527  121.5479
 528  154.3412
 529  107.0292
 530  110.466
 531  195.7083
 532  312.8724
 533  296.3572
 534  271.6794
 535  146.2402
 536  161.0408
 537  88.71565
 538  119.7401
 539  62.32073
 540  65.99957
 541  29.22079
 542  -44.78529
 543  -23.759
 544  65.02781
 545  29.45813
 546  -4.789533
 547  79.41569
 548  186.2681
 549  280.1509
 550  202.1648
 551  290.9645
 552  309.3066
 553  306.0673
 554  239.4583
 555  235.6093
 556  168.2115
 557  108.8403
 558  46.50304
 559  160.2708
 560  222.9301
 561  296.3954
 562  190.4192
 563  212.0848
 564  286.6457
 565  389.3985
 566  324.7993
 567  239.1084
 568  193.0998
 569  202.6554
 570  241.2941
 571  180.519
 572  208.6449
 573  111.9813
 574  103.2273
 575  -23.75619
 576  63.63058
 577  132.4593
 578  242.3039
 579  218.0889
 580  213.5186
 581  233.8105
 582  284.9818
 583  313.0594
 584  294.4704
 585  205.4799
 586  182.9973
 587  194.8361
 588  142.6608
 589  -25.057
 590  -86.93479
 591  69.4106
 592  171.6555
 593  166.9549
 594  70.93761
 595  208.4246
 596  347.9436
 597  337.0605
 598  245.3721
 599  197.4977
 600  254.2155
 601  182.757
 602  192.8054
 603  287.8728
 604  450.5045
 605  415.7267
 606  322.386
 607  162.6178
 608  204.1616
 609  152.9226
 610  248.6341
 611  278.2058
 612  295.8737
 613  201.7568
 614  162.0703
 615  156.581
 616  252.3283
 617  258.6444
 618  255.9231
 619  240.2968
 620  259.0251
 621  237.8118
 622  249.8781
 623  290.3005
 624  318.5286
 625  218.4781
 626  195.5413
 627  195.9739
 628  279.384
 629  324.1596
 630  498.6885
 631  675.3693
 632  785.9866
 633  894.9279
 634  1118.623
 635  1330.779
 636  1416.218
 637  1417.01
 638  1289.756
 639  1235.122
 640  1085.96
 641  1008.74
 642  768.4604
 643  652.0773
 644  500.3825
 645  417.2693
 646  307.1
 647  223.5864
 648  164.4222
 649  129.2403
 650  51.093
 651  45.11632
 652  79.03416
 653  152.9178
 654  167.457
 655  278.912
 656  238.6207
 657  221.911
 658  144.1089
 659  233.5635
 660  230.8611
 661  179.839
 662  218.0408
 663  233.4557
 664  314.028
 665  303.4042
 666  270.7299
 667  293.9158
 668  172.0899
 669  203.9872
 670  180.446
 671  264.9314
 672  292.1351
 673  259.8319
 674  193.472
 675  132.315
 676  126.7428
 677  130.9833
 678  180.1081
 679  243.8056
 680  309.6884
 681  298.0563
 682  201.8089
 683  187.1717
 684  105.1224
 685  117.0774
 686  146.9912
 687  102.7941
 688  103.643
 689  64.97318
 690  197.2949
 691  250.6309
 692  260.8361
 693  309.3996
 694  396.243
 695  428.2878
 696  316.823
 697  187.9418
 698  118.6798
 699  177.7279
 700  279.0999
 701  301.1346
 702  156.3965
 703  89.92379
 704  105.3316
 705  175.6385
 706  147.8396
 707  156.8965
 708  250.0059
 709  265.0375
 710  269.6695
 711  67.17008
 712  -91.80132
 713  -70.41331
 714  5.931089
 715  97.78288
 716  60.07687
 717  98.95709
 718  81.1837
 719  49.80987
 720  0.01293399
 721  18.18942
 722  88.04224
 723  98.25362
 724  108.3273
 725  154.3999
 726  198.5567
 727  237.1282
 728  246.5176
 729  327.6213
 730  283.6432
 731  288.9762
 732  216.0074
 733  202.5265
 734  86.55415
 735  93.83376
 736  103.1821
 737  189.9767
 738  153.5278
 739  173.2462
 740  267.796
 741  291.0891
 742  266.757
 743  154.4562
 744  191.6733
 745  269.337
 746  319.2339
 747  386.4487
 748  287.2809
 749  272.3092
 750  239.987
 751  269.5202
 752  288.9094
 753  247.1581
 754  202.2442
 755  170.5111
 756  196.5518
 757  160.0456
 758  155.4374
 759  114.2746
 760  115.41
 761  162.2786
 762  155.3993
 763  152.7367
 764  117.8171
 765  149.2674
 766  167.0135
 767  180.1891
 768  288.5336
 769  257.0614
 770  230.3582
 771  145.8182
 772  201.8187
 773  154.3571
 774  110.9928
 775  100.4079
 776  114.0349
 777  187.6628
 778  150.6485
 779  207.9008
 780  216.0131
 781  169.1666
 782  169.5679
 783  177.4242
 784  203.5387
 785  123.3314
 786  40.65228
 787  36.25678
 788  1.443411
 789  74.54599
 790  129.5306
 791  144.2816
 792  142.6671
 793  157.2207
 794  246.0904
 795  194.3438
 796  165.0575
 797  166.5347
 798  218.1225
 799  235.8507
 800  159.6404
 801  147.4935
 802  259.1967
 803  257.2538
 804  177.4203
 805  -43.82507
 806  -94.61448
 807  -74.2114
 808  81.85033
 809  222.061
 810  241.6996
 811  279.0011
 812  232.2422
 813  118.714
 814  84.92683
 815  74.61422
 816  99.83977
 817  29.201
 818  125.894
 819  186.9077
 820  252.2008
 821  143.9803
 822  196.6187
 823  189.8057
 824  170.5213
 825  163.525
 826  230.9087
 827  251.5531
 828  212.7778
 829  216.9986
 830  313.9149
 831  297.7668
 832  249.5384
 833  228.0228
 834  252.9141
 835  277.2726
 836  324.5399
 837  270.3398
 838  232.5599
 839  167.0818
 840  203.2569
 841  232.2573
 842  252.8121
 843  222.9546
 844  199.8439
 845  241.2919
 846  273.5424
 847  223.6346
 848  175.7578
 849  199.9236
 850  308.4162
 851  384.6284
 852  479.6922
 853  336.6692
 854  194.7435
 855  116.527
 856  133.854
 857  115.9105
 858  113.9704
 859  232.6723
 860  294.5378
 861  306.243
 862  254.4226
 863  235.2402
 864  178.6075
 865  131.5777
 866  133.6208
 867  88.5609
 868  161.4423
 869  138.9749
 870  185.7858
 871  35.66573
 872  86.3223
 873  117.0813
 874  182.8484
 875  131.8351
 876  182.3096
 877  178.7023
 878  186.295
 879  98.66501
 880  -26.52139
 881  -23.99156
 882  -26.69699
 883  34.87098
 884  122.3773
 885  168.2793
 886  241.5284
 887  270.7971
 888  235.7856
 889  156.3906
 890  101.2973
 891  95.66296
 892  112.0048
 893  142.5806
 894  164.6878
 895  131.9294
 896  170.7765
 897  287.0919
 898  445.6668
 899  385.721
 900  240.9245
 901  88.05858
 902  176.8932
 903  275.5847
 904  245.313
 905  213.0262
 906  273.1631
 907  338.9106
 908  283.3635
 909  188.6334
 910  93.04045
 911  -58.90393
 912  -84.19849
 913  48.84646
 914  113.6538
 915  32.47924
 916  -60.86753
 917  -11.61717
 918  148.5394
 919  182.0526
 920  147.0987
 921  102.5063
 922  133.7135
 923  221.4046
 924  202.8022
 925  146.8022
 926  95.29349
 927  139.8321
 928  179.2399
 929  203.9231
 930  170.3575
 931  200.2
 932  196.5366
 933  244.8865
 934  265.3696
 935  213.2892
 936  194.2084
 937  189.5612
 938  251.3471
 939  186.8667
 940  191.1074
 941  193.4405
 942  146.2782
 943  61.53305
 944  133.9086
 945  302.2455
 946  308.2638
 947  145.4584
 948  70.65073
 949  120.279
 950  61.38451
 951  45.6219
 952  23.18363
 953  102.4216
 954  115.4439
 955  -17.0715
 956  -77.56037
 957  -65.57613
 958  2.802235
 959  77.62675
 960  128.6011
 961  231.3919
 962  53.37659
 963  35.79092
 964  35.4804
 965  177.5374
 966  186.9773
 967  236.5375
 968  302.4132
 969  223.3879
 970  143.4783
 971  65.02183
 972  95.99406
 973  109.84
 974  186.6261
 975  189.122
 976  254.9633
 977  258.3133
 978  174.4776
 979  80.9068
 980  59.49953
 981  91.07146
 982  203.0641
 983  215.0812
 984  249.0516
 985  161.5768
 986  153.9139
 987  108.8715
 988  140.6624
 989  203.3447
 990  243.118
 991  178.9373
 992  78.51525
 993  65.70371
 994  127.1317
 995  142.5125
 996  165.713
 997  209.0311
 998  186.7593
 999  170.4875
1000  183.5477
1001  308.1572
1002  287.7155
1003  226.3092
1004  88.34782
1005  80.11121
1006  3.434707
1007  27.70849
1008  -4.909901
1009  13.52141
1010  5.073805
1011  24.91463
1012  35.10644
1013  -6.070903
1014  -19.72487
1015  -22.7564
1016  87.36254
1017  94.49962
1018  116.5263
1019  32.38425
1020  -94.7421
1021  -62.58097
1022  -28.47661
1023  69.5743
