# Input file       =  1191208577.114983_cleaned.dat
# Candidate        =  PSR_0332+5434
# Telescope        =  AR
# Epoch_topo       =  58031.136529108604
# Epoch_bary       =  N/A
# T_sample         =  0.002
# Data Folded      =  7340032
# Data Avg         =  0.0456151960315765
# Data StdDev      =  2.81638621913863 
# Profile Bins     =  1024
# Profile Avg      =  326.989690681089 
# Profile StdDev   =  238.446641016009 
# Reduced chi-sqr  =  1.212
# Prob(Noise)      <  3.18e-06   (~4.5 sigma)
# P_topo (ms)      =  714.475313097546  +/- 0.000136
# P'_topo (s/s)    =  -0                +/- 7.19e-11
# P''_topo (s/s^2) =  0                 +/- 3.17e-14
# P_bary (ms)      =  N/A
# P'_bary (s/s)    =  N/A
# P''_bary (s/s^2) =  N/A
# P_orb (s)        =  N/A
# asin(i)/c (s)    =  N/A
# eccentricity     =  N/A
# w (rad)          =  N/A
# T_peri           =  N/A
######################################################
   0  468.8416
   1  314.111
   2  200.1163
   3  286.963
   4  355.2433
   5  240.7787
   6  186.6484
   7  212.8933
   8  322.6805
   9  373.3014
  10  361.889
  11  362.7328
  12  276.1289
  13  269.3766
  14  359.0801
  15  403.3031
  16  364.3507
  17  298.964
  18  324.9166
  19  369.0024
  20  338.4369
  21  244.5164
  22  193.7616
  23  264.2479
  24  278.5807
  25  172.5567
  26  54.42502
  27  153.8999
  28  303.6369
  29  324.4898
  30  273.5804
  31  221.0448
  32  279.778
  33  307.6346
  34  347.2914
  35  430.4314
  36  411.6676
  37  385.8043
  38  371.157
  39  347.3573
  40  358.6507
  41  260.7668
  42  418.114
  43  390.896
  44  409.9122
  45  345.2617
  46  511.7208
  47  468.2756
  48  478.9276
  49  401.8825
  50  418.0226
  51  227.0348
  52  161.2941
  53  140.1154
  54  168.6472
  55  159.3052
  56  143.9159
  57  102.4728
  58  70.56367
  59  165.2363
  60  313.4142
  61  413.9184
  62  461.5242
  63  409.0543
  64  353.3671
  65  200.8873
  66  103.1583
  67  179.765
  68  332.2599
  69  373.8395
  70  265.0296
  71  297.6708
  72  514.3956
  73  616.1672
  74  600.4119
  75  566.0264
  76  492.6858
  77  395.5761
  78  366.557
  79  481.8416
  80  459.6163
  81  432.4234
  82  388.4425
  83  410.7085
  84  347.5406
  85  248.0325
  86  135.9692
  87  101.9927
  88  70.18942
  89  202.7111
  90  257.0997
  91  357.9687
  92  304.0508
  93  336.2567
  94  339.8329
  95  438.5373
  96  408.0493
  97  385.2618
  98  273.8599
  99  292.5499
 100  345.6181
 101  458.6111
 102  438.3138
 103  476.2073
 104  416.3531
 105  399.1086
 106  317.076
 107  406.9421
 108  449.7178
 109  631.7534
 110  624.3903
 111  626.6566
 112  452.6221
 113  326.0647
 114  265.0604
 115  209.467
 116  392.3243
 117  366.4438
 118  444.3816
 119  293.2747
 120  290.8099
 121  248.8242
 122  249.6889
 123  233.5679
 124  186.933
 125  132.0233
 126  212.7723
 127  221.8308
 128  197.0102
 129  215.6002
 130  341.4891
 131  400.1086
 132  240.5417
 133  140.3042
 134  121.5482
 135  276.9476
 136  360.9032
 137  371.7046
 138  322.0827
 139  187.8866
 140  236.9553
 141  155.7576
 142  253.7788
 143  313.7942
 144  400.7488
 145  445.9045
 146  367.3025
 147  328.671
 148  203.7365
 149  172.6531
 150  224.8139
 151  314.9143
 152  402.9174
 153  381.2341
 154  325.312
 155  263.1714
 156  348.9254
 157  445.6278
 158  495.5199
 159  384.9771
 160  391.9278
 161  359.5103
 162  369.0993
 163  339.6511
 164  268.6101
 165  235.7078
 166  225.0504
 167  249.9606
 168  282.5542
 169  273.371
 170  333.8833
 171  275.5487
 172  387.7202
 173  375.5161
 174  556.7972
 175  533.6426
 176  481.2784
 177  389.5545
 178  398.9672
 179  506.6704
 180  487.7643
 181  379.2761
 182  345.2562
 183  311.0035
 184  371.2464
 185  479.8184
 186  479.9898
 187  415.2523
 188  312.7964
 189  336.1472
 190  413.5002
 191  508.7937
 192  512.6913
 193  434.906
 194  348.1294
 195  427.6485
 196  375.2222
 197  307.1113
 198  331.3085
 199  374.3966
 200  310.7618
 201  155.1711
 202  153.131
 203  185.992
 204  172.6728
 205  100.8682
 206  129.8774
 207  154.5733
 208  245.1484
 209  303.7249
 210  328.7278
 211  245.4222
 212  196.1994
 213  81.35883
 214  40.40081
 215  36.0232
 216  207.6295
 217  277.154
 218  418.0849
 219  456.89
 220  473.4679
 221  383.8532
 222  383.0284
 223  521.014
 224  489.2703
 225  404.9527
 226  320.509
 227  445.8587
 228  395.9716
 229  368.7488
 230  353.9517
 231  383.6696
 232  379.0603
 233  424.4005
 234  446.6919
 235  398.2733
 236  346.2037
 237  474.0634
 238  578.1655
 239  524.2515
 240  386.5044
 241  338.0695
 242  295.234
 243  293.4616
 244  245.312
 245  215.5108
 246  279.8252
 247  219.9533
 248  246.445
 249  197.4919
 250  265.2389
 251  327.4292
 252  383.932
 253  367.544
 254  128.9599
 255  41.22329
 256  106.4277
 257  303.9707
 258  304.584
 259  364.7635
 260  414.752
 261  480.434
 262  535.0785
 263  501.241
 264  487.044
 265  364.9261
 266  291.0025
 267  287.4098
 268  274.7699
 269  208.3654
 270  81.36945
 271  129.8816
 272  177.6764
 273  350.4411
 274  402.1498
 275  551.803
 276  491.1231
 277  351.409
 278  228.8853
 279  259.1247
 280  387.9998
 281  333.6634
 282  199.7669
 283  121.797
 284  200.1533
 285  317.0471
 286  323.4808
 287  320.5051
 288  261.9411
 289  219.8463
 290  228.8452
 291  255.2084
 292  270.4664
 293  283.3044
 294  359.5938
 295  466.7307
 296  395.1026
 297  284.5176
 298  173.3256
 299  153.0191
 300  250.4496
 301  335.1198
 302  519.3441
 303  511.3657
 304  492.1882
 305  400.4623
 306  266.9569
 307  221.716
 308  179.2668
 309  215.9921
 310  283.0154
 311  281.127
 312  264.3956
 313  250.9526
 314  246.7157
 315  286.5449
 316  224.6037
 317  236.8212
 318  142.5031
 319  141.3311
 320  229.2434
 321  293.4193
 322  273.6219
 323  243.1858
 324  245.3852
 325  180.8078
 326  108.0122
 327  37.39648
 328  83.29988
 329  213.8526
 330  194.4206
 331  185.2655
 332  136.735
 333  236.9808
 334  214.2166
 335  261.5372
 336  356.9866
 337  420.3854
 338  464.7312
 339  263.8087
 340  110.6245
 341  41.27374
 342  203.5308
 343  314.9094
 344  274.7952
 345  230.9817
 346  218.8459
 347  316.8959
 348  364.6984
 349  421.2161
 350  463.0853
 351  388.7668
 352  335.4734
 353  252.1946
 354  255.3937
 355  229.599
 356  249.5376
 357  223.6297
 358  293.3928
 359  296.7797
 360  356.9153
 361  236.3671
 362  235.3551
 363  314.3844
 364  491.1713
 365  464.9148
 366  334.7155
 367  162.4352
 368  25.69932
 369  14.20947
 370  103.8363
 371  188.8306
 372  216.06
 373  271.4871
 374  384.8993
 375  357.0681
 376  331.1965
 377  233.3365
 378  221.7277
 379  169.0079
 380  191.1387
 381  272.3655
 382  283.5558
 383  299.2697
 384  226.8804
 385  188.5466
 386  215.4378
 387  329.584
 388  424.8444
 389  349.9182
 390  343.9698
 391  295.2129
 392  267.4655
 393  197.1101
 394  158.9273
 395  101.6372
 396  214.6848
 397  188.2668
 398  235.0647
 399  44.06915
 400  129.7074
 401  315.1715
 402  424.1986
 403  556.1892
 404  571.334
 405  500.9647
 406  412.5136
 407  351.9146
 408  412.2655
 409  326.1647
 410  299.7704
 411  226.1236
 412  272.7906
 413  254.7406
 414  219.6646
 415  169.2154
 416  179.1383
 417  247.4064
 418  214.9958
 419  131.6469
 420  75.21267
 421  147.2799
 422  189.6581
 423  178.7659
 424  98.0637
 425  103.3158
 426  212.7625
 427  348.8561
 428  445.2264
 429  381.7019
 430  332.2299
 431  259.639
 432  281.5
 433  318.0067
 434  363.0728
 435  378.4988
 436  422.3446
 437  510.8195
 438  533.3987
 439  461.5634
 440  389.8317
 441  364.5768
 442  309.5853
 443  375.4453
 444  377.9315
 445  396.0096
 446  367.8842
 447  375.8682
 448  376.1652
 449  344.422
 450  378.8579
 451  408.0148
 452  418.3506
 453  385.5933
 454  297.3526
 455  220.5572
 456  227.7908
 457  343.7763
 458  395.0451
 459  434.5629
 460  378.3737
 461  359.4792
 462  309.6642
 463  264.3939
 464  295.4972
 465  427.2338
 466  625.6606
 467  651.9166
 468  507.5172
 469  384.7008
 470  347.556
 471  398.9572
 472  314.909
 473  286.5812
 474  258.3
 475  260.0153
 476  229.9014
 477  232.1362
 478  303.9233
 479  382.8622
 480  384.2719
 481  323.2891
 482  227.4159
 483  132.1608
 484  170.0194
 485  279.1766
 486  354.5461
 487  375.7534
 488  241.4648
 489  229.058
 490  211.1846
 491  291.1904
 492  289.6256
 493  271.7392
 494  202.4521
 495  164.3078
 496  184.1585
 497  306.0993
 498  240.5021
 499  285.726
 500  266.9443
 501  318.6749
 502  324.2844
 503  424.2709
 504  459.1231
 505  461.2021
 506  272.7068
 507  170.2297
 508  50.25123
 509  91.48851
 510  226.908
 511  278.53
 512  316.0803
 513  309.9211
 514  490.0068
 515  638.4899
 516  701.6823
 517  523.8019
 518  381.783
 519  348.9886
 520  235.9069
 521  221.4578
 522  192.7926
 523  308.3948
 524  285.8729
 525  382.5401
 526  295.9708
 527  321.6951
 528  208.7235
 529  249.7611
 530  280.678
 531  356.6011
 532  414.7958
 533  267.1866
 534  100.7762
 535  7.828124
 536  126.6775
 537  233.0776
 538  289.3005
 539  267.3003
 540  131.1176
 541  99.95374
 542  113.4915
 543  300.7058
 544  335.8272
 545  346.2156
 546  382.7691
 547  485.1477
 548  447.9338
 549  369.1844
 550  195.057
 551  239.9543
 552  198.9937
 553  202.8592
 554  43.08879
 555  31.89159
 556  58.84943
 557  282.6047
 558  386.9877
 559  377.5334
 560  253.1993
 561  200.6132
 562  207.5022
 563  211.3263
 564  224.1128
 565  278.5984
 566  368.2654
 567  305.2479
 568  264.6828
 569  209.878
 570  255.4853
 571  247.1011
 572  184.9271
 573  174.4437
 574  280.142
 575  422.6604
 576  498.6633
 577  498.7419
 578  461.5692
 579  362.3365
 580  409.3775
 581  503.1404
 582  452.9838
 583  327.7187
 584  235.0135
 585  235.2374
 586  229.7718
 587  219.6811
 588  268.1188
 589  210.9884
 590  246.492
 591  270.3499
 592  196.1642
 593  183.1489
 594  149.2902
 595  278.8493
 596  383.2863
 597  396.507
 598  332.44
 599  317.574
 600  368.5298
 601  365.015
 602  421.7173
 603  462.966
 604  604.9315
 605  491.8751
 606  440.4564
 607  298.7038
 608  322.3302
 609  243.9874
 610  224.5682
 611  293.6494
 612  464.86
 613  649.9807
 614  636.3207
 615  459.7873
 616  337.287
 617  290.827
 618  210.5314
 619  234.5256
 620  391.7452
 621  451.9478
 622  459.9732
 623  409.496
 624  415.6706
 625  379.8853
 626  390.2867
 627  452.6197
 628  450.842
 629  405.9565
 630  496.8099
 631  559.6222
 632  764.4645
 633  804.6006
 634  958.8532
 635  1083.726
 636  1095.684
 637  1113.336
 638  1075.503
 639  1096.781
 640  1101.134
 641  1044.488
 642  1016.644
 643  895.944
 644  793.2502
 645  579.9557
 646  435.5308
 647  370.9377
 648  361.5613
 649  366.5417
 650  262.7239
 651  150.7776
 652  61.93391
 653  138.1457
 654  277.785
 655  333.7302
 656  353.9794
 657  448.0111
 658  474.5591
 659  352.9893
 660  230.5813
 661  170.759
 662  259.0347
 663  285.1073
 664  318.9652
 665  252.1955
 666  409.1597
 667  588.5708
 668  653.9177
 669  517.874
 670  428.7974
 671  484.3755
 672  347.424
 673  285.7533
 674  225.338
 675  279.4918
 676  223.9664
 677  179.6712
 678  202.9461
 679  324.2593
 680  485.2804
 681  510.0481
 682  474.1986
 683  487.7488
 684  510.9653
 685  366.408
 686  272.1626
 687  281.9839
 688  369.9744
 689  377.6239
 690  356.8739
 691  408.0369
 692  325.1672
 693  347.8033
 694  313.8589
 695  400.4315
 696  263.8099
 697  239.6454
 698  256.3805
 699  362.1941
 700  416.3616
 701  424.0084
 702  471.9748
 703  611.0685
 704  703.7671
 705  747.4951
 706  657.1359
 707  534.6158
 708  492.1809
 709  447.5147
 710  459.6427
 711  485.3585
 712  499.0213
 713  541.3167
 714  393.9135
 715  512.4921
 716  520.3942
 717  545.0418
 718  406.1878
 719  422.961
 720  529.4191
 721  592.402
 722  536.6452
 723  533.1161
 724  498.3571
 725  399.7011
 726  240.1271
 727  238.9906
 728  373.1971
 729  327.5966
 730  302.2923
 731  342.7112
 732  386.2584
 733  372.1048
 734  322.0276
 735  244.8282
 736  251.1545
 737  356.5439
 738  310.6179
 739  223.1182
 740  148.5848
 741  277.3015
 742  289.0492
 743  283.8937
 744  264.2376
 745  196.984
 746  143.6983
 747  208.5945
 748  299.1022
 749  365.6872
 750  357.8437
 751  393.0921
 752  523.0366
 753  516.3284
 754  554.2185
 755  527.4061
 756  516.3835
 757  259.3683
 758  203.2733
 759  360.8375
 760  485.6838
 761  411.0051
 762  283.2747
 763  259.7094
 764  276.4023
 765  370.443
 766  420.5026
 767  433.1021
 768  339.5647
 769  254.1502
 770  253.2463
 771  264.2885
 772  238.1134
 773  268.7692
 774  292.7894
 775  280.9641
 776  303.4439
 777  473.2451
 778  478.2122
 779  510.877
 780  490.7241
 781  412.0375
 782  257.5227
 783  147.5784
 784  209.7012
 785  285.436
 786  412.8304
 787  388.5404
 788  414.5739
 789  348.1613
 790  408.9241
 791  270.8487
 792  192.7901
 793  196.6253
 794  195.885
 795  202.6959
 796  139.1959
 797  306.5598
 798  394.8228
 799  389.7961
 800  210.7992
 801  135.7669
 802  137.332
 803  155.8705
 804  247.501
 805  263.0299
 806  229.8456
 807  132.3183
 808  221.6966
 809  213.7431
 810  214.6138
 811  160.1485
 812  299.1275
 813  410.7508
 814  483.5098
 815  425.1719
 816  365.4493
 817  334.1129
 818  452.6128
 819  467.4484
 820  398.3577
 821  294.812
 822  301.6489
 823  261.2871
 824  259.4479
 825  288.0471
 826  373.0324
 827  273.0266
 828  314.0001
 829  326.8069
 830  429.6988
 831  266.8444
 832  137.595
 833  147.7138
 834  243.9523
 835  454.4633
 836  405.0521
 837  317.5312
 838  263.3247
 839  294.0125
 840  322.4249
 841  325.1667
 842  309.2248
 843  336.6721
 844  295.9441
 845  300.0107
 846  378.7954
 847  444.7407
 848  433.3762
 849  336.7491
 850  356.3882
 851  363.4484
 852  477.8172
 853  485.3865
 854  430.6332
 855  325.8119
 856  235.7469
 857  139.295
 858  80.87234
 859  106.3424
 860  226.0696
 861  323.4731
 862  263.7298
 863  217.0878
 864  152.391
 865  135.2623
 866  207.3444
 867  329.9623
 868  378.4501
 869  270.0972
 870  324.4777
 871  287.6201
 872  269.8212
 873  149.1165
 874  270.3854
 875  454.0838
 876  519.4052
 877  457.7976
 878  452.6282
 879  458.3613
 880  506.6656
 881  473.5104
 882  500.5322
 883  386.8637
 884  289.9955
 885  349.9684
 886  457.756
 887  428.8954
 888  399.9736
 889  394.3698
 890  446.6572
 891  417.0901
 892  409.9174
 893  377.2892
 894  455.9845
 895  457.951
 896  469.1742
 897  376.5227
 898  378.806
 899  414.7928
 900  448.9305
 901  391.6064
 902  333.6627
 903  370.7542
 904  397.9021
 905  405.8434
 906  497.1272
 907  561.0444
 908  560.6821
 909  380.1342
 910  330.9936
 911  344.4895
 912  415.131
 913  568.3536
 914  603.878
 915  545.2423
 916  351.861
 917  240.1317
 918  219.2776
 919  249.153
 920  230.1335
 921  208.1972
 922  362.6814
 923  573.7471
 924  571.4556
 925  513.9638
 926  366.0571
 927  322.0693
 928  229.9906
 929  270.7815
 930  309.5353
 931  363.7026
 932  425.6223
 933  411.6164
 934  354.3216
 935  278.7738
 936  245.4404
 937  215.2208
 938  267.5985
 939  386.1574
 940  479.4953
 941  358.5769
 942  227.489
 943  232.8934
 944  275.2778
 945  263.1821
 946  161.3644
 947  142.7377
 948  68.21552
 949  7.871798
 950  113.5765
 951  208.6387
 952  338.8759
 953  351.7687
 954  480.3439
 955  499.6811
 956  505.8803
 957  455.267
 958  253.054
 959  131.5705
 960  14.81106
 961  150.2034
 962  272.2986
 963  359.5206
 964  266.9339
 965  202.0157
 966  174.386
 967  210.4737
 968  140.1554
 969  233.2671
 970  375.0924
 971  392.1196
 972  301.4395
 973  267.0593
 974  190.8482
 975  134.9995
 976  168.2509
 977  220.3034
 978  183.779
 979  -13.38791
 980  -19.82483
 981  75.94556
 982  143.2278
 983  49.44181
 984  99.4313
 985  219.2366
 986  401.5202
 987  381.6831
 988  341.7231
 989  298.7473
 990  347.0086
 991  339.1357
 992  280.3879
 993  251.5691
 994  317.0221
 995  202.7391
 996  162.7207
 997  148.943
 998  180.3233
 999  72.10999
1000  23.38942
1001  127.5113
1002  123.7505
1003  135.2471
1004  103.7678
1005  199.534
1006  213.9307
1007  174.3752
1008  121.3502
1009  198.5243
1010  373.8718
1011  371.4112
1012  309.1307
1013  218.4927
1014  360.0245
1015  372.4985
1016  406.0154
1017  429.2982
1018  454.0047
1019  479.7155
1020  423.1055
1021  435.9062
1022  419.3404
1023  500.6828
