# Input file       =  1191452153.131497_cleaned.dat
# Candidate        =  PSR_0332+5434
# Telescope        =  AR
# Epoch_topo       =  58033.955695966397
# Epoch_bary       =  N/A
# T_sample         =  0.002
# Data Folded      =  7340032
# Data Avg         =  0.030478658125503
# Data StdDev      =  2.33553583031935 
# Profile Bins     =  1024
# Profile Avg      =  218.487292195927 
# Profile StdDev   =  197.735903523384 
# Reduced chi-sqr  =  1.483
# Prob(Noise)      <  6.19e-22   (~9.6 sigma)
# P_topo (ms)      =  714.476720836795  +/- 0.000188
# P'_topo (s/s)    =  -0                +/- 9.89e-11
# P''_topo (s/s^2) =  0                 +/- 4.37e-14
# P_bary (ms)      =  N/A
# P'_bary (s/s)    =  N/A
# P''_bary (s/s^2) =  N/A
# P_orb (s)        =  N/A
# asin(i)/c (s)    =  N/A
# eccentricity     =  N/A
# w (rad)          =  N/A
# T_peri           =  N/A
######################################################
   0  221.6847
   1  103.0225
   2  79.44619
   3  33.32298
   4  120.1451
   5  174.6549
   6  216.5998
   7  205.4796
   8  188.1933
   9  157.8903
  10  92.19263
  11  155.8667
  12  174.4854
  13  295.2604
  14  259.2536
  15  286.7284
  16  181.3602
  17  204.3078
  18  189.3074
  19  166.857
  20  164.0006
  21  244.6078
  22  317.7248
  23  273.007
  24  259.203
  25  186.6262
  26  166.3371
  27  122.927
  28  156.5081
  29  163.6559
  30  166.1315
  31  240.6042
  32  361.3625
  33  263.5123
  34  161.8362
  35  126.8693
  36  243.2816
  37  227.7773
  38  115.8864
  39  151.4706
  40  228.964
  41  205.7233
  42  81.15041
  43  14.18436
  44  94.4371
  45  115.3184
  46  150.6834
  47  186.6458
  48  140.9963
  49  93.21938
  50  154.2077
  51  220.0175
  52  232.1464
  53  215.8724
  54  258.2387
  55  315.4363
  56  261.3469
  57  269.6873
  58  289.1132
  59  223.5255
  60  187.6272
  61  121.477
  62  184.2951
  63  83.47216
  64  217.8768
  65  284.1581
  66  298.7706
  67  169.8938
  68  69.33233
  69  104.1095
  70  100.076
  71  226.5376
  72  227.7819
  73  274.5752
  74  291.2887
  75  355.9812
  76  327.0386
  77  222.4497
  78  168.187
  79  156.5355
  80  207.2068
  81  221.9483
  82  265.8159
  83  274.8472
  84  226.2711
  85  150.8228
  86  209.8913
  87  202.337
  88  222.0051
  89  212.3806
  90  357.3706
  91  342.3566
  92  270.4982
  93  182.3742
  94  110.6693
  95  114.6869
  96  202.6102
  97  261.8925
  98  332.8837
  99  273.5046
 100  258.2238
 101  187.9625
 102  180.7437
 103  127.8079
 104  122.7849
 105  182.6567
 106  234.4893
 107  249.4184
 108  256.3402
 109  333.2924
 110  389.8443
 111  286.5455
 112  134.4463
 113  15.22655
 114  -6.650202
 115  -119.9834
 116  -92.4259
 117  36.61805
 118  194.3108
 119  122.9952
 120  -28.92962
 121  -50.08431
 122  56.19868
 123  165.7866
 124  205.4118
 125  294.7504
 126  320.0263
 127  207.4603
 128  159.8018
 129  110.9163
 130  138.2678
 131  162.2939
 132  170.8389
 133  182.1122
 134  134.6605
 135  127.1085
 136  75.19173
 137  147.8943
 138  190.9369
 139  232.3911
 140  238.769
 141  182.3495
 142  136.419
 143  172.4583
 144  265.7632
 145  345.814
 146  283.0329
 147  264.8147
 148  210.5964
 149  238.2733
 150  189.8266
 151  112.5731
 152  37.405
 153  163.4085
 154  271.9047
 155  340.4734
 156  177.9626
 157  154.7057
 158  199.5741
 159  183.1938
 160  170.5753
 161  134.0237
 162  146.3536
 163  119.2105
 164  143.4982
 165  226.1204
 166  257.7116
 167  257.1322
 168  208.2338
 169  187.1247
 170  205.6525
 171  167.3691
 172  89.2472
 173  62.81898
 174  82.44398
 175  167.4738
 176  311.5859
 177  433.8661
 178  347.3187
 179  200.7514
 180  90.02178
 181  147.8608
 182  126.8936
 183  105.7985
 184  125.3925
 185  165.4075
 186  228.2651
 187  177.2657
 188  186.0212
 189  218.6094
 190  340.6853
 191  353.7982
 192  298.1043
 193  233.9665
 194  220.8213
 195  251.745
 196  226.8017
 197  138.9229
 198  70.68856
 199  22.90392
 200  71.09238
 201  61.82801
 202  110.3462
 203  178.7051
 204  247.0975
 205  288.5623
 206  224.9565
 207  108.4371
 208  8.101959
 209  -50.55099
 210  68.37182
 211  134.5406
 212  226.5521
 213  292.9868
 214  291.9428
 215  247.9962
 216  220.0304
 217  199.2444
 218  239.0349
 219  244.55
 220  397.6336
 221  407.393
 222  436.1082
 223  361.7119
 224  242.6754
 225  156.1809
 226  133.176
 227  303.1154
 228  345.5257
 229  264.8238
 230  129.1427
 231  102.3012
 232  151.3392
 233  208.3739
 234  229.6215
 235  295.5182
 236  310.6677
 237  342.1789
 238  349.7438
 239  249.3428
 240  245.9019
 241  270.9893
 242  382.6051
 243  342.1451
 244  231.9261
 245  150.1978
 246  155.3903
 247  231.4712
 248  281.7602
 249  234.7743
 250  190.7451
 251  242.2679
 252  280.5662
 253  367.9636
 254  233.8588
 255  269.3224
 256  205.2072
 257  195.6512
 258  172.0716
 259  146.3138
 260  219.9529
 261  269.0985
 262  249.043
 263  201.1622
 264  184.356
 265  260.9077
 266  275.2791
 267  206.5871
 268  173.8878
 269  199.0703
 270  197.6178
 271  151.8764
 272  270.0748
 273  354.2845
 274  390.2901
 275  356.3964
 276  399.9407
 277  369.7035
 278  340.905
 279  305.1013
 280  285.3192
 281  296.9532
 282  255.7928
 283  177.521
 284  82.90399
 285  20.09733
 286  60.6909
 287  111.9498
 288  179.1242
 289  122.6281
 290  145.0973
 291  212.841
 292  322.5168
 293  298.0529
 294  236.0352
 295  117.6386
 296  117.9151
 297  155.1582
 298  222.2903
 299  186.5977
 300  184.4729
 301  264.8033
 302  242.5477
 303  250.6035
 304  157.9888
 305  148.6774
 306  36.23798
 307  29.14763
 308  120.1426
 309  197.2277
 310  167.5059
 311  140.0016
 312  88.66184
 313  74.5108
 314  110.5557
 315  164.6562
 316  284.8054
 317  283.0612
 318  338.7017
 319  346.3305
 320  371.5697
 321  261.1781
 322  118.1477
 323  48.99771
 324  28.86839
 325  55.66745
 326  141.074
 327  227.5646
 328  251.1311
 329  221.7584
 330  148.9408
 331  49.30799
 332  -53.16376
 333  -18.68947
 334  114.9239
 335  175.0701
 336  143.6251
 337  107.2353
 338  158.0183
 339  214.635
 340  231.2459
 341  182.1946
 342  182.3661
 343  162.1497
 344  143.5879
 345  68.39497
 346  16.41425
 347  101.7301
 348  136.8523
 349  145.9583
 350  119.8041
 351  187.8695
 352  237.2021
 353  278.7708
 354  249.8629
 355  266.3743
 356  261.0632
 357  262.5201
 358  260.1684
 359  198.477
 360  179.4424
 361  93.20924
 362  140.5129
 363  247.1165
 364  150.6081
 365  157.4351
 366  120.1329
 367  107.5612
 368  129.9261
 369  108.4841
 370  201.6636
 371  227.3404
 372  316.5141
 373  245.424
 374  180.2941
 375  111.9376
 376  98.48311
 377  109.5974
 378  223.8779
 379  384.7017
 380  355.9209
 381  246.27
 382  111.1882
 383  31.49701
 384  81.51814
 385  185.9154
 386  274.3303
 387  275.2906
 388  161.1088
 389  105.4686
 390  99.40198
 391  151.4678
 392  114.14
 393  97.26765
 394  166.0047
 395  274.0851
 396  278.5739
 397  260.4429
 398  170.1396
 399  228.8916
 400  285.8907
 401  279.7271
 402  296.285
 403  217.2326
 404  241.7582
 405  136.6165
 406  125.6607
 407  79.91011
 408  57.70699
 409  -21.46255
 410  7.723807
 411  116.7772
 412  112.1283
 413  100.8168
 414  110.467
 415  69.70491
 416  87.59734
 417  12.77685
 418  49.32582
 419  50.8126
 420  35.66914
 421  147.7253
 422  130.174
 423  151.557
 424  153.1122
 425  227.6984
 426  272.8832
 427  298.0844
 428  290.029
 429  236.9596
 430  205.4312
 431  202.164
 432  204.1863
 433  139.3437
 434  103.5752
 435  134.1824
 436  168.61
 437  181.0748
 438  239.9317
 439  269.5716
 440  276.7292
 441  323.8865
 442  298.6402
 443  269.2042
 444  163.1435
 445  171.4393
 446  202.4104
 447  304.2226
 448  397.6276
 449  319.1174
 450  178.5221
 451  -19.86721
 452  -68.19368
 453  -68.07841
 454  71.66496
 455  256.218
 456  314.7036
 457  337.6946
 458  311.6119
 459  325.3251
 460  336.4698
 461  370.3353
 462  354.1598
 463  226.9705
 464  196.3271
 465  222.4207
 466  287.8521
 467  213.7865
 468  233.5919
 469  269.6317
 470  388.346
 471  332.6104
 472  259.044
 473  214.746
 474  195.9067
 475  242.6607
 476  295.6727
 477  425.5312
 478  340.0921
 479  286.237
 480  314.0891
 481  331.9055
 482  230.7793
 483  182.2946
 484  96.31263
 485  92.41537
 486  116.0113
 487  236.4066
 488  263.9825
 489  186.2695
 490  133.7967
 491  46.36387
 492  35.19063
 493  127.8713
 494  236.5677
 495  251.9622
 496  210.2527
 497  183.2782
 498  174.9595
 499  162.8743
 500  253.4
 501  310.8704
 502  342.8658
 503  329.1525
 504  337.2641
 505  218.8029
 506  153.5942
 507  207.0367
 508  329.3944
 509  281.7933
 510  135.5967
 511  -36.46807
 512  21.29267
 513  160.5012
 514  365.4314
 515  368.7025
 516  322.5215
 517  125.9511
 518  38.61106
 519  36.30758
 520  64.83998
 521  108.7223
 522  115.898
 523  137.0695
 524  100.7626
 525  -5.835602
 526  128.7369
 527  269.4034
 528  455.1187
 529  301.298
 530  112.9238
 531  12.06385
 532  -4.721999
 533  59.54372
 534  132.8625
 535  206.0041
 536  195.0267
 537  168.4485
 538  220.4769
 539  288.9332
 540  291.8306
 541  272.7503
 542  232.6234
 543  267.2471
 544  207.6751
 545  177.5119
 546  139.8694
 547  172.631
 548  181.3183
 549  162.49
 550  185.7323
 551  226.1304
 552  237.3096
 553  223.0527
 554  98.20869
 555  50.80385
 556  44.42348
 557  156.155
 558  252.6122
 559  309.346
 560  299.3224
 561  161.099
 562  82.47762
 563  77.2276
 564  162.7881
 565  204.5664
 566  204.9456
 567  259.0641
 568  314.869
 569  223.3579
 570  167.4602
 571  102.6351
 572  40.48946
 573  86.84212
 574  169.2529
 575  268.7483
 576  175.5812
 577  223.2411
 578  274.056
 579  310.6999
 580  228.4727
 581  143.4615
 582  80.95074
 583  219.4281
 584  266.6129
 585  244.9725
 586  179.3979
 587  143.8839
 588  199.3763
 589  173.6839
 590  178.8455
 591  234.0039
 592  251.5832
 593  251.8566
 594  251.8845
 595  329.2146
 596  396.6428
 597  445.5685
 598  454.7568
 599  401.7928
 600  342.9567
 601  257.8188
 602  230.6463
 603  188.3634
 604  274.8777
 605  283.0821
 606  284.4693
 607  239.2453
 608  299.9565
 609  343.6031
 610  373.6713
 611  393.8539
 612  399.422
 613  271.5456
 614  176.0092
 615  133.3116
 616  135.9596
 617  111.0056
 618  233.1102
 619  275.4362
 620  279.8869
 621  250.1961
 622  379.1719
 623  389.9529
 624  433.47
 625  356.1113
 626  427.8044
 627  377.3752
 628  350.2227
 629  340.5712
 630  444.4316
 631  566.2919
 632  587.1843
 633  640.5034
 634  779.2277
 635  956.7263
 636  1122.279
 637  1157.872
 638  1242.84
 639  1228.087
 640  1220.128
 641  1147.092
 642  982.9379
 643  835.384
 644  626.513
 645  474.4078
 646  222.812
 647  116.277
 648  92.09135
 649  112.9902
 650  115.6252
 651  91.10106
 652  138.3329
 653  189.17
 654  167.9013
 655  137.6748
 656  64.54337
 657  119.8699
 658  140.7145
 659  197.0747
 660  203.5699
 661  202.7959
 662  235.4355
 663  254.3529
 664  398.9059
 665  360.4212
 666  320.9826
 667  238.3991
 668  330.2376
 669  342.014
 670  340.3684
 671  352.2481
 672  373.0186
 673  308.621
 674  252.144
 675  273.6608
 676  276.1731
 677  327.8553
 678  294.8281
 679  268.4839
 680  185.1103
 681  151.7922
 682  141.7815
 683  63.40113
 684  49.84277
 685  98.95863
 686  55.63073
 687  35.80019
 688  47.57315
 689  136.0326
 690  202.3848
 691  142.0842
 692  173.6306
 693  151.3374
 694  251.4088
 695  299.9304
 696  274.0639
 697  240.3142
 698  266.2578
 699  415.1924
 700  346.8854
 701  225.7332
 702  112.2191
 703  136.8735
 704  167.9856
 705  84.155
 706  96.25546
 707  225.399
 708  486.3183
 709  556.3885
 710  445.7547
 711  346.426
 712  293.4302
 713  327.646
 714  279.373
 715  303.8139
 716  365.7607
 717  315.0483
 718  310.0633
 719  213.7652
 720  258.0367
 721  203.5361
 722  193.5298
 723  275.836
 724  257.5703
 725  215.5609
 726  185.6026
 727  184.4318
 728  150.9669
 729  17.10677
 730  44.29699
 731  139.098
 732  252.3206
 733  246.6312
 734  182.7395
 735  151.4803
 736  214.9826
 737  130.3326
 738  43.02146
 739  58.25392
 740  175.6821
 741  90.72935
 742  125.9077
 743  126.939
 744  208.6721
 745  172.832
 746  197.6548
 747  256.8271
 748  313.4698
 749  236.0432
 750  149.582
 751  34.72072
 752  142.393
 753  273.4524
 754  369.1545
 755  282.0249
 756  107.7295
 757  53.85448
 758  113.8735
 759  252.1504
 760  330.2492
 761  235.0021
 762  103.3834
 763  16.17332
 764  99.61033
 765  107.6154
 766  173.8247
 767  152.704
 768  224.6988
 769  125.7756
 770  138.6102
 771  99.83054
 772  128.4588
 773  195.9528
 774  288.7313
 775  312.9966
 776  226.0287
 777  94.31853
 778  117.1634
 779  188.5593
 780  236.2156
 781  167.3703
 782  142.0338
 783  200.0809
 784  289.1936
 785  294.5951
 786  349.7256
 787  263.8677
 788  187.8051
 789  65.90623
 790  68.38676
 791  95.74243
 792  130.5084
 793  231.9062
 794  164.0761
 795  163.7189
 796  72.80471
 797  15.78392
 798  -4.821015
 799  94.22964
 800  193.2978
 801  174.5441
 802  228.8097
 803  233.7405
 804  189.8127
 805  180.3966
 806  257.2068
 807  283.2856
 808  214.9067
 809  182.3573
 810  167.5346
 811  144.0562
 812  136.6786
 813  156.2083
 814  250.5592
 815  410.0027
 816  475.1893
 817  408.6136
 818  312.3806
 819  289.7729
 820  266.2535
 821  195.2755
 822  204.7952
 823  312.5746
 824  346.8573
 825  334.335
 826  323.253
 827  387.0399
 828  445.5521
 829  390.4654
 830  274.6903
 831  251.0399
 832  221.6381
 833  230.0511
 834  168.6897
 835  167.7555
 836  55.74908
 837  3.021558
 838  88.80923
 839  260.6824
 840  378.9593
 841  369.9082
 842  287.0436
 843  191.4597
 844  148.4715
 845  135.309
 846  215.8614
 847  253.536
 848  305.0809
 849  240.1074
 850  265.245
 851  160.8588
 852  140.0477
 853  86.53534
 854  146.6738
 855  225.2075
 856  312.0032
 857  285.2317
 858  141.5341
 859  36.06975
 860  110.8904
 861  169.8241
 862  218.8297
 863  165.0889
 864  185.8187
 865  109.0524
 866  80.86462
 867  115.2044
 868  245.2843
 869  200.1601
 870  277.3083
 871  275.038
 872  239.6341
 873  91.17153
 874  58.77536
 875  133.5901
 876  171.4866
 877  152.6991
 878  135.5225
 879  140.3171
 880  197.9885
 881  318.0755
 882  342.5471
 883  390.9156
 884  281.2013
 885  329.1856
 886  256.78
 887  314.3975
 888  206.4119
 889  174.2994
 890  121.8204
 891  138.5968
 892  194.8645
 893  226.2394
 894  267.6401
 895  206.5022
 896  234.6243
 897  288.1808
 898  356.9727
 899  370.4706
 900  470.3792
 901  402.5494
 902  322.9712
 903  186.3378
 904  152.8929
 905  248.3296
 906  398.1185
 907  500.4042
 908  430.4145
 909  360.077
 910  276.7909
 911  252.4464
 912  269.6293
 913  310.5584
 914  278.9336
 915  193.7644
 916  167.0492
 917  223.9821
 918  317.9449
 919  302.7143
 920  274.3159
 921  201.8542
 922  198.3332
 923  225.4872
 924  275.4174
 925  242.5062
 926  208.2894
 927  161.5845
 928  114.4363
 929  101.7284
 930  119.56
 931  175.5446
 932  182.1642
 933  178.2906
 934  179.5771
 935  214.2352
 936  201.487
 937  161.9014
 938  148.4603
 939  112.3927
 940  82.17681
 941  -0.3564236
 942  61.2502
 943  143.1396
 944  257.6983
 945  256.6396
 946  242.0257
 947  245.2133
 948  282.9727
 949  228.8004
 950  183.3752
 951  260.6522
 952  341.088
 953  375.1736
 954  394.4404
 955  400.4807
 956  414.3853
 957  213.3651
 958  143.2852
 959  -0.881043
 960  111.6664
 961  167.5174
 962  253.5067
 963  287.3705
 964  364.2074
 965  475.6553
 966  375.8485
 967  345.6348
 968  310.5243
 969  356.7657
 970  270.763
 971  256.4276
 972  179.0087
 973  267.741
 974  299.9519
 975  374.8929
 976  388.7951
 977  366.8885
 978  296.659
 979  259.6615
 980  113.2612
 981  60.41889
 982  36.31753
 983  245.6321
 984  344.7155
 985  267.5935
 986  185.9632
 987  180.9012
 988  263.8062
 989  338.7053
 990  336.9859
 991  403.2303
 992  316.9725
 993  228.948
 994  88.60513
 995  103.1093
 996  120.7115
 997  93.67899
 998  66.56691
 999  156.4326
1000  210.476
1001  248.0533
1002  176.6034
1003  251.9165
1004  296.0748
1005  285.0896
1006  202.6326
1007  147.1198
1008  230.6142
1009  244.0113
1010  232.8562
1011  159.2565
1012  243.5367
1013  230.6415
1014  222.9893
1015  99.90562
1016  56.14703
1017  150.4038
1018  270.0965
1019  347.555
1020  320.8737
1021  304.5699
1022  321.5003
1023  241.6145
