# Input file       =  1191553201.113077_cleaned.dat
# Candidate        =  PSR_0332+5434
# Telescope        =  AR
# Epoch_topo       =  58035.125232790240
# Epoch_bary       =  N/A
# T_sample         =  0.002
# Data Folded      =  7340032
# Data Avg         =  0.0134331015190919
# Data StdDev      =  1.00001635156232 
# Profile Bins     =  512
# Profile Avg      =  192.541846218792 
# Profile StdDev   =  119.734994198972 
# Reduced chi-sqr  =  1.444
# Prob(Noise)      <  1.79e-10   (~6.3 sigma)
# P_topo (ms)      =  714.477808358209  +/- 0.000161
# P'_topo (s/s)    =  -0                +/- 8.49e-11
# P''_topo (s/s^2) =  0                 +/- 3.75e-14
# P_bary (ms)      =  N/A
# P'_bary (s/s)    =  N/A
# P''_bary (s/s^2) =  N/A
# P_orb (s)        =  N/A
# asin(i)/c (s)    =  N/A
# eccentricity     =  N/A
# w (rad)          =  N/A
# T_peri           =  N/A
######################################################
   0  945.8018
   1  718.9676
   2  552.5807
   3  222.7604
   4  71.96424
   5  236.3315
   6  165.9724
   7  152.4974
   8  92.67757
   9  208.1383
  10  216.657
  11  259.8941
  12  250.4958
  13  246.3492
  14  347.8237
  15  371.4583
  16  377.1787
  17  276.1267
  18  250.6012
  19  310.2299
  20  323.0865
  21  252.9256
  22  155.7896
  23  326.2603
  24  253.8912
  25  114.0044
  26  141.6225
  27  341.6945
  28  303.2779
  29  223.1121
  30  270.6718
  31  187.2944
  32  131.2431
  33  273.1491
  34  327.0653
  35  178.1427
  36  212.6484
  37  116.9512
  38  92.6582
  39  68.95134
  40  207.5058
  41  314.072
  42  170.6808
  43  208.3008
  44  191.7462
  45  103.1463
  46  98.6321
  47  349.5933
  48  259.164
  49  124.3189
  50  139.65
  51  75.22433
  52  157.9525
  53  173.7756
  54  78.99344
  55  93.00043
  56  239.7748
  57  313.1272
  58  345.1744
  59  268.7436
  60  181.9636
  61  259.1752
  62  240.6282
  63  198.957
  64  249.3279
  65  153.3613
  66  285.9611
  67  199.9035
  68  111.2124
  69  140.1974
  70  127.3448
  71  255.8664
  72  347.2063
  73  183.7464
  74  198.3464
  75  180.0908
  76  286.7607
  77  268.5
  78  353.3179
  79  334.057
  80  190.9437
  81  244.0968
  82  107.1845
  83  39.98999
  84  314.1376
  85  320.5594
  86  187.66
  87  128.1998
  88  237.4581
  89  249.7582
  90  333.4481
  91  288.4403
  92  330.3216
  93  241.2856
  94  216.3134
  95  233.4838
  96  228.1904
  97  290.895
  98  170.6572
  99  265.1961
 100  273.3808
 101  270.1668
 102  191.4858
 103  68.19615
 104  82.66444
 105  195.6469
 106  194.6149
 107  277.0584
 108  291.0751
 109  111.4029
 110  65.17617
 111  158.4052
 112  171.0899
 113  297.0437
 114  247.0179
 115  173.8234
 116  140.5721
 117  163.7272
 118  250.4398
 119  130.7578
 120  39.84685
 121  123.3834
 122  221.8601
 123  123.2695
 124  69.07733
 125  201.1973
 126  148.1477
 127  145.5481
 128  140.7354
 129  168.9286
 130  -26.36832
 131  55.26384
 132  143.5786
 133  136.0424
 134  80.32618
 135  169.6739
 136  118.0324
 137  142.0287
 138  195.1492
 139  198.7188
 140  165.0156
 141  248.3387
 142  272.498
 143  325.1104
 144  319.5954
 145  207.4965
 146  114.2657
 147  201.6325
 148  242.036
 149  184.8233
 150  232.2632
 151  212.9756
 152  141.1909
 153  119.461
 154  69.49189
 155  107.5119
 156  148.2191
 157  159.3595
 158  162.3205
 159  249.6377
 160  219.6608
 161  154.8967
 162  107.8117
 163  128.6552
 164  126.4558
 165  188.8528
 166  246.8136
 167  181.4971
 168  215.2553
 169  149.2514
 170  152.4916
 171  213.7502
 172  111.9811
 173  12.23095
 174  78.60933
 175  188.8784
 176  147.3602
 177  90.45769
 178  122.9421
 179  101.1076
 180  246.9906
 181  323.3008
 182  206.3469
 183  230.069
 184  146.1286
 185  58.86869
 186  111.7981
 187  54.79876
 188  135.047
 189  277.6686
 190  372.7782
 191  270.8474
 192  340.4627
 193  356.0246
 194  250.989
 195  216.6367
 196  112.451
 197  159.8546
 198  173.9775
 199  228.3718
 200  252.3584
 201  304.8263
 202  256.4233
 203  235.5547
 204  142.1138
 205  118.2051
 206  149.6964
 207  167.8391
 208  209.2702
 209  222.041
 210  24.65646
 211  84.67412
 212  145.2578
 213  76.24932
 214  23.36477
 215  141.2356
 216  153.0045
 217  88.03727
 218  107.1001
 219  236.5258
 220  245.6513
 221  186.799
 222  160.1868
 223  150.3504
 224  119.5537
 225  81.98215
 226  147.9509
 227  218.9927
 228  172.4398
 229  133.8879
 230  147.8717
 231  32.72068
 232  -5.842499
 233  94.36013
 234  115.4781
 235  171.7861
 236  131.4738
 237  138.0495
 238  79.57143
 239  23.68528
 240  -6.726282
 241  137.835
 242  262.011
 243  237.5713
 244  60.79625
 245  124.0176
 246  224.9104
 247  123.8753
 248  151.5743
 249  188.9866
 250  123.9132
 251  185.2768
 252  201.1976
 253  237.3469
 254  163.7757
 255  136.3585
 256  109.476
 257  264.4499
 258  269.3454
 259  237.2964
 260  247.4003
 261  304.5431
 262  275.7909
 263  174.5173
 264  264.3116
 265  115.4303
 266  94.72535
 267  232.5935
 268  267.6323
 269  180.7669
 270  230.9393
 271  173.5028
 272  201.3545
 273  224.3337
 274  203.9919
 275  96.66323
 276  0.4828519
 277  62.06633
 278  197.3583
 279  346.6683
 280  279.7192
 281  246.0339
 282  352.8557
 283  299.6018
 284  164.8953
 285  203.123
 286  256.4478
 287  185.2705
 288  93.60511
 289  192.7692
 290  165.7665
 291  190.3129
 292  271.749
 293  244.7755
 294  217.1586
 295  171.908
 296  113.297
 297  143.354
 298  216.8989
 299  189.3545
 300  181.5313
 301  268.7851
 302  286.4399
 303  328.1946
 304  267.8324
 305  164.6767
 306  345.5416
 307  257.6498
 308  130.544
 309  142.9243
 310  203.1059
 311  216.2239
 312  186.6305
 313  145.6122
 314  182.6257
 315  239.9894
 316  342.8423
 317  296.2646
 318  143.9293
 319  128.4873
 320  110.8241
 321  132.3945
 322  70.08899
 323  194.943
 324  276.9794
 325  204.099
 326  54.43711
 327  197.2985
 328  255.3967
 329  207.0888
 330  193.8298
 331  272.3097
 332  227.1187
 333  258.9865
 334  250.5703
 335  77.78696
 336  15.13859
 337  75.59274
 338  180.4918
 339  179.4536
 340  312.8449
 341  321.5478
 342  263.0049
 343  236.3406
 344  223.7115
 345  304.8365
 346  231.1712
 347  171.135
 348  316.0515
 349  245.2707
 350  162.622
 351  235.8323
 352  331.4346
 353  331.5753
 354  323.3838
 355  169.9287
 356  236.0174
 357  241.1766
 358  246.9398
 359  83.62234
 360  -19.09015
 361  102.9653
 362  164.8663
 363  144.5094
 364  117.4055
 365  94.08534
 366  84.36603
 367  60.19542
 368  116.3714
 369  286.6137
 370  208.7098
 371  46.01898
 372  64.29458
 373  45.04788
 374  177.1173
 375  92.59571
 376  125.5091
 377  125.1056
 378  232.2689
 379  201.7213
 380  212.1391
 381  229.2372
 382  230.7991
 383  249.5403
 384  221.9734
 385  146.0452
 386  136.1638
 387  45.55939
 388  134.9481
 389  190.5837
 390  50.17492
 391  69.42336
 392  136.1794
 393  141.2214
 394  24.94573
 395  13.39988
 396  -27.87224
 397  -27.00513
 398  -27.98356
 399  108.6773
 400  88.97677
 401  69.51714
 402  87.85695
 403  149.3882
 404  124.0976
 405  244.2326
 406  257.1324
 407  86.83682
 408  23.05425
 409  96.42397
 410  255.3511
 411  308.5572
 412  280.3347
 413  203.2014
 414  86.39874
 415  46.99051
 416  104.5888
 417  238.5201
 418  223.0761
 419  40.18013
 420  73.20046
 421  104.488
 422  59.87315
 423  110.0626
 424  275.3432
 425  206.6353
 426  61.0778
 427  77.90285
 428  145.9371
 429  112.9316
 430  63.59789
 431  169.326
 432  197.8698
 433  171.8704
 434  194.3182
 435  165.3629
 436  12.28395
 437  189.431
 438  245.4978
 439  212.7607
 440  181.9405
 441  113.6562
 442  134.2213
 443  180.299
 444  304.1966
 445  240.8114
 446  176.633
 447  297.7576
 448  165.3979
 449  254.2037
 450  302.4349
 451  182.0664
 452  119.6109
 453  253.6132
 454  293.107
 455  229.0105
 456  251.2159
 457  346.1346
 458  265.0898
 459  106.367
 460  256.9436
 461  288.957
 462  373.3586
 463  144.9919
 464  76.41368
 465  170.6913
 466  249.3189
 467  220.6471
 468  305.6029
 469  237.0088
 470  145.0694
 471  182.6063
 472  136.9413
 473  226.5854
 474  261.7815
 475  116.8606
 476  142.2164
 477  112.6367
 478  60.86121
 479  87.02382
 480  140.5377
 481  185.3307
 482  195.4144
 483  131.8668
 484  92.86578
 485  78.2511
 486  209.6105
 487  261.0072
 488  191.0521
 489  360.3381
 490  284.5286
 491  158.2274
 492  298.6356
 493  394.6189
 494  309.5215
 495  241.9528
 496  270.919
 497  197.189
 498  227.4258
 499  195.9445
 500  183.5217
 501  110.8441
 502  96.48164
 503  109.4409
 504  252.3047
 505  299.3282
 506  233.0135
 507  295.4586
 508  408.3156
 509  576.0863
 510  674.9182
 511  933.6633
