# Input file       =  1191179035.128983_cleaned.dat
# Candidate        =  PSR_0332+5434
# Telescope        =  AR
# Epoch_topo       =  58030.794607974341
# Epoch_bary       =  N/A
# T_sample         =  0.002
# Data Folded      =  7208960
# Data Avg         =  0.0807145814284341
# Data StdDev      =  2.88232882765297 
# Profile Bins     =  512
# Profile Avg      =  1136.42211548183 
# Profile StdDev   =  342.014763055235 
# Reduced chi-sqr  =  1.274
# Prob(Noise)      <  2.54e-05   (~4.1 sigma)
# P_topo (ms)      =  714.474757816247  +/- 0.000116
# P'_topo (s/s)    =  -0                +/- 6.24e-11
# P''_topo (s/s^2) =  0                 +/- 2.81e-14
# P_bary (ms)      =  N/A
# P'_bary (s/s)    =  N/A
# P''_bary (s/s^2) =  N/A
# P_orb (s)        =  N/A
# asin(i)/c (s)    =  N/A
# eccentricity     =  N/A
# w (rad)          =  N/A
# T_peri           =  N/A
######################################################
   0  871.9
   1  1048.91
   2  1362.845
   3  1624.005
   4  1589.735
   5  1453.028
   6  1203.121
   7  964.1453
   8  1065.968
   9  1202.17
  10  1236.215
  11  1342.578
  12  1276.617
  13  1079.732
  14  1089.968
  15  1205.21
  16  1216.619
  17  897.0209
  18  1209.653
  19  1147.092
  20  1117.796
  21  970.2664
  22  1201.554
  23  1057.007
  24  931.0223
  25  823.7733
  26  1139.624
  27  977.2844
  28  1124.514
  29  1005.507
  30  834.3122
  31  975.3354
  32  1431.217
  33  1486.94
  34  1108.599
  35  900.2958
  36  795.5825
  37  1129.35
  38  1104.875
  39  1293.055
  40  1171.919
  41  1155.161
  42  841.0263
  43  1050.992
  44  1299.103
  45  1074.909
  46  1092.49
  47  1144.569
  48  869.3835
  49  1119.499
  50  1284.654
  51  1496.223
  52  1614.14
  53  1439.288
  54  1591.276
  55  1656.381
  56  2089.537
  57  2534.701
  58  3051.752
  59  3382.756
  60  3287.921
  61  2809.642
  62  1914.778
  63  1587.481
  64  1412.536
  65  1100.521
  66  1251.97
  67  1160.311
  68  1106.228
  69  1313.174
  70  1443.048
  71  1314.658
  72  1256.088
  73  1380.405
  74  1342.344
  75  1299.825
  76  1377.541
  77  1380.32
  78  1225.219
  79  777.0133
  80  1132.514
  81  1016.495
  82  1056.435
  83  878.5317
  84  678.285
  85  977.2334
  86  1140.481
  87  1020.58
  88  978.9194
  89  1176.575
  90  1165.516
  91  875.0651
  92  1192.502
  93  1305.238
  94  1398.197
  95  1379.778
  96  1116.476
  97  991.8331
  98  856.5217
  99  813.2205
 100  849.2496
 101  1244.701
 102  1416.721
 103  1138.759
 104  1061.081
 105  798.9088
 106  958.4974
 107  1027.16
 108  1177.624
 109  1002.072
 110  1203.092
 111  1381.343
 112  1223.406
 113  991.3698
 114  1170.385
 115  1350.262
 116  1456.773
 117  1471.475
 118  1219.317
 119  1073.352
 120  1054.534
 121  889.5296
 122  1245.968
 123  1404.568
 124  1332.615
 125  1108.595
 126  883.6546
 127  1174.318
 128  945.7418
 129  838.2142
 130  997.5149
 131  955.7953
 132  886.7543
 133  1142.666
 134  1136.551
 135  1253.431
 136  1303.066
 137  1005.707
 138  969.0481
 139  1202.054
 140  1251.731
 141  1141.805
 142  1064.244
 143  1260.096
 144  1235.262
 145  1081.092
 146  923.697
 147  996.6663
 148  959.8279
 149  908.5658
 150  1236.828
 151  1207.68
 152  1507.972
 153  1162.186
 154  956.7587
 155  901.5147
 156  745.9242
 157  874.1964
 158  696.4497
 159  769.0543
 160  915.5541
 161  813.3166
 162  576.3244
 163  695.2941
 164  889.5129
 165  926.1514
 166  756.3035
 167  781.0098
 168  1104.148
 169  1343.049
 170  1396.736
 171  1107.73
 172  1141.952
 173  1277.066
 174  1458.202
 175  975.8129
 176  1112.991
 177  1202.241
 178  1021.334
 179  621.2725
 180  807.2133
 181  1223.386
 182  897.8588
 183  1128.149
 184  1478.787
 185  1103.883
 186  885.4304
 187  586.2072
 188  628.8074
 189  755.7936
 190  808.3348
 191  1016.411
 192  1186.252
 193  1278.79
 194  1321.232
 195  918.8664
 196  673.6548
 197  1040.587
 198  1207.021
 199  1156.514
 200  1207.336
 201  1198.836
 202  944.2573
 203  906.3185
 204  744.6693
 205  1119.579
 206  1323.531
 207  1083.164
 208  1025.386
 209  1102.978
 210  1006.27
 211  696.315
 212  833.1639
 213  786.5671
 214  578.1124
 215  814.3713
 216  1031.849
 217  1417.717
 218  1114.691
 219  1031.25
 220  1047.698
 221  874.0781
 222  1056.864
 223  994.8496
 224  1070.589
 225  1006.079
 226  1131.152
 227  1499.387
 228  1053.341
 229  820.8651
 230  1010.083
 231  1224.48
 232  1264.306
 233  1063.743
 234  913.6814
 235  926.5072
 236  709.4036
 237  1056.278
 238  1146.553
 239  1243.159
 240  1202.96
 241  1101.624
 242  1192.332
 243  1125.165
 244  1086.683
 245  1098.064
 246  1107.468
 247  945.4016
 248  1059.775
 249  967.0519
 250  1124.021
 251  1693.259
 252  1481.621
 253  1293.64
 254  992.2552
 255  1249.925
 256  1280.806
 257  1189.949
 258  1358.855
 259  1409.69
 260  976.1804
 261  679.4258
 262  857.2245
 263  1353.961
 264  939.8232
 265  1131.487
 266  1376.495
 267  1272.319
 268  1214.316
 269  1213.017
 270  1142.277
 271  932.8849
 272  1061.386
 273  1153.468
 274  1041.364
 275  1116.604
 276  1155.966
 277  1000.951
 278  1086.323
 279  985.7776
 280  902.5485
 281  1036.822
 282  1371.18
 283  1314.46
 284  1289.28
 285  1060.511
 286  1090.648
 287  973.2059
 288  910.9691
 289  838.2218
 290  745.674
 291  995.005
 292  1063.968
 293  1040.577
 294  896.2484
 295  827.2748
 296  756.7443
 297  934.3809
 298  879.3616
 299  1070.321
 300  943.9164
 301  1294.923
 302  1306.821
 303  928.5074
 304  1069.583
 305  1112.322
 306  885.7773
 307  840.5237
 308  1158.741
 309  1225.747
 310  1047.882
 311  864.2258
 312  856.0629
 313  1223.842
 314  1225.119
 315  976.8918
 316  1249.53
 317  1373.316
 318  1401.021
 319  1214.173
 320  938.7589
 321  1014.576
 322  848.8901
 323  941.5491
 324  1256.783
 325  1386.519
 326  1326.526
 327  924.085
 328  1039.676
 329  1215.329
 330  986.7183
 331  1076.352
 332  923.0453
 333  1166.599
 334  1299.43
 335  1754.502
 336  1424.702
 337  1383.321
 338  1396.329
 339  1182.811
 340  1064.293
 341  1117.407
 342  1273.651
 343  844.2758
 344  879.7357
 345  972.4686
 346  1292.489
 347  1039.478
 348  1183.693
 349  1214.659
 350  1518.097
 351  1421.823
 352  1121.485
 353  909.786
 354  1024.284
 355  1049.386
 356  1136.484
 357  1228.717
 358  1364.701
 359  1056.748
 360  912.1052
 361  980.093
 362  1087.69
 363  1062.711
 364  1381.991
 365  1278.118
 366  1326.52
 367  1196.61
 368  1249.654
 369  1204.888
 370  1106.166
 371  947.9531
 372  1076.302
 373  1051.473
 374  1145.857
 375  1215.32
 376  1455.61
 377  1123.072
 378  1138.899
 379  1295.194
 380  966.5289
 381  1095.016
 382  1098.188
 383  1188.868
 384  1077.836
 385  1075.303
 386  1312.237
 387  1119.144
 388  1121.308
 389  1068.877
 390  1209.629
 391  1104.104
 392  1086.291
 393  997.3669
 394  1051.534
 395  977.611
 396  1167.249
 397  1368.629
 398  1129.07
 399  1340.902
 400  1356.516
 401  1416.256
 402  1487.214
 403  1275.537
 404  1351.47
 405  1250.958
 406  1212.553
 407  1246.647
 408  1170.249
 409  898.2396
 410  869.829
 411  907.3053
 412  1167.144
 413  1263.525
 414  1169.573
 415  1040.945
 416  1254.73
 417  1509
 418  1223.681
 419  1121.617
 420  1060.075
 421  1073.705
 422  1068.295
 423  969.2834
 424  1243.385
 425  1140.825
 426  1002.027
 427  949.8901
 428  1220.872
 429  1278.326
 430  1302.672
 431  1643.593
 432  1491.302
 433  1401.57
 434  1244.644
 435  1115.2
 436  1159.353
 437  1270.997
 438  1407.953
 439  1079.203
 440  1302.518
 441  1566.183
 442  1483.956
 443  1240.481
 444  947.2079
 445  999.9506
 446  1141.988
 447  1100.39
 448  1079.924
 449  1389.653
 450  1535.146
 451  1160.162
 452  822.0256
 453  992.4955
 454  983.8555
 455  996.3631
 456  801.2652
 457  1031.484
 458  1148.754
 459  1085.592
 460  1018.372
 461  1015.062
 462  1028.168
 463  826.2774
 464  1151.655
 465  1165.296
 466  1342.127
 467  1136.136
 468  1150.644
 469  1102.545
 470  655.3555
 471  991.4919
 472  1053.003
 473  1015.447
 474  1066.487
 475  846.6086
 476  733.2969
 477  968.3918
 478  976.2092
 479  1199.625
 480  1240.938
 481  993.8559
 482  1087.142
 483  982.6498
 484  1162.496
 485  1444.662
 486  1443.005
 487  1214.67
 488  973.1404
 489  912.3878
 490  1088.654
 491  1322.124
 492  1134.75
 493  1160.105
 494  1062.95
 495  1104.771
 496  988.5644
 497  1132.474
 498  1041.967
 499  1163.303
 500  1366.494
 501  1092.216
 502  726.5621
 503  971.3335
 504  1010.704
 505  1010.94
 506  1136.239
 507  1307.867
 508  1315.346
 509  1113.81
 510  1177.219
 511  1085.13
