# Input file       =  1192759393.134662_cleaned.dat
# Candidate        =  PSR_0332+5434
# Telescope        =  AR
# Epoch_topo       =  58049.085788595621
# Epoch_bary       =  N/A
# T_sample         =  0.002
# Data Folded      =  7340032
# Data Avg         =  0.0524283150620506
# Data StdDev      =  2.6634030484251  
# Profile Bins     =  512
# Profile Avg      =  751.601499351722 
# Profile StdDev   =  318.897334083072 
# Reduced chi-sqr  =  1.460
# Prob(Noise)      <  4.79e-11   (~6.5 sigma)
# P_topo (ms)      =  714.488234176441  +/- 0.000127
# P'_topo (s/s)    =  -0                +/- 6.68e-11
# P''_topo (s/s^2) =  0                 +/- 2.95e-14
# P_bary (ms)      =  N/A
# P'_bary (s/s)    =  N/A
# P''_bary (s/s^2) =  N/A
# P_orb (s)        =  N/A
# asin(i)/c (s)    =  N/A
# eccentricity     =  N/A
# w (rad)          =  N/A
# T_peri           =  N/A
######################################################
   0  930.7198
   1  1003.873
   2  801.2659
   3  784.689
   4  704.8027
   5  708.7535
   6  767.5416
   7  573.0513
   8  655.1838
   9  648.137
  10  540.2549
  11  590.1506
  12  347.9789
  13  443.7976
  14  461.0658
  15  372.6001
  16  349.0297
  17  685.0021
  18  748.2053
  19  1106.836
  20  1050.944
  21  945.0951
  22  1069.505
  23  707.4319
  24  633.7843
  25  508.2584
  26  524.6453
  27  696.9946
  28  964.2174
  29  1001.808
  30  1107.843
  31  1045.053
  32  725.4868
  33  406.2827
  34  625.9537
  35  764.3864
  36  751.7533
  37  395.1174
  38  563.542
  39  424.5171
  40  540.8353
  41  516.5403
  42  602.1254
  43  616.7665
  44  511.3712
  45  551.7515
  46  434.1562
  47  622.0133
  48  756.6458
  49  699.8327
  50  511.4602
  51  370.8974
  52  647.6045
  53  496.7878
  54  358.9301
  55  428.7874
  56  367.5533
  57  702.5309
  58  853.7358
  59  418.6904
  60  485.8984
  61  901.4092
  62  728.9354
  63  514.5323
  64  531.0509
  65  537.2581
  66  629.2256
  67  769.7506
  68  579.0831
  69  755.2319
  70  359.1331
  71  494.5441
  72  714.3202
  73  652.4765
  74  653.301
  75  986.9276
  76  1075.075
  77  698.1972
  78  681.0968
  79  917.7859
  80  760.1949
  81  631.9006
  82  1294.738
  83  1579.704
  84  959.7175
  85  620.1347
  86  904.7068
  87  840.2935
  88  878.7733
  89  475.4881
  90  577.8565
  91  661.3997
  92  685.6844
  93  833.9186
  94  758.5812
  95  652.873
  96  438.243
  97  380.5025
  98  338.9421
  99  589.4523
 100  1235.204
 101  1158.141
 102  797.9361
 103  527.9979
 104  388.3449
 105  736.6003
 106  704.656
 107  662.1903
 108  691.2131
 109  660.3453
 110  763.6155
 111  537.9159
 112  582.8158
 113  614.2133
 114  706.5879
 115  733.2584
 116  716.9747
 117  815.4913
 118  576.9753
 119  390.7318
 120  619.9929
 121  928.8295
 122  761.2507
 123  740.6271
 124  581.977
 125  307.9276
 126  503.5907
 127  341.9089
 128  589.0403
 129  863.2839
 130  956.9211
 131  499.9883
 132  608.0693
 133  611.3727
 134  716.9408
 135  743.23
 136  736.1368
 137  806.8728
 138  885.0555
 139  764.2753
 140  667.5554
 141  399.8935
 142  723.582
 143  866.8337
 144  522.5666
 145  277.207
 146  398.921
 147  572.1146
 148  587.3923
 149  932.7534
 150  757.9712
 151  704.471
 152  654.3243
 153  384.2916
 154  487.4572
 155  637.7476
 156  571.6648
 157  931.8857
 158  715.7878
 159  603.0074
 160  479.5541
 161  603.0456
 162  1012.849
 163  951.1024
 164  917.7352
 165  1092.847
 166  872.1129
 167  781.201
 168  757.7818
 169  716.4346
 170  738.3259
 171  685.5674
 172  869.8802
 173  775.5134
 174  638.7812
 175  952.1123
 176  954.0686
 177  595.6141
 178  572.3192
 179  621.3108
 180  225.8636
 181  307.1303
 182  781.5626
 183  949.1536
 184  968.8273
 185  674.8857
 186  883.5812
 187  992.6156
 188  769.1192
 189  887.2996
 190  952.7546
 191  1054.215
 192  1015.045
 193  591.4778
 194  598.5996
 195  193.6364
 196  411.3678
 197  670.9924
 198  1045.873
 199  754.8937
 200  720.0586
 201  581.4838
 202  688.7605
 203  556.1376
 204  647.6221
 205  901.4831
 206  741.595
 207  693.9443
 208  865.6421
 209  783.6154
 210  810.1179
 211  563.0877
 212  709.897
 213  330.7477
 214  867.8338
 215  1045.853
 216  988.1324
 217  853.4512
 218  846.9717
 219  346.4923
 220  445.0323
 221  1107.558
 222  1050.379
 223  820.041
 224  1026.21
 225  1160.95
 226  842.149
 227  747.9456
 228  1238.343
 229  1747.139
 230  2260.095
 231  2114.032
 232  2355.388
 233  2781.69
 234  2167.689
 235  1362.193
 236  1302.352
 237  884.5028
 238  713.3584
 239  1012.355
 240  671.5841
 241  835.6332
 242  934.0186
 243  1261.864
 244  1247.556
 245  1216.56
 246  879.7359
 247  962.8315
 248  1192.261
 249  1203.727
 250  962.7724
 251  994.6096
 252  932.6989
 253  691.5314
 254  652.2288
 255  709.8532
 256  484.7762
 257  891.8615
 258  1251.91
 259  1114.958
 260  1117.553
 261  1008.496
 262  1202.112
 263  1023.993
 264  752.3518
 265  1189.398
 266  1072.492
 267  630.7286
 268  605.8436
 269  725.9277
 270  590.4681
 271  851.6904
 272  1093.825
 273  1167.947
 274  958.1516
 275  908.8969
 276  1155.819
 277  697.0674
 278  938.2155
 279  1009.094
 280  1135.203
 281  1058.319
 282  889.503
 283  592.1856
 284  534.0411
 285  737.4266
 286  969.2704
 287  946.9839
 288  756.0612
 289  804.923
 290  819.6413
 291  622.4978
 292  749.2734
 293  915.6352
 294  825.4502
 295  267.3437
 296  367.5988
 297  806.2227
 298  915.9041
 299  731.7563
 300  718.7479
 301  936.6379
 302  857.9991
 303  828.1013
 304  912.7332
 305  683.2569
 306  260.2697
 307  466.3506
 308  931.1979
 309  981.9351
 310  1103.263
 311  1231.558
 312  721.677
 313  741.6428
 314  832.1008
 315  888.808
 316  1038.186
 317  992.8842
 318  534.9518
 319  486.4382
 320  634.8386
 321  614.3436
 322  540.8149
 323  396.0137
 324  224.1104
 325  552.5916
 326  505.1692
 327  403.3948
 328  527.7386
 329  974.9551
 330  940.4258
 331  847.2023
 332  790.8366
 333  740.3389
 334  881.6449
 335  944.3323
 336  817.6882
 337  698.3732
 338  783.6256
 339  1081.392
 340  823.8223
 341  684.9091
 342  445.6676
 343  484.5884
 344  635.1735
 345  453.1747
 346  704.9805
 347  868.8495
 348  855.4508
 349  841.9756
 350  624.2339
 351  638.092
 352  603.3278
 353  571.5655
 354  719.6008
 355  1005.774
 356  958.4114
 357  715.6214
 358  892.7233
 359  1097.068
 360  889.8037
 361  695.8344
 362  570.2073
 363  921.7882
 364  1024.622
 365  640.7761
 366  619.0369
 367  959.6324
 368  987.0766
 369  608.5775
 370  586.3771
 371  313.8588
 372  560.5184
 373  626.2382
 374  1027.32
 375  754.6703
 376  944.4666
 377  715.9462
 378  181.3315
 379  837.6203
 380  1092.524
 381  901.985
 382  615.1366
 383  780.0152
 384  964.2282
 385  885.036
 386  893.2156
 387  815.5548
 388  720.1055
 389  564.8258
 390  502.5456
 391  644.1732
 392  603.3607
 393  729.3253
 394  968.7092
 395  908.5327
 396  664.4313
 397  846.1222
 398  1050.463
 399  871.9114
 400  689.7071
 401  616.2708
 402  648.828
 403  625.1064
 404  658.1738
 405  816.6163
 406  763.5158
 407  624.8724
 408  862.3046
 409  596.221
 410  624.4661
 411  809.8857
 412  670.6911
 413  782.9215
 414  650.3524
 415  923.3205
 416  1135.543
 417  321.0529
 418  319.327
 419  622.6695
 420  601.2597
 421  743.2275
 422  654.1953
 423  904.9202
 424  1046.494
 425  1057.253
 426  986.5164
 427  676.8044
 428  662.2435
 429  993.3931
 430  928.9067
 431  652.2985
 432  1048.054
 433  1196.228
 434  922.3456
 435  956.038
 436  716.7697
 437  513.5931
 438  767.858
 439  651.9208
 440  559.2324
 441  678.6597
 442  654.3775
 443  722.6342
 444  779.8918
 445  554.9308
 446  601.329
 447  418.8115
 448  558.3594
 449  854.4985
 450  1001.363
 451  768.4487
 452  809.1934
 453  756.168
 454  629.4693
 455  765.1108
 456  435.3018
 457  494.6069
 458  811.7376
 459  910.5012
 460  388.0767
 461  239.5225
 462  537.3344
 463  856.1718
 464  782.8364
 465  757.8619
 466  629.8372
 467  390.4676
 468  438.7248
 469  709.1068
 470  865.6082
 471  926.3857
 472  663.8133
 473  811.4335
 474  941.0277
 475  694.0793
 476  694.2153
 477  842.605
 478  769.3944
 479  376.4073
 480  341.8889
 481  681.8163
 482  894.3413
 483  751.3406
 484  1056.372
 485  978.7931
 486  711.092
 487  723.3745
 488  536.4921
 489  575.5095
 490  982.5921
 491  923.3974
 492  411.0586
 493  325.1842
 494  237.0538
 495  470.2578
 496  679.6056
 497  712.022
 498  775.7566
 499  742.2994
 500  441.1183
 501  678.4424
 502  323.7382
 503  415.6434
 504  333.8588
 505  485.1443
 506  531.5079
 507  106.4695
 508  470.3206
 509  773.5905
 510  645.1234
 511  545.0715
