# Input file       =  1192040582.118433_cleaned.dat
# Candidate        =  PSR_0332+5434
# Telescope        =  AR
# Epoch_topo       =  58040.766216648532
# Epoch_bary       =  N/A
# T_sample         =  0.002
# Data Folded      =  7208960
# Data Avg         =  0.0304534235313026
# Data StdDev      =  3.05498144605937 
# Profile Bins     =  256
# Profile Avg      =  857.362534026166 
# Profile StdDev   =  512.654651459635 
# Reduced chi-sqr  =  1.433
# Prob(Noise)      <  6.73e-06   (~4.4 sigma)
# P_topo (ms)      =  714.481360357075  +/- 0.000243
# P'_topo (s/s)    =  -0                +/- 1.31e-10
# P''_topo (s/s^2) =  0                 +/- 5.88e-14
# P_bary (ms)      =  N/A
# P'_bary (s/s)    =  N/A
# P''_bary (s/s^2) =  N/A
# P_orb (s)        =  N/A
# asin(i)/c (s)    =  N/A
# eccentricity     =  N/A
# w (rad)          =  N/A
# T_peri           =  N/A
######################################################
   0  731.7545
   1  893.1965
   2  676.4407
   3  1468.111
   4  1631.58
   5  628.4598
   6  920.5399
   7  239.7168
   8  791.9976
   9  1350.551
  10  1230.41
  11  440.8786
  12  276.9608
  13  472.9456
  14  743.0987
  15  1037.65
  16  479.5742
  17  132.6004
  18  806.8781
  19  790.1023
  20  887.2328
  21  1485.597
  22  750.9395
  23  37.6574
  24  563.0031
  25  1100.107
  26  1476.682
  27  465.8882
  28  641.1362
  29  1348.484
  30  940.7829
  31  615.7964
  32  601.0724
  33  633.1785
  34  724.5421
  35  933.1413
  36  938.5143
  37  929.5178
  38  691.6462
  39  1017.097
  40  1198.836
  41  771.5468
  42  595.7061
  43  1220.301
  44  1363.786
  45  789.9547
  46  1302.861
  47  795.631
  48  898.3839
  49  1152.907
  50  680.0682
  51  435.0709
  52  101.8931
  53  425.5435
  54  560.6647
  55  344.3068
  56  513.6703
  57  267.4046
  58  808.8569
  59  1058.952
  60  420.7014
  61  1002.695
  62  1083.601
  63  808.3697
  64  665.5134
  65  1121.826
  66  599.9175
  67  670.1619
  68  458.6272
  69  887.2385
  70  782.2451
  71  738.8819
  72  869.4292
  73  1228.506
  74  896.3702
  75  603.416
  76  395.4066
  77  636.2595
  78  579.5057
  79  1514.646
  80  454.7047
  81  1293.578
  82  848.1219
  83  663.3205
  84  394.9691
  85  859.059
  86  1647.454
  87  651.9152
  88  1315.927
  89  1045.944
  90  1678.146
  91  1715.011
  92  1038.967
  93  1249.513
  94  1206.67
  95  335.1587
  96  763.9426
  97  137.4218
  98  497.7829
  99  1076.702
 100  601.3485
 101  761.7066
 102  486.3301
 103  -0.1727941
 104  486.9954
 105  621.2291
 106  780.9525
 107  784.3459
 108  685.8265
 109  115.6639
 110  1011.134
 111  578.7905
 112  878.4514
 113  646.6271
 114  396.1387
 115  202.6138
 116  243.8601
 117  633.7176
 118  305.429
 119  1109.255
 120  1280.795
 121  1585.961
 122  1585.027
 123  1372.566
 124  1161.455
 125  745.1635
 126  661.9003
 127  665.5214
 128  1348.512
 129  506.9991
 130  732.2905
 131  323.9749
 132  84.97856
 133  300.9174
 134  714.5145
 135  639.3316
 136  150.9071
 137  501.3327
 138  1544.952
 139  1139.052
 140  360.043
 141  1224.001
 142  1536.596
 143  1249.503
 144  317.4318
 145  1296.618
 146  1222.126
 147  923.2521
 148  960.0814
 149  727.0796
 150  861.9198
 151  650.497
 152  563.7615
 153  977.591
 154  1334.269
 155  1323.013
 156  1488.334
 157  2153.43
 158  3944.592
 159  5131.703
 160  3586.631
 161  1618.368
 162  1106.725
 163  1070.718
 164  704.7424
 165  1096.564
 166  1169.662
 167  747.2101
 168  597.021
 169  1306.711
 170  813.5202
 171  749.699
 172  865.0266
 173  597.6766
 174  810.5931
 175  691.8341
 176  1216.508
 177  937.0132
 178  901.7098
 179  795.7239
 180  919.0539
 181  583.7233
 182  1311.061
 183  1028.993
 184  190.5565
 185  873.5038
 186  1143.061
 187  925.915
 188  793.2869
 189  796.1188
 190  315.7603
 191  842.8818
 192  871.1427
 193  576.3137
 194  1054.587
 195  425.3277
 196  1124.571
 197  1053.162
 198  569.0725
 199  785.1152
 200  911.6425
 201  568.597
 202  730.4523
 203  718.8197
 204  336.3863
 205  601.732
 206  355.7697
 207  748.4539
 208  1307.227
 209  809.7791
 210  91.23579
 211  642.4647
 212  979.965
 213  961.2814
 214  1154.569
 215  642.5866
 216  130.8943
 217  755.9816
 218  734.5335
 219  674.3465
 220  550.2559
 221  270.5588
 222  1230.155
 223  1079.506
 224  746.0242
 225  947.8127
 226  1452.217
 227  1260.128
 228  1369.085
 229  865.0702
 230  1167.844
 231  467.1522
 232  640.0626
 233  571.2311
 234  150.7367
 235  136.9306
 236  177.3347
 237  287.5028
 238  428.7428
 239  1238.996
 240  970.9396
 241  552.8188
 242  162.786
 243  654.0185
 244  1135.419
 245  1446.471
 246  1127.731
 247  863.046
 248  981.778
 249  902.2189
 250  687.0587
 251  973.5794
 252  623.1662
 253  374.7972
 254  1129.467
 255  1166.915
