# Input file       =  1192126827.138242_cleaned.dat
# Candidate        =  PSR_0332+5434
# Telescope        =  AR
# Epoch_topo       =  58041.764422896318
# Epoch_bary       =  N/A
# T_sample         =  0.002
# Data Folded      =  7143424
# Data Avg         =  0.0140490658610829
# Data StdDev      =  1.00010539538567 
# Profile Bins     =  512
# Profile Avg      =  196.021621063208 
# Profile StdDev   =  118.131033635633 
# Reduced chi-sqr  =  1.401
# Prob(Noise)      <  4.93e-09   (~5.7 sigma)
# P_topo (ms)      =  714.482095280239  +/- 0.00015
# P'_topo (s/s)    =  -0                +/- 8.12e-11
# P''_topo (s/s^2) =  0                 +/- 3.68e-14
# P_bary (ms)      =  N/A
# P'_bary (s/s)    =  N/A
# P''_bary (s/s^2) =  N/A
# P_orb (s)        =  N/A
# asin(i)/c (s)    =  N/A
# eccentricity     =  N/A
# w (rad)          =  N/A
# T_peri           =  N/A
######################################################
   0  246.511
   1  194.7787
   2  156.3019
   3  174.4824
   4  237.45
   5  172.3073
   6  224.0379
   7  211.7301
   8  180.5228
   9  186.0902
  10  330.8136
  11  414.8323
  12  313.4706
  13  250.9784
  14  190.684
  15  78.83401
  16  2.084312
  17  127.7293
  18  173.2702
  19  213.3866
  20  164.9798
  21  220.8582
  22  90.7218
  23  61.06777
  24  128.8559
  25  137.4297
  26  107.7409
  27  148.6607
  28  -13.13299
  29  -30.82901
  30  29.26005
  31  120.8961
  32  189.5671
  33  152.4635
  34  128.7726
  35  103.7201
  36  41.06085
  37  152.7036
  38  210.9746
  39  85.42964
  40  169.3705
  41  297.3566
  42  261.451
  43  256.9371
  44  213.1957
  45  236.9352
  46  195.2894
  47  252.3113
  48  139.9603
  49  149.8899
  50  174.2308
  51  164.594
  52  223.1855
  53  258.728
  54  206.6407
  55  112.8547
  56  9.334115
  57  45.56448
  58  101.9221
  59  299.3095
  60  356.0839
  61  194.0444
  62  78.12008
  63  -68.24514
  64  17.09982
  65  132.522
  66  224.8293
  67  213.3241
  68  149.5812
  69  343.9046
  70  248.6664
  71  115.904
  72  157.861
  73  109.5781
  74  112.6194
  75  128.4982
  76  244.8912
  77  300.4973
  78  234.8775
  79  106.8462
  80  166.4595
  81  155.6009
  82  149.2451
  83  146.8478
  84  104.4555
  85  148.1333
  86  179.9348
  87  178.3102
  88  208.1278
  89  170.4294
  90  185.747
  91  208.5171
  92  200.5061
  93  261.9006
  94  234.8701
  95  263.8875
  96  328.9186
  97  155.962
  98  159.3753
  99  102.3586
 100  245.9289
 101  158.7035
 102  205.8029
 103  226.8452
 104  253.901
 105  156.0049
 106  86.5564
 107  183.0164
 108  84.87257
 109  199.8708
 110  230.4348
 111  194.2216
 112  286.5142
 113  249.3985
 114  265.1325
 115  175.2875
 116  69.73109
 117  188.581
 118  200.8317
 119  196.444
 120  286.4463
 121  234.6042
 122  105.7471
 123  84.55041
 124  118.6168
 125  195.761
 126  233.9281
 127  208.8815
 128  315.3591
 129  317.257
 130  170.6184
 131  191.7343
 132  109.2764
 133  204.9794
 134  352.1485
 135  271.2477
 136  180.7436
 137  71.19002
 138  142.9901
 139  268.7908
 140  238.8686
 141  224.3936
 142  208.5442
 143  240.6531
 144  289.5736
 145  373.8376
 146  257.9083
 147  37.80853
 148  29.4301
 149  311.1129
 150  229.8269
 151  251.914
 152  250.908
 153  172.3987
 154  202.4786
 155  146.9111
 156  233.7466
 157  356.0982
 158  381.8416
 159  155.0254
 160  128.7496
 161  91.80751
 162  210.4369
 163  197.2631
 164  134.3509
 165  240.01
 166  204.0495
 167  214.066
 168  182.5955
 169  171.6499
 170  304.52
 171  150.2748
 172  92.86631
 173  197.357
 174  103.2997
 175  131.1059
 176  128.2074
 177  158.6449
 178  238.8586
 179  201.7877
 180  114.6869
 181  218.0219
 182  343.6807
 183  239.4538
 184  140.3751
 185  148.0165
 186  270.9683
 187  152.094
 188  159.4398
 189  182.9124
 190  185.936
 191  122.404
 192  41.33836
 193  77.58966
 194  99.59077
 195  136.3636
 196  180.514
 197  133.2765
 198  169.4489
 199  148.7061
 200  305.0526
 201  329.8551
 202  244.5459
 203  169.4516
 204  165.0437
 205  147.3448
 206  241.874
 207  227.1243
 208  274.7611
 209  143.5119
 210  60.26728
 211  73.25551
 212  159.2193
 213  141.4422
 214  160.0475
 215  214.1358
 216  240.3511
 217  238.9657
 218  224.4592
 219  152.7387
 220  187.9696
 221  112.9131
 222  97.41062
 223  197.5221
 224  199.1293
 225  247.2418
 226  264.3305
 227  191.1692
 228  155.9128
 229  145.6032
 230  183.3477
 231  100.4772
 232  199.4835
 233  236.4802
 234  184.91
 235  290.6685
 236  179.9646
 237  183.8311
 238  283.1935
 239  187.9934
 240  77.75581
 241  77.77605
 242  142.8428
 243  166.7249
 244  122.286
 245  115.2643
 246  219.0342
 247  228.6011
 248  231.0544
 249  152.9799
 250  247.9827
 251  134.8524
 252  102.9629
 253  96.95618
 254  179.6824
 255  322.082
 256  310.5794
 257  205.1059
 258  127.3343
 259  155.4949
 260  137.8506
 261  136.9167
 262  157.6841
 263  239.4753
 264  243.5917
 265  199.071
 266  262.4909
 267  509.005
 268  390.1982
 269  348.9368
 270  350.7876
 271  349.2153
 272  458.6935
 273  639.0358
 274  854.9768
 275  873.9724
 276  799.4866
 277  736.1923
 278  436.218
 279  228.9016
 280  195.789
 281  412.9622
 282  283.6587
 283  165.5609
 284  144.6191
 285  238.5208
 286  282.7983
 287  169.6781
 288  132.5617
 289  238.5253
 290  284.0006
 291  184.63
 292  155.4884
 293  147.6466
 294  80.24134
 295  170.196
 296  244.468
 297  183.5579
 298  216.2663
 299  275.321
 300  349.7911
 301  242.7143
 302  119.2692
 303  142.7036
 304  169.4318
 305  178.927
 306  288.1591
 307  287.496
 308  253.0455
 309  248.3721
 310  297.5297
 311  246.2313
 312  319.784
 313  274.5418
 314  270.7359
 315  279.202
 316  202.3535
 317  136.6257
 318  149.7045
 319  76.0037
 320  108.0042
 321  110.2006
 322  247.6995
 323  208.9243
 324  112.0053
 325  176.7183
 326  103.1212
 327  136.6316
 328  296.0002
 329  271.2621
 330  324.1677
 331  337.7966
 332  334.7029
 333  327.0982
 334  167.9102
 335  123.5568
 336  152.1414
 337  177.4945
 338  196.1092
 339  209.7323
 340  147.1192
 341  97.39502
 342  194.1282
 343  213.4389
 344  261.9403
 345  103.1279
 346  56.45425
 347  204.6411
 348  189.4933
 349  76.32128
 350  153.1911
 351  243.4097
 352  249.1081
 353  250.2334
 354  260.6781
 355  255.2611
 356  298.6232
 357  311.5871
 358  285.0111
 359  171.5733
 360  71.738
 361  172.2039
 362  34.41437
 363  55.87411
 364  179.8866
 365  256.3984
 366  265.7458
 367  298.8365
 368  303.4543
 369  202.7576
 370  23.17573
 371  70.98832
 372  135.1199
 373  191.0548
 374  160.1585
 375  88.60496
 376  125.3153
 377  201.5924
 378  144.5018
 379  173.4936
 380  159.2364
 381  246.4768
 382  114.5877
 383  67.65672
 384  245.5355
 385  305.9172
 386  334.4562
 387  158.9182
 388  59.46773
 389  256.9031
 390  377.3381
 391  209.3545
 392  220.8578
 393  191.2699
 394  304.6607
 395  369.892
 396  375.7058
 397  377.9893
 398  308.5208
 399  373.0063
 400  291.3004
 401  225.5597
 402  185.5215
 403  270.9845
 404  247.1114
 405  207.1051
 406  268.1067
 407  292.5188
 408  234.658
 409  166.2639
 410  273.1696
 411  214.6528
 412  259.1199
 413  204.8611
 414  93.63959
 415  108.8031
 416  185.6281
 417  197.1241
 418  333.6198
 419  247.6163
 420  150.6381
 421  168.6747
 422  129.3381
 423  250.9547
 424  140.8146
 425  32.58443
 426  231.0156
 427  205.4786
 428  185.7198
 429  163.1985
 430  157.8037
 431  183.6757
 432  266.8334
 433  141.7362
 434  175.1844
 435  197.7909
 436  330.249
 437  259.6509
 438  207.618
 439  259.024
 440  217.4333
 441  225.9069
 442  158.7619
 443  63.80566
 444  106.6118
 445  138.435
 446  108.7239
 447  196.3827
 448  191.9306
 449  179.1579
 450  79.56419
 451  -18.25278
 452  67.72011
 453  98.98213
 454  213.9098
 455  98.52229
 456  60.31384
 457  201.798
 458  224.5789
 459  86.37434
 460  56.8833
 461  148.4966
 462  151.0646
 463  185.4212
 464  81.82945
 465  92.4842
 466  93.67493
 467  127.6805
 468  111.1361
 469  151.0616
 470  60.02763
 471  92.51257
 472  133.4254
 473  145.7321
 474  129.7064
 475  96.32653
 476  132.9698
 477  217.5866
 478  170.4525
 479  49.93293
 480  70.85992
 481  95.23795
 482  81.12925
 483  227.4467
 484  262.1855
 485  152.1294
 486  60.19606
 487  142.9584
 488  174.066
 489  252.4811
 490  377.8915
 491  352.8303
 492  214.2426
 493  128.9648
 494  192.6218
 495  247.3885
 496  198.8911
 497  98.02935
 498  65.18555
 499  164.9846
 500  205.6772
 501  123.9997
 502  79.46045
 503  162.9224
 504  148.548
 505  325.1783
 506  266.0882
 507  257.8658
 508  169.3679
 509  167.0769
 510  149.8292
 511  209.0835
