# Input file       =  1192830597.138417_cleaned.dat
# Candidate        =  PSR_0332+5434
# Telescope        =  AR
# Epoch_topo       =  58049.909909009453
# Epoch_bary       =  N/A
# T_sample         =  0.002
# Data Folded      =  7340032
# Data Avg         =  0.0463765401925359
# Data StdDev      =  2.36168998514396 
# Profile Bins     =  512
# Profile Avg      =  664.755312811618 
# Profile StdDev   =  282.772312901886 
# Reduced chi-sqr  =  1.326
# Prob(Noise)      <  1.03e-06   (~4.7 sigma)
# P_topo (ms)      =  714.488590775551  +/- 0.000215
# P'_topo (s/s)    =  -0                +/- 1.13e-10
# P''_topo (s/s^2) =  0                 +/- 5.01e-14
# P_bary (ms)      =  N/A
# P'_bary (s/s)    =  N/A
# P''_bary (s/s^2) =  N/A
# P_orb (s)        =  N/A
# asin(i)/c (s)    =  N/A
# eccentricity     =  N/A
# w (rad)          =  N/A
# T_peri           =  N/A
######################################################
   0  310.2021
   1  321.8443
   2  524.4528
   3  657.4241
   4  785.9321
   5  802.0656
   6  453.3478
   7  498.0951
   8  491.8708
   9  484.9441
  10  645.0261
  11  691.5319
  12  404.674
  13  569.4212
  14  724.3289
  15  594.5226
  16  669.2872
  17  640.0193
  18  585.79
  19  752.9278
  20  660.1696
  21  692.7398
  22  610.1196
  23  480.3101
  24  783.2527
  25  1157.474
  26  1131.266
  27  734.8357
  28  574.2047
  29  789.82
  30  729.508
  31  678.9003
  32  739.7964
  33  701.9935
  34  661.8873
  35  541.0867
  36  310.4111
  37  556.6577
  38  294.8673
  39  238.6495
  40  177.8644
  41  61.60651
  42  377.6103
  43  479.1984
  44  235.7855
  45  565.4688
  46  940.1011
  47  1031.368
  48  779.6852
  49  783.9636
  50  747.228
  51  834.5413
  52  538.9501
  53  737.3671
  54  812.993
  55  551.5905
  56  640.8433
  57  791.1432
  58  978.3635
  59  905.9838
  60  777.3628
  61  717.9642
  62  874.6678
  63  634.5338
  64  527.7272
  65  622.1666
  66  644.9229
  67  826.1328
  68  847.6392
  69  562.989
  70  787.9478
  71  734.7701
  72  880.2435
  73  564.8796
  74  1084.376
  75  1697.731
  76  2102.142
  77  2368.272
  78  2060.842
  79  1839.828
  80  1554.666
  81  980.7258
  82  455.727
  83  473.4302
  84  694.7324
  85  695.2884
  86  331.5131
  87  323.2032
  88  308.853
  89  303.3241
  90  427.7284
  91  863.337
  92  731.8944
  93  636.2102
  94  443.7052
  95  711.946
  96  883.9006
  97  591.3592
  98  393.5542
  99  434.4133
 100  596.8406
 101  463.9288
 102  441.1669
 103  510.4956
 104  460.0939
 105  602.4915
 106  571.1744
 107  404.8342
 108  275.3988
 109  527.8984
 110  648.468
 111  796.8828
 112  717.0128
 113  504.6491
 114  621.6099
 115  532.6534
 116  457.3759
 117  576.6313
 118  563.4677
 119  647.3549
 120  384.8167
 121  693.8414
 122  598.3642
 123  371.2041
 124  688.7874
 125  956.8166
 126  794.2089
 127  906.1893
 128  652.1669
 129  648.7063
 130  434.5307
 131  819.0032
 132  1003.441
 133  708.687
 134  349.9474
 135  446.9276
 136  588.0673
 137  693.6064
 138  619.9288
 139  399.4113
 140  422.7929
 141  661.8047
 142  726.1135
 143  703.1751
 144  785.649
 145  863.9811
 146  793.4915
 147  555.4863
 148  662.7648
 149  486.249
 150  473.7723
 151  567.7789
 152  833.4617
 153  721.0235
 154  701.8663
 155  675.8369
 156  480.2006
 157  490.2708
 158  637.6764
 159  622.1821
 160  636.614
 161  679.2629
 162  852.3538
 163  703.3764
 164  498.2293
 165  255.6621
 166  593.0651
 167  625.0834
 168  342.9588
 169  248.4721
 170  404.0546
 171  403.1841
 172  518.1984
 173  788.9212
 174  615.017
 175  660.1306
 176  550.9565
 177  488.7265
 178  752.9583
 179  915.4647
 180  749.8977
 181  545.5156
 182  434.2379
 183  435.4986
 184  121.4959
 185  386.6298
 186  593.4426
 187  686.785
 188  719.2842
 189  645.723
 190  743.9771
 191  720.2408
 192  578.4384
 193  765.6624
 194  978.056
 195  977.2921
 196  643.9086
 197  499.0567
 198  734.5333
 199  926.6986
 200  732.317
 201  591.9471
 202  587.2001
 203  706.4891
 204  842.3936
 205  689.6278
 206  582.9711
 207  766.7166
 208  595.9384
 209  544.9025
 210  459.7572
 211  619.537
 212  754.6803
 213  688.5748
 214  464.1317
 215  522.6835
 216  694.9669
 217  590.9879
 218  906.9554
 219  852.1679
 220  620.0778
 221  576.9332
 222  502.6461
 223  645.8056
 224  570.3903
 225  592.4181
 226  290.0771
 227  758.4387
 228  988.2232
 229  621.1179
 230  601.3841
 231  544.5414
 232  496.599
 233  578.2918
 234  523.97
 235  746.6548
 236  801.4003
 237  837.4131
 238  592.4786
 239  590.8561
 240  718.9249
 241  770.9397
 242  963.7207
 243  1078.915
 244  755.9825
 245  702.8276
 246  706.0848
 247  605.09
 248  749.5534
 249  679.6942
 250  680.2139
 251  735.3952
 252  836.6031
 253  855.8407
 254  901.0007
 255  884.2944
 256  693.6475
 257  809.8259
 258  943.9014
 259  782.9653
 260  978.1404
 261  1072.524
 262  965.7023
 263  705.6458
 264  511.0617
 265  573.8256
 266  889.2508
 267  789.0359
 268  607.3498
 269  820.0276
 270  811.276
 271  766.2203
 272  888.6775
 273  735.0197
 274  830.7922
 275  738.6797
 276  749.976
 277  809.4532
 278  759.9685
 279  497.5424
 280  502.9432
 281  800.4552
 282  716.3832
 283  931.7747
 284  670.3755
 285  606.2042
 286  458.2897
 287  428.9191
 288  616.2499
 289  658.8403
 290  1002.578
 291  805.8564
 292  532.1401
 293  729.612
 294  400.586
 295  774.4509
 296  1224.045
 297  1014.51
 298  834.34
 299  840.384
 300  837.4441
 301  827.794
 302  870.1437
 303  984.5356
 304  911.6486
 305  688.3336
 306  745.1331
 307  662.7835
 308  515.0723
 309  518.6873
 310  321.3264
 311  628.2402
 312  834.233
 313  656.7951
 314  598.2477
 315  329.9733
 316  656.1282
 317  431.0305
 318  675.4591
 319  698.5904
 320  1103.544
 321  919.2198
 322  775.7493
 323  763.2402
 324  740.8285
 325  721.6524
 326  917.5289
 327  745.3001
 328  603.7576
 329  600.0024
 330  618.0969
 331  380.1714
 332  560.9286
 333  703.8405
 334  1006.278
 335  1035.835
 336  828.6139
 337  621.5692
 338  565.756
 339  397.9503
 340  347.8211
 341  399.5722
 342  455.7104
 343  666.8672
 344  446.4669
 345  556.1654
 346  798.2282
 347  772.2745
 348  528.5956
 349  656.0942
 350  743.9974
 351  1062.495
 352  874.5285
 353  847.5637
 354  1092.309
 355  599.1508
 356  816.6081
 357  769.5809
 358  602.5372
 359  911.7784
 360  770.8102
 361  564.9527
 362  353.0237
 363  455.0453
 364  487.8397
 365  570.3684
 366  552.7504
 367  433.1571
 368  674.168
 369  943.4927
 370  803.254
 371  614.7267
 372  683.5793
 373  938.2042
 374  657.8898
 375  757.0054
 376  976.74
 377  730.2916
 378  636.7322
 379  663.9493
 380  711.4548
 381  610.3414
 382  585.7717
 383  836.635
 384  817.0253
 385  726.6605
 386  802.6817
 387  726.1115
 388  803.6101
 389  567.4102
 390  432.5708
 391  158.7967
 392  623.1893
 393  641.8223
 394  634.8659
 395  616.7061
 396  662.2124
 397  776.7833
 398  403.0982
 399  363.0781
 400  892.4388
 401  1178.173
 402  1086.964
 403  424.3611
 404  505.578
 405  542.4888
 406  527.3751
 407  314.1798
 408  717.7463
 409  978.736
 410  917.6848
 411  794.6005
 412  640.4056
 413  894.2235
 414  939.0328
 415  606.4456
 416  484.2036
 417  1061.067
 418  1053.748
 419  573.2834
 420  723.4548
 421  695.1623
 422  402.5443
 423  619.335
 424  534.604
 425  615.712
 426  734.848
 427  479.7874
 428  686.3681
 429  636.9531
 430  496.6425
 431  663.9629
 432  705.1124
 433  772.0313
 434  919.2422
 435  653.1785
 436  536.0697
 437  707.0278
 438  647.832
 439  637.2944
 440  676.7874
 441  802.2799
 442  544.6158
 443  432.4118
 444  540.507
 445  845.4828
 446  805.9171
 447  838.4718
 448  495.7629
 449  624.9595
 450  901.7695
 451  584.4662
 452  623.0727
 453  593.4213
 454  228.6146
 455  249.375
 456  393.6066
 457  346.8618
 458  479.3846
 459  633.8349
 460  763.093
 461  813.6023
 462  561.0996
 463  741.3583
 464  778.5543
 465  806.1078
 466  836.9231
 467  549.5756
 468  512.2565
 469  574.9467
 470  663.9374
 471  465.7771
 472  643.6847
 473  892.4713
 474  766.0412
 475  691.2112
 476  558.1039
 477  389.1745
 478  515.4217
 479  645.6035
 480  617.1173
 481  438.3705
 482  406.1375
 483  532.8414
 484  596.6799
 485  615.2762
 486  223.6977
 487  518.561
 488  714.155
 489  548.0547
 490  449.9639
 491  301.9037
 492  101.1998
 493  240.2139
 494  443.1144
 495  637.3378
 496  769.1759
 497  603.3227
 498  659.4566
 499  561.6047
 500  469.6
 501  581.7947
 502  780.788
 503  760.8423
 504  565.3305
 505  248.345
 506  679.0449
 507  527.3649
 508  405.6535
 509  356.2955
 510  483.9341
 511  401.6079
