# Input file       =  1192471422.139069_cleaned.dat
# Candidate        =  PSR_0332+5434
# Telescope        =  AR
# Epoch_topo       =  58045.752790961451
# Epoch_bary       =  N/A
# T_sample         =  0.002
# Data Folded      =  7143424
# Data Avg         =  0.0495138658827958
# Data StdDev      =  2.61990556964437 
# Profile Bins     =  512
# Profile Avg      =  690.8156694175   
# Profile StdDev   =  309.459537362553 
# Reduced chi-sqr  =  1.291
# Prob(Noise)      <  9.13e-06   (~4.3 sigma)
# P_topo (ms)      =  714.485169895326  +/- 0.000243
# P'_topo (s/s)    =  -0                +/- 1.32e-10
# P''_topo (s/s^2) =  0                 +/- 5.99e-14
# P_bary (ms)      =  N/A
# P'_bary (s/s)    =  N/A
# P''_bary (s/s^2) =  N/A
# P_orb (s)        =  N/A
# asin(i)/c (s)    =  N/A
# eccentricity     =  N/A
# w (rad)          =  N/A
# T_peri           =  N/A
######################################################
   0  804.4727
   1  998.0093
   2  955.7148
   3  978.7531
   4  772.6298
   5  686.913
   6  702.6213
   7  538.9099
   8  679.8049
   9  739.2827
  10  686.3831
  11  925.2117
  12  839.1955
  13  679.3099
  14  504.1142
  15  570.5151
  16  679.6685
  17  650.1396
  18  1024.244
  19  1078.569
  20  1030.578
  21  1046.575
  22  824.9924
  23  837.4146
  24  522.9429
  25  511.9523
  26  812.7673
  27  568.865
  28  652.381
  29  670.2484
  30  671.915
  31  615.8012
  32  717.9207
  33  835.5041
  34  816.8302
  35  800.7003
  36  900.5043
  37  883.9432
  38  571.0986
  39  336.7876
  40  417.8696
  41  664.9637
  42  616.048
  43  1081.746
  44  881.4417
  45  760.8996
  46  827.2095
  47  706.9509
  48  881.4203
  49  731.0615
  50  502.7722
  51  800.7288
  52  503.9147
  53  592.9627
  54  851.1262
  55  730.3555
  56  361.6111
  57  567.1021
  58  1035.453
  59  781.9606
  60  404.3274
  61  453.5764
  62  425.0414
  63  476.4103
  64  609.1357
  65  624.8412
  66  750.8857
  67  810.9971
  68  401.8678
  69  375.6165
  70  520.6837
  71  660.9926
  72  761.5471
  73  604.8949
  74  695.5955
  75  769.2903
  76  195.3014
  77  300.314
  78  519.4905
  79  592.9333
  80  639.1871
  81  515.6371
  82  744.7171
  83  599.4922
  84  568.8276
  85  518.6406
  86  400.634
  87  300.5878
  88  509.9023
  89  610.7286
  90  660.0748
  91  566.5059
  92  659.4103
  93  849.4866
  94  637.4073
  95  820.8718
  96  824.2667
  97  789.8334
  98  811.4927
  99  845.8935
 100  856.7711
 101  447.679
 102  801.3785
 103  856.8136
 104  626.1755
 105  478.3296
 106  631.3234
 107  580.3724
 108  477.0807
 109  462.1487
 110  435.6779
 111  230.5593
 112  592.2401
 113  546.6857
 114  458.8617
 115  540.8843
 116  432.7697
 117  394.4168
 118  347.0361
 119  544.0337
 120  872.4792
 121  799.1185
 122  505.3073
 123  686.2177
 124  407.8669
 125  400.1172
 126  698.7898
 127  715.2
 128  807.5903
 129  593.3339
 130  891.3867
 131  807.3572
 132  455.0848
 133  283.2232
 134  320.2635
 135  382.3698
 136  645.5302
 137  600.282
 138  471.5477
 139  542.437
 140  509.8197
 141  465.8154
 142  429.2448
 143  517.8969
 144  645.8759
 145  712.009
 146  932.9311
 147  1034.697
 148  665.8812
 149  613.8306
 150  676.1183
 151  913.8887
 152  751.307
 153  428.9571
 154  469.8667
 155  569.4724
 156  626.8896
 157  491.5435
 158  707.1019
 159  584.9676
 160  469.7567
 161  425.2257
 162  983.4639
 163  1040.451
 164  601.0331
 165  618.0089
 166  731.3135
 167  932.91
 168  915.6913
 169  911.6708
 170  637.4147
 171  394.5048
 172  637.9542
 173  879.2001
 174  956.702
 175  895.4641
 176  677.9092
 177  773.5201
 178  625.5424
 179  751.4609
 180  703.8829
 181  829.5138
 182  957.7288
 183  927.4305
 184  886.6021
 185  925.3649
 186  1323.374
 187  1274.866
 188  1277.163
 189  1133.306
 190  1703.076
 191  2286.33
 192  2518.094
 193  2718.551
 194  2130.794
 195  1651.174
 196  1145.04
 197  935.4993
 198  899.6656
 199  446.8977
 200  462.5237
 201  551.884
 202  623.5601
 203  646.3624
 204  619.3051
 205  818.033
 206  938.6101
 207  1025.7
 208  895.5021
 209  796.9373
 210  592.7758
 211  536.9303
 212  486.4877
 213  631.164
 214  622.4451
 215  379.6528
 216  499.0824
 217  545.6544
 218  595.349
 219  642.948
 220  598.9345
 221  667.4012
 222  307.8242
 223  677.3328
 224  779.1552
 225  385.3976
 226  290.6355
 227  473.1638
 228  533.6959
 229  584.8295
 230  759.6648
 231  699.212
 232  764.9175
 233  643.5313
 234  483.644
 235  557.2585
 236  542.2971
 237  630.7363
 238  679.1566
 239  686.5584
 240  847.4785
 241  724.6288
 242  725.6765
 243  819.9238
 244  504.0025
 245  588.1727
 246  1077.97
 247  636.4578
 248  489.7762
 249  699.5787
 250  937.8763
 251  813.0325
 252  759.5902
 253  568.5848
 254  495.2293
 255  752.5306
 256  530.722
 257  475.668
 258  627.7007
 259  617.9337
 260  676.4189
 261  381.359
 262  283.6425
 263  396.4312
 264  730.1548
 265  513.0143
 266  723.3577
 267  609.6572
 268  599.8413
 269  609.0063
 270  692.6876
 271  630.6166
 272  489.3912
 273  278.9628
 274  609.0728
 275  526.9812
 276  661.0017
 277  863.9916
 278  638.6129
 279  803.793
 280  1118.253
 281  652.1345
 282  720.4761
 283  705.0637
 284  546.4395
 285  313.4835
 286  412.6331
 287  604.8492
 288  515.0132
 289  463.3376
 290  467.4579
 291  761.9883
 292  594.946
 293  472.9951
 294  615.8923
 295  490.9489
 296  404.1139
 297  476.4756
 298  679.6403
 299  651.5179
 300  674.3892
 301  556.8447
 302  551.2712
 303  633.801
 304  686.094
 305  871.7957
 306  699.6885
 307  656.7687
 308  591.2906
 309  239.3878
 310  282.6102
 311  430.9838
 312  534.392
 313  576.5292
 314  723.4495
 315  579.6147
 316  493.9809
 317  370.2913
 318  181.8436
 319  367.9702
 320  534.7704
 321  704.6956
 322  715.8711
 323  627.9503
 324  748.3349
 325  471.679
 326  682.0477
 327  787.5908
 328  762.025
 329  661.7794
 330  392.4534
 331  836.3204
 332  1062.301
 333  1025.359
 334  803.0912
 335  775.2044
 336  668.2171
 337  712.8353
 338  1031.013
 339  415.7409
 340  505.6067
 341  761.1155
 342  902.2502
 343  705.2774
 344  520.95
 345  742.0681
 346  768.8494
 347  669.4854
 348  651.2166
 349  682.7379
 350  695.9589
 351  869.038
 352  730.4677
 353  764.5573
 354  731.6279
 355  749.5217
 356  910.023
 357  398.3236
 358  507.2787
 359  669.1276
 360  630.7315
 361  506.3998
 362  654.2061
 363  614.2329
 364  756.1985
 365  805.3107
 366  701.407
 367  502.0472
 368  434.6701
 369  497.8765
 370  581.4846
 371  540.3401
 372  658.319
 373  786.6132
 374  688.1667
 375  624.7513
 376  387.4229
 377  526.9121
 378  541.3874
 379  831.4412
 380  555.0609
 381  555.0582
 382  515.1874
 383  471.4252
 384  967.3333
 385  1034.933
 386  755.8796
 387  335.5874
 388  371.893
 389  573.0095
 390  616.7682
 391  689.1485
 392  910.8925
 393  704.003
 394  1015.808
 395  1061.835
 396  708.4572
 397  761.7628
 398  995.0306
 399  1001.037
 400  1060.942
 401  858.4883
 402  458.1601
 403  485.9471
 404  732.3317
 405  858.5597
 406  736.1926
 407  949.5657
 408  986.8684
 409  897.8141
 410  722.4808
 411  827.5743
 412  898.5876
 413  688.9291
 414  554.3056
 415  757.2444
 416  743.3796
 417  790.2927
 418  1057.229
 419  867.9834
 420  782.063
 421  556.621
 422  776.7502
 423  752.8757
 424  515.7827
 425  783.3132
 426  852.0446
 427  1009.645
 428  794.1428
 429  709.0976
 430  953.7348
 431  1024.485
 432  1219.271
 433  1025.387
 434  714.7625
 435  407.9438
 436  430.6478
 437  728.4334
 438  671.9036
 439  710.1998
 440  819.4635
 441  682.2548
 442  519.9351
 443  520.9837
 444  700.7997
 445  680.9563
 446  843.531
 447  479.4549
 448  245.924
 449  728.6849
 450  385.8879
 451  578.3528
 452  492.55
 453  531.3812
 454  613.3708
 455  824.3401
 456  866.2434
 457  385.4556
 458  322.3859
 459  675.2864
 460  601.6896
 461  671.0417
 462  788.8926
 463  904.9597
 464  984.5816
 465  794.9231
 466  906.3018
 467  777.2686
 468  386.0041
 469  697.1011
 470  646.5589
 471  659.7582
 472  793.4044
 473  668.7771
 474  798.5131
 475  751.7778
 476  832.0314
 477  810.515
 478  638.967
 479  447.8528
 480  354.6668
 481  724.2328
 482  878.2081
 483  758.9512
 484  1269.901
 485  1283.401
 486  931.7697
 487  855.0192
 488  858.9723
 489  650.5721
 490  589.3689
 491  533.7025
 492  717.4126
 493  748.1933
 494  603.1292
 495  581.8179
 496  790.1152
 497  665.7879
 498  704.4058
 499  810.775
 500  772.9697
 501  644.8964
 502  623.7141
 503  837.4696
 504  728.4649
 505  615.1111
 506  424.791
 507  521.3826
 508  612.1064
 509  369.2234
 510  745.5343
 511  861.6569
