# Input file       =  1192587082.133473_cleaned.dat
# Candidate        =  PSR_0332+5434
# Telescope        =  AR
# Epoch_topo       =  58047.091448304083
# Epoch_bary       =  N/A
# T_sample         =  0.002
# Data Folded      =  7340032
# Data Avg         =  0.0453665388849913
# Data StdDev      =  2.50487576456294 
# Profile Bins     =  512
# Profile Avg      =  650.293950175469 
# Profile StdDev   =  299.916381037695 
# Reduced chi-sqr  =  1.514
# Prob(Noise)      <  4.49e-13   (~7.1 sigma)
# P_topo (ms)      =  714.48659286185   +/- 0.000189
# P'_topo (s/s)    =  -0                +/- 9.97e-11
# P''_topo (s/s^2) =  0                 +/- 4.4e-14
# P_bary (ms)      =  N/A
# P'_bary (s/s)    =  N/A
# P''_bary (s/s^2) =  N/A
# P_orb (s)        =  N/A
# asin(i)/c (s)    =  N/A
# eccentricity     =  N/A
# w (rad)          =  N/A
# T_peri           =  N/A
######################################################
   0  842.199
   1  808.2267
   2  716.2187
   3  854.1771
   4  697.2532
   5  938.7395
   6  1173.514
   7  1022.939
   8  905.8506
   9  760.9602
  10  557.6579
  11  570.4911
  12  480.8688
  13  494.6166
  14  582.1422
  15  855.5421
  16  951.6322
  17  966.9709
  18  634.3841
  19  760.1997
  20  701.5586
  21  604.7902
  22  700.0592
  23  979.9671
  24  1084.646
  25  779.9955
  26  521.8623
  27  754.1674
  28  918.7996
  29  1085.477
  30  965.77
  31  1012.782
  32  812.7362
  33  690.4425
  34  591.2376
  35  662.8726
  36  829.3479
  37  674.2238
  38  292.0276
  39  256.8637
  40  410.2938
  41  539.1394
  42  571.1777
  43  780.2728
  44  639.9299
  45  307.8874
  46  382.145
  47  553.2239
  48  449.2731
  49  450.0859
  50  399.9339
  51  764.9018
  52  591.0663
  53  346.5613
  54  169.7218
  55  244.0028
  56  160.4265
  57  632.0804
  58  1001.844
  59  577.5555
  60  515.5214
  61  545.3848
  62  724.4509
  63  857.1245
  64  924.9001
  65  924.6334
  66  933.1913
  67  716.7118
  68  639.3657
  69  573.1276
  70  752.776
  71  633.2661
  72  483.4002
  73  794.3415
  74  664.7916
  75  467.2751
  76  596.5772
  77  423.4794
  78  424.5604
  79  554.3027
  80  657.3188
  81  867.4257
  82  974.3931
  83  840.9888
  84  831.2889
  85  787.9995
  86  710.5131
  87  766.705
  88  740.3347
  89  675.3932
  90  717.0098
  91  650.7414
  92  382.4412
  93  168.8499
  94  384.2483
  95  427.0313
  96  654.2825
  97  546.9421
  98  644.3759
  99  672.5974
 100  699.4504
 101  569.7661
 102  774.2345
 103  833.2188
 104  648.2286
 105  925.0834
 106  682.3071
 107  522.6763
 108  432.8322
 109  535.0814
 110  749.8166
 111  555.8788
 112  597.9783
 113  382.2837
 114  329.1424
 115  710.71
 116  757.6498
 117  965.6397
 118  957.0266
 119  813.2797
 120  868.8697
 121  761.7416
 122  993.1146
 123  867.579
 124  745.8062
 125  648.5486
 126  508.4473
 127  346.9401
 128  514.0833
 129  742.7969
 130  974.1547
 131  799.4668
 132  925.2757
 133  603.7994
 134  364.1974
 135  640.7038
 136  705.1426
 137  540.8949
 138  615.8039
 139  560.665
 140  407.884
 141  582.415
 142  564.1125
 143  292.2607
 144  577.2611
 145  496.7466
 146  498.0068
 147  389.6472
 148  602.9407
 149  706.5187
 150  547.8359
 151  581.2015
 152  749.9892
 153  713.9764
 154  788.9274
 155  847.1912
 156  597.3868
 157  911.7458
 158  972.4737
 159  945.8197
 160  1100.916
 161  922.546
 162  743.773
 163  907.8703
 164  693.5206
 165  785.6857
 166  680.7156
 167  753.79
 168  608.5035
 169  834.7198
 170  911.677
 171  614.4796
 172  629.3558
 173  980.7646
 174  810.666
 175  767.4546
 176  829.3784
 177  432.7811
 178  492.7241
 179  256.1278
 180  665.1151
 181  948.6058
 182  849.5191
 183  527.1578
 184  637.8099
 185  697.5526
 186  633.9377
 187  557.2999
 188  367.3141
 189  313.1361
 190  526.0986
 191  510.1266
 192  763.476
 193  698.7995
 194  561.7104
 195  625.4539
 196  931.5764
 197  831.4382
 198  287.0483
 199  309.4264
 200  445.4726
 201  528.9737
 202  760.7286
 203  516.0071
 204  562.2802
 205  666.8326
 206  518.8569
 207  526.7454
 208  681.3766
 209  900.0974
 210  960.4384
 211  969.5817
 212  697.2292
 213  807.2242
 214  928.5505
 215  912.0241
 216  567.0289
 217  415.7157
 218  429.7014
 219  617.5964
 220  648.0894
 221  278.0997
 222  495.6471
 223  619.3383
 224  763.121
 225  799.5824
 226  797.749
 227  607.8771
 228  745.8292
 229  635.0665
 230  561.5076
 231  1037.873
 232  1117.64
 233  1278.871
 234  1178.733
 235  1015.599
 236  1228.058
 237  974.809
 238  838.3665
 239  812.2626
 240  724.9756
 241  456.4589
 242  329.7637
 243  183.0971
 244  290.7503
 245  465.1401
 246  509.7425
 247  763.1694
 248  657.083
 249  666.878
 250  568.576
 251  333.4012
 252  265.271
 253  591.4821
 254  635.4522
 255  653.9096
 256  724.7621
 257  861.689
 258  670.1459
 259  541.4004
 260  231.979
 261  346.9187
 262  462.8987
 263  531.1259
 264  549.1736
 265  503.5758
 266  571.7819
 267  666.0894
 268  801.8565
 269  627.6031
 270  390.7272
 271  640.1696
 272  712.1055
 273  762.329
 274  910.5591
 275  753.9462
 276  745.4654
 277  582.6324
 278  595.4415
 279  475.6725
 280  411.4366
 281  561.9444
 282  242.36
 283  536.4226
 284  352.3913
 285  251.1173
 286  282.7363
 287  569.8918
 288  640.2777
 289  678.2485
 290  1007.258
 291  746.8201
 292  540.9843
 293  546.5641
 294  416.489
 295  494.1829
 296  456.7877
 297  231.7242
 298  162.909
 299  596.4838
 300  730.2464
 301  470.7447
 302  532.2728
 303  617.6979
 304  724.7721
 305  783.2568
 306  720.0779
 307  517.1484
 308  394.4221
 309  791.2467
 310  1135.767
 311  1058.194
 312  1078.267
 313  851.952
 314  971.1414
 315  1536.053
 316  2074.727
 317  2531.228
 318  2593.823
 319  2321.192
 320  1820.195
 321  1255.594
 322  768.7904
 323  722.2604
 324  674.8607
 325  939.2296
 326  910.1434
 327  686.9564
 328  473.2403
 329  505.637
 330  497.6307
 331  723.3757
 332  742.2754
 333  926.6725
 334  1011.706
 335  680.3593
 336  581.1917
 337  332.9001
 338  191.7682
 339  462.8552
 340  298.236
 341  457.5784
 342  788.6311
 343  443.7316
 344  464.7185
 345  361.9079
 346  309.2482
 347  697.2748
 348  932.9598
 349  601.2009
 350  647.8036
 351  557.7809
 352  254.6987
 353  166.9686
 354  468.2379
 355  589.4267
 356  350.2227
 357  710.2712
 358  712.1498
 359  402.82
 360  301.202
 361  303.9667
 362  501.9893
 363  445.2704
 364  496.7661
 365  617.5551
 366  680.3971
 367  524.5698
 368  630.1605
 369  476.6801
 370  696.7309
 371  536.3161
 372  402.2763
 373  307.3966
 374  852.5797
 375  507.1908
 376  570.4129
 377  428.8959
 378  248.9874
 379  523.2319
 380  570.8683
 381  765.0421
 382  684.072
 383  522.499
 384  696.184
 385  459.687
 386  343.0731
 387  626.099
 388  552.7189
 389  643.452
 390  531.9383
 391  408.664
 392  596.63
 393  699.4031
 394  534.9143
 395  484.9317
 396  602.4689
 397  648.1974
 398  751.8102
 399  657.6995
 400  872.1589
 401  920.9541
 402  852.4423
 403  838.6671
 404  556.5945
 405  563.0373
 406  496.033
 407  264.6097
 408  584.96
 409  598.6654
 410  471.2276
 411  637.5853
 412  762.8065
 413  403.0423
 414  471.7333
 415  465.2484
 416  69.23106
 417  295.0276
 418  658.529
 419  526.2754
 420  479.3121
 421  257.5835
 422  377.0015
 423  233.3324
 424  719.8132
 425  895.9805
 426  692.6251
 427  574.2036
 428  856.5958
 429  709.4444
 430  440.4701
 431  436.1379
 432  438.8874
 433  572.8826
 434  841.0083
 435  330.3376
 436  431.7208
 437  748.0067
 438  699.9537
 439  454.0798
 440  667.5974
 441  466.2155
 442  323.671
 443  511.9073
 444  385.9756
 445  412.4242
 446  483.7637
 447  498.7741
 448  663.6105
 449  864.9604
 450  748.8105
 451  298.1524
 452  489.416
 453  594.6425
 454  469.4028
 455  698.4103
 456  668.9025
 457  426.5511
 458  800.3966
 459  634.4254
 460  545.5541
 461  862.1965
 462  520.02
 463  451.3989
 464  652.824
 465  904.1927
 466  836.7839
 467  1088.556
 468  958.822
 469  856.2297
 470  969.3542
 471  749.5826
 472  705.9785
 473  578.5189
 474  605.5741
 475  647.6547
 476  342.351
 477  404.2162
 478  626.6273
 479  941.5957
 480  961.0312
 481  589.5587
 482  766.0753
 483  929.1765
 484  733.0373
 485  357.3134
 486  384.1643
 487  564.6165
 488  657.0059
 489  681.7892
 490  624.1844
 491  395.7404
 492  424.6346
 493  475.1746
 494  489.5714
 495  707.8683
 496  576.2643
 497  352.1819
 498  525.9977
 499  700.2098
 500  723.2612
 501  722.5325
 502  740.1164
 503  561.1561
 504  688.8311
 505  485.7247
 506  348.6348
 507  531.8917
 508  963.7459
 509  761.6096
 510  700.7215
 511  592.4532
