# Input file       =  1192816011.146538_cleaned.dat
# Candidate        =  PSR_0332+5434
# Telescope        =  AR
# Epoch_topo       =  58049.741089659008
# Epoch_bary       =  N/A
# T_sample         =  0.002
# Data Folded      =  7143424
# Data Avg         =  0.111888325492288
# Data StdDev      =  3.13487629656003 
# Profile Bins     =  1024
# Profile Avg      =  780.489987061419 
# Profile StdDev   =  261.832555228841 
# Reduced chi-sqr  =  0.959
# Prob(Noise)      <  0.826   (~0.0 sigma)
# P_topo (ms)      =  714.488437803043  +/- 0.000119
# P'_topo (s/s)    =  -0                +/- 6.43e-11
# P''_topo (s/s^2) =  0                 +/- 2.92e-14
# P_bary (ms)      =  N/A
# P'_bary (s/s)    =  N/A
# P''_bary (s/s^2) =  N/A
# P_orb (s)        =  N/A
# asin(i)/c (s)    =  N/A
# eccentricity     =  N/A
# w (rad)          =  N/A
# T_peri           =  N/A
######################################################
   0  732.6927
   1  705.8752
   2  730.8818
   3  808.6904
   4  911.2409
   5  995.7653
   6  889.5139
   7  816.2109
   8  765.137
   9  836.9648
  10  734.8287
  11  665.756
  12  583.9232
  13  691.8923
  14  688.5895
  15  681.0551
  16  647.6938
  17  698.1332
  18  677.2409
  19  667.4081
  20  649.848
  21  661.2157
  22  739.3531
  23  792.0886
  24  757.1607
  25  608.7064
  26  537.0401
  27  651.6403
  28  695.5793
  29  747.0052
  30  776.4106
  31  945.3903
  32  932.4049
  33  839.4543
  34  780.4412
  35  958.4364
  36  1008.829
  37  966.0157
  38  874.5662
  39  777.8226
  40  840.5542
  41  885.9225
  42  1020.45
  43  1008.644
  44  992.2629
  45  910.8932
  46  923.3282
  47  841.4271
  48  745.2189
  49  716.0406
  50  803.2786
  51  846.9221
  52  791.6658
  53  786.6459
  54  804.1951
  55  807.9661
  56  871.9827
  57  819.2245
  58  703.2022
  59  512.0588
  60  576.0574
  61  678.2035
  62  691.0983
  63  726.7243
  64  740.0282
  65  731.9575
  66  717.183
  67  711.858
  68  722.4025
  69  629.7814
  70  591.1432
  71  576.1816
  72  592.6271
  73  634.9008
  74  674.0092
  75  774.7292
  76  854.1436
  77  828.1758
  78  860.673
  79  775.1624
  80  758.5095
  81  694.8366
  82  786.1699
  83  832.3422
  84  625.9547
  85  577.8685
  86  645.1475
  87  800.1574
  88  754.6196
  89  695.1474
  90  742.3679
  91  769.5261
  92  791.8584
  93  891.141
  94  1032.407
  95  1037.13
  96  1024.096
  97  991.6841
  98  960.5836
  99  687.429
 100  788.4181
 101  870.9089
 102  967.3842
 103  819.5024
 104  654.6669
 105  581.5056
 106  609.8779
 107  776.7831
 108  912.3072
 109  990.5557
 110  939.1808
 111  890.478
 112  806.8683
 113  756.1839
 114  743.3652
 115  831.3326
 116  879.6993
 117  763.9555
 118  594.381
 119  612.8685
 120  717.0431
 121  736.7165
 122  700.3726
 123  758.7274
 124  891.2363
 125  899.5856
 126  835.5826
 127  817.5142
 128  906.103
 129  879.5434
 130  891.7075
 131  840.5964
 132  807.4701
 133  744.7543
 134  757.5247
 135  659.9871
 136  621.3362
 137  622.0835
 138  690.4697
 139  712.8992
 140  606.8669
 141  626.3928
 142  700.02
 143  784.3711
 144  763.0365
 145  809.5667
 146  785.0772
 147  678.7203
 148  656.5681
 149  809.9791
 150  913.8303
 151  984.2871
 152  990.3964
 153  955.6916
 154  878.4943
 155  798.4193
 156  808.293
 157  772.483
 158  787.655
 159  762.9182
 160  679.9681
 161  685.9717
 162  689.6263
 163  709.1435
 164  751.1427
 165  812.8968
 166  924.6281
 167  972.9803
 168  959.552
 169  991.2297
 170  984.1613
 171  995.2964
 172  844.3068
 173  752.2062
 174  718.311
 175  748.1399
 176  750.4382
 177  814.8496
 178  843.2506
 179  712.6232
 180  646.108
 181  641.3415
 182  706.0187
 183  692.5084
 184  769.9272
 185  743.6418
 186  713.0262
 187  760.8027
 188  886.9621
 189  984.2659
 190  983.2765
 191  855.1105
 192  721.7093
 193  637.7491
 194  706.3079
 195  901.8002
 196  956.0615
 197  885.7048
 198  803.6082
 199  776.3472
 200  669.0213
 201  721.6246
 202  815.9376
 203  780.891
 204  614.5654
 205  619.6895
 206  751.6693
 207  674.2596
 208  633.6439
 209  671.9856
 210  839.7919
 211  876.5637
 212  949.5499
 213  952.9203
 214  832.0382
 215  770.0475
 216  853.817
 217  901.2211
 218  700.9171
 219  577.1938
 220  641.1201
 221  587.108
 222  541.0486
 223  540.5789
 224  804.6548
 225  805.8096
 226  789.8674
 227  691.5185
 228  733.4702
 229  800.606
 230  850.3676
 231  1019.455
 232  912.3279
 233  755.9262
 234  649.2922
 235  732.6068
 236  844.7856
 237  784.4866
 238  749.2939
 239  858.005
 240  744.658
 241  617.395
 242  651.3817
 243  789.738
 244  888.8521
 245  803.9514
 246  853.4917
 247  751.2601
 248  657.7669
 249  608.6494
 250  666.002
 251  724.8864
 252  671.5331
 253  753.465
 254  788.6007
 255  804.6182
 256  737.563
 257  773.3449
 258  711.8956
 259  738.447
 260  808.293
 261  982.2753
 262  909.975
 263  934.6989
 264  911.2416
 265  840.5586
 266  771.8898
 267  682.7238
 268  682.4841
 269  579.2917
 270  565.9364
 271  605.8718
 272  649.894
 273  633.9137
 274  591.6805
 275  700.8613
 276  784.0742
 277  829.9016
 278  759.6033
 279  743.0643
 280  706.6844
 281  744.511
 282  794.52
 283  838.6075
 284  873.0972
 285  795.5934
 286  749.8739
 287  768.6863
 288  752.9543
 289  829.7006
 290  802.41
 291  848.1045
 292  751.9736
 293  858.3274
 294  918.3858
 295  971.8069
 296  963.555
 297  986.9689
 298  994.4257
 299  839.8524
 300  692.3266
 301  658.295
 302  600.3678
 303  562.2222
 304  603.4268
 305  620.3089
 306  674.7834
 307  670.5021
 308  751.3403
 309  720.7355
 310  675.3709
 311  697.0438
 312  753.0865
 313  779.6315
 314  694.8444
 315  648.4888
 316  679.5833
 317  704.5491
 318  727.5074
 319  750.2308
 320  699.5524
 321  669.2807
 322  648.655
 323  681.5719
 324  618.7289
 325  538.7122
 326  493.1814
 327  542.4791
 328  570.2953
 329  629.2122
 330  677.1744
 331  741.3655
 332  851.9727
 333  882.7505
 334  865.2661
 335  835.6148
 336  885.6396
 337  855.0738
 338  768.3076
 339  735.1294
 340  791.301
 341  923.8875
 342  885.4963
 343  822.5822
 344  701.408
 345  797.1652
 346  874.6863
 347  1008.996
 348  928.751
 349  867.0225
 350  794.3461
 351  822.3776
 352  817.7398
 353  777.7355
 354  767.403
 355  751.3304
 356  684.6614
 357  627.2816
 358  540.3983
 359  561.2535
 360  515.7808
 361  677.4661
 362  829.7807
 363  905.9446
 364  828.8785
 365  818.2826
 366  820.9247
 367  830.8328
 368  728.1736
 369  758.0485
 370  694.3563
 371  711.1911
 372  696.3569
 373  787.3987
 374  776.9667
 375  734.3769
 376  776.7646
 377  812.9056
 378  755.0776
 379  723.9951
 380  749.131
 381  723.2332
 382  517.6543
 383  437.3007
 384  528.4126
 385  649.37
 386  707.1071
 387  756.7457
 388  793.8817
 389  728.1855
 390  752.095
 391  804.3192
 392  789.8223
 393  666.3256
 394  706.1251
 395  831.873
 396  783.9731
 397  604.4639
 398  615.3026
 399  694.1984
 400  781.9615
 401  711.1063
 402  704.1045
 403  670.3981
 404  644.2325
 405  765.1683
 406  726.5411
 407  676.4899
 408  672.978
 409  753.6596
 410  836.7672
 411  760.5519
 412  774.8265
 413  791.1541
 414  758.4495
 415  712.5846
 416  705.8972
 417  796.9705
 418  798.1941
 419  799.7225
 420  710.2058
 421  596.1856
 422  442.5113
 423  546.2672
 424  661.2466
 425  741.8322
 426  666.3213
 427  753.5125
 428  773.8788
 429  721.5955
 430  697.0513
 431  778.2103
 432  799.075
 433  646.8745
 434  489.4191
 435  514.6484
 436  590.9456
 437  661.1682
 438  679.2293
 439  706.8494
 440  751.7578
 441  778.7689
 442  850.9749
 443  819.5981
 444  758.8635
 445  769.363
 446  843.9477
 447  814.3658
 448  722.1976
 449  581.5718
 450  541.1541
 451  547.6387
 452  504.1787
 453  603.4443
 454  624.8298
 455  743.0618
 456  825.8707
 457  1012.897
 458  993.9167
 459  859.2415
 460  788.7693
 461  727.2726
 462  779.3168
 463  635.5807
 464  620.8809
 465  633.0932
 466  801.4484
 467  880.9539
 468  856.8326
 469  859.2364
 470  807.5197
 471  766.9687
 472  704.0614
 473  671.1918
 474  728.5051
 475  838.4156
 476  907.5605
 477  901.6463
 478  834.6865
 479  743.1208
 480  729.1664
 481  737.1608
 482  798.0413
 483  666.425
 484  646.0833
 485  586.601
 486  580.3448
 487  482.7497
 488  440.8868
 489  590.8868
 490  613.1075
 491  714.2377
 492  717.6729
 493  742.9768
 494  592.8457
 495  633.8824
 496  704.6863
 497  877.7599
 498  891.2404
 499  841.9009
 500  818.3813
 501  806.6511
 502  796.0326
 503  657.2047
 504  609.3807
 505  702.9234
 506  792.5644
 507  684.5098
 508  590.9941
 509  628.8008
 510  849.0935
 511  841.7091
 512  858.0037
 513  835.1031
 514  890.7267
 515  833.0776
 516  711.2879
 517  625.5977
 518  542.4402
 519  492.9788
 520  512.9058
 521  612.6241
 522  626.8566
 523  625.7598
 524  637.5434
 525  712.9619
 526  707.2026
 527  674.8465
 528  697.2108
 529  753.0329
 530  643.4503
 531  661.7657
 532  698.1025
 533  790.4463
 534  852.2635
 535  882.5396
 536  845.1232
 537  701.2808
 538  651.0642
 539  619.1971
 540  536.296
 541  573.358
 542  639.4275
 543  738.8312
 544  650.2133
 545  654.5608
 546  705.2446
 547  789.1465
 548  746.2596
 549  610.7812
 550  729.2992
 551  830.3137
 552  848.9822
 553  680.5355
 554  604.1768
 555  542.5286
 556  590.4566
 557  669.6609
 558  809.4808
 559  758.1735
 560  766.7672
 561  762.1781
 562  856.2643
 563  744.4218
 564  691.9954
 565  760.4407
 566  811.7634
 567  771.8669
 568  655.3079
 569  626.0514
 570  671.7709
 571  689.7109
 572  719.5955
 573  769.8441
 574  808.239
 575  778.6368
 576  612.5905
 577  574.3158
 578  600.7367
 579  780.8607
 580  874.9983
 581  817.2305
 582  783.3761
 583  810.8528
 584  1022.845
 585  930.6895
 586  833.7565
 587  710.3506
 588  623.4737
 589  703.7823
 590  604.3575
 591  827.5098
 592  826.8658
 593  978.0505
 594  1031.586
 595  1088.444
 596  992.049
 597  799.8856
 598  758.4896
 599  852.3754
 600  810.6747
 601  700.489
 602  703.143
 603  751.6304
 604  857.1266
 605  776.8193
 606  803.2185
 607  744.5792
 608  805.9492
 609  859.6758
 610  927.2233
 611  850.6342
 612  779.3214
 613  760.3292
 614  860.4296
 615  828.2429
 616  784.4128
 617  813.1056
 618  846.184
 619  840.0319
 620  913.0916
 621  991.1141
 622  1029.724
 623  1002.978
 624  1074.585
 625  1140.956
 626  1020.399
 627  987.5424
 628  968.0534
 629  1045.485
 630  1146.556
 631  1346.071
 632  1539.747
 633  1632.314
 634  1629.114
 635  1595.264
 636  1604.976
 637  1606.742
 638  1583.31
 639  1462.907
 640  1324.939
 641  1174.066
 642  1090.019
 643  942.9827
 644  899.4232
 645  812.1599
 646  775.6315
 647  761.5818
 648  744.5303
 649  716.8299
 650  658.2555
 651  672.8135
 652  661.3454
 653  781.5464
 654  945.4599
 655  898.3908
 656  789.4638
 657  764.8127
 658  875.6981
 659  995.1837
 660  896.9697
 661  859.2158
 662  879.2979
 663  927.6363
 664  1045.526
 665  992.6562
 666  930.3948
 667  800.7646
 668  864.5969
 669  944.998
 670  894.152
 671  824.4631
 672  872.6431
 673  880.2229
 674  784.3221
 675  603.4284
 676  525.1415
 677  630.6724
 678  727.7895
 679  710.4224
 680  642.9238
 681  752.7289
 682  883.6068
 683  879.5573
 684  787.132
 685  701.4089
 686  654.3222
 687  662.6242
 688  764.3853
 689  992.3619
 690  1040.527
 691  971.0291
 692  813.9682
 693  802.5195
 694  653.9645
 695  692.3586
 696  741.3906
 697  929.7006
 698  950.1159
 699  981.2055
 700  747.4825
 701  680.3547
 702  699.3862
 703  827.9423
 704  737.2313
 705  651.5233
 706  719.1245
 707  890.1474
 708  803.933
 709  689.5737
 710  748.5467
 711  843.1443
 712  968.375
 713  929.9401
 714  1036.951
 715  930.1644
 716  908.5388
 717  883.0958
 718  873.4238
 719  843.2195
 720  766.7251
 721  675.5419
 722  675.923
 723  600.0845
 724  791.1141
 725  792.4609
 726  856.3433
 727  707.2415
 728  795.0056
 729  849.3843
 730  850.7614
 731  809.2779
 732  861.0083
 733  838.9722
 734  709.6375
 735  641.5568
 736  730.2056
 737  748.118
 738  699.1974
 739  741.8651
 740  687.41
 741  612.4129
 742  560.6175
 743  695.6497
 744  762.9821
 745  642.3159
 746  706.543
 747  907.6702
 748  1028.971
 749  989.5488
 750  961.6722
 751  959.6232
 752  900.8542
 753  746.6187
 754  861.724
 755  931.1602
 756  948.7139
 757  923.0315
 758  921.8634
 759  982.0557
 760  1012.15
 761  1065.601
 762  1028.726
 763  923.3616
 764  902.4585
 765  874.4683
 766  810.4333
 767  706.8707
 768  721.8135
 769  836.4253
 770  848.0905
 771  890.5452
 772  939.4259
 773  961.6091
 774  905.6437
 775  705.3184
 776  651.5063
 777  662.4628
 778  709.6411
 779  698.8458
 780  760.6473
 781  697.8141
 782  718.8521
 783  649.999
 784  712.3382
 785  667.3797
 786  651.0227
 787  807.1968
 788  953.0677
 789  930.9155
 790  762.6158
 791  643.1423
 792  690.0977
 793  707.3685
 794  746.9359
 795  811.6492
 796  748.8223
 797  750.4494
 798  715.8602
 799  688.3157
 800  654.8665
 801  657.8898
 802  854.4708
 803  884.9504
 804  789.0188
 805  750.7632
 806  802.8903
 807  824.5629
 808  614.5585
 809  540.8609
 810  648.5186
 811  772.6755
 812  720.6321
 813  603.6434
 814  701.1596
 815  744.2092
 816  933.9583
 817  875.2281
 818  802.5284
 819  739.9841
 820  811.3741
 821  869.3938
 822  728.5204
 823  672.7131
 824  739.6649
 825  868.1366
 826  835.2086
 827  713.9385
 828  668.8063
 829  795.0903
 830  953.873
 831  978.0736
 832  922.5314
 833  884.8725
 834  885.4763
 835  876.4276
 836  994.7617
 837  909.8715
 838  903.405
 839  781.9061
 840  875.7882
 841  858.2083
 842  822.6793
 843  825.2814
 844  866.0695
 845  861.4674
 846  956.2075
 847  905.3267
 848  911.3884
 849  880.1074
 850  924.1926
 851  966.4138
 852  850.8972
 853  828.2966
 854  730.7735
 855  709.5514
 856  644.5938
 857  702.8567
 858  736.5978
 859  694.8763
 860  666.1239
 861  688.7359
 862  848.5872
 863  950.0972
 864  946.2433
 865  870.2
 866  772.893
 867  704.0811
 868  650.4893
 869  703.7112
 870  772.0919
 871  755.6006
 872  559.8727
 873  418.7263
 874  426.189
 875  557.5908
 876  677.685
 877  761.2607
 878  765.4271
 879  757.7963
 880  754.6525
 881  827.0285
 882  759.002
 883  759.0189
 884  838.5329
 885  948.42
 886  851.5002
 887  790.4933
 888  882.0137
 889  1019.096
 890  960.025
 891  805.8576
 892  696.6554
 893  674.6982
 894  771.2759
 895  788.0132
 896  852.3162
 897  739.7019
 898  762.1272
 899  761.6539
 900  735.0201
 901  591.7153
 902  582.4593
 903  803.1736
 904  873.3749
 905  801.6664
 906  737.0307
 907  860.7794
 908  915.4377
 909  868.343
 910  931.918
 911  1057.099
 912  1002.469
 913  921.9109
 914  875.3643
 915  781.3932
 916  631.8057
 917  577.0927
 918  659.3604
 919  648.3767
 920  679.5619
 921  832.7249
 922  894.3614
 923  809.1328
 924  760.7012
 925  866.317
 926  948.192
 927  910.2328
 928  828.3471
 929  739.2659
 930  567.7432
 931  647.1724
 932  769.5854
 933  806.3688
 934  597.8234
 935  451.2945
 936  603.5645
 937  724.6086
 938  797.8152
 939  897.0455
 940  1035.708
 941  953.2133
 942  721.0875
 943  649.6762
 944  717.9442
 945  735.8137
 946  723.9241
 947  805.8376
 948  838.2227
 949  808.5403
 950  738.1393
 951  761.263
 952  780.7809
 953  830.9689
 954  869.014
 955  861.172
 956  865.7706
 957  870.8197
 958  935.7978
 959  892.3973
 960  871.8245
 961  861.5461
 962  857.1302
 963  724.1874
 964  694.7726
 965  698.1859
 966  723.0706
 967  703.675
 968  753.3367
 969  856.9803
 970  785.8932
 971  735.0798
 972  909.0287
 973  1031.024
 974  933.7504
 975  714.5154
 976  577.8553
 977  641.9658
 978  641.0638
 979  757.8123
 980  689.2228
 981  612.0969
 982  506.9948
 983  710.0209
 984  811.9296
 985  772.9608
 986  701.9958
 987  804.829
 988  920.837
 989  864.1759
 990  835.1406
 991  777.0308
 992  740.509
 993  729.4226
 994  810.8954
 995  767.0253
 996  749.5135
 997  724.4689
 998  752.4283
 999  806.4056
1000  937.2282
1001  938.6766
1002  873.08
1003  813.1548
1004  819.9906
1005  739.2878
1006  576.0382
1007  568.5099
1008  591.3822
1009  668.6044
1010  690.0151
1011  758.3367
1012  741.3945
1013  778.4463
1014  714.2074
1015  853.7047
1016  901.0824
1017  1108.678
1018  1045.6
1019  960.728
1020  762.0908
1021  773.7577
1022  846.5547
1023  821.0229
