# Input file       =  1192931700.156139_cleaned.dat
# Candidate        =  PSR_0332+5434
# Telescope        =  AR
# Epoch_topo       =  58051.080082825683
# Epoch_bary       =  N/A
# T_sample         =  0.002
# Data Folded      =  7340032
# Data Avg         =  0.0442181480871763
# Data StdDev      =  2.58419716782106 
# Profile Bins     =  512
# Profile Avg      =  633.940861947619 
# Profile StdDev   =  309.413773499455 
# Reduced chi-sqr  =  1.297
# Prob(Noise)      <  6.25e-06   (~4.4 sigma)
# P_topo (ms)      =  714.489917967682  +/- 0.000146
# P'_topo (s/s)    =  -0                +/- 7.69e-11
# P''_topo (s/s^2) =  0                 +/- 3.4e-14
# P_bary (ms)      =  N/A
# P'_bary (s/s)    =  N/A
# P''_bary (s/s^2) =  N/A
# P_orb (s)        =  N/A
# asin(i)/c (s)    =  N/A
# eccentricity     =  N/A
# w (rad)          =  N/A
# T_peri           =  N/A
######################################################
   0  498.429
   1  435.319
   2  621.524
   3  634.5161
   4  948.6398
   5  900.8246
   6  646.5137
   7  361.4643
   8  392.8078
   9  540.7004
  10  545.9506
  11  662.2955
  12  619.3671
  13  748.5076
  14  730.9393
  15  444.0402
  16  948.3546
  17  1030.987
  18  749.9671
  19  960.485
  20  748.3466
  21  713.2972
  22  372.1281
  23  336.4777
  24  574.9846
  25  950.4312
  26  888.7678
  27  602.6134
  28  792.3685
  29  619.6669
  30  647.0074
  31  587.5209
  32  618.6669
  33  740.7081
  34  567.3392
  35  316.4034
  36  668.4846
  37  873.5281
  38  806.11
  39  552.0637
  40  397.6951
  41  371.2282
  42  289.9261
  43  587.7443
  44  705.0338
  45  633.6797
  46  575.2139
  47  425.4192
  48  541.4173
  49  636.4452
  50  656.8589
  51  503.3853
  52  400.6161
  53  590.0335
  54  543.4013
  55  456.8163
  56  470.0043
  57  160.6045
  58  400.1835
  59  823.5059
  60  873.2704
  61  795.6446
  62  812.317
  63  743.014
  64  890.6569
  65  685.6348
  66  471.4478
  67  472.7687
  68  764.5573
  69  479.5192
  70  491.9893
  71  184.6143
  72  705.5366
  73  873.6056
  74  513.0414
  75  314.548
  76  630.1535
  77  645.7772
  78  493.8625
  79  456.675
  80  937.9896
  81  833.9799
  82  662.4524
  83  804.0056
  84  721.6735
  85  693.1289
  86  659.6832
  87  552.809
  88  779.167
  89  933.7339
  90  907.3282
  91  741.378
  92  615.7062
  93  492.4933
  94  507.4557
  95  914.3497
  96  520.3791
  97  489.2826
  98  504.8269
  99  713.1141
 100  1027.686
 101  772.5851
 102  820.6608
 103  730.4893
 104  571.3713
 105  441.0341
 106  445.0775
 107  865.2319
 108  1124.208
 109  892.6144
 110  743.6043
 111  521.7006
 112  620.6634
 113  772.2145
 114  837.3943
 115  595.4116
 116  330.7861
 117  193.0631
 118  373.6514
 119  520.7435
 120  855.0712
 121  811.2649
 122  677.7462
 123  660.8212
 124  631.7521
 125  345.0703
 126  630.5311
 127  627.2715
 128  829.7648
 129  571.1075
 130  541.5392
 131  569.0269
 132  359.0119
 133  434.6696
 134  360.9071
 135  138.7006
 136  504.8574
 137  643.8101
 138  669.2398
 139  624.8948
 140  811.0739
 141  927.9128
 142  611.0947
 143  345.1465
 144  698.049
 145  730.9216
 146  522.7606
 147  1080.413
 148  876.5134
 149  736.3611
 150  567.7125
 151  328.2257
 152  680.593
 153  791.2097
 154  511.4819
 155  610.7997
 156  610.6323
 157  608.8774
 158  572.3003
 159  734.0162
 160  750.1869
 161  735.2836
 162  506.3599
 163  583.5919
 164  521.92
 165  323.8304
 166  623.2213
 167  762.7164
 168  494.7584
 169  440.2165
 170  382.2835
 171  759.8068
 172  668.8519
 173  365.8104
 174  302.0084
 175  494.2539
 176  612.5505
 177  442.7357
 178  465.9454
 179  699.8426
 180  559.5311
 181  370.3792
 182  338.133
 183  611.9226
 184  706.0807
 185  576.5502
 186  558.7273
 187  755.2398
 188  379.3976
 189  613.7072
 190  328.3271
 191  482.9763
 192  596.6035
 193  705.2632
 194  685.1801
 195  747.0136
 196  634.1873
 197  448.6757
 198  510.5657
 199  811.0643
 200  936.5983
 201  648.2554
 202  882.1487
 203  696.9213
 204  451.7868
 205  912.834
 206  774.7067
 207  441.6036
 208  384.7732
 209  900.5339
 210  1266.46
 211  977.5709
 212  542.9925
 213  344.5649
 214  161.3716
 215  131.8298
 216  166.1689
 217  515.3721
 218  655.2317
 219  455.8754
 220  795.7458
 221  604.5569
 222  579.0605
 223  829.0938
 224  872.5952
 225  764.844
 226  477.738
 227  369.0048
 228  408.9816
 229  442.0527
 230  402.7628
 231  494.8203
 232  522.3152
 233  962.3312
 234  585.4992
 235  620.217
 236  778.9706
 237  495.0822
 238  557.2155
 239  625.7213
 240  423.2182
 241  565.4041
 242  744.9025
 243  472.1819
 244  459.7428
 245  406.8014
 246  655.5678
 247  702.9313
 248  728.6789
 249  535.1389
 250  680.2043
 251  720.4951
 252  615.5781
 253  481.9575
 254  449.7762
 255  584.0958
 256  621.3988
 257  1060.638
 258  544.3495
 259  465.5038
 260  514.0928
 261  514.5535
 262  807.1187
 263  478.1776
 264  699.5286
 265  880.5078
 266  599.3933
 267  282.8474
 268  536.6071
 269  1037.266
 270  1085.398
 271  533.8934
 272  303.4938
 273  491.2689
 274  552.8287
 275  193.1273
 276  540.7422
 277  671.9843
 278  627.1032
 279  661.69
 280  585.0461
 281  420.982
 282  254.7609
 283  267.1054
 284  413.9112
 285  554.7424
 286  285.4701
 287  195.3262
 288  463.6598
 289  740.701
 290  865.2411
 291  875.6832
 292  468.2431
 293  192.7583
 294  90.4494
 295  293.5335
 296  618.042
 297  885.8458
 298  927.6404
 299  506.5558
 300  354.172
 301  590.73
 302  552.6847
 303  574.6682
 304  706.4044
 305  766.775
 306  983.7112
 307  828.9398
 308  822.2922
 309  953.7531
 310  1019.827
 311  940.1565
 312  859.6055
 313  816.8476
 314  1030.786
 315  1656.218
 316  2115.095
 317  2349.612
 318  2483.365
 319  2464.397
 320  1434.375
 321  976.8497
 322  1004.947
 323  702.6786
 324  560.861
 325  476.1877
 326  690.5285
 327  970.5162
 328  1093.128
 329  810.3959
 330  683.6617
 331  542.1989
 332  743.8554
 333  758.9521
 334  602.0538
 335  490.7286
 336  573.7291
 337  298.9981
 338  380.4675
 339  514.9073
 340  801.6097
 341  900.2885
 342  543.5912
 343  577.429
 344  420.9919
 345  119.1417
 346  579.7366
 347  471.9211
 348  445.4049
 349  334.01
 350  481.8069
 351  754.5657
 352  494.5536
 353  492.5332
 354  607.8127
 355  482.8901
 356  496.0091
 357  667.5398
 358  864.6808
 359  686.4483
 360  669.4939
 361  708.7335
 362  857.3036
 363  673.0865
 364  509.9568
 365  418.9891
 366  715.3295
 367  968.2808
 368  838.576
 369  682.5895
 370  440.5724
 371  768.602
 372  502.9542
 373  589.4664
 374  836.3188
 375  838.2324
 376  692.3165
 377  819.4394
 378  833.4446
 379  786.9135
 380  699.9478
 381  863.4907
 382  768.531
 383  619.8806
 384  929.8106
 385  594.5443
 386  581.5401
 387  714.5685
 388  671.2972
 389  482.5289
 390  238.8599
 391  160.2918
 392  491.8536
 393  474.1589
 394  542.8641
 395  821.3829
 396  814.2758
 397  747.6889
 398  653.298
 399  792.4442
 400  726.6187
 401  584.6165
 402  436.6474
 403  605.2458
 404  526.1885
 405  657.9757
 406  471.1684
 407  512.0125
 408  595.0181
 409  766.1466
 410  713.0313
 411  573.3789
 412  561.5745
 413  419.9639
 414  256.476
 415  485.6159
 416  295.3108
 417  449.9124
 418  583.4243
 419  689.2402
 420  665.7919
 421  153.725
 422  551.3311
 423  861.8158
 424  1064.289
 425  549.106
 426  437.4181
 427  722.5789
 428  878.7271
 429  580.6763
 430  468.7717
 431  472.0867
 432  643.5895
 433  786.5637
 434  476.6766
 435  430.2109
 436  281.6443
 437  664.3813
 438  494.7148
 439  481.5051
 440  490.4299
 441  510.6395
 442  756.0317
 443  503.4449
 444  728.2806
 445  838.3962
 446  709.9384
 447  643.2019
 448  701.5631
 449  738.9417
 450  763.6141
 451  792.7388
 452  752.4309
 453  542.2717
 454  143.3519
 455  130.3435
 456  234.3401
 457  453.9336
 458  813.6357
 459  1212.349
 460  906.6129
 461  750.7739
 462  701.4931
 463  840.7
 464  702.2562
 465  660.4351
 466  828.3417
 467  778.2643
 468  613.0073
 469  754.6827
 470  630.8276
 471  538.0184
 472  739.6541
 473  665.8704
 474  706.3864
 475  823.1585
 476  604.2105
 477  464.5076
 478  802.2674
 479  761.8668
 480  533.1337
 481  497.4943
 482  676.0278
 483  752.2812
 484  510.113
 485  424.813
 486  391.1251
 487  545.4063
 488  667.241
 489  532.1011
 490  466.7418
 491  333.8743
 492  659.1564
 493  664.5061
 494  557.1741
 495  599.7344
 496  613.9057
 497  668.8743
 498  411.7924
 499  666.9307
 500  666.4756
 501  797.4221
 502  790.4733
 503  642.2343
 504  401.4579
 505  350.9236
 506  269.4597
 507  410.3662
 508  807.2667
 509  653.9886
 510  752.9056
 511  814.5867
