# Input file       =  1192299056.166723_cleaned.dat
# Candidate        =  PSR_0332+5434
# Telescope        =  AR
# Epoch_topo       =  58043.757814429664
# Epoch_bary       =  N/A
# T_sample         =  0.002
# Data Folded      =  7208960
# Data Avg         =  0.0868649734289978
# Data StdDev      =  3.58593297871068 
# Profile Bins     =  512
# Profile Avg      =  1223.04167179814 
# Profile StdDev   =  425.503851704649 
# Reduced chi-sqr  =  0.711
# Prob(Noise)      <  1   (~0.0 sigma)
# P_topo (ms)      =  714.483606992338  +/- 0.00108
# P'_topo (s/s)    =  -0                +/- 5.8e-10
# P''_topo (s/s^2) =  0                 +/- 2.61e-13
# P_bary (ms)      =  N/A
# P'_bary (s/s)    =  N/A
# P''_bary (s/s^2) =  N/A
# P_orb (s)        =  N/A
# asin(i)/c (s)    =  N/A
# eccentricity     =  N/A
# w (rad)          =  N/A
# T_peri           =  N/A
######################################################
   0  694.5031
   1  920.2939
   2  1104.584
   3  1440.944
   4  1452.69
   5  1038.007
   6  1004.287
   7  1177.52
   8  1343.988
   9  1200.309
  10  1121.014
  11  933.4946
  12  787.3243
  13  744.543
  14  970.2109
  15  1104.246
  16  971.1553
  17  1038.435
  18  1204.477
  19  1018.51
  20  789.2343
  21  1103.433
  22  1301.407
  23  923.861
  24  917.4686
  25  1154.776
  26  1158.125
  27  891.3623
  28  1125.44
  29  923.6506
  30  1017.198
  31  1000.396
  32  1038.78
  33  935.5952
  34  576.1265
  35  1136.465
  36  1365.96
  37  1506.32
  38  1453.307
  39  1281.09
  40  958.008
  41  654.3448
  42  912.4294
  43  1312.358
  44  1080.993
  45  999.7387
  46  1080.293
  47  1239.463
  48  1039.627
  49  1213.908
  50  1420.96
  51  1163.193
  52  1164.958
  53  1288.191
  54  1352.66
  55  1438.521
  56  1075.955
  57  1026.255
  58  1372.399
  59  1389.632
  60  1259.492
  61  1217.016
  62  1225.742
  63  1320.348
  64  1347.938
  65  1190.047
  66  1425.325
  67  1246.449
  68  1513.603
  69  1255.751
  70  1293.916
  71  945.5988
  72  950.409
  73  1195.545
  74  1026.092
  75  1036.015
  76  979.8835
  77  1211.403
  78  1147.467
  79  1163.319
  80  1236.858
  81  1353.674
  82  1544.841
  83  1470.454
  84  1008.568
  85  734.3966
  86  663.0493
  87  996.1398
  88  1184.501
  89  1282.862
  90  1212.91
  91  1103.275
  92  1004.119
  93  872.7797
  94  803.2471
  95  967.6246
  96  1258.358
  97  1264.047
  98  1169.433
  99  976.4501
 100  1179.28
 101  1109.473
 102  1181.433
 103  1316.757
 104  1187.376
 105  1119.148
 106  1043.147
 107  1201.987
 108  1429.119
 109  1228.929
 110  779.9543
 111  972.2049
 112  1112.956
 113  1164.273
 114  1243.462
 115  1137.679
 116  1309.738
 117  1404.156
 118  1208.763
 119  1054.641
 120  909.6306
 121  1156.384
 122  1156.42
 123  1054.001
 124  1255.944
 125  1278.165
 126  1173.984
 127  1171.537
 128  1109.888
 129  1001.987
 130  1167.857
 131  1264.803
 132  1433.302
 133  1248.755
 134  1248.613
 135  1290.837
 136  1098.582
 137  994.8494
 138  946.4717
 139  1366.208
 140  1403.169
 141  1424.753
 142  1211.312
 143  1341.432
 144  1419.596
 145  1434.947
 146  1619.881
 147  1357.493
 148  1227.156
 149  1199.852
 150  1213.109
 151  1227.976
 152  1403.005
 153  1554.864
 154  1378.268
 155  1412.083
 156  1347.35
 157  1097.292
 158  1283.2
 159  1206.569
 160  881.5938
 161  935.7719
 162  1153.333
 163  880.0344
 164  787.4847
 165  1156.535
 166  1143.63
 167  1307.814
 168  1211.461
 169  1266.627
 170  1195.659
 171  1235.732
 172  1546.96
 173  1262.151
 174  1425.979
 175  1240.654
 176  1111.147
 177  1289.86
 178  1296.675
 179  1662.389
 180  1551.825
 181  1043.328
 182  1097.372
 183  1177.754
 184  988.5229
 185  955.1811
 186  1456.76
 187  1595.376
 188  1585.129
 189  1317.002
 190  1054.44
 191  950.3847
 192  848.3954
 193  1020.815
 194  998.3058
 195  1040.14
 196  1303.614
 197  1378.053
 198  1234.792
 199  1024.881
 200  857.2968
 201  969.4748
 202  1060.993
 203  796.3215
 204  861.7636
 205  1247.304
 206  1572.724
 207  1389.516
 208  1260.119
 209  1011.818
 210  1332.17
 211  1734.546
 212  1474.318
 213  1543.205
 214  1070.987
 215  1328.715
 216  1064.501
 217  1064.155
 218  1018.602
 219  1254.628
 220  1480.382
 221  1498.34
 222  1178.47
 223  1163.491
 224  1419.81
 225  1149.66
 226  1153.981
 227  1368.876
 228  1414.899
 229  1148.821
 230  1311.131
 231  1409.82
 232  1321.898
 233  1224.315
 234  1302.128
 235  1386.432
 236  1163.148
 237  1173.327
 238  1265.545
 239  1194.092
 240  1208.269
 241  1068.605
 242  1036.441
 243  1518.913
 244  1332.702
 245  1175.006
 246  1192.307
 247  1122.628
 248  1160.691
 249  1035.297
 250  982.7263
 251  1218.068
 252  1416.274
 253  1239.297
 254  1538.807
 255  1621.465
 256  1345.211
 257  1178.376
 258  1137.614
 259  1389.244
 260  1442.384
 261  1517.253
 262  1345.03
 263  1475.593
 264  1429.143
 265  1708.981
 266  1504.744
 267  1342.968
 268  1773.705
 269  2274.708
 270  2608.326
 271  3129.622
 272  3230.61
 273  2783.737
 274  2034.515
 275  1296.838
 276  1001.948
 277  1299.743
 278  1406.506
 279  1621.213
 280  1610.848
 281  1231.207
 282  1195.485
 283  1446.299
 284  1506.18
 285  1460.37
 286  1625.948
 287  1678.501
 288  1238.818
 289  1198.347
 290  1526.432
 291  1050.073
 292  777.7198
 293  1114.95
 294  989.5569
 295  1012.298
 296  962.4674
 297  1106.281
 298  1190.057
 299  1066.35
 300  1159.181
 301  893.0595
 302  995.4585
 303  1202.521
 304  1325.069
 305  1105.122
 306  1095.974
 307  1104.147
 308  1194.269
 309  1232.074
 310  1472.013
 311  1362.731
 312  1093.528
 313  1105.529
 314  1177.797
 315  1053.269
 316  1054.286
 317  1410.602
 318  1365.794
 319  1260.124
 320  1391.979
 321  1105.542
 322  1276.081
 323  1281.268
 324  1218.81
 325  1218.543
 326  1272.136
 327  1596.086
 328  1249.381
 329  1257.778
 330  1468.582
 331  1198.567
 332  1044.711
 333  1263.292
 334  1362.907
 335  1350.027
 336  1528.274
 337  1197.833
 338  1198.404
 339  1064.198
 340  1203.735
 341  1275.535
 342  1187.786
 343  1206.423
 344  976.8621
 345  1188.976
 346  1418.98
 347  1681.015
 348  1242.114
 349  1253.976
 350  1328.018
 351  1527.191
 352  972.727
 353  866.0976
 354  1011.452
 355  1489.579
 356  1423.542
 357  1108.131
 358  1035.619
 359  1020.568
 360  1096.136
 361  1266.599
 362  1425.611
 363  1636.6
 364  1381.54
 365  1100.075
 366  964.2779
 367  1191.339
 368  1389.461
 369  1341.29
 370  1321.278
 371  1315.822
 372  1384.477
 373  1182.351
 374  1157.111
 375  1209.355
 376  1111.214
 377  1244.313
 378  1067.756
 379  1247.849
 380  1338.888
 381  1381.362
 382  1272.231
 383  1299.28
 384  1423.768
 385  1342.405
 386  1106.377
 387  1032.241
 388  1365.51
 389  1399.346
 390  1158.158
 391  1547.685
 392  1194.878
 393  1440.22
 394  1495.685
 395  1062.526
 396  939.6138
 397  1077.828
 398  827.1958
 399  939.4507
 400  1144.262
 401  1152.108
 402  1021.223
 403  1052.528
 404  1007.63
 405  982.7699
 406  1139.358
 407  1241.085
 408  1092.964
 409  1486.211
 410  1271.11
 411  1313.49
 412  1289.401
 413  1127.85
 414  1179.75
 415  1169.739
 416  1320.961
 417  927.4459
 418  1219.191
 419  1334.769
 420  1199.665
 421  1545.415
 422  1281.587
 423  1084.298
 424  1068.943
 425  957.9294
 426  1156.732
 427  1393.197
 428  1346.02
 429  1020.538
 430  1190.641
 431  997.9791
 432  1372.666
 433  1315.914
 434  1178.884
 435  1039.105
 436  1500.013
 437  1695.087
 438  1260.647
 439  1151.17
 440  1170.891
 441  1208.584
 442  1422.38
 443  1656.956
 444  1519.127
 445  1447.793
 446  1418.76
 447  1564.52
 448  1423.727
 449  1002.077
 450  945.6342
 451  960.2916
 452  1385.141
 453  1374.886
 454  1104.646
 455  1192.497
 456  1314.585
 457  1120.897
 458  1217.293
 459  1381.405
 460  1396.954
 461  1508.382
 462  1330.929
 463  1168.619
 464  1066.71
 465  1306.656
 466  1559.151
 467  1494.846
 468  1264.552
 469  1246.276
 470  1219.886
 471  1245.169
 472  1148.097
 473  1401.413
 474  1202.673
 475  1246.384
 476  1574.386
 477  1276.866
 478  1137.123
 479  1152.495
 480  1332.401
 481  1387.126
 482  1264.941
 483  1141.049
 484  815.4361
 485  755.7786
 486  1112.375
 487  1023.461
 488  1064.708
 489  1047.825
 490  1313.253
 491  1239.093
 492  1080.807
 493  1156.872
 494  1042.484
 495  1248.248
 496  874.3021
 497  1012.73
 498  1114.447
 499  948.9444
 500  799.6161
 501  1157.848
 502  1047.556
 503  677.1921
 504  974.582
 505  911.567
 506  1063.223
 507  1124.585
 508  1494.885
 509  1241.539
 510  793.7007
 511  642.1025
