# Input file       =  1192816011.146538_cleaned.dat
# Candidate        =  PSR_0332+5434
# Telescope        =  AR
# Epoch_topo       =  58049.741089659008
# Epoch_bary       =  N/A
# T_sample         =  0.002
# Data Folded      =  7143424
# Data Avg         =  0.111888325492288
# Data StdDev      =  3.13487629656003 
# Profile Bins     =  512
# Profile Avg      =  1560.97997467418 
# Profile StdDev   =  370.287150675429 
# Reduced chi-sqr  =  1.026
# Prob(Noise)      <  0.331   (~0.4 sigma)
# P_topo (ms)      =  714.488437861118  +/- 0.000123
# P'_topo (s/s)    =  -0                +/- 6.68e-11
# P''_topo (s/s^2) =  0                 +/- 3.03e-14
# P_bary (ms)      =  N/A
# P'_bary (s/s)    =  N/A
# P''_bary (s/s^2) =  N/A
# P_orb (s)        =  N/A
# asin(i)/c (s)    =  N/A
# eccentricity     =  N/A
# w (rad)          =  N/A
# T_peri           =  N/A
######################################################
   0  1521.914
   1  1447.594
   2  1832.177
   3  1797.9
   4  1606.018
   5  1492.641
   6  1237.283
   7  1382.795
   8  1324.113
   9  1378.07
  10  1313.16
  11  1454.505
  12  1470.227
  13  1138.822
  14  1417.105
  15  1607.974
  16  1860.182
  17  1652.327
  18  1993.992
  19  1740.959
  20  1627.349
  21  2018.301
  22  1932.238
  23  1824.175
  24  1496.486
  25  1598.494
  26  1597.286
  27  1605.227
  28  1702.236
  29  1338.596
  30  1168.014
  31  1404.473
  32  1495.347
  33  1407.89
  34  1422.334
  35  1185.777
  36  1219.881
  37  1344.45
  38  1682.197
  39  1651.117
  40  1477.886
  41  1559.368
  42  1318.004
  43  1341.141
  44  1489.006
  45  1489.471
  46  1582.954
  47  2053.679
  48  2014.228
  49  1829.119
  50  1501.529
  51  1868.108
  52  1340.89
  53  1274.895
  54  1816.436
  55  1905.798
  56  1603.73
  57  1515.989
  58  1712.651
  59  1266.005
  60  1406.95
  61  1410.752
  62  1753.525
  63  1676.317
  64  1784.331
  65  1737.057
  66  1601.44
  67  1439.461
  68  1255.767
  69  1379.172
  70  1274.09
  71  1409.453
  72  1540.807
  73  1547.727
  74  1365.065
  75  1829.195
  76  1985.575
  77  1737.252
  78  1597.276
  79  1574.145
  80  1392.471
  81  1392.635
  82  1477.88
  83  1843.153
  84  1948.693
  85  1990.526
  86  1705.608
  87  1468.308
  88  1504.717
  89  1648.248
  90  1286.965
  91  1367.732
  92  1509.894
  93  1457.509
  94  1771.682
  95  1915.266
  96  1450.859
  97  1445.626
  98  1890.57
  99  1624.329
 100  1394.11
 101  1627.649
 102  1264.61
 103  1419.906
 104  1272.443
 105  1628.857
 106  1885.057
 107  1681.176
 108  1705.832
 109  1424.552
 110  1244.607
 111  1057.841
 112  1517.965
 113  1522.875
 114  1473.375
 115  1749.622
 116  1836.041
 117  1357.351
 118  1610.998
 119  1564.417
 120  1517.625
 121  1319.666
 122  1711.586
 123  1641.328
 124  1306.612
 125  1347.715
 126  1380.919
 127  1579.417
 128  1540.813
 129  1467.992
 130  1667.199
 131  1862.708
 132  1820.343
 133  1513.079
 134  1326.272
 135  1154.589
 136  1268.621
 137  1243.692
 138  1571.022
 139  1538.538
 140  1442.229
 141  1568.266
 142  1714.304
 143  1514.94
 144  1570.806
 145  1661.33
 146  1571.417
 147  1849.923
 148  1932.663
 149  1933.666
 150  1420.615
 151  1215.81
 152  1176.578
 153  1348.542
 154  1425.531
 155  1372.209
 156  1508.306
 157  1417.103
 158  1342.913
 159  1480.999
 160  1391.514
 161  1338.357
 162  1241.766
 163  1020.14
 164  1138.206
 165  1365.559
 166  1681.257
 167  1691.424
 168  1749.631
 169  1550.429
 170  1615.519
 171  1785.606
 172  1506.031
 173  1770.495
 174  1898.628
 175  1605.673
 176  1619.51
 177  1518.622
 178  1386.897
 179  1142.111
 180  1106.217
 181  1650.935
 182  1699.203
 183  1649.026
 184  1522.203
 185  1428.912
 186  1425.244
 187  1543.891
 188  1530.465
 189  1527.945
 190  1503.236
 191  1086.983
 192  1062.126
 193  1408.444
 194  1531.009
 195  1508.634
 196  1553.029
 197  1439.646
 198  1522.381
 199  1221.845
 200  1501.471
 201  1396.5
 202  1363.49
 203  1463.779
 204  1377.637
 205  1574.919
 206  1556.329
 207  1522.344
 208  1449.234
 209  1624.314
 210  1425.975
 211  950.1767
 212  1342.094
 213  1410.936
 214  1520.43
 215  1441.843
 216  1546.027
 217  1031.859
 218  1180.281
 219  1373.77
 220  1470.565
 221  1667.407
 222  1537.518
 223  1646.43
 224  1410.053
 225  1121.655
 226  1075.623
 227  1295.102
 228  1687.62
 229  1969.615
 230  1572.18
 231  1471.971
 232  1213.599
 233  1543.004
 234  1760.608
 235  1616.464
 236  1424.077
 237  1472.269
 238  1816.718
 239  1648.513
 240  1467.512
 241  1510.151
 242  1254.658
 243  1101.59
 244  973.9651
 245  1285.463
 246  1453.332
 247  1246.914
 248  1466.236
 249  1773.381
 250  1624.27
 251  1546.393
 252  1256.018
 253  1519.943
 254  1218.851
 255  1607.89
 256  1666.188
 257  1760.843
 258  1436.653
 259  1117.375
 260  1043.391
 261  1264.599
 262  1288.298
 263  1412.005
 264  1387.292
 265  1355.643
 266  1410.062
 267  1712.084
 268  1653.708
 269  1308.098
 270  1115.406
 271  1286.505
 272  1342.41
 273  1432.894
 274  1464.157
 275  1422.302
 276  1643.935
 277  1207.762
 278  1171.593
 279  1537.38
 280  1527.953
 281  1634.315
 282  1407.528
 283  1596.996
 284  1338.661
 285  1324.702
 286  1453.913
 287  1617.107
 288  1258.935
 289  1259.045
 290  1701.922
 291  1577.472
 292  1925.702
 293  1655.024
 294  1303.276
 295  1384.513
 296  1712.236
 297  2079.135
 298  1943.054
 299  1573.034
 300  1592.037
 301  1419.713
 302  1634.028
 303  1553.099
 304  1611.89
 305  1804.542
 306  1558.409
 307  1653.022
 308  1600.185
 309  1681.319
 310  1809.797
 311  2024.299
 312  2169.749
 313  2097.635
 314  1961.825
 315  2329.919
 316  3050.371
 317  3243.473
 318  3188.76
 319  3147.853
 320  2623.719
 321  2148.537
 322  1790.114
 323  1576.173
 324  1457.241
 325  1356.515
 326  1363.008
 327  1837.036
 328  1589.935
 329  1765.53
 330  1811.663
 331  1772.931
 332  2036.171
 333  1838.795
 334  1685.7
 335  1789.796
 336  1730.237
 337  1554.042
 338  1111.847
 339  1419.077
 340  1355.69
 341  1710.816
 342  1589.46
 343  1300.826
 344  1601.526
 345  2039.36
 346  1718.29
 347  1369.352
 348  1531.444
 349  1949.358
 350  1598.705
 351  1414.815
 352  1476.772
 353  1496.761
 354  1600.186
 355  1488.241
 356  1860.775
 357  1993.685
 358  1795.397
 359  1747.205
 360  1531.993
 361  1295.919
 362  1480.163
 363  1638.548
 364  1529.061
 365  1687.636
 366  1692.022
 367  1462.958
 368  1427.573
 369  1430.965
 370  1390.297
 371  1180.407
 372  1462.887
 373  1428.971
 374  2023.924
 375  1928.305
 376  1759.912
 377  1689.629
 378  1899.012
 379  1864.146
 380  2053.94
 381  2015.503
 382  1788.697
 383  1594.441
 384  1482.319
 385  1728.735
 386  1874.969
 387  1743.008
 388  1320.878
 389  1392.544
 390  1467.423
 391  1369.81
 392  1368.347
 393  1351.205
 394  1870.78
 395  1555.164
 396  1351.651
 397  1510.514
 398  1512.234
 399  1464.31
 400  1299.315
 401  1649.932
 402  1605.308
 403  1602.565
 404  1285.14
 405  1298.817
 406  1428.045
 407  1348.756
 408  1771.159
 409  1601.307
 410  1632.465
 411  1479.272
 412  1494.568
 413  1658.291
 414  1388.666
 415  1865.114
 416  1849.363
 417  1754.326
 418  1907.509
 419  1744.925
 420  1703.369
 421  1636.827
 422  1697.693
 423  1856.518
 424  1813.625
 425  1864.368
 426  1753.088
 427  1499.869
 428  1318.983
 429  1477.638
 430  1325.24
 431  1658.949
 432  1872.512
 433  1545.894
 434  1355.535
 435  1517.852
 436  1146.737
 437  886.7745
 438  1344.66
 439  1516.156
 440  1542.113
 441  1568.066
 442  1681.303
 443  1747.606
 444  1770.749
 445  1893.314
 446  1408.251
 447  1505.973
 448  1648.308
 449  1482.179
 450  1434.774
 451  1246.17
 452  1728.94
 453  1525.206
 454  1805.328
 455  1858.997
 456  2017.713
 457  1735.197
 458  1297.724
 459  1290.801
 460  1386.768
 461  1747.54
 462  1568.276
 463  1878.166
 464  1630.28
 465  1230.327
 466  1524.057
 467  1217.985
 468  1184.27
 469  1612.292
 470  1984.754
 471  1507.59
 472  1398.219
 473  1484.474
 474  1679.756
 475  1491.307
 476  1588.663
 477  1714.2
 478  1745.816
 479  1807.559
 480  1757.123
 481  1660.704
 482  1387.653
 483  1431.169
 484  1527.831
 485  1578.107
 486  1794.64
 487  1830.422
 488  1230.794
 489  1349.614
 490  1389.743
 491  1122.537
 492  1599.697
 493  1467.325
 494  1767.941
 495  1649.783
 496  1472.624
 497  1602.546
 498  1470.106
 499  1527.564
 500  1799.852
 501  1731.875
 502  1637.452
 503  1206.41
 504  1193.396
 505  1415.318
 506  1520.626
 507  1513.394
 508  1896.202
 509  2097.834
 510  1588.922
 511  1652.414
