# Input file       =  1192126827.138242_cleaned.dat
# Candidate        =  PSR_0332+5434
# Telescope        =  AR
# Epoch_topo       =  58041.764422896318
# Epoch_bary       =  N/A
# T_sample         =  0.002
# Data Folded      =  7143424
# Data Avg         =  0.0417355895768679
# Data StdDev      =  3.38497278298413 
# Profile Bins     =  512
# Profile Avg      =  582.313454577418 
# Profile StdDev   =  399.828193635732 
# Reduced chi-sqr  =  0.862
# Prob(Noise)      <  0.989   (~0.0 sigma)
# P_topo (ms)      =  714.482095217999  +/- 8.35e-05
# P'_topo (s/s)    =  -0                +/- 4.53e-11
# P''_topo (s/s^2) =  0                 +/- 2.05e-14
# P_bary (ms)      =  N/A
# P'_bary (s/s)    =  N/A
# P''_bary (s/s^2) =  N/A
# P_orb (s)        =  N/A
# asin(i)/c (s)    =  N/A
# eccentricity     =  N/A
# w (rad)          =  N/A
# T_peri           =  N/A
######################################################
   0  415.9586
   1  377.9131
   2  207.4178
   3  409.2413
   4  510.9901
   5  630.4165
   6  439.7665
   7  378.2776
   8  521.9022
   9  571.7056
  10  309.6262
  11  164.4338
  12  375.5192
  13  512.6591
  14  482.5077
  15  909.1914
  16  740.8279
  17  363.2447
  18  168.8861
  19  344.5854
  20  561.7149
  21  835.7269
  22  1142.83
  23  1017.076
  24  708.5957
  25  441.9279
  26  607.925
  27  777.6673
  28  540.2244
  29  265.6816
  30  334.8427
  31  584.7596
  32  401.2623
  33  255.1299
  34  389.7878
  35  487.038
  36  689.3376
  37  1004.257
  38  854.2092
  39  552.8126
  40  425.3406
  41  283.9722
  42  585.9986
  43  663.2583
  44  748.4595
  45  740.1207
  46  568.3547
  47  672.3137
  48  592.7615
  49  484.5949
  50  476.754
  51  483.2761
  52  477.4058
  53  672.9797
  54  934.6577
  55  1066.732
  56  691.5549
  57  500.2697
  58  284.2236
  59  131.76
  60  184.0068
  61  316.7115
  62  545.2671
  63  597.8692
  64  457.3232
  65  438.779
  66  130.3037
  67  236.9265
  68  428.7854
  69  442.1921
  70  299.3022
  71  308.9656
  72  -8.550884
  73  74.76847
  74  180.2561
  75  438.6227
  76  430.9876
  77  276.191
  78  445.8094
  79  317.0985
  80  316.1456
  81  632.0699
  82  391.9161
  83  78.55463
  84  282.0078
  85  673.2507
  86  750.4323
  87  786.9693
  88  667.9391
  89  685.3918
  90  523.8406
  91  559.3865
  92  225.3255
  93  439.1736
  94  515.5319
  95  504.9804
  96  842.5698
  97  702.544
  98  681.1403
  99  231.6853
 100  107.364
 101  88.39116
 102  435.8451
 103  1064.694
 104  1043.368
 105  662.3555
 106  155.6343
 107  31.36244
 108  241.3566
 109  539.5925
 110  737.6899
 111  665.2809
 112  605.0698
 113  931.4867
 114  531.4999
 115  176.568
 116  430.0829
 117  240.7407
 118  469.6461
 119  461.5237
 120  972.686
 121  852.6068
 122  720.0744
 123  329.0025
 124  286.0509
 125  388.694
 126  533.0474
 127  538.4517
 128  460.3998
 129  733.8781
 130  601.463
 131  423.1791
 132  550.6874
 133  451.2876
 134  376.5103
 135  459.4776
 136  730.0334
 137  729.644
 138  626.95
 139  775.5009
 140  679.5364
 141  324.5964
 142  393.8151
 143  383.612
 144  535.9586
 145  512.6389
 146  753.6104
 147  612.1115
 148  717.6429
 149  307.6524
 150  313.5945
 151  316.5844
 152  297.0844
 153  726.5553
 154  702.8321
 155  670.7674
 156  988.7887
 157  695.2795
 158  647.0519
 159  364.8722
 160  379.2119
 161  813.3761
 162  629.9902
 163  599.1504
 164  711.7086
 165  441.1601
 166  246.9446
 167  181.8208
 168  364.4565
 169  577.6816
 170  699.4398
 171  691.2572
 172  1045.384
 173  730.6316
 174  631.7352
 175  561.3356
 176  272.7154
 177  779.4567
 178  924.8147
 179  604.8789
 180  307.9373
 181  260.8607
 182  555.1504
 183  706.8938
 184  530.636
 185  656.8557
 186  646.866
 187  778.9404
 188  908.559
 189  997.5915
 190  585.3862
 191  93.31982
 192  339.9204
 193  819.6705
 194  709.7631
 195  917.6705
 196  838.4011
 197  526.671
 198  519.9224
 199  281.4474
 200  519.3479
 201  915.8436
 202  913.1543
 203  388.1284
 204  520.7145
 205  434.2535
 206  544.0287
 207  532.4865
 208  400.7269
 209  591.0873
 210  479.0211
 211  602.7629
 212  364.7452
 213  492.6266
 214  724.7021
 215  412.81
 216  506.2048
 217  457.5396
 218  225.1444
 219  453.2123
 220  309.9228
 221  455.4672
 222  777.0796
 223  537.8839
 224  396.9135
 225  759.1006
 226  970.7001
 227  457.7874
 228  313.7688
 229  682.1863
 230  674.8796
 231  244.7933
 232  327.5956
 233  288.368
 234  377.3908
 235  246.1079
 236  196.4695
 237  522.2047
 238  336.34
 239  472.2701
 240  342.9539
 241  329.3514
 242  456.6106
 243  507.5474
 244  905.5284
 245  868.5833
 246  624.1487
 247  466.9173
 248  463.6207
 249  537.7823
 250  617.0983
 251  715.6943
 252  853.6205
 253  423.9834
 254  278.0975
 255  523.0541
 256  512.5353
 257  586.8506
 258  529.4409
 259  769.2949
 260  689.4783
 261  763.8301
 262  704.4486
 263  568.6787
 264  409.3122
 265  173.4615
 266  345.0143
 267  708.3636
 268  791.6248
 269  1000.083
 270  636.5771
 271  460.4841
 272  328.451
 273  435.2184
 274  449.4861
 275  469.7728
 276  793.3596
 277  655.5698
 278  690.1541
 279  680.8963
 280  385.7037
 281  644.5185
 282  786.5286
 283  495.7024
 284  140.7136
 285  391.9463
 286  439.7906
 287  461.3398
 288  335.3629
 289  574.0543
 290  655.7906
 291  792.6865
 292  710.5663
 293  512.6094
 294  526.7117
 295  301.4952
 296  358.7564
 297  171.6701
 298  696.9484
 299  954.4926
 300  920.7915
 301  505.8541
 302  466.8736
 303  419.7365
 304  442.808
 305  568.6909
 306  631.6246
 307  795.5228
 308  614.4461
 309  585.8055
 310  955.9713
 311  1331.646
 312  944.681
 313  963.2115
 314  768.7371
 315  803.5966
 316  1104.327
 317  1767.118
 318  2220.136
 319  2073.288
 320  1972.632
 321  1554.709
 322  935.7106
 323  501.2881
 324  596.4584
 325  1093.333
 326  707.2446
 327  491.8355
 328  482.8256
 329  666.4109
 330  656.2511
 331  352.1756
 332  510.6198
 333  817.1639
 334  880.8846
 335  551.1583
 336  621.1396
 337  354.6607
 338  189.9184
 339  517.0058
 340  828.7399
 341  762.3955
 342  805.4174
 343  1024.093
 344  849.2624
 345  578.4299
 346  175.8858
 347  464.1997
 348  379.8951
 349  692.3746
 350  804.5694
 351  911.1349
 352  1000.007
 353  798.7861
 354  790.1361
 355  616.315
 356  845.9227
 357  628.7042
 358  824.4854
 359  766.1548
 360  463.9166
 361  360.0872
 362  314.8306
 363  325.0354
 364  312.0699
 365  615.6768
 366  815.6517
 367  668.6267
 368  550.1237
 369  641.3217
 370  350.396
 371  766.3914
 372  1068.721
 373  976.8914
 374  1186.282
 375  1033.192
 376  1109.686
 377  912.7057
 378  359.1822
 379  227.1873
 380  336.5054
 381  495.3151
 382  643.4272
 383  560.7799
 384  388.1313
 385  518.7286
 386  604.5076
 387  751.6362
 388  707.1876
 389  369.3125
 390  232.1841
 391  656.6263
 392  567.9025
 393  305.751
 394  672.1525
 395  743.2361
 396  744.6931
 397  729.0743
 398  893.4417
 399  897.4356
 400  1021.907
 401  860.2297
 402  754.4235
 403  549.9697
 404  536.3384
 405  667.1472
 406  194.9149
 407  406.7769
 408  581.251
 409  871.2562
 410  853.7507
 411  829.6312
 412  705.4467
 413  411.5372
 414  182.3263
 415  285.9946
 416  521.9323
 417  631.0983
 418  643.3468
 419  545.7205
 420  504.777
 421  599.5042
 422  422.0947
 423  490.6376
 424  623.1738
 425  930.2782
 426  344.4918
 427  419.7983
 428  626.8685
 429  696.287
 430  760.3524
 431  300.0339
 432  261.8961
 433  1037.836
 434  1147.018
 435  572.0054
 436  623.1421
 437  537.3988
 438  921.009
 439  1027.254
 440  1262.238
 441  1140.161
 442  864.7259
 443  985.4177
 444  412.1322
 445  420.4374
 446  618.9352
 447  847.5846
 448  764.5011
 449  791.5903
 450  940.4871
 451  815.7137
 452  502.5053
 453  541.9363
 454  810.9586
 455  694.7162
 456  814.2095
 457  513.0371
 458  454.2788
 459  562.4761
 460  655.6143
 461  597.4633
 462  870.9671
 463  600.8131
 464  446.6855
 465  610.562
 466  575.4092
 467  804.1935
 468  390.1953
 469  546.8568
 470  832.2496
 471  518.0626
 472  798.8674
 473  617.6444
 474  502.4771
 475  610.9099
 476  742.1301
 477  313.8159
 478  432.5154
 479  532.4369
 480  919.0908
 481  687.1564
 482  740.5844
 483  977.538
 484  660.2598
 485  774.558
 486  335.7365
 487  256.708
 488  306.3638
 489  417.1828
 490  565.5956
 491  630.5143
 492  602.5005
 493  542.4438
 494  193.6201
 495  -90.88521
 496  146.6498
 497  235.11
 498  533.45
 499  393.7079
 500  440.3882
 501  685.4866
 502  464.318
 503  301.8316
 504  298.0866
 505  311.8461
 506  477.7519
 507  454.7123
 508  360.0774
 509  395.5544
 510  363.0401
 511  334.8898
