# Input file       =  1192141432.122322_cleaned.dat
# Candidate        =  PSR_0332+5434
# Telescope        =  AR
# Epoch_topo       =  58041.933462063913
# Epoch_bary       =  N/A
# T_sample         =  0.002
# Data Folded      =  7340032
# Data Avg         =  0.0123280780084314
# Data StdDev      =  1.00001491650456 
# Profile Bins     =  512
# Profile Avg      =  176.774769279732 
# Profile StdDev   =  119.734822375149 
# Reduced chi-sqr  =  1.545
# Prob(Noise)      <  2.9e-14   (~7.5 sigma)
# P_topo (ms)      =  714.482235922213  +/- 0.000156
# P'_topo (s/s)    =  -0                +/- 8.25e-11
# P''_topo (s/s^2) =  0                 +/- 3.64e-14
# P_bary (ms)      =  N/A
# P'_bary (s/s)    =  N/A
# P''_bary (s/s^2) =  N/A
# P_orb (s)        =  N/A
# asin(i)/c (s)    =  N/A
# eccentricity     =  N/A
# w (rad)          =  N/A
# T_peri           =  N/A
######################################################
   0  136.0941
   1  250.6684
   2  328.0348
   3  336.3885
   4  236.7188
   5  211.1658
   6  109.7683
   7  163.1022
   8  46.68097
   9  81.42191
  10  61.85029
  11  61.71518
  12  116.9714
  13  114.1879
  14  312.5182
  15  252.7666
  16  95.1416
  17  113.1113
  18  412.4663
  19  296.2594
  20  140.0779
  21  112.4288
  22  221.0777
  23  287.9153
  24  247.4584
  25  187.1453
  26  268.9487
  27  262.5022
  28  133.7256
  29  162.1365
  30  101.1325
  31  91.52933
  32  136.9601
  33  211.6547
  34  191.1752
  35  59.67757
  36  109.0224
  37  148.87
  38  150.39
  39  237.9024
  40  192.804
  41  220.9402
  42  257.6256
  43  262.6545
  44  228.8154
  45  225.1893
  46  233.4705
  47  242.3617
  48  121.6541
  49  35.32669
  50  -55.73411
  51  85.57399
  52  229.6636
  53  298.5596
  54  251.5095
  55  180.1002
  56  188.0409
  57  144.3818
  58  38.56846
  59  158.7234
  60  261.6764
  61  217.1235
  62  137.3912
  63  88.50244
  64  183.5904
  65  197.3748
  66  207.7131
  67  153.9447
  68  164.8783
  69  183.7597
  70  211.3104
  71  253.8507
  72  287.0477
  73  390.9452
  74  351.1526
  75  250.6584
  76  206.2254
  77  278.6445
  78  36.99833
  79  75.02098
  80  212.6291
  81  189.945
  82  135.983
  83  242.8653
  84  203.1532
  85  253.8176
  86  310.2173
  87  417.4884
  88  411.9949
  89  449.3174
  90  724.4435
  91  832.6655
  92  872.5802
  93  836.0123
  94  703.3649
  95  442.1198
  96  399.1314
  97  275.5059
  98  211.0672
  99  141.198
 100  162.4025
 101  118.8326
 102  56.88617
 103  165.7222
 104  204.884
 105  262.2347
 106  327.611
 107  299.2995
 108  292.2211
 109  209.834
 110  214.1706
 111  281.0195
 112  215.743
 113  231.641
 114  58.23136
 115  -5.402043
 116  32.88028
 117  176.4975
 118  339.9258
 119  282.7973
 120  237.5619
 121  249.7771
 122  150.2058
 123  182.1292
 124  242.5537
 125  277.7337
 126  109.9661
 127  19.99694
 128  57.84148
 129  239.7709
 130  214.0136
 131  200.0931
 132  186.9583
 133  257.4607
 134  245.9507
 135  303.9409
 136  282.722
 137  184.015
 138  180.7792
 139  211.0299
 140  79.36301
 141  26.8979
 142  69.8938
 143  24.09534
 144  70.73771
 145  204.1524
 146  121.4524
 147  163.174
 148  240.6257
 149  120.5456
 150  12.72981
 151  -9.668816
 152  111.3364
 153  61.16198
 154  127.3821
 155  131.6281
 156  185.5019
 157  239.5074
 158  149.9723
 159  54.70093
 160  19.49226
 161  168.5232
 162  131.835
 163  -1.841051
 164  -1.920057
 165  112.7746
 166  235.7442
 167  122.5324
 168  80.53288
 169  120.5871
 170  73.79419
 171  79.25209
 172  181.4424
 173  132.8237
 174  117.4921
 175  161.2059
 176  180.7172
 177  -19.69377
 178  -52.01781
 179  90.07057
 180  123.3764
 181  48.83734
 182  89.21112
 183  168.9238
 184  152.7183
 185  -31.04907
 186  152.238
 187  207.4205
 188  132.5585
 189  162.7007
 190  157.4988
 191  118.6038
 192  196.3058
 193  227.7927
 194  199.3791
 195  191.7408
 196  114.8198
 197  169.9223
 198  230.6038
 199  160.5869
 200  164.8685
 201  138.7794
 202  191.1907
 203  274.8344
 204  213.9602
 205  276.5724
 206  175.8405
 207  171.8686
 208  109.9337
 209  38.38524
 210  214.2769
 211  188.9708
 212  59.04426
 213  77.34116
 214  35.04878
 215  53.46267
 216  209.3376
 217  139.4548
 218  119.3043
 219  199.5794
 220  204.7498
 221  14.92907
 222  158.07
 223  147.275
 224  164.101
 225  49.72591
 226  111.8935
 227  217.2404
 228  232.5336
 229  145.1991
 230  75.42879
 231  56.6765
 232  127.303
 233  298.4304
 234  150.488
 235  30.85519
 236  48.5522
 237  72.39862
 238  108.7764
 239  158.8537
 240  105.6728
 241  224.2915
 242  238.4645
 243  169.0601
 244  48.15263
 245  62.13435
 246  152.4806
 247  257.4399
 248  176.1707
 249  148.0976
 250  61.92214
 251  107.9919
 252  139.0643
 253  206.7567
 254  108.6992
 255  89.90228
 256  202.6231
 257  130.3132
 258  116.2792
 259  192.7107
 260  150.6282
 261  99.62818
 262  205.2177
 263  115.0746
 264  72.84405
 265  42.40978
 266  210.0328
 267  225.253
 268  113.5793
 269  203.1412
 270  175.0579
 271  135.2844
 272  57.22526
 273  23.30757
 274  67.93933
 275  170.3743
 276  196.0796
 277  153.3995
 278  238.1254
 279  181.0026
 280  296.043
 281  125.2379
 282  170.2492
 283  267.6399
 284  157.627
 285  53.17469
 286  50.58545
 287  24.22959
 288  -28.04085
 289  150.5702
 290  85.02901
 291  45.73638
 292  154.314
 293  80.24734
 294  -42.05685
 295  61.97227
 296  86.84902
 297  244.7161
 298  426.5013
 299  455.687
 300  227.7189
 301  206.1509
 302  196.4294
 303  186.0734
 304  272.9566
 305  259.5003
 306  119.4194
 307  161.6259
 308  191.0677
 309  257.5515
 310  205.3753
 311  165.4677
 312  223.5149
 313  223.1054
 314  131.9914
 315  105.327
 316  267.1741
 317  227.9543
 318  109.0307
 319  256.3276
 320  305.5314
 321  207.4865
 322  147.7512
 323  73.97293
 324  6.093271
 325  115.2936
 326  139.8656
 327  218.824
 328  66.28833
 329  134.9469
 330  184.5477
 331  112.8208
 332  185.4389
 333  106.9199
 334  83.31326
 335  144.3974
 336  18.77651
 337  39.62122
 338  188.4722
 339  211.755
 340  190.6064
 341  120.3775
 342  153.8534
 343  203.3694
 344  135.3566
 345  72.25112
 346  231.1789
 347  353.2505
 348  270.9253
 349  156.3575
 350  226.5398
 351  92.08729
 352  80.82835
 353  111.028
 354  203.1307
 355  248.1727
 356  253.4988
 357  347.5795
 358  308.83
 359  158.8142
 360  189.0094
 361  185.8164
 362  272.5268
 363  171.3914
 364  150.7733
 365  296.5188
 366  151.2414
 367  82.75319
 368  235.1084
 369  188.2007
 370  132.5663
 371  60.6693
 372  56.15562
 373  149.386
 374  109.3277
 375  179.9078
 376  99.25826
 377  41.61958
 378  50.64198
 379  114.2374
 380  339.4097
 381  267.6625
 382  111.9837
 383  141.6743
 384  157.1924
 385  138.149
 386  218.4318
 387  173.8524
 388  259.0756
 389  170.4375
 390  284.6856
 391  209.6562
 392  143.102
 393  119.0597
 394  192.0076
 395  279.5868
 396  192.0246
 397  198.7153
 398  446.6734
 399  359.8336
 400  104.6167
 401  7.068143
 402  116.1824
 403  221.2313
 404  350.4297
 405  239.9716
 406  199.2427
 407  207.8298
 408  157.965
 409  183.0693
 410  164.7323
 411  286.6118
 412  273.6975
 413  136.1549
 414  146.2003
 415  220.2838
 416  262.1682
 417  303.842
 418  234.1269
 419  149.0685
 420  145.0709
 421  130.2837
 422  118.8627
 423  94.34737
 424  104.674
 425  185.3143
 426  67.04526
 427  21.51681
 428  135.6817
 429  145.8071
 430  191.2387
 431  241.9343
 432  220.2625
 433  357.7062
 434  367.6074
 435  216.401
 436  132.7855
 437  146.5178
 438  101.8032
 439  162.727
 440  150.0804
 441  34.42471
 442  120.9192
 443  329.5878
 444  230.4429
 445  132.6721
 446  119.3357
 447  174.4342
 448  162.3419
 449  178.3504
 450  161.9826
 451  146.1817
 452  141.755
 453  333.2831
 454  279.1617
 455  106.5243
 456  99.69255
 457  21.16157
 458  43.89586
 459  61.62087
 460  -81.49429
 461  48.82027
 462  139.7751
 463  233.9006
 464  254.2931
 465  238.1197
 466  186.7104
 467  269.3951
 468  230.4729
 469  166.7391
 470  179.2826
 471  165.4566
 472  202.9946
 473  128.76
 474  250.88
 475  341.4764
 476  246.9967
 477  146.2601
 478  250.1476
 479  265.4269
 480  151.9828
 481  255.3423
 482  207.287
 483  171.9344
 484  127.9661
 485  137.5496
 486  123.3437
 487  92.04091
 488  188.8648
 489  144.53
 490  227.876
 491  227.5683
 492  132.6264
 493  252.066
 494  205.4257
 495  -33.57167
 496  162.7846
 497  238.9693
 498  309.1896
 499  141.3907
 500  81.18936
 501  155.3245
 502  195.3453
 503  272.8064
 504  280.8772
 505  247.1965
 506  224.7975
 507  304.8886
 508  286.576
 509  223.5035
 510  186.9585
 511  52.83401
