# Input file       =  1192643699.13104_cleaned.dat
# Candidate        =  PSR_0332+5434
# Telescope        =  AR
# Epoch_topo       =  58047.746737627778
# Epoch_bary       =  N/A
# T_sample         =  0.002
# Data Folded      =  7143424
# Data Avg         =  0.115936309005211
# Data StdDev      =  3.19645568808159 
# Profile Bins     =  512
# Profile Avg      =  1617.5471410502  
# Profile StdDev   =  377.56082123521  
# Reduced chi-sqr  =  0.814
# Prob(Noise)      <  0.999   (~0.0 sigma)
# P_topo (ms)      =  714.486781383038  +/- 0.000138
# P'_topo (s/s)    =  -0                +/- 7.47e-11
# P''_topo (s/s^2) =  0                 +/- 3.39e-14
# P_bary (ms)      =  N/A
# P'_bary (s/s)    =  N/A
# P''_bary (s/s^2) =  N/A
# P_orb (s)        =  N/A
# asin(i)/c (s)    =  N/A
# eccentricity     =  N/A
# w (rad)          =  N/A
# T_peri           =  N/A
######################################################
   0  1323.615
   1  1306.563
   2  1538.089
   3  1682.242
   4  1463.278
   5  1481.986
   6  1487.039
   7  1251.468
   8  1724.467
   9  1905.13
  10  1834.007
  11  1505.742
  12  1784.261
  13  1767.958
  14  1748.521
  15  1727.411
  16  1308.607
  17  1581.987
  18  1307.274
  19  1450.545
  20  1714.913
  21  1598.382
  22  1710.804
  23  1416.989
  24  1344.664
  25  1327.835
  26  1346.632
  27  1161.261
  28  1474.902
  29  1889.773
  30  1765.212
  31  1857.843
  32  1462.453
  33  1691.883
  34  1525.551
  35  1544.884
  36  1582.411
  37  1356.781
  38  1240.614
  39  1399.389
  40  1539.776
  41  1423.367
  42  1500.635
  43  1487.029
  44  1808.315
  45  1794.214
  46  1579.986
  47  1784.492
  48  1783.314
  49  1643.175
  50  1841.271
  51  1589.705
  52  1503.415
  53  1662.095
  54  1450.667
  55  1337.213
  56  1504.507
  57  1308.737
  58  1776.601
  59  1429.081
  60  1254.277
  61  1433.466
  62  1485.488
  63  1462.825
  64  1385.656
  65  1579.697
  66  1743.597
  67  1397.694
  68  1584.31
  69  1644.417
  70  1496.534
  71  1450.415
  72  1521.1
  73  1051.058
  74  1069.615
  75  1447.852
  76  1775.58
  77  1927.579
  78  1520.841
  79  1193.151
  80  1402.917
  81  1611.329
  82  1420.067
  83  1677.712
  84  1886.885
  85  2098.856
  86  1829.415
  87  1673.004
  88  1733.198
  89  1625.169
  90  1488.197
  91  1571.067
  92  1757.055
  93  1798.487
  94  1625.352
  95  1744.285
  96  1970.073
  97  1600.793
  98  1413.015
  99  1387.943
 100  1680.134
 101  1388.231
 102  1632.644
 103  2029.971
 104  2028.863
 105  1851.744
 106  1507.395
 107  1696.07
 108  1979.189
 109  1948.112
 110  1795.436
 111  1595.963
 112  1844.498
 113  1988.042
 114  1700.221
 115  1691.309
 116  1632.535
 117  1722.846
 118  1937.317
 119  1615.781
 120  1415.178
 121  1264.605
 122  1347.025
 123  1259.155
 124  1531.124
 125  1868.905
 126  1797.646
 127  1550.219
 128  2005.712
 129  1771.012
 130  1895.246
 131  1641.228
 132  1700.547
 133  1687.273
 134  1652.87
 135  1524.42
 136  1602.803
 137  1970.263
 138  1915.785
 139  1665.508
 140  1716.463
 141  1530.528
 142  1843.034
 143  1779.902
 144  1740.862
 145  1764.655
 146  2155.954
 147  2020.941
 148  2099.941
 149  2852.722
 150  3124.117
 151  3145.286
 152  2971.048
 153  2562.741
 154  2166.632
 155  1732.534
 156  1322.17
 157  1276.6
 158  1402.302
 159  1468.752
 160  1596.194
 161  1898.686
 162  1860.305
 163  1646.177
 164  1780.568
 165  1893.855
 166  1793.745
 167  1684.151
 168  1482.599
 169  1589.802
 170  1425.715
 171  1265.238
 172  1139.416
 173  1123.293
 174  1844.472
 175  1800.727
 176  2001.943
 177  1748.781
 178  1643.078
 179  1653.506
 180  1637.499
 181  1452.244
 182  1695.133
 183  1682.077
 184  1744.045
 185  1803.639
 186  1841.682
 187  1736.442
 188  1196.482
 189  1279.794
 190  1429.029
 191  1558.315
 192  1415.021
 193  1356.15
 194  1487.786
 195  1443.996
 196  1715.986
 197  1572.039
 198  1417.632
 199  1493.344
 200  1439.902
 201  1340.486
 202  1736.379
 203  1570.848
 204  1723.413
 205  1624.625
 206  1544.273
 207  1567.901
 208  1531.697
 209  1718.757
 210  1758.804
 211  1851.047
 212  1901.865
 213  1453.009
 214  1257.4
 215  1351.579
 216  1204.831
 217  1452.899
 218  1765.09
 219  1744.023
 220  1636.244
 221  1494.169
 222  1667.515
 223  1563.557
 224  1602.766
 225  1628.207
 226  1630.616
 227  1876.839
 228  2044.962
 229  1749.528
 230  1568.168
 231  1654.643
 232  1772.065
 233  1830.258
 234  1790.277
 235  1749.47
 236  1643.953
 237  1363.324
 238  1336.502
 239  1639.325
 240  1870.845
 241  1667.247
 242  1448.765
 243  1627.226
 244  1503.317
 245  1510.693
 246  1673.415
 247  1461.958
 248  1468.035
 249  1468.788
 250  1705.84
 251  1705.507
 252  1767.473
 253  1898.075
 254  1488.398
 255  1271.155
 256  1555.925
 257  1618.646
 258  1819.599
 259  1693.06
 260  1644.286
 261  1798.693
 262  1673.191
 263  1485.559
 264  1641.765
 265  1384.438
 266  1516.901
 267  1524.906
 268  1383.768
 269  1391.796
 270  1284.858
 271  1680.542
 272  1423.62
 273  1330.197
 274  1590.253
 275  1894.527
 276  1905.811
 277  1516.164
 278  1688.106
 279  1196.358
 280  1157.601
 281  1299.169
 282  1738.269
 283  1369.045
 284  1643.877
 285  1788.511
 286  1383.602
 287  1495.087
 288  1636.908
 289  1692.289
 290  1518.793
 291  1542.799
 292  1488.28
 293  1625.028
 294  1865.67
 295  1764.709
 296  1394.94
 297  1575.58
 298  1649.388
 299  1583.566
 300  1513.906
 301  1243.235
 302  1465.18
 303  1684.955
 304  1214.616
 305  1194.1
 306  1320.761
 307  1690.667
 308  1494.839
 309  1817.4
 310  1921.481
 311  1759.005
 312  1924.71
 313  1919.671
 314  1599.629
 315  1644.291
 316  1669.638
 317  1526.382
 318  1696.745
 319  1786.81
 320  1386.857
 321  1363.058
 322  1450.306
 323  1702.682
 324  1711.161
 325  1990.2
 326  1946.647
 327  1705.989
 328  1331.081
 329  1635.295
 330  1884.002
 331  1836.543
 332  1843.083
 333  1924.03
 334  1391.886
 335  1576.031
 336  1922.023
 337  1667.809
 338  1616.958
 339  1706.833
 340  1949.479
 341  2087.946
 342  1696.823
 343  1503.082
 344  1421.677
 345  1697.3
 346  1841.715
 347  1941.441
 348  2051.556
 349  1657.147
 350  1808.941
 351  1616.849
 352  1259.378
 353  1268.186
 354  1311.715
 355  1801.24
 356  2010.831
 357  1873.551
 358  1741.692
 359  1604.146
 360  1641.846
 361  1503.219
 362  1539.198
 363  1689.074
 364  1623.248
 365  1995.228
 366  1742.601
 367  1472.795
 368  1619.346
 369  1407.139
 370  1224.368
 371  1513.218
 372  1693.515
 373  1650.697
 374  1491.833
 375  1695.072
 376  1801.133
 377  1625.026
 378  1528.522
 379  1285.977
 380  1129.032
 381  1255.888
 382  1229.623
 383  1295.633
 384  1273.154
 385  1876.571
 386  1790.887
 387  1607.967
 388  1230.438
 389  1353.146
 390  1654.134
 391  1632.588
 392  1682.776
 393  1831.298
 394  1535.412
 395  1591.062
 396  1536.428
 397  1357.738
 398  1156.772
 399  1232.375
 400  1568.338
 401  1538.964
 402  1415.63
 403  1446.783
 404  1434.427
 405  1549.726
 406  1566.304
 407  1855.875
 408  1489.871
 409  1589.601
 410  1544.68
 411  1389.269
 412  1881.322
 413  1817.453
 414  1648.656
 415  1193.258
 416  1528.738
 417  1659.339
 418  1437.009
 419  1612.809
 420  1466.452
 421  1630.739
 422  1730.116
 423  1589.522
 424  1414.712
 425  1627.286
 426  1776.543
 427  1726.259
 428  1730.862
 429  1625.945
 430  1759.695
 431  1828.038
 432  1557.304
 433  1119.558
 434  1581.9
 435  1494.829
 436  1412.313
 437  1252.994
 438  1365.385
 439  1528.939
 440  1588.528
 441  1574.45
 442  1762.864
 443  1975.124
 444  1686.128
 445  1563.883
 446  1764.949
 447  1560.381
 448  1270.81
 449  1243.366
 450  1300.821
 451  1346.797
 452  1483.943
 453  1543.788
 454  1554.476
 455  1573.695
 456  1842.236
 457  1973.327
 458  1840.297
 459  1531.85
 460  1464.774
 461  1424.916
 462  1348.185
 463  1418.7
 464  1508.721
 465  1413.439
 466  1340.712
 467  1550.21
 468  1358.487
 469  1467.926
 470  1626.345
 471  1588.4
 472  1586.681
 473  1586.33
 474  1642.079
 475  1676.905
 476  1867.864
 477  1647.82
 478  1458.163
 479  1640.327
 480  1750.706
 481  1838.298
 482  1730.801
 483  1635.401
 484  1661.614
 485  1520.134
 486  1464.064
 487  1912.252
 488  2091.414
 489  1599.086
 490  1609.279
 491  1713.367
 492  1818.478
 493  1892.202
 494  1531.147
 495  1238.498
 496  1775.315
 497  2091.228
 498  2011.233
 499  1720.271
 500  1716.765
 501  1594.919
 502  1368.278
 503  1628.589
 504  1627.022
 505  1763.172
 506  1702.512
 507  1866.832
 508  1903.638
 509  1596.792
 510  1416.904
 511  1491.055
