# Input file       =  1192643699.13104_cleaned.dat
# Candidate        =  PSR_0332+5434
# Telescope        =  AR
# Epoch_topo       =  58047.746737627778
# Epoch_bary       =  N/A
# T_sample         =  0.002
# Data Folded      =  7143424
# Data Avg         =  0.115936309005211
# Data StdDev      =  3.19645568808159 
# Profile Bins     =  1024
# Profile Avg      =  808.773570525099 
# Profile StdDev   =  266.975817005779 
# Reduced chi-sqr  =  0.759
# Prob(Noise)      <  1   (~0.0 sigma)
# P_topo (ms)      =  714.486781383038  +/- 0.000134
# P'_topo (s/s)    =  -0                +/- 7.28e-11
# P''_topo (s/s^2) =  0                 +/- 3.3e-14
# P_bary (ms)      =  N/A
# P'_bary (s/s)    =  N/A
# P''_bary (s/s^2) =  N/A
# P_orb (s)        =  N/A
# asin(i)/c (s)    =  N/A
# eccentricity     =  N/A
# w (rad)          =  N/A
# T_peri           =  N/A
######################################################
   0  778.05
   1  861.0778
   2  934.1625
   3  932.5967
   4  869.5505
   5  1009.809
   6  1066.475
   7  1038.302
   8  859.394
   9  808.3907
  10  850.6287
  11  905.6378
  12  928.0526
  13  818.6914
  14  651.7543
  15  633.4634
  16  619.5082
  17  654.632
  18  588.8011
  19  682.4148
  20  735.3782
  21  927.4062
  22  1026.5
  23  1010.113
  24  943.82
  25  947.3867
  26  908.7261
  27  880.5411
  28  794.3899
  29  808.264
  30  807.6781
  31  826.5715
  32  821.2322
  33  747.3679
  34  704.0518
  35  783.8415
  36  818.7567
  37  866.6809
  38  772.968
  39  808.4963
  40  908.5252
  41  1023.629
  42  998.9859
  43  848.1725
  44  752.4655
  45  750.3072
  46  753.0236
  47  826.5807
  48  814.4822
  49  697.8384
  50  548.4963
  51  619.3435
  52  728.3624
  53  766.1627
  54  742.1644
  55  870.1489
  56  927.1481
  57  815.482
  58  681.7477
  59  756.0691
  60  832.7873
  61  849.2559
  62  856.4062
  63  912.9116
  64  887.0096
  65  815.5713
  66  743.7734
  67  802.3218
  68  701.2513
  69  664.2072
  70  526.5273
  71  570.2244
  72  609.2789
  73  646.3925
  74  617.1124
  75  613.0016
  76  645.8335
  77  650.3685
  78  637.9213
  79  588.2349
  80  818.7153
  81  937.1487
  82  986.4919
  83  880.9825
  84  825.6065
  85  843.2181
  86  642.4366
  87  629.1226
  88  585.0463
  89  702.3734
  90  761.1484
  91  852.9834
  92  866.2597
  93  796.5971
  94  795.4265
  95  834.3342
  96  908.436
  97  922.5471
  98  821.5678
  99  750.7906
 100  808.4573
 101  786.9045
 102  809.1899
 103  748.9296
 104  742.6448
 105  648.0708
 106  629.558
 107  568.5652
 108  553.4283
 109  605.3785
 110  734.6913
 111  810.2309
 112  764.225
 113  789.5737
 114  740.938
 115  712.7518
 116  667.4827
 117  734.0858
 118  784.3475
 119  706.5922
 120  715.903
 121  791.9199
 122  775.6816
 123  769.8105
 124  878.1997
 125  951.4476
 126  840.9521
 127  719.1147
 128  722.1368
 129  792.9663
 130  851.1046
 131  774.5157
 132  660.86
 133  678.3776
 134  851.3953
 135  972.6176
 136  955.7551
 137  895.5604
 138  881.0057
 139  812.164
 140  682.3632
 141  571.8544
 142  637.6097
 143  787.7916
 144  845.8791
 145  846.3216
 146  740.46
 147  730.2249
 148  743.2764
 149  820.3411
 150  751.982
 151  735.7976
 152  777.7379
 153  817.29
 154  834.4516
 155  864.2822
 156  878.9191
 157  795.6539
 158  672.5826
 159  723.3602
 160  752.0482
 161  839.0081
 162  840.9794
 163  892.8227
 164  916.9686
 165  843.2076
 166  872.6784
 167  864.8523
 168  806.5688
 169  834.2782
 170  840.2021
 171  902.9071
 172  828.0302
 173  945.3021
 174  931.1072
 175  784.3442
 176  540.915
 177  548.7009
 178  730.6609
 179  798.9625
 180  779.1541
 181  737.5189
 182  739.5146
 183  693.8199
 184  634.6955
 185  638.7827
 186  672.6702
 187  655.7982
 188  745.9589
 189  745.6846
 190  820.7642
 191  794.3246
 192  778.6454
 193  788.8408
 194  813.8483
 195  888.7535
 196  981.656
 197  1003.823
 198  896.4993
 199  849.1058
 200  756.5277
 201  770.8555
 202  828.7723
 203  897.4605
 204  929.5598
 205  738.9227
 206  670.5746
 207  614.6239
 208  674.2462
 209  600.9464
 210  601.718
 211  660.4167
 212  678.2781
 213  662.1207
 214  698.1136
 215  751.6484
 216  748.3862
 217  773.1881
 218  791.0663
 219  793.7303
 220  744.3114
 221  803.8506
 222  832.1895
 223  930.7303
 224  995.2786
 225  976.2642
 226  992.7868
 227  912.3387
 228  821.4349
 229  758.8789
 230  752.496
 231  737.9996
 232  672.2225
 233  734.2153
 234  674.6901
 235  689.9408
 236  677.3086
 237  726.3384
 238  735.6189
 239  765.05
 240  740.8547
 241  712.5911
 242  628.361
 243  670.736
 244  714.7275
 245  817.1114
 246  717.6874
 247  687.9942
 248  682.5994
 249  721.0909
 250  815.832
 251  789.2279
 252  860.9193
 253  765.5687
 254  797.9263
 255  777.7299
 256  799.8666
 257  779.5915
 258  805.7501
 259  814.0621
 260  820.1182
 261  830.5602
 262  913.467
 263  949.1763
 264  934.5071
 265  795.6846
 266  737.0779
 267  722.1769
 268  777.2429
 269  816.0981
 270  857.64
 271  878.1453
 272  901.9122
 273  931.8322
 274  877.9115
 275  892.6116
 276  794.337
 277  842.9774
 278  812.5905
 279  840.7531
 280  835.8812
 281  738.9996
 282  737.6091
 283  685.3431
 284  827.0869
 285  966.1379
 286  1092.349
 287  1059.309
 288  886.8671
 289  784.1448
 290  767.4966
 291  800.5832
 292  829.026
 293  899.2071
 294  865.3406
 295  914.5163
 296  944.0433
 297  943.8743
 298  874.186
 299  765.7662
 300  630.3964
 301  606.0402
 302  738.0932
 303  902.2003
 304  1054.362
 305  1017.027
 306  1061.616
 307  986.5109
 308  924.1299
 309  842.6172
 310  878.5789
 311  834.6207
 312  860.5255
 313  767.9902
 314  745.749
 315  662.9987
 316  701.5275
 317  849.9642
 318  830.4314
 319  814.3602
 320  831.5247
 321  880.2379
 322  872.5643
 323  853.0544
 324  864.3633
 325  970.9421
 326  953.9099
 327  978.5643
 328  870.2662
 329  771.472
 330  729.2795
 331  721.4903
 332  725.7696
 333  752.6608
 334  688.7721
 335  668.8217
 336  624.3245
 337  653.7773
 338  690.6686
 339  770.7413
 340  863.0578
 341  857.3814
 342  789.1932
 343  725.5134
 344  702.4404
 345  744.4854
 346  771.3773
 347  773.1844
 348  610.8671
 349  631.3683
 350  764.2679
 351  872.6333
 352  902.4885
 353  941.695
 354  1033.478
 355  890.8145
 356  780.5886
 357  719.186
 358  830.4122
 359  893.1878
 360  953.3281
 361  869.8715
 362  814.9899
 363  873.6719
 364  992.407
 365  859.2437
 366  652.6911
 367  630.861
 368  770.9844
 369  807.591
 370  688.1229
 371  648.0517
 372  643.5574
 373  760.4371
 374  811.374
 375  885.1706
 376  798.1863
 377  794.202
 378  856.0916
 379  874.1646
 380  736.9915
 381  723.6868
 382  695.0974
 383  679.5261
 384  603.5754
 385  675.9306
 386  738.8386
 387  665.8166
 388  573.3256
 389  564.0016
 390  661.9196
 391  738.2736
 392  882.607
 393  966.4996
 394  898.3925
 395  878.5239
 396  909.3369
 397  968.2482
 398  789.8642
 399  710.5948
 400  809.6086
 401  855.8614
 402  816.0419
 403  739.094
 404  758.0413
 405  782.1595
 406  774.3768
 407  808.9647
 408  733.6781
 409  675.9079
 410  629.9814
 411  593.0432
 412  682.6998
 413  676.8258
 414  805.7184
 415  735.3049
 416  758.6271
 417  676.4944
 418  740.858
 419  742.5384
 420  734.3032
 421  745.3645
 422  842.4127
 423  916.7955
 424  911.6628
 425  905.4551
 426  837.0472
 427  771.6862
 428  808.1402
 429  918.0264
 430  924.6759
 431  902.7639
 432  826.8542
 433  826.4323
 434  827.999
 435  965.3968
 436  884.3841
 437  798.2435
 438  678.7947
 439  767.6687
 440  810.1086
 441  845.8945
 442  798.3342
 443  723.0388
 444  608.4663
 445  704.9553
 446  749.3982
 447  784.5719
 448  635.9421
 449  650.5079
 450  795.1691
 451  926.842
 452  846.2752
 453  706.4282
 454  573.6917
 455  648.2775
 456  671.1931
 457  708.6953
 458  752.4297
 459  725.5533
 460  782.9035
 461  691.6406
 462  741.4222
 463  669.3929
 464  705.8372
 465  794.5835
 466  890.3717
 467  896.739
 468  774.263
 469  681.3431
 470  688.1747
 471  800.1979
 472  848.3455
 473  834.3454
 474  777.0284
 475  736.8304
 476  753.7053
 477  690.9064
 478  810.6297
 479  722.116
 480  660.8669
 481  497.3558
 482  491.676
 483  522.7308
 484  636.7364
 485  717.569
 486  839.3311
 487  877.2291
 488  978.5172
 489  956.976
 490  925.4954
 491  724.7963
 492  608.1235
 493  599.7366
 494  652.384
 495  704.601
 496  737.0812
 497  842.6654
 498  758.4268
 499  703.6697
 500  716.9269
 501  858.5453
 502  924.5581
 503  945.7072
 504  992.4298
 505  1073.388
 506  1016.859
 507  899.8007
 508  840.0569
 509  840.266
 510  851.9431
 511  855.6932
 512  878.6014
 513  818.7372
 514  725.9341
 515  757.4576
 516  753.0383
 517  789.1589
 518  809.0491
 519  888.3684
 520  945.7452
 521  883.148
 522  863.3506
 523  793.6576
 524  809.0709
 525  866.6516
 526  983.705
 527  1002.883
 528  864.3579
 529  782.3998
 530  755.3137
 531  711.0342
 532  628.7883
 533  691.1478
 534  857.6403
 535  824.3609
 536  777.817
 537  665.1918
 538  744.0394
 539  796.0821
 540  933.5599
 541  1031.618
 542  1064.322
 543  1013.558
 544  971.7707
 545  921.1795
 546  869.7564
 547  701.7193
 548  722.2482
 549  866.5499
 550  970.7773
 551  1022.951
 552  921.229
 553  1012.052
 554  932.1177
 555  904.7978
 556  794.9466
 557  798.9197
 558  823.8604
 559  940.5138
 560  1047.196
 561  988.2084
 562  916.6475
 563  821.9238
 564  853.3683
 565  855.0858
 566  801.5995
 567  825.9941
 568  827.1183
 569  868.8528
 570  923.5876
 571  972.6348
 572  947.7749
 573  766.4695
 574  739.3568
 575  694.2692
 576  676.7935
 577  612.6106
 578  645.6664
 579  705.1719
 580  621.5861
 581  642.5947
 582  641.0433
 583  801.2803
 584  860.0537
 585  948.8494
 586  983.1079
 587  877.5066
 588  796.4598
 589  732.526
 590  924.5605
 591  1041.601
 592  934.6749
 593  871.4796
 594  901.2912
 595  977.8682
 596  872.5501
 597  811.8111
 598  816.3408
 599  874.7785
 600  846.1868
 601  851.3344
 602  813.2773
 603  847.6482
 604  796.0773
 605  762.7134
 606  718.254
 607  790.8897
 608  949.019
 609  986.8206
 610  990.0854
 611  949.3643
 612  921.8405
 613  807.6337
 614  853.4698
 615  877.7332
 616  770.3763
 617  741.7844
 618  844.0327
 619  949.1808
 620  920.8735
 621  872.407
 622  893.3959
 623  868.4935
 624  880.3826
 625  881.1461
 626  1005.119
 627  1071.931
 628  1079.809
 629  963.7788
 630  1004.778
 631  1028.747
 632  1233.711
 633  1438.988
 634  1592.238
 635  1557.832
 636  1537.699
 637  1576.552
 638  1568.698
 639  1508.151
 640  1334.546
 641  1275.423
 642  1205.268
 643  1072.147
 644  938.9342
 645  851.7122
 646  799.941
 647  629.2508
 648  597.9686
 649  632.7729
 650  700.9808
 651  698.1966
 652  695.4778
 653  749.6433
 654  721.157
 655  830.4313
 656  837.0538
 657  993.5742
 658  944.0814
 659  963.5106
 660  850.9578
 661  835.6694
 662  817.3572
 663  894.8539
 664  967.1887
 665  950.6041
 666  872.0739
 667  914.836
 668  907.4244
 669  848.9625
 670  721.5306
 671  743.0944
 672  813.9164
 673  772.3076
 674  770.0568
 675  698.0026
 676  675.5602
 677  630.8712
 678  593.7305
 679  595.7804
 680  495.9099
 681  552.074
 682  767.0754
 683  957.5205
 684  957.8829
 685  879.2649
 686  937.6147
 687  1005.412
 688  966.5735
 689  846.4542
 690  849.3774
 691  806.4901
 692  818.1744
 693  816.5893
 694  909.8268
 695  791.9596
 696  699.4922
 697  733.3596
 698  809.8375
 699  865.8837
 700  787.6162
 701  868.7543
 702  872.1518
 703  873.9022
 704  893.039
 705  881.7963
 706  913.6833
 707  931.3845
 708  942.4541
 709  866.2521
 710  702.4631
 711  591.7215
 712  579.4799
 713  642.9178
 714  697.1854
 715  728.5544
 716  707.2753
 717  809.1121
 718  757.2761
 719  715.6085
 720  635.1472
 721  688.016
 722  727.9878
 723  761.0559
 724  735.2055
 725  696.5258
 726  770.9836
 727  881.5164
 728  847.8232
 729  793.1221
 730  716.6356
 731  698.6305
 732  723.396
 733  739.1324
 734  797.9907
 735  718.1112
 736  646.1564
 737  669.3434
 738  790.6403
 739  881.7516
 740  848.1349
 741  745.1365
 742  836.6783
 743  835.3726
 744  869.209
 745  787.6977
 746  799.332
 747  750.4799
 748  794.207
 749  780.4319
 750  760.8211
 751  761.7297
 752  808.6296
 753  895.0864
 754  873.9116
 755  875.919
 756  865.8583
 757  932.6127
 758  1004.544
 759  936.1841
 760  842.5333
 761  718.6866
 762  620.1981
 763  663.4896
 764  626.4424
 765  694.0093
 766  609.1189
 767  602.6228
 768  634.8171
 769  736.4853
 770  830.2339
 771  896.7752
 772  922.5261
 773  858.3282
 774  850.8127
 775  824.2481
 776  750.4575
 777  729.6085
 778  767.3687
 779  878.7958
 780  841.5558
 781  738.7433
 782  793.4047
 783  783.9835
 784  833.2871
 785  815.9078
 786  821.2021
 787  835.8203
 788  792.8224
 789  959.9561
 790  1037.44
 791  1044.979
 792  924.8763
 793  873.9077
 794  830.1145
 795  773.5341
 796  790.2283
 797  806.5698
 798  918.1866
 799  844.6326
 800  926.597
 801  893.8478
 802  927.4915
 803  858.4559
 804  898.6467
 805  883.8376
 806  838.3743
 807  839.1136
 808  734.6337
 809  693.5676
 810  650.1046
 811  664.1469
 812  711.0733
 813  831.6819
 814  914.3625
 815  939.576
 816  906.0596
 817  834.48
 818  750.4012
 819  696.1071
 820  792.6278
 821  819.5718
 822  806.0614
 823  746.9138
 824  677.4375
 825  790.1505
 826  797.9153
 827  877.6273
 828  797.0649
 829  727.5444
 830  676.6692
 831  749.2625
 832  750.0894
 833  746.6673
 834  733.9899
 835  879.2648
 836  888.4109
 837  833.4615
 838  848.8597
 839  884.8068
 840  966.0978
 841  956.7852
 842  900.7871
 843  711.1828
 844  603.0046
 845  617.944
 846  733.4935
 847  791.355
 848  778.5588
 849  804.0394
 850  891.8307
 851  914.0264
 852  899.5485
 853  817.3564
 854  805.1211
 855  841.1034
 856  850.9742
 857  912.9759
 858  927.6384
 859  807.9114
 860  738.9376
 861  721.4496
 862  844.249
 863  813.0502
 864  771.7211
 865  665.2298
 866  679.8202
 867  766.0634
 868  831.8327
 869  775.4606
 870  633.1603
 871  721.4226
 872  743.5989
 873  710.8066
 874  578.3599
 875  642.1322
 876  765.9823
 877  871.2028
 878  788.4326
 879  700.0351
 880  644.019
 881  674.3142
 882  737.0471
 883  787.268
 884  892.6311
 885  944.4292
 886  999.4538
 887  948.9195
 888  823.7464
 889  734.7773
 890  847.6904
 891  848.6158
 892  743.6325
 893  554.2757
 894  557.2726
 895  600.3799
 896  566.4055
 897  651.4682
 898  821.1779
 899  888.1205
 900  785.8277
 901  656.4451
 902  693.1266
 903  853.9431
 904  892.0297
 905  885.7679
 906  823.2264
 907  644.0824
 908  690.7999
 909  744.1208
 910  815.9572
 911  819.9653
 912  793.8901
 913  890.0062
 914  769.8522
 915  762.8842
 916  800.9695
 917  759.114
 918  733.0648
 919  726.7546
 920  851.0491
 921  788.7627
 922  835.7854
 923  951.0397
 924  967.6189
 925  892.5388
 926  682.9039
 927  698.7172
 928  780.1481
 929  768.6473
 930  839.935
 931  802.2272
 932  857.9355
 933  762.7321
 934  767.8615
 935  775.2759
 936  685.4487
 937  612.9256
 938  607.7907
 939  753.8558
 940  882.3321
 941  834.8904
 942  736.4636
 943  563.2141
 944  592.6384
 945  570.3386
 946  654.1868
 947  641.7623
 948  759.8116
 949  867.4125
 950  812.349
 951  725.2844
 952  801.0716
 953  906.421
 954  979.1946
 955  957.6157
 956  964.0287
 957  835.7245
 958  899.8849
 959  951.533
 960  1014.597
 961  942.0138
 962  899.4681
 963  792.1531
 964  743.6528
 965  818.5446
 966  909.0125
 967  804.4186
 968  785.2599
 969  739.4351
 970  828.9164
 971  847.065
 972  872.6069
 973  918.5628
 974  788.1876
 975  690.8839
 976  644.0139
 977  673.8762
 978  728.8113
 979  708.4814
 980  791.3798
 981  869.8091
 982  859.5898
 983  844.2737
 984  933.9666
 985  999.3572
 986  986.4347
 987  989.3022
 988  917.6142
 989  875.8152
 990  709.9299
 991  662.967
 992  712.2643
 993  820.1803
 994  952.7856
 995  918.0514
 996  940.5187
 997  904.3528
 998  911.3355
 999  927.1495
1000  945.9349
1001  986.6261
1002  877.1976
1003  643.8429
1004  605.4393
1005  802.7454
1006  1006.381
1007  969.4191
1008  839.5439
1009  851.0682
1010  825.9338
1011  810.5493
1012  777.3354
1013  852.8101
1014  923.6329
1015  967.4431
1016  1093.299
1017  1028.369
1018  970.5749
1019  818.0587
1020  782.0583
1021  745.7648
1022  702.8149
1023  698.1661
