# Input file       =  1192313732.119416_cleaned.dat
# Candidate        =  PSR_0332+5434
# Telescope        =  AR
# Epoch_topo       =  58043.927674993240
# Epoch_bary       =  N/A
# T_sample         =  0.002
# Data Folded      =  7340032
# Data Avg         =  0.0404269180726259
# Data StdDev      =  2.3091949148658  
# Profile Bins     =  512
# Profile Avg      =  579.576493443985 
# Profile StdDev   =  276.48691874267  
# Reduced chi-sqr  =  1.950
# Prob(Noise)      <  1.34e-33   (~12.0 sigma)
# P_topo (ms)      =  714.483751092939  +/- 0.000223
# P'_topo (s/s)    =  -0                +/- 1.18e-10
# P''_topo (s/s^2) =  0                 +/- 5.2e-14
# P_bary (ms)      =  N/A
# P'_bary (s/s)    =  N/A
# P''_bary (s/s^2) =  N/A
# P_orb (s)        =  N/A
# asin(i)/c (s)    =  N/A
# eccentricity     =  N/A
# w (rad)          =  N/A
# T_peri           =  N/A
######################################################
   0  619.858
   1  555.5737
   2  614.1229
   3  543.3069
   4  699.3725
   5  536.8033
   6  282.2536
   7  329.4565
   8  340.6659
   9  615.2896
  10  736.977
  11  376.41
  12  336.9952
  13  709.4855
  14  915.5271
  15  964.2441
  16  772.8812
  17  559.8721
  18  444.8263
  19  652.918
  20  607.3509
  21  440.0286
  22  669.4195
  23  405.1523
  24  458.4253
  25  487.7693
  26  623.2187
  27  681.657
  28  132.7863
  29  305.6266
  30  516.2901
  31  714.7803
  32  509.5616
  33  432.5867
  34  276.983
  35  357.8189
  36  488.5415
  37  545.0552
  38  423.9432
  39  776.8752
  40  666.6536
  41  651.2493
  42  507.8511
  43  493.0645
  44  704.0457
  45  588.9621
  46  617.8605
  47  601.4713
  48  760.3533
  49  773.6179
  50  849.1102
  51  714.0964
  52  579.509
  53  828.7144
  54  667.1679
  55  301.8735
  56  512.0322
  57  283.8214
  58  202.8819
  59  337.2743
  60  367.7059
  61  638.8725
  62  423.1062
  63  776.4066
  64  792.023
  65  552.7242
  66  524.2446
  67  591.6336
  68  510.1667
  69  563.6793
  70  839.6007
  71  572.8366
  72  590.8894
  73  650.9733
  74  705.0889
  75  472.262
  76  179.1299
  77  6.419308
  78  315.1204
  79  624.542
  80  597.8387
  81  726.4151
  82  743.034
  83  793.062
  84  663.0976
  85  549.8616
  86  555.592
  87  624.2335
  88  435.4602
  89  298.7014
  90  359.5334
  91  461.0879
  92  348.2443
  93  254.3323
  94  534.4844
  95  574.589
  96  734.7448
  97  553.3966
  98  571.4787
  99  818.7062
 100  936.8898
 101  758.7679
 102  491.8567
 103  595.8782
 104  406.3969
 105  339.1576
 106  428.4569
 107  423.8195
 108  453.5628
 109  446.2529
 110  648.5737
 111  859.2426
 112  582.5905
 113  633.8874
 114  731.3212
 115  663.9626
 116  531.8188
 117  505.2567
 118  320.7093
 119  524.1179
 120  562.8093
 121  454.4083
 122  485.3878
 123  550.9725
 124  432.4532
 125  441.4803
 126  670.9583
 127  875.8279
 128  539.0913
 129  446.0313
 130  568.4282
 131  481.6079
 132  749.8795
 133  650.5245
 134  525.9633
 135  587.1126
 136  487.5233
 137  229.5372
 138  311.9795
 139  288.4485
 140  632.8109
 141  362.2594
 142  200.0948
 143  441.0858
 144  463.7949
 145  680.629
 146  581.0106
 147  767.3454
 148  1005.768
 149  749.6106
 150  505.0945
 151  291.7166
 152  273.7626
 153  85.37171
 154  175.7385
 155  336.7455
 156  529.0612
 157  755.0576
 158  818.0862
 159  557.5541
 160  334.9529
 161  352.8592
 162  609.5876
 163  726.3926
 164  497.3022
 165  680.5723
 166  393.7964
 167  554.2659
 168  492.5337
 169  471.1852
 170  340.7359
 171  585.6211
 172  663.3917
 173  598.4462
 174  612.3363
 175  486.3733
 176  566.3965
 177  941.4163
 178  663.7914
 179  517.0766
 180  520.3232
 181  525.8013
 182  383.2513
 183  625.4769
 184  499.5171
 185  448.5369
 186  74.04072
 187  268.2477
 188  491.6053
 189  683.8726
 190  520.0255
 191  350.4683
 192  191.4078
 193  355.1338
 194  396.4524
 195  412.0591
 196  673.6721
 197  591.9131
 198  325.1155
 199  626.3689
 200  409.9431
 201  400.5237
 202  89.84798
 203  -28.711
 204  192.0373
 205  266.2733
 206  490.0464
 207  357.4806
 208  329.0317
 209  493.4983
 210  628.0554
 211  386.619
 212  479.8123
 213  773.3952
 214  472.4442
 215  432.1498
 216  716.0314
 217  652.0914
 218  445.5183
 219  390.4834
 220  500.9145
 221  799.4096
 222  348.9258
 223  282.4039
 224  276.8852
 225  378.3555
 226  571.6663
 227  356.0992
 228  299.1714
 229  688.7362
 230  631.6932
 231  646.6306
 232  550.4914
 233  330.085
 234  459.8777
 235  303.2539
 236  421.2669
 237  633.5319
 238  460.3107
 239  642.5685
 240  503.6781
 241  413.2891
 242  316.9125
 243  294.709
 244  214.0611
 245  754.1583
 246  889.222
 247  774.1071
 248  645.7108
 249  722.2853
 250  776.3567
 251  730.6349
 252  229.8137
 253  618.5023
 254  812.1776
 255  822.4418
 256  776.7838
 257  585.9933
 258  958.9411
 259  576.3465
 260  456.1149
 261  650.4341
 262  727.2958
 263  856.4926
 264  834.6597
 265  758.8606
 266  609.9956
 267  398.0271
 268  420.1903
 269  635.3676
 270  885.5537
 271  1031.551
 272  528.9341
 273  620.9436
 274  736.8248
 275  617.8414
 276  782.2086
 277  927.3408
 278  817.751
 279  408.4699
 280  227.3164
 281  619.8353
 282  460.8869
 283  185.3018
 284  286.7271
 285  433.0435
 286  391.9027
 287  118.8113
 288  204.0495
 289  524.8989
 290  629.3221
 291  762.3425
 292  775.5626
 293  557.7607
 294  561.6978
 295  646.8384
 296  706.1035
 297  829.8057
 298  977.9436
 299  971.5245
 300  968.5427
 301  524.1744
 302  412.2795
 303  620.9601
 304  618.4478
 305  713.1172
 306  537.3674
 307  579.4624
 308  672.9438
 309  693.8411
 310  634.9733
 311  756.1319
 312  946.6129
 313  976.5489
 314  943.1266
 315  1435.189
 316  2094.604
 317  2333.307
 318  2774.067
 319  2583.193
 320  2277.271
 321  1623.05
 322  1260.606
 323  806.7596
 324  793.0526
 325  872.1243
 326  639.5986
 327  837.4587
 328  1106.859
 329  913.9355
 330  937.7346
 331  995.3273
 332  894.702
 333  814.8195
 334  555.3972
 335  505.9392
 336  788.6165
 337  840.3179
 338  618.0262
 339  432.1462
 340  431.7342
 341  812.2097
 342  988.0449
 343  659.6911
 344  378.059
 345  339.7825
 346  302.0006
 347  426.7643
 348  598.1852
 349  607.6863
 350  372.692
 351  369.1949
 352  504.5311
 353  461.0258
 354  304.9814
 355  631.0547
 356  846.0682
 357  755.7266
 358  478.043
 359  600.39
 360  452.6591
 361  321.7736
 362  597.6035
 363  797.4509
 364  920.9943
 365  854.6567
 366  852.775
 367  918.5789
 368  825.8558
 369  667.4257
 370  597.0577
 371  1022.919
 372  920.3683
 373  789.2362
 374  675.268
 375  407.8158
 376  584.4919
 377  702.7532
 378  500.8197
 379  749.9535
 380  543.8566
 381  304.9264
 382  393.1867
 383  585.2001
 384  539.2275
 385  376.9792
 386  445.6575
 387  345.3623
 388  310.2419
 389  439.2431
 390  282.7
 391  503.0094
 392  514.4244
 393  415.4613
 394  616.2043
 395  593.0736
 396  682.5182
 397  586.3825
 398  383.3374
 399  448.0071
 400  435.0009
 401  779.5141
 402  586.2299
 403  558.5891
 404  814.0235
 405  819.9482
 406  446.4555
 407  751.3096
 408  680.6311
 409  602.2137
 410  821.4722
 411  582.3375
 412  659.5266
 413  837.9745
 414  722.1877
 415  642.3338
 416  495.8249
 417  732.8473
 418  826.2482
 419  810.0936
 420  571.6733
 421  758.7993
 422  684.7823
 423  681.2131
 424  246.7121
 425  452.8107
 426  560.8813
 427  632.0126
 428  498.8975
 429  48.68812
 430  286.0493
 431  390.1686
 432  583.9173
 433  824.8547
 434  698.6305
 435  245.9936
 436  415.5865
 437  914.9019
 438  562.195
 439  558.5172
 440  545.8573
 441  509.4945
 442  539.7393
 443  990.5897
 444  499.35
 445  172.2759
 446  548.1042
 447  298.1396
 448  344.6045
 449  467.8606
 450  304.8913
 451  507.2369
 452  524.1869
 453  547.6549
 454  280.4067
 455  135.1062
 456  186.3966
 457  64.58907
 458  391.7692
 459  450.0237
 460  218.2996
 461  523.0292
 462  844.2532
 463  637.7839
 464  332.5935
 465  658.8744
 466  893.5773
 467  745.89
 468  338.1597
 469  330.7993
 470  369.1838
 471  539.4005
 472  839.8567
 473  1124.337
 474  797.2937
 475  814.9776
 476  476.7317
 477  327.4745
 478  463.0124
 479  556.2896
 480  645.2255
 481  487.99
 482  190.8108
 483  321.6284
 484  574.2722
 485  714.8721
 486  323.7357
 487  508.5432
 488  623.0437
 489  370.3202
 490  147.7561
 491  195.5383
 492  558.7037
 493  584.3685
 494  431.3401
 495  358.3101
 496  343.7716
 497  472.5855
 498  627.2958
 499  569.1447
 500  605.6396
 501  756.3712
 502  737.4753
 503  592.2931
 504  397.6854
 505  659.1418
 506  519.5662
 507  531.3568
 508  763.1204
 509  534.2561
 510  408.7442
 511  319.1539
