# Input file       =  1192212944.130537_cleaned.dat
# Candidate        =  PSR_0332+5434
# Telescope        =  AR
# Epoch_topo       =  58042.761147344179
# Epoch_bary       =  N/A
# T_sample         =  0.002
# Data Folded      =  7405568
# Data Avg         =  0.0809519367109143
# Data StdDev      =  3.09444023445352 
# Profile Bins     =  512
# Profile Avg      =  1170.5381346076  
# Profile StdDev   =  372.157097357612 
# Reduced chi-sqr  =  0.908
# Prob(Noise)      <  0.934   (~0.0 sigma)
# P_topo (ms)      =  714.48284453505   +/- 0.000144
# P'_topo (s/s)    =  -0                +/- 7.54e-11
# P''_topo (s/s^2) =  0                 +/- 3.3e-14
# P_bary (ms)      =  N/A
# P'_bary (s/s)    =  N/A
# P''_bary (s/s^2) =  N/A
# P_orb (s)        =  N/A
# asin(i)/c (s)    =  N/A
# eccentricity     =  N/A
# w (rad)          =  N/A
# T_peri           =  N/A
######################################################
   0  1286.264
   1  1492.156
   2  1034.069
   3  1262.225
   4  1221.323
   5  1138.635
   6  1092.28
   7  989.2599
   8  1357.551
   9  1410.718
  10  1428.109
  11  1301.076
  12  1065.243
  13  928.2699
  14  1248.278
  15  946.0057
  16  739.5728
  17  1005.983
  18  1081.441
  19  724.858
  20  983.2988
  21  1401.503
  22  1264.933
  23  1566.751
  24  1379.517
  25  1065.267
  26  1184.234
  27  1122.586
  28  1184.123
  29  1073.557
  30  1297.803
  31  1256.15
  32  1337.117
  33  1446.448
  34  1398.966
  35  1498.077
  36  1272.847
  37  1204.669
  38  1195.957
  39  1229.328
  40  1002.273
  41  1327.142
  42  1254.992
  43  1274.759
  44  1422.165
  45  1297.743
  46  924.1593
  47  1180.973
  48  1102.075
  49  1251.297
  50  1570.488
  51  1718.213
  52  1420.97
  53  1277.876
  54  1340.342
  55  1285.015
  56  1138.436
  57  1002.927
  58  1155.303
  59  1215.795
  60  1108.514
  61  1156.734
  62  1155.604
  63  995.8877
  64  845.3914
  65  1145.982
  66  1373.6
  67  1620.559
  68  1531.626
  69  1266.222
  70  678.9527
  71  881.3295
  72  1232.254
  73  1283.791
  74  1417.061
  75  1752.052
  76  1443.776
  77  1121.963
  78  786.6005
  79  730.2376
  80  1122.919
  81  1103.606
  82  1052.881
  83  987.3715
  84  1196.38
  85  1136.374
  86  1021.722
  87  781.6445
  88  1052.818
  89  1039.516
  90  1207.461
  91  732.0078
  92  681.1458
  93  844.8915
  94  794.9603
  95  1265.696
  96  1056.576
  97  1099.244
  98  919.6603
  99  697.554
 100  944.8231
 101  1056.984
 102  1079.835
 103  777.2701
 104  932.0099
 105  1235.796
 106  1466.031
 107  1293.492
 108  1702.019
 109  1589.516
 110  1303.556
 111  1443.975
 112  1251.724
 113  886.4293
 114  884.7724
 115  973.8891
 116  1110.332
 117  1282.893
 118  1269.954
 119  1202.008
 120  1118.667
 121  935.8851
 122  741.9249
 123  1033.26
 124  1261.546
 125  1199.452
 126  1108.084
 127  1258.27
 128  1258.607
 129  1144.067
 130  1147.644
 131  1088.983
 132  1017.029
 133  1087.598
 134  1057.959
 135  1343.461
 136  1403.607
 137  1013.134
 138  1057.473
 139  1118.231
 140  1251.656
 141  1405.538
 142  1367.415
 143  1273.437
 144  1143.409
 145  834.7176
 146  749.3734
 147  1145.174
 148  1288.754
 149  1310.505
 150  1225.421
 151  1317.531
 152  1190.112
 153  1124.944
 154  1187.649
 155  913.9141
 156  1112.467
 157  1485.623
 158  1164.911
 159  1065.277
 160  968.8528
 161  866.14
 162  1231.465
 163  1048.781
 164  1340.807
 165  1084.073
 166  1124.986
 167  1468.45
 168  1410.889
 169  1251.665
 170  887.3934
 171  1181.507
 172  1003.58
 173  1237.946
 174  1208.454
 175  1278.133
 176  1174.489
 177  808.3041
 178  1006.389
 179  914.5399
 180  663.3625
 181  802.6548
 182  1051.932
 183  1051.527
 184  961.425
 185  1284.089
 186  1337.189
 187  876.5466
 188  969.3264
 189  1137.108
 190  1532.849
 191  1517.594
 192  1537.82
 193  1122.358
 194  1251.861
 195  1126.623
 196  935.7511
 197  780.2753
 198  1308.267
 199  1319.85
 200  1392.754
 201  1525.372
 202  1385.338
 203  1226.306
 204  986.9878
 205  1213.252
 206  1642.096
 207  1505.33
 208  1289.777
 209  1064.26
 210  958.4605
 211  962.9819
 212  1203.6
 213  898.0231
 214  680.9247
 215  981.2351
 216  1021.262
 217  839.1461
 218  539.8328
 219  932.1938
 220  1077.371
 221  1078.05
 222  1110.904
 223  825.1635
 224  1084.977
 225  1011.478
 226  1125.687
 227  1219.37
 228  768.3752
 229  828.7714
 230  854.4814
 231  1123.899
 232  1185.445
 233  1286.552
 234  857.3506
 235  1084.222
 236  1428.702
 237  1172.243
 238  1249.234
 239  1186.933
 240  1075.996
 241  1234.777
 242  1385.781
 243  1339.195
 244  968.8543
 245  1241.609
 246  1307.053
 247  1370.857
 248  1203.679
 249  1055.982
 250  1051.795
 251  1048.55
 252  1303.832
 253  953.8732
 254  1291.022
 255  1299.286
 256  1137.28
 257  1076.248
 258  972.3246
 259  942.1917
 260  1002.203
 261  1305.058
 262  1251.248
 263  1227.715
 264  1027.122
 265  974.7145
 266  843.7742
 267  831.5767
 268  1118.372
 269  1019.716
 270  949.3477
 271  879.6028
 272  1270.287
 273  1581.907
 274  1323.824
 275  1088.533
 276  1121.124
 277  1225.125
 278  1123.161
 279  965.4916
 280  1283.548
 281  1432.291
 282  1766.786
 283  1384.673
 284  1407.578
 285  1171.025
 286  1359.129
 287  1239.098
 288  1159.204
 289  1590.635
 290  1586.755
 291  1381.826
 292  1143.476
 293  928.5596
 294  1015.034
 295  1089.263
 296  1087.122
 297  1237.263
 298  1457.654
 299  1320.932
 300  1212.714
 301  1352.003
 302  999.1337
 303  971.8094
 304  1049.429
 305  1398.498
 306  1395.651
 307  796.5533
 308  1132.623
 309  1224.312
 310  1079.438
 311  881.71
 312  1038.808
 313  1146.766
 314  1472.621
 315  1414.659
 316  1829.457
 317  2356.746
 318  2752.872
 319  3040.732
 320  2409.475
 321  2088.198
 322  1604.002
 323  1112.399
 324  1197.193
 325  1147.092
 326  882.8636
 327  1287.433
 328  909.0684
 329  793.9685
 330  756.9496
 331  1181.848
 332  953.5294
 333  1385.256
 334  1346.268
 335  949.3337
 336  1318.533
 337  1174.138
 338  1086.803
 339  1041.798
 340  1228.554
 341  1091.31
 342  1262.062
 343  1298.429
 344  1250.976
 345  1238.526
 346  1390.44
 347  990.9034
 348  769.7704
 349  935.5459
 350  967.078
 351  1503.544
 352  1524.472
 353  1470.419
 354  1483.792
 355  1314.942
 356  1519.812
 357  1292.633
 358  1364.608
 359  1439.144
 360  1343.397
 361  635.1076
 362  867.8134
 363  1268.436
 364  1582.678
 365  1087.477
 366  1186.184
 367  1232.659
 368  1211.833
 369  1485.397
 370  1194.118
 371  951.7292
 372  1097.278
 373  1297.038
 374  1026.777
 375  1205.98
 376  1206.605
 377  762.3319
 378  914.8495
 379  1282.008
 380  1183.403
 381  1031.262
 382  1099.545
 383  1053.145
 384  687.6042
 385  597.6207
 386  1007.507
 387  1295.55
 388  1283.759
 389  1468.647
 390  1294.43
 391  1085.874
 392  1397.099
 393  1382.718
 394  1231.893
 395  1166.337
 396  1058.723
 397  1533.375
 398  1142.159
 399  951.5425
 400  1106.201
 401  810.3716
 402  850.4815
 403  1031
 404  1215.103
 405  1437.64
 406  1326.106
 407  1258.871
 408  1178.429
 409  1030.02
 410  939.4985
 411  959.7236
 412  924.5126
 413  1153
 414  1381.773
 415  1452.648
 416  1433.748
 417  1229.993
 418  1330.591
 419  1206.919
 420  1508.037
 421  1241.405
 422  1091.715
 423  1314.742
 424  1423.219
 425  1239.43
 426  950.5592
 427  1117.208
 428  1418.506
 429  1304.387
 430  1270.521
 431  1123.24
 432  1047.464
 433  908.2657
 434  966.6501
 435  902.6968
 436  1289.763
 437  1417.31
 438  1291.314
 439  1213.794
 440  1295.506
 441  967.4846
 442  797.1721
 443  723.0974
 444  1293.371
 445  1199.624
 446  900.5378
 447  993.3933
 448  1040.76
 449  913.4587
 450  945.2215
 451  1057.577
 452  1008.511
 453  1012.946
 454  1275.259
 455  1049.171
 456  1153.828
 457  1254.57
 458  1043.52
 459  1059.051
 460  1370.655
 461  1302.173
 462  1345.391
 463  1119.842
 464  1205.546
 465  1170.232
 466  1160.1
 467  797.103
 468  1163.563
 469  1590.899
 470  1691.677
 471  1622.661
 472  1443.891
 473  1325.44
 474  890.0266
 475  1094.424
 476  886.4848
 477  1236.052
 478  1441.67
 479  1116.507
 480  1100.421
 481  1020.944
 482  1407.492
 483  1055.173
 484  818.934
 485  902.2182
 486  1158.085
 487  1301.762
 488  1118.918
 489  1336.492
 490  1299.924
 491  1268.88
 492  1073.969
 493  1375.443
 494  1383.756
 495  976.098
 496  1370.158
 497  1426.958
 498  828.9169
 499  816.7975
 500  1048.501
 501  851.2571
 502  1028.615
 503  1237.964
 504  1328.855
 505  948.7107
 506  798.1402
 507  1005.791
 508  1127.558
 509  812.6749
 510  858.4719
 511  1123.333
