# Input file       =  1192572168.134948_cleaned.dat
# Candidate        =  PSR_0332+5434
# Telescope        =  AR
# Epoch_topo       =  58046.918832580413
# Epoch_bary       =  N/A
# T_sample         =  0.002
# Data Folded      =  7340032
# Data Avg         =  0.0306173798578259
# Data StdDev      =  2.0184544513815  
# Profile Bins     =  1024
# Profile Avg      =  219.453491276544 
# Profile StdDev   =  170.890512354137 
# Reduced chi-sqr  =  1.640
# Prob(Noise)      <  1.31e-34   (~12.2 sigma)
# P_topo (ms)      =  714.486118826887  +/- 0.000262
# P'_topo (s/s)    =  -0                +/- 1.38e-10
# P''_topo (s/s^2) =  0                 +/- 6.09e-14
# P_bary (ms)      =  N/A
# P'_bary (s/s)    =  N/A
# P''_bary (s/s^2) =  N/A
# P_orb (s)        =  N/A
# asin(i)/c (s)    =  N/A
# eccentricity     =  N/A
# w (rad)          =  N/A
# T_peri           =  N/A
######################################################
   0  298.561
   1  346.572
   2  254.8945
   3  209.842
   4  224.8243
   5  358.1722
   6  312.2209
   7  201.6565
   8  73.81484
   9  122.2166
  10  294.9837
  11  303.7278
  12  248.3404
  13  265.6066
  14  369.4992
  15  457.8544
  16  383.3574
  17  331.2289
  18  279.0146
  19  387.4498
  20  491.8516
  21  469.9453
  22  359.7267
  23  222.3428
  24  164.8404
  25  183.7158
  26  220.6115
  27  191.2902
  28  172.913
  29  218.8988
  30  299.4424
  31  253.5411
  32  155.5858
  33  91.21062
  34  157.1379
  35  231.2837
  36  214.8584
  37  211.6698
  38  130.664
  39  150.6483
  40  107.5
  41  136.7356
  42  211.953
  43  260.1891
  44  241.0551
  45  147.2476
  46  99.70068
  47  193.2473
  48  228.6651
  49  323.5204
  50  257.5324
  51  286.7534
  52  317.3228
  53  317.709
  54  238.0331
  55  178.6821
  56  181.2378
  57  281.9814
  58  327.4842
  59  312.407
  60  306.3211
  61  326.8412
  62  367.9038
  63  376.4688
  64  322.1731
  65  211.2375
  66  158.5156
  67  159.3985
  68  213.7249
  69  275.2842
  70  289.6455
  71  266.6438
  72  128.2118
  73  152.2589
  74  207.3553
  75  301.3451
  76  257.6937
  77  199.9349
  78  237.4317
  79  319.5021
  80  231.7713
  81  118.5409
  82  71.80755
  83  123.0993
  84  189.4988
  85  180.1221
  86  215.7106
  87  277.011
  88  221.94
  89  190.23
  90  95.60822
  91  173.9767
  92  154.1493
  93  262.8411
  94  273.2405
  95  325.2351
  96  243.9448
  97  110.415
  98  56.26036
  99  39.51765
 100  124.4205
 101  68.91668
 102  76.93388
 103  66.18995
 104  81.35843
 105  117.768
 106  146.8052
 107  180.6303
 108  141.2642
 109  180.9995
 110  69.71753
 111  114.845
 112  166.9606
 113  268.638
 114  218.4511
 115  200.4431
 116  181.7111
 117  163.0244
 118  193.0639
 119  152.6731
 120  184.4206
 121  206.3219
 122  176.2766
 123  181.4911
 124  128.522
 125  241.9809
 126  263.7307
 127  228.9784
 128  190.7423
 129  153.6595
 130  257.4316
 131  319.2287
 132  286.4439
 133  202.0649
 134  259.3181
 135  259.7208
 136  215.1686
 137  94.47725
 138  105.5006
 139  97.06017
 140  51.14973
 141  97.721
 142  163.5165
 143  260.6665
 144  280.6711
 145  351.0652
 146  309.58
 147  275.745
 148  236.7701
 149  224.4647
 150  190.6737
 151  246.5696
 152  305.96
 153  251.2624
 154  157.9959
 155  141.0135
 156  139.6745
 157  211.2495
 158  214.1597
 159  203.5282
 160  157.3436
 161  90.70766
 162  94.14581
 163  108.511
 164  112.212
 165  170.658
 166  131.2871
 167  261.5152
 168  347.4271
 169  413.6691
 170  296.7209
 171  163.7937
 172  110.656
 173  214.3389
 174  226.0664
 175  237.2554
 176  232.5313
 177  208.4882
 178  155.463
 179  158.894
 180  207.3203
 181  257.849
 182  240.9639
 183  260.3359
 184  293.9901
 185  295.2385
 186  227.9608
 187  157.3708
 188  193.3274
 189  229.9833
 190  286.3305
 191  254.0815
 192  203.2487
 193  227.4571
 194  297.9827
 195  384.6071
 196  344.9132
 197  296.0655
 198  310.6088
 199  261.7698
 200  237.507
 201  177.2645
 202  203.1142
 203  232.3602
 204  207.864
 205  143.5804
 206  125.6251
 207  122.5839
 208  132.7841
 209  79.65954
 210  77.62325
 211  122.3471
 212  144.4412
 213  116.7518
 214  93.81664
 215  126.7466
 216  101.825
 217  57.31083
 218  44.92022
 219  183.6398
 220  232.0442
 221  169.1575
 222  133.9763
 223  131.6578
 224  163.0447
 225  193.8363
 226  376.3631
 227  396.38
 228  263.5396
 229  81.98191
 230  111.5485
 231  80.50486
 232  106.5719
 233  181.3074
 234  322.0808
 235  348.9914
 236  323.0127
 237  289.479
 238  333.1349
 239  344.4276
 240  348.0399
 241  237.1207
 242  121.5774
 243  161.1708
 244  353.4268
 245  449.5985
 246  357.6105
 247  297.1092
 248  254.1368
 249  283.569
 250  144.1301
 251  155.2318
 252  97.56929
 253  206.1493
 254  234.8895
 255  259.1996
 256  169.447
 257  170.2277
 258  255.0466
 259  362.2325
 260  362.4335
 261  310.1135
 262  280.5675
 263  273.1203
 264  305.5976
 265  336.7795
 266  327.3466
 267  266.0252
 268  238.8958
 269  229.0644
 270  171.6008
 271  141.8712
 272  108.5505
 273  68.59029
 274  -31.44848
 275  -56.07285
 276  -19.75765
 277  104.0262
 278  155.5043
 279  187.8841
 280  203.1401
 281  127.8367
 282  86.44936
 283  86.56078
 284  181.1294
 285  117.2343
 286  2.57479
 287  -59.09531
 288  95.66534
 289  183.8326
 290  150.3326
 291  76.85859
 292  135.944
 293  201.064
 294  109.4606
 295  28.81572
 296  104.4965
 297  273.3372
 298  307.5414
 299  319.2822
 300  243.9885
 301  227.9532
 302  180.7995
 303  206.5394
 304  206.481
 305  251.2448
 306  266.6024
 307  336.1281
 308  338.4418
 309  304.9467
 310  223.6743
 311  157.7451
 312  143.3085
 313  197.8362
 314  201.8961
 315  145.7975
 316  189.6492
 317  188.0675
 318  168.814
 319  136.0032
 320  86.04921
 321  110.8929
 322  44.77663
 323  135.9587
 324  229.5616
 325  276.8655
 326  251.5361
 327  174.2636
 328  189.755
 329  216.3437
 330  248.0037
 331  198.3991
 332  68.15182
 333  16.06116
 334  45.39023
 335  88.72882
 336  94.86577
 337  99.62502
 338  131.1897
 339  163.5142
 340  115.1465
 341  97.67897
 342  101.3175
 343  119.8639
 344  78.69411
 345  126.989
 346  196.2468
 347  243.4098
 348  208.9729
 349  258.6809
 350  242.9611
 351  200.09
 352  190.5324
 353  146.5095
 354  159.3725
 355  184.0588
 356  292.2527
 357  271.2246
 358  284.0561
 359  253.215
 360  329.1442
 361  235.5518
 362  188.3937
 363  112.1395
 364  104.0299
 365  185.6214
 366  201.0132
 367  243.2424
 368  156.7608
 369  171.3223
 370  184.9961
 371  234.1189
 372  280.2489
 373  263.4745
 374  161.4244
 375  69.88027
 376  69.74532
 377  76.51881
 378  123.4657
 379  114.2166
 380  164.3534
 381  225.248
 382  285.0888
 383  255.8965
 384  172.1907
 385  136.6249
 386  194.6633
 387  207.4494
 388  239.4982
 389  160.4546
 390  183.5066
 391  179.4551
 392  232.2401
 393  138.0476
 394  105.6455
 395  50.19367
 396  161.1653
 397  248.9072
 398  286.8812
 399  279.4115
 400  218.3382
 401  206.3448
 402  106.124
 403  39.29559
 404  27.09072
 405  5.038778
 406  42.52997
 407  107.9721
 408  188.2601
 409  230.471
 410  237.8374
 411  235.9006
 412  288.36
 413  267.6475
 414  162.2089
 415  62.01883
 416  128.2991
 417  236.344
 418  299.127
 419  251.5214
 420  219.5646
 421  213.597
 422  253.4607
 423  307.8558
 424  301.0404
 425  245.9347
 426  126.741
 427  64.06104
 428  98.6367
 429  137.5526
 430  133.4012
 431  97.82781
 432  170.8228
 433  139.2477
 434  123.6412
 435  63.20779
 436  120.5603
 437  199.8919
 438  271.42
 439  286.9103
 440  265.6924
 441  204.1276
 442  236.7327
 443  127.7672
 444  142.2362
 445  89.76655
 446  111.4783
 447  174.0207
 448  235.1882
 449  337.2905
 450  380.2259
 451  388.0619
 452  321.386
 453  159.3545
 454  57.57196
 455  68.57824
 456  176.5998
 457  237.9075
 458  309.6071
 459  250.3406
 460  245.2506
 461  153.5751
 462  170.5564
 463  133.1162
 464  218.5043
 465  226.5788
 466  221.102
 467  171.7025
 468  149.8944
 469  215.8347
 470  202.6191
 471  202.8236
 472  203.7281
 473  282.1891
 474  302.5225
 475  154.4852
 476  49.76347
 477  81.971
 478  214.6214
 479  225.9359
 480  282.7653
 481  362.6567
 482  439.6867
 483  358.4484
 484  236.5135
 485  233.9528
 486  248.5902
 487  241.3801
 488  200.9293
 489  291.4534
 490  296.9042
 491  276.1249
 492  211.6093
 493  208.8989
 494  110.0278
 495  74.2461
 496  110.1971
 497  180.7871
 498  60.62188
 499  22.82893
 500  18.12677
 501  98.64529
 502  132.8071
 503  188.8834
 504  229.1198
 505  173.7251
 506  127.7886
 507  70.32516
 508  67.54059
 509  106.6166
 510  75.5447
 511  120.5919
 512  155.8893
 513  208.5018
 514  154.7724
 515  87.30912
 516  73.85858
 517  69.21622
 518  88.74205
 519  158.752
 520  220.0643
 521  109.0272
 522  -27.27355
 523  -29.47145
 524  138.467
 525  226.3476
 526  264.4262
 527  267.3888
 528  279.7392
 529  193.3177
 530  99.8302
 531  46.02224
 532  105.255
 533  202.3773
 534  184.8867
 535  131.4348
 536  78.52287
 537  62.29246
 538  139.4151
 539  162.8967
 540  234.925
 541  250.0586
 542  288.751
 543  272.588
 544  286.2838
 545  245.6665
 546  256.6822
 547  184.7081
 548  103.6049
 549  3.351109
 550  -18.09439
 551  65.02146
 552  113.2808
 553  136.437
 554  75.03157
 555  144.6692
 556  167.929
 557  233.23
 558  201.2292
 559  165.2075
 560  155.069
 561  160.7722
 562  159.144
 563  97.39265
 564  114.8529
 565  98.07154
 566  138.1347
 567  59.09612
 568  102.8989
 569  134.2608
 570  251.6461
 571  335.0127
 572  335.2781
 573  311.7256
 574  282.772
 575  236.5566
 576  189.9003
 577  148.2859
 578  162.9843
 579  210.3254
 580  211.8686
 581  213.263
 582  255.4138
 583  259.6898
 584  212.7184
 585  207.7081
 586  270.7176
 587  356.0502
 588  348.1906
 589  234.3219
 590  196.6003
 591  147.8656
 592  193.4046
 593  181.4882
 594  214.7106
 595  246.3927
 596  256.8029
 597  289.0931
 598  310.6751
 599  322.9083
 600  327.751
 601  272.6652
 602  250.1719
 603  203.4619
 604  158.6417
 605  175.1884
 606  235.0996
 607  343.067
 608  360.9771
 609  328.818
 610  243.5592
 611  205.6974
 612  191.864
 613  226.1865
 614  283.5509
 615  250.0786
 616  165.4706
 617  210.2352
 618  240.9664
 619  317.2514
 620  310.6684
 621  353.1615
 622  385.6254
 623  431.0597
 624  459.2779
 625  434.2252
 626  456.9969
 627  517.2705
 628  495.1124
 629  508.016
 630  533.9513
 631  689.8702
 632  740.8109
 633  897.8684
 634  1052.549
 635  1080.763
 636  1148.616
 637  1096.329
 638  1101.322
 639  981.3794
 640  900.5237
 641  777.6365
 642  631.2283
 643  427.3155
 644  320.6287
 645  240.3949
 646  238.8759
 647  264.2211
 648  265.4476
 649  267.0325
 650  188.4633
 651  138.0212
 652  93.96852
 653  222.773
 654  355.8178
 655  368.6229
 656  234.3916
 657  199.4929
 658  217.2462
 659  217.1892
 660  221.3582
 661  230.1217
 662  316.0223
 663  264.1392
 664  184.5894
 665  179.4438
 666  250.0287
 667  401.3277
 668  459.6361
 669  420.9863
 670  281.9897
 671  156.5556
 672  175.896
 673  184.1187
 674  184.9004
 675  218.8408
 676  331.4875
 677  307.8312
 678  276.2395
 679  239.2196
 680  329.5517
 681  374.2554
 682  394.7038
 683  355.0311
 684  281.2613
 685  257.452
 686  269.6842
 687  292.5002
 688  274.6224
 689  322.1173
 690  295.3547
 691  322.444
 692  317.527
 693  394.6049
 694  370.0392
 695  204.4629
 696  185.501
 697  286.2183
 698  343.8887
 699  277.191
 700  220.343
 701  289.6298
 702  279.5519
 703  226.3252
 704  177.6127
 705  272.6489
 706  333.2175
 707  386.1161
 708  327.0406
 709  300.7765
 710  246.0226
 711  250.1918
 712  277.4695
 713  295.4669
 714  251.635
 715  222.9114
 716  193.3331
 717  227.7044
 718  215.5501
 719  272.5222
 720  266.5791
 721  311.381
 722  285.1858
 723  188.4562
 724  117.2034
 725  135.7666
 726  133.3196
 727  151.5329
 728  35.14678
 729  -7.378459
 730  -30.51122
 731  41.15385
 732  85.19926
 733  110.8013
 734  150.8162
 735  272.0838
 736  309.706
 737  241.1173
 738  164.6373
 739  122.9545
 740  224.169
 741  276.4447
 742  238.1443
 743  187.159
 744  165.194
 745  221.4629
 746  253.4912
 747  269.3034
 748  268.1768
 749  193.0804
 750  105.3598
 751  149.8659
 752  249.966
 753  323.2339
 754  313.743
 755  271.9029
 756  195.0504
 757  76.77422
 758  17.36883
 759  42.95598
 760  194.6574
 761  221.0856
 762  137.6483
 763  -52.70339
 764  -16.26122
 765  188.2298
 766  266.3282
 767  278.5088
 768  204.786
 769  271.7745
 770  287.7418
 771  319.3257
 772  348.1494
 773  362.6045
 774  318.4143
 775  262.1959
 776  181.9255
 777  169.6853
 778  168.341
 779  217.0795
 780  246.8608
 781  234.075
 782  263.6541
 783  222.672
 784  239.6453
 785  212.6628
 786  223.065
 787  235.9649
 788  212.9491
 789  184.7395
 790  236.2484
 791  239.5461
 792  217.7405
 793  120.6449
 794  164.9774
 795  216.8072
 796  206.1652
 797  229.3686
 798  244.156
 799  228.1116
 800  201.8934
 801  219.4449
 802  294.487
 803  365.429
 804  305.7076
 805  221.8134
 806  149.9133
 807  116.7868
 808  132.229
 809  123.9069
 810  120.5337
 811  70.84171
 812  39.87907
 813  105.2366
 814  182.7736
 815  198.009
 816  201.6296
 817  172.8756
 818  176.5712
 819  149.164
 820  28.47556
 821  35.05418
 822  56.81643
 823  186.9816
 824  274.0558
 825  236.8521
 826  232.9252
 827  260.0273
 828  286.6318
 829  246.2215
 830  286.5308
 831  240.2599
 832  280.9009
 833  220.9201
 834  326.83
 835  282.5412
 836  226.9409
 837  109.991
 838  102.0577
 839  114.0929
 840  108.6625
 841  124.4721
 842  170.2253
 843  221.9018
 844  244.0727
 845  329.2596
 846  375.9817
 847  342.6237
 848  289.0603
 849  243.0707
 850  248.1986
 851  163.1988
 852  94.20016
 853  111.6597
 854  81.8807
 855  141.0966
 856  141.257
 857  197.1276
 858  210.4115
 859  189.4653
 860  205.889
 861  210.9889
 862  184.8976
 863  166.5507
 864  92.81976
 865  181.4254
 866  169.7754
 867  253.697
 868  332.5905
 869  340.8192
 870  349.3381
 871  319.0944
 872  318.2253
 873  325.9232
 874  230.1406
 875  159.0928
 876  183.6512
 877  215.9805
 878  205.2352
 879  107.3469
 880  173.6936
 881  234.502
 882  381.9905
 883  398.5127
 884  322.7152
 885  241.011
 886  255.519
 887  279.5624
 888  269.7287
 889  237.4016
 890  291.4043
 891  278.4571
 892  245.5376
 893  119.9962
 894  91.68855
 895  45.94257
 896  136.7767
 897  127.5831
 898  151.5919
 899  176.7493
 900  201.6488
 901  212.4182
 902  200.3176
 903  292.2265
 904  307.2965
 905  331.7739
 906  274.8284
 907  284.6073
 908  170.8638
 909  111.5989
 910  85.98377
 911  147.6598
 912  262.9621
 913  254.4419
 914  264.948
 915  200.4898
 916  194.2668
 917  248.5255
 918  288.9372
 919  129.9811
 920  94.52432
 921  133.7504
 922  254.7303
 923  226.0603
 924  143.4582
 925  90.3355
 926  165.1114
 927  257.0139
 928  353.0593
 929  268.9852
 930  167.6903
 931  153.543
 932  242.9642
 933  318.2196
 934  371.9102
 935  409.3557
 936  519.9851
 937  467.2613
 938  449.0336
 939  416.6989
 940  345.1901
 941  286.2763
 942  192.1253
 943  269.7837
 944  308.6765
 945  339.0883
 946  285.3486
 947  236.2669
 948  199.2547
 949  164.1371
 950  156.7755
 951  197.9129
 952  257.5664
 953  290.9846
 954  193.4978
 955  223.0632
 956  285.5016
 957  400.5242
 958  387.8936
 959  349.4897
 960  232.6747
 961  175.6014
 962  105.3244
 963  213.0042
 964  154.6094
 965  215.867
 966  242.2291
 967  248.9156
 968  251.3798
 969  249.9782
 970  217.5446
 971  220.9878
 972  219.1627
 973  262.8443
 974  201.1882
 975  246.552
 976  235.8524
 977  93.0947
 978  28.89043
 979  57.30056
 980  167.9135
 981  141.4933
 982  215.8385
 983  282.8047
 984  205.9801
 985  234.2325
 986  180.4524
 987  214.1766
 988  200.6534
 989  223.1672
 990  209.2556
 991  70.50343
 992  120.678
 993  201.6881
 994  270.8308
 995  235.3343
 996  203.8878
 997  127.4922
 998  117.5362
 999  112.998
1000  210.6873
1001  232.1384
1002  287.7704
1003  284.1414
1004  341.8083
1005  343.566
1006  354.6381
1007  276.9304
1008  197.5763
1009  209.4699
1010  189.4489
1011  220.497
1012  224.3762
1013  141.5717
1014  172.0015
1015  209.7777
1016  216.0119
1017  115.018
1018  1.384514
1019  117.307
1020  202.5671
1021  333.369
1022  356.3358
1023  287.4467
