# Input file       =  1192471422.139069_cleaned.dat
# Candidate        =  PSR_0332+5434
# Telescope        =  AR
# Epoch_topo       =  58045.752790961451
# Epoch_bary       =  N/A
# T_sample         =  0.002
# Data Folded      =  7143424
# Data Avg         =  0.0495138658827958
# Data StdDev      =  2.61990556964437 
# Profile Bins     =  512
# Profile Avg      =  690.815669458046 
# Profile StdDev   =  309.459537362553 
# Reduced chi-sqr  =  1.296
# Prob(Noise)      <  6.68e-06   (~4.4 sigma)
# P_topo (ms)      =  714.485169942692  +/- 0.000245
# P'_topo (s/s)    =  -0                +/- 1.33e-10
# P''_topo (s/s^2) =  0                 +/- 6.03e-14
# P_bary (ms)      =  N/A
# P'_bary (s/s)    =  N/A
# P''_bary (s/s^2) =  N/A
# P_orb (s)        =  N/A
# asin(i)/c (s)    =  N/A
# eccentricity     =  N/A
# w (rad)          =  N/A
# T_peri           =  N/A
######################################################
   0  698.7831
   1  273.3843
   2  435.0227
   3  573.7547
   4  622.8067
   5  742.342
   6  877.7175
   7  733.3099
   8  1072.451
   9  995.2534
  10  657.8989
  11  842.1946
  12  997.5374
  13  1032.471
  14  1036.771
  15  779.0139
  16  434.2151
  17  506.1088
  18  818.5839
  19  787.8373
  20  767.3384
  21  970.9705
  22  994.8389
  23  853.2526
  24  706.7568
  25  870.6462
  26  870.3436
  27  649.9755
  28  571.2899
  29  791.9304
  30  705.363
  31  875.4773
  32  1025.218
  33  848.1219
  34  753.7327
  35  562.0978
  36  851.5255
  37  663.8089
  38  545.8229
  39  808.1377
  40  869.6422
  41  1013.654
  42  722.6384
  43  780.2197
  44  959.3193
  45  1055.035
  46  1212.871
  47  969.824
  48  652.5529
  49  359.8785
  50  499.156
  51  727.2881
  52  665.6847
  53  760.2357
  54  784.9689
  55  650.6608
  56  495.2586
  57  575.2188
  58  672.9963
  59  733.1654
  60  820.4855
  61  384.489
  62  315.6965
  63  711.5938
  64  345.637
  65  628.4051
  66  479.2184
  67  576.516
  68  627.4074
  69  864.5506
  70  788.7142
  71  315.209
  72  412.2762
  73  671.9372
  74  619.8143
  75  658.0984
  76  817.3187
  77  921.4341
  78  954.2485
  79  796.4247
  80  929.2857
  81  702.2291
  82  392.4608
  83  740.234
  84  625.7016
  85  677.5735
  86  787.1283
  87  666.6885
  88  803.9509
  89  740.356
  90  880.2404
  91  772.6902
  92  604.3865
  93  420.4001
  94  372.9223
  95  810.8773
  96  814.6212
  97  856.3517
  98  1320.53
  99  1225.54
 100  873.5339
 101  879.6373
 102  841.465
 103  618.8152
 104  599.0204
 105  523.4596
 106  757.566
 107  720.1909
 108  553.1145
 109  644.0368
 110  771.8187
 111  665.8199
 112  722.3071
 113  824.3954
 114  747.2119
 115  630.1071
 116  653.7024
 117  838.4581
 118  706.3967
 119  593.1147
 120  411.2094
 121  564.6327
 122  587.6628
 123  358.7313
 124  837.0262
 125  825.3944
 126  842.5101
 127  1009.222
 128  945.1714
 129  965.1864
 130  706.6583
 131  722.4059
 132  663.5295
 133  547.0228
 134  696.8921
 135  717.6901
 136  722.6743
 137  940.0715
 138  813.8172
 139  636.6013
 140  519.1638
 141  577.7055
 142  670.7849
 143  690.3659
 144  1103.897
 145  1031.749
 146  1064.741
 147  1003.004
 148  833.6719
 149  790.0452
 150  478.0309
 151  554.3804
 152  830.5571
 153  522.6417
 154  676.2416
 155  648.695
 156  686.9175
 157  615.1805
 158  727.9189
 159  860.292
 160  798.8488
 161  828.3777
 162  905.7099
 163  855.4574
 164  482.4487
 165  340.8738
 166  503.3945
 167  614.4652
 168  728.456
 169  1063.441
 170  863.2867
 171  759.8109
 172  806.2295
 173  713.969
 174  919.3061
 175  637.6794
 176  534.5161
 177  827.9699
 178  430.6406
 179  689.0292
 180  816.2894
 181  680.9071
 182  320.9186
 183  673.3619
 184  1060.387
 185  681.1107
 186  385.2127
 187  463.7271
 188  408.739
 189  528.608
 190  598.9429
 191  655.5237
 192  782.238
 193  758.0373
 194  339.4176
 195  396.782
 196  569.5535
 197  699.4221
 198  734.1377
 199  584.8235
 200  743.9619
 201  693.2194
 202  137.8298
 203  387.4212
 204  522.9871
 205  620.917
 206  612.3174
 207  506.3127
 208  796.6445
 209  515.7983
 210  623.6179
 211  471.7651
 212  396.7661
 213  272.9204
 214  557.2386
 215  617.5823
 216  653.8154
 217  557.4602
 218  730.196
 219  826.0306
 220  610.6312
 221  875.5592
 222  796.4418
 223  799.8799
 224  846.8665
 225  855.6334
 226  786.8116
 227  436.0286
 228  875.9908
 229  814.641
 230  567.7809
 231  503.3706
 232  621.3986
 233  592.682
 234  444.7458
 235  489.436
 236  385.3575
 237  242.8154
 238  672.5803
 239  475.7397
 240  499.4245
 241  497.909
 242  439.6892
 243  353.7595
 244  362.2625
 245  621.587
 246  894.9396
 247  747.5858
 248  483.08
 249  724.1623
 250  314.5403
 251  497.0949
 252  689.729
 253  744.4362
 254  801.3843
 255  575.8882
 256  956.9492
 257  704.4503
 258  411.3665
 259  302.748
 260  302.8895
 261  460.6979
 262  642.0134
 263  600.7256
 264  424.116
 265  574.8185
 266  478.4526
 267  461.3554
 268  448.3515
 269  538.0134
 270  665.8215
 271  735.2054
 272  979.272
 273  982.8362
 274  609.6674
 275  643.544
 276  719.8901
 277  952.4307
 278  645.1749
 279  416.4254
 280  464.9431
 281  638.0247
 282  564.9962
 283  529.7375
 284  719.3685
 285  559.4728
 286  437.1273
 287  499.5608
 288  1061.051
 289  953.6356
 290  577.0228
 291  617.89
 292  780.4454
 293  941.0913
 294  943.9166
 295  871.0468
 296  534.9356
 297  409.2918
 298  704.565
 299  909.5611
 300  984.6795
 301  834.2337
 302  682.1579
 303  743.5645
 304  632.452
 305  777.8522
 306  698.6285
 307  875.5933
 308  931.5111
 309  941.3426
 310  877.6809
 311  997.0634
 312  1326.313
 313  1283.447
 314  1234.871
 315  1201.346
 316  1838.57
 317  2356.888
 318  2531.983
 319  2682.581
 320  1998.582
 321  1568.706
 322  1067.169
 323  960.2619
 324  847.8903
 325  374.6522
 326  516.037
 327  515.6815
 328  673.1353
 329  613.4125
 330  653.1188
 331  837.8071
 332  971.4384
 333  1013.927
 334  877.3851
 335  782.21
 336  551.5844
 337  521.6468
 338  502.9905
 339  679.6578
 340  562.876
 341  376.9772
 342  530.4763
 343  534.5445
 344  625.3915
 345  617.4501
 346  635.1439
 347  581.7457
 348  327.7088
 349  753.9494
 350  734.4665
 351  316.2409
 352  338.5612
 353  469.8022
 354  531.3638
 355  639.4401
 356  724.1093
 357  736.0671
 358  744.9919
 359  613.7645
 360  489.7391
 361  539.9083
 362  569.3822
 363  640.6076
 364  702.6297
 365  680.5756
 366  880.1607
 367  674.3442
 368  775.6826
 369  781.0734
 370  426.9928
 371  727.0356
 372  1035.177
 373  561.2862
 374  521.4252
 375  743.5747
 376  950.4682
 377  785.0363
 378  758.1661
 379  510.0171
 380  556.6434
 381  735.8953
 382  487.8322
 383  524.4641
 384  607.5138
 385  658.3849
 386  617.6243
 387  361.9527
 388  279.5795
 389  468.4692
 390  707.0724
 391  506.0755
 392  755.3196
 393  600.3187
 394  586.3741
 395  609.1899
 396  692.2958
 397  636.9466
 398  418.8597
 399  329.3098
 400  607.0802
 401  528.4241
 402  709.3213
 403  850.5611
 404  619.5864
 405  889.5773
 406  1088.007
 407  581.5743
 408  777.2493
 409  639.0616
 410  536.6331
 411  281.9874
 412  453.7843
 413  625.12
 414  498.6187
 415  451.9818
 416  490.942
 417  788.2488
 418  549.4644
 419  490.4348
 420  625.1743
 421  438.4738
 422  447.8646
 423  473.5172
 424  726.1697
 425  615.3308
 426  685.5634
 427  514.2601
 428  581.2724
 429  638.2037
 430  713.3525
 431  883.0469
 432  652.4927
 433  681.0438
 434  510.1829
 435  230.7698
 436  304.667
 437  456.4944
 438  549.4181
 439  602.4422
 440  740.9537
 441  507.3844
 442  507.3893
 443  307.2296
 444  207.1932
 445  409.6738
 446  556.5184
 447  739.733
 448  694.6725
 449  658.3075
 450  694.8619
 451  458.8663
 452  728.3576
 453  793.6541
 454  733.1057
 455  622.8374
 456  414.1477
 457  950.4759
 458  1062.217
 459  984.4164
 460  780.567
 461  770.9023
 462  618.2296
 463  791.2516
 464  971.1478
 465  356.7071
 466  582.0821
 467  824.8876
 468  849.9211
 469  677.1219
 470  516.5582
 471  783.4588
 472  752.6714
 473  651.9867
 474  663.5225
 475  663.6025
 476  754.8912
 477  850.8593
 478  717.1509
 479  770.1732
 480  702.0933
 481  809.263
 482  841.3687
 483  349.7718
 484  567.431
 485  655.7761
 486  622.2839
 487  526.4194
 488  643.8463
 489  628.5811
 490  783.9659
 491  794.8372
 492  672.3106
 493  473.9611
 494  439.5649
 495  520.3646
 496  568.573
 497  548.8395
 498  708.774
 499  767.3312
 500  717.1982
 501  551.2842
 502  405.5529
 503  505.3621
 504  600.6374
 505  822.8584
 506  524.1893
 507  561.1425
 508  482.195
 509  541.0273
 510  1028.083
 511  991.2294
