# Input file       =  1192916781.138746_cleaned.dat
# Candidate        =  PSR_0332+5434
# Telescope        =  AR
# Epoch_topo       =  58050.907409013264
# Epoch_bary       =  N/A
# T_sample         =  0.002
# Data Folded      =  7340032
# Data Avg         =  0.0476509759817938
# Data StdDev      =  2.40012852933315 
# Profile Bins     =  512
# Profile Avg      =  683.19035771685  
# Profile StdDev   =  287.37467651156  
# Reduced chi-sqr  =  1.464
# Prob(Noise)      <  3.38e-11   (~6.5 sigma)
# P_topo (ms)      =  714.489437089079  +/- 0.000286
# P'_topo (s/s)    =  -0                +/- 1.51e-10
# P''_topo (s/s^2) =  0                 +/- 6.66e-14
# P_bary (ms)      =  N/A
# P'_bary (s/s)    =  N/A
# P''_bary (s/s^2) =  N/A
# P_orb (s)        =  N/A
# asin(i)/c (s)    =  N/A
# eccentricity     =  N/A
# w (rad)          =  N/A
# T_peri           =  N/A
######################################################
   0  707.3286
   1  921.9081
   2  892.6714
   3  924.9546
   4  802.9225
   5  940.4379
   6  1226.351
   7  964.8367
   8  1013.094
   9  755.4918
  10  827.7664
  11  708.658
  12  761.1282
  13  1217.652
  14  1079.577
  15  600.6752
  16  434.6083
  17  727.2139
  18  540.3754
  19  564.3382
  20  1034.254
  21  901.7665
  22  989.0745
  23  769.7979
  24  440.716
  25  326.7818
  26  527.6088
  27  938.9607
  28  616.4302
  29  813.1204
  30  903.3563
  31  443.2443
  32  437.4315
  33  834.5002
  34  778.2347
  35  370.1035
  36  555.8999
  37  699.8531
  38  775.9859
  39  771.951
  40  819.3882
  41  951.5125
  42  545.4059
  43  526.443
  44  617.2146
  45  629.6038
  46  700.0322
  47  768.3493
  48  827.2933
  49  673.8668
  50  517.5223
  51  736.7598
  52  768.576
  53  654.8372
  54  728.8049
  55  804.7429
  56  637.652
  57  765.5562
  58  629.0677
  59  883.7444
  60  775.8069
  61  327.4252
  62  434.6045
  63  492.797
  64  927.732
  65  704.7755
  66  390.3773
  67  306.0449
  68  253.6999
  69  258.035
  70  483.7097
  71  568.5273
  72  607.0174
  73  833.8401
  74  712.3417
  75  758.0572
  76  828.8631
  77  803.2365
  78  570.158
  79  748.7889
  80  452.2635
  81  480.3297
  82  487.6756
  83  651.7144
  84  674.1546
  85  604.5345
  86  551.8681
  87  655.6415
  88  558.2782
  89  781.1456
  90  501.4808
  91  465.0247
  92  489.9476
  93  327.1801
  94  555.922
  95  785.0704
  96  863.389
  97  624.803
  98  674.1387
  99  735.185
 100  661.7598
 101  494.0462
 102  388.0193
 103  442.4406
 104  543.2701
 105  619.5681
 106  740.9333
 107  275.0664
 108  112.8853
 109  402.0015
 110  558.9603
 111  607.6649
 112  825.1805
 113  781.1762
 114  507.8282
 115  514.8794
 116  798.6381
 117  565.6428
 118  262.8295
 119  380.6546
 120  840.1387
 121  921.3879
 122  985.0475
 123  979.1388
 124  766.4653
 125  718.0593
 126  783.5368
 127  597.6334
 128  501.299
 129  573.4761
 130  705.8287
 131  532.118
 132  835.5844
 133  486.0242
 134  538.2382
 135  499.1751
 136  935.0854
 137  977.4247
 138  845.3321
 139  680.6343
 140  669.7436
 141  746.2019
 142  736.462
 143  653.2285
 144  974.4214
 145  687.121
 146  506.3177
 147  568.8282
 148  666.6468
 149  699.4837
 150  711.7065
 151  507.9934
 152  464.7598
 153  356.0731
 154  216.5194
 155  395.698
 156  596.3104
 157  497.9676
 158  496.3132
 159  160.5685
 160  106.2444
 161  103.572
 162  313.1509
 163  477.5331
 164  347.2917
 165  505.1711
 166  631.8168
 167  396.0849
 168  184.2884
 169  501.6652
 170  575.6437
 171  508.3509
 172  580.5416
 173  725.3962
 174  785.9738
 175  756.8099
 176  652.0753
 177  835.7407
 178  679.2224
 179  818.5411
 180  776.2634
 181  866.1556
 182  642.6058
 183  588.5696
 184  444.9505
 185  279.2008
 186  556.52
 187  610.7031
 188  531.436
 189  467.8026
 190  668.8394
 191  896.3555
 192  584.9483
 193  514.6923
 194  545.1313
 195  852.3619
 196  598.9256
 197  512.2726
 198  592.1882
 199  383.6058
 200  471.5122
 201  748.735
 202  668.3248
 203  345.597
 204  314.7934
 205  447.8037
 206  780.8961
 207  552.173
 208  577.8295
 209  712.7166
 210  694.7275
 211  730.9744
 212  941.1888
 213  856.8916
 214  564.54
 215  676.1939
 216  753.7048
 217  701.9059
 218  577.0284
 219  777.0246
 220  751.9191
 221  360.8098
 222  683.3557
 223  411.3735
 224  640.1172
 225  777.536
 226  784.1463
 227  620.2279
 228  700.2595
 229  786.5343
 230  737.0176
 231  822.4233
 232  750.8712
 233  722.825
 234  546.7995
 235  527.411
 236  567.9048
 237  852.7917
 238  682.9909
 239  470.2974
 240  952.8386
 241  755.0486
 242  685.9185
 243  547.1306
 244  681.9886
 245  781.6002
 246  778.5624
 247  1014.958
 248  858.8588
 249  668.1426
 250  323.3605
 251  637.7015
 252  632.2348
 253  810.8084
 254  506.2221
 255  590.8937
 256  641.1757
 257  574.7979
 258  723.6776
 259  676.2685
 260  467.6359
 261  286.0029
 262  535.7568
 263  737.2717
 264  732.5918
 265  472.3895
 266  483.3178
 267  857.3372
 268  686.6579
 269  977.294
 270  598.1915
 271  429.8834
 272  822.1353
 273  859.4878
 274  772.2433
 275  800.4979
 276  527.4453
 277  775.2322
 278  1016.356
 279  864.5253
 280  857.2193
 281  738.0744
 282  1032.543
 283  963.8718
 284  986.0892
 285  653.3599
 286  671.4247
 287  614.6902
 288  589.7658
 289  739.9258
 290  899.2476
 291  1051.991
 292  1035.813
 293  1056.023
 294  952.9286
 295  702.2618
 296  531.2753
 297  450.3632
 298  635.5794
 299  1056.106
 300  937.6454
 301  666.2982
 302  583.9569
 303  590.8192
 304  488.4653
 305  531.1913
 306  552.852
 307  752.2341
 308  823.9407
 309  832.0956
 310  657.9472
 311  890.6312
 312  816.838
 313  636.204
 314  537.4444
 315  786.5886
 316  671.35
 317  376.7849
 318  356.7318
 319  555.0462
 320  652.0822
 321  698.5494
 322  937.8861
 323  819.3547
 324  527.7664
 325  648.2317
 326  525.0607
 327  844.6615
 328  625.444
 329  626.8984
 330  853.6637
 331  809.246
 332  783.4201
 333  962.9211
 334  913.9111
 335  436.4751
 336  586.1583
 337  615.6513
 338  637.9889
 339  809.6844
 340  609.7324
 341  777.4285
 342  819.1241
 343  1007.879
 344  728.6791
 345  371.0602
 346  657.9598
 347  463.6453
 348  767.5859
 349  840.89
 350  657.7267
 351  522.481
 352  392.765
 353  464.1722
 354  545.4484
 355  563.9291
 356  748.2871
 357  507.1391
 358  582.3749
 359  455.0696
 360  657.0706
 361  840.6209
 362  960.9683
 363  731.4468
 364  727.6214
 365  934.2384
 366  399.7658
 367  385.9448
 368  570.6088
 369  648.5081
 370  766.6857
 371  552.4923
 372  713.4837
 373  611.0802
 374  889.7021
 375  879.9539
 376  518.2698
 377  266.2361
 378  449.3087
 379  391.5401
 380  564.6489
 381  756.9916
 382  530.7441
 383  734.4258
 384  648.1031
 385  654.1004
 386  747.0651
 387  439.4475
 388  470.507
 389  513.1446
 390  725.4459
 391  760.4078
 392  735.5188
 393  605.7507
 394  703.6793
 395  797.17
 396  607.5718
 397  611.5651
 398  537.364
 399  649.1755
 400  766.5095
 401  507.8852
 402  585.7949
 403  693.0126
 404  504.8588
 405  603.9382
 406  579.4789
 407  331.0785
 408  398.6367
 409  652.0155
 410  788.8751
 411  670.7906
 412  681.1332
 413  480.9034
 414  568.3553
 415  427.2192
 416  693.9043
 417  659.4377
 418  528.0845
 419  708.363
 420  524.7756
 421  820.4722
 422  625.6747
 423  730.4545
 424  491.1974
 425  467.9229
 426  652.138
 427  755.408
 428  702.4082
 429  613.6941
 430  438.5414
 431  668.3477
 432  853.5909
 433  661.4484
 434  599.106
 435  527.0395
 436  650.7449
 437  639.3002
 438  697.0533
 439  570.1468
 440  599.5223
 441  752.3307
 442  408.2765
 443  386.5928
 444  628.7379
 445  754.7848
 446  420.5318
 447  338.2343
 448  533.3111
 449  574.3181
 450  460.6809
 451  514.0729
 452  653.8453
 453  607.3879
 454  759.3732
 455  593.1266
 456  702.5448
 457  683.7827
 458  796.4353
 459  717.7228
 460  637.3461
 461  573.713
 462  688.0869
 463  437.1127
 464  474.3922
 465  669.0955
 466  773.4459
 467  836.1586
 468  769.0945
 469  945.9152
 470  996.4749
 471  866.0058
 472  1066.393
 473  992.8797
 474  1213.127
 475  1389.828
 476  1911.96
 477  2651.089
 478  2517.049
 479  2367.583
 480  1916.567
 481  1505.248
 482  1154.587
 483  1115.143
 484  996.8124
 485  963.3271
 486  1015.754
 487  786.4091
 488  780.7473
 489  845.7459
 490  972.1311
 491  772.7936
 492  1017.002
 493  788.8231
 494  402.4931
 495  442.3837
 496  661.5768
 497  801.2258
 498  725.582
 499  640.7312
 500  431.0142
 501  490.5082
 502  831.4509
 503  868.0468
 504  942.4913
 505  742.3437
 506  916.5052
 507  998.1058
 508  796.361
 509  701.098
 510  910.631
 511  961.5851
