# Input file       =  1192243009.129_cleaned.dat
# Candidate        =  PSR_0332+5434
# Telescope        =  AR
# Epoch_topo       =  58043.109121863425
# Epoch_bary       =  N/A
# T_sample         =  0.002
# Data Folded      =  7340032
# Data Avg         =  0.038134125956276
# Data StdDev      =  3.0525490028585  
# Profile Bins     =  512
# Profile Avg      =  546.663537183235 
# Profile StdDev   =  365.490960801118 
# Reduced chi-sqr  =  0.995
# Prob(Noise)      <  0.526   (~0.0 sigma)
# P_topo (ms)      =  714.483470988234  +/- 0.000303
# P'_topo (s/s)    =  -0                +/- 1.6e-10
# P''_topo (s/s^2) =  0                 +/- 7.05e-14
# P_bary (ms)      =  N/A
# P'_bary (s/s)    =  N/A
# P''_bary (s/s^2) =  N/A
# P_orb (s)        =  N/A
# asin(i)/c (s)    =  N/A
# eccentricity     =  N/A
# w (rad)          =  N/A
# T_peri           =  N/A
######################################################
   0  702.7015
   1  654.6947
   2  332.5674
   3  230.8994
   4  546.2724
   5  555.9069
   6  377.6065
   7  382.7896
   8  513.1559
   9  194.9597
  10  211.1322
  11  182.9563
  12  560.1929
  13  290.9362
  14  500.9413
  15  470.5255
  16  427.5392
  17  409.096
  18  437.7679
  19  487.1155
  20  393.318
  21  280.3583
  22  276.1608
  23  510.8345
  24  613.2729
  25  433.6354
  26  526.3766
  27  384.6576
  28  542.9601
  29  415.2317
  30  618.6379
  31  659.22
  32  315.8328
  33  375.3441
  34  472.4487
  35  489.4135
  36  600.4824
  37  823.0676
  38  873.6115
  39  708.3898
  40  773.8382
  41  742.3192
  42  664.0803
  43  869.7563
  44  928.1093
  45  907.7399
  46  969.4689
  47  1025.553
  48  622.5668
  49  432.3811
  50  658.2881
  51  894.5361
  52  917.2037
  53  654.9402
  54  786.9905
  55  780.1478
  56  610.3478
  57  961.3207
  58  760.4026
  59  498.0783
  60  546.0469
  61  380.0716
  62  601.8307
  63  649.1752
  64  436.5008
  65  316.3414
  66  790.0986
  67  796.202
  68  701.8176
  69  680.0666
  70  656.2353
  71  689.5029
  72  679.9712
  73  1059.676
  74  899.902
  75  645.7979
  76  761.6722
  77  684.3437
  78  599.4052
  79  701.1054
  80  766.7581
  81  580.0024
  82  607.1989
  83  700.4096
  84  839.8726
  85  610.4737
  86  414.8929
  87  636.3476
  88  732.9802
  89  746.3555
  90  458.4305
  91  504.5371
  92  765.2729
  93  891.1618
  94  910.8503
  95  938.5167
  96  903.9799
  97  796.3109
  98  689.5646
  99  503.2199
 100  611.3076
 101  592.4912
 102  685.1658
 103  662.0101
 104  412.1184
 105  718.7443
 106  676.6391
 107  992.3925
 108  762.8556
 109  715.5219
 110  638.9881
 111  794.1144
 112  886.0443
 113  688.2891
 114  394.1594
 115  401.7649
 116  516.8279
 117  380.9256
 118  183.9637
 119  415.6638
 120  339.3741
 121  808.4791
 122  949.0408
 123  573.0275
 124  714.9659
 125  714.2364
 126  669.9876
 127  472.3455
 128  698.6487
 129  880.8903
 130  821.4572
 131  660.6516
 132  771.6746
 133  833.7483
 134  874.0752
 135  930.6938
 136  593.0212
 137  562.7354
 138  586.9637
 139  406.214
 140  762.1841
 141  696.5733
 142  533.2213
 143  583.1959
 144  679.7366
 145  537.0112
 146  470.441
 147  454.2274
 148  307.1171
 149  660.929
 150  872.6607
 151  914.5297
 152  576.3529
 153  190.5799
 154  273.2777
 155  716.1409
 156  762.8507
 157  450.1945
 158  647.6638
 159  830.6951
 160  942.5179
 161  581.8008
 162  540.0557
 163  365.26
 164  628.3566
 165  730.5231
 166  693.8438
 167  749.34
 168  526.4003
 169  561.2624
 170  659.0438
 171  606.4565
 172  568.9032
 173  752.9841
 174  388.5385
 175  379.8311
 176  403.4848
 177  499.6384
 178  456.5715
 179  441.1811
 180  890.3939
 181  1334.779
 182  950.7156
 183  675.0735
 184  355.9438
 185  371.4088
 186  484.6721
 187  438.1622
 188  449.3239
 189  471.057
 190  145.0599
 191  390.4981
 192  463.7993
 193  635.1216
 194  632.084
 195  860.441
 196  879.1547
 197  748.8214
 198  782.702
 199  648.8256
 200  805.6334
 201  993.5797
 202  762.9813
 203  652.2206
 204  930.0952
 205  754.4456
 206  262.2047
 207  200.6559
 208  538.8925
 209  548.0323
 210  475.7425
 211  555.7121
 212  387.6988
 213  533.7424
 214  617.4861
 215  467.3727
 216  664.5278
 217  491.8476
 218  337.9018
 219  247.9403
 220  333.0009
 221  500.7719
 222  589.1023
 223  710.2267
 224  590.0663
 225  142.549
 226  236.7204
 227  234.7184
 228  643.7216
 229  973.6801
 230  833.4321
 231  529.624
 232  225.2575
 233  618.0732
 234  517.1725
 235  484.5249
 236  352.8103
 237  307.762
 238  585.7745
 239  409.9386
 240  314.1083
 241  47.61886
 242  349.5908
 243  480.5281
 244  459.1233
 245  227.917
 246  99.19798
 247  401.9185
 248  237.3743
 249  344.743
 250  217.09
 251  314.1684
 252  301.4519
 253  182.0556
 254  73.49525
 255  81.74026
 256  405.0419
 257  567.1815
 258  484.6794
 259  363.1511
 260  513.3083
 261  574.9586
 262  406.6439
 263  245.0175
 264  37.75645
 265  702.6547
 266  769.8087
 267  368.611
 268  218.0751
 269  430.3534
 270  273.0447
 271  248.3698
 272  197.7559
 273  191.6502
 274  324.2512
 275  405.2698
 276  320.7374
 277  316.7228
 278  418.1915
 279  629.5499
 280  466.1988
 281  241.5117
 282  325.8045
 283  127.9989
 284  44.41238
 285  63.16151
 286  150.1684
 287  447.3645
 288  566.389
 289  138.742
 290  196.7327
 291  276.6918
 292  598.0289
 293  654.2006
 294  513.9219
 295  857.025
 296  589.4646
 297  457.631
 298  636.0333
 299  677.8006
 300  919.2728
 301  1062.496
 302  823.2292
 303  239.5801
 304  479.3908
 305  598.4448
 306  411.3637
 307  467.6126
 308  789.9339
 309  893.4612
 310  993.582
 311  1032.746
 312  707.8608
 313  620.0757
 314  700.5587
 315  1089.796
 316  1346.275
 317  2069.408
 318  2085.917
 319  2044.144
 320  1756.403
 321  1098.559
 322  478.9514
 323  337.0901
 324  262.0305
 325  239.8511
 326  375.1915
 327  422.5846
 328  362.3037
 329  841.5833
 330  879.5609
 331  703.2042
 332  653.4956
 333  727.5075
 334  858.8524
 335  738.3077
 336  440.6985
 337  407.0967
 338  637.9254
 339  664.4703
 340  749.6109
 341  1010.754
 342  574.1533
 343  463.8027
 344  588.3913
 345  773.2796
 346  369.9003
 347  442.2268
 348  682.9154
 349  568.3115
 350  204.068
 351  284.4353
 352  540.9469
 353  547.2139
 354  411.7818
 355  369.2776
 356  309.9568
 357  232.2306
 358  258.0006
 359  856.2019
 360  659.8718
 361  426.0886
 362  495.3796
 363  406.4317
 364  448.0587
 365  541.0548
 366  871.0687
 367  721.4497
 368  524.1657
 369  439.3037
 370  393.8053
 371  272.884
 372  296.3097
 373  449.6582
 374  527.2118
 375  259.5586
 376  452.6338
 377  167.0618
 378  271.1817
 379  265.4391
 380  138.1608
 381  313.1616
 382  429.1269
 383  740.9083
 384  553.2758
 385  756.0244
 386  536.3517
 387  478.8423
 388  453.4438
 389  424.5292
 390  434.5507
 391  394.8523
 392  508.7253
 393  281.1217
 394  330.8929
 395  245.8914
 396  122.4887
 397  -5.238224
 398  554.4697
 399  887.0899
 400  913.6673
 401  733.4141
 402  783.0105
 403  580.2115
 404  433.4906
 405  482.4022
 406  371.5725
 407  532.8175
 408  636.1994
 409  726.8951
 410  562.5861
 411  541.1922
 412  373.9603
 413  625.5021
 414  402.1559
 415  483.9749
 416  661.3972
 417  482.6977
 418  452.422
 419  585.9601
 420  622.0904
 421  427.5925
 422  225.8459
 423  268.1622
 424  368.8438
 425  423.6464
 426  352.3391
 427  337.327
 428  531.813
 429  536.4089
 430  358.2174
 431  327.3109
 432  109.2207
 433  579.983
 434  695.6562
 435  410.719
 436  463.8655
 437  699.9897
 438  424.6157
 439  497.1894
 440  535.7164
 441  848.7059
 442  570.2572
 443  466.0205
 444  274.4377
 445  66.08245
 446  345.0704
 447  220.771
 448  353.2374
 449  235.625
 450  126.3616
 451  273.0511
 452  130.7252
 453  180.9191
 454  324.9621
 455  320.127
 456  595.1147
 457  332.7096
 458  -45.64445
 459  -149.6127
 460  544.8834
 461  432.3031
 462  445.1173
 463  303.7379
 464  151.1862
 465  -43.13565
 466  -27.79772
 467  124.598
 468  433.474
 469  501.3279
 470  612.7215
 471  685.7816
 472  652.9986
 473  491.9629
 474  331.4516
 475  652.3845
 476  776.4272
 477  615.0807
 478  372.3582
 479  299.6788
 480  410.0455
 481  484.6295
 482  879.0327
 483  590.6966
 484  522.8309
 485  593.3519
 486  825.7137
 487  653.4613
 488  506.7711
 489  525.4909
 490  331.5092
 491  258.6721
 492  114.8168
 493  574.4987
 494  807.7561
 495  500.187
 496  663.4656
 497  419.4688
 498  344.9246
 499  574.1063
 500  1007.983
 501  433.3778
 502  495.2953
 503  685.2792
 504  544.4879
 505  738.0275
 506  924.4197
 507  749.2047
 508  904.5253
 509  817.4083
 510  720.367
 511  805.181
