# Input file       =  1192816011.146538_cleaned.dat
# Candidate        =  PSR_0332+5434
# Telescope        =  AR
# Epoch_topo       =  58049.741089659008
# Epoch_bary       =  N/A
# T_sample         =  0.002
# Data Folded      =  7143424
# Data Avg         =  0.111888325492288
# Data StdDev      =  3.13487629656003 
# Profile Bins     =  512
# Profile Avg      =  1560.97997412284 
# Profile StdDev   =  370.287150675429 
# Reduced chi-sqr  =  1.029
# Prob(Noise)      <  0.314   (~0.5 sigma)
# P_topo (ms)      =  714.488437803043  +/- 0.000122
# P'_topo (s/s)    =  -0                +/- 6.62e-11
# P''_topo (s/s^2) =  0                 +/- 3e-14
# P_bary (ms)      =  N/A
# P'_bary (s/s)    =  N/A
# P''_bary (s/s^2) =  N/A
# P_orb (s)        =  N/A
# asin(i)/c (s)    =  N/A
# eccentricity     =  N/A
# w (rad)          =  N/A
# T_peri           =  N/A
######################################################
   0  1516.691
   1  1517.946
   2  1191.754
   3  1602.436
   4  1567.341
   5  1732.644
   6  1775.028
   7  2067.001
   8  1831.503
   9  1506.096
  10  1200.09
  11  1312.238
  12  1668.023
  13  1609.603
  14  1765.418
  15  1782.588
  16  1406.449
  17  1314.66
  18  1516.783
  19  998.0909
  20  1473.997
  21  1843.326
  22  1811.33
  23  1344.625
  24  1445.627
  25  1633.44
  26  1581.051
  27  1526.919
  28  1654.881
  29  1732.352
  30  1799.91
  31  1779.236
  32  1726.413
  33  1452.31
  34  1427.32
  35  1423.495
  36  1656.215
  37  1573.219
  38  2009.338
  39  1378.84
  40  1259.105
  41  1445.217
  42  1160.559
  43  1426.326
  44  1506.14
  45  1653.364
  46  1734.266
  47  1551.585
  48  1515.455
  49  1535.75
  50  1454.661
  51  1690.136
  52  1849.215
  53  1648.625
  54  1412.059
  55  1134.336
  56  1327.317
  57  1486.117
  58  1491.579
  59  1656.532
  60  2152.259
  61  1834.482
  62  1578.615
  63  1599.855
  64  1430.261
  65  1639.031
  66  1944.018
  67  1575.411
  68  1595.631
  69  1288.996
  70  1362.474
  71  1347.557
  72  1355.447
  73  1328.75
  74  1353.868
  75  1572.125
  76  1204.672
  77  1311.843
  78  1462.378
  79  1849.146
  80  1653.096
  81  1894.48
  82  1910.668
  83  1616.777
  84  1830.603
  85  2032.454
  86  1847.979
  87  1651.902
  88  1470.167
  89  1671.349
  90  1581.516
  91  1667.579
  92  1598.27
  93  1083.885
  94  1349.325
  95  1448.063
  96  1472.286
  97  1405.264
  98  1258.068
  99  1160.342
 100  1303.553
 101  1565.287
 102  1682.475
 103  1568.416
 104  1459.557
 105  1562.459
 106  1177.227
 107  1542.446
 108  1421.21
 109  1549.348
 110  1831.403
 111  2083.981
 112  1996.455
 113  1510.32
 114  1779.428
 115  1594.671
 116  1184.529
 117  1573.878
 118  1930.262
 119  1739.895
 120  1536.855
 121  1661.609
 122  1457.229
 123  1265.421
 124  1470.569
 125  1566.811
 126  1760.206
 127  1680.172
 128  1800.922
 129  1674.96
 130  1527.14
 131  1315.665
 132  1293.553
 133  1346.557
 134  1287.297
 135  1532.598
 136  1588.544
 137  1366.322
 138  1633.577
 139  1964.045
 140  1872.325
 141  1622.639
 142  1572.408
 143  1482.195
 144  1363.213
 145  1431.629
 146  1682.51
 147  1924.874
 148  1952.415
 149  1911.375
 150  1499.521
 151  1497.609
 152  1623.633
 153  1436.462
 154  1308.693
 155  1445.171
 156  1478.25
 157  1559.628
 158  1967.446
 159  1675.935
 160  1322.256
 161  1769.479
 162  1779.11
 163  1477.315
 164  1486.444
 165  1469.029
 166  1311.2
 167  1355.92
 168  1427.462
 169  1791.079
 170  1848.271
 171  1588.583
 172  1680.99
 173  1230.598
 174  1158.138
 175  1245.75
 176  1603.902
 177  1437.439
 178  1596.705
 179  1947.791
 180  1477.912
 181  1525.823
 182  1548.352
 183  1634.225
 184  1266.84
 185  1606.292
 186  1673.734
 187  1478.918
 188  1263.732
 189  1404.181
 190  1494.383
 191  1564.811
 192  1492.487
 193  1487.831
 194  1884.904
 195  1829.739
 196  1697.882
 197  1383.064
 198  1179.986
 199  1216.298
 200  1241.611
 201  1418.165
 202  1617.208
 203  1464.937
 204  1491.018
 205  1717.751
 206  1576.525
 207  1491.56
 208  1619.402
 209  1643.351
 210  1702.278
 211  1920.642
 212  1978.868
 213  1650.846
 214  1276.01
 215  1161.626
 216  1262.33
 217  1402.095
 218  1430.901
 219  1416.78
 220  1488.866
 221  1322.788
 222  1432.844
 223  1450.169
 224  1327.994
 225  1330.447
 226  1066.716
 227  1062.852
 228  1271.978
 229  1548.823
 230  1767.316
 231  1688.703
 232  1677.026
 233  1511.806
 234  1798.66
 235  1570.273
 236  1581.788
 237  1947.787
 238  1710.801
 239  1624.921
 240  1560.907
 241  1492.57
 242  1206.082
 243  1075.847
 244  1359.45
 245  1780.956
 246  1622.182
 247  1607.991
 248  1457.11
 249  1397.255
 250  1547.288
 251  1510.185
 252  1593.315
 253  1471.287
 254  1318.268
 255  934.6968
 256  1311.96
 257  1534.048
 258  1480.523
 259  1599.636
 260  1375.62
 261  1622.687
 262  1253.284
 263  1423.031
 264  1460.906
 265  1306.169
 266  1464.952
 267  1360.525
 268  1570.195
 269  1527.539
 270  1582.003
 271  1408.516
 272  1570.776
 273  1541.695
 274  1124.802
 275  1116.142
 276  1418.153
 277  1504.181
 278  1419.12
 279  1566.557
 280  1227.627
 281  1067.146
 282  1312.309
 283  1446.01
 284  1586.614
 285  1615.738
 286  1578.987
 287  1605.816
 288  1173.65
 289  1058.073
 290  1179.913
 291  1483.633
 292  1973.787
 293  1707.663
 294  1524.405
 295  1302.619
 296  1366.941
 297  1733.933
 298  1704.703
 299  1488.936
 300  1365.902
 301  1684.771
 302  1769.492
 303  1489.952
 304  1524.604
 305  1381.875
 306  1201.198
 307  948.2599
 308  1129.239
 309  1406.949
 310  1391.436
 311  1281.734
 312  1713.361
 313  1691.093
 314  1608.45
 315  1352.132
 316  1426.359
 317  1345.093
 318  1370.275
 319  1704.581
 320  1714.883
 321  1610.675
 322  1218.234
 323  1005.7
 324  1206.349
 325  1238.603
 326  1419.971
 327  1364.697
 328  1446.169
 329  1304.6
 330  1598.883
 331  1747.43
 332  1421.63
 333  1189.597
 334  1161.608
 335  1411.271
 336  1314.819
 337  1557.833
 338  1308.537
 339  1662.948
 340  1361.703
 341  1141.221
 342  1378.393
 343  1553.701
 344  1593.385
 345  1491.259
 346  1522.051
 347  1506.688
 348  1269.224
 349  1398.669
 350  1546.902
 351  1469.911
 352  1145.635
 353  1584.674
 354  1627.213
 355  1733.622
 356  1867.733
 357  1386.041
 358  1305.043
 359  1566.917
 360  1935.363
 361  2135.691
 362  1624.915
 363  1655.937
 364  1416.56
 365  1567.14
 366  1609.366
 367  1524.047
 368  1755.399
 369  1686.204
 370  1587.586
 371  1646.876
 372  1645.847
 373  1721.202
 374  2002.347
 375  2044.593
 376  2172.25
 377  1958.894
 378  2120.618
 379  2769.887
 380  3227.003
 381  3214.612
 382  3208.694
 383  2898.259
 384  2347.245
 385  1885.473
 386  1625.675
 387  1515.778
 388  1398.907
 389  1331.039
 390  1638.289
 391  1744.641
 392  1579.858
 393  1910.804
 394  1743.535
 395  1903.964
 396  1990.661
 397  1654.526
 398  1861.757
 399  1691.38
 400  1703.479
 401  1195.971
 402  1291.986
 403  1384.924
 404  1540.409
 405  1722.368
 406  1401.906
 407  1364.786
 408  1961.071
 409  1867.472
 410  1515.49
 411  1361.959
 412  1822.192
 413  1834.741
 414  1369.531
 415  1573.44
 416  1341.383
 417  1708.124
 418  1419.644
 419  1755.324
 420  1933.024
 421  1888.63
 422  1750.322
 423  1677.618
 424  1399.573
 425  1313.787
 426  1646.144
 427  1507.5
 428  1706.12
 429  1643.373
 430  1617.416
 431  1341.861
 432  1470.036
 433  1440.011
 434  1202.323
 435  1393.838
 436  1361.034
 437  1825.653
 438  1988.859
 439  1878.472
 440  1602.21
 441  1869.074
 442  1828.6
 443  1957.589
 444  2111.279
 445  1864.105
 446  1743.677
 447  1434.112
 448  1634.81
 449  1785.938
 450  1911.871
 451  1437.723
 452  1341.194
 453  1444.641
 454  1442.744
 455  1366.273
 456  1348.64
 457  1642.535
 458  1782.968
 459  1331.495
 460  1443.985
 461  1569.283
 462  1451.159
 463  1366.525
 464  1427.533
 465  1719.171
 466  1551.63
 467  1520.304
 468  1149.517
 469  1467.319
 470  1318.788
 471  1590.686
 472  1740.016
 473  1510.102
 474  1671.156
 475  1374.85
 476  1706.125
 477  1416.901
 478  1642.665
 479  1936.571
 480  1762.878
 481  1831.955
 482  1863.477
 483  1650.985
 484  1713.069
 485  1668.967
 486  1797.191
 487  1842.251
 488  1769.101
 489  1846.392
 490  1617.657
 491  1358.633
 492  1412.357
 493  1388.795
 494  1456.754
 495  1893.668
 496  1700.283
 497  1399.388
 498  1446.4
 499  1381.854
 500  871.3457
 501  1139.533
 502  1532.04
 503  1492.214
 504  1629.365
 505  1517.562
 506  1817.598
 507  1627.345
 508  1999.837
 509  1589.127
 510  1407.793
 511  1621.908
