# Input file       =  1192988327.145844_cleaned.dat
# Candidate        =  PSR_0332+5434
# Telescope        =  AR
# Epoch_topo       =  58051.735487799124
# Epoch_bary       =  N/A
# T_sample         =  0.002
# Data Folded      =  7208960
# Data Avg         =  0.0123916297054971
# Data StdDev      =  1.00025049340865 
# Profile Bins     =  512
# Profile Avg      =  174.46136282361  
# Profile StdDev   =  118.688899134942 
# Reduced chi-sqr  =  1.581
# Prob(Noise)      <  9.82e-16   (~7.9 sigma)
# P_topo (ms)      =  714.490134575878  +/- 0.000166
# P'_topo (s/s)    =  -0                +/- 8.91e-11
# P''_topo (s/s^2) =  0                 +/- 4.01e-14
# P_bary (ms)      =  N/A
# P'_bary (s/s)    =  N/A
# P''_bary (s/s^2) =  N/A
# P_orb (s)        =  N/A
# asin(i)/c (s)    =  N/A
# eccentricity     =  N/A
# w (rad)          =  N/A
# T_peri           =  N/A
######################################################
   0  953.623
   1  873.0538
   2  710.6205
   3  530.8388
   4  341.6056
   5  186.4919
   6  218.9127
   7  254.4501
   8  262.9132
   9  164.9925
  10  131.5352
  11  234.1837
  12  264.7024
  13  326.4232
  14  271.6686
  15  225.998
  16  188.4163
  17  225.0817
  18  292.4803
  19  281.1816
  20  241.1589
  21  335.0965
  22  244.2211
  23  197.8971
  24  207.7382
  25  240.6062
  26  299.265
  27  159.612
  28  148.1906
  29  98.76109
  30  1.091231
  31  -43.76661
  32  216.3736
  33  252.8196
  34  279.1667
  35  87.79976
  36  -4.526893
  37  73.9587
  38  246.3243
  39  179.7684
  40  186.7836
  41  246.358
  42  347.4708
  43  188.947
  44  189.1872
  45  99.086
  46  267.0462
  47  218.091
  48  119.7322
  49  177.2895
  50  265.1766
  51  108.6428
  52  96.76
  53  116.7824
  54  125.2826
  55  281.4731
  56  324.7204
  57  148.1105
  58  81.22267
  59  166.2984
  60  260.5561
  61  115.5109
  62  22.54137
  63  79.94183
  64  135.5169
  65  90.15244
  66  164.0222
  67  200.7205
  68  65.35806
  69  70.99788
  70  195.9154
  71  304.4247
  72  210.4044
  73  94.89866
  74  165.307
  75  146.2085
  76  189.948
  77  111.7298
  78  204.0786
  79  211.4554
  80  111.5468
  81  190.1801
  82  193.4455
  83  218.8739
  84  178.7111
  85  109.4122
  86  221.691
  87  198.2273
  88  104.8575
  89  70.23466
  90  169.3269
  91  328.2131
  92  327.0844
  93  236.2549
  94  253.9278
  95  177.7041
  96  81.90264
  97  121.9564
  98  264.4682
  99  265.7544
 100  245.8135
 101  290.4778
 102  261.3362
 103  339.8657
 104  209.7922
 105  160.6773
 106  78.71064
 107  265.6739
 108  291.8291
 109  174.706
 110  47.69032
 111  68.69559
 112  31.01575
 113  88.23943
 114  241.1662
 115  258.3501
 116  175.8087
 117  146.7266
 118  174.7974
 119  178.5463
 120  232.3861
 121  186.3862
 122  159.069
 123  -25.42396
 124  189.8963
 125  314.6284
 126  138.1382
 127  130.7039
 128  119.6885
 129  199.5516
 130  136.7352
 131  -4.787209
 132  240.9777
 133  245.8159
 134  117.3081
 135  40.90054
 136  68.96973
 137  117.7814
 138  165.2467
 139  150.8909
 140  143.3396
 141  79.30406
 142  111.2159
 143  163.0472
 144  217.4346
 145  277.7593
 146  245.9711
 147  216.5194
 148  173.5374
 149  81.30368
 150  106.7281
 151  276.5221
 152  157.1104
 153  196.6974
 154  313.3854
 155  295.1755
 156  72.60601
 157  223.3418
 158  261.346
 159  85.20257
 160  198.4147
 161  158.5137
 162  121.312
 163  38.2902
 164  114.1414
 165  215.8221
 166  280.7951
 167  322.7019
 168  320.0155
 169  363.4628
 170  304.0217
 171  255.9226
 172  240.0426
 173  174.5468
 174  106.1616
 175  240.8927
 176  213.7978
 177  257.1846
 178  102.7426
 179  164.7763
 180  154.7292
 181  176.8399
 182  172.3907
 183  103.8049
 184  356.4492
 185  213.509
 186  179.8637
 187  125.0826
 188  163.8667
 189  100.9255
 190  152.6473
 191  175.2059
 192  77.34741
 193  117.0696
 194  220.4705
 195  227.3155
 196  158.3251
 197  101.5177
 198  158.2161
 199  233.6643
 200  173.2711
 201  162.2794
 202  145.8221
 203  85.63404
 204  -22.12372
 205  40.73131
 206  72.65836
 207  115.0977
 208  96.6124
 209  121.5401
 210  196.6665
 211  185.6421
 212  95.63428
 213  22.08957
 214  26.37308
 215  142.3441
 216  117.3727
 217  11.25712
 218  176.3941
 219  205.0778
 220  149.1147
 221  240.4361
 222  289.9295
 223  236.7634
 224  166.0544
 225  129.8983
 226  238.6181
 227  393.1448
 228  354.1766
 229  176.4547
 230  170.2993
 231  172.3108
 232  135.5118
 233  159.0306
 234  218.0829
 235  153.8704
 236  153.0908
 237  131.4421
 238  77.98531
 239  196.8869
 240  183.3624
 241  173.4439
 242  31.26625
 243  28.04363
 244  77.77859
 245  103.7464
 246  149.7496
 247  106.5999
 248  42.81195
 249  153.6416
 250  -40.40315
 251  24.33108
 252  114.9274
 253  89.45955
 254  196.8619
 255  168.4562
 256  55.94287
 257  -12.10503
 258  49.54219
 259  4.16226
 260  143.4268
 261  252.1432
 262  175.8817
 263  96.06477
 264  34.36015
 265  30.00475
 266  107.0421
 267  308.0072
 268  235.7948
 269  151.6692
 270  209.6468
 271  179.5244
 272  109.98
 273  180.6994
 274  275.8106
 275  329.5827
 276  173.7486
 277  26.49537
 278  79.81746
 279  106.1013
 280  196.8663
 281  253.6432
 282  123.9788
 283  77.00337
 284  19.16228
 285  169.3937
 286  143.1687
 287  36.47493
 288  214.3833
 289  223.7247
 290  186.8033
 291  110.1119
 292  33.88179
 293  52.99349
 294  181.0155
 295  91.71765
 296  169.4058
 297  124.6973
 298  100.5121
 299  128.5938
 300  164.2497
 301  292.7632
 302  154.3198
 303  257.727
 304  295.4523
 305  251.8476
 306  173.5759
 307  153.0166
 308  156.9525
 309  86.87262
 310  47.57785
 311  57.9527
 312  126.2203
 313  124.1575
 314  119.2853
 315  126.6506
 316  215.5554
 317  279.8955
 318  87.6985
 319  91.53116
 320  127.5176
 321  109.9445
 322  43.6096
 323  174.0365
 324  221.0266
 325  215.6696
 326  137.1541
 327  290.6027
 328  243.0831
 329  164.0923
 330  181.5768
 331  56.36523
 332  87.27186
 333  125.5884
 334  89.12547
 335  158.6047
 336  218.2783
 337  219.3581
 338  160.079
 339  -11.15466
 340  44.8173
 341  104.9738
 342  124.9193
 343  241.8831
 344  219.9328
 345  239.8147
 346  222.8079
 347  203.2422
 348  78.37557
 349  176.4092
 350  216.8484
 351  163.235
 352  91.89796
 353  42.05095
 354  184.7444
 355  162.5519
 356  218.878
 357  223.4919
 358  259.823
 359  241.6681
 360  164.8831
 361  86.58565
 362  72.88634
 363  107.904
 364  131.1255
 365  125.8748
 366  209.8034
 367  102.2462
 368  118.8362
 369  69.31654
 370  45.8093
 371  198.4982
 372  358.0597
 373  298.8483
 374  196.2862
 375  132.3142
 376  51.71733
 377  201.373
 378  310.2355
 379  353.844
 380  244.7826
 381  84.3531
 382  130.045
 383  213.7569
 384  183.959
 385  219.5831
 386  251.0368
 387  212.8405
 388  117.8781
 389  138.2975
 390  128.0279
 391  206.0284
 392  154.2652
 393  88.80972
 394  94.28063
 395  -7.180049
 396  74.01361
 397  146.5258
 398  238.0413
 399  185.7561
 400  86.46471
 401  127.7907
 402  181.5233
 403  257.0266
 404  213.0067
 405  237.8869
 406  202.7839
 407  75.71011
 408  302.2396
 409  280.6733
 410  207.5455
 411  191.2048
 412  185.3303
 413  227.5784
 414  131.4526
 415  109.3628
 416  233.8823
 417  214.5002
 418  93.69456
 419  133.0039
 420  228.7036
 421  133.3876
 422  42.30688
 423  141.3916
 424  207.3446
 425  149.2985
 426  80.6253
 427  24.67348
 428  17.00545
 429  -38.30843
 430  64.5863
 431  141.638
 432  186.5612
 433  362.9793
 434  286.7424
 435  92.95668
 436  72.59017
 437  211.3743
 438  206.2903
 439  70.28442
 440  109.714
 441  147.5863
 442  79.72143
 443  88.75046
 444  11.7771
 445  153.6228
 446  213.2509
 447  65.42808
 448  42.1487
 449  83.63842
 450  98.62678
 451  300.1594
 452  279.9221
 453  341.842
 454  205.1445
 455  186.0274
 456  198.7631
 457  97.1646
 458  155.1317
 459  195.8518
 460  136.3963
 461  71.13974
 462  77.21344
 463  178.5463
 464  92.01652
 465  94.64384
 466  68.19664
 467  91.57044
 468  148.5515
 469  72.58555
 470  163.3104
 471  224.5036
 472  238.0632
 473  234.1748
 474  121.6025
 475  107.0759
 476  66.21049
 477  163.0431
 478  178.0276
 479  183.4132
 480  88.69964
 481  59.5475
 482  212.4645
 483  252.9793
 484  194.2274
 485  164.6321
 486  166.1673
 487  168.0038
 488  253.7375
 489  107.497
 490  61.65211
 491  222.6154
 492  317.7468
 493  222.8886
 494  257.2933
 495  271.9314
 496  265.7719
 497  220.368
 498  152.7112
 499  150.9701
 500  195.7381
 501  237.8397
 502  130.3434
 503  124.8319
 504  264.8441
 505  347.0412
 506  357.5968
 507  392.8218
 508  394.6651
 509  577.7867
 510  767.2828
 511  810.6178
