# Input file       =  1192830597.138417_cleaned.dat
# Candidate        =  PSR_0332+5434
# Telescope        =  AR
# Epoch_topo       =  58049.909909009453
# Epoch_bary       =  N/A
# T_sample         =  0.002
# Data Folded      =  7340032
# Data Avg         =  0.0463765401925359
# Data StdDev      =  2.36168998514396 
# Profile Bins     =  512
# Profile Avg      =  664.75531280693  
# Profile StdDev   =  282.772312901886 
# Reduced chi-sqr  =  1.319
# Prob(Noise)      <  1.6e-06   (~4.7 sigma)
# P_topo (ms)      =  714.488590555843  +/- 0.000215
# P'_topo (s/s)    =  -0                +/- 1.13e-10
# P''_topo (s/s^2) =  0                 +/- 5.01e-14
# P_bary (ms)      =  N/A
# P'_bary (s/s)    =  N/A
# P''_bary (s/s^2) =  N/A
# P_orb (s)        =  N/A
# asin(i)/c (s)    =  N/A
# eccentricity     =  N/A
# w (rad)          =  N/A
# T_peri           =  N/A
######################################################
   0  854.5613
   1  861.0545
   2  712.6616
   3  839.9755
   4  664.7841
   5  818.6342
   6  779.1282
   7  630.4758
   8  453.8276
   9  704.5228
  10  753.6979
  11  824.2299
  12  814.2722
  13  605.0261
  14  531.5334
  15  398.8483
  16  577.2808
  17  599.9927
  18  869.5405
  19  944.013
  20  596.1296
  21  680.4737
  22  568.0219
  23  476.7688
  24  1109.769
  25  1162.366
  26  863.1185
  27  826.6913
  28  841.6552
  29  854.3314
  30  829.5439
  31  952.1473
  32  973.5092
  33  790.8417
  34  671.9526
  35  740.4831
  36  505.9911
  37  566.2921
  38  351.6401
  39  477.6651
  40  802.4223
  41  765.3555
  42  607.3802
  43  418.0814
  44  503.6819
  45  562.9156
  46  550.8717
  47  674.6949
  48  956.2163
  49  1031.946
  50  830.2802
  51  720.2888
  52  811.2524
  53  664.1554
  54  888.3987
  55  838.5583
  56  616.5024
  57  602.3669
  58  621.4125
  59  482.9828
  60  408.514
  61  698.8149
  62  833.8456
  63  1106.789
  64  907.6776
  65  704.3444
  66  576.7748
  67  479.3084
  68  340.2019
  69  372.8365
  70  447.6684
  71  592.3326
  72  591.1411
  73  429.2504
  74  692.195
  75  834.7432
  76  593.4332
  77  596.1227
  78  688.6825
  79  935.2906
  80  998.8417
  81  764.5279
  82  1083.103
  83  844.4325
  84  610.3499
  85  880.206
  86  610.5465
  87  769.224
  88  931.2734
  89  612.5265
  90  451.2721
  91  381.5627
  92  476.7564
  93  514.5817
  94  589.4111
  95  501.3485
  96  488.337
  97  888.8154
  98  890.6796
  99  680.7549
 100  661.2989
 101  794.6032
 102  845.8836
 103  578.1286
 104  999.7358
 105  839.4948
 106  629.3937
 107  641.6446
 108  688.7267
 109  691.1995
 110  574.903
 111  704.3422
 112  896.1282
 113  684.6869
 114  842.2772
 115  706.0301
 116  825.053
 117  637.1559
 118  530.6215
 119  224.2044
 120  411.8362
 121  679.1571
 122  606.1621
 123  655.8311
 124  596.7366
 125  802.3516
 126  559.7344
 127  274.2676
 128  665.8914
 129  1097.09
 130  1233.522
 131  642.7264
 132  414.2354
 133  550.1249
 134  582.1112
 135  350.2984
 136  493.4256
 137  929.8456
 138  970.1439
 139  865.0892
 140  663.4286
 141  759.0381
 142  972.3163
 143  779.45
 144  431.7099
 145  797.9299
 146  1179.568
 147  712.7528
 148  645.9543
 149  785.6833
 150  508.8484
 151  447.737
 152  625.8367
 153  512.3765
 154  781.3882
 155  559.7433
 156  554.1068
 157  720.3775
 158  507.0809
 159  547.8329
 160  735.7699
 161  706.5965
 162  918.8121
 163  790.8269
 164  555.3173
 165  618.338
 166  726.2767
 167  579.3439
 168  663.2131
 169  766.4994
 170  677.382
 171  444.4185
 172  448.4482
 173  766.85
 174  830.0905
 175  867.2044
 176  636.7328
 177  476.2869
 178  847.1794
 179  727.4839
 180  560.1
 181  648.6212
 182  401.5641
 183  163.3639
 184  382.0104
 185  335.8452
 186  415.7299
 187  576.4376
 188  727.1822
 189  811.1335
 190  664.2728
 191  628.6024
 192  806.7419
 193  772.3717
 194  842.5891
 195  702.8275
 196  470.3358
 197  557.5378
 198  656.7291
 199  556.7698
 200  520.3575
 201  810.8599
 202  851.9011
 203  677.9115
 204  663.696
 205  430.0284
 206  411.9316
 207  630.0336
 208  598.4208
 209  592.7511
 210  309.9735
 211  543.0958
 212  516.421
 213  723.8435
 214  308.2119
 215  375.9417
 216  670.9508
 217  648.8823
 218  471.616
 219  374.7076
 220  177.2221
 221  90.23711
 222  409.4124
 223  499.2515
 224  821.7275
 225  626.5283
 226  611.9652
 227  658.125
 228  445.4944
 229  581.0772
 230  677.1414
 231  785.2533
 232  711.387
 233  275.8673
 234  501.038
 235  665.611
 236  432.9273
 237  369.294
 238  438.1474
 239  453.6372
 240  327.3641
 241  286.7139
 242  416.274
 243  667.0105
 244  686.8308
 245  885.0507
 246  541.0602
 247  479.0752
 248  507.584
 249  461.3853
 250  555.2542
 251  731.329
 252  540.8964
 253  434.5748
 254  706.8918
 255  626.6655
 256  617.2645
 257  672.8221
 258  600.8349
 259  656.6656
 260  748.4982
 261  643.4941
 262  683.1589
 263  530.178
 264  582.1201
 265  1052.317
 266  1196.433
 267  925.5411
 268  542.8442
 269  692.9156
 270  809.9133
 271  669.5305
 272  742.9163
 273  674.6672
 274  722.0851
 275  612.8132
 276  366.8877
 277  442.2174
 278  435.8855
 279  231.6497
 280  211.3903
 281  98.91939
 282  178.3681
 283  549.7339
 284  287.2203
 285  400.3875
 286  802.286
 287  1040.054
 288  867.3475
 289  755.1505
 290  781.4271
 291  818.3676
 292  686.0682
 293  556.7847
 294  854.1382
 295  647.9938
 296  599.542
 297  718.2485
 298  924.0884
 299  919.8218
 300  842.7066
 301  756.1804
 302  796.9244
 303  792.7124
 304  472.2942
 305  609.2026
 306  630.6768
 307  734.4569
 308  879.9971
 309  688.9987
 310  640.6384
 311  814.226
 312  794.3681
 313  707.7112
 314  733.4716
 315  1520.77
 316  1895.236
 317  2355.22
 318  2155.991
 319  1957.088
 320  1731.852
 321  1225.618
 322  679.4198
 323  337.9148
 324  638.7781
 325  746.1355
 326  472.477
 327  314.9306
 328  300.8711
 329  333.5125
 330  300.0337
 331  728.3328
 332  778.4879
 333  710.964
 334  476.4725
 335  588.9916
 336  874.5009
 337  725.9294
 338  446.0017
 339  334.8094
 340  573.2289
 341  560.936
 342  432.8453
 343  483.5422
 344  478.8405
 345  507.2411
 346  627.847
 347  518.7405
 348  280.7055
 349  414.3945
 350  607.5029
 351  717.2354
 352  814.5394
 353  553.6331
 354  557.0402
 355  603.6153
 356  444.6875
 357  556.481
 358  547.7094
 359  648.1651
 360  454.534
 361  560.9633
 362  671.1585
 363  474.4549
 364  430.6208
 365  968.366
 366  813.2676
 367  894.4044
 368  761.5239
 369  633.7773
 370  534.6799
 371  562.3115
 372  1070.199
 373  837.6042
 374  494.6419
 375  336.2606
 376  543.0941
 377  656.8087
 378  680.0764
 379  526.392
 380  323.8347
 381  605.9477
 382  660.0865
 383  759.944
 384  718.8318
 385  847.4105
 386  856.6901
 387  619.995
 388  654.8313
 389  517.6498
 390  521.5364
 391  427.2538
 392  790.7778
 393  742.0696
 394  723.8948
 395  695.3235
 396  572.2883
 397  440.8751
 398  589.2097
 399  654.2094
 400  601.0593
 401  671.9135
 402  759.324
 403  813.5581
 404  603.7349
 405  319.8844
 406  402.6163
 407  663.2983
 408  465.3949
 409  235.7036
 410  348.666
 411  435.5182
 412  441.0568
 413  730.5186
 414  687.7783
 415  617.8652
 416  634.384
 417  464.1392
 418  587.2927
 419  934.6708
 420  829.0847
 421  645.0477
 422  444.6194
 423  458.5109
 424  243.066
 425  213.5844
 426  546.2396
 427  629.093
 428  739.4011
 429  654.7846
 430  705.836
 431  763.3721
 432  602.2924
 433  690.756
 434  842.6165
 435  1077.535
 436  749.7512
 437  557.519
 438  597.8881
 439  876.6743
 440  834.2086
 441  599.7103
 442  589.2578
 443  675.655
 444  768.8397
 445  812.5834
 446  531.9992
 447  718.472
 448  699.4925
 449  556.9874
 450  517.3983
 451  525.3233
 452  665.9464
 453  765.7661
 454  540.5203
 455  488.1023
 456  653.9235
 457  602.8174
 458  771.5894
 459  921.6877
 460  720.2043
 461  555.1232
 462  540.8008
 463  580.8614
 464  611.3264
 465  583.0752
 466  416.3802
 467  460.912
 468  1037.627
 469  740.5208
 470  571.1595
 471  581.6327
 472  486.9781
 473  603.1472
 474  511.1623
 475  662.0212
 476  789.952
 477  861.4091
 478  701.3503
 479  534.9341
 480  690.5807
 481  728.1754
 482  859.3658
 483  1128.895
 484  850.9756
 485  722.811
 486  663.2818
 487  649.2086
 488  696.4644
 489  738.5518
 490  672.5447
 491  676.4674
 492  820.363
 493  811.2443
 494  891.8691
 495  907.8489
 496  792.3916
 497  719.5875
 498  953.6265
 499  849.5754
 500  814.8583
 501  1114.34
 502  993.8412
 503  825.8667
 504  584.9055
 505  463.9796
 506  808.7505
 507  836.7621
 508  689.8314
 509  691.1523
 510  865.1157
 511  756.2964
