# Input file       =  1192141432.122322_cleaned.dat
# Candidate        =  PSR_0332+5434
# Telescope        =  AR
# Epoch_topo       =  58041.933462063913
# Epoch_bary       =  N/A
# T_sample         =  0.002
# Data Folded      =  7340032
# Data Avg         =  0.0296924541097334
# Data StdDev      =  2.29055754945397 
# Profile Bins     =  1024
# Profile Avg      =  212.874594964702 
# Profile StdDev   =  193.927860465175 
# Reduced chi-sqr  =  1.341
# Prob(Noise)      <  1.45e-12   (~7.0 sigma)
# P_topo (ms)      =  714.482235922213  +/- 0.000149
# P'_topo (s/s)    =  -0                +/- 7.88e-11
# P''_topo (s/s^2) =  0                 +/- 3.48e-14
# P_bary (ms)      =  N/A
# P'_bary (s/s)    =  N/A
# P''_bary (s/s^2) =  N/A
# P_orb (s)        =  N/A
# asin(i)/c (s)    =  N/A
# eccentricity     =  N/A
# w (rad)          =  N/A
# T_peri           =  N/A
######################################################
   0  77.63003
   1  82.55115
   2  99.92168
   3  40.04388
   4  -24.83203
   5  30.25387
   6  146.9358
   7  216.5047
   8  190.6035
   9  94.01498
  10  51.14775
  11  104.6257
  12  171.8468
  13  226.7656
  14  168.8812
  15  72.12831
  16  1.870326
  17  -29.03099
  18  66.18631
  19  132.4166
  20  126.2582
  21  97.53492
  22  219.8615
  23  340.9553
  24  479.1413
  25  470.8376
  26  536.9377
  27  464.3524
  28  334.3796
  29  215.0965
  30  209.7958
  31  275.9357
  32  262.6058
  33  216.5432
  34  178.7433
  35  232.1499
  36  255.5999
  37  326.2491
  38  336.6067
  39  280.9746
  40  175.7522
  41  142.9015
  42  180.1337
  43  218.5298
  44  210.7669
  45  227.6672
  46  255.7628
  47  335.563
  48  252.2613
  49  219.4003
  50  176.704
  51  184.0341
  52  204.7876
  53  318.8384
  54  335.5039
  55  278.6763
  56  201.1189
  57  156.3462
  58  99.75124
  59  168.1037
  60  295.0089
  61  350.4563
  62  317.8737
  63  265.3825
  64  206.6255
  65  134.2765
  66  261.9658
  67  356.6295
  68  431.3055
  69  325.222
  70  291.1328
  71  221.606
  72  203.7977
  73  165.5214
  74  148.9382
  75  73.46885
  76  30.84507
  77  51.96224
  78  129.6739
  79  200.7175
  80  146.5087
  81  194.9339
  82  233.097
  83  271.1265
  84  116.397
  85  31.363
  86  94.98757
  87  234.9638
  88  256.16
  89  197.8295
  90  93.19255
  91  142.1118
  92  206.6447
  93  217.5781
  94  197.6479
  95  102.8621
  96  130.961
  97  75.18414
  98  139.888
  99  231.945
 100  106.6131
 101  -8.633334
 102  -46.21089
 103  91.25336
 104  187.1922
 105  211.6805
 106  261.0048
 107  270.7901
 108  261.9489
 109  264.72
 110  198.1356
 111  148.5262
 112  142.3451
 113  216.1983
 114  228.656
 115  226.1195
 116  145.5989
 117  158.0802
 118  22.41263
 119  92.05456
 120  163.0053
 121  299.8091
 122  376.5144
 123  446.9148
 124  411.9599
 125  232.8542
 126  150.4888
 127  179.8625
 128  313.2748
 129  267.8191
 130  192.1258
 131  106.467
 132  93.04853
 133  104.6413
 134  81.48692
 135  146.2724
 136  191.4008
 137  281.2922
 138  311.4366
 139  309.2889
 140  316.402
 141  311.121
 142  357.9145
 143  460.3419
 144  436.939
 145  357.9205
 146  208.8413
 147  233.1186
 148  253.7931
 149  252.8507
 150  219.6659
 151  229.1502
 152  331.9851
 153  260.9232
 154  218.7893
 155  127.5526
 156  131.1398
 157  196.4214
 158  319.1863
 159  390.4991
 160  293.7151
 161  109.6016
 162  78.45522
 163  159.5588
 164  279.4129
 165  304.7294
 166  243.3601
 167  223.4186
 168  155.3962
 169  128.9207
 170  102.2841
 171  48.29874
 172  29.85825
 173  83.03353
 174  179.5498
 175  184.494
 176  145.8826
 177  148.4363
 178  207.6883
 179  246.9162
 180  196.9203
 181  77.11588
 182  63.65278
 183  70.35194
 184  99.26253
 185  80.00259
 186  82.45938
 187  187.2327
 188  331.5483
 189  434.5486
 190  348.621
 191  264.6298
 192  143.3307
 193  117.3551
 194  99.0971
 195  212.3949
 196  221.8209
 197  168.4876
 198  108.3728
 199  173.9484
 200  261.4963
 201  203.5943
 202  173.9583
 203  218.0741
 204  359.5977
 205  258.1235
 206  188.3668
 207  207.5361
 208  340.2949
 209  329.5063
 210  255.8018
 211  238.1554
 212  160.678
 213  165.0914
 214  144.2139
 215  161.976
 216  195.3474
 217  271.9059
 218  315.1628
 219  349.0561
 220  273.007
 221  230.3273
 222  149.8965
 223  325.5746
 224  522.1622
 225  519.9354
 226  467.5212
 227  346.649
 228  213.8028
 229  36.61052
 230  -34.44646
 231  18.99724
 232  163.5305
 233  147.7806
 234  214.4
 235  338.4934
 236  438.273
 237  398.5901
 238  326.8989
 239  243.9219
 240  222.7495
 241  244.2784
 242  287.466
 243  233.4442
 244  171.2109
 245  224.4565
 246  231.2502
 247  218.6818
 248  167.5778
 249  227.4887
 250  290.3734
 251  375.1823
 252  379.6071
 253  279.9096
 254  189.7343
 255  132.5156
 256  141.2975
 257  205.1996
 258  231.5394
 259  254.3623
 260  259.13
 261  346.4252
 262  367.1653
 263  350.5868
 264  250.0038
 265  286.531
 266  223.1002
 267  152.9438
 268  168.9104
 269  161.014
 270  153.1708
 271  151.0863
 272  143.0121
 273  172.6365
 274  110.9718
 275  117.8984
 276  113.039
 277  123.1199
 278  175.9498
 279  221.4261
 280  193.265
 281  -7.138273
 282  -27.87366
 283  63.3683
 284  179.6354
 285  172.6857
 286  183.1425
 287  191.2309
 288  193.5776
 289  266.9012
 290  295.6247
 291  274.8256
 292  239.2763
 293  271.6559
 294  405.9587
 295  432.6277
 296  463.8915
 297  382.8731
 298  273.0101
 299  258.9456
 300  151.876
 301  204.8825
 302  189.8206
 303  172.5389
 304  184.563
 305  112.8437
 306  207.5408
 307  180.0128
 308  227.1771
 309  155.8096
 310  113.5841
 311  63.25681
 312  103.9263
 313  221.7444
 314  374.0064
 315  414.1442
 316  323.6971
 317  259.9154
 318  210.9176
 319  191.8578
 320  153.4094
 321  178.0556
 322  185.1397
 323  215.5516
 324  201.6488
 325  222.8294
 326  233.0632
 327  235.5964
 328  220.896
 329  209.2216
 330  198.1995
 331  181.0792
 332  126.7055
 333  215.7276
 334  332.7583
 335  424.9478
 336  414.1878
 337  268.3346
 338  181.9197
 339  81.20358
 340  125.1127
 341  111.7989
 342  14.62049
 343  62.49194
 344  -16.30279
 345  111.7315
 346  96.29123
 347  71.73689
 348  -58.36245
 349  -94.18821
 350  3.636516
 351  94.77969
 352  126.4751
 353  174.5093
 354  251.1737
 355  259.975
 356  264.107
 357  274.0146
 358  299.0101
 359  239.9317
 360  204.4513
 361  197.1685
 362  265.4754
 363  340.8311
 364  309.0802
 365  299.713
 366  231.8473
 367  209.0843
 368  222.357
 369  195.8679
 370  226.3036
 371  170.1955
 372  244.1472
 373  258.0065
 374  210.1796
 375  116.7792
 376  221.7169
 377  323.501
 378  415.0658
 379  388.108
 380  360.7184
 381  282.978
 382  177.4288
 383  145.4328
 384  235.324
 385  282.8867
 386  352.5643
 387  284.44
 388  161.4944
 389  178.6203
 390  244.2244
 391  311.3961
 392  258.8922
 393  183.5549
 394  189.7573
 395  179.0646
 396  200.8737
 397  108.5468
 398  174.2583
 399  158.1338
 400  193.5551
 401  108.2757
 402  82.28812
 403  132.0318
 404  209.2323
 405  251.4164
 406  188.5688
 407  150.9346
 408  243.6809
 409  287.3641
 410  301.4646
 411  245.365
 412  165.8978
 413  135.462
 414  227.6278
 415  320.386
 416  315.2769
 417  188.4144
 418  -6.847141
 419  -21.79618
 420  65.01168
 421  273.3489
 422  245.5943
 423  257.4699
 424  315.4225
 425  374.1086
 426  272.9329
 427  89.19305
 428  49.41417
 429  154.6152
 430  163.7821
 431  241.8232
 432  207.7882
 433  292.1095
 434  277.0122
 435  346.822
 436  332.5046
 437  304.8858
 438  244.6641
 439  273.9283
 440  244.9714
 441  292.1767
 442  322.1436
 443  421.5385
 444  389.8724
 445  257.6252
 446  186.6174
 447  292.5233
 448  300.106
 449  203.1351
 450  95.15712
 451  65.30009
 452  158.6192
 453  167.7097
 454  268.8778
 455  287.1896
 456  375.7776
 457  382.9459
 458  409.5859
 459  426.4119
 460  336.0259
 461  317.4361
 462  293.4793
 463  277.4451
 464  158.9641
 465  108.4144
 466  153.6711
 467  201.7339
 468  81.00522
 469  55.41816
 470  103.6533
 471  117.8362
 472  152.7667
 473  67.32191
 474  138.2381
 475  58.1627
 476  185.7826
 477  118.8645
 478  150.9998
 479  145.3135
 480  353.0994
 481  413.5335
 482  373.1946
 483  226.2676
 484  150.9331
 485  108.1735
 486  90.59625
 487  207.1669
 488  407.1989
 489  521.8601
 490  442.6674
 491  317.2811
 492  221.0378
 493  183.6964
 494  127.1915
 495  162.8905
 496  243.4482
 497  276.1721
 498  318.7768
 499  332.4548
 500  332.8835
 501  269.179
 502  204.9362
 503  211.0762
 504  298.2102
 505  310.9941
 506  367.7448
 507  245.8768
 508  183.1072
 509  127.9895
 510  195.4018
 511  202.9151
 512  160.1055
 513  90.79465
 514  140.0612
 515  132.7957
 516  152.0769
 517  166.6205
 518  199.4886
 519  312.7813
 520  255.1108
 521  223.0639
 522  103.0506
 523  97.27542
 524  139.8045
 525  161.5747
 526  200.5605
 527  174.6265
 528  165.4541
 529  204.8969
 530  242.9752
 531  297.2265
 532  288.3193
 533  188.013
 534  269.7884
 535  255.2587
 536  307.2063
 537  270.1021
 538  326.4697
 539  343.0037
 540  310.6286
 541  243.3244
 542  261.9803
 543  249.9533
 544  280.7606
 545  272.2483
 546  287.1826
 547  262.3062
 548  194.598
 549  154.9947
 550  132.7495
 551  63.62436
 552  -6.660942
 553  -35.95124
 554  54.23558
 555  133.8546
 556  239.9435
 557  254.6075
 558  319.7528
 559  355.495
 560  304.5188
 561  260.0797
 562  215.9957
 563  230.5436
 564  247.1309
 565  262.065
 566  210.5551
 567  155.4536
 568  75.20069
 569  68.483
 570  154.9487
 571  249.4577
 572  335.0067
 573  327.5595
 574  352.1147
 575  238.3968
 576  186.2912
 577  188.7101
 578  147.0384
 579  104.1013
 580  175.1999
 581  259.1413
 582  250.7269
 583  189.8835
 584  279.0397
 585  250.8645
 586  245.0342
 587  170.3565
 588  237.0132
 589  200.0946
 590  201.5024
 591  229.9152
 592  227.7984
 593  230.4744
 594  191.8073
 595  372.6641
 596  308.2326
 597  372.728
 598  406.8965
 599  502.0533
 600  456.9624
 601  360.6017
 602  328.1724
 603  269.5666
 604  225.2161
 605  239.757
 606  338.9535
 607  306.1675
 608  191.791
 609  0.6344738
 610  40.27369
 611  148.3604
 612  244.4615
 613  256.236
 614  255.0163
 615  208.0284
 616  153.0003
 617  185.3821
 618  219.0319
 619  330.7728
 620  268.2066
 621  202.2256
 622  221.0941
 623  304.5558
 624  353.6278
 625  341.0842
 626  394.242
 627  549.7305
 628  502.822
 629  456.6401
 630  422.5695
 631  575.5607
 632  710.6812
 633  866.5274
 634  926.4886
 635  920.0225
 636  965.2943
 637  993.9739
 638  976.6428
 639  928.7509
 640  862.5124
 641  753.5429
 642  557.0413
 643  461.6245
 644  455.1877
 645  448.4354
 646  339.1877
 647  292.9474
 648  262.8662
 649  252.3312
 650  206.8808
 651  162.4532
 652  188.9249
 653  198.8891
 654  162.2451
 655  138.6245
 656  98.07391
 657  126.6638
 658  141.8011
 659  279.991
 660  258.4002
 661  216.6269
 662  238.678
 663  357.2744
 664  414.4545
 665  365.048
 666  354.202
 667  361.1661
 668  385.1413
 669  332.8204
 670  292.871
 671  220.1498
 672  231.1935
 673  253.466
 674  330.8463
 675  368.3682
 676  271.9409
 677  256.0638
 678  310.5848
 679  255.7373
 680  145.5371
 681  40.7392
 682  31.405
 683  -9.445306
 684  25.85552
 685  102.474
 686  174.9074
 687  252.4658
 688  332.9701
 689  415.7222
 690  353.8605
 691  308.0323
 692  270.7878
 693  312.8774
 694  308.5404
 695  279.9644
 696  221.8576
 697  185.4878
 698  176.4328
 699  264.881
 700  244.8675
 701  309.1778
 702  330.1268
 703  333.1652
 704  206.3931
 705  116.2428
 706  63.24641
 707  39.90097
 708  42.33015
 709  127.0638
 710  293.2805
 711  334.0443
 712  280.7243
 713  246.5287
 714  219.6457
 715  256.75
 716  227.7941
 717  268.1452
 718  290.8865
 719  334.9531
 720  307.2566
 721  235.439
 722  280.4551
 723  361.4713
 724  394.4089
 725  290.667
 726  259.1591
 727  241.574
 728  221.9823
 729  219.5284
 730  303.4801
 731  242.2515
 732  209.2928
 733  82.55188
 734  23.70592
 735  33.95822
 736  86.21899
 737  79.51793
 738  25.69537
 739  21.05782
 740  6.149473
 741  95.29845
 742  171.2144
 743  304.1965
 744  235.8559
 745  149.8531
 746  133.718
 747  241.1878
 748  281.9276
 749  271.3332
 750  181.7892
 751  132.535
 752  102.3835
 753  20.02008
 754  17.45555
 755  0.4988973
 756  160.5061
 757  124.2127
 758  108.4994
 759  66.12833
 760  125.4475
 761  180.0547
 762  137.7359
 763  149.3421
 764  119.0257
 765  227.289
 766  267.0608
 767  269.739
 768  181.0883
 769  195.6881
 770  146.0017
 771  45.12967
 772  2.402775
 773  54.28898
 774  121.1953
 775  243.6861
 776  202.0486
 777  137.9517
 778  8.144784
 779  29.80019
 780  21.68652
 781  -27.68562
 782  10.59159
 783  192.9195
 784  255.8746
 785  282.029
 786  158.2297
 787  167.8153
 788  127.0789
 789  92.53217
 790  98.90523
 791  138.056
 792  69.51207
 793  22.72022
 794  37.14976
 795  120.5463
 796  218.3814
 797  179.0202
 798  146.7867
 799  97.30834
 800  116.8058
 801  146.0244
 802  164.5253
 803  219.0753
 804  231.5487
 805  199.1641
 806  48.44114
 807  -57.21991
 808  -78.07967
 809  -6.761775
 810  87.04849
 811  161.6997
 812  173.2342
 813  116.4544
 814  85.58298
 815  49.42941
 816  104.867
 817  145.8464
 818  195.0969
 819  225.5399
 820  211.4385
 821  145.7634
 822  -8.991416
 823  -39.31256
 824  70.77549
 825  239.7944
 826  278.8725
 827  263.125
 828  182.0706
 829  200.2601
 830  260.4708
 831  175.8147
 832  197.1074
 833  156.4988
 834  199.1147
 835  64.63844
 836  178.6633
 837  252.5802
 838  282.4404
 839  263.1789
 840  235.4554
 841  311.3346
 842  252.2364
 843  234.7815
 844  147.3936
 845  137.7393
 846  189.3245
 847  225.353
 848  266.1247
 849  270.447
 850  214.9287
 851  149.2874
 852  141.721
 853  215.7974
 854  177.2555
 855  166.7247
 856  185.9212
 857  253.2474
 858  307.0002
 859  302.6501
 860  243.6345
 861  209.7931
 862  285.8972
 863  315.3435
 864  263.4411
 865  168.7353
 866  190.307
 867  229.109
 868  183.4429
 869  119.1575
 870  16.98195
 871  114.1286
 872  217.8283
 873  318.0816
 874  298.8969
 875  203.2463
 876  124.5776
 877  72.36217
 878  92.56112
 879  123.5038
 880  62.31067
 881  47.79725
 882  -13.49642
 883  135.7841
 884  198.7022
 885  303.1517
 886  204.2157
 887  121.7944
 888  141.4393
 889  121.2899
 890  197.9692
 891  255.894
 892  318.5034
 893  243.4974
 894  66.28111
 895  71.08935
 896  160.2809
 897  227.0565
 898  164.7717
 899  182.6551
 900  209.1019
 901  201.6649
 902  121.0668
 903  30.91945
 904  79.06564
 905  162.642
 906  228.0542
 907  276.4105
 908  271.0895
 909  288.0072
 910  210.8201
 911  116.2606
 912  113.8917
 913  100.1284
 914  87.70421
 915  112.989
 916  120.1708
 917  215.7354
 918  342.2524
 919  359.5035
 920  332.869
 921  125.5497
 922  101.9193
 923  42.03198
 924  90.56841
 925  33.85011
 926  62.53726
 927  87.77552
 928  112.7791
 929  142.5252
 930  203.7293
 931  206.6719
 932  131.4217
 933  151.8676
 934  259.8295
 935  297.7517
 936  282.863
 937  279.0745
 938  233.6029
 939  154.2106
 940  77.06951
 941  91.40913
 942  46.12785
 943  136.7092
 944  135.3897
 945  240.226
 946  321.505
 947  313.759
 948  242.9673
 949  171.0696
 950  172.843
 951  166.732
 952  107.6025
 953  62.98346
 954  90.93029
 955  157.7599
 956  162.2195
 957  160.6349
 958  175.1623
 959  282.5089
 960  210.5788
 961  97.93631
 962  42.65332
 963  159.2586
 964  209.0616
 965  208.554
 966  167.085
 967  134.2488
 968  129.2426
 969  123.6945
 970  157.2721
 971  224.5292
 972  198.9353
 973  161.4188
 974  103.0738
 975  210.2642
 976  247.8415
 977  271.507
 978  181.3632
 979  136.6925
 980  117.4402
 981  99.84637
 982  74.08134
 983  42.80406
 984  147.0954
 985  288.8003
 986  321.5638
 987  199.6423
 988  118.9813
 989  166.913
 990  223.4396
 991  273.423
 992  196.6657
 993  178.7694
 994  117.7222
 995  143.6808
 996  109.7488
 997  42.45306
 998  30.92811
 999  25.41999
1000  56.91218
1001  95.90139
1002  163.7205
1003  208.6205
1004  247.03
1005  191.5411
1006  142.6431
1007  194.5021
1008  238.7914
1009  285.1876
1010  198.841
1011  213.9911
1012  336.1375
1013  330.091
1014  223.4356
1015  80.95026
1016  121.3485
1017  255.3749
1018  326.0847
1019  302.0325
1020  235.2091
1021  158.9109
1022  145.7375
1023  25.06531
