# Input file       =  1192916781.138746_cleaned.dat
# Candidate        =  PSR_0332+5434
# Telescope        =  AR
# Epoch_topo       =  58050.907409013264
# Epoch_bary       =  N/A
# T_sample         =  0.002
# Data Folded      =  7340032
# Data Avg         =  0.0476509759817938
# Data StdDev      =  2.40012852933315 
# Profile Bins     =  512
# Profile Avg      =  683.190358415827 
# Profile StdDev   =  287.37467651156  
# Reduced chi-sqr  =  1.457
# Prob(Noise)      <  6.23e-11   (~6.4 sigma)
# P_topo (ms)      =  714.489436880892  +/- 0.000287
# P'_topo (s/s)    =  -0                +/- 1.51e-10
# P''_topo (s/s^2) =  0                 +/- 6.68e-14
# P_bary (ms)      =  N/A
# P'_bary (s/s)    =  N/A
# P''_bary (s/s^2) =  N/A
# P_orb (s)        =  N/A
# asin(i)/c (s)    =  N/A
# eccentricity     =  N/A
# w (rad)          =  N/A
# T_peri           =  N/A
######################################################
   0  123.1905
   1  121.0856
   2  385.7455
   3  477.9976
   4  350.4502
   5  543.0267
   6  620.1633
   7  283.6927
   8  265.9997
   9  542.7347
  10  584.7696
  11  473.2419
  12  645.2435
  13  692.5264
  14  820.3992
  15  724.4788
  16  682.4835
  17  844.0457
  18  639.4197
  19  879.7974
  20  746.6854
  21  853.1103
  22  553.8931
  23  639.7855
  24  351.769
  25  352.2583
  26  608.3278
  27  548.7969
  28  514.9766
  29  487.8515
  30  810.7399
  31  807.4272
  32  541.3956
  33  483.6073
  34  654.9828
  35  850.1257
  36  486.9654
  37  597.258
  38  516.0228
  39  397.5432
  40  525.2425
  41  769.7668
  42  597.3565
  43  321.4377
  44  306.1836
  45  565.0648
  46  756.139
  47  514.2038
  48  630.5991
  49  715.1989
  50  662.8683
  51  785.1461
  52  981.4993
  53  752.0381
  54  583.6664
  55  691.1793
  56  776.3281
  57  637.3939
  58  624.4586
  59  811.1434
  60  620.9785
  61  426.6635
  62  640.6573
  63  435.1023
  64  684.0759
  65  819.5616
  66  727.2939
  67  619.1826
  68  739.0618
  69  779.0941
  70  738.1695
  71  828.1447
  72  733.1849
  73  701.855
  74  526.2833
  75  518.4423
  76  610.9615
  77  897.6851
  78  552.3901
  79  587.2009
  80  959.3499
  81  730.2391
  82  613.4556
  83  592.6528
  84  719.8426
  85  770.6746
  86  843.1711
  87  985.7853
  88  862.4961
  89  532.7972
  90  387.3876
  91  612.5944
  92  704.6082
  93  750.2567
  94  482.864
  95  609.1245
  96  634.7505
  97  615.7302
  98  730.4781
  99  649.3672
 100  361.5208
 101  336.8962
 102  622.8021
 103  763.7725
 104  674.1262
 105  413.0161
 106  574.6357
 107  870.9217
 108  710.584
 109  981.4652
 110  463.8704
 111  515.7396
 112  877.8439
 113  811.6373
 114  818.1066
 115  695.7122
 116  562.706
 117  841.898
 118  1032.567
 119  839.8337
 120  823.7032
 121  786.6854
 122  1037.402
 123  966.7626
 124  930.0308
 125  643.834
 126  643.4301
 127  603.2578
 128  608.5864
 129  788.8733
 130  946.6773
 131  1060.83
 132  1028.421
 133  1052.679
 134  886.9599
 135  657.8501
 136  503.0351
 137  460.1156
 138  727.5961
 139  1110.58
 140  828.8424
 141  643.2261
 142  566.0695
 143  584.1566
 144  489.3149
 145  536.6017
 146  608.6949
 147  759.5815
 148  868.6763
 149  753.2013
 150  721.8604
 151  900.6538
 152  765.8361
 153  596.9431
 154  569.2834
 155  818.5794
 156  582.9982
 157  330.9673
 158  417.5056
 159  590.5665
 160  655.9018
 161  761.9958
 162  949.2221
 163  723.2591
 164  536.5825
 165  615.1308
 166  598.9258
 167  852.3079
 168  559.5552
 169  709.8842
 170  831.564
 171  823.1759
 172  814.47
 173  1010.346
 174  775.3619
 175  390.9651
 176  667.7309
 177  576.9011
 178  703.9191
 179  769.3381
 180  602.1061
 181  820.8971
 182  825.9609
 183  1041.313
 184  543.7817
 185  457.7381
 186  640.6694
 187  466.8064
 188  876.0568
 189  777.1441
 190  656.22
 191  424.6887
 192  424.9017
 193  491.5154
 194  544.6874
 195  614.3629
 196  674.8883
 197  515.1247
 198  541.374
 199  506.9919
 200  727.5716
 201  879.473
 202  951.8881
 203  646.6373
 204  828.3737
 205  818.174
 206  311.9176
 207  463.1902
 208  591.762
 209  706.0118
 210  731.2842
 211  567.5278
 212  698.5866
 213  629.8196
 214  957.8779
 215  807.4439
 216  402.0981
 217  292.2046
 218  459.399
 219  406.7375
 220  644.2853
 221  701.4974
 222  560.3829
 223  744.9977
 224  602.9774
 225  700.0795
 226  689.0593
 227  421.219
 228  499.1068
 229  509.8062
 230  803.8875
 231  738.9448
 232  715.6142
 233  583.6274
 234  766.5165
 235  765.6245
 236  575.3524
 237  628.2241
 238  512.8948
 239  727.7656
 240  677.3777
 241  515.4803
 242  626.0103
 243  656.9578
 244  499.5888
 245  640.7947
 246  525.324
 247  265.9614
 248  481.35
 249  685.835
 250  820.4088
 251  654.1081
 252  641.7235
 253  480.5722
 254  552.2996
 255  446.1953
 256  714.4534
 257  584.4589
 258  589.3882
 259  676.1572
 260  578.8737
 261  836.084
 262  610.4164
 263  727.6852
 264  392.4655
 265  545.9294
 266  675.7545
 267  737.0309
 268  702.7285
 269  545.3986
 270  470.4165
 271  781.1537
 272  778.8945
 273  679.611
 274  569.6287
 275  555.6912
 276  632.0817
 277  638.8754
 278  710.9861
 279  506.7952
 280  723.1377
 281  636.8992
 282  381.0747
 283  424.5884
 284  703.4729
 285  693.9817
 286  342.8295
 287  379.396
 288  605.3292
 289  535.5131
 290  459.1744
 291  540.4021
 292  640.7704
 293  650.7433
 294  720.7949
 295  588.92
 296  702.2869
 297  719.8199
 298  807.0417
 299  683.949
 300  603.889
 301  614.1609
 302  634.1929
 303  394.8465
 304  550.3549
 305  683.0777
 306  803.0944
 307  834.5014
 308  770.9705
 309  1047.558
 310  920.9749
 311  887.7962
 312  1091.235
 313  1011.691
 314  1300.667
 315  1416.434
 316  2167.742
 317  2665.866
 318  2485.098
 319  2272.844
 320  1797.598
 321  1400.597
 322  1126.802
 323  1103.796
 324  962.4197
 325  1022.721
 326  931.6295
 327  781.7278
 328  750.4582
 329  926.6661
 330  898.1818
 331  826.3685
 332  1005.936
 333  694.61
 334  349.7156
 335  513.598
 336  694.658
 337  817.6851
 338  703.7458
 339  574.6627
 340  430.2038
 341  536.1656
 342  903.942
 343  863.3881
 344  939.9756
 345  737.2861
 346  939.4772
 347  979.7043
 348  725.8108
 349  751.6938
 350  971.2948
 351  890.1675
 352  733.3325
 353  921.5107
 354  875.1749
 355  915.4039
 356  788.8864
 357  1086.359
 358  1139.712
 359  990.0864
 360  940.0485
 361  789.8871
 362  776.8419
 363  726.5615
 364  843.8381
 365  1278.229
 366  936.2902
 367  510.9396
 368  483.6006
 369  732.5376
 370  496.426
 371  681.0529
 372  1053.528
 373  858.5731
 374  1025.328
 375  623.9234
 376  431.1772
 377  295.828
 378  704.0526
 379  885.4614
 380  576.0049
 381  935.1389
 382  801.9844
 383  359.4227
 384  533.8167
 385  864.0512
 386  694.0369
 387  361.6426
 388  625.0157
 389  690.1785
 390  785.7362
 391  769.5217
 392  870.1443
 393  895.9
 394  464.9499
 395  609.8127
 396  565.3209
 397  679.1001
 398  682.0757
 399  820.9752
 400  816.8902
 401  621.1445
 402  549.8755
 403  768.8177
 404  733.1466
 405  610.7025
 406  828.2758
 407  737.9185
 408  682.6711
 409  716.8488
 410  672.71
 411  906.9118
 412  651.9478
 413  342.2359
 414  436.4516
 415  584.5726
 416  941.4603
 417  580.321
 418  383.7151
 419  259.6252
 420  261.0945
 421  320.7056
 422  521.3099
 423  558.5794
 424  628.4257
 425  859.1208
 426  715.0927
 427  765.7437
 428  853.9826
 429  732.8955
 430  625.6323
 431  690.5477
 432  398.1537
 433  470.1094
 434  530.8076
 435  692.1976
 436  664.2034
 437  594.9724
 438  551.6407
 439  638.0762
 440  631.3848
 441  725.4792
 442  456.391
 443  488.8401
 444  444.7181
 445  370.6865
 446  609.2914
 447  843.8218
 448  798.7939
 449  586.4142
 450  734.5685
 451  695.0154
 452  646.8772
 453  435.357
 454  410.4583
 455  448.942
 456  554.0641
 457  694.4594
 458  656.8514
 459  199.9891
 460  139.7687
 461  502.0179
 462  535.3002
 463  628.4865
 464  877.4341
 465  711.852
 466  464.164
 467  582.325
 468  801.3782
 469  478.9689
 470  233.4241
 471  512.2358
 472  889.9399
 473  935.1307
 474  974.5023
 475  950.4205
 476  696.2767
 477  768.8672
 478  764.6576
 479  535.6085
 480  501.5189
 481  628.279
 482  663.0374
 483  589.5724
 484  827.4712
 485  441.4751
 486  536.2779
 487  568.7072
 488  994.5114
 489  924.0498
 490  822.9456
 491  657.1614
 492  687.0844
 493  759.1947
 494  692.952
 495  701.6868
 496  999.9564
 497  583.1488
 498  519.2593
 499  602.3386
 500  661.6068
 501  710.1436
 502  686.5281
 503  476.1133
 504  462.5935
 505  283.3621
 506  246.0158
 507  487.2635
 508  582.6973
 509  474.5344
 510  422.5431
 511  115.8948
