# Input file       =  1192228095.134478_cleaned.dat
# Candidate        =  PSR_0332+5434
# Telescope        =  AR
# Epoch_topo       =  58042.936506186088
# Epoch_bary       =  N/A
# T_sample         =  0.002
# Data Folded      =  7340032
# Data Avg         =  0.0119878372232335
# Data StdDev      =  1.00000972426565 
# Profile Bins     =  512
# Profile Avg      =  171.916605013707 
# Profile StdDev   =  119.734200692619 
# Reduced chi-sqr  =  1.622
# Prob(Noise)      <  1.8e-17   (~8.4 sigma)
# P_topo (ms)      =  714.482997762403  +/- 0.000228
# P'_topo (s/s)    =  -0                +/- 1.2e-10
# P''_topo (s/s^2) =  0                 +/- 5.32e-14
# P_bary (ms)      =  N/A
# P'_bary (s/s)    =  N/A
# P''_bary (s/s^2) =  N/A
# P_orb (s)        =  N/A
# asin(i)/c (s)    =  N/A
# eccentricity     =  N/A
# w (rad)          =  N/A
# T_peri           =  N/A
######################################################
   0  827.2949
   1  835.8947
   2  609.2977
   3  504.4204
   4  338.4547
   5  357.8098
   6  326.4359
   7  371.9151
   8  272.4418
   9  123.8606
  10  14.34822
  11  66.80636
  12  272.039
  13  199.2493
  14  176.3257
  15  159.6866
  16  165.8578
  17  214.542
  18  284.2113
  19  320.4302
  20  293.2239
  21  202.4852
  22  65.08772
  23  -3.881251
  24  61.89963
  25  115.3343
  26  103.9661
  27  275.8257
  28  310.3507
  29  196.3436
  30  194.2142
  31  227.1794
  32  194.1973
  33  169.8067
  34  184.2805
  35  160.0506
  36  171.9455
  37  263.003
  38  191.0999
  39  137.5096
  40  138.1277
  41  262.2865
  42  188.7399
  43  313.6424
  44  185.5752
  45  276.2264
  46  266.1339
  47  273.961
  48  169.6424
  49  97.92387
  50  140.5074
  51  180.4329
  52  139.3889
  53  186.1135
  54  230.1607
  55  172.0458
  56  119.1523
  57  217.8067
  58  180.5638
  59  138.3746
  60  11.96637
  61  9.599658
  62  108.9326
  63  128.0816
  64  148.4321
  65  190.9535
  66  200.4624
  67  243.7862
  68  226.2355
  69  167.0118
  70  112.0688
  71  107.2642
  72  56.53391
  73  103.1534
  74  104.496
  75  243.5628
  76  226.6144
  77  222.7348
  78  176.7242
  79  264.9116
  80  161.6368
  81  93.84756
  82  168.534
  83  102.4894
  84  143.3302
  85  146.7282
  86  157.8069
  87  147.6409
  88  148.9982
  89  281.7909
  90  331.6006
  91  294.4125
  92  303.8488
  93  229.0885
  94  199.18
  95  170.1046
  96  67.30838
  97  140.0524
  98  114.7037
  99  101.2795
 100  219.4547
 101  102.304
 102  120.9647
 103  146.3994
 104  147.9166
 105  213.7032
 106  179.218
 107  76.20493
 108  228.0073
 109  149.545
 110  195.4605
 111  132.6543
 112  88.54559
 113  245.2809
 114  196.4788
 115  89.5182
 116  315.2981
 117  102.8797
 118  193.8314
 119  239.4327
 120  235.2159
 121  215.8608
 122  117.0428
 123  291.6924
 124  271.5477
 125  252.2438
 126  296.2187
 127  246.8501
 128  192.9805
 129  149.1763
 130  228.0615
 131  370.7766
 132  329.2528
 133  231.7086
 134  204.1162
 135  63.6097
 136  203.4673
 137  258.6727
 138  227.4583
 139  316.4369
 140  275.5269
 141  394.9703
 142  262.2809
 143  175.2999
 144  267.8475
 145  333.3792
 146  261.7934
 147  300.647
 148  257.4013
 149  264.4784
 150  88.02908
 151  112.9806
 152  277.8538
 153  254.7971
 154  235.1309
 155  203.6752
 156  182.1314
 157  187.9411
 158  329.2947
 159  240.489
 160  188.9118
 161  147.899
 162  218.2229
 163  253.588
 164  145.7184
 165  90.2886
 166  121.0719
 167  184.832
 168  109.1178
 169  90.44828
 170  25.92567
 171  28.19907
 172  172.0108
 173  263.3049
 174  312.9192
 175  112.4566
 176  -47.61233
 177  19.1471
 178  98.99837
 179  174.0396
 180  153.9247
 181  44.90091
 182  112.2751
 183  45.52532
 184  104.1094
 185  40.84512
 186  81.75727
 187  89.49505
 188  215.1416
 189  211.5976
 190  173.9705
 191  233.0152
 192  168.2339
 193  288.59
 194  264.5629
 195  329.8878
 196  255.7374
 197  261.7463
 198  134.8786
 199  322.5576
 200  275.8229
 201  194.7811
 202  204.5549
 203  216.9939
 204  160.3746
 205  185.8065
 206  246.7168
 207  98.0655
 208  133.121
 209  201.4369
 210  223.3785
 211  112.9896
 212  49.77125
 213  34.6898
 214  4.114904
 215  -77.92268
 216  -36.37735
 217  -45.64271
 218  77.31037
 219  139.3325
 220  111.412
 221  85.11921
 222  2.747996
 223  98.00599
 224  173.2334
 225  74.62114
 226  114.7145
 227  145.3224
 228  78.50862
 229  99.67508
 230  67.2409
 231  135.2777
 232  90.17513
 233  76.58842
 234  132.0307
 235  145.696
 236  176.4666
 237  147.6794
 238  13.68695
 239  130.3444
 240  172.2092
 241  138.5617
 242  116.9922
 243  -62.35435
 244  -28.00603
 245  157.4251
 246  81.78234
 247  117.3388
 248  233.0837
 249  120.6058
 250  -40.63704
 251  114.8802
 252  185.208
 253  159.4434
 254  212.4915
 255  173.2973
 256  62.86607
 257  89.5743
 258  122.8367
 259  135.4004
 260  105.8242
 261  188.2794
 262  236.2846
 263  204.2922
 264  151.681
 265  74.3225
 266  95.13618
 267  132.158
 268  154.8777
 269  210.6481
 270  272.3524
 271  172.7106
 272  186.7095
 273  33.92669
 274  54.69524
 275  94.0891
 276  125.5695
 277  40.24982
 278  44.93606
 279  121.4161
 280  156.602
 281  99.67407
 282  16.97097
 283  122.4137
 284  152.817
 285  157.504
 286  99.97778
 287  149.5361
 288  113.7654
 289  5.142768
 290  7.845997
 291  158.4178
 292  198.4463
 293  322.9956
 294  287.9389
 295  287.7795
 296  195.1887
 297  260.6585
 298  217.9479
 299  106.0207
 300  69.89881
 301  152.57
 302  129.5105
 303  -2.799568
 304  82.3589
 305  196.2367
 306  219.6198
 307  167.0342
 308  107.9882
 309  166.6058
 310  188.1104
 311  143.622
 312  143.0883
 313  129.7438
 314  180.0114
 315  151.5681
 316  271.7728
 317  302.1586
 318  161.9923
 319  115.1197
 320  254.1803
 321  114.9863
 322  213.4366
 323  294.5091
 324  164.5247
 325  141.2675
 326  187.2577
 327  220.7467
 328  188.9771
 329  184.2233
 330  199.5019
 331  262.9937
 332  175.096
 333  174.5178
 334  174.0488
 335  144.3262
 336  116.3199
 337  161.0238
 338  199.4082
 339  143.9857
 340  -29.40496
 341  61.47134
 342  198.362
 343  317.99
 344  127.3877
 345  117.1998
 346  38.15477
 347  115.3981
 348  151.8627
 349  148.6525
 350  118.821
 351  178.3681
 352  257.1035
 353  424.2552
 354  290.7854
 355  143.9802
 356  218.6727
 357  277.847
 358  171.6858
 359  197.7211
 360  327.666
 361  318.9099
 362  229.8758
 363  149.6063
 364  275.7306
 365  323.8788
 366  174.1967
 367  185.1683
 368  130.7788
 369  147.3135
 370  185.1233
 371  144.1504
 372  174.1662
 373  312.5207
 374  212.9587
 375  145.7009
 376  138.2771
 377  124.8499
 378  -56.69506
 379  197.2668
 380  325.5392
 381  197.8211
 382  140.8177
 383  61.28621
 384  201.2455
 385  249.6849
 386  143.6267
 387  120.3874
 388  105.1568
 389  200.7795
 390  108.9062
 391  75.56363
 392  103.5846
 393  -1.900605
 394  110.6087
 395  145.9931
 396  84.27297
 397  202.6151
 398  244.4949
 399  231.4119
 400  183.6657
 401  224.6273
 402  179.5496
 403  253.8875
 404  255.1126
 405  132.9674
 406  85.27148
 407  160.1263
 408  225.8044
 409  213.2933
 410  245.9043
 411  153.9039
 412  72.2166
 413  45.36226
 414  92.07812
 415  163.0537
 416  171.0289
 417  123.7828
 418  115.0808
 419  136.3187
 420  226.3345
 421  131.0011
 422  231.6274
 423  170.0801
 424  4.168933
 425  -26.72672
 426  -6.875487
 427  6.400829
 428  123.882
 429  142.9011
 430  132.9479
 431  122.3794
 432  16.73569
 433  75.57069
 434  84.94194
 435  114.4692
 436  193.0582
 437  214.5719
 438  43.54205
 439  14.01379
 440  98.57883
 441  98.12012
 442  91.49704
 443  92.38815
 444  106.5489
 445  48.27283
 446  76.60948
 447  260.6155
 448  193.7584
 449  116.6259
 450  23.14622
 451  97.08695
 452  38.5578
 453  51.29231
 454  166.0774
 455  104.5998
 456  158.4008
 457  88.55199
 458  114.8376
 459  168.9516
 460  126.3296
 461  97.43338
 462  97.79911
 463  209.451
 464  150.521
 465  71.71614
 466  112.2937
 467  204.0579
 468  65.89101
 469  71.07366
 470  50.49283
 471  65.56171
 472  134.2811
 473  289.3593
 474  208.2063
 475  111.4898
 476  105.5177
 477  22.58293
 478  84.0574
 479  190.9732
 480  141.1792
 481  127.6258
 482  160.4689
 483  133.4424
 484  221.0634
 485  228.6384
 486  198.7398
 487  189.6294
 488  51.58289
 489  126.8251
 490  185.1102
 491  264.4048
 492  322.8901
 493  276.5658
 494  251.5112
 495  285.8857
 496  190.071
 497  47.53532
 498  176.3489
 499  266.7965
 500  333.0307
 501  304.2054
 502  174.4718
 503  198.597
 504  114.7265
 505  223.9647
 506  265.4863
 507  305.2155
 508  421.5713
 509  686.1857
 510  931.1445
 511  891.226
