# Input file       =  1192212944.130537_cleaned.dat
# Candidate        =  PSR_0332+5434
# Telescope        =  AR
# Epoch_topo       =  58042.761147344179
# Epoch_bary       =  N/A
# T_sample         =  0.002
# Data Folded      =  7405568
# Data Avg         =  0.0809519367109143
# Data StdDev      =  3.09444023445352 
# Profile Bins     =  512
# Profile Avg      =  1170.53813448033 
# Profile StdDev   =  372.157097357612 
# Reduced chi-sqr  =  0.899
# Prob(Noise)      <  0.951   (~0.0 sigma)
# P_topo (ms)      =  714.482844676302  +/- 0.000142
# P'_topo (s/s)    =  -0                +/- 7.44e-11
# P''_topo (s/s^2) =  0                 +/- 3.26e-14
# P_bary (ms)      =  N/A
# P'_bary (s/s)    =  N/A
# P''_bary (s/s^2) =  N/A
# P_orb (s)        =  N/A
# asin(i)/c (s)    =  N/A
# eccentricity     =  N/A
# w (rad)          =  N/A
# T_peri           =  N/A
######################################################
   0  2497.8
   1  3019.163
   2  2747.154
   3  2198.387
   4  1919.917
   5  1301.015
   6  1079.662
   7  1247.066
   8  984.4587
   9  1103.094
  10  1141.717
  11  813.2998
  12  668.6614
  13  1055.569
  14  1044.55
  15  1123.244
  16  1490.848
  17  1112.378
  18  1074.496
  19  1336.78
  20  1079.935
  21  992.9988
  22  1190.661
  23  1143.287
  24  1195.059
  25  1279.943
  26  1323.706
  27  1163.96
  28  1415.21
  29  1181.37
  30  855.8736
  31  845.579
  32  909.7191
  33  1200.053
  34  1591.335
  35  1500.247
  36  1494.915
  37  1376.954
  38  1397.913
  39  1454.142
  40  1286.649
  41  1398.207
  42  1484.742
  43  945.6094
  44  697.7331
  45  993.6483
  46  1574.475
  47  1318.597
  48  1103.826
  49  1198.202
  50  1219.444
  51  1329.912
  52  1398.701
  53  1057.697
  54  905.9641
  55  1324.399
  56  1174.388
  57  1012.378
  58  1363.891
  59  888.8149
  60  799.0759
  61  1088.514
  62  1336.122
  63  1068.633
  64  1062.123
  65  1109.133
  66  886.1631
  67  599.065
  68  787.9078
  69  1191.864
  70  1286.013
  71  1308.291
  72  1493.228
  73  1095.274
  74  1268.548
  75  1401.175
  76  1294.928
  77  1199.093
  78  1070.435
  79  1276.565
  80  1482.916
  81  936.3239
  82  1077.232
  83  957.3007
  84  749.1015
  85  971.9587
  86  1094.001
  87  1381.006
  88  1420.406
  89  1242.85
  90  1230.445
  91  1103.27
  92  968.6896
  93  980.1504
  94  859.5652
  95  1088.356
  96  1235.454
  97  1453.315
  98  1472.877
  99  1269.027
 100  1350.492
 101  1190.405
 102  1401.18
 103  1382.565
 104  1147.069
 105  1161.401
 106  1463.608
 107  1326.902
 108  1053.666
 109  959.2338
 110  1329.141
 111  1362.722
 112  1340.234
 113  1136.403
 114  1170.334
 115  916.0465
 116  988.1976
 117  912.3273
 118  1035.222
 119  1394.606
 120  1368.309
 121  1251.597
 122  1253.31
 123  1152.326
 124  877.2202
 125  718.4094
 126  962.9927
 127  1367.015
 128  983.4486
 129  952.131
 130  1019.641
 131  990.956
 132  859.9585
 133  1044.704
 134  1028.239
 135  1003.612
 136  1146.892
 137  1222.109
 138  1021.308
 139  1254.775
 140  1174.989
 141  972.7881
 142  1226.343
 143  1357.934
 144  1325.791
 145  1278.451
 146  1105.642
 147  1192.931
 148  1196.333
 149  953.8947
 150  919.301
 151  1401.397
 152  1680.408
 153  1653.498
 154  1513.557
 155  1462.027
 156  1022.586
 157  1046.621
 158  902.709
 159  1045.579
 160  1399.524
 161  1318.503
 162  1079.835
 163  1057.875
 164  1183.943
 165  1350.789
 166  823.3567
 167  904.722
 168  978.6284
 169  1337.502
 170  1115.343
 171  1263.094
 172  1300.75
 173  1338.047
 174  1112.125
 175  1154.418
 176  1514.281
 177  1194.877
 178  1063.036
 179  1526.707
 180  1100.217
 181  745.7337
 182  987.0384
 183  941.5062
 184  881.8786
 185  1132.958
 186  1328.511
 187  1168.905
 188  828.9785
 189  831.9876
 190  1171.129
 191  953.9692
 192  819.4163
 193  971.758
 194  1193.551
 195  1444.567
 196  1270.323
 197  1116.822
 198  1262.835
 199  1206.646
 200  1082.228
 201  1043.71
 202  1107.849
 203  1485.161
 204  1373.303
 205  1420.062
 206  1184.596
 207  940.71
 208  1079.945
 209  1146.858
 210  784.6417
 211  821.1807
 212  1151.085
 213  898.8821
 214  707.2694
 215  1335.703
 216  1260.358
 217  1442.408
 218  1496.547
 219  1246.626
 220  1031.058
 221  1221.809
 222  1118.839
 223  1159.504
 224  1168.664
 225  1303.392
 226  1235.015
 227  1434.636
 228  1411.536
 229  1425.021
 230  1463.772
 231  1188.083
 232  1217.739
 233  1270.233
 234  1027.608
 235  1172.854
 236  1323.357
 237  1228.793
 238  1362.33
 239  1425.942
 240  1061.138
 241  962.2052
 242  1274.07
 243  1038.943
 244  1487.746
 245  1617.486
 246  1676.26
 247  1260.773
 248  1346.483
 249  1299.007
 250  1224.731
 251  1032.714
 252  1077.608
 253  1239.592
 254  1170.695
 255  1097.579
 256  1186.006
 257  1062.521
 258  884.9477
 259  991.9124
 260  1220.6
 261  1604.553
 262  1492.287
 263  1494.888
 264  933.8478
 265  653.7613
 266  1164.934
 267  1198.842
 268  1377.884
 269  1578.653
 270  1741.187
 271  1191.685
 272  1012.855
 273  629.2124
 274  937.2922
 275  1186.598
 276  1032.78
 277  1038.263
 278  1061.338
 279  1186.582
 280  1164.301
 281  795.9713
 282  961.9304
 283  973.3727
 284  1184.601
 285  1016.948
 286  600.3828
 287  826.0165
 288  752.5834
 289  1037.627
 290  1228.028
 291  999.2474
 292  1071.242
 293  819.7064
 294  746.9727
 295  1085.326
 296  1011.354
 297  960.0828
 298  798.0146
 299  1050.037
 300  1460.908
 301  1303.294
 302  1526.489
 303  1684.151
 304  1433.419
 305  1330.248
 306  1455.247
 307  1054.663
 308  801.7457
 309  984.9467
 310  952.7911
 311  1262.777
 312  1236.944
 313  1265.104
 314  1182.433
 315  1104.613
 316  770.7889
 317  824.1812
 318  1152.78
 319  1276.09
 320  1166.297
 321  1105.061
 322  1352.675
 323  1143.832
 324  1205.962
 325  1091.634
 326  1037.296
 327  1055.911
 328  1031.333
 329  1254.188
 330  1343.352
 331  1298.873
 332  904.4282
 333  1158.625
 334  1160.491
 335  1337.718
 336  1398.255
 337  1336.266
 338  1196.371
 339  1033.035
 340  699.8895
 341  926.1563
 342  1265.718
 343  1320.022
 344  1285.068
 345  1252.167
 346  1282.464
 347  1086.693
 348  1223.037
 349  1043.673
 350  938.3732
 351  1337.664
 352  1391.379
 353  997.8998
 354  1131.789
 355  821.9822
 356  1119.231
 357  1117.018
 358  1186.711
 359  1243.492
 360  1059.761
 361  1288.098
 362  1521.118
 363  1312.178
 364  1065.791
 365  954.0674
 366  1169.651
 367  1033.867
 368  1331.911
 369  1152.871
 370  1317.848
 371  941.2785
 372  848.8076
 373  1052.898
 374  768.1627
 375  680.2698
 376  953.0208
 377  1065.037
 378  1027.853
 379  1042.947
 380  1444.776
 381  1031.59
 382  897.6202
 383  1016.012
 384  1354.093
 385  1566.209
 386  1544.697
 387  1372.499
 388  1097.476
 389  1251.231
 390  1038.95
 391  814.4358
 392  1035.992
 393  1356.451
 394  1301.67
 395  1432.267
 396  1525.291
 397  1289.872
 398  1152.45
 399  990.767
 400  1432.299
 401  1682.995
 402  1372.903
 403  1231.307
 404  948.0366
 405  899.249
 406  1077.716
 407  1152.506
 408  724.5835
 409  790.3903
 410  1060.937
 411  936.7482
 412  704.1774
 413  639.3596
 414  1126.186
 415  979.9174
 416  1192.197
 417  897.4901
 418  973.3721
 419  1091.838
 420  1015.7
 421  1231.958
 422  973.7997
 423  775.8377
 424  798.7047
 425  1007.707
 426  1124.265
 427  1341.804
 428  1037.57
 429  873.6242
 430  1300.675
 431  1348.63
 432  1159.385
 433  1257.282
 434  1107.844
 435  1107.196
 436  1387.506
 437  1349.692
 438  1178.789
 439  1001.868
 440  1329.538
 441  1343.463
 442  1317.267
 443  1125.459
 444  1036.573
 445  1037.479
 446  1186.696
 447  1173.326
 448  1025.975
 449  1416.266
 450  1171.562
 451  1109.242
 452  995.8757
 453  978.0132
 454  904.7202
 455  1207.505
 456  1278.995
 457  1255.56
 458  1084.849
 459  1017.375
 460  909.3442
 461  844.5258
 462  940.0632
 463  1101.769
 464  1007.816
 465  878.4139
 466  1050.229
 467  1451.606
 468  1521.437
 469  1152.996
 470  1123.286
 471  1122.22
 472  1272.925
 473  994.2911
 474  1094.427
 475  1374.079
 476  1574.721
 477  1615.866
 478  1364.934
 479  1298.504
 480  1219.163
 481  1400.908
 482  1094.82
 483  1402.483
 484  1616.157
 485  1521.413
 486  1282.753
 487  1016.754
 488  917.1613
 489  1103.968
 490  1039.016
 491  1187.395
 492  1297.878
 493  1497.314
 494  1154.238
 495  1394.768
 496  1172.578
 497  997.5331
 498  971.2867
 499  1173.536
 500  1518.029
 501  1009.572
 502  894.9368
 503  1242.076
 504  1152.775
 505  977.7443
 506  922.5791
 507  1080.355
 508  1294.883
 509  1521.975
 510  1495.619
 511  2164.303
