# Input file       =  1193017889.147111_cleaned.dat
# Candidate        =  PSR_0332+5434
# Telescope        =  AR
# Epoch_topo       =  58052.077640591560
# Epoch_bary       =  N/A
# T_sample         =  0.002
# Data Folded      =  7340032
# Data Avg         =  0.0788876669518817
# Data StdDev      =  3.07950808677548 
# Profile Bins     =  512
# Profile Avg      =  1130.965223048   
# Profile StdDev   =  368.718853776434 
# Reduced chi-sqr  =  1.040
# Prob(Noise)      <  0.256   (~0.7 sigma)
# P_topo (ms)      =  714.490776134389  +/- 0.000379
# P'_topo (s/s)    =  -0                +/- 2e-10
# P''_topo (s/s^2) =  0                 +/- 8.83e-14
# P_bary (ms)      =  N/A
# P'_bary (s/s)    =  N/A
# P''_bary (s/s^2) =  N/A
# P_orb (s)        =  N/A
# asin(i)/c (s)    =  N/A
# eccentricity     =  N/A
# w (rad)          =  N/A
# T_peri           =  N/A
######################################################
   0  1071.498
   1  1071.47
   2  1036.614
   3  949.5975
   4  1086.449
   5  1278.65
   6  1303.219
   7  1025.222
   8  723.8557
   9  914.4493
  10  1299.729
  11  1348.438
  12  1574.054
  13  1553.412
  14  1197.861
  15  1042.291
  16  1026.59
  17  745.6398
  18  949.438
  19  1289.312
  20  1076.251
  21  897.5836
  22  1142.539
  23  1430.327
  24  791.2347
  25  1054.476
  26  1185.952
  27  1146.111
  28  1408.808
  29  997.7988
  30  1096.039
  31  1313.987
  32  1219.738
  33  1217.64
  34  1188.654
  35  1027.923
  36  813.2214
  37  1016.935
  38  946.0354
  39  814.9072
  40  913.6537
  41  1113.679
  42  833.0694
  43  926.4171
  44  1377.319
  45  1197.734
  46  1305
  47  1061.561
  48  1326.139
  49  1109.15
  50  971.2896
  51  801.5538
  52  553.4113
  53  627.3021
  54  757.9239
  55  798.8881
  56  1019.209
  57  938.2126
  58  904.7452
  59  1118.111
  60  1060.5
  61  735.6695
  62  1140.33
  63  1357.145
  64  1308.246
  65  1362.313
  66  1329.19
  67  1155.013
  68  1314.022
  69  1064.641
  70  1220.433
  71  1164.163
  72  1442.695
  73  1382.273
  74  1464.92
  75  1114.112
  76  1267.865
  77  1339.207
  78  1162.065
  79  964.6882
  80  951.8433
  81  1148.71
  82  1152.016
  83  1182.983
  84  1052.959
  85  1267.417
  86  1265.483
  87  1165.16
  88  893.2673
  89  863.7449
  90  1206.079
  91  1136.021
  92  1196.243
  93  1107.903
  94  1208.11
  95  1346.317
  96  1067.564
  97  1168.872
  98  951.382
  99  717.5309
 100  1022.623
 101  1032.947
 102  1166.089
 103  968.2446
 104  1123.039
 105  1025.441
 106  909.8071
 107  1494.029
 108  1658.649
 109  1500.786
 110  1348.845
 111  1324.505
 112  1217.855
 113  1416.411
 114  1271.828
 115  1175.69
 116  1383.85
 117  1420.98
 118  1837.696
 119  2281.43
 120  2584.197
 121  2964.52
 122  2834.628
 123  2468.464
 124  2093.149
 125  1624.844
 126  1444.195
 127  1324.552
 128  1319.524
 129  1260.636
 130  1417.688
 131  1233.621
 132  990.1025
 133  1417.534
 134  1465.719
 135  1277.821
 136  1467.297
 137  1563.209
 138  1625.351
 139  1473.564
 140  1094.378
 141  1130.298
 142  1232.738
 143  1472.623
 144  1241.952
 145  833.2103
 146  1321.219
 147  1466.443
 148  1248.995
 149  858.8875
 150  817.4781
 151  1108.076
 152  1409.035
 153  1491.009
 154  1430.068
 155  1034.204
 156  1225.791
 157  1673.849
 158  1524.191
 159  1361
 160  1181.927
 161  849.6479
 162  878.1311
 163  1052.605
 164  1231.879
 165  1078.126
 166  785.7028
 167  820.905
 168  966.128
 169  994.7805
 170  842.7659
 171  912.2285
 172  928.1393
 173  796.9377
 174  912.8564
 175  928.0637
 176  1071.862
 177  1028.449
 178  943.3972
 179  1019.03
 180  855.8997
 181  943.5656
 182  797.5015
 183  985.3445
 184  1012.591
 185  902.2715
 186  1212.434
 187  1182.203
 188  1023.861
 189  1019.454
 190  959.4509
 191  1265.737
 192  1139.251
 193  1317.33
 194  1256.209
 195  1202.874
 196  1387.648
 197  1159.919
 198  1244.496
 199  1420.166
 200  1195.642
 201  1098.98
 202  1284.98
 203  1445.509
 204  1705.435
 205  1514.913
 206  1170.645
 207  959.0123
 208  999.7484
 209  1321.796
 210  1041.16
 211  1071.619
 212  1139.425
 213  755.6141
 214  875.889
 215  725.5478
 216  752.6165
 217  1251.835
 218  1370.129
 219  1482.514
 220  1295.139
 221  1050.088
 222  1032.167
 223  1019.573
 224  773.4785
 225  903.0976
 226  978.298
 227  1452.996
 228  1307.704
 229  1038.895
 230  1132.277
 231  1132.646
 232  1172.078
 233  884.5078
 234  864.803
 235  1224.656
 236  953.0981
 237  837.3508
 238  1244.441
 239  1143.41
 240  997.8597
 241  1125.667
 242  1252.325
 243  899.3043
 244  1160.512
 245  1175.294
 246  726.6912
 247  597.3947
 248  1346.286
 249  1554.763
 250  1007.703
 251  941.4825
 252  1216.405
 253  1039.248
 254  893.2877
 255  834.1517
 256  894.674
 257  1193.182
 258  973.3279
 259  861.149
 260  827.2821
 261  848.011
 262  875.0204
 263  1139.693
 264  729.1359
 265  770.9524
 266  341.9164
 267  538.0148
 268  970.9858
 269  996.627
 270  940.8045
 271  1120.071
 272  1313.202
 273  1069.162
 274  636.5829
 275  684.6188
 276  786.9221
 277  727.3698
 278  1016.009
 279  1078.82
 280  1088.498
 281  1245.287
 282  1402.71
 283  1228.853
 284  1061.111
 285  1058.855
 286  1188.214
 287  1316.128
 288  1130.236
 289  1176.247
 290  1094.649
 291  1095.462
 292  869.1787
 293  722.7061
 294  1162.469
 295  1353.343
 296  1594.468
 297  1125.664
 298  994.1777
 299  964.432
 300  924.9452
 301  1171.181
 302  1529.76
 303  1409.018
 304  1153.224
 305  1145.882
 306  1031.989
 307  815.8645
 308  963.7446
 309  1089.875
 310  1006.593
 311  1142.47
 312  983.8043
 313  1081.706
 314  1264.18
 315  1194.901
 316  1220.684
 317  1237.55
 318  1281.142
 319  1272.653
 320  913.1566
 321  930.8266
 322  1219.459
 323  1303.472
 324  985.333
 325  629.5006
 326  412.7725
 327  562.5631
 328  842.3914
 329  1183.669
 330  1343.833
 331  1503.805
 332  1518.26
 333  1022.914
 334  729.1067
 335  773.8105
 336  917.6832
 337  829.7996
 338  1033.223
 339  883.0554
 340  1370.372
 341  1296.124
 342  861.6729
 343  876.333
 344  886.287
 345  878.2079
 346  900.6373
 347  1032.379
 348  1235.907
 349  1034.457
 350  1126.442
 351  1159.393
 352  1033.777
 353  980.9113
 354  1155.701
 355  989.0646
 356  1129.48
 357  1068.946
 358  1138.087
 359  771.4741
 360  926.5236
 361  1352.559
 362  1232.869
 363  1429.515
 364  1450.074
 365  1250.662
 366  876.4092
 367  858.9053
 368  1001.648
 369  1263.87
 370  1608.514
 371  1219.255
 372  1395.955
 373  1633.014
 374  1482.356
 375  1478.05
 376  1456.465
 377  1136.734
 378  1067.488
 379  1023.841
 380  1172.092
 381  1144.552
 382  1083.127
 383  930.1782
 384  941.8461
 385  993.3895
 386  943.5433
 387  840.8111
 388  1053.342
 389  824.7265
 390  923.0011
 391  977.0325
 392  832.5169
 393  760.4127
 394  903.0227
 395  892.3278
 396  1174.827
 397  1110.304
 398  906.5288
 399  1230.934
 400  1121.346
 401  1143.676
 402  942.1768
 403  688.1823
 404  858.5757
 405  1059.853
 406  1077.574
 407  993.7497
 408  1062.007
 409  1091.866
 410  1058.974
 411  761.9764
 412  1168.029
 413  1091.828
 414  818.2048
 415  1015.546
 416  1077.726
 417  968.3601
 418  759.0833
 419  1071.609
 420  902.3645
 421  922.1689
 422  1032.731
 423  1318.588
 424  1118.21
 425  963.0129
 426  1295.472
 427  1072.854
 428  1040.784
 429  1348.449
 430  1368.788
 431  1123.743
 432  1062.65
 433  1113.391
 434  1138.339
 435  1194.625
 436  1160.518
 437  1504.151
 438  1264.969
 439  985.6281
 440  1083.326
 441  1438.307
 442  1354.615
 443  1195.836
 444  1184.336
 445  1156.269
 446  1144.975
 447  1032.848
 448  962.0079
 449  636.1798
 450  779.1309
 451  1136.786
 452  1196.314
 453  1325.037
 454  1277.591
 455  1285.909
 456  1149.505
 457  1051.695
 458  1238.212
 459  1651.855
 460  1414.215
 461  724.4708
 462  1072.142
 463  1391.125
 464  1138.772
 465  998.5748
 466  1302.268
 467  1483.548
 468  1407.574
 469  1239.572
 470  1281.845
 471  1288.234
 472  1089.528
 473  1283.454
 474  1354.948
 475  1449.858
 476  1003.774
 477  897.6141
 478  1078.819
 479  1060.949
 480  1228.399
 481  1530.431
 482  1463.789
 483  1117.385
 484  1119.877
 485  974.6772
 486  939.5264
 487  1186.77
 488  1388.488
 489  1296.684
 490  1188.26
 491  1095.345
 492  1006.325
 493  1299.214
 494  1451.402
 495  1364.717
 496  1102.546
 497  1030.826
 498  975.3784
 499  1191.389
 500  1195.713
 501  1319.906
 502  1038.677
 503  879.5521
 504  1265.253
 505  1339.604
 506  1113.305
 507  999.0505
 508  1060.658
 509  1153.849
 510  1440.842
 511  1299.576
