# Input file       =  1193778978.151512_cleaned.dat
# Candidate        =  PSR_0332+5434
# Telescope        =  AR
# Epoch_topo       =  58060.886541105465
# Epoch_bary       =  N/A
# T_sample         =  0.002
# Data Folded      =  7340032
# Data Avg         =  0.123060641726105
# Data StdDev      =  3.75453482776165 
# Profile Bins     =  1024
# Profile Avg      =  882.100397666611 
# Profile StdDev   =  317.874094175618 
# Reduced chi-sqr  =  0.695
# Prob(Noise)      <  1   (~0.0 sigma)
# P_topo (ms)      =  714.498388715453  +/- 0.000606
# P'_topo (s/s)    =  -0                +/- 3.2e-10
# P''_topo (s/s^2) =  0                 +/- 1.41e-13
# P_bary (ms)      =  N/A
# P'_bary (s/s)    =  N/A
# P''_bary (s/s^2) =  N/A
# P_orb (s)        =  N/A
# asin(i)/c (s)    =  N/A
# eccentricity     =  N/A
# w (rad)          =  N/A
# T_peri           =  N/A
######################################################
   0  941.8928
   1  837.7282
   2  761.3604
   3  764.6587
   4  785.2393
   5  816.8118
   6  879.5063
   7  919.9829
   8  979.6159
   9  866.3018
  10  854.6735
  11  781.979
  12  843.1439
  13  788.4589
  14  832.2263
  15  790.3702
  16  867.7141
  17  760.846
  18  833.5725
  19  759.3124
  20  825.6176
  21  842.3035
  22  945.3401
  23  917.4506
  24  924.708
  25  987.5747
  26  1033.986
  27  1006.184
  28  1103.571
  29  1069.526
  30  936.7088
  31  756.452
  32  720.6708
  33  759.6247
  34  738.562
  35  811.839
  36  824.0506
  37  739.7709
  38  733.8552
  39  851.5244
  40  968.3277
  41  940.4559
  42  933.3929
  43  948.694
  44  1055.287
  45  1116.679
  46  1153.793
  47  1024.435
  48  938.5485
  49  961.8386
  50  950.2476
  51  964.4158
  52  933.121
  53  982.3327
  54  1046.379
  55  1051.546
  56  1036.954
  57  931.6382
  58  854.4873
  59  833.8221
  60  869.8494
  61  824.5641
  62  849.8473
  63  906.4727
  64  980.1808
  65  899.794
  66  801.1091
  67  712.2175
  68  663.9689
  69  706.2198
  70  748.0459
  71  824.8376
  72  853.7173
  73  847.4554
  74  925.3946
  75  965.9142
  76  970.1073
  77  902.2203
  78  887.1613
  79  867.5069
  80  862.823
  81  867.2703
  82  884.2372
  83  822.6351
  84  744.9853
  85  723.6094
  86  714.3893
  87  725.9498
  88  696.668
  89  755.6468
  90  705.4327
  91  693.8696
  92  659.4626
  93  687.0587
  94  728.8851
  95  748.6306
  96  763.7104
  97  751.3731
  98  677.8196
  99  647.1487
 100  635.1166
 101  683.7913
 102  735.9263
 103  868.3373
 104  1006.651
 105  939.1948
 106  812.3892
 107  777.4611
 108  777.5019
 109  802.4046
 110  747.7244
 111  844.9315
 112  749.9152
 113  786.3516
 114  728.106
 115  888.1782
 116  946.2473
 117  981.4599
 118  907.9103
 119  861.2422
 120  821.9506
 121  899.3202
 122  841.9525
 123  807.8107
 124  846.959
 125  1026.659
 126  952.6323
 127  863.2925
 128  774.8472
 129  850.6967
 130  885.0193
 131  935.5701
 132  1007.849
 133  987.5468
 134  915.0016
 135  808.2299
 136  756.9805
 137  760.6049
 138  720.3746
 139  724.8394
 140  653.9508
 141  598.8871
 142  664.9516
 143  728.0137
 144  741.6764
 145  708.6937
 146  756.247
 147  720.3898
 148  664.6547
 149  751.4382
 150  894.11
 151  944.0148
 152  886.3901
 153  971.758
 154  1022.371
 155  927.976
 156  802.8254
 157  773.5157
 158  879.7318
 159  932.8348
 160  1009.9
 161  988.6503
 162  849.9456
 163  721.6365
 164  706.5576
 165  740.6095
 166  724.7147
 167  866.9742
 168  941.5954
 169  1014.124
 170  919.2405
 171  991.0325
 172  985.2479
 173  1051.668
 174  1040.715
 175  1014.604
 176  792.9069
 177  638.9944
 178  568.909
 179  723.29
 180  678.3563
 181  642.5109
 182  804.353
 183  808.7604
 184  888.6145
 185  822.0973
 186  893.9303
 187  856.2778
 188  902.6193
 189  1033.119
 190  1003.099
 191  923.3042
 192  897.3872
 193  762.4279
 194  625.5671
 195  520.5323
 196  675.4163
 197  850.8109
 198  881.0073
 199  735.2086
 200  738.9633
 201  817.1937
 202  854.25
 203  733.739
 204  704.2939
 205  720.6595
 206  763.688
 207  728.7292
 208  699.1664
 209  577.1711
 210  754.2097
 211  885.1551
 212  986.4037
 213  899.9947
 214  817.7374
 215  876.866
 216  826.8906
 217  768.8425
 218  710.8764
 219  731.6931
 220  705.7742
 221  803.1574
 222  803.9258
 223  802.6086
 224  704.7027
 225  728.8527
 226  756.7089
 227  762.0991
 228  733.6043
 229  840.9996
 230  843.1068
 231  860.8352
 232  833.2257
 233  909.0275
 234  825.7668
 235  733.0767
 236  735.747
 237  843.1353
 238  928
 239  896.6275
 240  862.2936
 241  791.7772
 242  849.3929
 243  910.3027
 244  893.7038
 245  840.6925
 246  873.0837
 247  912.8538
 248  886.2719
 249  829.4203
 250  847.1332
 251  893.0356
 252  812.2823
 253  786.403
 254  851.7441
 255  867.1208
 256  753.8085
 257  743.5774
 258  650.7554
 259  557.6743
 260  613.7056
 261  820.0591
 262  834.7736
 263  705.8947
 264  697.5376
 265  772.4337
 266  716.4828
 267  741.159
 268  861.9091
 269  886.6042
 270  867.5443
 271  767.1779
 272  844.7336
 273  799.4024
 274  733.0641
 275  676.522
 276  714.1763
 277  740.9594
 278  766.5963
 279  724.6479
 280  762.5308
 281  744.7913
 282  874.0501
 283  845.1423
 284  781.6312
 285  677.1265
 286  718.1934
 287  872.4305
 288  915.7506
 289  890.4106
 290  722.3024
 291  765.4689
 292  874.5807
 293  911.815
 294  842.4624
 295  704.0918
 296  757.4849
 297  714.7092
 298  720.4083
 299  667.3615
 300  579.2374
 301  639.0323
 302  752.2261
 303  790
 304  729.725
 305  704.5026
 306  858.1385
 307  906.1559
 308  948.8654
 309  829.9306
 310  761.6646
 311  713.6051
 312  738.9598
 313  822.1234
 314  808.8265
 315  828.3115
 316  795.3624
 317  849.9232
 318  802.0298
 319  837.9156
 320  854.4375
 321  957.6534
 322  960.5705
 323  995.4603
 324  992.0013
 325  1031.42
 326  966.5519
 327  918.311
 328  868.6303
 329  940.6718
 330  1020.764
 331  1017.675
 332  965.1264
 333  948.4111
 334  933.2508
 335  939.3799
 336  905.3029
 337  1105.313
 338  1142.344
 339  1179.667
 340  1094.262
 341  1014.767
 342  930.6075
 343  845.0211
 344  823.9869
 345  846.025
 346  939.5776
 347  1062.811
 348  1036.763
 349  1071.121
 350  1133.547
 351  1242.074
 352  1251.977
 353  1220.893
 354  1082.31
 355  1008.774
 356  1002.974
 357  1072.244
 358  1092.723
 359  992.6651
 360  923.0576
 361  933.3793
 362  1018.138
 363  1095.375
 364  1002.831
 365  868.3008
 366  731.0245
 367  739.4204
 368  805.893
 369  854.5875
 370  911.6245
 371  883.1245
 372  917.7747
 373  851.2012
 374  844.3512
 375  819.6899
 376  757.6071
 377  777.4418
 378  655.7638
 379  617.6582
 380  579.3682
 381  630.4811
 382  665.5887
 383  725.0302
 384  636.261
 385  651.8611
 386  695.9227
 387  762.7798
 388  822.4283
 389  780.1835
 390  942.3729
 391  816.986
 392  809.1828
 393  835.9229
 394  915.7144
 395  932.7474
 396  779.7359
 397  717.0844
 398  664.6937
 399  750.5279
 400  826.1368
 401  756.0231
 402  704.0257
 403  694.676
 404  840.5762
 405  821.4489
 406  825.549
 407  774.5973
 408  732.8644
 409  678.0823
 410  634.1492
 411  705.7658
 412  667.2579
 413  557.189
 414  548.5525
 415  634.0851
 416  801.6009
 417  842.8899
 418  927.9976
 419  1056.238
 420  1093.636
 421  1018.621
 422  913.4042
 423  871.5706
 424  783.868
 425  754.6147
 426  717.4606
 427  770.4687
 428  775.9402
 429  784.1437
 430  782.1959
 431  675.6656
 432  767.639
 433  907.4496
 434  1026.737
 435  988.9319
 436  989.5938
 437  915.8426
 438  900.7444
 439  833.3849
 440  845.5714
 441  771.8253
 442  831.2334
 443  944.2787
 444  1089.786
 445  1123.978
 446  1144.064
 447  1185.812
 448  1207.388
 449  1099.6
 450  1047.796
 451  984.7687
 452  992.4602
 453  982.6142
 454  1039.872
 455  1065.216
 456  1058.535
 457  1037.816
 458  1065.707
 459  1022.323
 460  978.0895
 461  965.7711
 462  1028.067
 463  982.222
 464  914.3463
 465  881.8984
 466  888.2734
 467  847.7361
 468  895.5072
 469  845.584
 470  826.205
 471  855.4438
 472  961.1021
 473  958.5065
 474  853.1039
 475  837.9566
 476  862.8731
 477  803.3391
 478  871.0313
 479  866.5048
 480  971.6663
 481  992.8965
 482  1038.684
 483  1033.944
 484  1007.248
 485  995.1312
 486  1087.618
 487  1047.912
 488  958.2858
 489  874.7397
 490  892.0329
 491  948.6499
 492  965.5076
 493  983.8207
 494  1033.494
 495  1095.825
 496  1130
 497  1127.248
 498  1004.12
 499  960.1064
 500  941.4028
 501  903.9866
 502  866.2043
 503  814.156
 504  926.5706
 505  950.801
 506  1028.366
 507  943.9404
 508  925.6498
 509  842.5582
 510  909.8623
 511  919.0759
 512  972.113
 513  861.3004
 514  825.9988
 515  758.1342
 516  736.1255
 517  626.168
 518  630.4697
 519  771.7393
 520  830.713
 521  777.6944
 522  714.3416
 523  705.9026
 524  806.4401
 525  864.0647
 526  1033.879
 527  1082.46
 528  1067.779
 529  863.5446
 530  759.9066
 531  750.1605
 532  838.2115
 533  979.8183
 534  1008.697
 535  1032.28
 536  977.5062
 537  921.9056
 538  881.9786
 539  892.2803
 540  907.5219
 541  866.1806
 542  728.7651
 543  701.4905
 544  812.3989
 545  1006.364
 546  1068.957
 547  1033.838
 548  1010.026
 549  914.1429
 550  851.7344
 551  744.7614
 552  780.4362
 553  779.2186
 554  885.2125
 555  861.0355
 556  768.2713
 557  720.4281
 558  810.8507
 559  858.0773
 560  755.6567
 561  726.7089
 562  782.1957
 563  769.6276
 564  758.812
 565  685.7761
 566  755.6232
 567  791.1118
 568  927.3604
 569  956.046
 570  959.8323
 571  845.0417
 572  800.3323
 573  760.6992
 574  882.339
 575  917.9507
 576  1073.973
 577  1008.544
 578  959.4285
 579  812.4864
 580  840.7101
 581  814.3813
 582  777.3817
 583  774.7101
 584  762.1012
 585  810.1908
 586  783.738
 587  844.3666
 588  759.2926
 589  736.2828
 590  636.4178
 591  736.8264
 592  734.149
 593  682.2295
 594  551.2164
 595  704.069
 596  780.581
 597  877.6168
 598  805.4624
 599  807.1025
 600  715.3677
 601  699.3492
 602  815.2213
 603  808.3103
 604  816.6395
 605  764.6757
 606  757.1066
 607  713.4575
 608  746.3973
 609  719.3954
 610  595.3874
 611  589.1624
 612  561.3658
 613  635.7565
 614  720.9372
 615  833.5405
 616  857.4805
 617  827.6673
 618  789.4545
 619  895.341
 620  954.8589
 621  975.509
 622  899.6129
 623  992.5079
 624  1069.134
 625  1047.901
 626  1065.139
 627  1161.555
 628  1326.538
 629  1493.359
 630  1559.772
 631  1466.443
 632  1486.517
 633  1638.243
 634  1766.277
 635  1685.843
 636  1594.677
 637  1518.727
 638  1415.948
 639  1136.997
 640  965.4644
 641  855.9212
 642  841.5975
 643  859.9055
 644  873.3997
 645  869.1283
 646  673.1121
 647  723.9104
 648  873.9362
 649  922.9039
 650  876.8948
 651  751.1725
 652  715.5795
 653  677.0948
 654  777.7166
 655  937.8555
 656  1009.335
 657  1068.918
 658  1079.833
 659  1050.92
 660  890.1437
 661  835.9038
 662  820.916
 663  984.7773
 664  904.2563
 665  874.4739
 666  768.4209
 667  830.8569
 668  785.0855
 669  743.6333
 670  661.5229
 671  705.2339
 672  669.5847
 673  681.2563
 674  677.8493
 675  785.6395
 676  757.7851
 677  757.0093
 678  637.7411
 679  647.5526
 680  622.1741
 681  714.2773
 682  799.2369
 683  887.3138
 684  909.1657
 685  807.1257
 686  717.4594
 687  681.7034
 688  773.9421
 689  837.7437
 690  1004.532
 691  944.2326
 692  869.0113
 693  737.1041
 694  765.5838
 695  786.228
 696  780.8237
 697  671.5034
 698  781.1933
 699  810.46
 700  843.0623
 701  896.1926
 702  1001.154
 703  976.7096
 704  888.2169
 705  928.5422
 706  980.5
 707  961.653
 708  947.4055
 709  922.6357
 710  871.9563
 711  846.1295
 712  758.2725
 713  715.6178
 714  685.2326
 715  757.8992
 716  823.793
 717  840.3411
 718  941.0969
 719  947.282
 720  869.7912
 721  792.9149
 722  853.8462
 723  976.2325
 724  1047.054
 725  941.7655
 726  908.8517
 727  795.4731
 728  850.3323
 729  875.4847
 730  917.0419
 731  904.3939
 732  959.0843
 733  1060.128
 734  1071.286
 735  971.8207
 736  917.2488
 737  911.374
 738  881.403
 739  833.9084
 740  851.4879
 741  807.3503
 742  727.9822
 743  787.4861
 744  894.6646
 745  1015.591
 746  976.1998
 747  914.9196
 748  837.4998
 749  776.7879
 750  741.0358
 751  743.905
 752  840.3872
 753  835.709
 754  862.8807
 755  856.6151
 756  893.8889
 757  848.8842
 758  866.6216
 759  828.8732
 760  789.8058
 761  788.6098
 762  778.7175
 763  842.4308
 764  726.8805
 765  812.3338
 766  861.3214
 767  828.9009
 768  643.9251
 769  672.3934
 770  795.9123
 771  896.5134
 772  853.8024
 773  817.2545
 774  839.7254
 775  957.562
 776  1118.348
 777  1226.409
 778  1165.546
 779  1173.063
 780  1075.417
 781  947.4158
 782  835.9319
 783  843.2477
 784  993.0717
 785  1046.508
 786  1108.534
 787  1075.967
 788  1006.491
 789  976.5978
 790  958.6919
 791  964.1135
 792  939.6668
 793  932.0522
 794  851.8384
 795  832.8734
 796  828.2659
 797  900.0196
 798  919.2009
 799  1010.994
 800  1060.372
 801  1081.528
 802  1060.641
 803  1018.987
 804  1062.716
 805  1048.036
 806  1077.325
 807  1064.011
 808  1206.069
 809  1190.861
 810  1173.525
 811  1066.362
 812  1083.86
 813  1010.122
 814  938.7607
 815  904.707
 816  880.9433
 817  873.291
 818  892.2422
 819  937.7166
 820  938.0856
 821  1004.695
 822  1096.015
 823  1155.038
 824  1077.411
 825  963.0027
 826  864.8411
 827  753.2806
 828  698.7437
 829  715.927
 830  839.2701
 831  860.1163
 832  761.5767
 833  777.4125
 834  831.5649
 835  950.1968
 836  995.249
 837  930.7722
 838  946.1381
 839  889.3444
 840  866.7768
 841  769.718
 842  727.7375
 843  775.5128
 844  721.1237
 845  717.0393
 846  654.3693
 847  706.6652
 848  845.0161
 849  873.6829
 850  993.4009
 851  991.2256
 852  1116.664
 853  980.8619
 854  961.8693
 855  866.6553
 856  915.2999
 857  910.5132
 858  953.1786
 859  975.8056
 860  952.4885
 861  967.7379
 862  993.9141
 863  1013.226
 864  827.8128
 865  786.1912
 866  883.3973
 867  1003.645
 868  1049.629
 869  997.0164
 870  1160.511
 871  1116.678
 872  1157.138
 873  1086.741
 874  1032.595
 875  913.506
 876  840.944
 877  859.0028
 878  888.8379
 879  888.4572
 880  892.5969
 881  922.1862
 882  927.2963
 883  1023.424
 884  1116.991
 885  1234.793
 886  1180.874
 887  1078.138
 888  1037.549
 889  1042.92
 890  1121.317
 891  1182.288
 892  1183.995
 893  1182.557
 894  1101.719
 895  990.98
 896  962.6102
 897  849.1774
 898  915.5408
 899  941.0738
 900  1187.138
 901  1243.415
 902  1180.194
 903  1013.291
 904  899.5061
 905  935.9128
 906  930.3303
 907  924.366
 908  818.1789
 909  895.9193
 910  913.4198
 911  960.2983
 912  980.0204
 913  999.8726
 914  996.1627
 915  959.4968
 916  912.9928
 917  989.7047
 918  1014.697
 919  1035.247
 920  814.5629
 921  743.1835
 922  733.3385
 923  970.5319
 924  965.0746
 925  956.3806
 926  922.4717
 927  942.4586
 928  966.484
 929  978.7719
 930  994.145
 931  1001.796
 932  961.0308
 933  1007.957
 934  954.0939
 935  1061.463
 936  1050.286
 937  999.6779
 938  987.1561
 939  1027.69
 940  1119.218
 941  1067.651
 942  1011.154
 943  1049.274
 944  1100.023
 945  1060.963
 946  936.5184
 947  923.2932
 948  922.9225
 949  897.6207
 950  817.6828
 951  888.2641
 952  876.706
 953  902.2499
 954  931.3807
 955  965.7916
 956  930.2584
 957  867.3127
 958  908.6693
 959  878.9624
 960  882.8088
 961  877.0789
 962  977.9138
 963  968.9548
 964  981.4382
 965  904.3616
 966  906.8222
 967  938.0497
 968  909.9694
 969  926.5228
 970  882.282
 971  1028.582
 972  1048.952
 973  958.5605
 974  865.5057
 975  843.1537
 976  995.7346
 977  920.4941
 978  834.8383
 979  740.4837
 980  844.7259
 981  1070.141
 982  1096.678
 983  1092.207
 984  980.3796
 985  1041.597
 986  1059.912
 987  1100.347
 988  999.7833
 989  950.1484
 990  946.9929
 991  1005.447
 992  1017.242
 993  1040.824
 994  934.2753
 995  799.2158
 996  735.4921
 997  804.8203
 998  928.4919
 999  914.3571
1000  913.8194
1001  881.4434
1002  954.4698
1003  962.4976
1004  860.791
1005  788.671
1006  764.8519
1007  804.3004
1008  797.8037
1009  771.922
1010  722.6719
1011  710.6711
1012  758.3344
1013  864.6402
1014  844.6102
1015  798.2658
1016  809.6113
1017  870.425
1018  894.7283
1019  940.8408
1020  998.6472
1021  1026.527
1022  1004.026
1023  980.6447
