# Input file       =  1193677587.15639_cleaned.dat
# Candidate        =  PSR_0332+5434
# Telescope        =  AR
# Epoch_topo       =  58059.713034217479
# Epoch_bary       =  N/A
# T_sample         =  0.002
# Data Folded      =  7143424
# Data Avg         =  0.0782575358886597
# Data StdDev      =  3.63033823304402 
# Profile Bins     =  512
# Profile Avg      =  1091.98300628123 
# Profile StdDev   =  428.810413277563 
# Reduced chi-sqr  =  0.897
# Prob(Noise)      <  0.954   (~0.0 sigma)
# P_topo (ms)      =  714.497279396639  +/- 0.000131
# P'_topo (s/s)    =  -0                +/- 7.1e-11
# P''_topo (s/s^2) =  0                 +/- 3.22e-14
# P_bary (ms)      =  N/A
# P'_bary (s/s)    =  N/A
# P''_bary (s/s^2) =  N/A
# P_orb (s)        =  N/A
# asin(i)/c (s)    =  N/A
# eccentricity     =  N/A
# w (rad)          =  N/A
# T_peri           =  N/A
######################################################
   0  923.9643
   1  660.8936
   2  525.3363
   3  905.6428
   4  1031.731
   5  754.1676
   6  807.5842
   7  749.4838
   8  846.4055
   9  1038.408
  10  1468.657
  11  1081.17
  12  948.6683
  13  886.4496
  14  1059.682
  15  816.1492
  16  604.3425
  17  897.9347
  18  885.6786
  19  1070.099
  20  897.8884
  21  1009.487
  22  705.851
  23  911.1185
  24  737.0453
  25  914.1129
  26  780.1334
  27  441.3413
  28  749.0388
  29  829.7978
  30  636.2626
  31  450.0261
  32  971.2682
  33  1083.457
  34  1060.856
  35  789.847
  36  773.4641
  37  806.2419
  38  466.4579
  39  846.0878
  40  1017.282
  41  1015.662
  42  683.2557
  43  584.7344
  44  650.662
  45  607.7647
  46  1046.519
  47  1083.24
  48  1163.829
  49  1402.42
  50  1125.202
  51  1221.75
  52  768.935
  53  1104.29
  54  1258.582
  55  1011.213
  56  1285.424
  57  1110.116
  58  751.4264
  59  779.5297
  60  732.158
  61  796.6753
  62  1085.638
  63  942.8262
  64  1148.342
  65  1250.693
  66  964.5374
  67  945.873
  68  866.8188
  69  1069.439
  70  1303.473
  71  1075.376
  72  1102.409
  73  1130.336
  74  897.2828
  75  974.3509
  76  949.1238
  77  821.2766
  78  602.7957
  79  714.8938
  80  883.9102
  81  1003.753
  82  731.5825
  83  842.03
  84  1183.931
  85  876.5847
  86  802.0732
  87  1044.007
  88  1040.019
  89  889.6772
  90  895.4371
  91  1202.427
  92  1056.283
  93  1435.513
  94  1161.939
  95  915.1472
  96  771.111
  97  1079.783
  98  1222.241
  99  1185.134
 100  1351.607
 101  1346.897
 102  1231.774
 103  1046.622
 104  919.0662
 105  1059.558
 106  969.4593
 107  1144.218
 108  1629.934
 109  1230.213
 110  968.583
 111  751.9869
 112  983.144
 113  1007.401
 114  934.9506
 115  940.7429
 116  1081.725
 117  1082.569
 118  1440.777
 119  1331.366
 120  777.6373
 121  1125.171
 122  1014.037
 123  1296.525
 124  1128.986
 125  1266.395
 126  928.6769
 127  921.9519
 128  672.6776
 129  664.478
 130  823.7016
 131  984.0981
 132  1130.436
 133  764.9072
 134  636.464
 135  711.024
 136  817.1248
 137  835.6348
 138  708.0504
 139  541.8437
 140  514.8945
 141  750.8565
 142  1036.874
 143  1017.748
 144  1001.752
 145  803.6066
 146  1034.842
 147  735.131
 148  952.9097
 149  860.9428
 150  718.3408
 151  898.1082
 152  843.5181
 153  1103.153
 154  776.7703
 155  974.1095
 156  1400.104
 157  1317.685
 158  1119.909
 159  1067.169
 160  951.7202
 161  973.6998
 162  885.2335
 163  1136.346
 164  1243.596
 165  1034.946
 166  991.7715
 167  634.5654
 168  504.2468
 169  972.5314
 170  1562.7
 171  1302.771
 172  1269.871
 173  1189.98
 174  937.6578
 175  861.4066
 176  812.5179
 177  869.1261
 178  823.9951
 179  853.8447
 180  1138.61
 181  1441.575
 182  1189.771
 183  883.0436
 184  611.3155
 185  555.2495
 186  730.1592
 187  1001.218
 188  927.3256
 189  1033.004
 190  1441.883
 191  1324.913
 192  1076.051
 193  802.9634
 194  831.5283
 195  872.976
 196  1082.401
 197  1553.354
 198  1499.01
 199  1222.764
 200  966.2404
 201  1290.94
 202  1170.047
 203  863.48
 204  990.1021
 205  1197.908
 206  1365.708
 207  1094.862
 208  1275.755
 209  1124.941
 210  1235.657
 211  1191.481
 212  1241.838
 213  1097.151
 214  1389.9
 215  1535.654
 216  1605.175
 217  1066.382
 218  1105.615
 219  1373.122
 220  1231.612
 221  1181.716
 222  1347.847
 223  1283.822
 224  1243.025
 225  1786.87
 226  2645.019
 227  3189.473
 228  2773.023
 229  2633.438
 230  2154.117
 231  1720.195
 232  991.5332
 233  889.9531
 234  755.7411
 235  808.0422
 236  1176.422
 237  1345.391
 238  1259.991
 239  1475.213
 240  1390.755
 241  1264.573
 242  1102.746
 243  1365.927
 244  1095.857
 245  1224.577
 246  1034.313
 247  1288.768
 248  1202.786
 249  665.3815
 250  863.9304
 251  1076.923
 252  1281.612
 253  1487.132
 254  1535.068
 255  1331.542
 256  1003.222
 257  1203.275
 258  1197.56
 259  1276.2
 260  1438.512
 261  1092.373
 262  976.7335
 263  1348.944
 264  1489.889
 265  1403.202
 266  1053.996
 267  850.6874
 268  1242.408
 269  1357.178
 270  1047.568
 271  1354.944
 272  1225.157
 273  896.4683
 274  1177.813
 275  1201.857
 276  646.4466
 277  678.5204
 278  932.8954
 279  816.1173
 280  1405.159
 281  1054.444
 282  1043.378
 283  790.261
 284  869.1696
 285  862.5566
 286  1167.629
 287  1660.119
 288  1758.572
 289  1496.31
 290  1567.145
 291  1674.411
 292  1315.271
 293  1408.153
 294  1335.55
 295  1151.498
 296  1284.826
 297  1234.99
 298  1169.968
 299  964.2276
 300  976.7831
 301  1290.531
 302  1356.188
 303  1168.492
 304  1368.172
 305  1507.857
 306  1058.326
 307  1114.099
 308  1119.402
 309  1325.879
 310  948.5824
 311  774.355
 312  1250.863
 313  1170.292
 314  1198.676
 315  1134.385
 316  1222.227
 317  936.561
 318  1130.044
 319  1246.818
 320  1041
 321  1341.091
 322  1232.802
 323  999.361
 324  910.5748
 325  1279.327
 326  1097.983
 327  930.8097
 328  1169.32
 329  1383.673
 330  1414.011
 331  1257.924
 332  1034.153
 333  923.8987
 334  1010.57
 335  1048.948
 336  1294.394
 337  1171.437
 338  1458.828
 339  1164.056
 340  1211.77
 341  824.7521
 342  1256.907
 343  1320.761
 344  1206.507
 345  1092.706
 346  754.0163
 347  577.8112
 348  881.1797
 349  1116.341
 350  849.4919
 351  961.2106
 352  910.7845
 353  1000.424
 354  1214.622
 355  1415.247
 356  1198.937
 357  905.6347
 358  563.2226
 359  622.636
 360  754.3095
 361  1034.183
 362  1354.082
 363  1338.958
 364  1071.463
 365  941.2348
 366  915.1621
 367  913.5829
 368  707.8835
 369  945.1108
 370  1318.186
 371  1252.105
 372  1770.137
 373  1397.265
 374  1170.751
 375  1244.828
 376  1397.281
 377  1351.792
 378  1230.985
 379  1409.4
 380  1242.807
 381  1092.279
 382  908.1751
 383  1097.276
 384  1235.939
 385  1099.898
 386  1056.654
 387  1047.323
 388  1249.406
 389  1107.271
 390  1116.38
 391  1148.926
 392  1519.127
 393  1152.695
 394  1088.814
 395  1378.377
 396  1167.89
 397  1170.234
 398  1181.766
 399  1052.776
 400  809.3857
 401  1102.763
 402  1834.301
 403  1631.975
 404  1189.941
 405  1484.594
 406  1285.416
 407  1092.186
 408  1445.917
 409  1628.343
 410  1373.226
 411  1317.683
 412  1312.746
 413  1159.284
 414  739.9119
 415  776.3955
 416  1114.218
 417  931.2426
 418  936.7228
 419  943.1302
 420  1243.623
 421  1236.905
 422  1080.663
 423  789.3911
 424  544.3105
 425  1040.472
 426  1417.762
 427  1607.698
 428  1144.062
 429  1641.688
 430  1486.665
 431  1375.052
 432  1204.5
 433  1049.313
 434  1092.943
 435  885.7753
 436  1172.409
 437  1482.716
 438  1395.249
 439  973.594
 440  814.1454
 441  890.4746
 442  1148.272
 443  1152.571
 444  977.0182
 445  1351.221
 446  1225.778
 447  1124.786
 448  1198.918
 449  942.7826
 450  926.2798
 451  1174.481
 452  879.692
 453  1093.037
 454  1335.102
 455  1261.823
 456  1265.584
 457  1327.844
 458  879.7638
 459  949.6574
 460  909.5891
 461  849.1331
 462  934.1826
 463  873.3384
 464  759.605
 465  1027.923
 466  1385.118
 467  1315.904
 468  1041.765
 469  820.8029
 470  964.4366
 471  1000.146
 472  823.2412
 473  733.1279
 474  874.2031
 475  1178.753
 476  1326.186
 477  972.8273
 478  1039.683
 479  1187.636
 480  940.3326
 481  864.8533
 482  1373.731
 483  894.5107
 484  860.3873
 485  1381.779
 486  1356.956
 487  1076.153
 488  1066.089
 489  1027.603
 490  884.1128
 491  840.5836
 492  1359.362
 493  1084.132
 494  1174.472
 495  1202.331
 496  1038.065
 497  1074.106
 498  1334.679
 499  1251.641
 500  729.1653
 501  1251.512
 502  1535.62
 503  1349.682
 504  936.6386
 505  896.0834
 506  1176.667
 507  1162.068
 508  993.7372
 509  963.8108
 510  1136.787
 511  1320.932
