# Input file       =  1193276335.140115_cleaned.dat
# Candidate        =  PSR_0332+5434
# Telescope        =  AR
# Epoch_topo       =  58055.068913658739
# Epoch_bary       =  N/A
# T_sample         =  0.002
# Data Folded      =  7340032
# Data Avg         =  0.0570176363970469
# Data StdDev      =  2.73943462248275 
# Profile Bins     =  512
# Profile Avg      =  817.438045358907 
# Profile StdDev   =  328.000825305499 
# Reduced chi-sqr  =  1.204
# Prob(Noise)      <  0.00105   (~3.1 sigma)
# P_topo (ms)      =  714.493401409062  +/- 0.000149
# P'_topo (s/s)    =  -0                +/- 7.85e-11
# P''_topo (s/s^2) =  0                 +/- 3.47e-14
# P_bary (ms)      =  N/A
# P'_bary (s/s)    =  N/A
# P''_bary (s/s^2) =  N/A
# P_orb (s)        =  N/A
# asin(i)/c (s)    =  N/A
# eccentricity     =  N/A
# w (rad)          =  N/A
# T_peri           =  N/A
######################################################
   0  1081.283
   1  902.7274
   2  758.9197
   3  555.0864
   4  1077.105
   5  1161.218
   6  1017.788
   7  833.3941
   8  828.8896
   9  846.7538
  10  752.0389
  11  652.0408
  12  635.6683
  13  668.0704
  14  711.8176
  15  610.48
  16  753.3881
  17  512.4641
  18  855.1308
  19  1110.857
  20  769.1218
  21  785.2341
  22  838.8853
  23  821.5463
  24  675.5294
  25  862.108
  26  756.8135
  27  554.366
  28  890.7205
  29  972.2888
  30  677.3771
  31  604.1568
  32  484.6165
  33  653.6158
  34  1055.61
  35  1227.44
  36  873.8227
  37  773.2001
  38  758.7154
  39  938.597
  40  849.9649
  41  825.0552
  42  945.2508
  43  828.7497
  44  576.2086
  45  649.4373
  46  818.8507
  47  732.8045
  48  450.4977
  49  400.4538
  50  606.5948
  51  861.7886
  52  1098.526
  53  1188.03
  54  774.7922
  55  704.4556
  56  928.7571
  57  773.3544
  58  538.3561
  59  784.7051
  60  846.967
  61  1006.629
  62  1119.045
  63  1020.559
  64  1008.203
  65  923.8948
  66  924.4711
  67  961.2664
  68  1047.738
  69  889.2344
  70  988.4745
  71  873.001
  72  681.4316
  73  446.1432
  74  416.4089
  75  363.4615
  76  454.0323
  77  583.0428
  78  552.6389
  79  986.3445
  80  1100.359
  81  1097.233
  82  1076.637
  83  972.7531
  84  710.2225
  85  863.2141
  86  629.0583
  87  765.4326
  88  730.7772
  89  618.6415
  90  504.014
  91  818.9227
  92  1161.218
  93  933.4265
  94  760.2883
  95  830.8179
  96  722.1521
  97  879.8743
  98  953.9911
  99  1366.057
 100  1371.511
 101  1269.617
 102  917.9707
 103  753.366
 104  680.9911
 105  861.1305
 106  744.1642
 107  630.4229
 108  700.9385
 109  1006.956
 110  951.5262
 111  657.0306
 112  442.8142
 113  839.7104
 114  755.2203
 115  765.8111
 116  742.1481
 117  790.2817
 118  534.7234
 119  745.9088
 120  787.1019
 121  758.8997
 122  640.5082
 123  606.6208
 124  1020.849
 125  822.7286
 126  733.236
 127  1309.173
 128  1238.739
 129  1230.29
 130  1089.165
 131  949.5129
 132  1024.996
 133  904.4358
 134  813.357
 135  730.734
 136  668.577
 137  875.7565
 138  807.7043
 139  921.8528
 140  943.1216
 141  603.514
 142  806.228
 143  870.9124
 144  888.9183
 145  1196.012
 146  1143.944
 147  889.71
 148  1154.883
 149  1136.316
 150  933.1838
 151  830.8638
 152  1178.809
 153  1094.371
 154  665.1118
 155  885.0389
 156  1042.806
 157  1081.752
 158  1151.712
 159  1102.365
 160  922.6816
 161  625.3914
 162  671.5081
 163  745.9559
 164  1301.059
 165  1337.011
 166  1332.39
 167  1240.694
 168  1271.388
 169  1485.544
 170  1796.024
 171  2121.156
 172  2307.508
 173  2321.645
 174  2400.635
 175  1820.538
 176  1118.007
 177  919.118
 178  873.5947
 179  913.3017
 180  1071.483
 181  806.8007
 182  815.6542
 183  1056.632
 184  1016.664
 185  851.0814
 186  992.6526
 187  1242.907
 188  1222.648
 189  1135.821
 190  713.7026
 191  613.4637
 192  613.5375
 193  935.791
 194  934.5865
 195  543.0261
 196  673.2304
 197  784.7772
 198  859.0571
 199  800.1393
 200  1000.287
 201  736.4678
 202  403.5244
 203  856.5374
 204  1091.588
 205  721.5107
 206  427.7418
 207  752.3999
 208  862.5096
 209  783.6454
 210  1094.764
 211  683.1116
 212  619.7086
 213  778.9194
 214  970.1694
 215  1154.05
 216  941.6656
 217  739.8135
 218  703.9284
 219  719.6761
 220  746.7458
 221  1154.817
 222  1107.808
 223  985.7814
 224  1007.71
 225  900.1625
 226  847.5412
 227  980.522
 228  1123.619
 229  946.4694
 230  844.0226
 231  987.1503
 232  605.9422
 233  544.3994
 234  604.732
 235  515.8718
 236  418.7377
 237  459.4212
 238  674.4158
 239  963.4519
 240  1047.473
 241  759.8698
 242  556.873
 243  1002.81
 244  1003.898
 245  809.6403
 246  1091.69
 247  984.1219
 248  792.3547
 249  712.0295
 250  663.1409
 251  758.0735
 252  562.2281
 253  796.829
 254  918.296
 255  772.6089
 256  633.3525
 257  712.6976
 258  1003.408
 259  975.3698
 260  1041.138
 261  615.18
 262  933.7685
 263  1120.752
 264  1101.201
 265  880.5933
 266  826.4626
 267  915.4995
 268  769.0529
 269  632.9448
 270  565.5856
 271  706.6965
 272  1035.068
 273  1143.675
 274  1264.656
 275  1005.35
 276  956.8447
 277  713.7547
 278  523.1536
 279  635.5023
 280  654.8353
 281  774.6666
 282  1087.717
 283  913.5741
 284  778.6245
 285  734.7125
 286  884.9984
 287  908.3467
 288  1006.208
 289  650.6693
 290  588.1138
 291  432.9686
 292  452.8045
 293  474.0532
 294  467.694
 295  739.5103
 296  964.2971
 297  781.075
 298  802.8165
 299  1005.403
 300  1046.362
 301  751.4197
 302  1010.094
 303  1266.312
 304  962.4588
 305  780.3542
 306  746.1962
 307  547.1355
 308  570.73
 309  843.8452
 310  717.2978
 311  730.5507
 312  931.5538
 313  681.1941
 314  525.1031
 315  769.5015
 316  870.4908
 317  768.6042
 318  465.0412
 319  586.2448
 320  1039.256
 321  785.9761
 322  723.7285
 323  740.2471
 324  903.5502
 325  702.7485
 326  559.5937
 327  564.3321
 328  542.2847
 329  830.8682
 330  663.0756
 331  479.7214
 332  434.9184
 333  587.8177
 334  681.9893
 335  420.6766
 336  585.0213
 337  798.1651
 338  624.5521
 339  661.4481
 340  643.9932
 341  603.5684
 342  665.5642
 343  663.6954
 344  755.34
 345  915.5118
 346  1086.297
 347  891.8602
 348  842.6893
 349  681.899
 350  426.4727
 351  686.6853
 352  855.2533
 353  721.9364
 354  997.2604
 355  1081.214
 356  774.3353
 357  606.5383
 358  1016.274
 359  763.4873
 360  1067.73
 361  943.4927
 362  852.7751
 363  546.7517
 364  678.2167
 365  910.4472
 366  657.3237
 367  573.3593
 368  796.288
 369  593.2172
 370  554.8417
 371  818.8172
 372  996.7552
 373  955.4777
 374  682.1254
 375  751.4978
 376  482.9828
 377  379.5542
 378  343.5982
 379  785.9198
 380  911.8705
 381  456.4135
 382  581.0179
 383  547.2118
 384  323.134
 385  610.4943
 386  831.2668
 387  1153.689
 388  1032.208
 389  651.1464
 390  525.9553
 391  426.4251
 392  483.2197
 393  547.4705
 394  656.4198
 395  979.5623
 396  954.6269
 397  910.5482
 398  928.9231
 399  727.7411
 400  617.0703
 401  412.8783
 402  675.2911
 403  657.3033
 404  879.1507
 405  965.2378
 406  1125.58
 407  752.175
 408  688.9096
 409  642.2634
 410  663.9663
 411  955.5427
 412  733.0704
 413  883.4123
 414  698.9818
 415  739.2236
 416  784.803
 417  805.5286
 418  704.3881
 419  664.5577
 420  794.0532
 421  1078.777
 422  1173.263
 423  1059.133
 424  987.8172
 425  741.2357
 426  866.4843
 427  518.2406
 428  776.7213
 429  1038.909
 430  1028.903
 431  964.3502
 432  874.8781
 433  884.7793
 434  807.5397
 435  801.2188
 436  1008.493
 437  804.9322
 438  640.2793
 439  1085.164
 440  1075.487
 441  836.4437
 442  1043.573
 443  1046.95
 444  649.7753
 445  1033.134
 446  1073.462
 447  1141.495
 448  818.743
 449  442.4167
 450  622.6158
 451  781.6225
 452  992.8431
 453  1023.054
 454  812.1445
 455  455.8702
 456  387.4433
 457  707.4893
 458  650.7169
 459  544.8257
 460  609.4472
 461  576.0333
 462  246.7302
 463  255.866
 464  584.6573
 465  855.8887
 466  709.3463
 467  515.2268
 468  549.9561
 469  424.7088
 470  645.8766
 471  707.7162
 472  466.3333
 473  537.7565
 474  452.9438
 475  457.8006
 476  643.2186
 477  839.04
 478  753.0025
 479  627.0465
 480  679.2532
 481  475.7042
 482  485.2251
 483  749.8691
 484  832.0171
 485  418.5966
 486  707.85
 487  862.3548
 488  485.6691
 489  413.9799
 490  450.5003
 491  664.5958
 492  869.2991
 493  569.2568
 494  377.7146
 495  474.0416
 496  739.6434
 497  865.874
 498  643.3087
 499  593.8938
 500  760.623
 501  932.3734
 502  942.4207
 503  876.193
 504  1055.737
 505  1061.899
 506  753.7135
 507  287.4006
 508  655.7596
 509  1023.645
 510  1134.668
 511  1274.61
