# Input file       =  1193347623.151681_cleaned.dat
# Candidate        =  PSR_0332+5434
# Telescope        =  AR
# Epoch_topo       =  58055.894006385199
# Epoch_bary       =  N/A
# T_sample         =  0.002
# Data Folded      =  7340032
# Data Avg         =  0.0641625097611853
# Data StdDev      =  2.75187556619571 
# Profile Bins     =  512
# Profile Avg      =  919.359060803759 
# Profile StdDev   =  329.490417271645 
# Reduced chi-sqr  =  1.290
# Prob(Noise)      <  9.78e-06   (~4.3 sigma)
# P_topo (ms)      =  714.493806388775  +/- 0.00028
# P'_topo (s/s)    =  -0                +/- 1.48e-10
# P''_topo (s/s^2) =  0                 +/- 6.52e-14
# P_bary (ms)      =  N/A
# P'_bary (s/s)    =  N/A
# P''_bary (s/s^2) =  N/A
# P_orb (s)        =  N/A
# asin(i)/c (s)    =  N/A
# eccentricity     =  N/A
# w (rad)          =  N/A
# T_peri           =  N/A
######################################################
   0  660.4657
   1  645.4881
   2  689.769
   3  503.4202
   4  933.4638
   5  954.5673
   6  862.0237
   7  987.0739
   8  961.1917
   9  325.5925
  10  705.5162
  11  732.3268
  12  779.0208
  13  881.1413
  14  735.1104
  15  594.573
  16  839.5561
  17  844.6045
  18  876.1876
  19  778.1483
  20  903.3737
  21  896.9896
  22  840.3129
  23  957.2567
  24  808.855
  25  978.524
  26  1114.178
  27  1324.478
  28  927.2214
  29  846.2704
  30  849.6155
  31  670.7222
  32  608.61
  33  717.6342
  34  1216.598
  35  1518.012
  36  1323.994
  37  1177.882
  38  1024.062
  39  880.7236
  40  1029.211
  41  955.7523
  42  1211.159
  43  974.5145
  44  1033.712
  45  1072.645
  46  1114.109
  47  1025.124
  48  1023.743
  49  1160.726
  50  918.91
  51  796.0659
  52  839.676
  53  918.7223
  54  884.5236
  55  1043.656
  56  1051.482
  57  900.0627
  58  664.6282
  59  614.5906
  60  906.4543
  61  756.2997
  62  1093.254
  63  965.7437
  64  757.1458
  65  1085.262
  66  755.8776
  67  724.5954
  68  890.8263
  69  772.9798
  70  815.5269
  71  866.5331
  72  986.444
  73  810.1731
  74  585.8704
  75  321.4463
  76  546.9214
  77  593.0374
  78  816.3671
  79  746.3239
  80  615.4066
  81  892.8735
  82  779.4589
  83  703.4926
  84  989.2643
  85  959.0954
  86  858.4608
  87  876.7985
  88  549.0508
  89  812.0473
  90  1026.103
  91  803.06
  92  799.6174
  93  794.1389
  94  989.6202
  95  808.5732
  96  604.811
  97  813.6746
  98  781.921
  99  1010.109
 100  1046.002
 101  794.4468
 102  787.6979
 103  712.061
 104  887.467
 105  876.6113
 106  748.5123
 107  856.3134
 108  1052.256
 109  872.274
 110  1138.901
 111  930.997
 112  751.5148
 113  633.9654
 114  799.7614
 115  1108.203
 116  1131.124
 117  1130.777
 118  675.8751
 119  1090.844
 120  1098.027
 121  1094.817
 122  901.8033
 123  798.6483
 124  759.5035
 125  835.7293
 126  963.7524
 127  819.9116
 128  854.1285
 129  762.8901
 130  996.2491
 131  1051.787
 132  836.8669
 133  1009.839
 134  870.6539
 135  778.2957
 136  762.4908
 137  752.3431
 138  832.5411
 139  981.642
 140  1094.58
 141  1177.688
 142  1270.706
 143  1286.15
 144  1140.413
 145  1004.419
 146  739.7076
 147  928.0582
 148  1252.26
 149  1396.63
 150  1465.256
 151  1284.59
 152  955.0419
 153  929.1553
 154  959.6541
 155  939.944
 156  852.4417
 157  1222.669
 158  1217.912
 159  1001.036
 160  734.7525
 161  722.5629
 162  731.052
 163  921.3477
 164  1127.521
 165  868.8166
 166  1045.773
 167  844.0994
 168  780.1444
 169  736.6778
 170  1097.539
 171  992.166
 172  999.0903
 173  904.6939
 174  1065.347
 175  1010.805
 176  1102.246
 177  1124.125
 178  874.1262
 179  863.0201
 180  984.006
 181  1011.211
 182  1204.022
 183  1058.255
 184  1345.483
 185  1357.992
 186  1245.954
 187  796.5942
 188  467.4153
 189  581.3646
 190  669.9419
 191  879.6315
 192  790.5505
 193  956.0054
 194  829.0805
 195  920.0038
 196  1002.538
 197  941.2283
 198  945.048
 199  977.6735
 200  1153.806
 201  989.7854
 202  1023.585
 203  1162.943
 204  958.8716
 205  1081.582
 206  1223.445
 207  1163.56
 208  865.7711
 209  869.8919
 210  864.1314
 211  676.7374
 212  747.4201
 213  881.4664
 214  619.6636
 215  582.5873
 216  589.5699
 217  771.8938
 218  534.9445
 219  589.1819
 220  568.0472
 221  622.8052
 222  567.8677
 223  710.1036
 224  377.4373
 225  346.997
 226  468.6346
 227  730.6548
 228  790.0218
 229  639.9275
 230  715.8652
 231  858.7366
 232  916.46
 233  1017.159
 234  963.4284
 235  1167.936
 236  820.6347
 237  627.3665
 238  850.5295
 239  888.238
 240  1016.17
 241  1398.42
 242  1320.845
 243  872.4329
 244  981.0798
 245  1109.181
 246  1051.845
 247  908.8777
 248  1105.521
 249  941.6163
 250  756.2748
 251  888.2356
 252  1277.875
 253  1167.13
 254  1006.045
 255  666.9024
 256  735.692
 257  797.2678
 258  802.3809
 259  971.4885
 260  1196.305
 261  914.1122
 262  664.924
 263  815.8062
 264  1021.106
 265  1085.873
 266  1055.89
 267  848.0887
 268  636.5832
 269  526.0092
 270  431.4034
 271  414.9893
 272  312.0189
 273  468.9686
 274  269.7591
 275  219.9575
 276  498.6235
 277  745.8265
 278  819.2598
 279  865.5915
 280  1185.329
 281  1163.827
 282  779.2755
 283  724.0895
 284  1044.906
 285  1110.361
 286  991.2839
 287  1137.811
 288  909.2586
 289  1118.485
 290  839.6611
 291  846.7096
 292  1096.116
 293  1085.042
 294  732.4593
 295  839.5495
 296  767.9249
 297  870.6517
 298  987.433
 299  965.7925
 300  839.521
 301  682.6254
 302  829.4412
 303  860.1396
 304  1249.422
 305  1120.27
 306  1061.993
 307  912.7853
 308  1145.61
 309  1076.747
 310  1022.471
 311  1113.649
 312  1039.686
 313  1382.327
 314  1852.331
 315  2258.68
 316  2757.22
 317  2610.735
 318  2635.912
 319  2414.523
 320  1882.66
 321  1328.704
 322  815.7628
 323  1174.35
 324  1025.742
 325  945.3003
 326  1296.717
 327  1317.114
 328  1464.279
 329  994.6022
 330  833.03
 331  896.6878
 332  1040.678
 333  843.8767
 334  1090.642
 335  1029.584
 336  845.2344
 337  856.6293
 338  914.6405
 339  1136.362
 340  818.6191
 341  822.7757
 342  737.6475
 343  833.0419
 344  1026.763
 345  1214.068
 346  1095.645
 347  769.2842
 348  747.5042
 349  738.3629
 350  1033.436
 351  974.1057
 352  804.7994
 353  856.0468
 354  1063.888
 355  991.5056
 356  803.3459
 357  706.9357
 358  764.2175
 359  1160.547
 360  974.0269
 361  919.1936
 362  796.1448
 363  951.7953
 364  1117.53
 365  1106.428
 366  851.8864
 367  762.5566
 368  695.4504
 369  897.5999
 370  874.5248
 371  999.822
 372  933.2382
 373  884.4369
 374  717.933
 375  735.1607
 376  830.7755
 377  1049.292
 378  1053.534
 379  963.6132
 380  647.1309
 381  704.1495
 382  1093.312
 383  789.119
 384  643.8965
 385  749.8484
 386  862.6022
 387  745.3843
 388  808.335
 389  1011.191
 390  943.8518
 391  843.0687
 392  1107.295
 393  1062.393
 394  1021.669
 395  805.1041
 396  618.1812
 397  532.549
 398  1072.979
 399  1149.559
 400  878.0684
 401  641.7569
 402  507.7969
 403  816.8152
 404  943.3748
 405  1002.163
 406  1300.182
 407  1078.875
 408  979.4745
 409  811.4944
 410  904.03
 411  941.8575
 412  1027.21
 413  862.3041
 414  959.199
 415  683.9193
 416  862.8395
 417  1010.661
 418  933.9935
 419  982.5209
 420  1030.913
 421  1128.185
 422  895.3674
 423  944.0874
 424  756.2488
 425  856.9173
 426  878.6111
 427  790.1198
 428  1039.712
 429  1359.727
 430  1031.784
 431  630.8813
 432  816.3237
 433  1284.331
 434  935.562
 435  456.978
 436  650.7214
 437  850.3632
 438  890.4539
 439  1034.681
 440  1247.34
 441  864.2906
 442  766.2013
 443  810.3778
 444  537.6743
 445  839.5049
 446  826.7148
 447  1030.176
 448  933.6932
 449  862.8883
 450  828.1114
 451  776.5113
 452  980.7232
 453  999.9704
 454  1075.288
 455  1028.709
 456  1385.497
 457  826.0192
 458  625.1549
 459  824.1291
 460  785.8004
 461  902.6309
 462  823.2874
 463  1121.098
 464  994.3641
 465  991.0781
 466  1046.601
 467  1231.053
 468  1042.161
 469  1131.211
 470  1331.702
 471  1179.671
 472  1039.862
 473  1024.697
 474  994.4842
 475  1025.618
 476  818.4341
 477  648.6423
 478  872.7654
 479  499.3974
 480  614.7495
 481  730.1408
 482  817.9981
 483  662.2442
 484  740.808
 485  995.8408
 486  1007.205
 487  1078.526
 488  794.0449
 489  608.628
 490  497.7268
 491  389.2343
 492  774.7202
 493  771.5287
 494  1146.57
 495  1460.955
 496  1408.763
 497  1120.107
 498  976.3543
 499  941.0028
 500  691.821
 501  765.4096
 502  796.5737
 503  1186.826
 504  1000.535
 505  602.3087
 506  453.9254
 507  270.6991
 508  452.007
 509  838.2278
 510  998.8311
 511  695.7103
