# Input file       =  1193261429.141686_cleaned.dat
# Candidate        =  PSR_0332+5434
# Telescope        =  AR
# Epoch_topo       =  58054.896390528775
# Epoch_bary       =  N/A
# T_sample         =  0.002
# Data Folded      =  7340032
# Data Avg         =  0.0910327978667087
# Data StdDev      =  3.23379848292529 
# Profile Bins     =  1024
# Profile Avg      =  652.5152143321   
# Profile StdDev   =  273.786450429385 
# Reduced chi-sqr  =  0.814
# Prob(Noise)      <  1   (~0.0 sigma)
# P_topo (ms)      =  714.492914219538  +/- 0.000275
# P'_topo (s/s)    =  -0                +/- 1.45e-10
# P''_topo (s/s^2) =  0                 +/- 6.4e-14
# P_bary (ms)      =  N/A
# P'_bary (s/s)    =  N/A
# P''_bary (s/s^2) =  N/A
# P_orb (s)        =  N/A
# asin(i)/c (s)    =  N/A
# eccentricity     =  N/A
# w (rad)          =  N/A
# T_peri           =  N/A
######################################################
   0  400.9491
   1  430.7615
   2  554.0078
   3  534.4719
   4  653.249
   5  588.3346
   6  620.9248
   7  590.38
   8  545.1183
   9  599.58
  10  661.976
  11  760.8882
  12  786.8005
  13  931.8
  14  997.5091
  15  935.2404
  16  800.042
  17  790.7089
  18  762.654
  19  681.6562
  20  603.2534
  21  704.3967
  22  700.6517
  23  631.9194
  24  581.5899
  25  609.6336
  26  660.231
  27  547.5648
  28  625.8597
  29  674.7991
  30  773.4182
  31  765.2504
  32  648.8962
  33  604.861
  34  701.9364
  35  720.3711
  36  708.0319
  37  665.6472
  38  729.8655
  39  826.7476
  40  757.9947
  41  750.9653
  42  607.5417
  43  541.6508
  44  552.6971
  45  741.99
  46  850.5353
  47  742.2676
  48  512.0538
  49  393.5564
  50  492.942
  51  642.0678
  52  692.9927
  53  677.7936
  54  642.2549
  55  598.4973
  56  506.5944
  57  532.0079
  58  546.121
  59  649.8959
  60  671.9385
  61  662.8752
  62  611.4706
  63  635.8214
  64  660.4287
  65  660.5549
  66  665.9486
  67  607.1935
  68  580.885
  69  597.9285
  70  656.8736
  71  685.9825
  72  711.182
  73  752.934
  74  804.6403
  75  718.0121
  76  717.2823
  77  709.603
  78  729.6649
  79  713.4092
  80  623.9149
  81  675.2974
  82  666.5134
  83  679.471
  84  587.4257
  85  527.8822
  86  482.4401
  87  426.4003
  88  484.86
  89  493.5495
  90  411.2065
  91  347.2422
  92  479.7024
  93  616.4175
  94  618.254
  95  518.5251
  96  436.0598
  97  445.7322
  98  490.9855
  99  494.9677
 100  480.8839
 101  555.8813
 102  667.5387
 103  711.1639
 104  629.9694
 105  624.2375
 106  675.6379
 107  755.283
 108  603.4534
 109  596.6996
 110  648.5402
 111  735.6136
 112  750.8713
 113  629.458
 114  625.6407
 115  602.7568
 116  668.7158
 117  624.2397
 118  593.2544
 119  576.3234
 120  534.6542
 121  608.7468
 122  651.1986
 123  617.6918
 124  505.0829
 125  515.6487
 126  618.58
 127  650.2162
 128  607.902
 129  617.5482
 130  632.9556
 131  726.2331
 132  790.198
 133  652.4749
 134  565.8757
 135  511.1328
 136  679.1558
 137  753.3496
 138  711.5193
 139  626.5566
 140  649.6376
 141  818.5192
 142  897.5793
 143  881.4053
 144  747.1865
 145  746.6612
 146  769.7697
 147  771.0153
 148  651.4971
 149  619.9227
 150  678.9075
 151  759.4026
 152  768.7037
 153  684.544
 154  627.1697
 155  641.114
 156  744.4135
 157  869.7183
 158  870.2557
 159  842.6669
 160  721.7621
 161  668.4697
 162  577.7452
 163  531.4077
 164  529.7208
 165  638.1935
 166  587.4876
 167  707.2817
 168  800.229
 169  980.172
 170  852.0908
 171  767.0082
 172  734.5714
 173  825.6521
 174  839.5541
 175  802.0122
 176  794.2019
 177  729.8775
 178  697.8739
 179  694.752
 180  706.1918
 181  673.9683
 182  797.7404
 183  729.8696
 184  715.6077
 185  590.314
 186  703.3162
 187  685.8347
 188  707.0032
 189  840.1387
 190  825.399
 191  697.2562
 192  598.8187
 193  626.1585
 194  642.3829
 195  546.9645
 196  535.6253
 197  682.5537
 198  756.0646
 199  692.6355
 200  701.5142
 201  772.1469
 202  865.0315
 203  867.6417
 204  842.6893
 205  829.6318
 206  739.0217
 207  706.3551
 208  561.2949
 209  540.9546
 210  559.1689
 211  676.1553
 212  724.0054
 213  677.7462
 214  612.052
 215  586.2392
 216  554.8415
 217  465.5342
 218  479.0928
 219  558.6021
 220  581.6978
 221  511.1098
 222  484.5439
 223  430.7649
 224  394.7429
 225  515.6783
 226  621.4053
 227  625.9467
 228  548.522
 229  618.0889
 230  683.2157
 231  571.4491
 232  377.9898
 233  462.4924
 234  558.4525
 235  631.2469
 236  615.8301
 237  691.5627
 238  663.6182
 239  557.9085
 240  434.7341
 241  369.3148
 242  418.7715
 243  548.3806
 244  664.8787
 245  630.7905
 246  640.6745
 247  549.8517
 248  486.6075
 249  453.9387
 250  452.1714
 251  481.5771
 252  397.7111
 253  413.6067
 254  470.9525
 255  558.1763
 256  449.1307
 257  419.5616
 258  480.5092
 259  497.636
 260  439.7762
 261  357.8
 262  399.7209
 263  447.188
 264  481.4701
 265  492.1113
 266  473.8688
 267  651.689
 268  775.6747
 269  837.4438
 270  765.9514
 271  702.4941
 272  626.9094
 273  511.064
 274  467.726
 275  537.4419
 276  645.7607
 277  717.3578
 278  720.5813
 279  684.6642
 280  629.4025
 281  629.1159
 282  664.6617
 283  728.4608
 284  756.6648
 285  646.1803
 286  608.8701
 287  558.1207
 288  561.9136
 289  562.145
 290  471.5758
 291  507.5181
 292  413.9221
 293  517.0458
 294  626.2111
 295  767.1188
 296  687.0885
 297  667.9473
 298  620.0203
 299  650.4581
 300  584.8989
 301  590.3868
 302  546.528
 303  536.5089
 304  635.208
 305  691.5624
 306  692.2982
 307  598.4395
 308  526.3503
 309  495.5616
 310  474.2018
 311  464.4872
 312  540.2636
 313  520.067
 314  535.4366
 315  579.0724
 316  643.4544
 317  695.8995
 318  684.2853
 319  644.4044
 320  655.4313
 321  641.3135
 322  740.0408
 323  615.2738
 324  639.608
 325  712.2379
 326  760.4846
 327  748.8797
 328  662.0706
 329  644.9793
 330  583.7362
 331  523.3248
 332  716.0734
 333  830.5927
 334  878.2535
 335  764.8435
 336  792.1476
 337  750.8881
 338  601.8931
 339  524.7425
 340  632.5983
 341  666.642
 342  675.8112
 343  652.6033
 344  637.3889
 345  544.4827
 346  466.9245
 347  381.4049
 348  438.9726
 349  383.2206
 350  448.2586
 351  480.2409
 352  505.1028
 353  496.9389
 354  465.6016
 355  424.9095
 356  411.8185
 357  442.1088
 358  599.5981
 359  719.2996
 360  671.5895
 361  681.1164
 362  630.8607
 363  630.4291
 364  560.7373
 365  561.9474
 366  593.7905
 367  557.4633
 368  605.0522
 369  655.3633
 370  692.7568
 371  564.1279
 372  522.9395
 373  504.1359
 374  530.0717
 375  536.7672
 376  483.4538
 377  488.8937
 378  488.636
 379  530.739
 380  567.2167
 381  551.9226
 382  695.0014
 383  768.0186
 384  721.8834
 385  537.313
 386  448.1511
 387  456.6145
 388  523.3245
 389  510.7139
 390  577.1679
 391  729.4301
 392  699.2435
 393  580.4814
 394  522.9088
 395  481.8372
 396  436.7882
 397  477.643
 398  634.9114
 399  733.9745
 400  747.862
 401  788.6853
 402  776.0217
 403  656.4662
 404  652.9751
 405  613.8038
 406  596.0361
 407  558.2569
 408  618.678
 409  658.7428
 410  604.8576
 411  606.649
 412  618.0338
 413  692.1644
 414  626.8167
 415  672.3636
 416  673.4924
 417  675.5289
 418  614.6734
 419  610.4493
 420  661.6435
 421  713.8696
 422  729.547
 423  658.9206
 424  594.5287
 425  577.0648
 426  735.9671
 427  819.9813
 428  797.4937
 429  663.6711
 430  649.7333
 431  736.8357
 432  780.2519
 433  724.5428
 434  756.053
 435  746.8557
 436  842.0583
 437  865.1051
 438  776.2433
 439  590.6712
 440  568.9448
 441  631.5879
 442  591.7084
 443  511.7967
 444  501.4089
 445  395.0784
 446  358.403
 447  531.0844
 448  743.3753
 449  745.2574
 450  642.6166
 451  695.2802
 452  734.1307
 453  667.0464
 454  623.5244
 455  647.1249
 456  678.478
 457  569.8967
 458  482.6448
 459  529.8953
 460  519.7305
 461  562.5978
 462  567.3282
 463  662.3332
 464  697.6697
 465  778.581
 466  783.6663
 467  775.1537
 468  798.0511
 469  787.8434
 470  631.4464
 471  517.7991
 472  455.2014
 473  477.5543
 474  480.0263
 475  497.6649
 476  503.2699
 477  553.8956
 478  562.5226
 479  577.2656
 480  695.0778
 481  703.1728
 482  733.9673
 483  661.2331
 484  623.3951
 485  513.9185
 486  398.4731
 487  485.8119
 488  581.8234
 489  673.947
 490  733.4101
 491  875.3592
 492  943.1472
 493  852.0422
 494  837.7833
 495  838.2719
 496  900.5798
 497  853.3265
 498  850.7881
 499  915.0148
 500  844.4155
 501  703.3665
 502  611.1756
 503  629.6036
 504  620.0346
 505  590.6638
 506  659.6578
 507  717.9571
 508  711.5679
 509  624.17
 510  635.7498
 511  576.1266
 512  627.5621
 513  708.937
 514  638.1633
 515  645.0677
 516  567.6523
 517  719.2695
 518  715.8886
 519  718.7405
 520  614.5078
 521  656.0555
 522  698.8874
 523  747.1835
 524  711.411
 525  688.6039
 526  688.3393
 527  655.739
 528  614.3842
 529  590.1838
 530  626.0233
 531  613.9813
 532  581.368
 533  593.8159
 534  663.432
 535  681.1392
 536  593.1212
 537  544.8143
 538  512.9597
 539  606.4884
 540  634.3798
 541  608.6815
 542  572.4683
 543  593.4531
 544  614.6478
 545  675.1481
 546  582.513
 547  618.7142
 548  686.6877
 549  740.2266
 550  636.493
 551  519.9189
 552  514.0126
 553  660.9453
 554  690.4263
 555  838.7313
 556  844.3278
 557  867.9993
 558  873.3961
 559  916.2117
 560  943.1823
 561  877.6702
 562  839.6062
 563  771.7646
 564  699.5889
 565  579.4108
 566  691.575
 567  703.0173
 568  776.1996
 569  709.2136
 570  647.8381
 571  565.001
 572  527.3873
 573  623.3784
 574  726.2309
 575  812.6577
 576  764.809
 577  750.8218
 578  640.6873
 579  575.5284
 580  594.3307
 581  669.9612
 582  792.9003
 583  731.6589
 584  677.361
 585  692.0059
 586  803.2053
 587  891.9408
 588  849.9389
 589  709.8666
 590  630.3931
 591  643.5866
 592  631.1224
 593  622.3856
 594  568.7768
 595  553.0957
 596  593.1807
 597  684.3018
 598  805.8365
 599  855.7082
 600  711.5517
 601  649.5096
 602  717.3711
 603  822.0405
 604  940.8882
 605  909.3648
 606  917.9694
 607  916.3457
 608  807.3948
 609  673.2498
 610  548.7761
 611  667.7049
 612  812.6428
 613  778.3057
 614  766.3341
 615  771.8118
 616  802.8461
 617  689.4301
 618  670.5355
 619  694.1229
 620  757.6455
 621  799.6878
 622  771.8932
 623  916.5484
 624  951.7244
 625  970.9213
 626  777.6537
 627  825.6044
 628  956.7894
 629  1109.912
 630  1168.753
 631  1260.323
 632  1301.643
 633  1408.239
 634  1434.227
 635  1428.818
 636  1332.219
 637  1328.415
 638  1287.469
 639  1220.923
 640  1102.168
 641  898.8228
 642  769.5736
 643  775.2034
 644  873.8727
 645  940.2461
 646  865.2571
 647  775.064
 648  647.3023
 649  609.6081
 650  580.0244
 651  734.2229
 652  762.1285
 653  677.7607
 654  594.3505
 655  671.8454
 656  837.6055
 657  839.2383
 658  841.6044
 659  799.9168
 660  730.8011
 661  629.9297
 662  619.3123
 663  671.8812
 664  651.1291
 665  644.4885
 666  690.1429
 667  633.6776
 668  630.5457
 669  518.386
 670  645.3635
 671  641.1693
 672  531.3898
 673  456.6133
 674  433.8766
 675  515.6838
 676  545.1339
 677  585.7224
 678  542.5605
 679  570.9409
 680  567.4031
 681  608.8632
 682  680.5275
 683  644.0345
 684  652.1806
 685  599.0785
 686  658.2226
 687  653.8412
 688  693.0974
 689  680.301
 690  685.7145
 691  671.9097
 692  627.8046
 693  613.8965
 694  685.0926
 695  721.3097
 696  636.4996
 697  561.4051
 698  607.1954
 699  562.4841
 700  651.6459
 701  683.6142
 702  762.7988
 703  661.1447
 704  635.6553
 705  758.8054
 706  794.1284
 707  720.7701
 708  607.7743
 709  582.1567
 710  610.4914
 711  706.9501
 712  845.7877
 713  897.4484
 714  880.0627
 715  761.5085
 716  756.4435
 717  783.0607
 718  844.6157
 719  831.1876
 720  723.4882
 721  584.1729
 722  520.108
 723  530.4153
 724  644.9031
 725  587.1426
 726  592.4521
 727  606.7589
 728  646.6678
 729  580.6992
 730  609.332
 731  593.7059
 732  623.9695
 733  622.0558
 734  629.8496
 735  623.5007
 736  565.2073
 737  538.9801
 738  577.4723
 739  580.1429
 740  640.4468
 741  633.784
 742  628.2343
 743  651.5238
 744  703.4209
 745  776.6642
 746  799.105
 747  704.1304
 748  693.1248
 749  716.7036
 750  764.1752
 751  671.0396
 752  561.7972
 753  642.0095
 754  704.6399
 755  875.6441
 756  823.7883
 757  731.0336
 758  657.3716
 759  638.6847
 760  721.3799
 761  702.5098
 762  723.4288
 763  675.8085
 764  536.9281
 765  433.2141
 766  466.3579
 767  497.5935
 768  574.9714
 769  617.7939
 770  715.9073
 771  739.8048
 772  715.532
 773  607.7599
 774  494.4032
 775  515.7063
 776  663.7682
 777  795.4377
 778  739.1796
 779  615.7465
 780  605.2294
 781  552.1226
 782  550.8069
 783  537.3858
 784  674.369
 785  637.8776
 786  600.9598
 787  526.3913
 788  575.1403
 789  568.9434
 790  623.2333
 791  643.5331
 792  732.8888
 793  653.775
 794  525.562
 795  454.4338
 796  504.6207
 797  624.6228
 798  671.6983
 799  680.1519
 800  705.1117
 801  701.2655
 802  687.4733
 803  588.5129
 804  547.0366
 805  606.1929
 806  587.7614
 807  641.3903
 808  672.2708
 809  710.6688
 810  812.3417
 811  839.2634
 812  873.9416
 813  723.8707
 814  668.5921
 815  669.3095
 816  759.8442
 817  803.0786
 818  771.6511
 819  701.061
 820  694.4304
 821  727.3932
 822  644.386
 823  619.4593
 824  627.9348
 825  760.0046
 826  788.0047
 827  727.0823
 828  625.2911
 829  483.0081
 830  475.1613
 831  446.9924
 832  467.6719
 833  457.5673
 834  454.3264
 835  547.485
 836  545.9124
 837  554.7457
 838  638.088
 839  610.1858
 840  605.7602
 841  554.6364
 842  558.6451
 843  489.3607
 844  450.3316
 845  417.4125
 846  464.0826
 847  504.5425
 848  607.3826
 849  713.3491
 850  790.6558
 851  796.4124
 852  809.384
 853  742.3478
 854  699.4597
 855  665.3741
 856  673.49
 857  557.1625
 858  461.4351
 859  526.2449
 860  590.1024
 861  616.1608
 862  578.8132
 863  494.3726
 864  535.9915
 865  480.7507
 866  617.5581
 867  737.9758
 868  761.4859
 869  682.3477
 870  536.6487
 871  595.9788
 872  542.1858
 873  603.7954
 874  678.879
 875  682.1521
 876  653.4744
 877  584.2359
 878  654.6537
 879  717.0257
 880  730.6177
 881  738.5959
 882  673.8844
 883  740.2483
 884  811.4912
 885  834.0555
 886  873.9298
 887  765.2847
 888  714.9362
 889  589.4955
 890  583.1082
 891  666.9569
 892  717.2164
 893  777.3724
 894  702.1235
 895  761.6362
 896  774.8277
 897  844.9141
 898  798.1534
 899  849.813
 900  927.7975
 901  870.4662
 902  805.3142
 903  792.8219
 904  924.3724
 905  978.2853
 906  961.6321
 907  868.9429
 908  747.8686
 909  664.0123
 910  753.957
 911  787.8541
 912  775.1684
 913  646.3817
 914  547.819
 915  434.3707
 916  468.6378
 917  630.2834
 918  705.4089
 919  663.4528
 920  575.3643
 921  588.2283
 922  531.0471
 923  546.8237
 924  607.3108
 925  583.8654
 926  612.6376
 927  607.1655
 928  749.7116
 929  666.1985
 930  573.0994
 931  488.9744
 932  592.0568
 933  569.246
 934  546.3012
 935  540.5239
 936  567.3929
 937  660.1036
 938  617.6719
 939  651.1198
 940  638.193
 941  736.3122
 942  710.9492
 943  710.8647
 944  611.0956
 945  693.4151
 946  591.2839
 947  539.2729
 948  427.8708
 949  466.4608
 950  426.4736
 951  471.5507
 952  621.0786
 953  759.8675
 954  703.1014
 955  576.0563
 956  619.3088
 957  667.7499
 958  595.9478
 959  544.7747
 960  581.4257
 961  489.3076
 962  481.6959
 963  473.8102
 964  490.7415
 965  388.0661
 966  369.9348
 967  467.8597
 968  556.4417
 969  555.0482
 970  544.7942
 971  474.9339
 972  610.9697
 973  621.1445
 974  648.5096
 975  557.6407
 976  597.4402
 977  579.2192
 978  604.9979
 979  564.4626
 980  580.944
 981  565.2006
 982  690.7872
 983  801.3559
 984  805.4492
 985  722.3674
 986  680.8195
 987  682.6982
 988  730.1263
 989  711.0043
 990  606.2647
 991  471.1745
 992  603.2206
 993  679.8021
 994  663.5208
 995  567.9265
 996  578.3181
 997  512.6555
 998  491.7031
 999  569.9268
1000  680.3762
1001  656.8135
1002  690.5115
1003  744.1873
1004  776.5867
1005  705.3204
1006  677.0335
1007  727.5439
1008  724.5932
1009  660.5977
1010  649.2209
1011  674.0859
1012  733.6456
1013  649.0554
1014  568.3312
1015  415.1017
1016  397.0746
1017  349.4707
1018  356.4589
1019  387.7634
1020  461.8545
1021  525.9047
1022  414.2119
1023  391.8597
