# Input file       =  1193951359.083581_cleaned.dat
# Candidate        =  PSR_0332+5434
# Telescope        =  AR
# Epoch_topo       =  58062.881690782189
# Epoch_bary       =  N/A
# T_sample         =  0.002
# Data Folded      =  7340032
# Data Avg         =  0.0577848970507539
# Data StdDev      =  2.75634023924216 
# Profile Bins     =  512
# Profile Avg      =  828.780494957231 
# Profile StdDev   =  330.024986131926 
# Reduced chi-sqr  =  1.011
# Prob(Noise)      <  0.424   (~0.2 sigma)
# P_topo (ms)      =  714.500266868997  +/- 0.00013
# P'_topo (s/s)    =  -0                +/- 6.88e-11
# P''_topo (s/s^2) =  0                 +/- 3.04e-14
# P_bary (ms)      =  N/A
# P'_bary (s/s)    =  N/A
# P''_bary (s/s^2) =  N/A
# P_orb (s)        =  N/A
# asin(i)/c (s)    =  N/A
# eccentricity     =  N/A
# w (rad)          =  N/A
# T_peri           =  N/A
######################################################
   0  1072.807
   1  1490.904
   2  1105.087
   3  842.0461
   4  994.7865
   5  726.6298
   6  612.0226
   7  675.1286
   8  881.0027
   9  851.7496
  10  1051.439
  11  1266.059
  12  1097.284
  13  1189.593
  14  1079.763
  15  985.442
  16  792.1823
  17  834.2692
  18  679.8361
  19  1012.786
  20  925.588
  21  1017.444
  22  1133.204
  23  1295.529
  24  1105.506
  25  1232.711
  26  1141.959
  27  841.2519
  28  793.3096
  29  920.2078
  30  867.1799
  31  857.2534
  32  1076.247
  33  852.1282
  34  424.2874
  35  480.6788
  36  543.6251
  37  801.629
  38  988.2779
  39  682.9711
  40  678.1909
  41  856.5286
  42  773.4761
  43  802.5373
  44  770.1292
  45  754.1966
  46  998.5034
  47  1051.901
  48  845.5762
  49  808.5164
  50  944.2355
  51  905.8029
  52  918.6873
  53  765.9023
  54  800.3286
  55  639.3671
  56  858.3312
  57  889.2653
  58  832.8074
  59  1121.638
  60  1502.295
  61  1034.366
  62  975.7331
  63  584.0083
  64  393.4579
  65  440.7993
  66  625.0714
  67  816.1403
  68  654.4152
  69  849.7952
  70  947.2106
  71  793.6945
  72  646.8621
  73  683.2601
  74  694.1707
  75  563.3077
  76  1072.069
  77  1090.035
  78  938.2968
  79  880.3726
  80  754.52
  81  779.7817
  82  872.4097
  83  854.8011
  84  1026.416
  85  981.4775
  86  784.6505
  87  562.4789
  88  312.1334
  89  411.8021
  90  721.731
  91  924.0509
  92  718.7782
  93  740.5206
  94  804.3589
  95  819.4589
  96  958.8117
  97  866.3314
  98  984.5558
  99  622.8676
 100  591.9496
 101  917.1535
 102  739.9144
 103  661.0801
 104  898.7154
 105  1299.865
 106  1456.792
 107  1213.039
 108  1331.867
 109  1107.706
 110  546.1702
 111  693.2109
 112  565.2
 113  446.5721
 114  711.9615
 115  563.5076
 116  796.5664
 117  504.9358
 118  639.244
 119  727.7095
 120  1030.16
 121  767.2585
 122  620.4667
 123  714.7026
 124  675.0227
 125  584.147
 126  934.4018
 127  1122.366
 128  1072.935
 129  877.6201
 130  836.6992
 131  892.8785
 132  749.5062
 133  840.9083
 134  552.1406
 135  671.6846
 136  776.0333
 137  888.4679
 138  429.5263
 139  474.0608
 140  685.3159
 141  770.7815
 142  784.2751
 143  762.2525
 144  467.0816
 145  314.168
 146  378.898
 147  852.1794
 148  782.408
 149  628.4818
 150  652.5186
 151  884.3246
 152  1001.165
 153  687.4781
 154  627.5547
 155  1070.343
 156  805.1631
 157  834.7343
 158  885.4027
 159  1062.168
 160  537.9976
 161  495.2483
 162  744.051
 163  891.3256
 164  466.6636
 165  964.212
 166  1030.161
 167  684.5606
 168  789.575
 169  852.8469
 170  1094.73
 171  1259.673
 172  1095.307
 173  925.3471
 174  681.1456
 175  573.3734
 176  564.3643
 177  715.3817
 178  1023.559
 179  1098.522
 180  1020.204
 181  990.5208
 182  933.0273
 183  782.4924
 184  469.5204
 185  738.9897
 186  869.7956
 187  846.9037
 188  652.7043
 189  574.1599
 190  1034.914
 191  965.9816
 192  717.5592
 193  585.5394
 194  521.9176
 195  575.873
 196  661.923
 197  745.9615
 198  457.3198
 199  493.2542
 200  591.2172
 201  525.8355
 202  483.9423
 203  722.5153
 204  610.4181
 205  623.4125
 206  711.6511
 207  825.6081
 208  840.6016
 209  785.1912
 210  1071.574
 211  918.5271
 212  763.3613
 213  743.2465
 214  769.5363
 215  914.4884
 216  759.5944
 217  1039.774
 218  1275.713
 219  1145.54
 220  738.1905
 221  552.202
 222  701.5878
 223  976.3123
 224  782.4839
 225  863.6741
 226  717.4172
 227  972.4192
 228  901.5989
 229  881.398
 230  933.6689
 231  811.8607
 232  1008.869
 233  1089.488
 234  621.4122
 235  511.328
 236  700.4321
 237  926.984
 238  941.0303
 239  850.2446
 240  725.9902
 241  698.6689
 242  933.2448
 243  616.9799
 244  728.2954
 245  935.6572
 246  778.9693
 247  717.8384
 248  824.577
 249  659.8248
 250  471.2244
 251  506.4708
 252  820.0636
 253  813.9757
 254  814.9404
 255  531.7958
 256  613.5096
 257  722.8584
 258  858.0931
 259  1143.954
 260  521.7839
 261  572.486
 262  815.8372
 263  612.1171
 264  464.3201
 265  883.9286
 266  975.4315
 267  729.0708
 268  777.5272
 269  714.9172
 270  602.9293
 271  694.4132
 272  787.1632
 273  839.1691
 274  840.6601
 275  901.0826
 276  778.5331
 277  657.5098
 278  629.6868
 279  448.0302
 280  880.794
 281  809.9538
 282  876.5837
 283  783.286
 284  793.8505
 285  781.7311
 286  790.5004
 287  903.5446
 288  1054.191
 289  983.9915
 290  971.5956
 291  665.3418
 292  832.3447
 293  727.8627
 294  721.0473
 295  556.9105
 296  911.3379
 297  1164.458
 298  884.6415
 299  759.6538
 300  724.9315
 301  562.1549
 302  730.5453
 303  938.234
 304  910.1802
 305  899.5252
 306  1225.992
 307  1249.643
 308  929.6594
 309  673.5222
 310  754.8267
 311  757.1399
 312  969.826
 313  1174.772
 314  1657.513
 315  2074.389
 316  2385.059
 317  2118.846
 318  1972.625
 319  1746.978
 320  1039.21
 321  825.9579
 322  463.9537
 323  612.2355
 324  613.0331
 325  802.5669
 326  1199.367
 327  1210.97
 328  994.2333
 329  940.4359
 330  902.6134
 331  706.3262
 332  1060.271
 333  1014.435
 334  750.8011
 335  937.1741
 336  946.9075
 337  785.1031
 338  909.3638
 339  637.9509
 340  670.3652
 341  658.1682
 342  960.1295
 343  988.5544
 344  668.1167
 345  944.3131
 346  1097.543
 347  936.3755
 348  931.4168
 349  736.8587
 350  759.5344
 351  962.8352
 352  801.8452
 353  629.9177
 354  837.4418
 355  931.2168
 356  987.775
 357  945.2737
 358  858.5818
 359  578.1281
 360  694.0272
 361  867.6505
 362  999.3463
 363  1325.321
 364  718.0559
 365  835.7722
 366  616.3292
 367  663.4948
 368  853.6047
 369  902.9368
 370  1016.697
 371  692.6015
 372  626.5967
 373  649.6312
 374  770.8273
 375  818.5518
 376  869.4609
 377  760.5405
 378  674.2497
 379  1011.106
 380  1091.964
 381  949.7404
 382  833.6945
 383  864.6448
 384  1051.022
 385  742.7179
 386  678.6219
 387  1157.779
 388  1249.744
 389  864.9322
 390  1049.816
 391  1186.887
 392  888.1451
 393  723.4879
 394  990.4781
 395  1007.757
 396  882.8244
 397  843.0311
 398  794.5499
 399  659.486
 400  521.3728
 401  494.4428
 402  941.1593
 403  790.0588
 404  921.2936
 405  812.4476
 406  960.1886
 407  981.3094
 408  759.4526
 409  657.8273
 410  762.3047
 411  588.4133
 412  600.5653
 413  534.1562
 414  540.4953
 415  484.3087
 416  518.6426
 417  775.3733
 418  828.6871
 419  682.533
 420  663.9206
 421  882.1511
 422  572.8542
 423  578.5097
 424  835.1118
 425  876.4549
 426  834.5388
 427  264.3098
 428  469.2015
 429  631.281
 430  651.767
 431  713.0641
 432  602.1642
 433  858.5392
 434  707.6013
 435  857.073
 436  688.2021
 437  612.5505
 438  1051.664
 439  1294.481
 440  956.001
 441  801.2405
 442  843.6606
 443  911.8074
 444  881.1725
 445  757.9105
 446  1018.709
 447  894.0506
 448  955.4976
 449  774.2567
 450  481.6499
 451  531.0865
 452  421.4205
 453  625.6648
 454  842.5027
 455  993.9091
 456  854.7242
 457  527.5611
 458  702.1767
 459  544.9571
 460  494.5831
 461  698.3485
 462  1028.781
 463  1170.002
 464  1011.607
 465  1092.375
 466  803.5682
 467  648.689
 468  570.5922
 469  882.4464
 470  804.6575
 471  818.2224
 472  548.1519
 473  807.9656
 474  742.193
 475  667.2326
 476  980.2422
 477  922.997
 478  1007.992
 479  1025.84
 480  750.5869
 481  808.5139
 482  755.4711
 483  822.1323
 484  1046.484
 485  1150.487
 486  804.9775
 487  509.9923
 488  324.0958
 489  552.2263
 490  775.0237
 491  946.2365
 492  661.4525
 493  594.2687
 494  542.1597
 495  779.1371
 496  709.7075
 497  718.0789
 498  1222.006
 499  1443.441
 500  1080.737
 501  857.5963
 502  878.5884
 503  861.2435
 504  671.4532
 505  720.472
 506  1130.667
 507  1152.721
 508  803.0898
 509  1135.962
 510  1133.345
 511  1040.588
