# Input file       =  1193276335.140115_cleaned.dat
# Candidate        =  PSR_0332+5434
# Telescope        =  AR
# Epoch_topo       =  58055.068913658739
# Epoch_bary       =  N/A
# T_sample         =  0.002
# Data Folded      =  7340032
# Data Avg         =  0.0570176363970469
# Data StdDev      =  2.73943462248275 
# Profile Bins     =  512
# Profile Avg      =  817.438045355875 
# Profile StdDev   =  328.000825305499 
# Reduced chi-sqr  =  1.209
# Prob(Noise)      <  0.000796   (~3.2 sigma)
# P_topo (ms)      =  714.493401412253  +/- 0.000149
# P'_topo (s/s)    =  -0                +/- 7.84e-11
# P''_topo (s/s^2) =  0                 +/- 3.46e-14
# P_bary (ms)      =  N/A
# P'_bary (s/s)    =  N/A
# P''_bary (s/s^2) =  N/A
# P_orb (s)        =  N/A
# asin(i)/c (s)    =  N/A
# eccentricity     =  N/A
# w (rad)          =  N/A
# T_peri           =  N/A
######################################################
   0  829.1713
   1  595.1368
   2  558.2601
   3  761.4712
   4  1001.676
   5  957.3692
   6  721.8423
   7  739.7767
   8  525.9819
   9  395.1029
  10  324.7492
  11  712.1959
  12  948.4359
  13  483.7507
  14  578.9695
  15  554.5995
  16  347.5079
  17  541.4312
  18  826.4218
  19  1089.136
  20  1111.83
  21  658.6901
  22  557.2701
  23  417.4228
  24  483.5341
  25  532.0166
  26  635.3693
  27  941.2527
  28  995.4023
  29  876.7719
  30  952.647
  31  729.264
  32  667.3896
  33  394.1265
  34  662.5678
  35  657.2057
  36  847.7313
  37  953.312
  38  1125.624
  39  811.6762
  40  661.3359
  41  663.5443
  42  637.8817
  43  942.0751
  44  751.0611
  45  887.6652
  46  714.3615
  47  717.3021
  48  782.6967
  49  803.4526
  50  739.8265
  51  635.402
  52  792.3332
  53  1034.234
  54  1182.007
  55  1057.674
  56  1018.542
  57  750.5577
  58  867.1647
  59  548.4731
  60  719.3869
  61  1023.103
  62  1037.05
  63  972.7654
  64  878.4496
  65  890.275
  66  823.508
  67  802.3788
  68  977.3569
  69  873.1712
  70  603.3242
  71  1048.956
  72  1090.904
  73  844.0583
  74  988.98
  75  1095.786
  76  668.6759
  77  991.4803
  78  1075.174
  79  1145.157
  80  882.248
  81  463.8396
  82  575.2
  83  777.1337
  84  947.0215
  85  1042.44
  86  850.9246
  87  496.505
  88  363.2096
  89  683.0929
  90  665.6916
  91  567.9155
  92  571.8168
  93  624.1205
  94  262.7247
  95  234.6549
  96  541.6282
  97  849.7209
  98  755.1401
  99  496.6075
 100  579.7959
 101  406.8675
 102  603.6777
 103  719.7414
 104  493.2756
 105  531.0867
 106  490.4841
 107  420.6953
 108  636.7425
 109  800.1751
 110  790.9904
 111  630.7109
 112  669.8738
 113  486.9067
 114  497.5968
 115  675.363
 116  901.3108
 117  416.1633
 118  667.8671
 119  870.7167
 120  538.9267
 121  399.2118
 122  463.6372
 123  602.3824
 124  888.7665
 125  597.8742
 126  392.0771
 127  444.2216
 128  701.1425
 129  890.0016
 130  657.4288
 131  610.4239
 132  717.1093
 133  906.3729
 134  948.6724
 135  879.159
 136  1046.816
 137  1061.876
 138  829.9938
 139  291.1362
 140  601.9042
 141  980.4551
 142  1123.364
 143  1256.528
 144  1153.447
 145  899.3011
 146  786.7507
 147  546.5848
 148  1011.164
 149  1168.327
 150  1049.322
 151  845.8339
 152  826.0998
 153  844.1146
 154  783.6696
 155  635.2627
 156  660.1823
 157  645.9274
 158  744.1306
 159  574.621
 160  779.9307
 161  510.2964
 162  796.1918
 163  1128.455
 164  796.9871
 165  778.9682
 166  810.5117
 167  857.4345
 168  663.7891
 169  868.2112
 170  767.6311
 171  560.4654
 172  830.1802
 173  1014.475
 174  693.8138
 175  617.0359
 176  484.329
 177  618.3362
 178  989.8671
 179  1246.028
 180  918.2822
 181  784.722
 182  727.7344
 183  941.9289
 184  853.1399
 185  835.3131
 186  901.4344
 187  885.4421
 188  587.7808
 189  635.2058
 190  792.0624
 191  785.453
 192  460.7602
 193  398.7818
 194  573.9743
 195  831.4239
 196  1083.983
 197  1186.381
 198  838.2373
 199  681.0735
 200  909.6938
 201  833.4347
 202  510.0443
 203  762.8126
 204  832.3677
 205  998.2304
 206  1102.201
 207  1058.208
 208  983.5853
 209  942.1022
 210  924.9806
 211  946.1044
 212  1053.868
 213  892.3188
 214  968.8621
 215  905.3684
 216  699.5181
 217  482.3733
 218  423.0532
 219  346.0736
 220  455.5221
 221  562.4374
 222  555.9009
 223  924.7433
 224  1098.546
 225  1104.196
 226  1058.362
 227  1016.458
 228  701.2168
 229  871.9376
 230  652.6611
 231  760.1029
 232  742.3712
 233  646.126
 234  488.3944
 235  766.1888
 236  1132.785
 237  995.2925
 238  725.8022
 239  865.0147
 240  710.4507
 241  869.383
 242  916.7093
 243  1320.63
 244  1393.743
 245  1320.002
 246  945.4659
 247  761.6687
 248  684.4844
 249  822.2895
 250  799.8282
 251  603.7539
 252  681.5258
 253  964.0965
 254  1008.545
 255  683.7065
 256  462.0272
 257  774.9111
 258  787.1018
 259  773.0314
 260  716.5957
 261  831.9201
 262  519.5007
 263  724.9008
 264  789.058
 265  758.601
 266  665.5568
 267  575.7477
 268  984.3853
 269  877.967
 270  687.6171
 271  1278.532
 272  1245.119
 273  1231.374
 274  1112.258
 275  948.0455
 276  1031.453
 277  929.2371
 278  798.2361
 279  764.5432
 280  634.6563
 281  885.2338
 282  794.7211
 283  926.2682
 284  943.2399
 285  648.7232
 286  767.3097
 287  861.4407
 288  901.4868
 289  1121.152
 290  1222.442
 291  839.788
 292  1160.698
 293  1138.087
 294  975.3156
 295  801.9509
 296  1140.829
 297  1152.706
 298  690.2489
 299  839.9474
 300  1051.305
 301  1053.861
 302  1155.212
 303  1104.213
 304  971.7245
 305  613.5031
 306  705.2876
 307  671.8914
 308  1287.047
 309  1315.662
 310  1361.435
 311  1237.123
 312  1253.127
 313  1462.134
 314  1738.255
 315  2107.26
 316  2280.116
 317  2334.644
 318  2416.225
 319  1905.739
 320  1176.915
 321  923.631
 322  892.0016
 323  885.2745
 324  1066.705
 325  847.2849
 326  789.6986
 327  1042.202
 328  1034.297
 329  851.257
 330  963.0214
 331  1224.418
 332  1231.528
 333  1180.527
 334  751.4474
 335  618.2558
 336  592.8317
 337  882.3231
 338  976.7987
 339  565.7262
 340  668.0236
 341  772.0913
 342  863.1616
 343  785.2101
 344  971.127
 345  805.2043
 346  408.8454
 347  785.4738
 348  1089.891
 349  791.4147
 350  432.2675
 351  692.7796
 352  897.4008
 353  728.5453
 354  1122.85
 355  723.6687
 356  611.9686
 357  730.5798
 358  956.6728
 359  1138.34
 360  993.4065
 361  760.2006
 362  690.3362
 363  726.4951
 364  710.426
 365  1124.079
 366  1139.833
 367  992.9262
 368  988.723
 369  936.2286
 370  830.201
 371  966.9812
 372  1117.61
 373  986.3153
 374  816.8388
 375  1003.189
 376  657.5519
 377  540.0884
 378  597.3857
 379  530.6667
 380  422.73
 381  451.1773
 382  618.0789
 383  940.5063
 384  1054.729
 385  807.5314
 386  554.4891
 387  941.7399
 388  1045.684
 389  801.8864
 390  1059.604
 391  1028.605
 392  790.7465
 393  731.2883
 394  638.2134
 395  778.9755
 396  570.5253
 397  758.4587
 398  919.3076
 399  799.3177
 400  662.6608
 401  654.0057
 402  1007.203
 403  942.7
 404  1066.492
 405  651.5025
 406  867.0682
 407  1130.696
 408  1107.522
 409  923.6325
 410  814.4925
 411  907.9814
 412  781.2355
 413  651.3046
 414  563.3934
 415  670.5059
 416  1010.927
 417  1136.242
 418  1267.185
 419  1048.327
 420  951.3273
 421  749.6501
 422  531.5015
 423  620.1096
 424  663.5227
 425  721.0491
 426  1091.661
 427  926.0164
 428  802.1976
 429  721.6183
 430  876.5381
 431  886.6759
 432  1020.264
 433  692.3195
 434  582.9749
 435  479.4958
 436  426.3346
 437  479.5445
 438  448.7173
 439  692.186
 440  980.3464
 441  821.0441
 442  756.7703
 443  999.752
 444  1035.327
 445  787.5093
 446  938.2587
 447  1274.164
 448  1016.59
 449  789.0477
 450  750.4019
 451  586.5055
 452  527.6608
 453  842.7817
 454  725.7695
 455  712.4396
 456  913.8493
 457  734.9338
 458  513.7255
 459  731.1155
 460  888.7248
 461  776.6733
 462  524.4092
 463  498.8184
 464  1048.481
 465  796.2841
 466  765.6141
 467  692.6412
 468  913.9186
 469  718.4934
 470  577.2742
 471  571.1643
 472  508.077
 473  801.632
 474  719.3354
 475  472.2635
 476  458.052
 477  535.4295
 478  710.1011
 479  444.0882
 480  504.2253
 481  842.6552
 482  611.7902
 483  684.5544
 484  628.1329
 485  612.0501
 486  660.455
 487  659.0377
 488  740.676
 489  881.2289
 490  1087.718
 491  903.4118
 492  873.9611
 493  691.3272
 494  453.5048
 495  635.1097
 496  864.2344
 497  728.4234
 498  947.5406
 499  1077.998
 500  835.1405
 501  582.2374
 502  1036.162
 503  746.6681
 504  1054.8
 505  942.3287
 506  893.6644
 507  561.9697
 508  654.416
 509  867.6468
 510  735.915
 511  517.473
