# Input file       =  1193002974.143132_cleaned.dat
# Candidate        =  PSR_0332+5434
# Telescope        =  AR
# Epoch_topo       =  58051.905013230695
# Epoch_bary       =  N/A
# T_sample         =  0.002
# Data Folded      =  7340032
# Data Avg         =  0.0859647174625672
# Data StdDev      =  3.09538213562659 
# Profile Bins     =  512
# Profile Avg      =  1232.41791219053 
# Profile StdDev   =  370.619501844971 
# Reduced chi-sqr  =  0.984
# Prob(Noise)      <  0.592   (~0.0 sigma)
# P_topo (ms)      =  714.49029319486   +/- 0.000242
# P'_topo (s/s)    =  -0                +/- 1.28e-10
# P''_topo (s/s^2) =  0                 +/- 5.63e-14
# P_bary (ms)      =  N/A
# P'_bary (s/s)    =  N/A
# P''_bary (s/s^2) =  N/A
# P_orb (s)        =  N/A
# asin(i)/c (s)    =  N/A
# eccentricity     =  N/A
# w (rad)          =  N/A
# T_peri           =  N/A
######################################################
   0  1065.649
   1  1261.901
   2  1285.311
   3  1072.054
   4  1078.359
   5  1135.635
   6  926.8745
   7  1001.753
   8  1151.227
   9  1159.267
  10  945.0816
  11  1089.143
  12  1142.353
  13  1072.842
  14  1057.396
  15  1392.408
  16  1340.736
  17  1095.302
  18  1060.69
  19  910.5839
  20  1106.932
  21  914.0497
  22  1178.629
  23  1538.535
  24  1248.332
  25  1348.749
  26  1252.566
  27  1098.08
  28  1137.839
  29  1503.386
  30  1507.729
  31  881.3251
  32  744.1923
  33  1078.639
  34  813.4102
  35  1104.621
  36  1317.542
  37  1646.48
  38  1541.408
  39  1449.753
  40  1024.493
  41  1270.025
  42  1601.782
  43  1442.387
  44  1111.355
  45  1293.14
  46  1068.173
  47  689.8495
  48  616.4805
  49  888.7227
  50  1085.806
  51  895.9403
  52  1034.544
  53  1056.162
  54  1326.518
  55  1139.679
  56  1159.078
  57  1390.279
  58  1309.61
  59  1356.1
  60  1481.962
  61  1404.601
  62  1167.233
  63  1320.624
  64  1459.843
  65  1135.871
  66  885.2964
  67  984.4055
  68  1075.028
  69  1316.661
  70  1314.605
  71  1305.154
  72  1651.665
  73  1518.579
  74  1191.354
  75  1253.342
  76  1073.001
  77  1148.308
  78  1303.543
  79  1262.349
  80  1038.267
  81  1095.665
  82  1161.989
  83  1305.695
  84  1544.758
  85  1372.106
  86  1028.061
  87  989.5089
  88  1109.996
  89  911.7259
  90  1330.034
  91  1156.9
  92  1106.266
  93  1151.729
  94  1091.474
  95  1106.792
  96  885.8679
  97  673.0929
  98  647.9952
  99  597.4487
 100  933.4775
 101  1043.957
 102  1219.109
 103  983.1956
 104  911.5835
 105  987.3581
 106  1151.577
 107  1240.63
 108  1343.605
 109  1117.181
 110  823.8514
 111  996.9204
 112  804.8109
 113  860.0839
 114  900.063
 115  997.9712
 116  930.7123
 117  869.6028
 118  914.4728
 119  1372.499
 120  1202.114
 121  1006.165
 122  1135.346
 123  1225.515
 124  1461.046
 125  1337.376
 126  1286.091
 127  1261.307
 128  1509.423
 129  1708.146
 130  1620.754
 131  1422.135
 132  1456.732
 133  1240.492
 134  1383.143
 135  1726.208
 136  1687.467
 137  1720.048
 138  1620.714
 139  1379.724
 140  1641.338
 141  1569.55
 142  1370.513
 143  1446.475
 144  1340.245
 145  1301.971
 146  1327.528
 147  1259.44
 148  1200.169
 149  1085.781
 150  1285.858
 151  1453.113
 152  1570.066
 153  1380.249
 154  1298.344
 155  1338.969
 156  1655.747
 157  1408.302
 158  1449.81
 159  1399.141
 160  1115.935
 161  1161.122
 162  1148.001
 163  1322.266
 164  1169.74
 165  1365.655
 166  1327.116
 167  1244.621
 168  1421.547
 169  1367.783
 170  1358.507
 171  1233.844
 172  1099.543
 173  1413.352
 174  1431.599
 175  1396.061
 176  1185.504
 177  958.6392
 178  1133.636
 179  1141.968
 180  550.4376
 181  699.2814
 182  1041.258
 183  563.8068
 184  760.0635
 185  770.8137
 186  791.6735
 187  946.3842
 188  1076.568
 189  1300.715
 190  1016.254
 191  1225.972
 192  1289.916
 193  1191.097
 194  956.3939
 195  916.9376
 196  710.1136
 197  1190.059
 198  1353.947
 199  1232.823
 200  1203.285
 201  1258.147
 202  1281.448
 203  1327.105
 204  1346.23
 205  1193.043
 206  1466.269
 207  1453.215
 208  1389.732
 209  906.4545
 210  783.3752
 211  1123.897
 212  1147.186
 213  1398.237
 214  1412.672
 215  1353.618
 216  1428.486
 217  1514.171
 218  1279.348
 219  1405.158
 220  1299.313
 221  1562.277
 222  1522.085
 223  1433.058
 224  1300.33
 225  1259.013
 226  1492.091
 227  1477.335
 228  1529.981
 229  1282.457
 230  1592.901
 231  1633.734
 232  1454.741
 233  1619.129
 234  1472.229
 235  1735.557
 236  1728.733
 237  1521.029
 238  1247.267
 239  1359.116
 240  1460.45
 241  1627.857
 242  1589.354
 243  1456.603
 244  1074.535
 245  1016.827
 246  1240.364
 247  1194.016
 248  1373.03
 249  1628.97
 250  1480.979
 251  1323.082
 252  1238.983
 253  1396.998
 254  1461.035
 255  1123.36
 256  766.4681
 257  766.624
 258  892.2402
 259  813.7609
 260  1052.788
 261  1003.504
 262  992.3538
 263  934.4205
 264  809.2078
 265  915.9509
 266  1261.884
 267  1225.064
 268  1353.331
 269  1418.145
 270  1115.182
 271  1154.335
 272  849.2516
 273  907.5212
 274  1169.749
 275  1181.103
 276  1111.526
 277  1382.374
 278  1341.124
 279  933.4653
 280  1010.354
 281  1132.624
 282  1190.649
 283  896.1625
 284  945.7769
 285  878.4443
 286  791.7673
 287  1013.148
 288  1183.602
 289  1348.507
 290  1290.755
 291  968.8596
 292  886.7556
 293  778.9255
 294  947.5237
 295  1244.918
 296  1494.431
 297  1209.568
 298  1284.613
 299  1084.575
 300  938.937
 301  761.3679
 302  1010.011
 303  1410.754
 304  1405.04
 305  1228.058
 306  1060.028
 307  1064.247
 308  1166.994
 309  1273.563
 310  1653.482
 311  1536.495
 312  1635.736
 313  1781.608
 314  2161.438
 315  2274.879
 316  2220.654
 317  2332.323
 318  2479.696
 319  2320.2
 320  2011.143
 321  1787.698
 322  1616.237
 323  1710.951
 324  1267.518
 325  955.4076
 326  1228.852
 327  1604.924
 328  1483.938
 329  1688.02
 330  1690.597
 331  1702.581
 332  1570.65
 333  1235.184
 334  1210.411
 335  1190.822
 336  1101.798
 337  1228.448
 338  1369.614
 339  1350.768
 340  1348.527
 341  976.519
 342  1148.251
 343  1052.522
 344  1105.115
 345  1091.939
 346  1069.79
 347  1134.518
 348  1154.64
 349  966.4714
 350  1078.605
 351  951.4849
 352  802.9706
 353  1010.104
 354  955.599
 355  846.0464
 356  908.793
 357  950.6804
 358  955.2247
 359  1459.507
 360  1329.604
 361  1326.519
 362  1228.176
 363  965.1664
 364  1094.828
 365  967.7
 366  839.8922
 367  1088.737
 368  1133.762
 369  1073.956
 370  1115.933
 371  1106.346
 372  1315.509
 373  1238.644
 374  1131.374
 375  1229.752
 376  1282.735
 377  1547.347
 378  1653.97
 379  1414.463
 380  1297.496
 381  1310.166
 382  1159.295
 383  1426.146
 384  1409.157
 385  1173.346
 386  1020.721
 387  1039.03
 388  867.894
 389  781.4239
 390  1046.582
 391  1198.492
 392  1406.396
 393  1525.013
 394  1260.054
 395  1364.855
 396  1251.564
 397  1211.403
 398  1001.724
 399  1412.779
 400  1455.092
 401  1242.769
 402  937.7391
 403  988.9255
 404  1081.048
 405  1377.252
 406  1597.82
 407  1307.299
 408  1337.864
 409  1517.371
 410  1289.442
 411  1208.386
 412  1135.417
 413  1108.145
 414  1170.566
 415  1311.774
 416  1390.771
 417  1370.963
 418  1256.415
 419  1351.944
 420  1080.954
 421  1348.308
 422  1445.576
 423  1563.91
 424  1713.986
 425  1672.529
 426  1476.132
 427  1476.017
 428  1342.853
 429  1255.5
 430  1094.507
 431  968.9331
 432  1128.578
 433  870.9169
 434  1112.699
 435  1019.752
 436  984.168
 437  1126.978
 438  1014.731
 439  1138.8
 440  1430.019
 441  1664.952
 442  1469.05
 443  1496.752
 444  1429.836
 445  1287.293
 446  1460.044
 447  1496.712
 448  1630.131
 449  1432.384
 450  1374.422
 451  1329.624
 452  1308.061
 453  1493.982
 454  1464.982
 455  1300.456
 456  1706.405
 457  1697.665
 458  1553.871
 459  1284.631
 460  1341.776
 461  1069.301
 462  866.5154
 463  1132.061
 464  941.9213
 465  791.4692
 466  929.8543
 467  1289.256
 468  1510.577
 469  1292.207
 470  1285.022
 471  1088.738
 472  904.9017
 473  848.5451
 474  1121.567
 475  1173.724
 476  1150.345
 477  933.3207
 478  1078.705
 479  1205.086
 480  952.5139
 481  1006.629
 482  1141.117
 483  1218.323
 484  1054.648
 485  910.2713
 486  984.2119
 487  931.8417
 488  1047.132
 489  1519.667
 490  1395.089
 491  1225.358
 492  1160.625
 493  1289.668
 494  1418.005
 495  1564.907
 496  1328.454
 497  1472.922
 498  1170.408
 499  1070.012
 500  1159.108
 501  1007.212
 502  1163.359
 503  1314.226
 504  1306.53
 505  1320.906
 506  1439.63
 507  1129.258
 508  1131.557
 509  1285.953
 510  1386.247
 511  1071.771
