# Input file       =  1193505289.155681_cleaned.dat
# Candidate        =  PSR_0332+5434
# Telescope        =  AR
# Epoch_topo       =  58057.718844394454
# Epoch_bary       =  N/A
# T_sample         =  0.002
# Data Folded      =  7143424
# Data Avg         =  0.132853513021757
# Data StdDev      =  3.51102502643348 
# Profile Bins     =  512
# Profile Avg      =  1853.48534748079 
# Profile StdDev   =  414.717306202732 
# Reduced chi-sqr  =  0.843
# Prob(Noise)      <  0.996   (~0.0 sigma)
# P_topo (ms)      =  714.495446533075  +/- 0.000159
# P'_topo (s/s)    =  -0                +/- 8.6e-11
# P''_topo (s/s^2) =  0                 +/- 3.9e-14
# P_bary (ms)      =  N/A
# P'_bary (s/s)    =  N/A
# P''_bary (s/s^2) =  N/A
# P_orb (s)        =  N/A
# asin(i)/c (s)    =  N/A
# eccentricity     =  N/A
# w (rad)          =  N/A
# T_peri           =  N/A
######################################################
   0  1653.185
   1  1614.414
   2  1705.473
   3  2178.487
   4  2316.418
   5  1812.573
   6  2230.205
   7  2191.956
   8  1830.713
   9  1562.107
  10  1995.864
  11  2147.724
  12  1889.955
  13  2005.723
  14  2047.117
  15  1578.222
  16  1557.096
  17  1639.593
  18  1714.865
  19  1871.94
  20  1703.536
  21  1975.947
  22  1823.624
  23  1555.183
  24  1807.456
  25  1852.283
  26  2032.11
  27  1784.928
  28  2036.061
  29  1639.186
  30  1516.433
  31  1681.339
  32  1836.901
  33  1961.285
  34  1697.154
  35  1730.782
  36  2033.912
  37  1705.64
  38  1521.643
  39  1609.268
  40  1768.072
  41  1617.943
  42  1426.681
  43  1850.936
  44  1975.076
  45  1627.575
  46  1911.544
  47  1439.519
  48  1687.93
  49  1719.024
  50  1669.062
  51  1843.814
  52  1535.59
  53  1572.672
  54  1477.409
  55  1813.648
  56  1962.688
  57  1804.937
  58  1605.37
  59  1457.798
  60  1888.346
  61  2036.31
  62  2141.081
  63  1744.468
  64  1501.879
  65  1710.718
  66  1395.026
  67  1567.322
  68  1931.328
  69  1750.351
  70  1850.656
  71  2162.815
  72  1896.366
  73  1698.882
  74  1269.922
  75  1555.796
  76  1702.709
  77  1621.59
  78  1672.578
  79  1672.634
  80  2021.773
  81  1857.551
  82  1579.062
  83  1508.128
  84  1512.558
  85  1752.588
  86  1813.618
  87  1928.212
  88  1954.599
  89  1789.314
  90  2117.69
  91  1920.735
  92  1880.412
  93  1750.657
  94  1851.009
  95  1963.659
  96  1846.319
  97  1971.945
  98  1788.352
  99  1697.598
 100  2027.683
 101  1815.136
 102  1291.1
 103  1451.056
 104  1670.207
 105  1803.021
 106  1982.151
 107  1742.303
 108  1707.773
 109  1739.205
 110  1805.942
 111  1572.539
 112  1695.949
 113  2136.557
 114  2176.293
 115  2061.247
 116  1921.416
 117  2160.338
 118  2048.04
 119  1589.506
 120  1855.551
 121  2043.764
 122  2083.717
 123  1634.651
 124  1777.854
 125  1537.667
 126  1482.083
 127  1815.742
 128  1346.644
 129  1352.178
 130  1517.255
 131  1700.994
 132  1541.498
 133  1631.92
 134  1857.345
 135  1533.21
 136  1603.718
 137  1595.681
 138  1898.038
 139  2033.221
 140  1906.228
 141  1639.184
 142  1993.611
 143  2129.654
 144  1995.499
 145  2241.71
 146  2150.814
 147  1831.689
 148  1350.869
 149  1771.434
 150  1815.531
 151  1648.447
 152  1730.919
 153  1822.576
 154  1733.843
 155  1997.46
 156  1705.271
 157  1938.668
 158  2015.354
 159  1681.986
 160  1665.064
 161  1585.782
 162  1676.6
 163  2219.612
 164  2315.385
 165  2150.317
 166  1974.721
 167  1622.299
 168  2016.307
 169  1739.058
 170  1606.107
 171  1742.87
 172  1685.233
 173  1637.972
 174  1702.958
 175  1970.422
 176  1936.787
 177  1892.432
 178  1840.557
 179  1879.135
 180  1913.07
 181  1978.187
 182  1939.415
 183  1895.351
 184  1610.942
 185  1537.843
 186  1705.118
 187  1778.79
 188  1876.38
 189  2019.413
 190  1696.969
 191  1548.634
 192  1469.222
 193  1522.903
 194  1822.596
 195  1468.169
 196  2075.608
 197  2244.386
 198  2164.422
 199  1790.64
 200  1557.02
 201  1955.188
 202  1741.594
 203  1578.083
 204  2026.291
 205  2060.209
 206  2098.805
 207  2156.634
 208  1681.396
 209  1871.362
 210  1836.224
 211  1686.872
 212  1795.982
 213  1900.583
 214  2335.254
 215  3161.253
 216  3496.265
 217  3417.847
 218  3291.516
 219  2875.561
 220  2107.626
 221  1928.844
 222  1847.826
 223  2181.174
 224  2050.631
 225  1966.702
 226  1686.347
 227  1518.64
 228  2423.402
 229  2058.645
 230  2148.016
 231  2016.512
 232  1890.582
 233  1767.393
 234  1905.78
 235  2139.727
 236  2092.84
 237  1928.052
 238  2105.895
 239  2042.694
 240  2028.27
 241  2029.342
 242  2062.851
 243  1667.614
 244  1290.388
 245  1610.07
 246  1267.961
 247  1551.918
 248  1768.156
 249  1987.126
 250  2082.448
 251  1928.413
 252  1699.248
 253  1977.44
 254  2099.166
 255  2263.212
 256  1894.47
 257  1911.883
 258  2180.993
 259  1984.005
 260  2062.59
 261  1982.105
 262  2124.769
 263  2418.237
 264  2615.479
 265  2613.676
 266  2108.608
 267  1694.521
 268  1616.54
 269  2177.021
 270  2297.206
 271  1938.391
 272  1823.946
 273  1840.113
 274  1994.405
 275  1842.637
 276  1807.519
 277  1788.445
 278  1887.6
 279  2440.734
 280  2297.853
 281  2057.405
 282  2251.575
 283  2034.446
 284  1644.742
 285  1648.301
 286  2005.659
 287  2329.291
 288  1824.645
 289  1830.972
 290  2295.57
 291  2114.705
 292  2271.093
 293  1974.516
 294  1421.992
 295  1330.992
 296  1508.647
 297  2162.279
 298  2150.316
 299  1982.892
 300  1647.973
 301  1657.968
 302  1720.919
 303  1658.181
 304  1789.114
 305  1742.688
 306  1885.799
 307  2122.013
 308  1913.818
 309  1680.284
 310  1477.441
 311  1891.303
 312  1914.435
 313  1710.024
 314  2222.837
 315  2193.008
 316  1982.215
 317  1343.169
 318  1625.488
 319  1908.534
 320  1649.635
 321  1877.735
 322  1765.758
 323  1840.628
 324  1995.963
 325  1907.624
 326  1718.66
 327  1734.799
 328  1577.595
 329  1751.828
 330  1883.935
 331  2033.355
 332  1698.977
 333  1508.026
 334  1793.828
 335  1860.514
 336  1657.603
 337  1698.76
 338  1724.387
 339  1865.509
 340  1576.257
 341  1470.487
 342  1574.848
 343  1791.991
 344  2106.7
 345  1863.051
 346  1892.411
 347  1747.809
 348  1562.676
 349  1456.643
 350  1722.791
 351  1942.324
 352  1753.99
 353  2096.76
 354  2006.145
 355  1621.26
 356  1702.629
 357  1748.617
 358  1638.321
 359  1451.162
 360  1894.451
 361  2210.699
 362  1877.625
 363  1355.559
 364  1952.753
 365  2175.767
 366  1701.434
 367  1461.302
 368  1871.702
 369  1759.594
 370  1661.035
 371  2139.894
 372  1765.776
 373  1420.933
 374  1588.51
 375  1723.776
 376  1821.115
 377  1785.129
 378  1848.745
 379  1882.647
 380  1751.311
 381  1921.447
 382  1944.074
 383  1829.343
 384  1703.572
 385  1416.899
 386  2176.142
 387  2377.155
 388  2356.386
 389  1987.306
 390  1961.033
 391  1841.229
 392  2028.253
 393  1575.924
 394  1154.717
 395  1200.788
 396  1615.188
 397  2252.252
 398  2085.403
 399  1826.597
 400  2031.129
 401  1625.694
 402  1384.516
 403  1723.969
 404  1894.655
 405  2145.02
 406  1663.874
 407  1568.599
 408  1480.502
 409  1502.992
 410  1884.644
 411  2084.949
 412  2068.867
 413  2184.025
 414  2317.382
 415  1958.281
 416  1818.258
 417  1437.445
 418  1778.311
 419  1890.596
 420  2120.178
 421  1978.105
 422  2006.656
 423  1682.356
 424  1386.796
 425  1493.021
 426  1715.793
 427  1680.318
 428  1459.656
 429  1674.102
 430  1899.18
 431  1794.137
 432  1818.713
 433  1734.281
 434  1972.914
 435  1785.153
 436  1631.979
 437  1800.369
 438  1876.926
 439  1892.456
 440  2178.015
 441  2214.059
 442  2022.752
 443  1989.587
 444  1882.421
 445  2018.859
 446  1771.684
 447  1855.87
 448  1742.652
 449  1893.723
 450  2147.497
 451  2427.6
 452  2083.346
 453  1925.561
 454  2210.735
 455  2327.543
 456  2130.014
 457  1884.91
 458  1868.409
 459  1639.488
 460  1920.357
 461  1833.153
 462  1718.801
 463  1687.098
 464  1733.709
 465  1887.567
 466  2042.801
 467  1897.261
 468  1825.129
 469  1828.492
 470  2043.268
 471  2417.327
 472  2105.212
 473  2146.756
 474  2294.096
 475  1957.94
 476  1832.356
 477  1883.382
 478  2144.407
 479  1995.255
 480  1844.03
 481  1806.341
 482  1929.865
 483  1862.256
 484  2036.015
 485  2039.769
 486  2035.062
 487  2122.333
 488  2031.22
 489  1810.559
 490  1597.837
 491  1534.745
 492  1547.152
 493  1571.533
 494  1895.109
 495  1876.35
 496  2015.883
 497  1885.31
 498  1874.335
 499  1626.758
 500  1178.106
 501  1744.32
 502  2193.298
 503  1885.378
 504  1534.848
 505  1888.467
 506  1958.125
 507  1695.576
 508  1849.942
 509  1807.143
 510  1864.398
 511  1744.456
