# Input file       =  1193707102.15065_cleaned.dat
# Candidate        =  PSR_0332+5434
# Telescope        =  AR
# Epoch_topo       =  58060.054642947340
# Epoch_bary       =  N/A
# T_sample         =  0.002
# Data Folded      =  7340032
# Data Avg         =  0.0851598355345363
# Data StdDev      =  3.14381015560354 
# Profile Bins     =  512
# Profile Avg      =  1220.96104066162 
# Profile StdDev   =  376.417935722525 
# Reduced chi-sqr  =  0.892
# Prob(Noise)      <  0.962   (~0.0 sigma)
# P_topo (ms)      =  714.497937903877  +/- 0.000241
# P'_topo (s/s)    =  -0                +/- 1.27e-10
# P''_topo (s/s^2) =  0                 +/- 5.61e-14
# P_bary (ms)      =  N/A
# P'_bary (s/s)    =  N/A
# P''_bary (s/s^2) =  N/A
# P_orb (s)        =  N/A
# asin(i)/c (s)    =  N/A
# eccentricity     =  N/A
# w (rad)          =  N/A
# T_peri           =  N/A
######################################################
   0  1576.869
   1  1267.505
   2  1110.974
   3  1470.426
   4  1462.116
   5  1486.277
   6  1276.443
   7  1220.555
   8  1450.06
   9  1578.795
  10  1351.138
  11  1263.575
  12  1144.425
  13  1168.203
  14  1276.057
  15  1486.252
  16  1236.437
  17  1313.561
  18  1143.6
  19  1301.499
  20  1290.17
  21  1229.425
  22  1142.017
  23  1060.026
  24  1139.893
  25  1264.124
  26  1088.99
  27  1183.026
  28  1462.397
  29  1283.511
  30  1083.601
  31  1206.252
  32  1360.665
  33  1106.733
  34  747.6185
  35  1278.036
  36  1366.27
  37  1500.979
  38  1351.25
  39  1280.047
  40  1024.2
  41  960.5115
  42  1159.54
  43  1206.439
  44  1161.939
  45  1298.804
  46  1458.281
  47  1373.86
  48  1047.385
  49  1262.067
  50  1468.195
  51  1093.598
  52  1194.118
  53  1339.836
  54  1651.823
  55  1417.815
  56  1332.95
  57  955.1857
  58  1133.751
  59  759.6876
  60  584.0238
  61  935.0197
  62  1063.751
  63  1053.734
  64  906.9125
  65  1049.716
  66  917.9614
  67  1091.788
  68  1041.104
  69  1271.332
  70  1216.981
  71  1133.326
  72  1317.748
  73  1276.412
  74  1171.538
  75  1356.538
  76  1097.762
  77  843.6011
  78  1022.373
  79  1139.653
  80  1117.353
  81  1096.815
  82  1155.01
  83  1090.204
  84  1298.3
  85  892.8407
  86  747.5676
  87  1077.998
  88  1299.359
  89  1100.666
  90  1369.893
  91  1484.88
  92  1607.457
  93  1425.237
  94  1545.684
  95  1478.593
  96  1143.814
  97  1522.688
  98  1283.683
  99  1048.674
 100  1006.494
 101  1022.23
 102  1086.775
 103  995.8257
 104  1185.41
 105  1234.094
 106  1101.722
 107  1138.716
 108  1627.164
 109  1451.476
 110  1224.82
 111  1194.592
 112  1181.168
 113  1002.767
 114  1224.154
 115  1298.042
 116  1227.344
 117  1130.742
 118  1043.132
 119  1169.948
 120  1018.552
 121  1103.918
 122  1603.344
 123  1607.648
 124  1288.418
 125  1251.121
 126  1271.857
 127  1419.029
 128  1405.946
 129  1384.894
 130  1698.709
 131  1707.725
 132  1406.881
 133  1209.136
 134  1261.832
 135  1286.216
 136  1201.127
 137  1104.877
 138  1077.249
 139  1284.887
 140  1527.334
 141  1426.711
 142  1185.628
 143  1001.992
 144  1184.727
 145  1251.509
 146  783.4096
 147  868.8173
 148  1049.439
 149  1240.729
 150  1589.186
 151  1274.764
 152  1562.035
 153  1649.956
 154  1374.708
 155  1419.167
 156  1305.458
 157  1224.428
 158  1407.724
 159  1338.57
 160  1199.222
 161  1147.629
 162  1255.744
 163  1466.174
 164  1488.741
 165  1302.928
 166  1117.696
 167  839.4001
 168  1007.158
 169  1493.236
 170  1319.286
 171  1378.611
 172  1426.426
 173  1302.725
 174  913.6316
 175  877.2118
 176  989.6883
 177  1049.526
 178  1002.685
 179  885.5229
 180  619.347
 181  891.9677
 182  1157.623
 183  1302.475
 184  1193.724
 185  1006.825
 186  1091.838
 187  735.8713
 188  1171.551
 189  1523.101
 190  1225.718
 191  1508.8
 192  1508.24
 193  1276.664
 194  1456.989
 195  1362.061
 196  1375.988
 197  1121.532
 198  979.5356
 199  1417.354
 200  1469.577
 201  995.8932
 202  1312.294
 203  1349.274
 204  1395.555
 205  1381.277
 206  1379.039
 207  1352.591
 208  1281.811
 209  1183.092
 210  1151.017
 211  1465.901
 212  1519.859
 213  1275.769
 214  1161.011
 215  1318.685
 216  1050.856
 217  833.2842
 218  1309.586
 219  1514.005
 220  1570.872
 221  1430.992
 222  1129.29
 223  1234.543
 224  1346.361
 225  1185.578
 226  1283.936
 227  1330.16
 228  1590.584
 229  1236.764
 230  884.1273
 231  1177.121
 232  1243.204
 233  1349.511
 234  1303.355
 235  1301.911
 236  1439.271
 237  1294.044
 238  1334.315
 239  1219.567
 240  1353.722
 241  1381.522
 242  1294.023
 243  969.0026
 244  978.9296
 245  1191.229
 246  1083.838
 247  1299.023
 248  1333.82
 249  1347.578
 250  1530.429
 251  1143.603
 252  1163.685
 253  1102.897
 254  1400.257
 255  1368.333
 256  1289.91
 257  1179.245
 258  1099.328
 259  957.2505
 260  1270.733
 261  1239.407
 262  1351.24
 263  1516.83
 264  1234.84
 265  1249.672
 266  1045.113
 267  1272.07
 268  1039.422
 269  1169.813
 270  1450.772
 271  1268.158
 272  1359.324
 273  1103.85
 274  697.1671
 275  956.0171
 276  1240.61
 277  1501.34
 278  1632.184
 279  1463.099
 280  1607.325
 281  1435.179
 282  1379.676
 283  1002.669
 284  902.0256
 285  1027.564
 286  954.181
 287  1123.018
 288  1321.759
 289  1518.216
 290  1169.79
 291  1402.306
 292  1339.559
 293  1121.233
 294  933.7845
 295  1117.728
 296  1637.833
 297  1790.519
 298  1626.658
 299  1018.435
 300  1200.608
 301  1282.302
 302  882.9515
 303  1110.212
 304  1039.482
 305  1120.551
 306  1407.123
 307  967.222
 308  848.8522
 309  1162.646
 310  1188.361
 311  1357.468
 312  1447.975
 313  1457.841
 314  1248.607
 315  1060.465
 316  1210.601
 317  1431.945
 318  1335.373
 319  1254.299
 320  1191.136
 321  1451.949
 322  1129.868
 323  1076.824
 324  1191.54
 325  1073.826
 326  1163.93
 327  1251.482
 328  1087.163
 329  860.7035
 330  1108.334
 331  1163.466
 332  1495.621
 333  1354.741
 334  1174.454
 335  1052.56
 336  1087.946
 337  1198.778
 338  1249.966
 339  1337.177
 340  1353.599
 341  1528.191
 342  1450.941
 343  1001.057
 344  1088.751
 345  897.887
 346  1199.125
 347  1497.896
 348  1423.633
 349  987.0686
 350  661.9148
 351  853.8511
 352  1194.73
 353  1462.56
 354  1678.173
 355  1888.028
 356  2186.418
 357  2622.557
 358  2717.057
 359  2614.935
 360  2373.632
 361  1979.321
 362  1412.976
 363  1324.887
 364  1258.177
 365  1283.034
 366  1042.085
 367  1168.848
 368  1243.664
 369  1417.332
 370  1395.252
 371  1457.04
 372  1314.506
 373  1377.949
 374  1431.636
 375  1179.209
 376  941.0356
 377  883.3059
 378  1279.548
 379  1274.075
 380  1232.401
 381  707.1049
 382  715.8815
 383  1325.313
 384  1250.615
 385  1106.578
 386  1486.763
 387  1620.402
 388  1181.216
 389  1348.531
 390  1333.263
 391  1097.711
 392  1355.578
 393  1140.605
 394  1328.992
 395  926.8074
 396  696.3597
 397  1042.562
 398  1159.807
 399  1003.57
 400  1297.143
 401  1185.037
 402  1248.334
 403  920.5701
 404  681.7507
 405  968.4235
 406  984.681
 407  1095.859
 408  983.228
 409  883.5974
 410  1032.018
 411  981.387
 412  909.0266
 413  1081.3
 414  1192.955
 415  1174.013
 416  1073.241
 417  1006.964
 418  917.3663
 419  737.3511
 420  1083.208
 421  1197.773
 422  1416.274
 423  1032.846
 424  834.9361
 425  1288.922
 426  1938.986
 427  1782.144
 428  1448.766
 429  1341.903
 430  1258.849
 431  1301.564
 432  1517.126
 433  1588.711
 434  1499.697
 435  1292.158
 436  1128.882
 437  1081.688
 438  1078.618
 439  981.0413
 440  1321.517
 441  1432.762
 442  825.1432
 443  901.038
 444  1078.074
 445  1000.305
 446  891.4664
 447  1072.22
 448  1353.794
 449  1299.884
 450  1029.334
 451  1179.515
 452  878.4789
 453  914.0937
 454  1083.432
 455  954.6407
 456  883.8535
 457  1366.134
 458  1313.018
 459  1004.117
 460  1298.722
 461  1740.483
 462  1757.376
 463  1727.375
 464  1143.971
 465  938.1498
 466  809.0184
 467  1113.152
 468  1051.129
 469  1184.961
 470  810.723
 471  903.9847
 472  1066.568
 473  941.5332
 474  601.9895
 475  784.4403
 476  1207.91
 477  1409.444
 478  1254.566
 479  1329.016
 480  1292.479
 481  1198.425
 482  1063.683
 483  1205.9
 484  1430.346
 485  1101.168
 486  765.5617
 487  809.4117
 488  1044.013
 489  1002.841
 490  902.2253
 491  967.6669
 492  654.6796
 493  1149.668
 494  1291.729
 495  1142.681
 496  1250.99
 497  1259.708
 498  1226.941
 499  1289.127
 500  1217.555
 501  988.2103
 502  1165.272
 503  943.0724
 504  806.9696
 505  964.9908
 506  1142.302
 507  1209.21
 508  1112.301
 509  821.0413
 510  843.6486
 511  1111.144
