# Input file       =  1193261429.141686_cleaned.dat
# Candidate        =  PSR_0332+5434
# Telescope        =  AR
# Epoch_topo       =  58054.896390528775
# Epoch_bary       =  N/A
# T_sample         =  0.002
# Data Folded      =  7340032
# Data Avg         =  0.0910327978667087
# Data StdDev      =  3.23379848292529 
# Profile Bins     =  512
# Profile Avg      =  1305.0304286642  
# Profile StdDev   =  387.192511391225 
# Reduced chi-sqr  =  0.883
# Prob(Noise)      <  0.973   (~0.0 sigma)
# P_topo (ms)      =  714.492914219538  +/- 0.00028
# P'_topo (s/s)    =  -0                +/- 1.48e-10
# P''_topo (s/s^2) =  0                 +/- 6.53e-14
# P_bary (ms)      =  N/A
# P'_bary (s/s)    =  N/A
# P''_bary (s/s^2) =  N/A
# P_orb (s)        =  N/A
# asin(i)/c (s)    =  N/A
# eccentricity     =  N/A
# w (rad)          =  N/A
# T_peri           =  N/A
######################################################
   0  856.166
   1  879.5294
   2  1117.578
   3  1008.572
   4  1245.388
   5  1190.257
   6  1190.153
   7  1157.337
   8  1156.679
   9  1526.804
  10  1508.755
  11  1368.336
  12  1418.034
  13  1061.375
  14  1312.007
  15  1212.728
  16  1077.605
  17  1093.106
  18  1335.453
  19  1461.076
  20  1464.797
  21  1416.403
  22  1361.055
  23  1347.363
  24  1352.729
  25  930.1375
  26  731.0376
  27  776.9998
  28  988.5374
  29  782.1653
  30  858.4269
  31  1122.91
  32  1233.013
  33  1203.638
  34  1167.111
  35  1444.337
  36  1775.13
  37  1891.12
  38  1578.424
  39  1406.383
  40  1345.243
  41  1288.701
  42  1207.089
  43  1191.949
  44  1331.613
  45  1520.324
  46  1251.027
  47  1446.397
  48  1372.532
  49  1565.391
  50  1487.644
  51  1121.502
  52  1363.23
  53  1533.825
  54  875.1323
  55  1196.899
  56  1367.145
  57  1201.823
  58  1044.621
  59  1225.265
  60  1327.223
  61  1236.419
  62  1329.041
  63  1266.869
  64  1180.165
  65  1361.045
  66  1490.553
  67  1513.996
  68  1419.545
  69  1417.645
  70  1308.986
  71  1331.412
  72  1092.614
  73  904.6364
  74  970.8108
  75  744.5515
  76  1144.77
  77  1104.276
  78  893.283
  79  983.4479
  80  1064.293
  81  1385.959
  82  1261.376
  83  1414.552
  84  1191.964
  85  1425.451
  86  1342.564
  87  1239.481
  88  1289.544
  89  1147.516
  90  1165.03
  91  1254.871
  92  1030.959
  93  1270.059
  94  1228.658
  95  1396.394
  96  1407.34
  97  1075.573
  98  1445.506
  99  1314.904
 100  1533.94
 101  1758.116
 102  1478.52
 103  1550.625
 104  1253.891
 105  1463.72
 106  1432.483
 107  1262.837
 108  1655.57
 109  1688.72
 110  1353.224
 111  1097.198
 112  1183.718
 113  1328.226
 114  1818.576
 115  1573.894
 116  1584.067
 117  1636.285
 118  1501.62
 119  1386.048
 120  1384.986
 121  1529.777
 122  1294.3
 123  1391.009
 124  1582.889
 125  1474.261
 126  1237.915
 127  1153.264
 128  1265.047
 129  1442.978
 130  1503.019
 131  1748.079
 132  1644.038
 133  1412.015
 134  1079.005
 135  1274.492
 136  1396.79
 137  1165.405
 138  1010.425
 139  1060.37
 140  1071.905
 141  898.2498
 142  955.0345
 143  1234.107
 144  1194.846
 145  1203.911
 146  854.5621
 147  1205.516
 148  1333.805
 149  1169.907
 150  785.7369
 151  1014.15
 152  1302.339
 153  1169.516
 154  917.2004
 155  925.9835
 156  824.9161
 157  1038.426
 158  862.0897
 159  985.5332
 160  774.9705
 161  877.2495
 162  966.1595
 163  1174.085
 164  1626.154
 165  1442.738
 166  1091.656
 167  1034.559
 168  1394.739
 169  1393.567
 170  1248.972
 171  1404.81
 172  1381.174
 173  1164.597
 174  1115.28
 175  960.938
 176  955.4695
 177  1416.941
 178  1338.181
 179  1271.525
 180  1179.672
 181  1085.717
 182  1347.534
 183  1256.411
 184  1001.394
 185  940.4627
 186  1061.929
 187  1143.32
 188  1354.546
 189  1323.079
 190  1310.475
 191  1325.927
 192  1395.398
 193  1488.716
 194  1293.92
 195  1106.633
 196  1598.839
 197  1611.907
 198  1521.553
 199  1106.294
 200  1320.764
 201  1323.889
 202  1148.405
 203  839.2469
 204  824.5247
 205  955.5394
 206  986.8923
 207  871.0132
 208  891.9467
 209  1337.953
 210  1338.77
 211  1253.509
 212  1116.377
 213  1157.764
 214  1281.288
 215  1224.851
 216  1034.328
 217  1057.533
 218  959.4653
 219  1039.2
 220  1139.246
 221  1496.237
 222  1190.773
 223  915.1837
 224  1042.731
 225  1353.137
 226  1231.704
 227  985.8951
 228  949.5775
 229  1393.425
 230  1550.195
 231  1396.854
 232  1245.863
 233  1151.046
 234  1303.015
 235  1211.163
 236  1324.21
 237  1293.853
 238  1342.844
 239  1218.468
 240  1400.227
 241  1363.109
 242  1179.433
 243  1594.989
 244  1415.242
 245  1420.843
 246  1496.822
 247  1514.807
 248  1706.08
 249  1309.088
 250  1222.154
 251  1075.115
 252  863.4402
 253  954.0134
 254  1490.401
 255  1351.35
 256  1385.251
 257  1281.164
 258  1197.803
 259  1018.38
 260  1093.908
 261  1255.88
 262  1494.871
 263  1564.277
 264  1570.92
 265  1095.95
 266  938.9963
 267  991.8972
 268  1057.426
 269  1162.22
 270  1429.771
 271  1370.622
 272  1078.527
 273  911.2304
 274  1296.923
 275  1652.387
 276  1770.965
 277  1696.47
 278  1742.924
 279  1772.489
 280  1480.54
 281  1247.478
 282  1207.224
 283  1399.666
 284  1318.662
 285  1209.223
 286  1344.732
 287  1265.714
 288  1317.504
 289  1407.326
 290  1292.167
 291  1452.253
 292  1397.525
 293  1329.034
 294  1202.687
 295  1230.073
 296  1187.525
 297  1347.218
 298  1112.524
 299  1148.595
 300  1225.936
 301  1184.722
 302  1285.995
 303  1206.467
 304  1431.643
 305  1123.234
 306  1215.29
 307  1549.621
 308  1726.006
 309  1805.046
 310  1794.32
 311  1593.116
 312  1263.166
 313  1418.83
 314  1457.617
 315  1192.846
 316  1181.198
 317  1564.184
 318  1498.201
 319  1180.825
 320  1302.619
 321  1515.462
 322  1363.929
 323  1727.98
 324  1525.601
 325  1274.943
 326  1236.337
 327  1110.518
 328  1318.309
 329  1660.098
 330  1348.735
 331  1594.079
 332  1844.028
 333  1825.013
 334  1412.429
 335  1265.719
 336  1596.787
 337  1544.499
 338  1459.577
 339  1376.256
 340  1563.478
 341  1732.437
 342  1900.685
 343  1612.926
 344  2120.651
 345  2451.295
 346  2742.841
 347  2844.475
 348  2659.047
 349  2476.913
 350  1925.674
 351  1553.119
 352  1829.422
 353  1592.781
 354  1221.77
 355  1356.783
 356  1399.676
 357  1310.853
 358  1688.861
 359  1628.683
 360  1335.973
 361  1296.484
 362  1302.193
 363  1306.752
 364  1150.406
 365  1263.671
 366  963.9501
 367  969.4924
 368  1137.862
 369  1110.598
 370  1192.992
 371  1328.04
 372  1256.517
 373  1325.724
 374  1368.409
 375  1344.566
 376  1248.891
 377  1409.542
 378  1177.338
 379  1182.2
 380  1364.503
 381  1399.065
 382  1415.998
 383  1492.495
 384  1179.738
 385  1358.685
 386  1773.902
 387  1597.63
 388  1550.853
 389  1670.28
 390  1250.232
 391  1075.977
 392  1222.196
 393  1205.225
 394  1224.398
 395  1210.193
 396  1251.986
 397  1241.983
 398  1102.336
 399  1171.886
 400  1267.441
 401  1286.109
 402  1514.481
 403  1480.232
 404  1431.574
 405  1386.058
 406  1221.316
 407  1623.963
 408  1516.273
 409  1310.538
 410  1408.588
 411  1381.233
 412  934.9763
 413  992.4748
 414  1221.974
 415  1465.315
 416  1280.573
 417  1017.432
 418  1501.363
 419  1325.466
 420  1141.153
 421  1092.782
 422  1319.441
 423  1110.345
 424  1152.48
 425  1291.612
 426  1367.467
 427  955.7023
 428  1173.994
 429  1351.381
 430  1420.247
 431  1223.397
 432  1174.672
 433  1233.872
 434  1419.393
 435  1670.463
 436  1555.501
 437  1331.418
 438  1592.376
 439  1456.527
 440  1428.643
 441  1244.062
 442  1430.251
 443  1462.121
 444  1078.18
 445  927.8839
 446  930.5162
 447  1018.353
 448  1107.926
 449  1248.409
 450  1147.392
 451  1022.301
 452  861.3655
 453  1000.494
 454  1354.937
 455  1602.417
 456  1525.694
 457  1361.491
 458  1194.431
 459  1010.17
 460  1187.507
 461  1069.548
 462  1029.197
 463  1397.104
 464  1405.457
 465  1125.258
 466  1170.15
 467  1364.525
 468  1226.109
 469  1392.423
 470  1465.822
 471  1427.729
 472  1662.093
 473  1615.723
 474  1272.985
 475  1266.574
 476  1507.008
 477  1481.511
 478  1636.535
 479  1665.293
 480  1778.96
 481  1604.353
 482  1929.462
 483  1788.898
 484  1386.919
 485  1555.644
 486  1382.139
 487  961.2198
 488  1147.021
 489  1346.77
 490  1150.814
 491  1082.646
 492  1193.786
 493  1230.23
 494  1405.142
 495  1055.029
 496  1160.368
 497  1084.249
 498  1242.398
 499  1270.396
 500  1394.91
 501  1396.815
 502  1313.993
 503  1095.495
 504  898.2858
 505  915.5441
 506  1422.573
 507  1242.461
 508  1295.682
 509  1139.482
 510  1036.888
 511  964.524
