# Input file       =  1193692179.151799_cleaned.dat
# Candidate        =  PSR_0332+5434
# Telescope        =  AR
# Epoch_topo       =  58059.881923053232
# Epoch_bary       =  N/A
# T_sample         =  0.002
# Data Folded      =  7340032
# Data Avg         =  0.10752168160356 
# Data StdDev      =  3.59259049403395 
# Profile Bins     =  1024
# Profile Avg      =  770.366068347502 
# Profile StdDev   =  304.163232310672 
# Reduced chi-sqr  =  0.777
# Prob(Noise)      <  1   (~0.0 sigma)
# P_topo (ms)      =  714.497444683041  +/- 0.000481
# P'_topo (s/s)    =  -0                +/- 2.54e-10
# P''_topo (s/s^2) =  0                 +/- 1.12e-13
# P_bary (ms)      =  N/A
# P'_bary (s/s)    =  N/A
# P''_bary (s/s^2) =  N/A
# P_orb (s)        =  N/A
# asin(i)/c (s)    =  N/A
# eccentricity     =  N/A
# w (rad)          =  N/A
# T_peri           =  N/A
######################################################
   0  827.5139
   1  723.5369
   2  752.0424
   3  755.2207
   4  791.8326
   5  826.3015
   6  802.7204
   7  725.7196
   8  707.4431
   9  674.9229
  10  726.5469
  11  799.112
  12  815.9965
  13  865.3134
  14  1011.082
  15  1046.512
  16  937.0556
  17  768.0197
  18  708.2159
  19  666.8212
  20  662.5478
  21  535.1389
  22  522.0209
  23  536.8874
  24  726.0558
  25  779.1758
  26  641.4002
  27  713.7397
  28  852.6048
  29  984.6362
  30  884.4183
  31  796.5786
  32  782.5729
  33  688.2454
  34  774.6579
  35  809.5247
  36  810.859
  37  740.334
  38  761.187
  39  837.8604
  40  800.2088
  41  667.1161
  42  632.7278
  43  604.8572
  44  692.3659
  45  744.8699
  46  808.6575
  47  772.7527
  48  769.9357
  49  934.7536
  50  1020.483
  51  964.8104
  52  783.3878
  53  691.0671
  54  697.6978
  55  671.7518
  56  699.3016
  57  620.4887
  58  652.2465
  59  794.9946
  60  850.4244
  61  824.9512
  62  780.361
  63  801.3663
  64  687.7132
  65  524.5201
  66  381.839
  67  362.7988
  68  371.8445
  69  508.359
  70  598.5263
  71  679.0753
  72  635.1439
  73  632.8239
  74  667.5135
  75  684.1918
  76  759.4265
  77  664.5242
  78  638.489
  79  716.0569
  80  811.9317
  81  846.2145
  82  799.3229
  83  766.5094
  84  766.9038
  85  687.9036
  86  621.0527
  87  569.3052
  88  615.2496
  89  635.1521
  90  672.0955
  91  750.2092
  92  842.5726
  93  819.083
  94  770.5731
  95  769.4861
  96  804.1631
  97  866.7111
  98  904.6934
  99  870.2181
 100  714.0112
 101  561.4569
 102  542.2606
 103  613.2092
 104  685.0349
 105  582.8846
 106  576.969
 107  575.4637
 108  720.1661
 109  752.9331
 110  830.2859
 111  820.4792
 112  852.4704
 113  794.2042
 114  667.9343
 115  525.6981
 116  549.8862
 117  661.9576
 118  783.5322
 119  696.1948
 120  560.6094
 121  417.9995
 122  507.6278
 123  514.9099
 124  625.179
 125  558.3744
 126  499.6791
 127  519.3163
 128  521.974
 129  617.3566
 130  502.283
 131  634.0222
 132  716.7339
 133  813.712
 134  820.3445
 135  796.1187
 136  772.0226
 137  734.2508
 138  655.9569
 139  754.3787
 140  888.8372
 141  974.555
 142  876.0314
 143  716.8357
 144  663.7171
 145  615.9935
 146  632.9888
 147  577.6954
 148  603.9241
 149  522.0201
 150  546.644
 151  362.9901
 152  320.9592
 153  366.3859
 154  584.8344
 155  673.8588
 156  691.686
 157  680.3767
 158  700.2473
 159  646.9232
 160  576.2817
 161  553.7288
 162  480.4997
 163  474.0408
 164  556.9751
 165  503.8027
 166  494.2539
 167  492.8564
 168  588.3436
 169  602.0156
 170  585.749
 171  658.884
 172  667.5001
 173  783.7607
 174  809.3773
 175  838.8824
 176  812.0353
 177  815.1393
 178  827.8001
 179  810.0084
 180  749.9257
 181  691.1028
 182  709.9593
 183  731.4946
 184  676.4527
 185  521.0015
 186  456.7738
 187  487.6907
 188  632.5591
 189  732.9174
 190  787.3126
 191  790.4475
 192  802.1552
 193  673.0585
 194  657.1441
 195  679.4764
 196  659.6629
 197  666.7413
 198  526.7201
 199  630.1356
 200  542.4739
 201  489.6192
 202  454.253
 203  533.1713
 204  667.3367
 205  697.7913
 206  654.0991
 207  592.0745
 208  656.9056
 209  761.8251
 210  870.6113
 211  789.4125
 212  621.612
 213  584.0546
 214  576.9915
 215  594.6522
 216  606.9797
 217  653.8433
 218  714.2509
 219  783.7845
 220  882.85
 221  989.7684
 222  907.3746
 223  800.9406
 224  839.3082
 225  857.9675
 226  856.7711
 227  809.7516
 228  848.2736
 229  910.4147
 230  869.3348
 231  842.753
 232  801.2252
 233  694.7145
 234  540.1268
 235  547.3409
 236  641.3393
 237  813.7776
 238  822.4311
 239  926.8986
 240  1011.526
 241  1038.462
 242  914.2891
 243  827.4204
 244  687.1202
 245  711.3032
 246  724.7572
 247  736.9176
 248  692.7189
 249  754.4299
 250  896.1713
 251  959.5916
 252  966.0023
 253  942.5167
 254  986.0624
 255  945.2542
 256  917.4377
 257  890.9844
 258  819.9077
 259  829.4711
 260  779.0186
 261  697.9587
 262  622.5532
 263  621.5813
 264  618.4924
 265  586.392
 266  652.8398
 267  789.8229
 268  852.8583
 269  788.501
 270  879.6738
 271  860.8397
 272  866.6783
 273  874.71
 274  944.9498
 275  913.7167
 276  712.9841
 277  660.8294
 278  643.4794
 279  627.0362
 280  555.4721
 281  589.8644
 282  640.0336
 283  661.1699
 284  613.7917
 285  676.4674
 286  689.0526
 287  640.0059
 288  682.6967
 289  603.279
 290  672.1769
 291  673.8588
 292  787.4984
 293  704.004
 294  717.5347
 295  694.8594
 296  683.0016
 297  612.186
 298  617.8336
 299  682.8508
 300  598.9998
 301  575.0169
 302  597.9817
 303  640.0569
 304  649.1025
 305  606.9433
 306  752.5709
 307  855.6082
 308  896.9611
 309  868.2182
 310  869.3915
 311  877.2573
 312  800.0114
 313  751.6535
 314  699.3354
 315  782.2991
 316  869.4288
 317  943.6965
 318  908.1183
 319  748.0162
 320  722.7363
 321  766.2988
 322  884.7653
 323  832.8036
 324  766.6311
 325  802.538
 326  816.5954
 327  762.8225
 328  778.3701
 329  716.9951
 330  666.3878
 331  546.8235
 332  628.1904
 333  641.2687
 334  642.6375
 335  649.6388
 336  655.0525
 337  634.1136
 338  563.9929
 339  590.1938
 340  628.6509
 341  732.2256
 342  763.4036
 343  824.4324
 344  849.4008
 345  768.0641
 346  664.4476
 347  629.0109
 348  595.9264
 349  573.0093
 350  624.7303
 351  704.7352
 352  687.2377
 353  675.2042
 354  622.8953
 355  714.4008
 356  734.7399
 357  823.6935
 358  825.687
 359  860.0842
 360  816.7216
 361  746.2605
 362  676.9599
 363  666.8088
 364  725.3152
 365  613.3918
 366  433.0849
 367  414.1213
 368  537.237
 369  628.05
 370  607.5228
 371  465.154
 372  432.1675
 373  420.4489
 374  543.0643
 375  487.8726
 376  541.863
 377  655.2786
 378  725.7908
 379  668.5065
 380  591.276
 381  502.0824
 382  531.7507
 383  535.0784
 384  657.9742
 385  719.9021
 386  713.1191
 387  658.9036
 388  563.7723
 389  456.7566
 390  417.0983
 391  455.9285
 392  573.5484
 393  545.7337
 394  547.1544
 395  602.9224
 396  765.6647
 397  796.5106
 398  807.4417
 399  792.4655
 400  749.7632
 401  680.285
 402  670.3601
 403  730.5883
 404  880.3333
 405  891.6074
 406  902.3401
 407  885.2508
 408  769.6724
 409  717.6422
 410  608.7902
 411  740.7892
 412  678.5803
 413  810.1373
 414  808.4401
 415  841.5368
 416  748.8809
 417  759.5024
 418  837.9718
 419  825.0283
 420  644.5243
 421  552.952
 422  621.8189
 423  742.0199
 424  676.6478
 425  693.9799
 426  727.0344
 427  756.0196
 428  700.291
 429  751.2322
 430  764.9121
 431  752.431
 432  700.5767
 433  751.5648
 434  787.3414
 435  726.4178
 436  723.6323
 437  684.3442
 438  718.1942
 439  724.463
 440  760.1462
 441  769.6092
 442  747.9388
 443  775.8294
 444  862.77
 445  861.4463
 446  816.3608
 447  727.1814
 448  690.8772
 449  689.6177
 450  726.3329
 451  586.6937
 452  492.225
 453  411.9427
 454  502.1727
 455  509.7969
 456  614.6407
 457  676.8544
 458  747.4758
 459  797.9042
 460  776.0804
 461  624.2312
 462  545.9276
 463  597.7217
 464  826.2059
 465  807.8059
 466  850.0253
 467  785.5602
 468  840.2776
 469  828.5289
 470  866.3518
 471  887.3145
 472  796.2876
 473  783.9896
 474  867.185
 475  961.8834
 476  999.217
 477  935.5444
 478  912.2767
 479  833.6913
 480  808.8317
 481  796.7896
 482  874.8317
 483  996.9994
 484  999.1587
 485  957.3119
 486  733.461
 487  685.124
 488  692.292
 489  752.9197
 490  805.1783
 491  765.276
 492  950.4297
 493  964.9171
 494  986.3337
 495  870.5393
 496  788.003
 497  777.4215
 498  794.9138
 499  872.0981
 500  879.7202
 501  793.7177
 502  810.1251
 503  755.2454
 504  770.1612
 505  666.7303
 506  669.9152
 507  692.1942
 508  720.1031
 509  751.201
 510  628.3005
 511  555.0476
 512  558.1666
 513  773.7932
 514  801.1067
 515  780.4973
 516  710.2407
 517  879.0689
 518  896.6584
 519  931.9446
 520  852.1314
 521  847.3306
 522  769.1893
 523  705.8626
 524  669.3348
 525  698.8701
 526  711.9001
 527  688.0145
 528  733.9811
 529  784.1751
 530  832.4601
 531  833.2115
 532  768.6626
 533  813.5405
 534  831.1052
 535  847.016
 536  847.1155
 537  831.3568
 538  902.5917
 539  911.381
 540  1027.226
 541  992.3849
 542  966.4635
 543  935.207
 544  832.153
 545  686.9307
 546  684.6038
 547  812.2918
 548  929.9779
 549  891.202
 550  815.0988
 551  683.2163
 552  753.3896
 553  831.0184
 554  937.6417
 555  838.2592
 556  777.7276
 557  708.8013
 558  670.2328
 559  635.4123
 560  690.6171
 561  786.5925
 562  792.7913
 563  716.0607
 564  693.4636
 565  650.3436
 566  700.5922
 567  706.345
 568  769.2471
 569  759.9853
 570  795.5857
 571  779.8743
 572  737.073
 573  697.4639
 574  701.7645
 575  674.017
 576  719.7346
 577  718.8586
 578  792.7178
 579  818.1658
 580  834.2217
 581  848.5519
 582  778.9995
 583  762.7009
 584  671.8383
 585  713.6509
 586  628.4055
 587  685.1255
 588  628.5868
 589  674.3972
 590  812.2372
 591  1021.11
 592  1054.79
 593  1039.891
 594  936.8497
 595  852.1256
 596  695.7001
 597  682.905
 598  736.1519
 599  730.7664
 600  731.3727
 601  648.4698
 602  690.9095
 603  730.5374
 604  763.0823
 605  732.5187
 606  713.7352
 607  709.0643
 608  750.8319
 609  771.6711
 610  749.2833
 611  751.481
 612  714.8507
 613  793.0034
 614  784.1049
 615  776.3285
 616  758.8386
 617  803.4393
 618  877.0062
 619  869.3233
 620  861.9568
 621  753.1544
 622  829.7014
 623  828.8204
 624  893.0999
 625  862.4885
 626  988.0837
 627  1163.203
 628  1201.523
 629  1306.455
 630  1293.178
 631  1274.226
 632  1356.776
 633  1571.979
 634  1661.674
 635  1571.105
 636  1516.79
 637  1485.493
 638  1417.385
 639  1251.846
 640  1088.835
 641  940.3177
 642  780.876
 643  762.8226
 644  755.1741
 645  761.423
 646  699.0367
 647  667.9421
 648  759.4411
 649  829.3925
 650  914.2747
 651  927.035
 652  840.4943
 653  802.9883
 654  772.5302
 655  832.4691
 656  828.5361
 657  748.8325
 658  701.6531
 659  596.8317
 660  673.5277
 661  754.1298
 662  823.3266
 663  884.1542
 664  857.8631
 665  800.3862
 666  668.2344
 667  650.2552
 668  706.6932
 669  722.4333
 670  722.3041
 671  681.8107
 672  617.5403
 673  648.608
 674  661.6714
 675  665.3239
 676  621.6323
 677  631.8251
 678  738.1507
 679  833.5695
 680  784.2679
 681  768.0662
 682  647.399
 683  688.0596
 684  685.2803
 685  826.1958
 686  837.2466
 687  800.5797
 688  721.1615
 689  646.9393
 690  609.4873
 691  530.3511
 692  541.7197
 693  582.666
 694  605.3554
 695  649.656
 696  512.452
 697  520.7061
 698  605.5293
 699  697.7889
 700  829.9412
 701  872.1198
 702  964.5488
 703  855.2769
 704  740.9717
 705  761.2356
 706  830.3413
 707  872.7416
 708  899.3126
 709  1010.644
 710  1057.596
 711  1050.962
 712  898.3524
 713  762.3492
 714  768.2198
 715  873.5891
 716  946.656
 717  860.0718
 718  885.5025
 719  1026.347
 720  1048.715
 721  992.7441
 722  925.5385
 723  858.7021
 724  814.9667
 725  776.5931
 726  852.1998
 727  783.1504
 728  834.6703
 729  943.662
 730  1096.445
 731  989.6882
 732  762.3754
 733  686.0897
 734  785.283
 735  848.2209
 736  825.9963
 737  810.6339
 738  831.076
 739  894.4336
 740  872.1501
 741  858.4634
 742  864.587
 743  874.9225
 744  899.9445
 745  886.4415
 746  842.614
 747  847.6252
 748  905.8765
 749  979.4939
 750  914.8356
 751  777.5058
 752  693.5067
 753  702.2007
 754  740.0512
 755  759.4472
 756  870.3597
 757  971.6
 758  1028.091
 759  904.9898
 760  878.548
 761  762.0836
 762  918.5464
 763  952.856
 764  1059.135
 765  1030.599
 766  1035.973
 767  945.8176
 768  945.7851
 769  961.8007
 770  971.5963
 771  786.2036
 772  779.3373
 773  788.1166
 774  980.0833
 775  1054.577
 776  1040.864
 777  1060.046
 778  958.4863
 779  891.8027
 780  853.5759
 781  953.2736
 782  1028.379
 783  903.4939
 784  858.6768
 785  854.3065
 786  998.2062
 787  990.1697
 788  942.7368
 789  911.3904
 790  801.6273
 791  842.0143
 792  848.1461
 793  870.2178
 794  887.6369
 795  852.5071
 796  925.3129
 797  890.6064
 798  920.0317
 799  940.0027
 800  914.9475
 801  845.7141
 802  873.7078
 803  833.0236
 804  917.7904
 805  859.7404
 806  858.6843
 807  798.0178
 808  823.2578
 809  884.4913
 810  884.8899
 811  895.2894
 812  852.1973
 813  875.8885
 814  779.2108
 815  775.4141
 816  751.1359
 817  749.5493
 818  788.0322
 819  909.4183
 820  892.7054
 821  938.0062
 822  891.396
 823  896.0465
 824  713.8126
 825  672.9571
 826  689.6848
 827  802.9803
 828  876.0562
 829  945.9606
 830  826.8118
 831  726.2082
 832  697.0109
 833  799.742
 834  897.4216
 835  1027.792
 836  1084.216
 837  960.5747
 838  886.8247
 839  817.6414
 840  847.6442
 841  776.476
 842  765.2268
 843  773.3586
 844  749.0595
 845  707.9398
 846  719.1548
 847  865.3971
 848  991.1454
 849  989.1607
 850  939.1407
 851  829.2451
 852  849.9244
 853  848.8625
 854  920.9973
 855  890.2762
 856  813.2551
 857  918.074
 858  902.0305
 859  865.2048
 860  769.3322
 861  878.5186
 862  962.9194
 863  989.2499
 864  991.7555
 865  1045.824
 866  1068.367
 867  1000.92
 868  1031.837
 869  1071.748
 870  992.0527
 871  775.8953
 872  644.6194
 873  606.8061
 874  684.4435
 875  714.3949
 876  758.5992
 877  801.6572
 878  839.3848
 879  879.8074
 880  767.3307
 881  726.4258
 882  740.7695
 883  829.385
 884  847.348
 885  820.1907
 886  865.7861
 887  826.946
 888  732.3202
 889  614.5385
 890  572.1364
 891  562.3854
 892  615.9655
 893  717.437
 894  689.8879
 895  641.1653
 896  682.6157
 897  787.0874
 898  828.845
 899  828.0839
 900  750.6232
 901  808.6979
 902  734.1874
 903  735.6986
 904  651.6647
 905  636.1912
 906  752.86
 907  785.2178
 908  754.9153
 909  675.7048
 910  685.6314
 911  813.2309
 912  687.6605
 913  718.7543
 914  678.659
 915  846.3475
 916  770.4425
 917  787.6841
 918  640.6124
 919  655.0905
 920  648.1452
 921  746.3067
 922  848.3105
 923  842.0628
 924  771.0297
 925  690.6882
 926  667.7775
 927  735.8392
 928  822.0637
 929  857.9423
 930  900.9424
 931  935.3394
 932  927.5669
 933  911.3196
 934  858.4068
 935  879.4261
 936  885.7322
 937  916.8835
 938  899.0478
 939  933.8998
 940  912.4903
 941  824.4691
 942  687.525
 943  615.4469
 944  576.2548
 945  560.9003
 946  680.1564
 947  743.148
 948  777.0631
 949  697.9431
 950  676.3035
 951  610.3038
 952  663.1595
 953  723.5784
 954  790.8782
 955  725.9026
 956  789.8981
 957  795.5233
 958  838.1672
 959  787.5864
 960  806.9312
 961  807.4032
 962  800.5871
 963  812.2253
 964  950.1171
 965  972.2734
 966  1000.152
 967  944.6589
 968  928.2922
 969  873.1372
 970  888.6519
 971  943.5024
 972  962.3521
 973  827.9123
 974  777.0906
 975  722.9384
 976  849.1273
 977  833.5876
 978  844.9418
 979  849.9528
 980  816.5017
 981  832.4352
 982  726.9479
 983  777.4373
 984  789.71
 985  842.4345
 986  880.3373
 987  840.3843
 988  840.4033
 989  755.9748
 990  739.001
 991  753.6831
 992  769.0288
 993  803.1611
 994  829.4102
 995  861.0851
 996  775.1046
 997  762.557
 998  778.1217
 999  883.2471
1000  862.533
1001  879.8447
1002  865.2634
1003  816.6722
1004  686.7955
1005  707.7745
1006  718.5114
1007  639.9434
1008  675.1172
1009  697.7504
1010  848.1685
1011  803.9024
1012  926.1445
1013  819.8387
1014  804.4744
1015  858.029
1016  871.7482
1017  810.6823
1018  692.011
1019  803.7636
1020  901.7526
1021  864.7033
1022  869.0524
1023  778.6216
