# Input file       =  1193764322.14598_cleaned.dat
# Candidate        =  PSR_0332+5434
# Telescope        =  AR
# Epoch_topo       =  58060.716911411808
# Epoch_bary       =  N/A
# T_sample         =  0.002
# Data Folded      =  7208960
# Data Avg         =  0.105456030232281
# Data StdDev      =  3.70526785966224 
# Profile Bins     =  1024
# Profile Avg      =  742.370166465682 
# Profile StdDev   =  310.889417284339 
# Reduced chi-sqr  =  0.673
# Prob(Noise)      <  1   (~0.0 sigma)
# P_topo (ms)      =  714.498205260307  +/- 0.000181
# P'_topo (s/s)    =  -0                +/- 9.71e-11
# P''_topo (s/s^2) =  0                 +/- 4.36e-14
# P_bary (ms)      =  N/A
# P'_bary (s/s)    =  N/A
# P''_bary (s/s^2) =  N/A
# P_orb (s)        =  N/A
# asin(i)/c (s)    =  N/A
# eccentricity     =  N/A
# w (rad)          =  N/A
# T_peri           =  N/A
######################################################
   0  596.2686
   1  664.3494
   2  708.1942
   3  775.1882
   4  687.1712
   5  783.0928
   6  809.5407
   7  864.775
   8  889.1274
   9  943.3455
  10  863.2932
  11  720.0035
  12  683.5743
  13  717.4893
  14  590.832
  15  410.1578
  16  353.1945
  17  513.3808
  18  585.8605
  19  575.8344
  20  600.4048
  21  700.7125
  22  868.5301
  23  791.6646
  24  741.7178
  25  772.8079
  26  790.7003
  27  757.8541
  28  640.0829
  29  593.7292
  30  666.004
  31  655.2344
  32  657.9738
  33  627.2936
  34  529.8729
  35  538.7055
  36  534.9214
  37  811.4557
  38  866.5244
  39  843.7479
  40  788.945
  41  865.7584
  42  708.8909
  43  610.3597
  44  668.2408
  45  843.8627
  46  837.6741
  47  772.8737
  48  787.2805
  49  723.2561
  50  641.3887
  51  743.0344
  52  819.6222
  53  685.9278
  54  741.6572
  55  874.4527
  56  973.6976
  57  871.2239
  58  783.1318
  59  925.4231
  60  839.4507
  61  814.6439
  62  800.8207
  63  814.358
  64  698.4683
  65  657.1158
  66  709.1511
  67  670.8634
  68  586.5914
  69  546.874
  70  640.0547
  71  715.5784
  72  800.6068
  73  980.8696
  74  835.8425
  75  614.618
  76  406.2557
  77  518.12
  78  614.9373
  79  642.5359
  80  741.7659
  81  824.71
  82  686.822
  83  604.1854
  84  442.6838
  85  607.1025
  86  594.2322
  87  693.5
  88  694.0854
  89  637.1409
  90  550.1533
  91  513.1609
  92  553.6876
  93  614.9376
  94  639.2375
  95  790.4687
  96  711.1889
  97  635.7783
  98  529.5718
  99  481.1558
 100  541.3221
 101  438.1712
 102  569.4578
 103  696.921
 104  756.0661
 105  787.2188
 106  732.4803
 107  756.5239
 108  539.4052
 109  591.0783
 110  694.8619
 111  731.6282
 112  561.8726
 113  487.1606
 114  599.5132
 115  661.8066
 116  649.7794
 117  657.6133
 118  693.0437
 119  764.5181
 120  835.7471
 121  839.1881
 122  856.8986
 123  649.56
 124  724.481
 125  704.4117
 126  785.3726
 127  741.8131
 128  681.4756
 129  863.4813
 130  846.0752
 131  864.1301
 132  718.6064
 133  681.6259
 134  557.9385
 135  566.0891
 136  602.7289
 137  689.3998
 138  603.5635
 139  716.1201
 140  754.7338
 141  784.3943
 142  615.5286
 143  652.9544
 144  606.9693
 145  566.7109
 146  667.1999
 147  753.2408
 148  803.3893
 149  522.7654
 150  492.8022
 151  759.0146
 152  914.4924
 153  853.8251
 154  626.9844
 155  653.7197
 156  715.9432
 157  734.8841
 158  708.5049
 159  738.5388
 160  653.3991
 161  692.3663
 162  511.105
 163  492.0186
 164  471.4597
 165  620.5953
 166  645.7169
 167  684.5959
 168  769.3453
 169  828.6351
 170  870.386
 171  749.3199
 172  844.007
 173  913.6838
 174  932.0173
 175  852.8961
 176  765.3687
 177  832.601
 178  872.2259
 179  779.6669
 180  647.3315
 181  616.6202
 182  704.4147
 183  774.0615
 184  885.5276
 185  1048.092
 186  1017.259
 187  866.8281
 188  854.1442
 189  805.9688
 190  631.5107
 191  406.3696
 192  436.4957
 193  523.3495
 194  733.7806
 195  707.2292
 196  667.5081
 197  618.3193
 198  561.7712
 199  576.7752
 200  650.434
 201  807.7154
 202  820.4529
 203  777.2676
 204  769.6323
 205  666.8109
 206  580.4971
 207  559.8389
 208  680.4547
 209  687.4317
 210  692.1741
 211  734.9578
 212  616.9965
 213  552.9354
 214  599.0187
 215  700.0878
 216  694.8617
 217  483.7848
 218  560.1668
 219  588.421
 220  684.3129
 221  810.0729
 222  798.983
 223  792.366
 224  726.9725
 225  702.0306
 226  813.663
 227  675.9359
 228  565.449
 229  549.7073
 230  565.2397
 231  523.1592
 232  273.695
 233  319.2752
 234  376.351
 235  594.5966
 236  677.2079
 237  789.5587
 238  715.2213
 239  676.5175
 240  687.0446
 241  710.8895
 242  712.42
 243  699.9926
 244  771.2142
 245  835.713
 246  811.6174
 247  717.4271
 248  705.8467
 249  588.2887
 250  555.4075
 251  473.6932
 252  566.3636
 253  583.6443
 254  476.7191
 255  504.1135
 256  571.8515
 257  643.3856
 258  700.5532
 259  875.0507
 260  890.7344
 261  871.8409
 262  938.1667
 263  926.0607
 264  699.9531
 265  479.6776
 266  581.0911
 267  712.8951
 268  643.546
 269  616.2399
 270  636.2905
 271  725.8863
 272  807.6974
 273  807.2648
 274  809.2932
 275  652.4451
 276  711.9482
 277  779.755
 278  796.8
 279  581.0826
 280  587.6268
 281  722.0126
 282  781.0053
 283  735.1473
 284  803.6564
 285  784.9716
 286  720.5317
 287  568.1501
 288  692.6599
 289  689.9932
 290  672.8611
 291  768.2235
 292  742.7368
 293  624.0188
 294  689.8692
 295  822.6725
 296  978.5793
 297  626.5855
 298  520.7917
 299  624.0435
 300  726.0377
 301  657.0115
 302  570.7914
 303  697.2501
 304  731.1849
 305  779.0698
 306  835.6865
 307  894.4891
 308  791.1746
 309  801.0582
 310  919.1504
 311  936.3905
 312  792.6225
 313  861.4901
 314  880.1803
 315  836.5715
 316  642.3228
 317  556.9392
 318  682.1616
 319  760.5475
 320  899.6144
 321  787.3774
 322  763.907
 323  721.6402
 324  720.8013
 325  810.9684
 326  752.8378
 327  721.1982
 328  592.3387
 329  565.9487
 330  635.5449
 331  666.9017
 332  822.1887
 333  846.6754
 334  945.4816
 335  858.6092
 336  803.2502
 337  928.504
 338  1069.757
 339  901.2402
 340  684.186
 341  553.1077
 342  531.4918
 343  432.2572
 344  510.4382
 345  663.4908
 346  757.7978
 347  792.356
 348  726.4194
 349  717.9531
 350  690.3055
 351  679.4354
 352  788.117
 353  652.9908
 354  606.4592
 355  606.9207
 356  726.6863
 357  586.3397
 358  464.5898
 359  581.9372
 360  642.705
 361  680.1541
 362  658.7596
 363  790.1523
 364  741.5944
 365  699.5825
 366  768.4257
 367  732.2535
 368  666.2667
 369  738.445
 370  904.1166
 371  975.273
 372  772.7186
 373  856.457
 374  997.3403
 375  888.0935
 376  730.1262
 377  732.8963
 378  892.0663
 379  854.7404
 380  778.9045
 381  769.3485
 382  805.5175
 383  781.9038
 384  716.8762
 385  742.1303
 386  797.6624
 387  848.2305
 388  793.4664
 389  695.7637
 390  655.0099
 391  692.7148
 392  712.1274
 393  771.9286
 394  622.9789
 395  687.7512
 396  709.763
 397  641.1812
 398  578.9655
 399  517.8308
 400  762.2452
 401  842.747
 402  765.0156
 403  690.2815
 404  600.1392
 405  639.2569
 406  715.4946
 407  722.5652
 408  737.5197
 409  709.1733
 410  873.6906
 411  938.1717
 412  831.8191
 413  759.9808
 414  659.45
 415  752.872
 416  630.2262
 417  710.0303
 418  793.9858
 419  967.2744
 420  958.2314
 421  922.4235
 422  950.833
 423  893.2684
 424  845.4678
 425  948.0684
 426  935.1253
 427  710.6115
 428  593.5016
 429  633.551
 430  709.3292
 431  721.9159
 432  824.6134
 433  853.5157
 434  906.4715
 435  893.5181
 436  924.5998
 437  668.9012
 438  590.2154
 439  599.0981
 440  728.0745
 441  839.1455
 442  834.9084
 443  942.3307
 444  929.3506
 445  915.6896
 446  870.5204
 447  811.5596
 448  849.2647
 449  867.6862
 450  769.7571
 451  660.3563
 452  652.7197
 453  830.6675
 454  856.7821
 455  839.1744
 456  746.8364
 457  596.5744
 458  662.6057
 459  696.3193
 460  727.8549
 461  696.7282
 462  697.9642
 463  830.8189
 464  712.9977
 465  630.2036
 466  564.7715
 467  693.4092
 468  849.2601
 469  871.5256
 470  890.0399
 471  838.9789
 472  731.7294
 473  758.9186
 474  933.205
 475  1032.737
 476  844.1265
 477  748.1174
 478  798.9577
 479  879.7565
 480  860.7484
 481  788.6303
 482  812.1368
 483  759.1978
 484  742.5135
 485  813.9703
 486  857.6512
 487  733.7476
 488  512.6804
 489  612.7222
 490  580.8714
 491  516.9723
 492  562.3472
 493  874.5495
 494  848.2581
 495  845.2183
 496  697.6544
 497  776.0476
 498  508.0906
 499  620.8651
 500  749.2265
 501  864.3039
 502  733.1016
 503  629.4967
 504  670.6279
 505  581.9662
 506  635.7454
 507  722.0496
 508  851.2909
 509  734.3738
 510  669.2588
 511  769.9241
 512  811.7477
 513  700.9608
 514  695.4173
 515  685.3249
 516  719.1045
 517  584.3101
 518  659.9706
 519  641.1917
 520  615.9506
 521  599.1877
 522  669.9757
 523  620.0415
 524  628.4604
 525  646.493
 526  703.7449
 527  579.9861
 528  646.1799
 529  728.2412
 530  845.7916
 531  827.3294
 532  741.345
 533  723.2284
 534  616.4221
 535  633.2032
 536  740.5856
 537  677.9765
 538  647.0632
 539  563.1501
 540  653.6453
 541  644.4229
 542  566.7079
 543  678.7778
 544  725.6131
 545  916.5151
 546  942.0091
 547  878.8837
 548  734.2173
 549  715.0007
 550  771.4874
 551  758.8783
 552  734.4959
 553  806.9388
 554  761.6545
 555  684.197
 556  644.8156
 557  735.537
 558  762.4398
 559  818.6243
 560  875.2853
 561  716.2334
 562  658.9284
 563  603.1057
 564  637.2907
 565  705.1923
 566  746.0889
 567  918.8998
 568  922.3553
 569  852.0867
 570  748.4863
 571  817.7634
 572  804.9323
 573  794.777
 574  828.452
 575  785.1063
 576  727.8995
 577  641.8725
 578  748.5241
 579  823.16
 580  687.7872
 581  754.873
 582  709.3369
 583  774.1887
 584  699.8852
 585  788.107
 586  889.7051
 587  796.2849
 588  704.7027
 589  716.2863
 590  754.869
 591  765.6776
 592  912.6613
 593  919.696
 594  829.9356
 595  696.516
 596  789.1848
 597  889.684
 598  954.6973
 599  1038.077
 600  1026.106
 601  965.3896
 602  792.3781
 603  886.651
 604  922.048
 605  814.5266
 606  722.2027
 607  546.3843
 608  759.7256
 609  754.0336
 610  804.7383
 611  656.7532
 612  570.0399
 613  739.6885
 614  764.9651
 615  750.4738
 616  735.2687
 617  794.9067
 618  942.6036
 619  974.8198
 620  925.4006
 621  750.6857
 622  816.0477
 623  934.9894
 624  1003.448
 625  950.2969
 626  1101.312
 627  1143.087
 628  1108.484
 629  1099.882
 630  1293.306
 631  1303.643
 632  1348.961
 633  1456.119
 634  1587.578
 635  1590.143
 636  1410.838
 637  1428.414
 638  1277.811
 639  1000.785
 640  943.0955
 641  979.3359
 642  978.5608
 643  801.3963
 644  717.5776
 645  903.5443
 646  797.8821
 647  730.1266
 648  632.4993
 649  809.6163
 650  788.9172
 651  804.0527
 652  849.3782
 653  772.7769
 654  560.3267
 655  544.9731
 656  842.3491
 657  858.2905
 658  841.9286
 659  857.4637
 660  920.1121
 661  764.0884
 662  738.6789
 663  760.9405
 664  791.6239
 665  763.288
 666  739.0047
 667  721.1057
 668  647.8939
 669  712.7681
 670  772.93
 671  796.1291
 672  564.9665
 673  626.9323
 674  742.5867
 675  840.8101
 676  619.067
 677  613.2943
 678  845.3373
 679  856.6761
 680  650.2181
 681  598.2006
 682  680.1169
 683  699.0377
 684  601.7288
 685  647.1517
 686  747.9702
 687  662.9882
 688  731.8568
 689  685.7095
 690  674.0173
 691  666.4965
 692  764.5763
 693  840.3712
 694  749.0377
 695  723.6028
 696  730.3937
 697  731.9598
 698  579.8059
 699  534.9908
 700  549.5657
 701  582.8619
 702  620.1893
 703  632.4211
 704  670.7019
 705  759.8315
 706  761.3923
 707  840.9923
 708  750.5115
 709  727.4092
 710  791.8698
 711  753.7152
 712  693.4399
 713  569.42
 714  629.1144
 715  782.8445
 716  723.761
 717  641.2682
 718  581.8051
 719  725.6199
 720  797.6305
 721  766.2167
 722  723.4725
 723  696.9156
 724  697.7998
 725  634.9183
 726  658.5658
 727  652.9266
 728  610.0655
 729  713.0571
 730  821.0318
 731  912.3356
 732  863.0232
 733  781.1619
 734  753.5416
 735  634.254
 736  738.3801
 737  801.5734
 738  957.4097
 739  894.5256
 740  904.5364
 741  804.6489
 742  837.274
 743  714.8375
 744  826.2109
 745  842.4412
 746  956.917
 747  1022.772
 748  1028.808
 749  1029.067
 750  832.6312
 751  795.7013
 752  595.3909
 753  754.1665
 754  576.8228
 755  610.5512
 756  637.8467
 757  675.3173
 758  583.5878
 759  413.2621
 760  587.0376
 761  659.2059
 762  719.8458
 763  803.3497
 764  932.3516
 765  964.9803
 766  885.7087
 767  862.501
 768  954.8777
 769  892.5899
 770  1002.011
 771  968.2595
 772  921.7836
 773  682.6565
 774  625.5855
 775  794.2139
 776  715.6525
 777  630.0905
 778  703.7608
 779  888.7514
 780  862.7761
 781  537.2604
 782  555.7273
 783  725.1608
 784  842.9004
 785  908.3388
 786  917.182
 787  828.48
 788  769.727
 789  853.4719
 790  961.0011
 791  794.4024
 792  773.0956
 793  873.4005
 794  882.9132
 795  838.4014
 796  850.413
 797  1050.043
 798  967.8615
 799  999.6364
 800  986.4645
 801  943.3436
 802  755.3356
 803  738.2245
 804  841.8037
 805  890.3583
 806  789.4974
 807  894.6367
 808  851.7869
 809  744.2161
 810  616.7786
 811  631.7689
 812  729.273
 813  703.15
 814  768.6293
 815  909.4396
 816  879.085
 817  868.5804
 818  898.8588
 819  1018.248
 820  821.9333
 821  850.9403
 822  858.3227
 823  861.9336
 824  650.5927
 825  644.5052
 826  742.7918
 827  734.8837
 828  720.3999
 829  683.9307
 830  757.2588
 831  817.5299
 832  806.4482
 833  796.9062
 834  776.6537
 835  706.5828
 836  830.2291
 837  818.4393
 838  861.0526
 839  811.704
 840  855.85
 841  826.7361
 842  702.1618
 843  759.6533
 844  774.4317
 845  888.3995
 846  819.3986
 847  763.0663
 848  805.999
 849  906.7142
 850  919.5493
 851  736.2995
 852  734.6649
 853  818.1382
 854  775.6276
 855  708.7832
 856  846.6579
 857  900.5123
 858  919.4467
 859  697.6685
 860  686.191
 861  555.2337
 862  562.6412
 863  637.6973
 864  728.5831
 865  809.3177
 866  815.4686
 867  938.2062
 868  1010.908
 869  907.2065
 870  842.3994
 871  743.6108
 872  857.2835
 873  718.1083
 874  732.8577
 875  706.4219
 876  669.3267
 877  618.1119
 878  570.2696
 879  756.2279
 880  900.0944
 881  845.4664
 882  829.2642
 883  770.2165
 884  833.7637
 885  839.6713
 886  798.3094
 887  708.0346
 888  593.6934
 889  558.9276
 890  594.7526
 891  651.8845
 892  753.1936
 893  878.7926
 894  802.2722
 895  664.9624
 896  560.1514
 897  624.2586
 898  677.9452
 899  684.8541
 900  570.8925
 901  637.6315
 902  599.6462
 903  795.6877
 904  714.5937
 905  668.6656
 906  648.9456
 907  629.4292
 908  763.2423
 909  814.5113
 910  733.7608
 911  786.9659
 912  790.3275
 913  853.4937
 914  699.5012
 915  729.6432
 916  730.5126
 917  686.7169
 918  590.9179
 919  721.7225
 920  888.9484
 921  866.2178
 922  704.9484
 923  705.9466
 924  645.6363
 925  634.3757
 926  647.9499
 927  858.7072
 928  744.8397
 929  650.1914
 930  673.5228
 931  979.8557
 932  914.4758
 933  818.5892
 934  685.4128
 935  802.288
 936  705.079
 937  636.6337
 938  671.2191
 939  654.7718
 940  706.5536
 941  693.3785
 942  727.3005
 943  525.0217
 944  443.3088
 945  501.771
 946  635.5754
 947  590.2702
 948  561.127
 949  734.586
 950  890.6047
 951  858.5081
 952  833.8569
 953  809.0773
 954  782.9484
 955  759.7726
 956  749.8779
 957  713.514
 958  581.231
 959  495.7538
 960  498.4337
 961  447.9653
 962  412.1685
 963  497.9728
 964  711.8521
 965  804.5119
 966  795.9591
 967  785.8735
 968  800.6562
 969  655.5226
 970  600.0939
 971  802.0584
 972  827.3672
 973  798.0679
 974  600.4174
 975  696.1066
 976  803.5387
 977  873.7953
 978  903.1211
 979  903.8779
 980  809.2338
 981  811.0889
 982  777.3456
 983  661.9979
 984  487.6523
 985  567.4849
 986  699.1678
 987  669.8232
 988  605.0062
 989  703.9136
 990  742.888
 991  718.761
 992  508.1473
 993  421.998
 994  507.1364
 995  627.1938
 996  706.8157
 997  653.2458
 998  756.0537
 999  709.3351
1000  888.882
1001  896.3673
1002  817.2557
1003  758.3885
1004  733.3342
1005  797.3984
1006  652.065
1007  642.9133
1008  673.1965
1009  804.1458
1010  957.5672
1011  1055.327
1012  1002.727
1013  823.5851
1014  728.536
1015  832.7746
1016  898.7437
1017  849.9977
1018  720.9101
1019  632.0729
1020  514.5391
1021  519.0227
1022  498.2236
1023  553.3267
