# Input file       =  1193620941.150686_cleaned.dat
# Candidate        =  PSR_0332+5434
# Telescope        =  AR
# Epoch_topo       =  58059.057409151457
# Epoch_bary       =  N/A
# T_sample         =  0.002
# Data Folded      =  7340032
# Data Avg         =  0.0476061196178698
# Data StdDev      =  2.59628345400373 
# Profile Bins     =  512
# Profile Avg      =  682.477117330339 
# Profile StdDev   =  310.860901242625 
# Reduced chi-sqr  =  1.092
# Prob(Noise)      <  0.0742   (~1.4 sigma)
# P_topo (ms)      =  714.497015909201  +/- 0.000179
# P'_topo (s/s)    =  -0                +/- 9.43e-11
# P''_topo (s/s^2) =  0                 +/- 4.16e-14
# P_bary (ms)      =  N/A
# P'_bary (s/s)    =  N/A
# P''_bary (s/s^2) =  N/A
# P_orb (s)        =  N/A
# asin(i)/c (s)    =  N/A
# eccentricity     =  N/A
# w (rad)          =  N/A
# T_peri           =  N/A
######################################################
   0  714.7575
   1  661.3406
   2  913.0511
   3  900.6328
   4  547.2546
   5  810.5475
   6  477.2375
   7  507.7806
   8  551.504
   9  586.3738
  10  192.586
  11  224.5415
  12  467.1336
  13  879.5873
  14  745.5151
  15  375.5626
  16  826.1008
  17  689.3956
  18  336.3535
  19  383.013
  20  630.54
  21  596.8032
  22  413.8004
  23  984.8939
  24  973.4161
  25  704.8945
  26  575.4392
  27  679.0378
  28  352.0532
  29  684.4993
  30  678.3948
  31  612.3165
  32  563.7893
  33  817.2309
  34  706.9636
  35  766.8385
  36  835.7436
  37  728.1241
  38  700.0835
  39  720.8431
  40  859.5833
  41  956.7071
  42  952.4461
  43  838.2731
  44  580.5776
  45  743.1996
  46  606.4323
  47  831.4403
  48  829.6446
  49  743.2064
  50  584.4189
  51  577.6648
  52  559.0145
  53  663.8468
  54  710.5751
  55  669.5603
  56  644.3919
  57  833.5997
  58  596.6596
  59  524.058
  60  634.2667
  61  414.1249
  62  426.6986
  63  596.5989
  64  903.5259
  65  520.763
  66  413.1768
  67  802.1709
  68  767.6093
  69  690.8563
  70  706.3147
  71  608.1156
  72  262.0383
  73  910.472
  74  760.925
  75  462.654
  76  602.2471
  77  581.0804
  78  323.7344
  79  542.1748
  80  1144.667
  81  614.6308
  82  780.6719
  83  887.9965
  84  764.2202
  85  544.0538
  86  830.853
  87  781.2996
  88  473.8286
  89  394.0649
  90  709.8771
  91  594.7588
  92  539.1651
  93  561.204
  94  670.2536
  95  897.9446
  96  871.1972
  97  753.3821
  98  813.0702
  99  780.7039
 100  905.1494
 101  1067.503
 102  946.185
 103  622.008
 104  838.3256
 105  998.5798
 106  892.6562
 107  793.3868
 108  462.8976
 109  845.3029
 110  761.6099
 111  836.7627
 112  682.8113
 113  458.8839
 114  606.6121
 115  638.41
 116  345.684
 117  545.7733
 118  589.1912
 119  668.202
 120  847.3584
 121  799.9728
 122  708.7001
 123  742.8625
 124  641.597
 125  630.6128
 126  508.4019
 127  216.2684
 128  441.893
 129  539.655
 130  731.5544
 131  699.6661
 132  696.4518
 133  226.4041
 134  639.5284
 135  879.748
 136  1095.81
 137  1117.55
 138  1022.546
 139  650.6816
 140  623.6463
 141  809.5033
 142  698.8396
 143  493.1985
 144  588.0953
 145  570.1653
 146  371.241
 147  586.0773
 148  570.9202
 149  578.4312
 150  493.1076
 151  382.4395
 152  782.6386
 153  884.5843
 154  859.0001
 155  487.5269
 156  330.86
 157  306.2485
 158  475.358
 159  662.2643
 160  875.9937
 161  498.4555
 162  377.7878
 163  592.1718
 164  783.3878
 165  854.1048
 166  627.5662
 167  716.08
 168  968.0545
 169  755.5585
 170  1066.615
 171  1291.854
 172  1315.507
 173  745.4016
 174  588.7461
 175  589.8069
 176  694.1973
 177  1041.895
 178  1434.555
 179  1829.704
 180  1916.836
 181  2053.147
 182  1918.991
 183  1333.238
 184  1115.9
 185  501.902
 186  275.9077
 187  324.539
 188  510.1648
 189  566.3345
 190  622.4367
 191  566.5696
 192  695.8288
 193  695.2771
 194  947.4555
 195  827.9847
 196  613.425
 197  789.1413
 198  588.4213
 199  301.171
 200  833.8885
 201  933.8457
 202  654.1709
 203  489.8518
 204  568.1094
 205  292.7956
 206  256.8876
 207  647.7571
 208  670.512
 209  464.1039
 210  651.9736
 211  815.2667
 212  596.1891
 213  809.1807
 214  603.2113
 215  726.7109
 216  504.5843
 217  450.5912
 218  765.2327
 219  848.2178
 220  964.9417
 221  895.2619
 222  598.4686
 223  635.1094
 224  625.5794
 225  695.8322
 226  550.1675
 227  648.4138
 228  972.8836
 229  789.9189
 230  584.9552
 231  497.1738
 232  702.7713
 233  687.3687
 234  632.4811
 235  784.4349
 236  817.3417
 237  928.7061
 238  987.249
 239  654.4919
 240  510.4443
 241  962.5181
 242  728.0905
 243  813.7087
 244  867.0742
 245  607.5928
 246  804.7421
 247  776.0045
 248  548.756
 249  863.3541
 250  705.4575
 251  954.4308
 252  1127.911
 253  587.9703
 254  364.7628
 255  287.7473
 256  426.9511
 257  580.6494
 258  780.9482
 259  832.257
 260  649.3881
 261  643.1146
 262  551.104
 263  485.834
 264  494.1684
 265  510.8949
 266  412.5412
 267  631.2441
 268  857.4474
 269  1020.827
 270  1173.209
 271  881.1737
 272  699.69
 273  488.7265
 274  756.1493
 275  898.4232
 276  878.1638
 277  896.3589
 278  900.1187
 279  729.0988
 280  704.3095
 281  674.8713
 282  1016.22
 283  1179.29
 284  886.2322
 285  724.6273
 286  907.9224
 287  936.2985
 288  703.3253
 289  462.5657
 290  646.3081
 291  843.2786
 292  824.8068
 293  591.9183
 294  930.8442
 295  542.0378
 296  427.6178
 297  763.2144
 298  524.7357
 299  429.8872
 300  368.4989
 301  459.0915
 302  568.811
 303  719.5539
 304  605.7977
 305  399.4237
 306  570.6979
 307  724.5045
 308  737.2101
 309  370.4156
 310  524.0678
 311  849.1758
 312  1061.16
 313  717.5341
 314  650.7271
 315  781.6899
 316  912.6214
 317  720.1949
 318  503.9431
 319  718.1008
 320  869.7275
 321  483.2941
 322  541.2874
 323  702.2293
 324  801.1848
 325  773.7704
 326  635.1431
 327  588.0564
 328  580.6946
 329  449.4936
 330  610.6342
 331  855.3326
 332  773.569
 333  717.4254
 334  467.2672
 335  407.5773
 336  363.7471
 337  614.4181
 338  876.447
 339  624.4129
 340  423.187
 341  338.9567
 342  46.26096
 343  363.5991
 344  674.7162
 345  766.319
 346  865.1356
 347  979.3587
 348  1202.281
 349  1063.877
 350  938.1346
 351  777.4519
 352  753.4927
 353  875.6552
 354  680.8193
 355  625.6441
 356  828.3934
 357  418.4449
 358  530.8044
 359  583.0175
 360  713.3756
 361  659.8405
 362  578.4951
 363  660.1925
 364  648.6472
 365  868.2065
 366  655.4143
 367  361.0581
 368  707.2592
 369  648.5732
 370  565.9562
 371  781.1422
 372  758.9656
 373  689.8229
 374  655.058
 375  674.3151
 376  733.0449
 377  456.5117
 378  809.7689
 379  1086.842
 380  753.201
 381  574.8541
 382  745.9952
 383  653.4594
 384  525.8325
 385  568.0009
 386  325.1818
 387  510.6158
 388  612.1314
 389  626.9637
 390  567.6913
 391  635.7454
 392  704.2826
 393  544.819
 394  656.4847
 395  663.3176
 396  795.5057
 397  1046.739
 398  1144.553
 399  956.497
 400  679.1492
 401  849.8311
 402  841.3773
 403  636.9412
 404  813.458
 405  753.4923
 406  896.6418
 407  300.7835
 408  449.5405
 409  530.5795
 410  456.1685
 411  591.905
 412  890.6981
 413  931.9137
 414  675.8174
 415  679.4528
 416  955.8432
 417  547.2698
 418  455.1145
 419  584.8414
 420  720.0887
 421  797.4526
 422  1093.339
 423  999.2986
 424  971.4888
 425  1151.719
 426  795.8425
 427  364.862
 428  701.1958
 429  774.5679
 430  897.7443
 431  797.0681
 432  422.808
 433  535.5301
 434  558.7916
 435  707.9002
 436  895.8062
 437  819.3741
 438  1004.2
 439  939.1486
 440  726.2744
 441  617.791
 442  868.268
 443  654.6087
 444  625.136
 445  754.8535
 446  668.2084
 447  765.8464
 448  721.4052
 449  641.6974
 450  408.7263
 451  611.0858
 452  813.931
 453  487.7783
 454  130.783
 455  77.67487
 456  175.1724
 457  286.1432
 458  589.4877
 459  498.0951
 460  644.6105
 461  586.6766
 462  653.7105
 463  715.1763
 464  585.6651
 465  520.6009
 466  730.0636
 467  819.4414
 468  436.6117
 469  422.7217
 470  624.6665
 471  599.3279
 472  684.3247
 473  836.4092
 474  590.3754
 475  540.5538
 476  328.509
 477  432.4757
 478  249.4715
 479  248.8855
 480  455.1247
 481  331.3896
 482  284.9721
 483  320.1396
 484  440.6071
 485  661.2909
 486  679.3956
 487  703.5563
 488  527.3759
 489  490.4398
 490  651.9156
 491  486.5101
 492  454.6143
 493  333.696
 494  321.0592
 495  764.0101
 496  750.6951
 497  218.2902
 498  461.2169
 499  612.0772
 500  493.4902
 501  506.1461
 502  943.0006
 503  958.1489
 504  977.8679
 505  1105.31
 506  890.7227
 507  770.5995
 508  905.5942
 509  626.7238
 510  601.4676
 511  585.5945
