# Input file       =  1193261429.141686_cleaned.dat
# Candidate        =  PSR_0332+5434
# Telescope        =  AR
# Epoch_topo       =  58054.896390528775
# Epoch_bary       =  N/A
# T_sample         =  0.002
# Data Folded      =  7340032
# Data Avg         =  0.0910327978667087
# Data StdDev      =  3.23379848292529 
# Profile Bins     =  512
# Profile Avg      =  1305.03042869838 
# Profile StdDev   =  387.192511391225 
# Reduced chi-sqr  =  0.887
# Prob(Noise)      <  0.969   (~0.0 sigma)
# P_topo (ms)      =  714.492914306646  +/- 0.000276
# P'_topo (s/s)    =  -0                +/- 1.46e-10
# P''_topo (s/s^2) =  0                 +/- 6.44e-14
# P_bary (ms)      =  N/A
# P'_bary (s/s)    =  N/A
# P''_bary (s/s^2) =  N/A
# P_orb (s)        =  N/A
# asin(i)/c (s)    =  N/A
# eccentricity     =  N/A
# w (rad)          =  N/A
# T_peri           =  N/A
######################################################
   0  809.5036
   1  1016.595
   2  1230.527
   3  1214.233
   4  1129.691
   5  1335.39
   6  1613.86
   7  1974.294
   8  1650.173
   9  1507.394
  10  1254.587
  11  1405.224
  12  1205.555
  13  1243.545
  14  1213.975
  15  1523.794
  16  1327.057
  17  1359.012
  18  1384.791
  19  1488.229
  20  1548.449
  21  1245.638
  22  1172.104
  23  1643.559
  24  1057.708
  25  977.433
  26  1377.581
  27  1292.842
  28  1056.52
  29  1131.87
  30  1342.952
  31  1258.409
  32  1308.292
  33  1325.86
  34  1162.973
  35  1291.685
  36  1421.058
  37  1553.615
  38  1428.776
  39  1447.385
  40  1307.042
  41  1352.33
  42  1195.841
  43  959.8627
  44  942.6541
  45  827.5004
  46  957.6365
  47  1208.015
  48  882.8245
  49  966.6052
  50  991.5344
  51  1323.81
  52  1311.987
  53  1364.926
  54  1274.235
  55  1303.372
  56  1443.926
  57  1220.618
  58  1320.432
  59  1176.528
  60  1099.607
  61  1301.059
  62  1051.618
  63  1205.963
  64  1244.188
  65  1287.746
  66  1504.482
  67  1128.7
  68  1320.22
  69  1402.526
  70  1349.687
  71  1782.716
  72  1545.548
  73  1534.162
  74  1328.747
  75  1354.166
  76  1511.562
  77  1291.245
  78  1497.564
  79  1759.322
  80  1460.731
  81  1166.79
  82  1107.65
  83  1249.982
  84  1649.446
  85  1745.864
  86  1502.73
  87  1687.374
  88  1557.729
  89  1407.146
  90  1376.024
  91  1527.242
  92  1358.474
  93  1355.559
  94  1447.806
  95  1614.735
  96  1245.448
  97  1249.361
  98  1125.664
  99  1465.928
 100  1402.386
 101  1697.161
 102  1704.2
 103  1509.948
 104  1182.227
 105  1140.122
 106  1430.102
 107  1242.36
 108  1078.979
 109  993.4437
 110  1123.748
 111  943.778
 112  835.1958
 113  1225.402
 114  1145.883
 115  1321.95
 116  847.2916
 117  1120.757
 118  1273.182
 119  1336.19
 120  868.4586
 121  878.5269
 122  1250.831
 123  1238.59
 124  964.3058
 125  934.9662
 126  837.2773
 127  970.6633
 128  922.6679
 129  943.8828
 130  853.7291
 131  793.7233
 132  974.2585
 133  1024.644
 134  1556.372
 135  1538.659
 136  1227.215
 137  969.4077
 138  1280.858
 139  1435.792
 140  1275.272
 141  1349.781
 142  1473.399
 143  1183.478
 144  1122.926
 145  1005.679
 146  906.6848
 147  1281.956
 148  1414.165
 149  1270.561
 150  1200.898
 151  1104.668
 152  1237.584
 153  1354.836
 154  1069.084
 155  963.2901
 156  1030.641
 157  1087.169
 158  1281.612
 159  1348.516
 160  1289.716
 161  1390.914
 162  1273.222
 163  1505.722
 164  1351.135
 165  1171.037
 166  1382.574
 167  1720.627
 168  1550.877
 169  1220.379
 170  1225.238
 171  1339.703
 172  1233.88
 173  940.8088
 174  785.722
 175  885.7017
 176  1008.766
 177  936.1394
 178  822.2617
 179  1198.861
 180  1367.08
 181  1313.732
 182  1141.839
 183  1150.74
 184  1194.699
 185  1326.99
 186  1033.915
 187  1046.181
 188  1001.423
 189  1008.319
 190  1088.395
 191  1359.11
 192  1410.879
 193  909.7623
 194  1003.266
 195  1181.894
 196  1384.326
 197  1049.195
 198  879.8768
 199  1280.763
 200  1506.188
 201  1516.296
 202  1276.77
 203  1179.847
 204  1221.739
 205  1245.235
 206  1242.321
 207  1302.515
 208  1370.641
 209  1264.819
 210  1315.196
 211  1435.243
 212  1192.974
 213  1446.417
 214  1539.153
 215  1326.568
 216  1523.642
 217  1498.639
 218  1656.357
 219  1518.268
 220  1149.678
 221  1174.004
 222  978.1454
 223  795.1697
 224  1393.435
 225  1332.664
 226  1434.279
 227  1275.643
 228  1310.573
 229  1001.334
 230  1090.714
 231  1170.939
 232  1421.164
 233  1549.943
 234  1584.82
 235  1298.145
 236  922.2804
 237  968.0447
 238  1035.806
 239  1133.578
 240  1323.506
 241  1438.301
 242  1210.444
 243  872.7291
 244  1171.156
 245  1511.25
 246  1818.32
 247  1668.515
 248  1758.124
 249  1727.768
 250  1681.407
 251  1263.308
 252  1220.387
 253  1326.598
 254  1374.338
 255  1239.999
 256  1245.774
 257  1329.097
 258  1252.615
 259  1440.178
 260  1291.51
 261  1411.279
 262  1422.033
 263  1368.126
 264  1228.498
 265  1249.002
 266  1159.508
 267  1308.39
 268  1195.851
 269  1091.016
 270  1250.765
 271  1157.117
 272  1236.365
 273  1260.312
 274  1356.219
 275  1259.359
 276  1094.941
 277  1443.426
 278  1718.876
 279  1758.264
 280  1842.997
 281  1663.935
 282  1372.545
 283  1318.402
 284  1495.138
 285  1302.939
 286  1075.345
 287  1453.054
 288  1573.8
 289  1312.605
 290  1192.092
 291  1526.718
 292  1378.863
 293  1588.237
 294  1662.523
 295  1289.668
 296  1260.566
 297  1153.499
 298  1219.762
 299  1592.035
 300  1457.814
 301  1443.102
 302  1804.573
 303  1828.408
 304  1636.978
 305  1173.155
 306  1567.518
 307  1511.744
 308  1548.771
 309  1356.492
 310  1527.273
 311  1586.196
 312  1932.478
 313  1637.56
 314  1934.29
 315  2361.021
 316  2639.276
 317  2878.845
 318  2693.177
 319  2569.896
 320  2167.22
 321  1574.184
 322  1737.656
 323  1745.468
 324  1339.881
 325  1239.552
 326  1513.307
 327  1210.899
 328  1615.631
 329  1649.275
 330  1455.602
 331  1251.694
 332  1330.153
 333  1330.319
 334  1196.385
 335  1239.264
 336  1097.082
 337  882.0247
 338  1092.642
 339  1146.252
 340  1154.135
 341  1311.218
 342  1262.587
 343  1277.164
 344  1370.457
 345  1358.416
 346  1267.614
 347  1357.615
 348  1263.998
 349  1177.289
 350  1259.476
 351  1465.583
 352  1327.029
 353  1558.993
 354  1240.331
 355  1232.188
 356  1662.302
 357  1736.438
 358  1489.194
 359  1694.479
 360  1431.564
 361  1045.075
 362  1222.098
 363  1173.986
 364  1255.081
 365  1184.5
 366  1226.632
 367  1261.761
 368  1137.503
 369  1117.362
 370  1270.921
 371  1278.026
 372  1418.915
 373  1541.922
 374  1386.904
 375  1480.631
 376  1209.734
 377  1460.377
 378  1635.894
 379  1340.077
 380  1390.996
 381  1420.163
 382  1085.333
 383  911.6726
 384  1128.4
 385  1413.447
 386  1410.818
 387  1028.202
 388  1305.514
 389  1474.075
 390  1184.924
 391  1093.364
 392  1260.551
 393  1190.812
 394  1125.489
 395  1220.424
 396  1388.08
 397  1062.603
 398  1033.985
 399  1327.375
 400  1411.097
 401  1335.488
 402  1133.829
 403  1229.461
 404  1327.539
 405  1589.632
 406  1677.062
 407  1357.076
 408  1490.264
 409  1522.47
 410  1379.833
 411  1325.343
 412  1316.113
 413  1561.67
 414  1230.534
 415  933.9024
 416  896.0113
 417  963.1682
 418  1106.214
 419  1234.386
 420  1179.126
 421  1104.624
 422  872.7413
 423  927.6566
 424  1212.78
 425  1568.904
 426  1598.762
 427  1374.087
 428  1283.231
 429  989.5524
 430  1189.237
 431  1125.151
 432  1023.742
 433  1222.716
 434  1498.778
 435  1147.917
 436  1130.476
 437  1339.519
 438  1298.732
 439  1282.474
 440  1457.281
 441  1405.602
 442  1611.93
 443  1687.557
 444  1385.95
 445  1197.434
 446  1450.664
 447  1460.313
 448  1564.382
 449  1640.25
 450  1808.985
 451  1625.304
 452  1807.98
 453  1907.34
 454  1492.268
 455  1504.646
 456  1489.29
 457  1083.401
 458  967.0502
 459  1381.435
 460  1203.604
 461  1105.914
 462  1175.186
 463  1191.245
 464  1402.034
 465  1141.752
 466  1122.288
 467  1096.761
 468  1175.493
 469  1279.169
 470  1308.127
 471  1467.158
 472  1300.128
 473  1213.745
 474  895.8731
 475  892.3107
 476  1240.562
 477  1394.672
 478  1241.516
 479  1212.333
 480  1102.424
 481  939.3421
 482  929.8591
 483  759.7512
 484  1087.203
 485  1053.863
 486  1173.008
 487  1252.949
 488  1158.714
 489  1176.578
 490  1147.324
 491  1386.681
 492  1560.145
 493  1389.785
 494  1428.726
 495  1192.177
 496  1172.732
 497  1291.212
 498  1110.023
 499  1017.752
 500  1316.203
 501  1383.723
 502  1517.905
 503  1384.251
 504  1405.071
 505  1320.827
 506  1417.38
 507  1101.509
 508  771.5742
 509  703.0402
 510  930.1963
 511  886.7553
