# Input file       =  1193951359.083581_cleaned.dat
# Candidate        =  PSR_0332+5434
# Telescope        =  AR
# Epoch_topo       =  58062.881690782189
# Epoch_bary       =  N/A
# T_sample         =  0.002
# Data Folded      =  7340032
# Data Avg         =  0.0577848970507539
# Data StdDev      =  2.75634023924216 
# Profile Bins     =  512
# Profile Avg      =  828.78049495439  
# Profile StdDev   =  330.024986131926 
# Reduced chi-sqr  =  1.008
# Prob(Noise)      <  0.44   (~0.1 sigma)
# P_topo (ms)      =  714.500266749858  +/- 0.000129
# P'_topo (s/s)    =  -0                +/- 6.82e-11
# P''_topo (s/s^2) =  0                 +/- 3.01e-14
# P_bary (ms)      =  N/A
# P'_bary (s/s)    =  N/A
# P''_bary (s/s^2) =  N/A
# P_orb (s)        =  N/A
# asin(i)/c (s)    =  N/A
# eccentricity     =  N/A
# w (rad)          =  N/A
# T_peri           =  N/A
######################################################
   0  617.124
   1  551.9535
   2  956.7023
   3  846.188
   4  868.7518
   5  735.4323
   6  849.4463
   7  996.2303
   8  845.4015
   9  921.8776
  10  863.9138
  11  871.4025
  12  1129.62
  13  847.926
  14  496.2938
  15  645.2537
  16  818.0037
  17  1004.519
  18  808.9553
  19  853.3456
  20  569.065
  21  938.5021
  22  760.5292
  23  639.4575
  24  875.3773
  25  820.1051
  26  742.442
  27  756.7448
  28  802.104
  29  506.9189
  30  470.2442
  31  675.8362
  32  836.0413
  33  831.4835
  34  674.4426
  35  506.869
  36  733.509
  37  701.7003
  38  1137.291
  39  836.1456
  40  414.8234
  41  762.2885
  42  746.0812
  43  473.4458
  44  621.1274
  45  1068.066
  46  791.4363
  47  811.322
  48  689.0156
  49  670.4714
  50  604.7149
  51  738.3705
  52  843.2098
  53  833.1362
  54  914.4755
  55  880.9367
  56  631.7767
  57  704.6472
  58  454.9761
  59  659.9022
  60  890.0389
  61  800.0153
  62  880.9252
  63  773.5422
  64  820.0801
  65  766.9983
  66  855.7322
  67  979.3931
  68  1013.331
  69  1008.902
  70  821.6298
  71  718.2742
  72  801.7462
  73  700.8887
  74  575.9367
  75  739.4554
  76  1091.606
  77  1083.745
  78  734.1454
  79  768.7988
  80  640.4241
  81  582.3173
  82  880.3507
  83  939.1193
  84  866.1691
  85  1076.045
  86  1297.664
  87  1136.641
  88  711.4867
  89  756.9092
  90  707.0185
  91  895.7304
  92  1023.899
  93  1443.416
  94  1871.697
  95  2262.962
  96  2309.042
  97  1924.94
  98  2056.779
  99  1260.822
 100  961.8674
 101  589.5466
 102  502.1488
 103  658.4634
 104  630.433
 105  1044.299
 106  1257.973
 107  1089.526
 108  958.7497
 109  962.3235
 110  710.4235
 111  896.5775
 112  1085.862
 113  887.4318
 114  777.1338
 115  1006.57
 116  802.4662
 117  908.5647
 118  781.8675
 119  619.6169
 120  687.316
 121  718.1166
 122  1133.794
 123  712.4606
 124  819.0784
 125  1045.907
 126  1006.757
 127  951.7138
 128  822.2518
 129  721.8193
 130  851.5809
 131  956.8743
 132  637.7494
 133  742.4792
 134  894.237
 135  977.9681
 136  946.8792
 137  964.756
 138  658.4984
 139  651.5477
 140  781.9069
 141  897.0964
 142  1227.707
 143  1010.445
 144  770.8002
 145  762.1697
 146  565.9749
 147  770.8453
 148  886.2617
 149  999.0569
 150  877.8984
 151  593.2182
 152  647.7386
 153  719.2436
 154  790.8866
 155  880.3741
 156  809.4997
 157  657.0507
 158  840.8034
 159  1105.569
 160  985.757
 161  918.1281
 162  747.5723
 163  1049.481
 164  938.4886
 165  604.2523
 166  934.862
 167  1281.539
 168  1053.322
 169  877.0679
 170  1202.152
 171  1048.575
 172  726.23
 173  852.8478
 174  1053.848
 175  958.2435
 176  852.1147
 177  819.2388
 178  734.0186
 179  596.9384
 180  409.6531
 181  738.0474
 182  876.2308
 183  869.7695
 184  900.1959
 185  857.039
 186  1006.397
 187  869.4343
 188  658.7783
 189  753.0845
 190  614.9293
 191  626.1453
 192  535.1232
 193  573.469
 194  532.6357
 195  458.0844
 196  651.4855
 197  847.1171
 198  743.9124
 199  639.8104
 200  782.3815
 201  775.7377
 202  466.9373
 203  745.1159
 204  879.061
 205  885.2112
 206  556.1476
 207  231.5344
 208  640.7877
 209  627.0103
 210  692.1424
 211  665.0613
 212  712.1445
 213  847.3088
 214  731.5068
 215  824.7242
 216  588.176
 217  795.6736
 218  1316.213
 219  1071.31
 220  857.1896
 221  847.1904
 222  853.9976
 223  984.4658
 224  686.9557
 225  966.6133
 226  946.4046
 227  926.9106
 228  920.7708
 229  529.6955
 230  557.2379
 231  433.8562
 232  518.6287
 233  718.6459
 234  952.8987
 235  953.1783
 236  653.752
 237  578.2211
 238  716.2961
 239  436.8537
 240  578.983
 241  857.7355
 242  1177.958
 243  1066.372
 244  1059.247
 245  981.6471
 246  685.0036
 247  608.5552
 248  706.4728
 249  918.2635
 250  728.4228
 251  743.5959
 252  557.7823
 253  943.3529
 254  606.3633
 255  860.0159
 256  975.1945
 257  931.8298
 258  1053.671
 259  864.8168
 260  752.8568
 261  811.0851
 262  760.3323
 263  918.3441
 264  1162.854
 265  981.5342
 266  626.3229
 267  369.6421
 268  435.1768
 269  670.0695
 270  928.8416
 271  767.8262
 272  619.9648
 273  544.642
 274  663.0792
 275  811.7697
 276  611.4176
 277  1009.537
 278  1397.237
 279  1294.249
 280  909.3361
 281  873.2895
 282  894.7714
 283  765.9839
 284  592.8954
 285  952.8364
 286  1220.028
 287  957.0339
 288  898.7184
 289  1210.368
 290  1001.608
 291  1062.849
 292  1315.265
 293  1408.563
 294  866.7061
 295  927.8658
 296  895.9645
 297  658.8387
 298  586.5861
 299  841.9354
 300  837.2848
 301  949.6685
 302  1179.89
 303  1165.9
 304  1147.783
 305  1144.365
 306  1036.885
 307  879.0714
 308  817.6904
 309  758.8178
 310  825.9102
 311  969.8058
 312  957.415
 313  1039.601
 314  1287.997
 315  1187.262
 316  1141.828
 317  1263.733
 318  1002.005
 319  741.2076
 320  867.4814
 321  892.9246
 322  830.7428
 323  1013.313
 324  1023.477
 325  608.6113
 326  406.0807
 327  525.6421
 328  634.4732
 329  926.1569
 330  885.5377
 331  590.3693
 332  804.2712
 333  839.759
 334  729.6393
 335  855.578
 336  697.6856
 337  861.9293
 338  1095.072
 339  930.9282
 340  815.7346
 341  872.585
 342  957.6731
 343  912.9217
 344  828.0408
 345  760.3574
 346  728.2458
 347  728.4544
 348  925.9849
 349  808.5179
 350  923.5616
 351  1433.775
 352  1287.111
 353  980.0983
 354  756.9013
 355  421.8984
 356  424.0338
 357  523.2791
 358  800.3164
 359  704.159
 360  723.6437
 361  963.3594
 362  871.385
 363  728.1989
 364  619.7018
 365  697.3043
 366  579.5842
 367  798.3542
 368  1224.295
 369  935.577
 370  930.5829
 371  800.6219
 372  742.2338
 373  875.4727
 374  814.2068
 375  972.7371
 376  995.8269
 377  922.9594
 378  631.4311
 379  446.1875
 380  266.2164
 381  592.5919
 382  904.7039
 383  832.9216
 384  723.3033
 385  731.0458
 386  826.2893
 387  900.9083
 388  885.1816
 389  968.1118
 390  814.8382
 391  534.3887
 392  765.8715
 393  895.7921
 394  634.7196
 395  764.7115
 396  1104.774
 397  1444.88
 398  1329.553
 399  1221.253
 400  1363.426
 401  702.1863
 402  637.9633
 403  652.9526
 404  437.2427
 405  580.2957
 406  640.6125
 407  692.6948
 408  671.3121
 409  558.8854
 410  652.963
 411  939.7481
 412  878.1573
 413  695.9977
 414  623.3336
 415  775.4966
 416  556.1685
 417  724.6869
 418  1090.344
 419  1107.35
 420  1011.119
 421  786.1879
 422  942.4523
 423  724.6977
 424  885.2773
 425  644.5099
 426  638.409
 427  659.8889
 428  918.7273
 429  628.1486
 430  438.0314
 431  575.3763
 432  766.5692
 433  748.1296
 434  791.2577
 435  605.1882
 436  377.2515
 437  272.4791
 438  676.4738
 439  856.7925
 440  697.4067
 441  603.1718
 442  777.6371
 443  983.1434
 444  877.2323
 445  552.919
 446  923.3065
 447  960.3499
 448  755.906
 449  844.663
 450  1017.612
 451  841.8564
 452  414.1456
 453  617.5591
 454  926.8404
 455  586.8275
 456  680.266
 457  1106.871
 458  837.6844
 459  723.6113
 460  801.1793
 461  956.7232
 462  1188.567
 463  1234.616
 464  970.918
 465  887.7785
 466  526.2673
 467  602.8214
 468  570.196
 469  902.2827
 470  1112.867
 471  1043.444
 472  1021.255
 473  908.775
 474  914.0665
 475  558.5494
 476  596.8974
 477  824.2645
 478  869.3778
 479  783.8903
 480  563.1737
 481  793.6896
 482  1090.828
 483  767.0652
 484  700.7921
 485  476.5522
 486  598.5183
 487  574.5423
 488  768.7331
 489  598.6509
 490  408.2784
 491  595.6545
 492  519.3867
 493  504.1123
 494  606.3981
 495  722.4502
 496  580.7799
 497  641.36
 498  760.7189
 499  907.1107
 500  740.2874
 501  992.3918
 502  1030.282
 503  812.623
 504  749.985
 505  715.2251
 506  878.8124
 507  812.7141
 508  875.3392
 509  1175.574
 510  1275.674
 511  894.5823
