# Input file       =  1193448663.162481_cleaned.dat
# Candidate        =  PSR_0332+5434
# Telescope        =  AR
# Epoch_topo       =  58057.063450954643
# Epoch_bary       =  N/A
# T_sample         =  0.002
# Data Folded      =  7340032
# Data Avg         =  0.0465385330462594
# Data StdDev      =  2.68843871475107 
# Profile Bins     =  512
# Profile Avg      =  667.204443048873 
# Profile StdDev   =  321.894930429996 
# Reduced chi-sqr  =  1.276
# Prob(Noise)      <  2.18e-05   (~4.1 sigma)
# P_topo (ms)      =  714.495194435926  +/- 0.000206
# P'_topo (s/s)    =  -0                +/- 1.08e-10
# P''_topo (s/s^2) =  0                 +/- 4.79e-14
# P_bary (ms)      =  N/A
# P'_bary (s/s)    =  N/A
# P''_bary (s/s^2) =  N/A
# P_orb (s)        =  N/A
# asin(i)/c (s)    =  N/A
# eccentricity     =  N/A
# w (rad)          =  N/A
# T_peri           =  N/A
######################################################
   0  596.7253
   1  426.8206
   2  604.2615
   3  470.4292
   4  582.8449
   5  583.1205
   6  582.4014
   7  661.7581
   8  423.0946
   9  629.6249
  10  891.5997
  11  655.0205
  12  872.9082
  13  718.5349
  14  751.4023
  15  573.2229
  16  371.8794
  17  597.9387
  18  599.6537
  19  840.0876
  20  627.8828
  21  442.8338
  22  492.636
  23  619.3104
  24  909.6645
  25  1028.26
  26  939.8329
  27  842.1993
  28  834.7292
  29  964.7128
  30  998.9921
  31  982.2091
  32  617.7215
  33  458.1481
  34  478.4559
  35  542.7075
  36  357.51
  37  476.0644
  38  603.9171
  39  530.2337
  40  279.5923
  41  452.3882
  42  577.8743
  43  276.3751
  44  260.1852
  45  316.8924
  46  548.5156
  47  997.4028
  48  1162.8
  49  1151.509
  50  1083.958
  51  1051.425
  52  810.149
  53  881.7193
  54  833.1533
  55  808.7635
  56  817.7275
  57  885.6602
  58  983.1834
  59  692.2297
  60  650.2181
  61  602.2325
  62  689.3352
  63  623.7639
  64  533.7473
  65  495.2089
  66  604.3261
  67  810.9006
  68  684.3638
  69  605.2003
  70  835.9889
  71  829.1009
  72  402.1042
  73  429.4205
  74  635.7608
  75  540.5142
  76  853.1354
  77  1069.88
  78  898.6683
  79  665.2808
  80  376.5559
  81  514.4821
  82  506.9901
  83  400.9854
  84  600.6834
  85  739.0826
  86  792.8564
  87  767.6235
  88  1015.492
  89  656.2263
  90  708.1925
  91  897.2391
  92  885.848
  93  967.5365
  94  601.8348
  95  689.0338
  96  636.0032
  97  352.0825
  98  801.9597
  99  890.9875
 100  780.3293
 101  406.1581
 102  473.0575
 103  719.8932
 104  623.1563
 105  805.53
 106  750.5771
 107  827.5631
 108  828.5187
 109  811.3754
 110  462.6935
 111  125.5536
 112  474.0439
 113  758.6264
 114  458.0259
 115  436.8494
 116  388.1237
 117  483.6165
 118  379.919
 119  482.2047
 120  600.9219
 121  716.7271
 122  989.6917
 123  997.5023
 124  537.7327
 125  566.7768
 126  659.3037
 127  817.1339
 128  818.6244
 129  819.7891
 130  561.5912
 131  623.7972
 132  632.0023
 133  582.2628
 134  539.4709
 135  613.1901
 136  879.5391
 137  1066.688
 138  1152.825
 139  963.22
 140  548.2611
 141  400.1057
 142  725.6285
 143  522.7125
 144  556.6329
 145  361.5701
 146  461.2524
 147  477.805
 148  742.3543
 149  491.8894
 150  435.5
 151  732.7604
 152  760.7247
 153  510.6052
 154  307.2849
 155  269.02
 156  352.1989
 157  369.0741
 158  640.9967
 159  481.3335
 160  398.297
 161  391.387
 162  96.69094
 163  210.4125
 164  461.0945
 165  732.6959
 166  686.0541
 167  606.471
 168  601.5561
 169  479.6122
 170  631.7429
 171  435.9967
 172  706.6674
 173  725.2543
 174  409.0448
 175  459.4088
 176  334.6029
 177  511.7686
 178  808.5083
 179  1058.18
 180  907.8552
 181  701.032
 182  763.1108
 183  726.332
 184  302.028
 185  595.3679
 186  368.6409
 187  251.4314
 188  320.0815
 189  586.793
 190  240.6332
 191  460.897
 192  705.5791
 193  697.3351
 194  279.2502
 195  425.7066
 196  636.9117
 197  580.7567
 198  639.4515
 199  668.165
 200  776.0688
 201  443.1609
 202  465.9718
 203  415.3235
 204  591.4529
 205  390.8875
 206  498.2633
 207  655.6024
 208  822.3582
 209  643.2119
 210  653.001
 211  712.3154
 212  736.168
 213  772.5058
 214  890.305
 215  477.2656
 216  716.7887
 217  882.9449
 218  933.6013
 219  683.8189
 220  606.3475
 221  802.2538
 222  672.625
 223  616.6541
 224  522.5452
 225  493.7699
 226  331.3255
 227  347.7189
 228  664.2866
 229  577.4595
 230  648.0911
 231  895.1575
 232  604.5189
 233  789.1265
 234  715.9575
 235  581.0386
 236  512.7656
 237  528.3425
 238  621.7649
 239  872.2311
 240  567.7358
 241  346.7664
 242  548.8603
 243  847.5726
 244  929.7349
 245  865.7046
 246  658.3074
 247  323.7817
 248  515.9595
 249  1040.523
 250  1046.346
 251  1103.532
 252  905.1321
 253  748.3684
 254  615.5582
 255  403.2671
 256  697.9249
 257  864.7614
 258  689.1346
 259  576.9395
 260  60.12548
 261  220.5345
 262  684.2271
 263  777.0614
 264  1206.298
 265  709.8394
 266  751.6325
 267  739.5735
 268  562.3301
 269  391.9037
 270  697.0156
 271  808.9751
 272  355.2164
 273  724.7275
 274  1241.939
 275  1026.012
 276  439.7183
 277  638.9423
 278  924.4359
 279  597.4837
 280  641.313
 281  844.4987
 282  719.8287
 283  647.9095
 284  743.0758
 285  700.5536
 286  462.3677
 287  434.8483
 288  608.5912
 289  683.7213
 290  636.6302
 291  472.6149
 292  718.5572
 293  473.5585
 294  303.0656
 295  315.8051
 296  231.3257
 297  547.6456
 298  633.0526
 299  898.2037
 300  969.5803
 301  747.322
 302  167.8306
 303  421.4815
 304  444.9781
 305  766.3905
 306  834.1778
 307  842.8226
 308  534.9396
 309  643.6035
 310  715.5613
 311  672.7484
 312  767.7551
 313  820.0703
 314  1201.09
 315  2010.133
 316  2427.788
 317  2351.832
 318  2114.977
 319  1663.896
 320  1042.354
 321  616.905
 322  593.8688
 323  601.4949
 324  954.1282
 325  732.3556
 326  554.0097
 327  506.3475
 328  608.9489
 329  578.5945
 330  747.4868
 331  798.3304
 332  881.3629
 333  629.7739
 334  678.5412
 335  735.8077
 336  541.0072
 337  362.2216
 338  430.7387
 339  517.6855
 340  662.4075
 341  346.4756
 342  195.7659
 343  672.649
 344  834.9786
 345  652.3492
 346  673.6565
 347  935.5681
 348  730.3715
 349  350.4572
 350  482.9193
 351  829.7844
 352  671.2639
 353  514.4117
 354  374.1807
 355  52.31263
 356  514.3893
 357  826.5637
 358  626.7275
 359  580.6779
 360  652.4049
 361  452.1307
 362  338.1115
 363  765.8304
 364  946.3546
 365  546.9442
 366  458.7768
 367  358.2309
 368  777.2052
 369  931.9127
 370  528.0916
 371  657.59
 372  698.8798
 373  524.058
 374  359.3426
 375  505.4983
 376  453.7962
 377  627.9633
 378  525.0951
 379  466.114
 380  464.5
 381  757.5858
 382  729.9795
 383  854.4169
 384  866.0226
 385  606.5453
 386  878.9793
 387  300.0602
 388  441.2018
 389  392.3541
 390  491.3839
 391  839.2005
 392  755.665
 393  786.809
 394  1046.871
 395  1095.812
 396  917.0182
 397  779.0389
 398  680.3728
 399  672.4061
 400  701.847
 401  607.6259
 402  835.4471
 403  689.6671
 404  718.0852
 405  782.1869
 406  614.6179
 407  863.1267
 408  983.9149
 409  580.7733
 410  743.5129
 411  1147.268
 412  950.244
 413  1073.567
 414  884.5825
 415  546.1166
 416  259.5505
 417  404.7401
 418  557.9836
 419  402.2705
 420  225.9849
 421  647.275
 422  1128.763
 423  966.1755
 424  793.0888
 425  750.2397
 426  889.4203
 427  1026.449
 428  1098.736
 429  915.2668
 430  549.9902
 431  586.6794
 432  816.0916
 433  748.9911
 434  664.6739
 435  620.6826
 436  834.382
 437  870.9648
 438  909.3755
 439  1168.848
 440  1043.404
 441  703.0062
 442  885.7472
 443  1150.354
 444  907.4354
 445  562.5679
 446  882.4484
 447  1222.1
 448  939.0963
 449  1080.617
 450  718.6812
 451  426.5888
 452  645.3517
 453  1004.565
 454  1006.036
 455  912.9623
 456  1052.882
 457  831.3715
 458  548.4329
 459  415.6358
 460  499.2157
 461  233.4751
 462  605.2899
 463  894.2242
 464  646.3687
 465  752.4728
 466  623.27
 467  866.4866
 468  520.0816
 469  371.6271
 470  351.5771
 471  314.8766
 472  736.1069
 473  724.6461
 474  725.1453
 475  790.87
 476  741.9025
 477  306.6063
 478  309.4624
 479  400.9689
 480  100.9807
 481  266.866
 482  438.0819
 483  629.0513
 484  465.192
 485  581.4886
 486  803.1776
 487  780.8484
 488  643.1666
 489  710.2736
 490  375.372
 491  320.1687
 492  701.9069
 493  917.4666
 494  723.2999
 495  917.6848
 496  862.0855
 497  444.7655
 498  229.0656
 499  431.7287
 500  652.7889
 501  529.3754
 502  344.2893
 503  762.9648
 504  577.7274
 505  726.6342
 506  937.3437
 507  615.1879
 508  385.5617
 509  740.0331
 510  631.217
 511  945.4276
