# Input file       =  1193606032.151142_cleaned.dat
# Candidate        =  PSR_0332+5434
# Telescope        =  AR
# Epoch_topo       =  58058.884851286362
# Epoch_bary       =  N/A
# T_sample         =  0.002
# Data Folded      =  7340032
# Data Avg         =  0.0726851671154562
# Data StdDev      =  2.72768542884925 
# Profile Bins     =  512
# Profile Avg      =  1042.0255449244  
# Profile StdDev   =  326.594058676783 
# Reduced chi-sqr  =  1.248
# Prob(Noise)      <  0.000108   (~3.7 sigma)
# P_topo (ms)      =  714.496524180198  +/- 0.000182
# P'_topo (s/s)    =  -0                +/- 9.6e-11
# P''_topo (s/s^2) =  0                 +/- 4.24e-14
# P_bary (ms)      =  N/A
# P'_bary (s/s)    =  N/A
# P''_bary (s/s^2) =  N/A
# P_orb (s)        =  N/A
# asin(i)/c (s)    =  N/A
# eccentricity     =  N/A
# w (rad)          =  N/A
# T_peri           =  N/A
######################################################
   0  671.3839
   1  976.202
   2  1249.34
   3  1187.374
   4  791.2062
   5  852.027
   6  1060.265
   7  1000.555
   8  988.1058
   9  1138.806
  10  1077.13
  11  983.9381
  12  1095.022
  13  1132.059
  14  913.8658
  15  995.1426
  16  835.2672
  17  601.1891
  18  797.7188
  19  925.3423
  20  1097.672
  21  1099.38
  22  1267.702
  23  1214.798
  24  1092.763
  25  587.432
  26  724.9113
  27  756.2757
  28  841.2219
  29  986.5895
  30  1346.947
  31  1336.793
  32  971.7174
  33  1184.712
  34  958.0278
  35  1012.877
  36  904.5829
  37  958.9551
  38  755.702
  39  1090.032
  40  1472.987
  41  1307.895
  42  1293.133
  43  905.2014
  44  816.2568
  45  998.9546
  46  1073.783
  47  1114.001
  48  1391.608
  49  931.0336
  50  606.9399
  51  1009.268
  52  1340.958
  53  1103.158
  54  1167.26
  55  1440.414
  56  1205.003
  57  827.78
  58  855.2551
  59  952.0388
  60  996.2044
  61  874.2993
  62  820.1866
  63  1133.252
  64  1155.201
  65  1094.284
  66  990.5447
  67  927.9197
  68  794.9306
  69  647.7736
  70  952.2466
  71  883.9263
  72  905.4208
  73  952.8854
  74  1138.147
  75  678.0035
  76  682.9071
  77  810.8138
  78  813.7413
  79  919.3455
  80  977.1945
  81  911.6948
  82  1078.922
  83  1182.469
  84  881.6485
  85  1113.24
  86  1018.834
  87  1137.018
  88  1071.254
  89  532.6733
  90  878.2225
  91  1111.696
  92  1354.165
  93  1057.347
  94  1135.496
  95  801.9949
  96  718.7676
  97  831.2836
  98  483.653
  99  749.7312
 100  721.0145
 101  1114.263
 102  990.7918
 103  946.9737
 104  1342.32
 105  1117.402
 106  954.5124
 107  994.2157
 108  891.7784
 109  829.2239
 110  909.485
 111  1092.875
 112  900.6925
 113  526.2523
 114  705.8007
 115  984.2691
 116  841.4088
 117  746.8583
 118  645.1885
 119  508.0555
 120  669.9905
 121  861.8564
 122  707.7461
 123  824.4545
 124  905.3133
 125  936.2397
 126  801.4154
 127  1257.255
 128  1362.37
 129  899.3834
 130  894.9418
 131  877.5524
 132  1004.655
 133  644.3213
 134  526.851
 135  1162.725
 136  994.7675
 137  889.9888
 138  947.1607
 139  692.1645
 140  829.4082
 141  785.2957
 142  1011.475
 143  763.5444
 144  1034.275
 145  1129.556
 146  695.3874
 147  842.248
 148  826.0654
 149  902.9232
 150  963.9601
 151  899.8384
 152  1066.142
 153  1210.756
 154  1270.293
 155  1144.302
 156  894.11
 157  1093.125
 158  1543.998
 159  1530.131
 160  1106.477
 161  675.8522
 162  1027.239
 163  997.6222
 164  1304.764
 165  1450.478
 166  1306.731
 167  872.9713
 168  1021.793
 169  1159.015
 170  1166.009
 171  1197.722
 172  1090.866
 173  1193.64
 174  930.9483
 175  955.221
 176  1012.098
 177  993.8295
 178  1033.614
 179  905.0181
 180  981.0088
 181  951.7062
 182  868.9145
 183  814.3112
 184  919.7503
 185  500.7749
 186  730.6694
 187  1011.538
 188  1190.186
 189  1089.256
 190  1365.982
 191  1053.967
 192  852.2491
 193  999.1783
 194  824.509
 195  765.5449
 196  959.2371
 197  1150.735
 198  1236.736
 199  1172.225
 200  1057.122
 201  1026.071
 202  894.5005
 203  540.9217
 204  412.5924
 205  803.315
 206  1168.844
 207  942.786
 208  583.5815
 209  511.2604
 210  684.8489
 211  1077.699
 212  999.0816
 213  1005.937
 214  887.8616
 215  881.3052
 216  723.2148
 217  781.1429
 218  963.2649
 219  1009.09
 220  1125.71
 221  1276.35
 222  1282.294
 223  1089.73
 224  1103.642
 225  1060.115
 226  832.9864
 227  822.193
 228  879.1901
 229  756.8637
 230  1150.949
 231  1117.715
 232  879.5045
 233  1008.273
 234  1042.542
 235  1013.285
 236  1091.834
 237  1122.894
 238  998.3279
 239  1007.411
 240  1143.547
 241  864.9127
 242  572.2078
 243  990.5963
 244  1103.214
 245  749.3176
 246  835.8482
 247  567.8741
 248  665.7806
 249  947.1002
 250  744.1688
 251  1025.206
 252  1113.214
 253  1041.204
 254  786.0385
 255  795.2839
 256  1008.573
 257  911.2634
 258  750.0582
 259  641.3702
 260  590.4053
 261  819.4551
 262  832.8216
 263  1005.333
 264  939.4437
 265  1091.5
 266  990.3344
 267  1178.792
 268  1212.331
 269  1087.106
 270  557.6337
 271  694.9915
 272  1049.912
 273  1168.763
 274  1399.969
 275  1317.47
 276  1370.396
 277  1002.991
 278  1036.379
 279  784.1719
 280  824.8408
 281  728.5922
 282  841.962
 283  1120.435
 284  818.5588
 285  1101.281
 286  918.941
 287  837.3787
 288  818.4922
 289  912.0059
 290  1002.854
 291  998.1048
 292  1068.137
 293  1083.814
 294  1026.051
 295  1009.547
 296  1240.167
 297  1047.271
 298  1122.848
 299  1343.811
 300  1420.437
 301  1250.841
 302  980.9567
 303  699.411
 304  1150.579
 305  1367.506
 306  1385.541
 307  1251.457
 308  1279.323
 309  1487.399
 310  1370.623
 311  1228.366
 312  1362.152
 313  1290.52
 314  1380.007
 315  1464.182
 316  1389.333
 317  1428.426
 318  1450.037
 319  1417.949
 320  914.9891
 321  1087.28
 322  1172.073
 323  1375.362
 324  1234.344
 325  761.4401
 326  962.3762
 327  1194.912
 328  914.6778
 329  793.3691
 330  995.9403
 331  1210.913
 332  1333.709
 333  1037.364
 334  1139.799
 335  991.986
 336  1291.173
 337  1355.411
 338  1266.614
 339  1272.538
 340  1277.947
 341  1335.247
 342  1245.642
 343  1104.338
 344  960.6674
 345  887.6554
 346  1245.415
 347  1133.031
 348  953.2902
 349  1333.459
 350  1453.879
 351  1050.566
 352  923.1607
 353  1043.494
 354  1339.198
 355  1303.895
 356  1174.514
 357  1106.13
 358  995.7989
 359  1244.516
 360  1263.926
 361  1075.568
 362  1133.596
 363  1166.268
 364  1293.86
 365  1320.267
 366  948.6125
 367  1036.519
 368  1285.117
 369  1071.826
 370  1345.301
 371  1022.57
 372  827.6398
 373  833.3434
 374  1320.919
 375  1483.653
 376  1366.88
 377  1110.805
 378  1308.757
 379  1318.502
 380  1424.575
 381  1306.629
 382  1404.247
 383  1650.986
 384  1456.276
 385  1403.176
 386  1463.249
 387  1127.006
 388  984.0378
 389  1260.05
 390  1335.182
 391  1359.664
 392  1199.916
 393  1345.519
 394  1112.105
 395  865.8132
 396  939.6429
 397  1063.563
 398  1390.703
 399  1791.078
 400  1656.86
 401  1857.433
 402  2377.556
 403  2450.201
 404  2580.914
 405  2521.83
 406  2038.155
 407  1765.007
 408  1499.747
 409  1554.699
 410  1265.494
 411  1201.953
 412  1183.473
 413  1281.718
 414  1074.889
 415  1211.792
 416  1421.658
 417  1111.596
 418  1032.459
 419  1049.967
 420  1054.718
 421  1160.181
 422  671.4632
 423  810.2164
 424  1028.901
 425  897.642
 426  799.6601
 427  874.0186
 428  727.8925
 429  780.8895
 430  765.5347
 431  1141.635
 432  862.0552
 433  1018.936
 434  1157.608
 435  908.6128
 436  726.6351
 437  1173.523
 438  1296.892
 439  1187.24
 440  1146.37
 441  1163.018
 442  972.9854
 443  1175.501
 444  898.0355
 445  965.5768
 446  782.9011
 447  857.5007
 448  1040.32
 449  1583.905
 450  1463.014
 451  968.9455
 452  932.6132
 453  891.6116
 454  882.7881
 455  961.9082
 456  1089.019
 457  1112.753
 458  934.6462
 459  822.0148
 460  947.7264
 461  726.0029
 462  856.1497
 463  911.9796
 464  1041.585
 465  1032.797
 466  851.1622
 467  1228.5
 468  1302.887
 469  936.3587
 470  981.9977
 471  1025.833
 472  829.1461
 473  950.3465
 474  820.4842
 475  1125.332
 476  825.0621
 477  536.6061
 478  821.5024
 479  1171.306
 480  1214.646
 481  924.033
 482  914.5333
 483  717.9903
 484  936.2477
 485  821.8333
 486  909.344
 487  1201.281
 488  1163.995
 489  993.7573
 490  1108.453
 491  1255.125
 492  951.0826
 493  795.312
 494  606.5974
 495  962.4186
 496  847.0931
 497  988.1066
 498  1011.177
 499  1024.326
 500  992.4506
 501  907.774
 502  886.1567
 503  1001.422
 504  1142.415
 505  1074.427
 506  1106.103
 507  1278.479
 508  948.6108
 509  953.0665
 510  1077.984
 511  917.1137
