# Input file       =  1193246852.144733_cleaned.dat
# Candidate        =  PSR_0332+5434
# Telescope        =  AR
# Epoch_topo       =  58054.727675286260
# Epoch_bary       =  N/A
# T_sample         =  0.002
# Data Folded      =  7143424
# Data Avg         =  0.0712122901304359
# Data StdDev      =  2.84906574421372 
# Profile Bins     =  512
# Profile Avg      =  993.365507162894 
# Profile StdDev   =  336.527612802302 
# Reduced chi-sqr  =  1.112
# Prob(Noise)      <  0.0401   (~1.7 sigma)
# P_topo (ms)      =  714.492753276999  +/- 4.75e-05
# P'_topo (s/s)    =  -0                +/- 2.58e-11
# P''_topo (s/s^2) =  0                 +/- 1.17e-14
# P_bary (ms)      =  N/A
# P'_bary (s/s)    =  N/A
# P''_bary (s/s^2) =  N/A
# P_orb (s)        =  N/A
# asin(i)/c (s)    =  N/A
# eccentricity     =  N/A
# w (rad)          =  N/A
# T_peri           =  N/A
######################################################
   0  833.6256
   1  965.004
   2  993.6774
   3  1022.395
   4  1051.135
   5  1056.963
   6  790.0762
   7  781.4985
   8  1044.03
   9  1197.009
  10  1297.25
  11  1298.899
  12  1267.322
  13  845.9655
  14  897.5854
  15  846.7944
  16  899.885
  17  894.4435
  18  878.2383
  19  882.913
  20  708.3684
  21  766.0553
  22  764.9886
  23  585.1421
  24  822.5568
  25  779.6735
  26  609.9941
  27  1093.909
  28  1074.461
  29  1016.615
  30  1234.433
  31  917.4812
  32  608.5507
  33  852.3766
  34  872.8872
  35  865.8691
  36  494.9978
  37  656.7895
  38  957.9908
  39  1121.192
  40  770.6873
  41  621.8143
  42  727.8282
  43  1118.641
  44  1151.356
  45  1323.369
  46  1343.376
  47  1126.333
  48  984.2092
  49  843.915
  50  908.7457
  51  1095.986
  52  1351.382
  53  1019.781
  54  766.1635
  55  780.7182
  56  924.315
  57  1239.385
  58  1126.809
  59  1000.459
  60  1365.393
  61  1430.193
  62  1134.535
  63  848.566
  64  666.4342
  65  817.7412
  66  865.7811
  67  1210.384
  68  1134.11
  69  1227.255
  70  913.526
  71  848.5662
  72  1076.996
  73  758.3344
  74  824.7653
  75  1209.445
  76  1104.348
  77  1240.238
  78  1403.435
  79  1248.352
  80  1118.142
  81  992.6661
  82  892.0439
  83  865.886
  84  1072.406
  85  1192.758
  86  1330.778
  87  929.1106
  88  698.7564
  89  791.3311
  90  601.3639
  91  828.9075
  92  1157.688
  93  1175.193
  94  1119.003
  95  1204.346
  96  750.6248
  97  758.5348
  98  842.0443
  99  1023.003
 100  841.9572
 101  973.2893
 102  832.5873
 103  1045.813
 104  1200.989
 105  1180.115
 106  1018.648
 107  704.1312
 108  1138.012
 109  1103.52
 110  1093.109
 111  1205.674
 112  1169.064
 113  1088.988
 114  810.9882
 115  797.0803
 116  761.6436
 117  832.0303
 118  986.1788
 119  1000.104
 120  1093.748
 121  1184.391
 122  866.953
 123  674.9741
 124  678.8766
 125  934.9938
 126  974.5594
 127  1011.532
 128  1246.684
 129  1091.356
 130  946.4821
 131  921.2204
 132  853.5565
 133  949.0718
 134  1418.241
 135  1396.608
 136  1241.297
 137  807.9091
 138  756.098
 139  820.2201
 140  881.6715
 141  1042.028
 142  1291.053
 143  1419.239
 144  1232.608
 145  1104.462
 146  808.8856
 147  836.8719
 148  963.6409
 149  1128.06
 150  1320.105
 151  1239.258
 152  1176.837
 153  987.3973
 154  909.3232
 155  1073.035
 156  848.3875
 157  1003.577
 158  1400.032
 159  1367.196
 160  1437.101
 161  1263.207
 162  1092.546
 163  1029.762
 164  758.8775
 165  681.9218
 166  1025.869
 167  855.8784
 168  1002.221
 169  989.2645
 170  876.0049
 171  790.0786
 172  585.6022
 173  469.1215
 174  1156.02
 175  1082.821
 176  869.9614
 177  842.4066
 178  1135.022
 179  861.7058
 180  727.4509
 181  799.0795
 182  911.1027
 183  1109.74
 184  1047.484
 185  902.5356
 186  864.3499
 187  964.7134
 188  1292.638
 189  916.1547
 190  1128.207
 191  1130.883
 192  1025.219
 193  1298.467
 194  1421.429
 195  1331.572
 196  702.8547
 197  778.381
 198  556.1333
 199  621.7303
 200  715.8651
 201  801.7255
 202  1009.487
 203  1062.359
 204  1148.899
 205  923.4884
 206  945.5107
 207  1192.57
 208  1537.407
 209  1429.177
 210  1300.434
 211  915.3898
 212  605.1649
 213  694.9263
 214  1047.227
 215  1135.245
 216  1227.18
 217  1321.007
 218  1126.498
 219  1608.514
 220  1323.888
 221  840.0283
 222  858.595
 223  1047.777
 224  1072.576
 225  1229.44
 226  1352.47
 227  1393.06
 228  960.4779
 229  537.1522
 230  584.4572
 231  628.0692
 232  716.6197
 233  1145.317
 234  1116.945
 235  1126.136
 236  965.4066
 237  1076.281
 238  1027.645
 239  531.4647
 240  1110.197
 241  1060.512
 242  1062.357
 243  930.7783
 244  876.0074
 245  729.6252
 246  830.3719
 247  945.369
 248  1084.227
 249  1020.924
 250  779.0315
 251  718.1801
 252  735.3532
 253  874.3223
 254  576.0594
 255  643.8707
 256  1006.922
 257  1131.945
 258  1189.826
 259  1138.029
 260  1269.828
 261  1066.706
 262  958.0928
 263  1033.283
 264  892.1954
 265  705.4486
 266  1066.944
 267  1170.461
 268  1439.623
 269  1194.702
 270  1108.461
 271  947.457
 272  575.5454
 273  886.1116
 274  1253.548
 275  1353.537
 276  1347.672
 277  1473.558
 278  1669.877
 279  1346.823
 280  764.6848
 281  1066.402
 282  1465.632
 283  1697.72
 284  2165.735
 285  2410.86
 286  2648.047
 287  2137.326
 288  1571.903
 289  1222.917
 290  783.9034
 291  789.5963
 292  1266.565
 293  1378.485
 294  1244.189
 295  800.143
 296  627.6315
 297  659.3788
 298  692.6829
 299  1012.803
 300  1002.327
 301  1259.739
 302  1505.819
 303  1243.62
 304  1018.213
 305  1153.665
 306  1020.934
 307  1235.229
 308  1106.001
 309  786.324
 310  837.6026
 311  1084.169
 312  617.8058
 313  459.1168
 314  796.209
 315  712.3773
 316  1098.242
 317  1224.112
 318  1016.953
 319  962.4022
 320  1026.115
 321  1015.972
 322  994.5076
 323  1215.817
 324  1227.561
 325  1251.179
 326  1137.292
 327  980.0854
 328  1033.715
 329  765.6854
 330  540.9698
 331  1016.064
 332  1151.503
 333  1302.058
 334  1180.208
 335  1208.158
 336  1044.268
 337  711.0911
 338  717.518
 339  1006.21
 340  1116.39
 341  1126.39
 342  1191.962
 343  1237.179
 344  1310.715
 345  825.4015
 346  817.4044
 347  896.8318
 348  1020.157
 349  1054.12
 350  1285.834
 351  1188.217
 352  1075.731
 353  982.6456
 354  1098.123
 355  855.4133
 356  763.9744
 357  867.8309
 358  1144.781
 359  1463.621
 360  1374.963
 361  1051.184
 362  1035.754
 363  817.5005
 364  966.6159
 365  740.4244
 366  1041.716
 367  1098.108
 368  1091.957
 369  1026.32
 370  881.4685
 371  991.718
 372  767.4254
 373  838.9808
 374  1159.566
 375  1500.454
 376  1304.167
 377  824.4231
 378  677.1096
 379  1114.545
 380  839.0079
 381  1055.268
 382  931.5206
 383  1106.64
 384  1228.271
 385  1110.534
 386  979.398
 387  559.4287
 388  782.4848
 389  955.3834
 390  1073.024
 391  1016.598
 392  1210.137
 393  951.6725
 394  472.5107
 395  886.9189
 396  904.5095
 397  950.9825
 398  1084.191
 399  1116.977
 400  833.8502
 401  872.0301
 402  1002.105
 403  768.5349
 404  630.1167
 405  1067.315
 406  1099.384
 407  1266.005
 408  1248.627
 409  1108.552
 410  933.824
 411  879.1153
 412  813.3042
 413  952.9837
 414  943.0856
 415  735.6377
 416  843.1556
 417  828.2087
 418  1068.736
 419  679.038
 420  930.8037
 421  1238.442
 422  1167.809
 423  980.7373
 424  1155.195
 425  1047.249
 426  882.549
 427  799.8058
 428  690.9212
 429  937.8716
 430  952.3412
 431  1389.384
 432  1167.634
 433  819.1202
 434  434.4843
 435  645.1047
 436  1022.013
 437  835.7931
 438  855.924
 439  931.7762
 440  1153.294
 441  1238.101
 442  1214.218
 443  769.3018
 444  683.6345
 445  769.9822
 446  557.4938
 447  777.6451
 448  556.7077
 449  635.1071
 450  1020.551
 451  836.7707
 452  752.8835
 453  876.3734
 454  969.692
 455  1281.78
 456  966.9879
 457  1037.387
 458  775.976
 459  807.25
 460  1037.973
 461  941.009
 462  778.0218
 463  626.1934
 464  1140.69
 465  1075.429
 466  875.5727
 467  942.2972
 468  685.7888
 469  539.1376
 470  854.4145
 471  1095.33
 472  910.4713
 473  1204.642
 474  1141.533
 475  1133.188
 476  966.4323
 477  825.3407
 478  749.4185
 479  686.3054
 480  799.9484
 481  1364.495
 482  1426.706
 483  1254.83
 484  1029.769
 485  736.5929
 486  703.092
 487  863.4642
 488  1213.619
 489  1050.544
 490  775.4035
 491  729.3635
 492  611.6625
 493  508.2277
 494  698.1497
 495  709.1909
 496  798.4515
 497  692.2535
 498  687.397
 499  838.2865
 500  1138.584
 501  971.6866
 502  761.0531
 503  546.3615
 504  827.8363
 505  1015.233
 506  775.3297
 507  879.2437
 508  907.2189
 509  714.6649
 510  799.8248
 511  554.9056
