# Input file       =  1193591436.151234_cleaned.dat
# Candidate        =  PSR_0332+5434
# Telescope        =  AR
# Epoch_topo       =  58058.715916102243
# Epoch_bary       =  N/A
# T_sample         =  0.002
# Data Folded      =  7143424
# Data Avg         =  0.135571503975437
# Data StdDev      =  3.63834362595511 
# Profile Bins     =  1024
# Profile Avg      =  945.785495658102 
# Profile StdDev   =  303.883381117699 
# Reduced chi-sqr  =  0.757
# Prob(Noise)      <  1   (~0.0 sigma)
# P_topo (ms)      =  714.49635949155   +/- 4.21e-05
# P'_topo (s/s)    =  -0                +/- 2.28e-11
# P''_topo (s/s^2) =  0                 +/- 1.03e-14
# P_bary (ms)      =  N/A
# P'_bary (s/s)    =  N/A
# P''_bary (s/s^2) =  N/A
# P_orb (s)        =  N/A
# asin(i)/c (s)    =  N/A
# eccentricity     =  N/A
# w (rad)          =  N/A
# T_peri           =  N/A
######################################################
   0  830.4914
   1  719.6213
   2  771.6089
   3  888.0579
   4  914.142
   5  863.9376
   6  911.2294
   7  1002.935
   8  930.9678
   9  800.5915
  10  986.8448
  11  1086.85
  12  1078.738
  13  914.0701
  14  797.372
  15  803.7776
  16  860.1264
  17  1097.707
  18  1186.027
  19  1233.926
  20  1067.894
  21  1183.316
  22  1051.795
  23  1017.511
  24  989.8646
  25  1062.793
  26  1050.17
  27  1016.272
  28  968.324
  29  980.795
  30  995.437
  31  1071.965
  32  1021.695
  33  1064.112
  34  1085.394
  35  1033.96
  36  991.3016
  37  970.5208
  38  936.6568
  39  953.1548
  40  912.4773
  41  880.2797
  42  776.4384
  43  813.5254
  44  1000.39
  45  982.0676
  46  893.4596
  47  860.8367
  48  1017.115
  49  963.9529
  50  853.6526
  51  854.0425
  52  831.2475
  53  827.3919
  54  917.6942
  55  1068.541
  56  1087.345
  57  983.2527
  58  966.8317
  59  1025.046
  60  1030.115
  61  881.2364
  62  892.7654
  63  897.4404
  64  873.5301
  65  874.049
  66  770.7531
  67  727.1582
  68  709.4738
  69  890.0729
  70  1085.407
  71  931.7787
  72  765.8218
  73  720.36
  74  817.0235
  75  918.4489
  76  895.8823
  77  875.0609
  78  875.3444
  79  768.9819
  80  856.4577
  81  940.8926
  82  891.8276
  83  874.0047
  84  742.5023
  85  859.0684
  86  888.0218
  87  937.3438
  88  829.8104
  89  755.4276
  90  753.6937
  91  695.2465
  92  754.2895
  93  815.4014
  94  989.2385
  95  1003.865
  96  966.8031
  97  954.8091
  98  851.5483
  99  980.8395
 100  962.6145
 101  819.8381
 102  772.446
 103  752.7296
 104  962.9603
 105  895.8136
 106  920.4346
 107  1003.679
 108  999.6866
 109  1005.147
 110  1004.296
 111  1177.581
 112  1042.058
 113  972.7618
 114  947.6719
 115  1001.315
 116  926.5704
 117  854.7943
 118  835.0543
 119  891.9282
 120  885.0617
 121  869.176
 122  857.0631
 123  783.615
 124  736.0662
 125  782.6432
 126  927.1703
 127  936.5439
 128  965.5226
 129  932.1058
 130  860.7117
 131  727.5428
 132  796.2001
 133  921.9097
 134  894.9008
 135  959.7321
 136  992.4084
 137  1075.897
 138  1019.832
 139  872.8129
 140  932.4716
 141  730.2018
 142  587.7009
 143  599.2843
 144  735.9151
 145  908.0592
 146  707.5995
 147  703.1206
 148  765.2963
 149  748.6555
 150  752.1698
 151  778.3798
 152  929.5057
 153  912.5154
 154  986.6497
 155  1049.959
 156  1013.177
 157  919.0504
 158  937.5869
 159  929.4626
 160  908.2653
 161  800.3811
 162  849.5796
 163  847.0893
 164  929.2553
 165  779.9541
 166  804.9528
 167  1047.952
 168  1174.709
 169  1110.47
 170  925.0375
 171  820.3314
 172  845.7546
 173  915.2242
 174  999.7376
 175  990.473
 176  1006.267
 177  1090.408
 178  1040.555
 179  868.7289
 180  763.6331
 181  786.9673
 182  829.5371
 183  750.5213
 184  722.7245
 185  817.6461
 186  962.5284
 187  1011.738
 188  1120.391
 189  1046.662
 190  959.8325
 191  875.8081
 192  934.7218
 193  1017.806
 194  995.0045
 195  887.7595
 196  889.4481
 197  824.2956
 198  881.7399
 199  819.5989
 200  997.3733
 201  962.5181
 202  870.6619
 203  1042.191
 204  1199.242
 205  1141.532
 206  905.6733
 207  783.4929
 208  830.7094
 209  665.5942
 210  724.532
 211  817.5374
 212  778.7643
 213  640.4325
 214  615.9623
 215  754.0768
 216  716.0839
 217  742.8112
 218  894.0464
 219  962.2203
 220  887.3546
 221  900.7672
 222  918.4601
 223  1006.555
 224  1060.585
 225  1107.849
 226  1041.04
 227  943.6442
 228  911.6441
 229  881.1891
 230  724.2379
 231  608.4337
 232  741.4432
 233  977.2912
 234  1101.909
 235  939.7605
 236  828.7834
 237  843.6135
 238  941.0491
 239  1056.681
 240  1101.183
 241  1050.339
 242  957.4874
 243  756.1378
 244  834.4899
 245  931.5479
 246  810.1435
 247  801.9949
 248  853.2327
 249  880.7113
 250  776.348
 251  660.1469
 252  840.693
 253  906.309
 254  964.821
 255  1031.979
 256  1068.157
 257  984.5746
 258  850.5522
 259  908.9086
 260  1044.981
 261  1069.916
 262  1037.813
 263  1030.521
 264  1014.087
 265  900.6916
 266  1053.449
 267  1116.156
 268  1213.627
 269  1130.3
 270  1117.226
 271  954.663
 272  756.8299
 273  668.518
 274  873.1271
 275  1009.772
 276  1055.905
 277  982.5522
 278  1116.215
 279  1051.324
 280  1006.072
 281  1043.602
 282  1041.298
 283  1101.245
 284  1045.305
 285  1132.086
 286  1099.339
 287  990.1802
 288  1008.459
 289  1111.349
 290  1102.479
 291  1134.869
 292  1148.693
 293  1202.535
 294  968.0629
 295  852.8699
 296  885.9974
 297  888.7589
 298  812.4885
 299  950.8073
 300  1090.318
 301  1103.568
 302  926.7547
 303  979.9802
 304  1124.486
 305  1217.374
 306  1181.779
 307  1110.706
 308  925.4764
 309  805.4863
 310  849.9715
 311  846.0536
 312  799.9817
 313  650.45
 314  697.3212
 315  794.0765
 316  846.1159
 317  864.6296
 318  847.3296
 319  883.6035
 320  984.7049
 321  1051.375
 322  1029.364
 323  991.572
 324  975.5868
 325  956.5106
 326  888.5678
 327  837.0247
 328  862.1853
 329  933.1855
 330  936.58
 331  898.4907
 332  816.9341
 333  910.736
 334  1040.475
 335  1022.304
 336  958.2599
 337  831.0233
 338  780.1431
 339  807.6413
 340  908.704
 341  1046.388
 342  868.5975
 343  848.3591
 344  928.249
 345  1060.164
 346  1103.354
 347  933.4451
 348  867.5282
 349  889.9387
 350  794.5571
 351  838.3356
 352  957.452
 353  1127.01
 354  1147.347
 355  971.4269
 356  896.2016
 357  808.1253
 358  945.9805
 359  1020.589
 360  1048.964
 361  936.1398
 362  904.2641
 363  1014.473
 364  1025.622
 365  1057.744
 366  1100.08
 367  1093.707
 368  1048.103
 369  964.1039
 370  1027.096
 371  1002.558
 372  949.8672
 373  957.7995
 374  933.8273
 375  999.947
 376  906.2079
 377  832.0107
 378  770.1563
 379  768.1122
 380  826.47
 381  965.8765
 382  1041.222
 383  955.5153
 384  906.0841
 385  1000.102
 386  973.6903
 387  897.0258
 388  914.3721
 389  1012.818
 390  1051.677
 391  1043.7
 392  1097.551
 393  1123.952
 394  1033.441
 395  928.4169
 396  912.1504
 397  1023.889
 398  1017.906
 399  983.1719
 400  889.7604
 401  857.383
 402  807.4653
 403  967.7175
 404  1124.15
 405  1051.994
 406  1039.549
 407  971.4922
 408  1021.613
 409  982.7487
 410  922.2954
 411  1156.796
 412  1217.452
 413  1165.104
 414  1001.007
 415  997.1844
 416  1018.161
 417  959.9474
 418  982.7488
 419  1125.453
 420  1009.026
 421  925.9564
 422  852.836
 423  878.7188
 424  925.0406
 425  948.5925
 426  1005.691
 427  953.5114
 428  824.529
 429  759.7161
 430  848.3589
 431  885.5322
 432  869.1758
 433  917.3816
 434  886.3605
 435  848.719
 436  838.4402
 437  839.3112
 438  809.4802
 439  735.5967
 440  744.826
 441  758.002
 442  623.8171
 443  741.2881
 444  827.2769
 445  932.8196
 446  753.9886
 447  713.7462
 448  784.515
 449  859.843
 450  820.9541
 451  755.0886
 452  834.6495
 453  951.79
 454  1031.607
 455  1142.321
 456  1061.56
 457  955.9384
 458  862.2493
 459  762.4984
 460  791.5081
 461  845.1788
 462  992.3361
 463  1022.944
 464  982.1787
 465  874.6989
 466  784.536
 467  884.6877
 468  957.9715
 469  1015.723
 470  974.9344
 471  982.2338
 472  902.1859
 473  962.7032
 474  1031.789
 475  1105.055
 476  1070.772
 477  1145.985
 478  1165.212
 479  1126.938
 480  955.0325
 481  1005.22
 482  1217.788
 483  1195.616
 484  1034.657
 485  872.2645
 486  1029.95
 487  995.9315
 488  895.2402
 489  917.5204
 490  918.9041
 491  861.472
 492  895.1632
 493  1030.833
 494  954.261
 495  792.1126
 496  807.2336
 497  952.4035
 498  1000.587
 499  1040.614
 500  1099.401
 501  998.7853
 502  795.9137
 503  790.4874
 504  945.6418
 505  1021.445
 506  768.3436
 507  741.403
 508  918.8691
 509  907.1513
 510  805.291
 511  866.977
 512  956.4784
 513  877.4935
 514  786.0627
 515  885.6381
 516  1007.501
 517  833.8627
 518  866.3093
 519  876.9539
 520  913.3831
 521  935.6156
 522  950.3324
 523  920.9556
 524  695.9985
 525  673.2221
 526  791.3212
 527  810.9357
 528  747.2999
 529  768.0472
 530  719.755
 531  647.2266
 532  679.3795
 533  879.8329
 534  987.281
 535  961.498
 536  979.441
 537  1079.993
 538  1117.786
 539  1036.275
 540  1096.836
 541  1168.468
 542  1185.486
 543  1012.407
 544  863.6739
 545  654.4188
 546  599.6615
 547  602.3138
 548  673.3556
 549  697.9864
 550  680.7394
 551  697.0859
 552  802.3823
 553  844.2057
 554  850.7503
 555  876.8615
 556  957.0237
 557  1107.271
 558  1029.963
 559  1072.89
 560  1006.808
 561  961.9948
 562  852.6404
 563  775.7225
 564  950.0459
 565  954.5442
 566  961.834
 567  959.9525
 568  1012.57
 569  1006.691
 570  1027.958
 571  1053.015
 572  981.1226
 573  833.7316
 574  801.01
 575  890.7811
 576  930.9015
 577  892.6561
 578  919.2542
 579  903.7057
 580  937.6198
 581  1001.566
 582  1157.903
 583  1199.093
 584  972.7429
 585  958.3241
 586  956.3139
 587  863.7577
 588  759.5801
 589  832.3171
 590  967.4855
 591  1031.058
 592  1044.855
 593  1101.194
 594  943.6789
 595  776.8085
 596  850.9327
 597  1094.538
 598  1162.224
 599  1105.318
 600  1068.46
 601  1155.173
 602  1133.447
 603  1097.757
 604  1043.285
 605  1129.03
 606  1079.669
 607  1028.877
 608  1023.539
 609  990.999
 610  981.4562
 611  890.3123
 612  988.9765
 613  846.1907
 614  842.97
 615  821.5824
 616  845.7738
 617  839.2292
 618  919.7183
 619  1030.913
 620  1035.334
 621  1027.86
 622  1130.573
 623  1223.339
 624  1223.013
 625  1277.911
 626  1260.068
 627  1339.601
 628  1342.621
 629  1555.01
 630  1701.5
 631  1870.421
 632  1852.628
 633  1837.815
 634  1800.344
 635  1694.889
 636  1541.724
 637  1495.494
 638  1489.289
 639  1374.24
 640  1231.15
 641  1183.716
 642  1191.58
 643  1073.74
 644  1009.845
 645  955.6797
 646  1010.698
 647  911.999
 648  1057.509
 649  1055.117
 650  998.5432
 651  902.9935
 652  855.8477
 653  957.5366
 654  950.5671
 655  935.0421
 656  1018.189
 657  994.2434
 658  972.8364
 659  919.8539
 660  991.1088
 661  1042.482
 662  985.0253
 663  970.3001
 664  936.8359
 665  865.3474
 666  896.5544
 667  890.8802
 668  949.9845
 669  874.5911
 670  952.6541
 671  1006.65
 672  1040.641
 673  950.3209
 674  986.2349
 675  936.0858
 676  809.3781
 677  738.8348
 678  835.8052
 679  821.9573
 680  889.5928
 681  918.402
 682  1051.78
 683  948.3522
 684  905.0134
 685  957.8745
 686  954.283
 687  880.8791
 688  944.431
 689  1001.126
 690  1087.868
 691  968.4145
 692  1001.557
 693  874.6703
 694  777.8934
 695  785.5473
 696  829.7575
 697  968.3824
 698  846.8076
 699  798.4095
 700  783.1909
 701  936.7136
 702  996.2342
 703  998.9681
 704  1058.557
 705  1074.058
 706  1011.308
 707  953.1253
 708  1013.03
 709  1063.561
 710  935.7748
 711  861.645
 712  916.3107
 713  917.8834
 714  943.8149
 715  1012.081
 716  1110.674
 717  1053.037
 718  947.6248
 719  1001.944
 720  1035.067
 721  1030.612
 722  923.6113
 723  929.3816
 724  1030.112
 725  1052.426
 726  1203.7
 727  1058.802
 728  948.5317
 729  917.7279
 730  1061.823
 731  1215.185
 732  1110.393
 733  1006.387
 734  1094.087
 735  966.784
 736  836.1364
 737  675.3947
 738  826.9771
 739  920.6393
 740  900.8541
 741  905.7343
 742  803.7786
 743  764.4335
 744  788.7628
 745  1001.271
 746  1004.488
 747  922.2758
 748  870.5081
 749  896.4655
 750  960.7509
 751  818.4698
 752  726.4222
 753  769.1375
 754  910.2789
 755  1241.777
 756  1275.229
 757  1148.28
 758  943.2008
 759  847.1152
 760  916.3389
 761  937.7758
 762  948.0742
 763  988.2325
 764  847.7886
 765  751.9944
 766  663.4369
 767  711.1761
 768  875.2697
 769  948.7608
 770  966.8498
 771  1022.835
 772  1099.306
 773  1175.21
 774  1146.549
 775  1136.571
 776  1131.197
 777  1062.806
 778  1012.869
 779  932.926
 780  779.4429
 781  699.6282
 782  843.7688
 783  908.4108
 784  870.3841
 785  787.1367
 786  994.6296
 787  1046.991
 788  887.6288
 789  760.7082
 790  795.8337
 791  832.6859
 792  852.2751
 793  921.1757
 794  1079.479
 795  998.7836
 796  1041.648
 797  1095.367
 798  1171.207
 799  1121.824
 800  1074.611
 801  1054.104
 802  824.9663
 803  692.2695
 804  773.7546
 805  883.0203
 806  911.5418
 807  879.2166
 808  925.5535
 809  855.1698
 810  784.2152
 811  794.3351
 812  829.5349
 813  956.8477
 814  1049.984
 815  1215.497
 816  1102.01
 817  965.032
 818  925.3152
 819  895.848
 820  887.0989
 821  961.8124
 822  1041.352
 823  1102.997
 824  925.8408
 825  837.286
 826  824.1364
 827  980.4399
 828  1148.865
 829  1142.814
 830  1069.681
 831  939.7861
 832  768.8849
 833  774.8994
 834  789.1163
 835  881.016
 836  893.2587
 837  929.6298
 838  951.2332
 839  862.5689
 840  905.8323
 841  863.817
 842  1004.314
 843  941.8719
 844  908.4757
 845  784.9097
 846  887.0666
 847  890.778
 848  779.329
 849  676.647
 850  627.2234
 851  627.4194
 852  779.4695
 853  777.7493
 854  859.5278
 855  841.3984
 856  918.6297
 857  932.4688
 858  813.9484
 859  812.851
 860  839.1015
 861  972.2321
 862  1024.453
 863  988.325
 864  1024.627
 865  981.4307
 866  933.626
 867  944.9692
 868  1004.151
 869  974.0942
 870  892.486
 871  946.1254
 872  967.9816
 873  898.9554
 874  888.7153
 875  1011.643
 876  1012.428
 877  899.4879
 878  937.3224
 879  1098.723
 880  1058.076
 881  1048.741
 882  1049.023
 883  1140.262
 884  1019.931
 885  987.4483
 886  1038.094
 887  1141.298
 888  1091.104
 889  962.7527
 890  917.9002
 891  863.2421
 892  848.8039
 893  986.721
 894  971.0648
 895  837.3175
 896  741.0605
 897  899.4702
 898  1064.084
 899  938.1519
 900  990.9342
 901  1139.852
 902  1068.839
 903  942.1583
 904  819.9109
 905  961.5286
 906  913.3027
 907  843.6479
 908  751.4052
 909  631.7954
 910  647.4219
 911  781.2496
 912  972.4143
 913  978.8993
 914  908.165
 915  908.9296
 916  914.455
 917  1001.042
 918  917.1329
 919  985.9211
 920  1037.061
 921  1009.346
 922  982.9154
 923  972.6765
 924  1056.518
 925  1070.531
 926  1054.778
 927  1143.108
 928  1173.983
 929  1225.027
 930  1264.526
 931  1159.92
 932  951.8225
 933  761.1519
 934  775.3116
 935  915.2842
 936  940.0362
 937  970.8514
 938  1023.943
 939  932.2012
 940  880.3438
 941  911.4078
 942  933.7445
 943  1053.394
 944  1121.318
 945  1148.629
 946  946.1761
 947  798.8524
 948  785.7977
 949  896.4398
 950  1018.89
 951  1102.359
 952  1132.675
 953  1051.132
 954  1019.125
 955  964.9145
 956  1030.128
 957  1028.293
 958  990.0765
 959  1071.883
 960  1034.157
 961  1069.157
 962  1005.263
 963  1074.475
 964  1132.404
 965  1150.999
 966  1096.724
 967  937.3109
 968  930.5781
 969  908.5605
 970  963.6658
 971  1001.456
 972  1048.07
 973  996.8054
 974  899.1719
 975  931.2109
 976  985.3546
 977  884.2943
 978  800.5273
 979  894.5128
 980  1020.745
 981  923.8386
 982  856.8941
 983  804.8349
 984  868.6121
 985  1014.572
 986  1090.246
 987  998.6064
 988  777.0319
 989  757.1013
 990  1025.816
 991  1143.41
 992  1082.627
 993  1030.052
 994  916.0641
 995  904.6604
 996  701.4973
 997  882.892
 998  1030.685
 999  1043.013
1000  1024.915
1001  892.1826
1002  810.7107
1003  757.485
1004  810.4169
1005  922.5131
1006  864.1713
1007  870.4966
1008  977.6533
1009  1072.362
1010  1035.602
1011  1038.461
1012  1037.387
1013  1074.809
1014  1071.39
1015  1041.189
1016  991.9833
1017  855.9653
1018  687.3547
1019  704.788
1020  688.5468
1021  715.9014
1022  668.6841
1023  739.2406
