# Input file       =  1193332959.148284_cleaned.dat
# Candidate        =  PSR_0332+5434
# Telescope        =  AR
# Epoch_topo       =  58055.724284123658
# Epoch_bary       =  N/A
# T_sample         =  0.002
# Data Folded      =  7208960
# Data Avg         =  0.0570071512917902
# Data StdDev      =  3.74134655300488 
# Profile Bins     =  512
# Profile Avg      =  802.835623907097 
# Profile StdDev   =  443.945098337526 
# Reduced chi-sqr  =  0.737
# Prob(Noise)      <  1   (~0.0 sigma)
# P_topo (ms)      =  714.493643187223  +/- 0.000207
# P'_topo (s/s)    =  -0                +/- 1.11e-10
# P''_topo (s/s^2) =  0                 +/- 5e-14
# P_bary (ms)      =  N/A
# P'_bary (s/s)    =  N/A
# P''_bary (s/s^2) =  N/A
# P_orb (s)        =  N/A
# asin(i)/c (s)    =  N/A
# eccentricity     =  N/A
# w (rad)          =  N/A
# T_peri           =  N/A
######################################################
   0  1091.482
   1  1012.162
   2  786.4615
   3  686.7346
   4  815.3195
   5  962.852
   6  1201.525
   7  893.4754
   8  1077.588
   9  907.3495
  10  836.2849
  11  794.3733
  12  552.4456
  13  401.4696
  14  486.6749
  15  749.7636
  16  848.865
  17  949.4567
  18  1110.973
  19  1233.247
  20  630.364
  21  422.9091
  22  397.1529
  23  769.5802
  24  692.2773
  25  661.9022
  26  663.432
  27  316.4066
  28  471.3993
  29  510.7411
  30  840.0308
  31  696.5859
  32  731.3296
  33  700.4036
  34  714.9742
  35  836.6865
  36  657.5727
  37  913.4633
  38  878.871
  39  739.1359
  40  741.0262
  41  873.1972
  42  878.2246
  43  634.149
  44  525.3489
  45  578.5299
  46  903.3638
  47  537.7983
  48  882.8618
  49  661.265
  50  298.3198
  51  482.358
  52  589.5339
  53  824.4839
  54  910.867
  55  1126.452
  56  787.8434
  57  806.8439
  58  339.1359
  59  377.9961
  60  1012.717
  61  283.6636
  62  279.0912
  63  477.5965
  64  776.1789
  65  756.5883
  66  456.7232
  67  642.5528
  68  177.679
  69  324.364
  70  646.9042
  71  664.7299
  72  536.2612
  73  634.926
  74  1051.017
  75  801.8401
  76  882.203
  77  734.2012
  78  734.9244
  79  744.1926
  80  1084.489
  81  984.4557
  82  888.4915
  83  792.2706
  84  813.3352
  85  770.8069
  86  704.4481
  87  897.819
  88  973.4698
  89  613.7734
  90  499.3794
  91  628.7996
  92  825.5438
  93  548.8794
  94  403.7074
  95  762.0618
  96  573.8752
  97  615.3021
  98  656.4011
  99  892.4755
 100  698.0809
 101  968.4526
 102  957.256
 103  995.6555
 104  1205.612
 105  1024.69
 106  1222.362
 107  1179.422
 108  1044.892
 109  714.1416
 110  669.0515
 111  352.9698
 112  844.9182
 113  1061.997
 114  776.5818
 115  982.0228
 116  904.6458
 117  963.2922
 118  915.4335
 119  669.3325
 120  837.0518
 121  802.4531
 122  717.5432
 123  593.1313
 124  806.6024
 125  442.7653
 126  511.7404
 127  446.8034
 128  530.4609
 129  608.0584
 130  894.2202
 131  750.924
 132  768.2569
 133  656.2644
 134  806.1022
 135  795.4457
 136  984.3467
 137  949.2167
 138  714.1011
 139  1042.626
 140  983.4297
 141  602.6213
 142  270.4165
 143  572.6129
 144  745.7729
 145  835.0579
 146  781.984
 147  1047.028
 148  1088.604
 149  593.4174
 150  249.1591
 151  446.7791
 152  690.6688
 153  606.278
 154  510.3951
 155  723.1301
 156  348.8822
 157  547.4871
 158  1145.419
 159  1262.703
 160  1065.035
 161  957.6451
 162  1077.423
 163  1054.459
 164  688.6128
 165  490.1145
 166  666.0535
 167  862.1252
 168  878.3457
 169  719.5941
 170  442.4816
 171  444.6708
 172  553.8967
 173  1018.35
 174  765.3611
 175  759.763
 176  520.0554
 177  652.5059
 178  704.9351
 179  897.163
 180  813.7975
 181  627.0846
 182  690.3429
 183  853.1198
 184  822.1758
 185  567.9586
 186  593.2023
 187  698.3097
 188  705.2494
 189  1145.23
 190  830.2338
 191  969.3084
 192  340.6649
 193  415.7048
 194  787.6052
 195  720.7797
 196  371.3282
 197  321.891
 198  394.6393
 199  724.1531
 200  702.6038
 201  833.9482
 202  692.8936
 203  502.4365
 204  385.2198
 205  471.3694
 206  372.4343
 207  737.0806
 208  940.8658
 209  659.8169
 210  563.8073
 211  348.1574
 212  531.519
 213  650.517
 214  689.3329
 215  904.9224
 216  813.4176
 217  764.6288
 218  463.9649
 219  979.973
 220  1039.795
 221  794.1895
 222  826.8484
 223  559.7678
 224  655.1935
 225  661.5582
 226  1036.6
 227  874.0597
 228  1221.705
 229  971.9743
 230  953.8213
 231  642.1979
 232  578.4099
 233  491.4555
 234  409.543
 235  334.2582
 236  420.5913
 237  532.0839
 238  789.783
 239  460.737
 240  496.7726
 241  888.5978
 242  1059.525
 243  657.3183
 244  862.8017
 245  643.4537
 246  751.9109
 247  627.0582
 248  763.4341
 249  652.0393
 250  763.0765
 251  781.5606
 252  118.6823
 253  327.4994
 254  638.1137
 255  945.4324
 256  967.2966
 257  754.5439
 258  616.2603
 259  420.9476
 260  420.1801
 261  580.9323
 262  1073.802
 263  1233.111
 264  1281.649
 265  1431.407
 266  792.7937
 267  595.3773
 268  296.6562
 269  614.889
 270  913.0641
 271  1003.992
 272  1079.905
 273  923.2164
 274  914.5126
 275  539.0309
 276  618.5653
 277  1153.812
 278  1084.007
 279  963.8549
 280  707.1898
 281  590.2369
 282  715.2969
 283  1045.784
 284  1178.887
 285  420.2073
 286  673.2839
 287  979.0549
 288  963.9298
 289  824.9872
 290  771.383
 291  723.6844
 292  544.6302
 293  959.8327
 294  689.2578
 295  863.8587
 296  686.8037
 297  921.9974
 298  752.2427
 299  845.9141
 300  611.6841
 301  441.2093
 302  921.7339
 303  936.7441
 304  917.6652
 305  966.7855
 306  1078.592
 307  1176.492
 308  667.6356
 309  566.8051
 310  883.39
 311  1444.733
 312  1418.453
 313  1261.416
 314  1903.895
 315  1813.947
 316  2049.464
 317  2229.296
 318  2269.558
 319  1778.956
 320  1580.091
 321  1313.863
 322  1037.313
 323  1017.388
 324  496.4373
 325  724.0092
 326  277.4002
 327  635.8898
 328  1090.713
 329  826.5917
 330  882.765
 331  708.4138
 332  809.1508
 333  759.735
 334  1008.583
 335  1207.07
 336  1312.193
 337  1313.241
 338  818.0182
 339  778.8704
 340  665.6179
 341  744.1388
 342  685.7294
 343  959.4881
 344  997.0185
 345  640.8159
 346  816.8159
 347  1089.652
 348  810.5235
 349  633.1871
 350  707.6574
 351  708.829
 352  633.7399
 353  670.4056
 354  597.3016
 355  979.2418
 356  709.931
 357  848.3135
 358  943.5137
 359  631.6306
 360  361.2746
 361  562.9346
 362  958.4402
 363  715.3364
 364  1066.307
 365  918.8029
 366  932.9738
 367  714.4117
 368  719.4453
 369  863.6776
 370  686.5927
 371  964.9941
 372  836.7167
 373  846.1598
 374  567.438
 375  727.7324
 376  752.4088
 377  837.6261
 378  982.1913
 379  651.298
 380  974.1324
 381  1074.147
 382  956.0258
 383  1002.43
 384  1161.508
 385  900.7049
 386  865.309
 387  911.6248
 388  1115.078
 389  1005.073
 390  1157.602
 391  1046.185
 392  953.2458
 393  950.2134
 394  849.671
 395  1259.131
 396  978.6487
 397  715.8121
 398  596.1693
 399  1121.47
 400  922.4
 401  811.9113
 402  1191.903
 403  1230.591
 404  682.8489
 405  882.3619
 406  917.4863
 407  531.1227
 408  633.2719
 409  636.3424
 410  877.2539
 411  803.5823
 412  978.8572
 413  1105.885
 414  683.9142
 415  544.1746
 416  331.2102
 417  418.6295
 418  568.7241
 419  1010.591
 420  1123.484
 421  1185.992
 422  1329.212
 423  966.2869
 424  876.5073
 425  396.0132
 426  679.4385
 427  1124.935
 428  829.4653
 429  1263.136
 430  1214.674
 431  1130.367
 432  625.8979
 433  544.3839
 434  890.8195
 435  1004.661
 436  848.1188
 437  470.4981
 438  1254.53
 439  749.1831
 440  1116.062
 441  828.6425
 442  906.8229
 443  1128.439
 444  1014.049
 445  1503.889
 446  1183.213
 447  887.7805
 448  964.6343
 449  1064.85
 450  1207.735
 451  916.3067
 452  657.1269
 453  759.8011
 454  827.0898
 455  1171.339
 456  1084.618
 457  1228.563
 458  1112.907
 459  810.0753
 460  691.6786
 461  564.854
 462  672.8682
 463  834.8904
 464  1286.539
 465  1472.635
 466  1182.371
 467  960.8019
 468  1130.968
 469  645.3375
 470  693.5933
 471  826.1205
 472  553.1992
 473  568.0116
 474  767.5716
 475  1154.202
 476  768.1638
 477  620.8457
 478  323.7463
 479  622.2439
 480  854.4556
 481  487.499
 482  690.3152
 483  833.5915
 484  913.9696
 485  596.7986
 486  870.7764
 487  968.0649
 488  1035.143
 489  889.0215
 490  664.2969
 491  729.0258
 492  486.2129
 493  726.5146
 494  651.0388
 495  948.7931
 496  934.9455
 497  796.6938
 498  858.2978
 499  364.6833
 500  442.3927
 501  753.7637
 502  646.4769
 503  745.0295
 504  686.6143
 505  741.9119
 506  550.1787
 507  768.2557
 508  810.8767
 509  580.0066
 510  759.0314
 511  814.5963
