# Input file       =  1193246852.144733_cleaned.dat
# Candidate        =  PSR_0332+5434
# Telescope        =  AR
# Epoch_topo       =  58054.727675286260
# Epoch_bary       =  N/A
# T_sample         =  0.002
# Data Folded      =  7143424
# Data Avg         =  0.0712122901304359
# Data StdDev      =  2.84906574421372 
# Profile Bins     =  512
# Profile Avg      =  993.365507148113 
# Profile StdDev   =  336.527612802302 
# Reduced chi-sqr  =  1.107
# Prob(Noise)      <  0.0467   (~1.7 sigma)
# P_topo (ms)      =  714.49275347742   +/- 4.79e-05
# P'_topo (s/s)    =  -0                +/- 2.6e-11
# P''_topo (s/s^2) =  0                 +/- 1.18e-14
# P_bary (ms)      =  N/A
# P'_bary (s/s)    =  N/A
# P''_bary (s/s^2) =  N/A
# P_orb (s)        =  N/A
# asin(i)/c (s)    =  N/A
# eccentricity     =  N/A
# w (rad)          =  N/A
# T_peri           =  N/A
######################################################
   0  1185.776
   1  1459.036
   2  1315.364
   3  1101.083
   4  877.5012
   5  684.8328
   6  776.9168
   7  1086.797
   8  1178.45
   9  846.9435
  10  739.014
  11  671.2541
  12  498.9486
  13  615.7129
  14  717.6675
  15  772.0008
  16  721.4018
  17  713.6356
  18  679.063
  19  1130.646
  20  1030.396
  21  921.528
  22  516.2892
  23  707.9339
  24  980.3492
  25  890.2798
  26  782.1479
  27  940.0746
  28  795.1885
  29  740.8096
  30  678.1025
  31  656.8668
  32  1003.083
  33  935.2551
  34  1064.21
  35  989.8018
  36  1060.87
  37  893.403
  38  722.8777
  39  950.762
  40  1150.171
  41  1291.463
  42  1233.04
  43  1394.582
  44  930.1728
  45  912.5591
  46  846.2075
  47  909.6219
  48  892.8073
  49  877.4154
  50  895.4246
  51  753.9577
  52  754.913
  53  762.7416
  54  700.308
  55  652.5208
  56  892.8494
  57  623.8412
  58  868.5406
  59  1169.52
  60  944.833
  61  1185.541
  62  1094.687
  63  656.3969
  64  776.3417
  65  832.0209
  66  927.4252
  67  622.0303
  68  535.5437
  69  864.438
  70  1092.193
  71  900.5249
  72  677.826
  73  618.5577
  74  1033.108
  75  1130.748
  76  1271.221
  77  1340.856
  78  1239.312
  79  990.0615
  80  921.1245
  81  851.2921
  82  1021.99
  83  1256.21
  84  1260.06
  85  716.9792
  86  859.3807
  87  768.2423
  88  1168.835
  89  1237.364
  90  959.4511
  91  1256.477
  92  1407.524
  93  1323.98
  94  893.7004
  95  703.9261
  96  725.0765
  97  860.5988
  98  1116.026
  99  1147.806
 100  1226.407
 101  1039.193
 102  812.7335
 103  1037.301
 104  909.4791
 105  725.7726
 106  1100.888
 107  1235.81
 108  1068.487
 109  1411.148
 110  1254.914
 111  1199.989
 112  1006.405
 113  968.2072
 114  848.6435
 115  974.8241
 116  1146.366
 117  1313.741
 118  1105.321
 119  773.9421
 120  721.0991
 121  723.9487
 122  632.0209
 123  1069.631
 124  1218.447
 125  1091.177
 126  1246.227
 127  922.2132
 128  718.9244
 129  777.3048
 130  978.3629
 131  923.1671
 132  915.3839
 133  935.6069
 134  896.4949
 135  1173.261
 136  1202.267
 137  1122.9
 138  752.594
 139  934.9639
 140  1158.163
 141  1074.254
 142  1171.986
 143  1200.706
 144  1139.378
 145  921.8397
 146  765.714
 147  798.0743
 148  751.8959
 149  955.44
 150  977.1834
 151  1066.492
 152  1157.46
 153  1062.686
 154  697.9575
 155  636.3414
 156  847.491
 157  983.8913
 158  990.7491
 159  1130.162
 160  1257.841
 161  896.6741
 162  1027.643
 163  855.5308
 164  808.0354
 165  1282.77
 166  1389.539
 167  1423.5
 168  933.3981
 169  729.8276
 170  788.5988
 171  874.4454
 172  943.1292
 173  1191.545
 174  1376.115
 175  1322.262
 176  1191.965
 177  883.363
 178  827.0903
 179  867.3651
 180  1134.077
 181  1165.339
 182  1367.92
 183  1150.667
 184  1112.666
 185  875.0916
 186  1019.474
 187  955.6464
 188  864.7584
 189  1312.197
 190  1399.519
 191  1405.432
 192  1343.018
 193  1107.099
 194  1067.557
 195  889.3585
 196  664.6514
 197  937.9178
 198  935.7957
 199  875.8405
 200  1025.781
 201  923.4503
 202  824.3849
 203  734.6506
 204  381.5953
 205  910.1232
 206  1208.849
 207  917.5855
 208  804.1551
 209  1058.542
 210  1051.469
 211  663.2513
 212  804.4727
 213  808.5825
 214  1120.158
 215  1051.915
 216  965.0286
 217  896.0927
 218  851.6224
 219  1253.914
 220  985.8958
 221  1070.246
 222  1148.372
 223  1060.698
 224  1111.834
 225  1419.48
 226  1451.748
 227  921.0022
 228  724.6216
 229  626.1335
 230  596.1002
 231  671.1356
 232  797.5117
 233  865.1639
 234  1112.592
 235  1084.121
 236  1048.05
 237  873.2719
 238  1083.794
 239  1436.719
 240  1538.792
 241  1337.291
 242  1101.488
 243  657.9288
 244  625.2361
 245  909.7795
 246  1135.422
 247  1169.793
 248  1348.332
 249  1146.607
 250  1393.553
 251  1538.415
 252  989.1058
 253  781.7866
 254  1012.47
 255  1030.371
 256  1151.085
 257  1313.536
 258  1459.44
 259  1182.022
 260  633.0726
 261  521.5097
 262  633.2274
 263  601.2033
 264  1048.365
 265  1125.26
 266  1180.625
 267  986.0938
 268  1011.663
 269  1133.04
 270  689.1836
 271  825.1891
 272  1165.971
 273  1022.747
 274  956.2128
 275  920.748
 276  771.1115
 277  811.5259
 278  863.1216
 279  1056.149
 280  1037.948
 281  897.3656
 282  733.6308
 283  690.7341
 284  849.8281
 285  733.8995
 286  514.3454
 287  907.7442
 288  1080.52
 289  1173.833
 290  1148.164
 291  1237.074
 292  1205.687
 293  925.6332
 294  1029.337
 295  978.5749
 296  704.6287
 297  916.0477
 298  1154.982
 299  1362.201
 300  1326.326
 301  1073.259
 302  1032.2
 303  735.0278
 304  705.9446
 305  1175.482
 306  1294.212
 307  1369.936
 308  1384.856
 309  1583.771
 310  1593.348
 311  916.4412
 312  907.0146
 313  1318.918
 314  1577.674
 315  1977.522
 316  2314.375
 317  2641.443
 318  2366.883
 319  1820.443
 320  1313.141
 321  996.0377
 322  649.3995
 323  1133.271
 324  1294.245
 325  1400.88
 326  917.6645
 327  697.1833
 328  651.5522
 329  682.3344
 330  853.3707
 331  1011.364
 332  1110.988
 333  1440.913
 334  1461.731
 335  984.3365
 336  1162.12
 337  998.1005
 338  1196.464
 339  1169.289
 340  950.024
 341  699.7975
 342  1060.082
 343  874.8224
 344  379.9058
 345  732.492
 346  707.1378
 347  962.8127
 348  1202.453
 349  1143.913
 350  901.0016
 351  1046.593
 352  964.78
 353  1024.456
 354  1076.696
 355  1341.233
 356  1184.137
 357  1254.825
 358  1003.633
 359  1041.856
 360  919.8287
 361  474.5375
 362  861.5478
 363  1065.757
 364  1318.224
 365  1189.171
 366  1221.399
 367  1141.502
 368  851.7444
 369  645.3403
 370  880.8621
 371  1088.773
 372  1148.448
 373  1164.601
 374  1227.99
 375  1312.481
 376  1007.692
 377  737.5136
 378  900.8807
 379  951.6062
 380  1048.493
 381  1238.042
 382  1251.946
 383  1123.547
 384  960.8757
 385  1105.088
 386  925.5331
 387  763.8998
 388  798.0579
 389  1017.268
 390  1389.91
 391  1435.15
 392  1165.236
 393  1009.989
 394  922.2344
 395  870.0518
 396  894.7423
 397  856.173
 398  1162.266
 399  1046.969
 400  1057.643
 401  965.676
 402  908.9825
 403  948.4849
 404  674.8181
 405  1066.65
 406  1373.746
 407  1477.8
 408  1019.495
 409  594.7836
 410  1047.563
 411  888.9433
 412  1000.091
 413  952.7065
 414  1027.842
 415  1164.219
 416  1184.678
 417  1042.137
 418  751.6484
 419  647.382
 420  881.328
 421  1063.669
 422  972.3457
 423  1180.103
 424  1124.438
 425  588.7321
 426  694.6899
 427  945.9653
 428  877.4001
 429  1048.991
 430  1139.272
 431  937.7432
 432  825.3397
 433  978.0135
 434  931.5962
 435  576.0668
 436  917.9935
 437  1095.161
 438  1211.81
 439  1251.225
 440  1184.77
 441  988.8243
 442  932.4648
 443  800.244
 444  904.4258
 445  981.5424
 446  793.4807
 447  763.4215
 448  791.571
 449  1038.265
 450  845.4996
 451  762.0302
 452  1131.398
 453  1282.296
 454  987.2105
 455  1134.677
 456  1088.689
 457  979.1898
 458  780.9117
 459  711.777
 460  854.3042
 461  914.4877
 462  1267.32
 463  1248.968
 464  1012.815
 465  505.6213
 466  519.4009
 467  895.6312
 468  992.0294
 469  759.852
 470  956.5698
 471  1009.054
 472  1244.847
 473  1247.783
 474  958.3649
 475  653.8951
 476  774.7447
 477  648.4586
 478  656.7777
 479  725.069
 480  427.1995
 481  966.0408
 482  945.2253
 483  762.2839
 484  861.3283
 485  856.1109
 486  1252.22
 487  1045.723
 488  1052.209
 489  855.4826
 490  755.9974
 491  966.989
 492  979.3448
 493  863.5858
 494  600.8582
 495  968.1378
 496  1145.675
 497  967.1957
 498  862.7601
 499  854.7895
 500  496.6649
 501  710.1772
 502  1109.347
 503  945.7562
 504  1088.186
 505  1177.688
 506  1163.423
 507  1054.105
 508  833.7657
 509  766.9135
 510  696.9238
 511  720.2059
