# Input file       =  1193347623.151681_cleaned.dat
# Candidate        =  PSR_0332+5434
# Telescope        =  AR
# Epoch_topo       =  58055.894006385199
# Epoch_bary       =  N/A
# T_sample         =  0.002
# Data Folded      =  7340032
# Data Avg         =  0.0641625097611853
# Data StdDev      =  2.75187556619571 
# Profile Bins     =  512
# Profile Avg      =  919.359060818109 
# Profile StdDev   =  329.490417271645 
# Reduced chi-sqr  =  1.283
# Prob(Noise)      <  1.48e-05   (~4.2 sigma)
# P_topo (ms)      =  714.493806326059  +/- 0.000277
# P'_topo (s/s)    =  -0                +/- 1.46e-10
# P''_topo (s/s^2) =  0                 +/- 6.44e-14
# P_bary (ms)      =  N/A
# P'_bary (s/s)    =  N/A
# P''_bary (s/s^2) =  N/A
# P_orb (s)        =  N/A
# asin(i)/c (s)    =  N/A
# eccentricity     =  N/A
# w (rad)          =  N/A
# T_peri           =  N/A
######################################################
   0  717.1909
   1  431.3184
   2  340.1526
   3  414.5723
   4  716.6365
   5  778.3476
   6  687.6118
   7  667.7773
   8  853.5165
   9  907.4832
  10  1002.648
  11  972.5435
  12  1117.765
  13  920.2686
  14  617.5065
  15  811.4039
  16  892.5844
  17  971.7028
  18  1314.247
  19  1410.253
  20  936.3232
  21  922.3858
  22  1117.421
  23  1071.531
  24  914.1261
  25  1055.739
  26  1007.456
  27  767.5391
  28  833.1105
  29  1227.542
  30  1224.248
  31  1017.943
  32  752.3865
  33  657.3309
  34  849.1371
  35  743.9556
  36  934.1495
  37  1190.932
  38  1010.526
  39  671.3616
  40  759.6865
  41  986.4948
  42  1092.932
  43  1077.539
  44  901.0282
  45  630.7789
  46  587.3322
  47  420.5024
  48  450.0013
  49  313.6187
  50  445.0198
  51  321.7597
  52  175.4908
  53  452.4567
  54  698.0233
  55  842.5928
  56  799.9988
  57  1141.983
  58  1201.004
  59  868.8834
  60  691.7914
  61  975.811
  62  1153.886
  63  953.7649
  64  1171.867
  65  921.83
  66  1067.668
  67  927.4446
  68  810.2799
  69  1044.109
  70  1154.981
  71  735.4703
  72  827.9647
  73  777.2023
  74  863.9913
  75  952.1754
  76  960.3625
  77  906.8796
  78  669.3089
  79  819.2814
  80  825.8786
  81  1171.21
  82  1193.516
  83  1038.51
  84  969.3924
  85  1074.024
  86  1141.279
  87  965.8009
  88  1134.365
  89  1045.854
  90  1258.516
  91  1784.323
  92  2144.867
  93  2742.894
  94  2664.519
  95  2583.326
  96  2508.906
  97  1963.179
  98  1452.799
  99  845.7516
 100  1121.493
 101  1092.53
 102  906.9769
 103  1247.166
 104  1294.686
 105  1480.84
 106  1088.878
 107  834.1983
 108  887.4547
 109  1034.118
 110  872.875
 111  1023.599
 112  1072.555
 113  874.671
 114  840.5373
 115  904.3337
 116  1117.845
 117  906.4462
 118  752.0446
 119  797.3537
 120  774.0411
 121  999.293
 122  1160.75
 123  1198.724
 124  798.5688
 125  755.8481
 126  697.9986
 127  974.6875
 128  1030.832
 129  822.9569
 130  815.3252
 131  1040.412
 132  1032.189
 133  847.8849
 134  710.6118
 135  723.435
 136  1102.092
 137  1010.933
 138  926.6587
 139  823.95
 140  911.2436
 141  1077.95
 142  1121.53
 143  897.715
 144  785.0192
 145  689.2773
 146  853.2935
 147  903.6315
 148  982.5573
 149  935.7309
 150  893.032
 151  765.9484
 152  712.0921
 153  816.4265
 154  985.0842
 155  1089.767
 156  990.3115
 157  698.0496
 158  647.2028
 159  1035.752
 160  898.196
 161  619.7234
 162  743.0392
 163  837.2615
 164  791.4459
 165  747.4782
 166  1009.099
 167  967.0226
 168  831.1888
 169  1061.291
 170  1071.158
 171  1067.259
 172  837.2315
 173  667.8601
 174  496.6268
 175  960.1052
 176  1195.99
 177  934.6172
 178  652.2583
 179  543.5577
 180  714.2081
 181  952.881
 182  954.0967
 183  1281.98
 184  1140.968
 185  971.8068
 186  844.8875
 187  862.9029
 188  955.6121
 189  1014.377
 190  892.0486
 191  954.8823
 192  725.4387
 193  788.8269
 194  1019.145
 195  947.1475
 196  979.777
 197  997.4535
 198  1141.815
 199  920.0744
 200  949.3141
 201  777.7956
 202  879.614
 203  832.6837
 204  822.0272
 205  935.4792
 206  1366.794
 207  1125.308
 208  671.0934
 209  725.1743
 210  1236.94
 211  1053.639
 212  490.4344
 213  589.332
 214  846.1467
 215  865.357
 216  977.4846
 217  1260.836
 218  982.9493
 219  717.5338
 220  849.0005
 221  527.0272
 222  815.1454
 223  827.2353
 224  988.4707
 225  962.7365
 226  861.2628
 227  854.9731
 228  744.1306
 229  979.9769
 230  970.7325
 231  1095.773
 232  981.3873
 233  1374.718
 234  958.281
 235  609.9604
 236  793.0081
 237  807.5757
 238  866.6163
 239  825.3716
 240  1067.035
 241  1029.863
 242  977.1052
 243  1038.328
 244  1214.31
 245  1086.329
 246  1077.393
 247  1309.62
 248  1227.266
 249  1051.9
 250  1023.687
 251  997.4946
 252  1017.913
 253  900.3178
 254  608.9929
 255  867.5969
 256  571.0437
 257  598.0989
 258  681.7902
 259  820.2248
 260  692.3245
 261  696.5306
 262  981.9919
 263  1004.164
 264  1059.277
 265  903.0795
 266  584.3215
 267  565.1606
 268  324.6464
 269  740.2765
 270  749.5048
 271  1060.364
 272  1402.014
 273  1483.765
 274  1179.874
 275  985.4763
 276  973.3193
 277  697.519
 278  781.2972
 279  719.8107
 280  1144.74
 281  1072.929
 282  682.1956
 283  477.4251
 284  285.329
 285  374.8293
 286  786.0882
 287  997.0701
 288  779.5618
 289  632.0752
 290  661.0295
 291  685.0878
 292  503.6682
 293  868.0964
 294  972.7162
 295  860.1483
 296  937.2701
 297  1056.584
 298  388.9964
 299  615.2834
 300  769.8115
 301  742.5198
 302  861.319
 303  788.0561
 304  574.04
 305  806.4992
 306  860.9381
 307  848.425
 308  808.837
 309  859.5657
 310  935.296
 311  818.8704
 312  959.6049
 313  821.3483
 314  951.3026
 315  1068.285
 316  1323.297
 317  1012.301
 318  834.0408
 319  876.6931
 320  684.5947
 321  616.0001
 322  660.0015
 323  1119.141
 324  1493.142
 325  1387.448
 326  1203.001
 327  1042.078
 328  906.8036
 329  991.2546
 330  972.7635
 331  1158.335
 332  1018.605
 333  1006.238
 334  1087.764
 335  1097.982
 336  1072.495
 337  954.1147
 338  1187.602
 339  975.5335
 340  799.3423
 341  827.3449
 342  911.533
 343  895.9862
 344  983.5243
 345  1077.657
 346  942.4531
 347  712.7752
 348  603.1272
 349  849.1533
 350  752.5626
 351  1045.351
 352  1030.907
 353  763.8737
 354  1017.436
 355  867.7178
 356  676.9362
 357  903.4225
 358  762.8548
 359  827.6816
 360  842.1102
 361  966.7749
 362  857.0829
 363  626.5374
 364  363.5194
 365  484.0085
 366  585.2917
 367  793.2696
 368  783.751
 369  592.9944
 370  861.4803
 371  804.9945
 372  690.8513
 373  936.9625
 374  996.2142
 375  858.92
 376  893.0919
 377  620.1517
 378  705.6837
 379  1039.5
 380  815.8495
 381  810.9796
 382  802.306
 383  940.6108
 384  882.1442
 385  579.2841
 386  804.693
 387  762.645
 388  956.0193
 389  1087.477
 390  829.5292
 391  801.0538
 392  689.6691
 393  850.0416
 394  927.8167
 395  771.7794
 396  805.1235
 397  1038.06
 398  895.7271
 399  1090.691
 400  984.3019
 401  771.8815
 402  645.7914
 403  772.3431
 404  1031.538
 405  1140.597
 406  1161.829
 407  758.3295
 408  953.4495
 409  1140.874
 410  1072.649
 411  969.8865
 412  805.7635
 413  764.3599
 414  809.0677
 415  968.1938
 416  842.8655
 417  839.9269
 418  759.4259
 419  943.3652
 420  1062.522
 421  886.8193
 422  951.0319
 423  933.4044
 424  765.5425
 425  801.5459
 426  728.149
 427  814.9462
 428  939.5669
 429  1090.332
 430  1166.704
 431  1238.089
 432  1304.327
 433  1163.874
 434  1047.199
 435  759.4234
 436  859.1741
 437  1211.927
 438  1393.555
 439  1446.672
 440  1350.539
 441  991.5358
 442  929.3665
 443  947.1372
 444  979.4999
 445  815.5776
 446  1184.048
 447  1222.506
 448  1079.594
 449  736.3491
 450  748.724
 451  696.4039
 452  855.6409
 453  1155.128
 454  869.2604
 455  1050.362
 456  888.9054
 457  796.7207
 458  704.7173
 459  1045.04
 460  1021.603
 461  979.7502
 462  924.0964
 463  1037.729
 464  1058.74
 465  1037.853
 466  1138.526
 467  937.7983
 468  847.2111
 469  969.8309
 470  969.7679
 471  1170.488
 472  1092.91
 473  1295.287
 474  1366.631
 475  1265.631
 476  924.5214
 477  487.672
 478  578.9576
 479  622.0985
 480  845.9532
 481  820.0562
 482  917.5055
 483  869.3652
 484  871.4196
 485  1012.371
 486  946.4725
 487  936.3535
 488  972.3445
 489  1134.909
 490  1031.155
 491  981.9641
 492  1170.82
 493  982.9332
 494  1025.29
 495  1242.196
 496  1173.497
 497  942.1589
 498  834.7269
 499  878.7658
 500  720.4053
 501  671.7803
 502  924.7965
 503  640.5806
 504  591.273
 505  569.1656
 506  747.6752
 507  602.0665
 508  541.4705
 509  588.7393
 510  604.1699
 511  565.3877
