# Input file       =  1193505289.155681_cleaned.dat
# Candidate        =  PSR_0332+5434
# Telescope        =  AR
# Epoch_topo       =  58057.718844394454
# Epoch_bary       =  N/A
# T_sample         =  0.002
# Data Folded      =  7143424
# Data Avg         =  0.132853513021757
# Data StdDev      =  3.51102502643348 
# Profile Bins     =  1024
# Profile Avg      =  926.742673740394 
# Profile StdDev   =  293.24941949137  
# Reduced chi-sqr  =  0.793
# Prob(Noise)      <  1   (~0.0 sigma)
# P_topo (ms)      =  714.495446533075  +/- 0.000157
# P'_topo (s/s)    =  -0                +/- 8.53e-11
# P''_topo (s/s^2) =  0                 +/- 3.87e-14
# P_bary (ms)      =  N/A
# P'_bary (s/s)    =  N/A
# P''_bary (s/s^2) =  N/A
# P_orb (s)        =  N/A
# asin(i)/c (s)    =  N/A
# eccentricity     =  N/A
# w (rad)          =  N/A
# T_peri           =  N/A
######################################################
   0  1031.962
   1  1044.266
   2  1064.765
   3  1157.662
   4  1188.977
   5  1079.452
   6  1008.791
   7  918.8505
   8  959.48
   9  800.4142
  10  716.6161
  11  753.6179
  12  897.0413
  13  910.3463
  14  945.5025
  15  974.8321
  16  1114.365
  17  995.5972
  18  974.36
  19  1024.008
  20  1012.216
  21  975.5256
  22  835.7208
  23  789.5173
  24  688.7258
  25  656.6548
  26  729.3783
  27  842.215
  28  833.2506
  29  890.6677
  30  823.9724
  31  833.5789
  32  715.7045
  33  724.1006
  34  822.4862
  35  907.749
  36  936.4186
  37  939.3844
  38  904.9489
  39  882.1517
  40  925.0278
  41  881.6196
  42  853.7884
  43  880.8036
  44  952.8048
  45  1055.06
  46  924.3104
  47  811.1412
  48  802.9442
  49  851.5719
  50  888.5587
  51  908.9503
  52  952.314
  53  947.5323
  54  920.3418
  55  994.9507
  56  1074.21
  57  1153.154
  58  1099.221
  59  1055.097
  60  985.326
  61  1040.214
  62  996.6944
  63  969.6412
  64  934.7695
  65  979.6937
  66  1040.711
  67  943.6216
  68  913.9443
  69  844.4934
  70  945.25
  71  932.6792
  72  873.0464
  73  844.6362
  74  920.8955
  75  1013.576
  76  1063.654
  77  1122.955
  78  1233.539
  79  1215.497
  80  1053.997
  81  939.1503
  82  954.5284
  83  1033.474
  84  1071.737
  85  1155.445
  86  1130.623
  87  1198.888
  88  1043.126
  89  1027.718
  90  927.2337
  91  963.252
  92  919.8354
  93  905.5831
  94  805.5958
  95  845.5067
  96  921.6965
  97  1045.883
  98  917.6035
  99  856.7166
 100  852.6823
 101  873.2005
 102  867.138
 103  799.6175
 104  854.3829
 105  902.6258
 106  941.3157
 107  980.6887
 108  1034.152
 109  1008.797
 110  967.5311
 111  913.7805
 112  914.4985
 113  889.1931
 114  890.7675
 115  940.5618
 116  1032.316
 117  1070.5
 118  1241.253
 119  1173.403
 120  1113.854
 121  977.3257
 122  1053.556
 123  1148.592
 124  1162.23
 125  1097.797
 126  1037.629
 127  858.897
 128  940.2789
 129  919.2599
 130  918.6473
 131  963.1796
 132  1081.056
 133  1096.069
 134  1015.515
 135  954.0654
 136  929.0976
 137  881.742
 138  872.934
 139  973.0285
 140  959.8879
 141  961.0315
 142  903.2823
 143  965.324
 144  1003.716
 145  1036.053
 146  998.1493
 147  1074.618
 148  987.7761
 149  1015.818
 150  1055.302
 151  1102.014
 152  1024.62
 153  942.7275
 154  925.884
 155  866.0136
 156  767.4594
 157  817.5313
 158  745.5287
 159  759.6716
 160  738.2031
 161  812.8365
 162  794.0092
 163  789.3313
 164  915.6652
 165  1048.114
 166  927.8024
 167  924.6144
 168  1031.738
 169  1017.219
 170  937.3516
 171  911.2607
 172  937.3544
 173  915.4935
 174  827.2775
 175  764.563
 176  600.1681
 177  546.5424
 178  847.5732
 179  1052.449
 180  1169.25
 181  987.5806
 182  964.0151
 183  841.7994
 184  785.2131
 185  778.3112
 186  944.6537
 187  971.1666
 188  1009.697
 189  944.5109
 190  848.403
 191  813.7538
 192  904.8899
 193  991.4135
 194  904.4503
 195  867.1915
 196  923.5728
 197  971.6722
 198  884.415
 199  812.1415
 200  803.4756
 201  863.1626
 202  790.5461
 203  816.291
 204  834.9561
 205  900.426
 206  1060.608
 207  1218.07
 208  1210.691
 209  1004.531
 210  893.7453
 211  959.6192
 212  1130.505
 213  1126.076
 214  1087.29
 215  1070.893
 216  938.0134
 217  796.9753
 218  783.8171
 219  844.4811
 220  1016.195
 221  997.8635
 222  1122.361
 223  1019.892
 224  923.6694
 225  965.9106
 226  974.4264
 227  1077.817
 228  1065.585
 229  895.6742
 230  835.5875
 231  704.6606
 232  789.0601
 233  803.1674
 234  821.1754
 235  818.3232
 236  853.122
 237  900.3927
 238  1002.099
 239  832.2639
 240  846.067
 241  907.4532
 242  965.0603
 243  1017.535
 244  904.864
 245  854.4632
 246  749.7823
 247  809.8583
 248  915.6342
 249  919.8627
 250  883.1233
 251  997.3706
 252  1039.526
 253  970.3856
 254  874.6265
 255  907.5513
 256  1035.877
 257  993.5261
 258  833.0095
 259  750.4481
 260  733.549
 261  799.6299
 262  816.2816
 263  897.5547
 264  926.1722
 265  918.0923
 266  984.6801
 267  982.2811
 268  891.8481
 269  745.2654
 270  838.165
 271  984.4799
 272  1037.983
 273  965.0826
 274  849.2828
 275  817.1663
 276  739.4776
 277  785.876
 278  814.9193
 279  797.4093
 280  881.7549
 281  896.8104
 282  882.7221
 283  673.4916
 284  682.5225
 285  799.0228
 286  911.0369
 287  1021.503
 288  1038.874
 289  833.6088
 290  819.571
 291  873.0903
 292  1016.228
 293  830.0828
 294  742.8395
 295  724.0856
 296  882.3074
 297  825.867
 298  885.5461
 299  822.8527
 300  807.3662
 301  879.9002
 302  899.6818
 303  921.014
 304  767.6288
 305  735.1453
 306  815.7353
 307  747.989
 308  738.4133
 309  780.2943
 310  864.5366
 311  965.9031
 312  991.4752
 313  990.0404
 314  911.2059
 315  844.4198
 316  833.8398
 317  745.5834
 318  683.8918
 319  831.0132
 320  950.1788
 321  959.3748
 322  1002.104
 323  1068.882
 324  1114.522
 325  958.2611
 326  895.0344
 327  811.7949
 328  721.0156
 329  798.6742
 330  837.7875
 331  854.7079
 332  713.1191
 333  632.3146
 334  784.0846
 335  885.7131
 336  995.4176
 337  946.9059
 338  918.1007
 339  787.4654
 340  878.8041
 341  1064.281
 342  1142.839
 343  971.517
 344  930.4261
 345  975.7157
 346  909.7787
 347  691.1269
 348  604.0662
 349  666.8784
 350  788.9498
 351  787.876
 352  831.9091
 353  932.4941
 354  817.4644
 355  759.936
 356  826.8361
 357  872.5698
 358  838.7795
 359  837.7176
 360  1002.156
 361  1064.465
 362  943.7925
 363  854.8373
 364  792.8741
 365  754.6884
 366  748.3897
 367  763.1479
 368  776.5186
 369  732.2035
 370  847.3023
 371  969.5936
 372  921.4572
 373  850.3544
 374  948.7653
 375  1034.854
 376  1002.785
 377  911.64
 378  851.6879
 379  959.2955
 380  1085.721
 381  1054.833
 382  969.8521
 383  925.9728
 384  950.4937
 385  906.1895
 386  857.3674
 387  893.6649
 388  894.4296
 389  1000.927
 390  1021.051
 391  882.9993
 392  913.5994
 393  967.5765
 394  1015.491
 395  973.7144
 396  814.5103
 397  951.162
 398  800.0393
 399  913.0532
 400  976.166
 401  1097.425
 402  958.7347
 403  723.026
 404  627.4099
 405  667.2989
 406  722.0235
 407  779.1049
 408  825.3309
 409  840.3905
 410  874.6126
 411  1000.102
 412  977.1481
 413  954.6934
 414  850.5381
 415  916.4122
 416  825.5137
 417  828.7329
 418  845.3381
 419  916.6622
 420  888.7871
 421  909.8642
 422  778.5737
 423  756.1358
 424  788.435
 425  995.2216
 426  1070.267
 427  1063.37
 428  1072.002
 429  1125.226
 430  1000.603
 431  1006.85
 432  936.312
 433  1003.872
 434  1095.304
 435  1084.398
 436  1082.855
 437  904.9727
 438  787.9647
 439  781.0765
 440  945.6848
 441  986.2946
 442  1053.712
 443  998.3411
 444  1114.956
 445  916.0126
 446  825.7312
 447  788.9013
 448  928.3576
 449  877.2384
 450  808.6488
 451  652.9342
 452  739.6994
 453  813.9584
 454  937.3148
 455  851.7783
 456  681.4965
 457  601.5776
 458  687.4738
 459  708.3568
 460  736.908
 461  817.2565
 462  854.5885
 463  815.9051
 464  759.8804
 465  789.4164
 466  822.7275
 467  851.6083
 468  943.2775
 469  907.1043
 470  739.3303
 471  758.0507
 472  754.6849
 473  862.3602
 474  725.384
 475  915.1
 476  900.951
 477  998.5861
 478  986.8429
 479  1064.808
 480  978.2583
 481  863.265
 482  817.7214
 483  858.9367
 484  972.972
 485  1077.935
 486  1089.604
 487  989.662
 488  959.644
 489  1082.133
 490  1138.495
 491  1090.926
 492  1075.859
 493  1082.713
 494  988.1033
 495  703.0217
 496  641.587
 497  771.4823
 498  862.1462
 499  915.3195
 500  905.3946
 501  916.4426
 502  832.7389
 503  774.8693
 504  845.2408
 505  933.542
 506  929.8186
 507  868.0915
 508  863.2349
 509  924.2784
 510  1013.942
 511  963.6171
 512  857.1522
 513  808.4989
 514  947.702
 515  1083.855
 516  1021.122
 517  938.9346
 518  813.7641
 519  851.9168
 520  817.8298
 521  825.9564
 522  761.9946
 523  817.7093
 524  805.6782
 525  939.0601
 526  1099.342
 527  1199.456
 528  1171.989
 529  1071.669
 530  1083.154
 531  1057.684
 532  1034.487
 533  871.6866
 534  781.5431
 535  907.0317
 536  1018.814
 537  973.054
 538  870.8711
 539  802.1062
 540  815.047
 541  834.2928
 542  904.005
 543  848.824
 544  840.8637
 545  843.1736
 546  838.5607
 547  755.8199
 548  815.308
 549  962.9874
 550  1032.554
 551  921.6953
 552  980.3416
 553  972.7278
 554  991.3522
 555  871.9432
 556  928.0168
 557  943.994
 558  926.333
 559  950.4874
 560  966.5436
 561  959.5055
 562  1020.923
 563  945.1295
 564  978.9874
 565  965.2282
 566  977.7209
 567  863.6094
 568  812.0361
 569  788.4044
 570  775.4597
 571  752.8949
 572  832.9423
 573  926.0949
 574  869.0706
 575  889.8267
 576  904.6361
 577  1030.241
 578  1014.336
 579  947.4349
 580  853.7343
 581  826.6891
 582  779.1997
 583  752.3417
 584  740.403
 585  723.3192
 586  762.5031
 587  788.6199
 588  954.6534
 589  848.4907
 590  735.7399
 591  740.2219
 592  1030.805
 593  1162.591
 594  1155.539
 595  1052.036
 596  1108.632
 597  1032.682
 598  963.8452
 599  749.876
 600  752.2484
 601  863.4534
 602  978.2202
 603  980.433
 604  898.8934
 605  781.0383
 606  745.0729
 607  897.9769
 608  981.8933
 609  1066.959
 610  1052.47
 611  1026.692
 612  1040.778
 613  1087.033
 614  1116.101
 615  958.6349
 616  805.8129
 617  883.0126
 618  949.3862
 619  938.0048
 620  946.3703
 621  849.0704
 622  863.2277
 623  824.3463
 624  883.5684
 625  948.0226
 626  903.9692
 627  1032.896
 628  1097.575
 629  1335.389
 630  1523.249
 631  1772.241
 632  1759.384
 633  1682.403
 634  1687.426
 635  1732.027
 636  1670.715
 637  1568.291
 638  1472.777
 639  1302.953
 640  1059.949
 641  978.1302
 642  984.9839
 643  922.4581
 644  903.2932
 645  976.4276
 646  1108.47
 647  1091.495
 648  1042.072
 649  977.4241
 650  985.2344
 651  980.681
 652  871.6744
 653  715.5025
 654  692.1799
 655  972.7746
 656  1249.615
 657  1170.06
 658  1049.2
 659  994.6885
 660  1066.416
 661  1086.455
 662  1005.54
 663  980.8644
 664  983.8633
 665  896.7086
 666  890.4153
 667  878.9205
 668  936.7571
 669  1012.591
 670  1094.468
 671  1065.876
 672  1074.864
 673  975.5968
 674  973.7542
 675  932.8575
 676  1054.721
 677  1082.363
 678  1002.341
 679  1071.26
 680  994.1804
 681  990.9155
 682  998.5543
 683  1066.077
 684  1041.86
 685  975.8361
 686  835.5853
 687  733.5854
 688  590.9996
 689  726.5039
 690  802.9786
 691  796.3248
 692  624.6754
 693  629.2834
 694  762.2726
 695  860.4637
 696  858.6693
 697  948.0223
 698  987.7364
 699  1015.977
 700  1022.675
 701  1058.178
 702  963.9196
 703  894.0994
 704  809.5547
 705  931.3561
 706  965.7174
 707  1004.732
 708  1019.867
 709  1133.661
 710  1153.855
 711  1072.032
 712  971.2205
 713  902.7544
 714  941.6355
 715  1024.272
 716  1112.901
 717  1042.799
 718  989.1492
 719  992.619
 720  1033.191
 721  1040.821
 722  969.1345
 723  1016.678
 724  1013.377
 725  1116.476
 726  1193.426
 727  1284.46
 728  1274.892
 729  1346.708
 730  1290.613
 731  1305.605
 732  1058.039
 733  962.9615
 734  833.6755
 735  830.2742
 736  770.3311
 737  879.7831
 738  1071.672
 739  1195.363
 740  1154.893
 741  1059.238
 742  983.4455
 743  931.5746
 744  899.3974
 745  921.9276
 746  877.1956
 747  1007.441
 748  977.7123
 749  977.7414
 750  908.4724
 751  918.0344
 752  903.5618
 753  886.8998
 754  898.4473
 755  901.4802
 756  906.5612
 757  1077.881
 758  1224.855
 759  1252.083
 760  1164.055
 761  1071.19
 762  1013.165
 763  1045.13
 764  1110.095
 765  1160.365
 766  1066.921
 767  869.2014
 768  841.2179
 769  807.9611
 770  836.4581
 771  826.2635
 772  996.8929
 773  1100.124
 774  1197.096
 775  1104.447
 776  910.6054
 777  850.7897
 778  824.2935
 779  1083.716
 780  1148.066
 781  1142.497
 782  1060.998
 783  1062.225
 784  1117.515
 785  1145.326
 786  992.3574
 787  903.8125
 788  684.9111
 789  667.9389
 790  658.4803
 791  699.89
 792  703.0148
 793  861.8619
 794  1052.144
 795  1226.9
 796  1048.08
 797  1037.327
 798  946.3578
 799  1010.057
 800  802.2983
 801  797.364
 802  813.2296
 803  842.8961
 804  874.075
 805  830.5701
 806  845.8351
 807  843.2469
 808  863.6958
 809  938.6384
 810  853.7326
 811  862.7852
 812  901.078
 813  1048.984
 814  1092.707
 815  1018.516
 816  970.6898
 817  924.0415
 818  876.7978
 819  735.3841
 820  724.9888
 821  808.3328
 822  945.3173
 823  983.6277
 824  996.6214
 825  891.9123
 826  844.5627
 827  876.2491
 828  1123.819
 829  1159.372
 830  1101.627
 831  1073.245
 832  1025.981
 833  863.2158
 834  637.4415
 835  668.2834
 836  774.1849
 837  943.4247
 838  953.5726
 839  920.4984
 840  838.6282
 841  819.8212
 842  953.7922
 843  943.9645
 844  902.9298
 845  832.9834
 846  914.4023
 847  980.0798
 848  977.753
 849  1021.849
 850  973.2036
 851  872.8759
 852  811.8049
 853  910.6024
 854  876.3
 855  844.6368
 856  720.985
 857  848.5965
 858  912.5562
 859  865.5877
 860  951.6849
 861  970.1768
 862  1034.671
 863  973.2783
 864  867.5176
 865  760.5109
 866  737.9615
 867  817.6255
 868  858.6365
 869  959.6746
 870  951.1375
 871  872.6866
 872  781.678
 873  903.8236
 874  852.6154
 875  819.8175
 876  836.1718
 877  942.494
 878  944.3428
 879  869.3808
 880  758.1225
 881  793.64
 882  713.4396
 883  760.7613
 884  778.7406
 885  830.765
 886  849.9139
 887  991.9105
 888  1097.255
 889  999.422
 890  905.9545
 891  947.7384
 892  975.7087
 893  900.496
 894  888.0535
 895  852.8698
 896  803.0523
 897  695.66
 898  692.1088
 899  807.7245
 900  862.8292
 901  904.2512
 902  992.0662
 903  949.1421
 904  861.9307
 905  890.421
 906  1028.709
 907  1111.58
 908  991.9173
 909  963.6689
 910  815.4514
 911  751.2358
 912  816.2793
 913  917.4247
 914  901.4585
 915  821.1476
 916  816.3578
 917  810.9861
 918  739.3007
 919  741.3215
 920  932.7697
 921  1018.84
 922  1120.325
 923  1098.809
 924  1007.251
 925  764.6902
 926  658.8906
 927  729.5775
 928  945.1823
 929  1107.647
 930  1149.534
 931  947.3021
 932  883.593
 933  783.3622
 934  717.3976
 935  762.9066
 936  921.501
 937  1001.211
 938  906.4496
 939  779.7836
 940  788.9226
 941  948.0804
 942  1061.947
 943  1104.506
 944  923.7933
 945  753.1301
 946  669.8231
 947  753.087
 948  747.7402
 949  853.27
 950  828.3301
 951  929.7566
 952  907.0178
 953  910.0635
 954  896.3944
 955  853.3368
 956  943.0129
 957  939.4548
 958  925.5726
 959  928.1212
 960  844.9714
 961  931.4095
 962  948.2086
 963  1008.174
 964  954.4857
 965  974.0917
 966  883.7111
 967  913.9866
 968  883.2631
 969  765.5522
 970  685.7695
 971  782.1651
 972  1078.42
 973  1191.043
 974  1203.435
 975  1177.865
 976  1178.499
 977  1136.059
 978  1012.335
 979  936.1984
 980  988.0028
 981  951.3863
 982  947.7925
 983  915.8054
 984  1058.379
 985  960.1257
 986  837.3461
 987  678.4659
 988  597.6892
 989  507.9744
 990  577.6652
 991  675.8401
 992  794.8487
 993  896.1384
 994  1120.626
 995  1207.932
 996  1095.201
 997  867.0553
 998  910.9588
 999  966.2725
1000  1057.496
1001  945.9576
1002  861.5292
1003  702.5256
1004  661.2902
1005  771.0846
1006  835.1312
1007  902.516
1008  910.5533
1009  1015.911
1010  1091.278
1011  1045.838
1012  838.4736
1013  757.3979
1014  781.7108
1015  796.9158
1016  739.7869
1017  711.7358
1018  709.9326
1019  847.1401
1020  919.4686
1021  1020.254
1022  1037.623
1023  1040.913
