# Input file       =  1193620941.150686_cleaned.dat
# Candidate        =  PSR_0332+5434
# Telescope        =  AR
# Epoch_topo       =  58059.057409151457
# Epoch_bary       =  N/A
# T_sample         =  0.002
# Data Folded      =  7340032
# Data Avg         =  0.0476061196178698
# Data StdDev      =  2.59628345400373 
# Profile Bins     =  512
# Profile Avg      =  682.477117351492 
# Profile StdDev   =  310.860901242625 
# Reduced chi-sqr  =  1.078
# Prob(Noise)      <  0.109   (~1.2 sigma)
# P_topo (ms)      =  714.49701586927   +/- 0.000179
# P'_topo (s/s)    =  -0                +/- 9.45e-11
# P''_topo (s/s^2) =  0                 +/- 4.17e-14
# P_bary (ms)      =  N/A
# P'_bary (s/s)    =  N/A
# P''_bary (s/s^2) =  N/A
# P_orb (s)        =  N/A
# asin(i)/c (s)    =  N/A
# eccentricity     =  N/A
# w (rad)          =  N/A
# T_peri           =  N/A
######################################################
   0  626.9886
   1  521.9249
   2  995.7406
   3  965.0475
   4  641.1354
   5  630.4639
   6  767.6397
   7  578.5008
   8  541.7913
   9  466.9725
  10  322.0165
  11  610.3864
  12  606.2096
  13  630.8767
  14  563.9206
  15  652.7455
  16  695.8543
  17  498.8207
  18  741.5007
  19  625.3444
  20  928.8046
  21  1098.798
  22  1138.141
  23  820.0985
  24  686.4688
  25  902.41
  26  745.0585
  27  676.41
  28  771.8743
  29  845.8506
  30  734.6104
  31  236.0743
  32  576.67
  33  478.6731
  34  470.3954
  35  716.9808
  36  930.3157
  37  877.2208
  38  601.2764
  39  803.1046
  40  850.6408
  41  459.5691
  42  493.1128
  43  693.7181
  44  690.229
  45  914.674
  46  1106.31
  47  927.4961
  48  1063.629
  49  1093.999
  50  571.3593
  51  431.7848
  52  771.836
  53  781.5208
  54  943.5612
  55  601.4451
  56  465.5143
  57  546.5721
  58  613.343
  59  752.7028
  60  917.9554
  61  843.731
  62  1042.429
  63  864.3882
  64  651.5059
  65  702.2961
  66  856.3625
  67  557.5253
  68  719.1018
  69  709.9775
  70  720.8137
  71  708.8743
  72  715.4271
  73  532.1947
  74  452.902
  75  725.2281
  76  769.733
  77  294.8369
  78  120.8737
  79  123.4936
  80  177.1957
  81  429.186
  82  549.8823
  83  532.7972
  84  660.9731
  85  573.9665
  86  697.9514
  87  676.3888
  88  537.0398
  89  584.5675
  90  818.6325
  91  686.9951
  92  382.8463
  93  513.3323
  94  641.9366
  95  582.8165
  96  779.4947
  97  735.9029
  98  554.752
  99  468.0603
 100  319.2396
 101  431.2454
 102  140.8552
 103  390.5955
 104  431.4299
 105  320.7948
 106  299.6639
 107  337.3549
 108  541.8132
 109  638.0985
 110  734.1422
 111  631.2069
 112  481.8634
 113  552.7963
 114  620.8281
 115  451.145
 116  418.565
 117  304.41
 118  443.6009
 119  895.2797
 120  534.809
 121  202.5905
 122  558.3616
 123  568.0049
 124  454.0123
 125  685.2465
 126  998.8151
 127  936.558
 128  1033.631
 129  1064.444
 130  805.6652
 131  844.8802
 132  818.4918
 133  573.3286
 134  577.4352
 135  650.7032
 136  700.4323
 137  714.0732
 138  984.5715
 139  693.3182
 140  679.153
 141  711.9321
 142  460.7528
 143  525.4951
 144  584.6376
 145  476.716
 146  126.7628
 147  316.213
 148  613.8701
 149  950.2115
 150  502.5752
 151  512.5294
 152  870.7888
 153  560.4856
 154  329.8245
 155  442.2462
 156  679.3239
 157  461.4503
 158  584.0761
 159  1059.934
 160  901.2136
 161  614.1082
 162  647.1702
 163  528.4771
 164  422.6284
 165  745.326
 166  646.858
 167  573.821
 168  658.4971
 169  810.6594
 170  654.9741
 171  865.9155
 172  774.0542
 173  729.4058
 174  712.9707
 175  768.5937
 176  905.1949
 177  928.119
 178  930.0746
 179  742.1271
 180  610.439
 181  715.4384
 182  630.4412
 183  877.6652
 184  810.6673
 185  677.5027
 186  577.1773
 187  561.4882
 188  600.6534
 189  662.421
 190  741.7739
 191  611.8237
 192  770.6464
 193  742.0195
 194  507.3955
 195  579.3539
 196  614.875
 197  396.6247
 198  441.511
 199  750.2054
 200  813.0886
 201  411.0555
 202  542.269
 203  854.8239
 204  674.1171
 205  708.4079
 206  717.1494
 207  435.017
 208  426.7917
 209  997.2474
 210  621.9839
 211  494.9597
 212  625.6875
 213  472.0291
 214  311.6868
 215  806.5935
 216  1042.553
 217  534.7614
 218  904.1752
 219  844.4178
 220  694.7661
 221  542.7664
 222  898.8455
 223  686.6418
 224  398.6696
 225  510.0318
 226  718.5292
 227  517.5078
 228  566.1029
 229  586.6879
 230  750.4246
 231  944.4247
 232  799.6897
 233  770.9338
 234  828.1496
 235  786.3484
 236  969.8691
 237  1084.388
 238  804.2607
 239  655.8447
 240  911.1259
 241  966.0005
 242  872.2408
 243  668.4366
 244  564.723
 245  860.8419
 246  755.7894
 247  845.2999
 248  582.1823
 249  460.6062
 250  678.5778
 251  518.7679
 252  358.844
 253  613.4598
 254  615.8049
 255  721.1654
 256  848.0953
 257  710.9454
 258  737.2687
 259  728.3372
 260  643.5147
 261  623.3491
 262  396.2757
 263  241.4845
 264  487.0257
 265  619.6062
 266  706.4882
 267  747.6513
 268  521.6841
 269  275.8473
 270  788.1144
 271  929.6928
 272  1142.561
 273  1097.394
 274  919.5698
 275  549.7198
 276  747.7328
 277  789.284
 278  590.8106
 279  495.6748
 280  661.6645
 281  426.1777
 282  472.4263
 283  556.7437
 284  604.9926
 285  540.3521
 286  433.1777
 287  500.3498
 288  880.4576
 289  867.8474
 290  732.3756
 291  415.5601
 292  290.1082
 293  373.4092
 294  535.5952
 295  761.4394
 296  794.5444
 297  367.9355
 298  474.9904
 299  626.3604
 300  880.0427
 301  743.0604
 302  624.5365
 303  826.8514
 304  923.6929
 305  808.2441
 306  1166.823
 307  1359.171
 308  1119.892
 309  637.276
 310  596.2853
 311  633.0585
 312  778.8519
 313  1178.362
 314  1597.589
 315  1887.853
 316  1924.391
 317  2088.719
 318  1712.373
 319  1246.352
 320  934.6274
 321  322.0648
 322  330.8805
 323  320.1028
 324  616.5167
 325  565.1718
 326  600.7866
 327  630.1813
 328  643.4297
 329  803.2481
 330  954.3289
 331  682.4822
 332  707.8717
 333  771.7043
 334  424.2151
 335  425.3701
 336  982.769
 337  829.8065
 338  554.6082
 339  548.4953
 340  499.8831
 341  221.7206
 342  325.0941
 343  734.2805
 344  573.2784
 345  535.517
 346  755.8671
 347  719.5203
 348  655.7871
 349  723.0027
 350  634.4293
 351  699.211
 352  415.7385
 353  582.2373
 354  812.4727
 355  894.7103
 356  971.7026
 357  772.7347
 358  587.7336
 359  650.4227
 360  653.3571
 361  652.7043
 362  498.5007
 363  798.0415
 364  972.1287
 365  758.0656
 366  493.6753
 367  567.1511
 368  696.6015
 369  675.8574
 370  660.4651
 371  805.7086
 372  838.2095
 373  991.5972
 374  885.5688
 375  553.8807
 376  631.2504
 377  988.3232
 378  641.377
 379  928.5422
 380  742.8604
 381  617.7976
 382  900.1456
 383  629.7144
 384  645.9283
 385  861.3762
 386  677.7692
 387  1135.783
 388  918.5131
 389  521.108
 390  271.4666
 391  374.3813
 392  433.258
 393  659.616
 394  868.4994
 395  734.3757
 396  690.0291
 397  558.5733
 398  543.4907
 399  482.8608
 400  479.5846
 401  520.4486
 402  396.814
 403  788.0005
 404  854.7014
 405  1182.647
 406  1052.488
 407  824.7266
 408  553.855
 409  606.2449
 410  791.0886
 411  926.7823
 412  855.8523
 413  939.4036
 414  857.9802
 415  685.5073
 416  677.7981
 417  736.7286
 418  1175.412
 419  1097.199
 420  794.3132
 421  773.4174
 422  918.5835
 423  881.5265
 424  583.199
 425  543.2065
 426  726.7604
 427  883.6697
 428  653.522
 429  707.3878
 430  859.5027
 431  418.6315
 432  593.2592
 433  716.6133
 434  454.8504
 435  388.0726
 436  399.5501
 437  494.2012
 438  591.4417
 439  754.2877
 440  491.845
 441  475.0923
 442  572.9615
 443  834.7603
 444  552.4023
 445  428.5215
 446  600.1708
 447  954.8412
 448  976.2895
 449  640.7523
 450  704.6393
 451  841.0762
 452  914.2982
 453  587.5768
 454  543.9403
 455  829.351
 456  735.2671
 457  461.4927
 458  572.2585
 459  758.334
 460  807.3617
 461  713.2055
 462  644.8572
 463  568.197
 464  526.8096
 465  466.7802
 466  709.725
 467  884.4207
 468  735.4677
 469  681.9905
 470  395.7647
 471  402.8214
 472  375.9208
 473  773.6957
 474  833.9529
 475  506.2207
 476  415.1942
 477  215.023
 478  78.73029
 479  551.7933
 480  663.3627
 481  877.4009
 482  808.106
 483  1152.497
 484  1142.448
 485  1032.431
 486  855.0742
 487  758.5916
 488  795.9658
 489  854.4482
 490  557.0974
 491  779.7266
 492  681.1365
 493  371.1652
 494  619.0523
 495  571.8674
 496  777.6191
 497  572.3282
 498  655.4984
 499  599.1198
 500  758.7821
 501  812.1854
 502  509.9509
 503  424.8418
 504  790.2313
 505  560.1017
 506  665.77
 507  804.5839
 508  697.9753
 509  701.9535
 510  621.64
 511  759.9966
