# Input file       =  1193519894.150377_cleaned.dat
# Candidate        =  PSR_0332+5434
# Telescope        =  AR
# Epoch_topo       =  58057.887883684918
# Epoch_bary       =  N/A
# T_sample         =  0.002
# Data Folded      =  7340032
# Data Avg         =  0.0829555315503965
# Data StdDev      =  2.73034237485947 
# Profile Bins     =  512
# Profile Avg      =  1189.16896328765 
# Profile StdDev   =  326.912182890074 
# Reduced chi-sqr  =  1.311
# Prob(Noise)      <  2.59e-06   (~4.6 sigma)
# P_topo (ms)      =  714.495610952078  +/- 0.00021
# P'_topo (s/s)    =  -0                +/- 1.11e-10
# P''_topo (s/s^2) =  0                 +/- 4.9e-14
# P_bary (ms)      =  N/A
# P'_bary (s/s)    =  N/A
# P''_bary (s/s^2) =  N/A
# P_orb (s)        =  N/A
# asin(i)/c (s)    =  N/A
# eccentricity     =  N/A
# w (rad)          =  N/A
# T_peri           =  N/A
######################################################
   0  1066.126
   1  972.0535
   2  863.6445
   3  972.3434
   4  1334.701
   5  1203.507
   6  1418.17
   7  1258.288
   8  1226.258
   9  1453.426
  10  1264.743
  11  983.7163
  12  1363.856
  13  1301.428
  14  1216.472
  15  1204.321
  16  863.3569
  17  525.7386
  18  540.8353
  19  784.5577
  20  655.2036
  21  1096.715
  22  1000.231
  23  1060.07
  24  942.5817
  25  1068.55
  26  1183.184
  27  1399.017
  28  1327.344
  29  1504.465
  30  1278.279
  31  1099.925
  32  1044.326
  33  1231.377
  34  1222.042
  35  1157.957
  36  1395.343
  37  1344.698
  38  1664.437
  39  1369.144
  40  1156.294
  41  1209.254
  42  1358.477
  43  1351.15
  44  1100.878
  45  1001.461
  46  715.6643
  47  979.886
  48  1206.226
  49  1337.077
  50  1186.059
  51  1092.19
  52  1067.988
  53  1005.258
  54  1146.689
  55  1251.205
  56  1069.779
  57  1218.472
  58  1504.931
  59  1105.562
  60  1093.263
  61  1214.544
  62  1381.433
  63  1030.189
  64  1111.707
  65  1136.084
  66  749.3635
  67  797.9409
  68  1162.029
  69  1180.677
  70  867.371
  71  1086.811
  72  1359.412
  73  1161.199
  74  1016.956
  75  909.811
  76  1100.74
  77  1227.886
  78  1256.602
  79  1239.14
  80  1125.906
  81  1118.101
  82  1148.98
  83  1111.156
  84  1323.899
  85  1294.475
  86  1272.238
  87  1203.906
  88  1014.732
  89  781.7034
  90  933.1943
  91  1186.67
  92  856.212
  93  669.0615
  94  1077.974
  95  1070.482
  96  761.3193
  97  1008.821
  98  1131.766
  99  1241.604
 100  1373.671
 101  1626.294
 102  1079.733
 103  1066.034
 104  1223.063
 105  1316.168
 106  1218.914
 107  1330.219
 108  1310.069
 109  1373.967
 110  1064.489
 111  865.0561
 112  1058.317
 113  1267.072
 114  1267.039
 115  1129.596
 116  1463.583
 117  1477.876
 118  1389.142
 119  1253.825
 120  1367.563
 121  1541.724
 122  1070.281
 123  957.3771
 124  935.5627
 125  1140.407
 126  1139.865
 127  1132.148
 128  1242.257
 129  1275.165
 130  1296.452
 131  1435.11
 132  1344.98
 133  1186.579
 134  1069.073
 135  1223.037
 136  1604.907
 137  1550.988
 138  1111.557
 139  1013.694
 140  1064.094
 141  1278.848
 142  1220.977
 143  1129.182
 144  1132.394
 145  1141.884
 146  1229.229
 147  1098.147
 148  1331.997
 149  1474.741
 150  1502.497
 151  1267.238
 152  1057.417
 153  1038.414
 154  1272.078
 155  1324.378
 156  1313.888
 157  1126.091
 158  1334.031
 159  1004.273
 160  1011.905
 161  1109.539
 162  1028.243
 163  836.5027
 164  1077.736
 165  931.707
 166  1049.496
 167  1274.022
 168  1512.826
 169  1462.056
 170  1280.826
 171  1282.278
 172  1177.481
 173  1051.692
 174  1023.682
 175  856.3358
 176  872.9449
 177  1104.069
 178  1210.787
 179  1431.056
 180  1298.598
 181  1226.821
 182  1332.535
 183  1367.944
 184  1526.502
 185  1588.259
 186  1335.32
 187  1317.201
 188  1300.232
 189  1169.496
 190  1107.552
 191  1447.505
 192  1643.463
 193  1667.97
 194  1360.3
 195  1460.513
 196  1203.462
 197  995.9942
 198  1299.63
 199  1473.768
 200  1247.772
 201  1335.15
 202  1512.673
 203  1285.843
 204  1433.407
 205  1227.801
 206  1278.097
 207  1258.198
 208  1059.329
 209  1048.81
 210  1083.845
 211  1152.374
 212  1140.188
 213  965.8594
 214  1247.879
 215  1178.74
 216  1248.119
 217  1134.176
 218  1124.509
 219  1182.444
 220  1075.661
 221  797.7727
 222  947.9721
 223  985.0577
 224  1197.501
 225  1023.734
 226  919.8348
 227  941.1002
 228  1056.365
 229  944.3542
 230  936.0426
 231  953.6033
 232  1161.706
 233  1223.728
 234  1160.706
 235  1332.273
 236  1494.092
 237  1249
 238  1270.027
 239  1308.159
 240  1285.663
 241  1245.734
 242  1270.093
 243  1150.453
 244  955.0115
 245  899.9777
 246  969.3933
 247  1120.475
 248  1099.26
 249  1240.014
 250  1026.191
 251  1190.284
 252  1319.952
 253  1392.778
 254  1279.714
 255  1426.517
 256  1316.712
 257  1238.33
 258  1199.617
 259  1355.029
 260  1269.303
 261  1315.525
 262  1312.43
 263  1530.44
 264  1099.651
 265  1173.971
 266  1571.652
 267  1526.827
 268  1449.12
 269  1184.121
 270  1156.659
 271  1116.483
 272  1304.449
 273  1087.073
 274  1106.098
 275  1318.187
 276  1306.439
 277  983.8865
 278  1244.91
 279  1229.415
 280  1180.16
 281  1545.01
 282  1523.316
 283  1173.854
 284  1075.286
 285  980.8357
 286  840.426
 287  936.4921
 288  1048.202
 289  1138.953
 290  1020.586
 291  883.4707
 292  850.1893
 293  960.2841
 294  1121.892
 295  1471.46
 296  1543.514
 297  1411.526
 298  1285.954
 299  1117.874
 300  1237.596
 301  1114.68
 302  1272.951
 303  1218.225
 304  1405.613
 305  1193.488
 306  992.2869
 307  1115.052
 308  1442.104
 309  1661.942
 310  1625.742
 311  1581.615
 312  1821.345
 313  1903.384
 314  2149.631
 315  2563.912
 316  2998.424
 317  2934.299
 318  2847.506
 319  2425.486
 320  1970.476
 321  1787.835
 322  1650.812
 323  1450.954
 324  1259.055
 325  1191.857
 326  1321.818
 327  1331.198
 328  1548.906
 329  1579.964
 330  1414.986
 331  1465.41
 332  1046.633
 333  1296.602
 334  1398.578
 335  1001.489
 336  887.6983
 337  1189.16
 338  1363.805
 339  1258.232
 340  1042.461
 341  1092.852
 342  1174.905
 343  1273.98
 344  1291.765
 345  1461.345
 346  1296.172
 347  1259.554
 348  1148.367
 349  1230.436
 350  1307.702
 351  1270.871
 352  994.0407
 353  1265.02
 354  1498.774
 355  1605.512
 356  1234.664
 357  1169.147
 358  1447.902
 359  1417.403
 360  1294.68
 361  1196.456
 362  1032.611
 363  870.4476
 364  1026.778
 365  1186.41
 366  1506.493
 367  1289.226
 368  1172.932
 369  1167.222
 370  982.8522
 371  1086.333
 372  1295.782
 373  1108.675
 374  1302.321
 375  1455.895
 376  1485.893
 377  1547.903
 378  1382.468
 379  1194.257
 380  1260.944
 381  1023.814
 382  1002.51
 383  984.0666
 384  948.2039
 385  794.7836
 386  837.8063
 387  789.1859
 388  838.6121
 389  1205.972
 390  1524.528
 391  1306.761
 392  1318.082
 393  1432.351
 394  1292.628
 395  1364.714
 396  1105.947
 397  1096.536
 398  1185.613
 399  1073.837
 400  993.8334
 401  1042.734
 402  945.3942
 403  829.236
 404  883.0273
 405  993.6194
 406  1227.306
 407  1182.176
 408  1448.808
 409  1751.51
 410  1802.426
 411  1389.608
 412  1143.656
 413  1112.933
 414  1032.338
 415  831.9193
 416  1032.064
 417  1237
 418  1120.571
 419  939.0826
 420  757.8918
 421  794.6316
 422  1346.13
 423  1425.474
 424  1316.779
 425  996.502
 426  1063.874
 427  1037.519
 428  1193.598
 429  1250.755
 430  718.3892
 431  771.5304
 432  881.4182
 433  1065.377
 434  1128.657
 435  882.3651
 436  1017.108
 437  761.5175
 438  932.8394
 439  848.8615
 440  1281.04
 441  1446.384
 442  1228.478
 443  1101.085
 444  1192.236
 445  878.0111
 446  1152.462
 447  1166.918
 448  1088.42
 449  1141.33
 450  1362.023
 451  1156.353
 452  763.7324
 453  748.4848
 454  931.0587
 455  1011.853
 456  1195.595
 457  1126.527
 458  1104.876
 459  1066.063
 460  819.5625
 461  832.9742
 462  816.7573
 463  756.8137
 464  846.2668
 465  995.9753
 466  1038.588
 467  1151.261
 468  1145.877
 469  1085.032
 470  1113.109
 471  1248.047
 472  967.899
 473  1178.312
 474  1211.827
 475  1214.103
 476  1002.3
 477  970.1368
 478  1082.784
 479  773.2207
 480  541.0719
 481  693.559
 482  742.5088
 483  1063.146
 484  1226.134
 485  1001.872
 486  1045.462
 487  1008.538
 488  1249.776
 489  1404.839
 490  1049.057
 491  1020.023
 492  987.2572
 493  1084.639
 494  1453.381
 495  1298.869
 496  1117.049
 497  1014.273
 498  1269.316
 499  1323.192
 500  849.5257
 501  600.43
 502  971.7451
 503  1073.604
 504  1193.934
 505  1156.189
 506  1141.964
 507  756.3383
 508  752.9099
 509  1049.708
 510  1009.639
 511  1117.95
