# Input file       =  1193966255.105368_cleaned.dat
# Candidate        =  PSR_0332+5434
# Telescope        =  AR
# Epoch_topo       =  58063.054098441760
# Epoch_bary       =  N/A
# T_sample         =  0.002
# Data Folded      =  7340032
# Data Avg         =  0.0440309985736218
# Data StdDev      =  2.64213245817025 
# Profile Bins     =  512
# Profile Avg      =  631.139677275007 
# Profile StdDev   =  316.350541726332 
# Reduced chi-sqr  =  1.054
# Prob(Noise)      <  0.193   (~0.9 sigma)
# P_topo (ms)      =  714.500770357088  +/- 0.000214
# P'_topo (s/s)    =  -0                +/- 1.13e-10
# P''_topo (s/s^2) =  0                 +/- 4.98e-14
# P_bary (ms)      =  N/A
# P'_bary (s/s)    =  N/A
# P''_bary (s/s^2) =  N/A
# P_orb (s)        =  N/A
# asin(i)/c (s)    =  N/A
# eccentricity     =  N/A
# w (rad)          =  N/A
# T_peri           =  N/A
######################################################
   0  830.7874
   1  639.5488
   2  467.6656
   3  891.2875
   4  981.8859
   5  799.4532
   6  534.472
   7  333.6358
   8  640.2632
   9  909.7583
  10  1431.457
  11  1353.205
  12  1810.303
  13  1969.832
  14  1961.038
  15  1612.62
  16  1274.672
  17  1108.136
  18  711.3906
  19  427.4274
  20  504.8369
  21  631.4216
  22  715.5834
  23  352.5586
  24  373.242
  25  401.0308
  26  630.9088
  27  843.1943
  28  771.3285
  29  523.7741
  30  533.3785
  31  396.3423
  32  592.7179
  33  646.4634
  34  799.7957
  35  661.066
  36  713.4344
  37  565.0856
  38  582.525
  39  334.418
  40  262.4805
  41  553.7953
  42  331.4767
  43  649.4708
  44  787.6762
  45  759.3498
  46  494.6541
  47  256.7615
  48  294.3522
  49  507.2098
  50  939.4073
  51  861.2037
  52  895.3877
  53  664.8719
  54  640.6342
  55  723.5727
  56  543.9529
  57  484.0724
  58  720.6691
  59  781.163
  60  758.8659
  61  452.1428
  62  641.2638
  63  670.3401
  64  728.8924
  65  885.1125
  66  652.6478
  67  435.85
  68  401.2205
  69  644.8295
  70  803.3653
  71  671.1122
  72  558.0261
  73  789.5821
  74  611.598
  75  537.8445
  76  490.882
  77  688.6798
  78  572.0761
  79  382.5603
  80  641.9801
  81  383.3374
  82  267.0477
  83  455.4233
  84  661.6653
  85  639.6889
  86  375.2719
  87  384.8186
  88  757.4107
  89  716.7996
  90  718.53
  91  829.8051
  92  351.0692
  93  330.2262
  94  772.9943
  95  445.233
  96  457.7329
  97  487.1274
  98  880.6252
  99  767.1448
 100  509.0122
 101  483.4057
 102  588.9722
 103  567.4111
 104  395.6189
 105  160.7782
 106  422.6289
 107  408.1448
 108  425.0146
 109  349.9235
 110  682.9061
 111  781.7291
 112  477.4378
 113  663.3428
 114  430.4477
 115  567.3203
 116  687.8876
 117  747.02
 118  509.0997
 119  681.1273
 120  749.5334
 121  502.379
 122  638.9927
 123  644.3378
 124  806.3243
 125  583.0541
 126  601.6851
 127  567.474
 128  548.7394
 129  629.5242
 130  1050.151
 131  925.0942
 132  654.3243
 133  582.1712
 134  514.4872
 135  639.5774
 136  688.4784
 137  576.1781
 138  808.6787
 139  800.002
 140  874.5257
 141  842.7065
 142  889.6629
 143  523.7889
 144  664.3253
 145  451.7712
 146  437.2839
 147  616.6553
 148  637.2063
 149  700.8267
 150  669.5049
 151  574.9913
 152  446.4986
 153  642.3096
 154  577.2048
 155  578.051
 156  714.9766
 157  423.6631
 158  422.4886
 159  487.0294
 160  839.5446
 161  605.1619
 162  311.6744
 163  447.3359
 164  411.1719
 165  560.0717
 166  735.1683
 167  1085.036
 168  650.633
 169  766.4839
 170  681.5506
 171  621.793
 172  480.3984
 173  348.4218
 174  665.6987
 175  320.5006
 176  311.8924
 177  417.7773
 178  518.4946
 179  409.3896
 180  482.8378
 181  462.9133
 182  639.0792
 183  461.7545
 184  263.9853
 185  252.227
 186  213.6252
 187  461.4602
 188  430.4189
 189  590.6605
 190  627.0269
 191  472.6864
 192  562.7247
 193  683.3165
 194  745.364
 195  707.795
 196  567.3994
 197  369.839
 198  457.6704
 199  783.4217
 200  667.5191
 201  620.54
 202  710.9414
 203  620.2349
 204  459.7942
 205  471.1459
 206  380.2564
 207  574.523
 208  586.0475
 209  723.9246
 210  706.6871
 211  570.8519
 212  546.8686
 213  145.4567
 214  415.7816
 215  723.2265
 216  885.9096
 217  699.5308
 218  559.629
 219  634.079
 220  898.6639
 221  690.3632
 222  883.1362
 223  882.6602
 224  771.0352
 225  510.3345
 226  497.9431
 227  664.9781
 228  756.6089
 229  897.1425
 230  848.4387
 231  805.8857
 232  714.0448
 233  650.3952
 234  374.0999
 235  625.9792
 236  776.9272
 237  508.5296
 238  278.0792
 239  656.6249
 240  1106.386
 241  523.1229
 242  467.9434
 243  1014.574
 244  963.635
 245  481.3577
 246  867.9861
 247  1098.532
 248  796.5751
 249  440.8236
 250  565.3832
 251  587.5267
 252  378.0871
 253  776.7541
 254  744.3578
 255  679.7498
 256  756.558
 257  698.6689
 258  880.6152
 259  774.2672
 260  635.8148
 261  529.1391
 262  466.5174
 263  599.8891
 264  811.2441
 265  1191.189
 266  487.59
 267  579.547
 268  467.7203
 269  362.985
 270  647.3844
 271  602.7451
 272  187.9276
 273  803.2137
 274  929.9102
 275  939.8242
 276  699.7861
 277  1032.951
 278  749.1918
 279  379.2224
 280  276.7461
 281  393.9756
 282  309.8161
 283  113.3594
 284  319.0651
 285  789.0914
 286  817.9027
 287  703.8014
 288  577.9426
 289  308.1318
 290  608.3953
 291  752.3986
 292  883.3536
 293  712.5396
 294  832.0546
 295  892.1972
 296  681.4987
 297  861.6414
 298  808.7968
 299  938.7028
 300  855.3547
 301  487.7984
 302  737.4984
 303  842.3785
 304  501.1837
 305  602.1405
 306  527.8941
 307  451.2789
 308  575.1053
 309  486.386
 310  642.29
 311  448.7714
 312  535.3093
 313  505.574
 314  616.085
 315  740.5485
 316  642.3086
 317  570.5772
 318  790.4551
 319  685.6437
 320  367.1097
 321  398.4466
 322  512.2358
 323  319.6637
 324  521.0136
 325  628.972
 326  492.9485
 327  384.6795
 328  466.2
 329  238.406
 330  443.6308
 331  845.519
 332  571.6333
 333  701.9534
 334  798.1495
 335  865.0205
 336  556.8602
 337  561.6182
 338  777.5173
 339  298.4566
 340  266.0343
 341  463.6881
 342  658.2119
 343  474.5805
 344  341.3576
 345  592.3987
 346  484.6081
 347  531.5325
 348  615.2053
 349  980.7626
 350  825.915
 351  362.7049
 352  601.0267
 353  832.5593
 354  695.7197
 355  903.5587
 356  926.6448
 357  945.9114
 358  528.8613
 359  600.7703
 360  742.648
 361  628.5719
 362  355.4241
 363  337.3339
 364  423.1201
 365  583.2523
 366  480.9387
 367  589.8936
 368  488.857
 369  289.1577
 370  131.7218
 371  122.0599
 372  358.1174
 373  705.9939
 374  848.2133
 375  787.7318
 376  657.8781
 377  487.2099
 378  703.0178
 379  1004.614
 380  770.0399
 381  272.8961
 382  278.6354
 383  463.4766
 384  600.1049
 385  553.3702
 386  451.0992
 387  728.0064
 388  655.7767
 389  500.2442
 390  680.0392
 391  902.0778
 392  801.3324
 393  819.1121
 394  712.0889
 395  499.6255
 396  532.4226
 397  369.0428
 398  655.517
 399  463.4601
 400  855.3721
 401  881.2863
 402  765.6822
 403  678.7169
 404  452.9974
 405  438.4628
 406  140.0731
 407  394.1815
 408  778.2892
 409  599.2834
 410  677.3759
 411  807.671
 412  639.9429
 413  524.4508
 414  518.1411
 415  595.8499
 416  830.8557
 417  723.511
 418  1052.777
 419  1046.537
 420  588.3505
 421  607.2188
 422  863.6063
 423  846.8363
 424  1080.514
 425  940.9552
 426  492.251
 427  524.7925
 428  782.6914
 429  1117.353
 430  946.8663
 431  634.3192
 432  748.9752
 433  820.4683
 434  490.7369
 435  536.8593
 436  672.3867
 437  369.1407
 438  389.025
 439  380.2778
 440  359.7299
 441  541.7245
 442  556.2613
 443  644.5024
 444  637.5338
 445  980.0009
 446  762.196
 447  514.1859
 448  517.9333
 449  507.3465
 450  633.0299
 451  640.4542
 452  481.7219
 453  1000.987
 454  859.0646
 455  520.4785
 456  603.7635
 457  657.0923
 458  733.9844
 459  551.147
 460  372.9097
 461  -18.31772
 462  183.7828
 463  625.4849
 464  1034.491
 465  775.2197
 466  624.9465
 467  536.2228
 468  623.1303
 469  212.8506
 470  221.1505
 471  144.264
 472  304.3909
 473  542.899
 474  705.0436
 475  700.1899
 476  798.168
 477  659.9538
 478  721.8254
 479  324.0354
 480  607.4045
 481  942.3428
 482  1201.598
 483  1047.851
 484  1014.997
 485  854.8888
 486  566.4672
 487  271.566
 488  512.5472
 489  920.993
 490  887.1768
 491  918.221
 492  682.0726
 493  302.915
 494  403.934
 495  655.4196
 496  985.3519
 497  735.5162
 498  560.8758
 499  798.6758
 500  508.6898
 501  437.134
 502  503.2989
 503  934.2737
 504  1020.062
 505  887.2435
 506  639.8326
 507  756.1304
 508  852.9047
 509  722.9044
 510  650.3947
 511  820.0362
