# Input file       =  1193175289.14436_cleaned.dat
# Candidate        =  PSR_0332+5434
# Telescope        =  AR
# Epoch_topo       =  58053.899399818984
# Epoch_bary       =  N/A
# T_sample         =  0.002
# Data Folded      =  7340032
# Data Avg         =  0.0421151006022617
# Data StdDev      =  2.42502612576485 
# Profile Bins     =  512
# Profile Avg      =  603.733888191148 
# Profile StdDev   =  290.355741330811 
# Reduced chi-sqr  =  1.148
# Prob(Noise)      <  0.0112   (~2.3 sigma)
# P_topo (ms)      =  714.492032140929  +/- 0.000348
# P'_topo (s/s)    =  -0                +/- 1.84e-10
# P''_topo (s/s^2) =  0                 +/- 8.12e-14
# P_bary (ms)      =  N/A
# P'_bary (s/s)    =  N/A
# P''_bary (s/s^2) =  N/A
# P_orb (s)        =  N/A
# asin(i)/c (s)    =  N/A
# eccentricity     =  N/A
# w (rad)          =  N/A
# T_peri           =  N/A
######################################################
   0  627.4648
   1  671.0491
   2  689.0573
   3  599.4205
   4  506.4354
   5  851.0364
   6  774.0103
   7  733.527
   8  747.8658
   9  734.2566
  10  392.302
  11  566.307
  12  547.397
  13  428.0461
  14  544.2255
  15  725.7269
  16  825.6541
  17  664.2748
  18  650.9683
  19  708.927
  20  895.7782
  21  834.8433
  22  676.5723
  23  587.4695
  24  461.0066
  25  621.6862
  26  648.244
  27  568.1082
  28  541.3438
  29  348.3612
  30  376.4901
  31  456.637
  32  799.3399
  33  425.7905
  34  116.0262
  35  408.0453
  36  719.2673
  37  892.636
  38  839.337
  39  303.4323
  40  274.3351
  41  614.7265
  42  429.5417
  43  451.8296
  44  441.4417
  45  526.5591
  46  422.8984
  47  386.3862
  48  439.6534
  49  481.1189
  50  738.1235
  51  614.0759
  52  613.8329
  53  294.5741
  54  296.1111
  55  276.0575
  56  190.6281
  57  492.698
  58  934.5323
  59  796.429
  60  667.5317
  61  598.9241
  62  646.036
  63  683.7575
  64  543.2646
  65  678.3849
  66  961.1945
  67  606.4883
  68  643.7861
  69  650.042
  70  633.2213
  71  782.8308
  72  772.901
  73  367.4886
  74  299.947
  75  803.0157
  76  881.5903
  77  330.3904
  78  356.4506
  79  564.1848
  80  679.8214
  81  682.1443
  82  685.5328
  83  517.7368
  84  310.3335
  85  481.2774
  86  562.1906
  87  402.0531
  88  320.7714
  89  450.1029
  90  384.8193
  91  278.3143
  92  313.9922
  93  522.0898
  94  675.1383
  95  565.7324
  96  421.8703
  97  477.3067
  98  436.0879
  99  559.0309
 100  580.7376
 101  597.134
 102  272.4998
 103  287.6173
 104  452.5333
 105  209.8043
 106  263.0854
 107  552.4262
 108  287.5418
 109  396.3326
 110  767.9841
 111  794.9498
 112  344.9759
 113  432.4138
 114  170.545
 115  439.4644
 116  415.7221
 117  433.2078
 118  422.4753
 119  463.9716
 120  605.8709
 121  410.8337
 122  520.2755
 123  549.5829
 124  491.5755
 125  391.9402
 126  523.3708
 127  583.796
 128  484.2236
 129  615.4081
 130  1052.22
 131  1181.971
 132  897.9406
 133  492.5565
 134  573.2455
 135  507.878
 136  808.2863
 137  828.9271
 138  725.3442
 139  822.9165
 140  644.7097
 141  679.4731
 142  701.5605
 143  545.1552
 144  617.4479
 145  608.8132
 146  518.755
 147  486.7545
 148  357.8754
 149  614.6108
 150  773.7947
 151  662.7826
 152  779.5245
 153  527.21
 154  462.7537
 155  490.7497
 156  425.5219
 157  496.192
 158  589.4034
 159  380.1411
 160  617.5391
 161  684.7236
 162  847.6838
 163  506.4103
 164  582.03
 165  387.9212
 166  328.6754
 167  435.2507
 168  371.8862
 169  514.3367
 170  478.2411
 171  538.2224
 172  451.3542
 173  347.6889
 174  498.8537
 175  555.275
 176  279.6979
 177  398.4263
 178  531.6335
 179  625.5146
 180  496.1402
 181  388.6252
 182  294.414
 183  291.7242
 184  63.08742
 185  202.5782
 186  384.1828
 187  702.9288
 188  687.7007
 189  511.6944
 190  371.8099
 191  561.4161
 192  314.9132
 193  561.0276
 194  764.3073
 195  802.6986
 196  994.6026
 197  700.645
 198  719.8486
 199  818.5933
 200  869.7075
 201  593.7609
 202  429.6015
 203  462.9583
 204  402.5028
 205  228.7857
 206  476.4381
 207  742.5804
 208  723.2371
 209  786.7163
 210  720.5645
 211  636.6426
 212  882.5131
 213  421.3418
 214  548.2899
 215  695.2948
 216  480.7726
 217  202.3635
 218  256.5573
 219  630.2541
 220  623.902
 221  363.0292
 222  648.9862
 223  803.1885
 224  761.4537
 225  811.5726
 226  938.0408
 227  1019.617
 228  701.5861
 229  653.105
 230  622.8019
 231  685.7667
 232  568.9175
 233  537.565
 234  351.9745
 235  641.2428
 236  769.1984
 237  770.1727
 238  750.6157
 239  534.3715
 240  566.6558
 241  347.4261
 242  745.2825
 243  637.0807
 244  471.0591
 245  466.1069
 246  569.319
 247  745.7678
 248  682.7683
 249  286.0594
 250  404.1385
 251  724.1794
 252  676.7086
 253  660.5499
 254  564.9045
 255  613.8738
 256  824.4761
 257  886.5797
 258  373.295
 259  507.8053
 260  331.6262
 261  423.0096
 262  437.7211
 263  396.2384
 264  535.149
 265  515.9507
 266  474.8798
 267  334.9038
 268  477.5852
 269  517.374
 270  560.0214
 271  596.6059
 272  695.4484
 273  869.6768
 274  841.1862
 275  684.9133
 276  657.7704
 277  725.3432
 278  693.8482
 279  478.5606
 280  206.8155
 281  213.7582
 282  195.4394
 283  461.2729
 284  529.5032
 285  707.0026
 286  805.6242
 287  673.0698
 288  630.1986
 289  590.1582
 290  521.6466
 291  781.058
 292  820.3242
 293  537.0175
 294  527.2243
 295  596.7285
 296  646.4594
 297  610.023
 298  511.1599
 299  638.041
 300  598.8029
 301  508.5172
 302  591.7815
 303  706.6807
 304  855.6833
 305  578.2346
 306  630.56
 307  877.8837
 308  742.8554
 309  666.6185
 310  752.6074
 311  844.7259
 312  736.7799
 313  1069.457
 314  959.1569
 315  1360.984
 316  1945.894
 317  1840.101
 318  1826.304
 319  1913.652
 320  1496.629
 321  1247.754
 322  829.7289
 323  792.84
 324  756.7913
 325  615.5171
 326  590.0621
 327  477.072
 328  519.6563
 329  523.4608
 330  376.9104
 331  564.6337
 332  757.1573
 333  645.1744
 334  656.0609
 335  677.5971
 336  689.255
 337  476.5453
 338  385.5378
 339  712.1212
 340  463.0207
 341  198.1871
 342  568.5185
 343  772.9996
 344  460.7989
 345  461.3319
 346  161.1203
 347  159.0398
 348  515.5632
 349  654.6116
 350  711.3329
 351  729.6014
 352  1033.044
 353  992.6044
 354  613.0732
 355  852.6227
 356  815.3848
 357  528.6493
 358  462.6966
 359  588.5233
 360  959.1511
 361  960.6497
 362  306.8641
 363  452.7446
 364  402.4217
 365  708.5815
 366  636.9546
 367  543.803
 368  897.187
 369  512.3517
 370  591.5953
 371  623.5512
 372  787.4932
 373  606.8051
 374  555.0649
 375  769.1795
 376  758.8975
 377  711.8337
 378  895.082
 379  723.8552
 380  788.6473
 381  964.3066
 382  600.5755
 383  472.5994
 384  811.7974
 385  695.1943
 386  624.3376
 387  583.702
 388  680.4072
 389  620.7385
 390  667.0897
 391  607.9603
 392  558.053
 393  396.3199
 394  632.3567
 395  462.5136
 396  442.4368
 397  350.5071
 398  381.1559
 399  481.3529
 400  337.6382
 401  446.4166
 402  329.5637
 403  616.8982
 404  865.4777
 405  771.0864
 406  629.0024
 407  535.8457
 408  807.5043
 409  720.7787
 410  859.6086
 411  638.9678
 412  530.1716
 413  633.2085
 414  538.5974
 415  704.0864
 416  1063.008
 417  943.2637
 418  303.0608
 419  290.2336
 420  459.5079
 421  666.9474
 422  455.3325
 423  361.5494
 424  400.0193
 425  658.9796
 426  711.6395
 427  307.4395
 428  163.4831
 429  284.9965
 430  211.362
 431  574.2782
 432  763.8684
 433  648.3278
 434  604.6831
 435  323.616
 436  544.9996
 437  858.3262
 438  884.5901
 439  1004.211
 440  692.2587
 441  695.2794
 442  431.9869
 443  425.6951
 444  647.0421
 445  619.5572
 446  717.3508
 447  775.7818
 448  643.8186
 449  696.3382
 450  560.5684
 451  537.2421
 452  515.6413
 453  506.6654
 454  589.3404
 455  854.361
 456  783.1008
 457  634.6216
 458  651.2764
 459  670.3876
 460  510.3047
 461  446.2906
 462  477.6208
 463  483.2186
 464  875.3553
 465  519.5005
 466  452.4037
 467  508.0057
 468  606.9846
 469  635.0083
 470  642.2383
 471  509.6818
 472  581.1395
 473  660.5989
 474  409.7616
 475  432.8495
 476  679.4381
 477  695.9184
 478  380.8837
 479  518.6975
 480  577.6087
 481  398.5369
 482  740.7884
 483  755.0833
 484  538.7325
 485  705.198
 486  690.4645
 487  529.2497
 488  638.824
 489  797.1306
 490  979.8458
 491  848.9622
 492  344.6013
 493  794.4504
 494  1140.651
 495  1228.702
 496  816.7546
 497  628.8685
 498  763.1442
 499  523.1552
 500  503.9471
 501  558.4642
 502  645.093
 503  679.4094
 504  748.2062
 505  856.6413
 506  707.9916
 507  492.1031
 508  558.139
 509  669.2705
 510  785.9042
 511  567.2358
