# Input file       =  1193089133.132607_cleaned.dat
# Candidate        =  PSR_0332+5434
# Telescope        =  AR
# Epoch_topo       =  58052.902223757024
# Epoch_bary       =  N/A
# T_sample         =  0.002
# Data Folded      =  7340032
# Data Avg         =  0.0480793357076305
# Data StdDev      =  2.48647503363597 
# Profile Bins     =  512
# Profile Avg      =  689.690943341246 
# Profile StdDev   =  297.713205652256 
# Reduced chi-sqr  =  1.217
# Prob(Noise)      <  0.000546   (~3.3 sigma)
# P_topo (ms)      =  714.491158163529  +/- 0.000294
# P'_topo (s/s)    =  -0                +/- 1.55e-10
# P''_topo (s/s^2) =  0                 +/- 6.85e-14
# P_bary (ms)      =  N/A
# P'_bary (s/s)    =  N/A
# P''_bary (s/s^2) =  N/A
# P_orb (s)        =  N/A
# asin(i)/c (s)    =  N/A
# eccentricity     =  N/A
# w (rad)          =  N/A
# T_peri           =  N/A
######################################################
   0  742.0688
   1  894.421
   2  890.8879
   3  630.5201
   4  827.382
   5  884.3611
   6  723.9699
   7  632.9594
   8  713.9912
   9  931.8214
  10  919.5573
  11  765.9525
  12  606.0411
  13  907.8995
  14  848.3427
  15  546.3834
  16  681.2092
  17  758.3589
  18  687.3797
  19  604.9395
  20  651.1628
  21  872.2352
  22  1108.312
  23  1067.745
  24  1203.447
  25  838.6677
  26  438.386
  27  835.2177
  28  751.7653
  29  617.3299
  30  751.432
  31  776.4196
  32  892.9546
  33  708.408
  34  746.7277
  35  771.6395
  36  967.7579
  37  817.6185
  38  830.8454
  39  831.2891
  40  974.0553
  41  785.6574
  42  699.6713
  43  568.3461
  44  833.9747
  45  756.9697
  46  727.9002
  47  413.0101
  48  95.343
  49  429.4921
  50  854.2111
  51  1053.448
  52  876.7521
  53  827.8689
  54  724.805
  55  602.3347
  56  741.9994
  57  831.1662
  58  631.5602
  59  732.198
  60  1161.281
  61  1074.398
  62  1015.054
  63  786.4826
  64  916.8466
  65  1010.486
  66  997.4668
  67  920.1302
  68  854.8348
  69  875.6018
  70  1081.945
  71  964.2631
  72  884.6196
  73  893.5312
  74  923.6412
  75  711.5822
  76  710.882
  77  708.7438
  78  371.7088
  79  492.4824
  80  710.0441
  81  770.9449
  82  547.4352
  83  847.4043
  84  778.0706
  85  898.3212
  86  762.7473
  87  882.0825
  88  716.1087
  89  681.17
  90  885.6114
  91  853.7402
  92  418.4142
  93  341.8432
  94  808.6748
  95  970.7476
  96  601.2162
  97  471.445
  98  681.2687
  99  856.6263
 100  683.703
 101  712.0385
 102  760.7468
 103  624.6465
 104  779.5361
 105  1010.525
 106  645.2447
 107  654.6297
 108  531.27
 109  672.8246
 110  402.5945
 111  458.7163
 112  789.7595
 113  840.1545
 114  693.8373
 115  736.8411
 116  800.0819
 117  684.2094
 118  770.0801
 119  575.0515
 120  566.108
 121  750.2217
 122  531.54
 123  554.2289
 124  620.5133
 125  710.0157
 126  702.7283
 127  832.0937
 128  763.5247
 129  526.609
 130  711.6746
 131  748.4953
 132  527.7728
 133  651.1347
 134  656.9462
 135  276.9962
 136  606.4782
 137  498.2274
 138  446.6927
 139  386.7552
 140  601.6701
 141  579.6948
 142  587.3333
 143  662.6859
 144  605.6765
 145  598.9503
 146  678.8306
 147  1102.15
 148  1013.466
 149  969.9254
 150  810.6074
 151  856.6286
 152  1009.576
 153  775.5734
 154  658.511
 155  672.1798
 156  647.6241
 157  681.5818
 158  597.53
 159  853.1013
 160  610.7686
 161  679.6813
 162  689.7301
 163  643.5936
 164  543.4349
 165  765.9377
 166  872.3317
 167  913.9641
 168  783.058
 169  687.9636
 170  677.6403
 171  425.2248
 172  188.2058
 173  418.6299
 174  749.7064
 175  975.7878
 176  545.6939
 177  663.6443
 178  718.5198
 179  723.6313
 180  715.2979
 181  863.1014
 182  907.94
 183  779.4174
 184  571.2985
 185  678.9802
 186  579.5284
 187  499.1397
 188  47.26925
 189  279.1693
 190  582.2531
 191  616.5085
 192  508.4981
 193  287.0993
 194  372.8461
 195  256.5663
 196  530.5829
 197  777.6401
 198  699.7429
 199  587.7037
 200  441.5148
 201  587.1911
 202  696.1551
 203  567.9237
 204  598.9596
 205  701.9957
 206  417.4231
 207  469.8058
 208  541.0551
 209  378.7913
 210  791.3578
 211  514.3002
 212  905.3453
 213  877.4834
 214  601.8057
 215  630.6595
 216  310.9672
 217  328.1182
 218  510.949
 219  608.6072
 220  617.385
 221  693.6056
 222  662.2214
 223  620.9468
 224  580.2045
 225  509.6719
 226  788.4219
 227  531.9224
 228  506.8091
 229  585.5718
 230  779.325
 231  592.5425
 232  635.0774
 233  607.5671
 234  611.7966
 235  426.2942
 236  645.71
 237  677.8553
 238  541.5522
 239  442.0132
 240  607.6074
 241  829.9846
 242  681.737
 243  651.3165
 244  574.7845
 245  427.2841
 246  307.2267
 247  383.886
 248  578.6757
 249  454.0276
 250  307.9372
 251  218.6986
 252  510.8828
 253  565.7166
 254  649.6911
 255  747.3327
 256  784.0889
 257  728.088
 258  612.6945
 259  651.417
 260  600.561
 261  490.4734
 262  578.8607
 263  742.028
 264  683.2645
 265  810.8657
 266  607.8658
 267  762.0095
 268  677.4125
 269  708.4781
 270  733.6317
 271  822.2997
 272  804.6321
 273  566.7247
 274  506.5621
 275  590.0087
 276  543.9644
 277  445.1487
 278  463.182
 279  706.6261
 280  502.2203
 281  337.4691
 282  271.5232
 283  601.8951
 284  426.5799
 285  212.0001
 286  161.9734
 287  376.5664
 288  672.5724
 289  689.3188
 290  334.5003
 291  330.2735
 292  279.9535
 293  681.5327
 294  676.2462
 295  442.7575
 296  472.8127
 297  783.0896
 298  926.2403
 299  781.0004
 300  770.8599
 301  1067.824
 302  673.7925
 303  420.2298
 304  762.8578
 305  964.3896
 306  536.4163
 307  576.8066
 308  583.4862
 309  718.8928
 310  1030.908
 311  1144.701
 312  902.6382
 313  747.4891
 314  964.9192
 315  1089.959
 316  1687.848
 317  2346.544
 318  2396.709
 319  2165.4
 320  1523.201
 321  1054.594
 322  870.2055
 323  870.0272
 324  820.1766
 325  853.1041
 326  811.7095
 327  698.3426
 328  774.9072
 329  585.5267
 330  713.6729
 331  555.7148
 332  522.604
 333  366.9485
 334  335.5925
 335  541.1675
 336  593.2479
 337  633.0463
 338  421.6299
 339  711.7936
 340  1168.958
 341  869.1868
 342  825.5395
 343  779.64
 344  360.537
 345  505.101
 346  546.1873
 347  544.7857
 348  571.0459
 349  510.7511
 350  590.1905
 351  683.8193
 352  635.8435
 353  762.3135
 354  468.3661
 355  660.0532
 356  893.0858
 357  759.8178
 358  849.4441
 359  638.9404
 360  452.3067
 361  537.0139
 362  364.2676
 363  460.3134
 364  338.5101
 365  766.8275
 366  796.5361
 367  977.4921
 368  741.806
 369  760.2104
 370  1041.975
 371  941.283
 372  974.3719
 373  500.9985
 374  687.7868
 375  897.8029
 376  612.6608
 377  540.761
 378  739.8224
 379  546.2062
 380  646.2231
 381  553.7653
 382  451.8675
 383  613.5807
 384  751.7399
 385  460.6286
 386  437.2014
 387  586.9759
 388  437.1325
 389  655.0445
 390  682.2174
 391  984.0938
 392  776.6459
 393  592.0872
 394  467.1032
 395  344.1779
 396  672.1187
 397  766.7686
 398  597.1261
 399  794.7383
 400  659.7067
 401  662.3664
 402  847.6434
 403  722.2012
 404  362.9715
 405  709.7816
 406  1190.508
 407  660.9931
 408  524.1651
 409  602.6906
 410  841.0201
 411  699.6744
 412  922.3026
 413  725.7609
 414  155.7441
 415  523.5348
 416  592.6833
 417  636.1869
 418  516.6807
 419  324.5015
 420  442.6789
 421  593.2051
 422  774.5263
 423  580.119
 424  576.7144
 425  614.3342
 426  759.6283
 427  468.6172
 428  592.2169
 429  492.6507
 430  358.6497
 431  386.9414
 432  407.3922
 433  1178.863
 434  968.7087
 435  750.86
 436  774.7429
 437  758.5448
 438  871.6997
 439  848.9583
 440  830.7294
 441  1042.364
 442  720.0847
 443  754.145
 444  832.6835
 445  936.1112
 446  519.3679
 447  576.3961
 448  492.2652
 449  617.4676
 450  417.0355
 451  310.4686
 452  566.7443
 453  763.0328
 454  732.286
 455  830.4844
 456  905.1658
 457  833.4608
 458  719.8461
 459  827.642
 460  651.4175
 461  281.0128
 462  268.143
 463  406.2998
 464  359.3048
 465  686.9146
 466  875.491
 467  879.0281
 468  893.3531
 469  906.1035
 470  908.4449
 471  619.4618
 472  639.0781
 473  796.7045
 474  793.278
 475  875.3871
 476  707.0123
 477  463.5887
 478  210.018
 479  352.4784
 480  763.1025
 481  841.7888
 482  564.2666
 483  598.7731
 484  491.4734
 485  823.0571
 486  837.8298
 487  565.811
 488  572.0182
 489  583.0228
 490  751.589
 491  664.1755
 492  724.9126
 493  648.7399
 494  790.8265
 495  976.4619
 496  918.7039
 497  843.8493
 498  821.1436
 499  901.5106
 500  1003.804
 501  875.6492
 502  895.2305
 503  848.6761
 504  768.4577
 505  782.6346
 506  992.5969
 507  939.5156
 508  674.7108
 509  798.5457
 510  633.7573
 511  390.1328
