# Input file       =  1193419152.126804_cleaned.dat
# Candidate        =  PSR_0332+5434
# Telescope        =  AR
# Epoch_topo       =  58056.721888041713
# Epoch_bary       =  N/A
# T_sample         =  0.002
# Data Folded      =  7143424
# Data Avg         =  0.0116389981289518
# Data StdDev      =  1.0000573224088  
# Profile Bins     =  512
# Profile Avg      =  162.371463415887 
# Profile StdDev   =  118.125355323654 
# Reduced chi-sqr  =  1.433
# Prob(Noise)      <  4.06e-10   (~6.1 sigma)
# P_topo (ms)      =  714.494539883914  +/- 0.000205
# P'_topo (s/s)    =  -0                +/- 1.11e-10
# P''_topo (s/s^2) =  0                 +/- 5.04e-14
# P_bary (ms)      =  N/A
# P'_bary (s/s)    =  N/A
# P''_bary (s/s^2) =  N/A
# P_orb (s)        =  N/A
# asin(i)/c (s)    =  N/A
# eccentricity     =  N/A
# w (rad)          =  N/A
# T_peri           =  N/A
######################################################
   0  839.1835
   1  783.3668
   2  591.0285
   3  369.6379
   4  221.8957
   5  126.3225
   6  152.6032
   7  157.0529
   8  260.6148
   9  241.3363
  10  323.3355
  11  389.6497
  12  132.8578
  13  205.5134
  14  283.7938
  15  214.9499
  16  201.2519
  17  233.7898
  18  179.3773
  19  116.0175
  20  69.02078
  21  41.75284
  22  135.9679
  23  171.0162
  24  129.4678
  25  116.8281
  26  21.34977
  27  112.5857
  28  138.2862
  29  108.4472
  30  164.125
  31  263.3406
  32  370.2941
  33  290.8639
  34  231.764
  35  285.7404
  36  207.3225
  37  269.83
  38  235.3689
  39  140.7774
  40  82.71756
  41  79.75156
  42  18.63124
  43  61.83447
  44  86.32966
  45  111.0253
  46  129.1744
  47  123.8616
  48  221.1308
  49  203.8175
  50  259.7881
  51  79.34179
  52  121.2962
  53  144.8269
  54  187.3253
  55  172.6494
  56  238.513
  57  271.2823
  58  186.9736
  59  322.7617
  60  147.8143
  61  191.2018
  62  242.7527
  63  77.23637
  64  134.6719
  65  -1.038916
  66  57.43246
  67  39.82477
  68  124.9384
  69  192.4039
  70  118.6431
  71  95.85168
  72  80.65502
  73  -6.162504
  74  42.89169
  75  35.35723
  76  228.5682
  77  247.5517
  78  241.5932
  79  144.9442
  80  159.6113
  81  314.9805
  82  193.3224
  83  76.62141
  84  147.9264
  85  215.7148
  86  242.8988
  87  216.4736
  88  158.659
  89  212.0757
  90  139.7805
  91  63.07406
  92  259.9675
  93  342.7315
  94  254.6374
  95  47.49656
  96  145.8776
  97  184.9134
  98  139.5177
  99  263.6859
 100  287.6966
 101  102.0973
 102  111.5629
 103  247.6022
 104  26.57552
 105  21.24742
 106  85.63972
 107  125.1361
 108  110.4832
 109  145.9689
 110  185.3088
 111  241.9645
 112  204.3618
 113  61.41715
 114  187.4181
 115  118.2694
 116  83.37629
 117  315.0223
 118  214.4296
 119  74.69197
 120  142.4879
 121  168.6591
 122  160.8225
 123  96.65274
 124  147.8393
 125  187.3263
 126  182.9505
 127  118.1639
 128  157.5952
 129  46.44498
 130  72.63312
 131  -14.33983
 132  151.2096
 133  71.33626
 134  114.0738
 135  235.2444
 136  124.4294
 137  49.58072
 138  171.6705
 139  241.3434
 140  127.7663
 141  61.08727
 142  259.5241
 143  400.7586
 144  396.2962
 145  249.7695
 146  55.51763
 147  40.01124
 148  179.6267
 149  133.0446
 150  144.5497
 151  180.3713
 152  149.0668
 153  151.3665
 154  132.8004
 155  73.88496
 156  24.67458
 157  91.26761
 158  103.9283
 159  96.33316
 160  49.45847
 161  209.0258
 162  226.2475
 163  181.6327
 164  93.43647
 165  136.8498
 166  167.3631
 167  226.4012
 168  295.5129
 169  252.7029
 170  189.9042
 171  179.4623
 172  151.8104
 173  266.6939
 174  78.7513
 175  99.1717
 176  160.8815
 177  145.5148
 178  199.5371
 179  160.9034
 180  147.5023
 181  62.0176
 182  29.79152
 183  65.97567
 184  119.172
 185  229.8157
 186  198.698
 187  74.019
 188  30.2867
 189  127.9391
 190  22.5605
 191  143.1761
 192  261.9007
 193  210.3105
 194  52.62282
 195  244.1011
 196  170.8779
 197  131.7906
 198  151.145
 199  187.8911
 200  189.3447
 201  104.0576
 202  103.5791
 203  76.80563
 204  170.0384
 205  203.4028
 206  300.8496
 207  219.3267
 208  91.037
 209  8.27252
 210  143.9743
 211  151.6305
 212  153.3082
 213  85.9304
 214  46.68146
 215  209.8469
 216  228.5584
 217  175.972
 218  165.1324
 219  87.08833
 220  155.4821
 221  110.0241
 222  225.855
 223  185.8034
 224  216.2711
 225  135.4428
 226  85.59358
 227  167.6233
 228  146.3227
 229  279.0264
 230  240.4206
 231  166.8368
 232  130.4297
 233  87.48526
 234  167.4146
 235  85.33714
 236  100.0745
 237  136.2821
 238  126.8821
 239  64.80975
 240  109.7142
 241  193.8829
 242  197.3807
 243  107.6799
 244  141.444
 245  194.9143
 246  151.5323
 247  136.1707
 248  186.7078
 249  134.0286
 250  89.85937
 251  59.31522
 252  -18.09733
 253  -60.65372
 254  72.32989
 255  143.686
 256  93.15503
 257  77.64455
 258  148.5784
 259  200.429
 260  92.20646
 261  223.1042
 262  265.879
 263  91.90017
 264  187.8456
 265  203.4934
 266  55.59984
 267  66.53326
 268  125.5259
 269  111.06
 270  194.5805
 271  200.6768
 272  158.951
 273  122.7225
 274  144.5628
 275  269.5762
 276  196.3496
 277  295.4201
 278  281.2537
 279  120.3016
 280  46.26941
 281  148.7867
 282  84.65898
 283  204.4518
 284  213.5338
 285  174.1847
 286  69.38396
 287  24.61226
 288  65.47852
 289  168.0994
 290  48.32342
 291  -16.66814
 292  -2.610593
 293  163.95
 294  118.838
 295  184.229
 296  129.8369
 297  45.48371
 298  -40.06842
 299  84.39268
 300  181.4599
 301  200.0534
 302  -49.68408
 303  127.1846
 304  243.7976
 305  260.4153
 306  180.2622
 307  29.55056
 308  89.04574
 309  63.09044
 310  46.99468
 311  182.5526
 312  116.0296
 313  181.5525
 314  218.5581
 315  403.367
 316  298.7959
 317  126.1111
 318  89.57082
 319  214.8288
 320  139.9238
 321  -32.66256
 322  141.3023
 323  84.30961
 324  132.9461
 325  76.66171
 326  84.25751
 327  273.5806
 328  242.0684
 329  240.5823
 330  123.3255
 331  133.7218
 332  247.4127
 333  142.7823
 334  112.1334
 335  67.93871
 336  64.11036
 337  115.5361
 338  188.9164
 339  147.3172
 340  66.45262
 341  84.58618
 342  203.2483
 343  271.1464
 344  270.8592
 345  129.1024
 346  54.95736
 347  133.5439
 348  137.2346
 349  124.138
 350  323.4173
 351  385.919
 352  155.7559
 353  177.2595
 354  235.6886
 355  199.1872
 356  88.04276
 357  21.53514
 358  213.7185
 359  137.0377
 360  180.9803
 361  127.6519
 362  148.7575
 363  235.8456
 364  174.7402
 365  146.3894
 366  113.9167
 367  152.2809
 368  182.6495
 369  192.5846
 370  140.7469
 371  104.1985
 372  131.7986
 373  41.05196
 374  232.2515
 375  357.0806
 376  187.2034
 377  150.3669
 378  177.3715
 379  50.92061
 380  144.9627
 381  196.5553
 382  187.0325
 383  35.21985
 384  32.13697
 385  167.2234
 386  132.8637
 387  33.80711
 388  127.1919
 389  139.095
 390  108.3093
 391  253.4073
 392  193.8633
 393  176.5707
 394  147.0873
 395  153.425
 396  178.2985
 397  163.2664
 398  120.226
 399  23.0969
 400  105.7217
 401  192.8584
 402  76.10438
 403  89.75982
 404  173.2119
 405  114.6727
 406  175.1513
 407  146.437
 408  176.8539
 409  280.8863
 410  213.2757
 411  54.16876
 412  61.96494
 413  108.5072
 414  141.3091
 415  158.9645
 416  189.8466
 417  128.5889
 418  149.9052
 419  222.6667
 420  138.4853
 421  99.25837
 422  199.3425
 423  259.7117
 424  267.3629
 425  211.2799
 426  183.9884
 427  54.98694
 428  230.7091
 429  293.2876
 430  231.5456
 431  100.3189
 432  119.7174
 433  196.2157
 434  182.2311
 435  52.3536
 436  165.5501
 437  267.1237
 438  219.0898
 439  107.8674
 440  145.1663
 441  39.2393
 442  35.00102
 443  160.6691
 444  73.36006
 445  97.67936
 446  236.2242
 447  298.6147
 448  287.5106
 449  96.74207
 450  104.4161
 451  184.6619
 452  71.77306
 453  165.7365
 454  172.9736
 455  10.49545
 456  -16.72438
 457  64.71848
 458  315.8962
 459  307.9704
 460  263.4777
 461  224.1344
 462  158.8477
 463  64.14106
 464  114.8694
 465  308.9861
 466  158.6392
 467  170.7406
 468  222.8557
 469  177.8294
 470  222.3847
 471  157.7594
 472  286.0948
 473  199.2292
 474  124.6758
 475  158.9948
 476  86.66148
 477  8.210346
 478  146.5322
 479  110.9565
 480  119.6029
 481  160.9698
 482  192.2192
 483  235.2783
 484  148.7949
 485  57.67165
 486  -27.47414
 487  11.30243
 488  180.2413
 489  223.6371
 490  176.0977
 491  100.4621
 492  198.2637
 493  240.2581
 494  156.7809
 495  128.263
 496  175.8047
 497  215.5408
 498  278.3829
 499  219.1939
 500  172.2664
 501  182.194
 502  166.5648
 503  313.6672
 504  373.2723
 505  341.564
 506  275.8211
 507  354.6117
 508  373.8126
 509  528.7021
 510  777.8016
 511  818.8198
