# Input file       =  1193433754.154644_cleaned.dat
# Candidate        =  PSR_0332+5434
# Telescope        =  AR
# Epoch_topo       =  58056.890892993564
# Epoch_bary       =  N/A
# T_sample         =  0.002
# Data Folded      =  7340032
# Data Avg         =  0.0561478069555181
# Data StdDev      =  2.74118545457275 
# Profile Bins     =  512
# Profile Avg      =  804.657878397187 
# Profile StdDev   =  328.210457747821 
# Reduced chi-sqr  =  0.984
# Prob(Noise)      <  0.594   (~0.0 sigma)
# P_topo (ms)      =  714.494704763567  +/- 0.000637
# P'_topo (s/s)    =  -0                +/- 3.36e-10
# P''_topo (s/s^2) =  0                 +/- 1.48e-13
# P_bary (ms)      =  N/A
# P'_bary (s/s)    =  N/A
# P''_bary (s/s^2) =  N/A
# P_orb (s)        =  N/A
# asin(i)/c (s)    =  N/A
# eccentricity     =  N/A
# w (rad)          =  N/A
# T_peri           =  N/A
######################################################
   0  346.3687
   1  406.3246
   2  527.9601
   3  668.3981
   4  852.9664
   5  929.301
   6  907.8906
   7  814.4208
   8  563.4886
   9  695.9533
  10  743.5413
  11  832.1736
  12  602.4495
  13  579.6848
  14  845.0368
  15  768.992
  16  772.7476
  17  636.5312
  18  498.4042
  19  544.207
  20  532.0049
  21  648.9138
  22  1108.589
  23  892.5585
  24  708.1118
  25  640.7397
  26  606.9412
  27  318.1382
  28  392.8361
  29  1052.51
  30  637.0766
  31  813.4799
  32  663.3813
  33  728.0768
  34  753.3115
  35  706.7081
  36  508.0916
  37  741.7489
  38  758.5129
  39  1065.667
  40  893.4384
  41  673.0494
  42  499.4114
  43  676.4772
  44  927.1959
  45  1163.186
  46  1154.406
  47  878.1804
  48  786.1114
  49  815.0328
  50  733.3418
  51  771.5013
  52  897.1761
  53  1237.403
  54  960.7163
  55  729.7734
  56  996.5068
  57  818.3337
  58  506.6633
  59  704.7404
  60  816.7998
  61  728.0165
  62  570.7033
  63  752.1048
  64  905.215
  65  728.7112
  66  723.0085
  67  836.3104
  68  924.7343
  69  1069.809
  70  997.8392
  71  943.5718
  72  811.824
  73  838.9632
  74  875.2089
  75  894.2761
  76  511.0385
  77  356.6088
  78  590.696
  79  583.8982
  80  860.0168
  81  662.7343
  82  802.9041
  83  432.8798
  84  882.884
  85  837.058
  86  575.8924
  87  638.5555
  88  946.4622
  89  930.0934
  90  648.7739
  91  532.5683
  92  792.1413
  93  937.1885
  94  609.6225
  95  431.0693
  96  785.9956
  97  894.4488
  98  869.4401
  99  740.7434
 100  652.2338
 101  916.6762
 102  528.8739
 103  897.2391
 104  944.5302
 105  871.5425
 106  838.453
 107  675.4074
 108  802.4617
 109  563.9958
 110  795.1035
 111  773.1175
 112  946.9094
 113  915.2301
 114  937.691
 115  1131.094
 116  1267.236
 117  1016.235
 118  732.4639
 119  690.5833
 120  989.4392
 121  961.277
 122  954.441
 123  983.7036
 124  938.8604
 125  860.6721
 126  852.6252
 127  737.5779
 128  637.4382
 129  975.3969
 130  837.2398
 131  859.1968
 132  900.0135
 133  740.6945
 134  1054.647
 135  1060.314
 136  882.2127
 137  745.6591
 138  873.0712
 139  584.0807
 140  639.6638
 141  664.8306
 142  566.6862
 143  594.5966
 144  795.335
 145  790.551
 146  989.2914
 147  1019.978
 148  1117.114
 149  1076.178
 150  586.0682
 151  678.5029
 152  495.6824
 153  727.0154
 154  930.726
 155  919.3369
 156  728.5273
 157  686.7114
 158  1251.045
 159  942.379
 160  621.1619
 161  869.6533
 162  903.3255
 163  929.4061
 164  906.6229
 165  1009.185
 166  592.3675
 167  501.4734
 168  601.105
 169  674.8307
 170  478.4029
 171  403.225
 172  501.3941
 173  704.2026
 174  702.4902
 175  739.5143
 176  611.2094
 177  419.0708
 178  592.5987
 179  783.5651
 180  663.7455
 181  839.0612
 182  1095.765
 183  789.6313
 184  796.39
 185  920.3292
 186  866.903
 187  725.7255
 188  813.9252
 189  1127.979
 190  856.7913
 191  608.8804
 192  890.7332
 193  1106.321
 194  994.3184
 195  1071.871
 196  913.6234
 197  1010.141
 198  1017.363
 199  1048.546
 200  757.6138
 201  540.9268
 202  625.5999
 203  792.0905
 204  1112.876
 205  941.7894
 206  885.5955
 207  974.7969
 208  1062.141
 209  785.6541
 210  688.8566
 211  809.9529
 212  678.5547
 213  811.719
 214  1005.745
 215  1017.618
 216  767.4443
 217  471.4821
 218  623.6987
 219  1115.979
 220  1030.836
 221  721.6568
 222  823.3843
 223  484.1064
 224  596.1597
 225  1068.134
 226  1016.446
 227  652.9002
 228  921.9672
 229  917.6639
 230  1038.645
 231  873.3433
 232  969.1673
 233  780.7189
 234  936.2628
 235  1113.84
 236  847.7695
 237  807.1962
 238  565.7723
 239  585.3557
 240  698.4728
 241  968.1931
 242  837.6822
 243  958.814
 244  1031.871
 245  956.7691
 246  789.1998
 247  913.0365
 248  662.308
 249  1025.112
 250  898.1877
 251  714.6295
 252  391.6396
 253  528.6386
 254  656.4542
 255  473.8436
 256  678.4741
 257  465.0653
 258  634.1003
 259  658.3897
 260  603.7054
 261  806.8511
 262  978.0706
 263  1048.741
 264  732.5738
 265  641.1034
 266  633.8108
 267  685.8347
 268  707.6397
 269  781.5169
 270  567.377
 271  811.9727
 272  848.793
 273  651.4666
 274  532.1499
 275  764.3558
 276  1106.787
 277  1001.821
 278  805.6398
 279  959.583
 280  1050.473
 281  659.6717
 282  663.9871
 283  630.5986
 284  717.0894
 285  958.2433
 286  481.4818
 287  528.2714
 288  376.64
 289  580.6754
 290  675.6434
 291  713.7695
 292  545.9785
 293  892.7865
 294  987.4407
 295  1055.547
 296  767.29
 297  916.6966
 298  688.6865
 299  639.362
 300  715.5739
 301  723.3779
 302  640.1409
 303  770.1723
 304  970.8388
 305  930.522
 306  936.8731
 307  1323.973
 308  1110.225
 309  1139.388
 310  1300.885
 311  1083.838
 312  1054.057
 313  1290.831
 314  1591.392
 315  1799.757
 316  2162.175
 317  2248.797
 318  2230.906
 319  2074.412
 320  1570.535
 321  1075.007
 322  777.2579
 323  949.9073
 324  850.0031
 325  669.2357
 326  821.0258
 327  1023.797
 328  794.1193
 329  819.2968
 330  954.2021
 331  1026.086
 332  808.9232
 333  884.9877
 334  698.8138
 335  601.9471
 336  712.3807
 337  494.6526
 338  690.4639
 339  755.1633
 340  636.031
 341  453.7722
 342  641.47
 343  1052.763
 344  975.2036
 345  887.3055
 346  502.5133
 347  528.8147
 348  671.6936
 349  641.4205
 350  838.3675
 351  1022.171
 352  487.3233
 353  240.4154
 354  247.5741
 355  712.0233
 356  861.5745
 357  788.3428
 358  878.7239
 359  807.4702
 360  779.4451
 361  864.5106
 362  685.6326
 363  774.4612
 364  942.9658
 365  646.4049
 366  473.5293
 367  560.8482
 368  824.5524
 369  723.6084
 370  507.3279
 371  950.5429
 372  1016.584
 373  896.0617
 374  897.1538
 375  1175.174
 376  726.6119
 377  511.941
 378  717.4754
 379  985.4208
 380  1158.462
 381  638.9634
 382  608.6772
 383  874.6543
 384  651.0289
 385  830.1772
 386  1055.612
 387  1004.887
 388  659.3863
 389  727.3646
 390  966.7983
 391  667.6281
 392  704.6695
 393  693.3109
 394  603.3095
 395  522.3602
 396  360.9915
 397  403.7018
 398  770.9396
 399  733.2223
 400  586.1726
 401  695.6559
 402  398.4225
 403  611.5134
 404  616.6409
 405  766.6348
 406  776.516
 407  714.8336
 408  620.7023
 409  822.3882
 410  620.2405
 411  680.0588
 412  608.2576
 413  992.916
 414  913.2278
 415  712.9866
 416  978.959
 417  915.0084
 418  504.3355
 419  604.731
 420  732.6336
 421  691.0356
 422  782.8138
 423  662.7061
 424  1063.82
 425  1147.977
 426  518.2218
 427  694.1313
 428  560.5266
 429  424.1118
 430  233.9025
 431  763.7862
 432  1099.675
 433  842.8645
 434  729.7055
 435  487.271
 436  602.0878
 437  665.5995
 438  821.9575
 439  821.4975
 440  1017.866
 441  630.7157
 442  523.5022
 443  664.3033
 444  695.7676
 445  899.6158
 446  994.3387
 447  783.3777
 448  615.222
 449  759.0433
 450  937.072
 451  956.3467
 452  821.551
 453  913.9424
 454  1018.853
 455  891.5074
 456  819.3172
 457  789.4865
 458  883.0117
 459  719.6415
 460  699.9211
 461  788.1299
 462  737.1133
 463  784.2468
 464  794.8874
 465  689.1179
 466  727.2079
 467  762.3705
 468  925.4282
 469  858.0189
 470  952.674
 471  1189.385
 472  1168.491
 473  1030.078
 474  1039.406
 475  847.0564
 476  634.6402
 477  884.9212
 478  549.1686
 479  928.7305
 480  1167.483
 481  982.5562
 482  885.1463
 483  986.8863
 484  911.2242
 485  661.7463
 486  636.85
 487  896.9035
 488  768.8152
 489  929.4811
 490  691.8602
 491  853.8536
 492  864.8829
 493  758.3152
 494  971.824
 495  600.8167
 496  929.236
 497  1133.247
 498  958.3253
 499  1003.471
 500  892.1819
 501  1074.405
 502  683.5519
 503  558.8966
 504  791.6755
 505  983.2294
 506  784.9443
 507  540.4153
 508  712.9243
 509  838.6823
 510  1195.25
 511  777.5797
