# Input file       =  1193433754.154644_cleaned.dat
# Candidate        =  PSR_0332+5434
# Telescope        =  AR
# Epoch_topo       =  58056.890892993564
# Epoch_bary       =  N/A
# T_sample         =  0.002
# Data Folded      =  7340032
# Data Avg         =  0.0561478069555181
# Data StdDev      =  2.74118545457275 
# Profile Bins     =  512
# Profile Avg      =  804.657878081203 
# Profile StdDev   =  328.210457747821 
# Reduced chi-sqr  =  0.986
# Prob(Noise)      <  0.583   (~0.0 sigma)
# P_topo (ms)      =  714.4947046846    +/- 0.000637
# P'_topo (s/s)    =  -0                +/- 3.36e-10
# P''_topo (s/s^2) =  0                 +/- 1.48e-13
# P_bary (ms)      =  N/A
# P'_bary (s/s)    =  N/A
# P''_bary (s/s^2) =  N/A
# P_orb (s)        =  N/A
# asin(i)/c (s)    =  N/A
# eccentricity     =  N/A
# w (rad)          =  N/A
# T_peri           =  N/A
######################################################
   0  850.3795
   1  1037.044
   2  829.4982
   3  1204.037
   4  1290.806
   5  1006.449
   6  1334.759
   7  1121.195
   8  1027.291
   9  1180.075
  10  1477.697
  11  1734.609
  12  2010.97
  13  2295.009
  14  2158.283
  15  2254.603
  16  1716.872
  17  1322.589
  18  820.0103
  19  848.6966
  20  977.2569
  21  648.7145
  22  774.8031
  23  900.5623
  24  988.3242
  25  702.4962
  26  939.1658
  27  1015.624
  28  899.2277
  29  859.7714
  30  816.6974
  31  571.7734
  32  705.7871
  33  567.3046
  34  550.8899
  35  824.8028
  36  640.3354
  37  549.8724
  38  464.8117
  39  992.7462
  40  1011.858
  41  938.6572
  42  631.6874
  43  497.7205
  44  610.4941
  45  687.8305
  46  652.6818
  47  1104.276
  48  678.3957
  49  286.9876
  50  184.4655
  51  509.8362
  52  902.4252
  53  758.4508
  54  869.9987
  55  872.6658
  56  774.4735
  57  824.3597
  58  793.8199
  59  629.8619
  60  969.5533
  61  736.3055
  62  537.2026
  63  502.056
  64  690.0715
  65  869.8477
  66  477.1207
  67  789.5644
  68  1013.538
  69  987.0805
  70  833.5607
  71  1157.31
  72  924.6913
  73  534.7474
  74  635.6769
  75  865.5014
  76  1140.32
  77  872.4673
  78  517.1869
  79  846.537
  80  730.1416
  81  704.0226
  82  989.168
  83  1085.187
  84  744.4992
  85  643.232
  86  936.9719
  87  801.3405
  88  619.7992
  89  717.5943
  90  654.1211
  91  563.3301
  92  427.3569
  93  329.4682
  94  633.7067
  95  807.7658
  96  587.4398
  97  720.2719
  98  504.6337
  99  494.8566
 100  604.8913
 101  697.2434
 102  773.7905
 103  788.1334
 104  616.936
 105  771.2842
 106  722.2331
 107  626.6955
 108  624.3547
 109  819.1533
 110  1043.199
 111  722.8865
 112  855.7242
 113  1017.604
 114  635.2021
 115  499.9742
 116  716.4777
 117  691.8467
 118  765.0013
 119  708.6007
 120  820.9932
 121  1286.503
 122  719.2733
 123  598.7067
 124  647.3438
 125  515.5692
 126  217.6481
 127  484.6273
 128  1067.62
 129  951.4549
 130  768.6575
 131  564.3902
 132  528.7777
 133  672.4416
 134  752.7892
 135  827.5386
 136  924.4503
 137  894.8163
 138  466.7095
 139  647.3966
 140  630.2485
 141  832.4593
 142  956.7878
 143  899.4957
 144  620.9595
 145  691.0428
 146  893.5207
 147  943.1247
 148  905.4476
 149  842.7491
 150  1027.195
 151  942.1699
 152  829.6388
 153  794.5527
 154  878.6665
 155  752.2086
 156  698.2072
 157  749.5807
 158  802.823
 159  750.8262
 160  772.949
 161  728.8863
 162  693.1445
 163  756.4047
 164  892.0745
 165  888.0145
 166  875.2099
 167  1075.714
 168  1250.722
 169  1052.667
 170  1037.269
 171  981.5468
 172  587.9622
 173  919.5259
 174  575.585
 175  758.5599
 176  1113.549
 177  1105.427
 178  869.5132
 179  1017.326
 180  905.8719
 181  787.0978
 182  569.1517
 183  828.9622
 184  836.9758
 185  859.9612
 186  816.1258
 187  705.699
 188  936.7283
 189  753.6869
 190  925.5518
 191  737.3527
 192  722.2297
 193  1141.638
 194  1041.732
 195  946.416
 196  960.4411
 197  979.1644
 198  917.6856
 199  484.7053
 200  739.7784
 201  882.4793
 202  946.753
 203  571.4097
 204  678.577
 205  732.35
 206  1072.39
 207  1026.684
 208  471.8017
 209  341.7558
 210  458.1107
 211  643.2671
 212  746.2878
 213  951.8291
 214  897.9741
 215  890.9566
 216  650.7632
 217  640.8137
 218  721.043
 219  848.7073
 220  634.0421
 221  568.158
 222  734.5581
 223  851.2973
 224  742.7167
 225  712.3067
 226  519.6914
 227  525.3502
 228  579.3207
 229  529.6313
 230  977.378
 231  1017.304
 232  760.756
 233  608.7352
 234  687.4244
 235  416.5728
 236  282.327
 237  843.2134
 238  885.0807
 239  670.7738
 240  771.1769
 241  677.9879
 242  722.8885
 243  758.8823
 244  518.7012
 245  679.0654
 246  714.0377
 247  982.2517
 248  972.1466
 249  791.8207
 250  526.6588
 251  580.2113
 252  832.9001
 253  1043.651
 254  1233.279
 255  972.4825
 256  788.3799
 257  839.4719
 258  750.4192
 259  764.7008
 260  810.89
 261  1103.295
 262  1171.589
 263  707.413
 264  897.0667
 265  955.9967
 266  601.9841
 267  574.5281
 268  784.3825
 269  801.4175
 270  633.5005
 271  656.2591
 272  904.7308
 273  798.5762
 274  718.5538
 275  769.8852
 276  883.0869
 277  989.6049
 278  1101.242
 279  943.3286
 280  886.4006
 281  774.0266
 282  863.223
 283  915.0941
 284  671.5333
 285  338.0208
 286  547.3193
 287  546.7181
 288  816.0146
 289  701.3179
 290  790.7515
 291  516.6438
 292  658.9188
 293  952.9534
 294  682.2382
 295  533.9916
 296  842.2285
 297  971.1158
 298  777.6415
 299  526.2979
 300  679.335
 301  956.9016
 302  781.8575
 303  392.623
 304  655.5504
 305  842.6706
 306  922.3301
 307  780.4762
 308  653.319
 309  864.4228
 310  685.0114
 311  634.2875
 312  1045.094
 313  845.0309
 314  959.419
 315  670.963
 316  761.5186
 317  669.8344
 318  615.3849
 319  863.9082
 320  806.2319
 321  997.89
 322  854.8904
 323  1090.946
 324  1234.877
 325  1168.065
 326  770.6801
 327  679.6157
 328  857.0376
 329  1063.886
 330  890.8591
 331  1022.558
 332  916.188
 333  951.4163
 334  804.6009
 335  844.8737
 336  586.1487
 337  905.1537
 338  893.3654
 339  809.5857
 340  923.5967
 341  763.6722
 342  919.426
 343  1103.106
 344  966.3683
 345  754.2215
 346  871.452
 347  680.0942
 348  603.5021
 349  683.8013
 350  595.8857
 351  558.6787
 352  766.321
 353  743.3335
 354  915.6144
 355  1008.089
 356  1060.237
 357  1201.39
 358  696.4692
 359  629.7236
 360  541.4938
 361  636.3345
 362  851.2728
 363  983.6648
 364  821.8791
 365  622.9172
 366  1024.514
 367  1185.62
 368  652.4863
 369  782.006
 370  895.1286
 371  927.6837
 372  904.4812
 373  998.1402
 374  761.2281
 375  474.4262
 376  598.9316
 377  625.833
 378  596.866
 379  378.3958
 380  470.3325
 381  626.136
 382  726.799
 383  716.0539
 384  693.5829
 385  477.0688
 386  471.861
 387  763.8562
 388  713.0502
 389  708.381
 390  1051.607
 391  921.368
 392  719.9868
 393  910.6094
 394  881.4122
 395  802.4102
 396  749.1727
 397  1011.318
 398  1047.061
 399  613.512
 400  733.7564
 401  1083.298
 402  1037.848
 403  1057.319
 404  1007.356
 405  905.3624
 406  1057.368
 407  1020.687
 408  918.9426
 409  578.4627
 410  609.5742
 411  669.6376
 412  1007.391
 413  1040.13
 414  867.1936
 415  961.337
 416  1048.625
 417  921.7683
 418  708.8865
 419  753.9699
 420  720.1913
 421  700.8434
 422  948.6512
 423  1088.121
 424  830.3293
 425  611.816
 426  465.2602
 427  981.0137
 428  1171.313
 429  752.8775
 430  805.2029
 431  608.4525
 432  494.4931
 433  863.3978
 434  1182.41
 435  675.3034
 436  817.3708
 437  917.361
 438  1029.733
 439  934.7553
 440  915.931
 441  895.8208
 442  780.7302
 443  1186.552
 444  910.0056
 445  836.2003
 446  636.1764
 447  570.3959
 448  598.1487
 449  922.2959
 450  884.3769
 451  905.7965
 452  1007.622
 453  1016.966
 454  813.7531
 455  891.0296
 456  697.3729
 457  899.9117
 458  987.0699
 459  800.6397
 460  506.8476
 461  391.474
 462  716.762
 463  447.6953
 464  690.3124
 465  490.9407
 466  589.5586
 467  623.85
 468  652.2124
 469  687.9202
 470  953.2248
 471  1014.591
 472  867.0839
 473  635.5962
 474  613.8557
 475  715.1807
 476  654.2219
 477  866.3484
 478  588.957
 479  676.5828
 480  876.3845
 481  767.5429
 482  523.12
 483  654.1161
 484  947.3898
 485  1151.383
 486  825.2259
 487  884.3517
 488  1088.157
 489  779.3671
 490  647.857
 491  625.9321
 492  612.2178
 493  967.3682
 494  648.0709
 495  512.7943
 496  438.7455
 497  463.313
 498  636.6864
 499  753.0894
 500  575.3872
 501  743.0974
 502  949.656
 503  1052.594
 504  873.0454
 505  865.238
 506  819.4221
 507  673.8817
 508  588.5626
 509  800.1171
 510  573.4511
 511  787.6125
