# Input file       =  1193362522.147271_cleaned.dat
# Candidate        =  PSR_0332+5434
# Telescope        =  AR
# Epoch_topo       =  58056.066448463782
# Epoch_bary       =  N/A
# T_sample         =  0.002
# Data Folded      =  7340032
# Data Avg         =  0.0451255959550118
# Data StdDev      =  2.62259059799551 
# Profile Bins     =  512
# Profile Avg      =  646.902133133189 
# Profile StdDev   =  314.010735471161 
# Reduced chi-sqr  =  1.238
# Prob(Noise)      <  0.000185   (~3.6 sigma)
# P_topo (ms)      =  714.494294788804  +/- 0.000215
# P'_topo (s/s)    =  -0                +/- 1.14e-10
# P''_topo (s/s^2) =  0                 +/- 5.01e-14
# P_bary (ms)      =  N/A
# P'_bary (s/s)    =  N/A
# P''_bary (s/s^2) =  N/A
# P_orb (s)        =  N/A
# asin(i)/c (s)    =  N/A
# eccentricity     =  N/A
# w (rad)          =  N/A
# T_peri           =  N/A
######################################################
   0  624.6626
   1  582.1485
   2  817.1845
   3  704.3438
   4  345.3937
   5  479.7108
   6  397.7288
   7  305.8137
   8  524.3467
   9  334.1474
  10  462.9261
  11  774.7252
  12  805.9883
  13  794.0637
  14  644.6265
  15  762.1444
  16  595.811
  17  736.0039
  18  734.5708
  19  565.6193
  20  733.8406
  21  481.6236
  22  509.9099
  23  625.1046
  24  693.9506
  25  635.3222
  26  542.7708
  27  497.0966
  28  541.261
  29  332.8726
  30  673.8173
  31  788.7222
  32  888.811
  33  899.3221
  34  644.5556
  35  362.683
  36  663.168
  37  636.3922
  38  745.364
  39  630.6265
  40  834.2795
  41  709.8593
  42  737.0334
  43  806.1052
  44  526.9698
  45  636.057
  46  444.6127
  47  396.7755
  48  614.8568
  49  779.4297
  50  748.949
  51  799.0333
  52  1085.722
  53  871.4821
  54  669.6383
  55  780.9551
  56  923.3356
  57  636.1135
  58  761.2822
  59  928.6367
  60  826.2322
  61  831.7589
  62  730.9358
  63  688.6694
  64  962.1048
  65  814.3762
  66  452.2565
  67  295.7716
  68  465.3998
  69  496.3317
  70  508.5078
  71  380.6315
  72  350.2656
  73  348.8667
  74  460.1907
  75  983.8373
  76  860.5132
  77  494.3745
  78  603.01
  79  526.34
  80  759.1351
  81  838.8815
  82  816.3292
  83  817.6086
  84  597.5637
  85  346.4061
  86  536.9976
  87  557.0421
  88  501.7852
  89  792.1098
  90  623.9495
  91  650.6076
  92  607.2899
  93  953.056
  94  1000.491
  95  809.4116
  96  808.3881
  97  571.7146
  98  815.563
  99  602.7297
 100  786.9821
 101  1090.778
 102  921.8222
 103  717.6876
 104  729.2599
 105  535.8414
 106  312.2484
 107  315.9553
 108  372.589
 109  619.6121
 110  746.0653
 111  819.5555
 112  886.2526
 113  657.0856
 114  653.3209
 115  705.1066
 116  549.9279
 117  677.0229
 118  540.7076
 119  247.5347
 120  304.631
 121  221.7766
 122  503.0016
 123  405.8252
 124  269.4246
 125  386.1876
 126  901.1207
 127  778.8172
 128  134.0352
 129  360.4223
 130  787.7882
 131  660.0699
 132  672.2217
 133  476.7155
 134  548.6317
 135  626.6598
 136  863.1601
 137  921.0247
 138  402.0229
 139  547.884
 140  685.7608
 141  866.2368
 142  656.7275
 143  292.6505
 144  478.1308
 145  855.0114
 146  660.5856
 147  920.5081
 148  1065.075
 149  914.2328
 150  821.3644
 151  643.7563
 152  737.1884
 153  705.3492
 154  739.0143
 155  824.0213
 156  789.0709
 157  830.8165
 158  783.4238
 159  868.9085
 160  459.6963
 161  618.9698
 162  960.5048
 163  967.7645
 164  1022.545
 165  781.3089
 166  714.0439
 167  495.8403
 168  753.8113
 169  986.5356
 170  1095.115
 171  834.5889
 172  799.2897
 173  767.8053
 174  434.564
 175  180.7581
 176  564.4456
 177  544.1793
 178  574.4041
 179  598.3182
 180  510.5314
 181  986.5856
 182  909.8815
 183  482.8336
 184  318.7493
 185  345.4821
 186  464.5087
 187  860.486
 188  923.5425
 189  929.2649
 190  752.0921
 191  776.1288
 192  386.3235
 193  475.6118
 194  793.2306
 195  691.5987
 196  700.5604
 197  693.6998
 198  739.8822
 199  560.6985
 200  493.3874
 201  389.3227
 202  365.8874
 203  368.001
 204  303.5279
 205  523.4498
 206  1039.94
 207  881.5485
 208  740.1597
 209  1189.969
 210  962.2266
 211  696.9408
 212  734.8534
 213  465.7083
 214  405.2114
 215  819.512
 216  700.6107
 217  491.5759
 218  631.8723
 219  686.132
 220  428.1108
 221  543.3714
 222  680.1078
 223  817.9838
 224  753.7023
 225  395.0809
 226  304.1469
 227  690.9811
 228  668.3485
 229  740.5441
 230  742.1495
 231  492.015
 232  654.56
 233  662.2729
 234  793.0169
 235  272.7927
 236  362.2759
 237  678.3525
 238  892.0562
 239  601.5352
 240  593.7997
 241  733.8396
 242  725.0235
 243  613.3428
 244  672.1612
 245  945.3138
 246  620.6197
 247  589.8745
 248  1078.439
 249  759.4121
 250  429.2722
 251  217.8921
 252  545.2199
 253  627.7979
 254  471.6516
 255  567.7516
 256  551.7323
 257  722.7403
 258  657.1396
 259  393.6794
 260  338.4888
 261  607.3537
 262  1056.803
 263  909.1676
 264  875.671
 265  688.1411
 266  558.0061
 267  438.365
 268  407.1279
 269  549.7819
 270  645.4103
 271  682.9992
 272  525.4542
 273  446.1219
 274  534.054
 275  881.6883
 276  811.5413
 277  540.7026
 278  209.3177
 279  617.4259
 280  554.9376
 281  599.6412
 282  634.6799
 283  620.9
 284  657.8158
 285  525.867
 286  742.4622
 287  581.683
 288  590.2787
 289  571.319
 290  693.6512
 291  858.0323
 292  850.0089
 293  686.2022
 294  418.0798
 295  785.529
 296  687.7631
 297  528.2834
 298  885.208
 299  684.4398
 300  560.403
 301  510.5154
 302  531.4417
 303  593.8496
 304  414.0806
 305  763.1808
 306  685.363
 307  664.5046
 308  454.4734
 309  624.2961
 310  1009.399
 311  538.6425
 312  391.1375
 313  616.9052
 314  410.6989
 315  551.7798
 316  365.6706
 317  466.2589
 318  394.5334
 319  400.6016
 320  272.5648
 321  191.7364
 322  334.2825
 323  306.6149
 324  387.2381
 325  545.2703
 326  756.8453
 327  404.4805
 328  697.3811
 329  826.5451
 330  635.6767
 331  676.866
 332  608.0143
 333  757.111
 334  940.2412
 335  538.3853
 336  587.7845
 337  1075.311
 338  927.2286
 339  823.1988
 340  985.6682
 341  1455.076
 342  1743.037
 343  2169.884
 344  2419.11
 345  2310.956
 346  1633.327
 347  1283.274
 348  884.5247
 349  552.1245
 350  352.9154
 351  535.7222
 352  994.7967
 353  745.6822
 354  623.7832
 355  775.2399
 356  696.6208
 357  758.4033
 358  649.3774
 359  675.3381
 360  567.1375
 361  748.0768
 362  758.0878
 363  387.8928
 364  539.5736
 365  393.3307
 366  115.2068
 367  346.007
 368  466.1107
 369  710.8729
 370  602.9983
 371  536.1555
 372  422.8719
 373  316.8246
 374  320.8876
 375  42.30344
 376  346.1806
 377  496.1092
 378  570.151
 379  542.4364
 380  518.6224
 381  553.1022
 382  523.5363
 383  385.4072
 384  285.0687
 385  237.8475
 386  379.0508
 387  870.0385
 388  660.5193
 389  818.4785
 390  771.1637
 391  625.5898
 392  519.9735
 393  399.7569
 394  590.8596
 395  514.3484
 396  375.5561
 397  541.7796
 398  658.1795
 399  460.5664
 400  425.2803
 401  662.811
 402  210.9193
 403  609.5364
 404  908.1224
 405  757.3781
 406  853.6714
 407  918.7346
 408  1011.164
 409  756.9256
 410  506.6176
 411  604.1411
 412  849.6932
 413  714.2677
 414  797.005
 415  538.7415
 416  631.237
 417  975.4597
 418  933.545
 419  618.6887
 420  349.948
 421  162.0482
 422  433.4985
 423  535.8484
 424  535.0081
 425  602.7953
 426  554.5101
 427  503.8976
 428  288.7153
 429  640.4024
 430  1026.197
 431  688.0901
 432  289.5829
 433  535.7984
 434  664.2562
 435  858.2184
 436  1021.179
 437  1111.587
 438  1084.042
 439  484.901
 440  540.2317
 441  916.5408
 442  333.9522
 443  360.1835
 444  459.1256
 445  876.3361
 446  665.7799
 447  712.9428
 448  527.8796
 449  491.4249
 450  571.832
 451  778.3289
 452  576.0013
 453  540.4993
 454  646.9346
 455  405.6084
 456  670.465
 457  710.0706
 458  625.9822
 459  870.4266
 460  671.2178
 461  570.2101
 462  690.1291
 463  625.5176
 464  641.5816
 465  520.4692
 466  285.5165
 467  436.0805
 468  341.9575
 469  547.8731
 470  206.7043
 471  563.6488
 472  984.2877
 473  1104.794
 474  881.3143
 475  951.1837
 476  1023.084
 477  640.9217
 478  906.0052
 479  595.1754
 480  507.9984
 481  507.446
 482  786.9786
 483  668.7663
 484  928.3941
 485  773.5228
 486  331.0166
 487  749.7139
 488  943.2305
 489  546.2491
 490  586.5947
 491  806.9385
 492  621.1876
 493  680.7549
 494  739.297
 495  676.5134
 496  681.184
 497  803.5315
 498  556.3181
 499  497.9697
 500  794.8012
 501  881.4682
 502  620.891
 503  448.3523
 504  275.8921
 505  560.6946
 506  771.6985
 507  405.6503
 508  316.1877
 509  312.5945
 510  237.6623
 511  58.8068
