# Input file       =  1193936473.117343_cleaned.dat
# Candidate        =  PSR_0332+5434
# Telescope        =  AR
# Epoch_topo       =  58062.709399506282
# Epoch_bary       =  N/A
# T_sample         =  0.002
# Data Folded      =  7340032
# Data Avg         =  0.11309885850434 
# Data StdDev      =  3.70162373668715 
# Profile Bins     =  1024
# Profile Avg      =  810.487596848364 
# Profile StdDev   =  313.39442734105  
# Reduced chi-sqr  =  0.808
# Prob(Noise)      <  1   (~0.0 sigma)
# P_topo (ms)      =  714.500079300941  +/- 7.77e-05
# P'_topo (s/s)    =  -0                +/- 4.1e-11
# P''_topo (s/s^2) =  0                 +/- 1.81e-14
# P_bary (ms)      =  N/A
# P'_bary (s/s)    =  N/A
# P''_bary (s/s^2) =  N/A
# P_orb (s)        =  N/A
# asin(i)/c (s)    =  N/A
# eccentricity     =  N/A
# w (rad)          =  N/A
# T_peri           =  N/A
######################################################
   0  675.1307
   1  766.3544
   2  839.2513
   3  787.8521
   4  779.547
   5  883.7944
   6  904.3114
   7  921.4092
   8  932.2028
   9  910.3785
  10  822.329
  11  761.4742
  12  728.6411
  13  783.9877
  14  835.2949
  15  803.4651
  16  722.5677
  17  654.4327
  18  753.6644
  19  917.4249
  20  1028.893
  21  1014.29
  22  1003.546
  23  899.413
  24  914.4318
  25  942.4406
  26  987.5966
  27  1010.173
  28  1009.683
  29  1000.953
  30  931.3046
  31  915.3865
  32  1038.052
  33  1144.05
  34  1236.076
  35  1106.049
  36  918.187
  37  812.9766
  38  945.2869
  39  1001.415
  40  960.785
  41  900.499
  42  895.7888
  43  885.0646
  44  806.8369
  45  730.2736
  46  778.4343
  47  840.8781
  48  961.139
  49  935.9033
  50  779.6025
  51  679.8933
  52  613.9302
  53  654.4177
  54  694.0427
  55  645.4445
  56  691.6056
  57  733.4043
  58  745.0715
  59  698.5411
  60  562.5455
  61  662.8812
  62  587.9949
  63  651.1286
  64  627.9777
  65  746.1561
  66  819.9343
  67  772.9714
  68  708.5289
  69  500.5695
  70  597.6183
  71  640.3264
  72  694.6606
  73  721.3416
  74  641.3459
  75  693.7462
  76  656.5599
  77  607.2571
  78  763.7892
  79  808.2026
  80  894.6492
  81  662.8459
  82  640.3488
  83  640.7569
  84  578.8356
  85  589.8649
  86  596.2283
  87  652.7327
  88  724.7662
  89  766.5355
  90  842.8373
  91  744.6275
  92  713.1428
  93  682.4765
  94  632.0832
  95  687.1871
  96  752.7048
  97  953.8621
  98  890.5986
  99  875.8251
 100  822.5236
 101  745.5566
 102  727.9227
 103  491.1826
 104  544.1281
 105  494.073
 106  490.9501
 107  490.0842
 108  544.1313
 109  535.0424
 110  490.2192
 111  460.1746
 112  658.4346
 113  785.7674
 114  937.8659
 115  982.9294
 116  1073.623
 117  1147.811
 118  1104.063
 119  1114.737
 120  1040.155
 121  1052.829
 122  1029.047
 123  878.3399
 124  712.1794
 125  539.5676
 126  717.5905
 127  808.8124
 128  827.6891
 129  925.7766
 130  963.4478
 131  1034.705
 132  909.0351
 133  862.1437
 134  869.4852
 135  848.6073
 136  898.7829
 137  904.0645
 138  931.3673
 139  793.3793
 140  710.8944
 141  827.5073
 142  761.8685
 143  805.9308
 144  690.1278
 145  835.3962
 146  879.8644
 147  822.9014
 148  870.5771
 149  906.1309
 150  964.6296
 151  915.6889
 152  980.1011
 153  1046.523
 154  961.467
 155  918.9099
 156  925.278
 157  913.1381
 158  764.1011
 159  652.9663
 160  720.3493
 161  833.4308
 162  802.8227
 163  669.4879
 164  597.6509
 165  564.2221
 166  547.2253
 167  561.0878
 168  561.2374
 169  538.7239
 170  579.6793
 171  680.9706
 172  890.4769
 173  742.9286
 174  684.9294
 175  700.4085
 176  716.8401
 177  759.6984
 178  687.5916
 179  735.0132
 180  785.8467
 181  715.3713
 182  859.5963
 183  942.9
 184  1069.762
 185  1108.048
 186  1089.435
 187  1161.695
 188  1081.086
 189  1064.603
 190  1030.074
 191  1005.464
 192  807.733
 193  770.806
 194  871.99
 195  910.6993
 196  889.4426
 197  930.0429
 198  880.1339
 199  809.6491
 200  617.7343
 201  664.3219
 202  748.9949
 203  857.2305
 204  970.9746
 205  904.7032
 206  865.5413
 207  690.1407
 208  665.7059
 209  706.0915
 210  780.8559
 211  782.4673
 212  579.5342
 213  664.8267
 214  682.1071
 215  768.9692
 216  639.0402
 217  582.6445
 218  571.8768
 219  608.0408
 220  606.2148
 221  674.0873
 222  613.1013
 223  696.8968
 224  683.7679
 225  679.6074
 226  734.1823
 227  750.4045
 228  885.8315
 229  807.3859
 230  824.9147
 231  861.8597
 232  758.8293
 233  633.926
 234  428.421
 235  561.4827
 236  498.6197
 237  583.6854
 238  612.3118
 239  755.0905
 240  713.5704
 241  688.8676
 242  742.0003
 243  839.7761
 244  748.4119
 245  1026.285
 246  1135.667
 247  1085.664
 248  823.0809
 249  764.3782
 250  839.8011
 251  636.8951
 252  635.6444
 253  686.0478
 254  843.2821
 255  923.8542
 256  947.0232
 257  856.6177
 258  697.751
 259  719.6973
 260  819.4767
 261  915.6808
 262  857.748
 263  807.7658
 264  805.2725
 265  716.7665
 266  704.2899
 267  553.3458
 268  555.2903
 269  619.1681
 270  786.0357
 271  863.6186
 272  833.4963
 273  677.1104
 274  602.7789
 275  572.212
 276  635.6669
 277  642.0765
 278  687.3281
 279  808.8919
 280  749.6815
 281  701.5836
 282  567.7485
 283  711.3828
 284  777.4717
 285  756.3924
 286  793.4149
 287  713.6498
 288  738.6133
 289  751.5436
 290  825.9371
 291  861.6567
 292  778.3071
 293  906.0547
 294  855.67
 295  902.8562
 296  863.814
 297  852.5359
 298  763.6142
 299  712.0258
 300  710.4948
 301  715.0832
 302  845.6862
 303  830.0011
 304  812.2935
 305  774.647
 306  631.683
 307  523.5372
 308  664.8417
 309  890.4358
 310  1002.79
 311  981.3354
 312  953.8862
 313  963.648
 314  714.6247
 315  676.7981
 316  672.7171
 317  812.3619
 318  877.6188
 319  934.72
 320  1025.46
 321  906.2786
 322  774.9091
 323  685.7672
 324  722.4152
 325  843.3004
 326  908.4194
 327  997.8525
 328  916.5932
 329  837.3817
 330  712.7413
 331  668.0247
 332  722.1107
 333  775.3871
 334  919.8835
 335  908.5914
 336  934.2667
 337  887.0279
 338  902.0023
 339  933.1051
 340  820.2578
 341  671.486
 342  683.6282
 343  766.5263
 344  888.0564
 345  914.8741
 346  829.2053
 347  661.6683
 348  590.3792
 349  812.8242
 350  864.6744
 351  969.948
 352  947.2012
 353  939.7994
 354  949.8701
 355  734.8669
 356  802.2889
 357  717.9771
 358  853.4637
 359  733.3297
 360  709.0956
 361  823.2761
 362  871.4194
 363  838.6295
 364  742.5942
 365  627.1431
 366  751.8163
 367  734.6198
 368  811.8152
 369  741.1658
 370  712.0407
 371  753.9866
 372  724.3106
 373  679.2971
 374  544.856
 375  621.2253
 376  735.7717
 377  645.0367
 378  584.6208
 379  623.4821
 380  675.1059
 381  662.6363
 382  597.9768
 383  713.383
 384  654.3693
 385  805.8434
 386  806.2344
 387  803.8187
 388  762.8273
 389  696.3804
 390  851.1848
 391  738.7545
 392  829.2274
 393  926.8836
 394  987.7257
 395  880.7147
 396  598.7068
 397  603.6499
 398  609.2281
 399  592.8654
 400  601.3077
 401  611.4109
 402  658.0777
 403  586.2243
 404  599.0308
 405  630.6243
 406  668.5541
 407  615.9819
 408  579.4549
 409  554.3915
 410  670.696
 411  799.8064
 412  1049.402
 413  926.7901
 414  832.8208
 415  692.4342
 416  866.8186
 417  959.34
 418  987.206
 419  986.0488
 420  960.0534
 421  876.835
 422  847.8975
 423  786.5422
 424  839.4099
 425  716.9606
 426  798.9413
 427  811.6879
 428  843.9133
 429  778.3155
 430  728.5099
 431  841.5846
 432  822.5388
 433  810.9254
 434  760.5516
 435  782.4882
 436  868.0881
 437  744.1955
 438  680.6799
 439  714.3763
 440  679.6172
 441  805.6284
 442  704.4259
 443  827.5038
 444  699.655
 445  749.6319
 446  745.8525
 447  631.4502
 448  508.9271
 449  499.7039
 450  631.1599
 451  682.2885
 452  639.5904
 453  730.1358
 454  760.3057
 455  804.9274
 456  821.9136
 457  1008.981
 458  1112.644
 459  1066.207
 460  927.9152
 461  858.1738
 462  759.7267
 463  716.3114
 464  530.8775
 465  560.9883
 466  576.0678
 467  868.4249
 468  972.5031
 469  854.757
 470  640.7112
 471  647.3446
 472  742.8428
 473  782.4069
 474  699.1761
 475  873.8114
 476  1033.746
 477  1148.138
 478  989.5192
 479  901.7627
 480  762.6821
 481  729.5309
 482  865.6471
 483  977.0997
 484  1085.37
 485  941.25
 486  887.8593
 487  804.9584
 488  766.1815
 489  826.2582
 490  950.1136
 491  967.6453
 492  879.0508
 493  750.8095
 494  816.4421
 495  849.4627
 496  729.7458
 497  682.7233
 498  731.5018
 499  830.66
 500  736.2282
 501  787.8987
 502  863.4767
 503  898.2881
 504  846.2644
 505  892.4123
 506  861.7241
 507  791.1206
 508  851.8954
 509  952.0633
 510  860.7552
 511  714.7341
 512  707.1279
 513  828.1173
 514  853.8763
 515  807.5687
 516  985.0891
 517  1008.467
 518  1007.494
 519  956.178
 520  1010.989
 521  1146.729
 522  1075.133
 523  985.8004
 524  813.961
 525  832.486
 526  894.5922
 527  948.9666
 528  945.2236
 529  822.9875
 530  727.3717
 531  708.3827
 532  713.4876
 533  769.9847
 534  737.601
 535  745.9012
 536  732.531
 537  745.3711
 538  808.1159
 539  761.9456
 540  756.3204
 541  740.6299
 542  798.2709
 543  861.1549
 544  880.5144
 545  969.8864
 546  885.5393
 547  709.8436
 548  687.5413
 549  751.4907
 550  816.7828
 551  803.5842
 552  781.2733
 553  834.765
 554  816.6547
 555  841.1832
 556  798.9769
 557  925.1393
 558  947.8664
 559  986.0317
 560  840.7314
 561  683.5142
 562  604.9016
 563  596.3609
 564  692.8647
 565  698.2728
 566  714.5099
 567  861.7457
 568  749.1805
 569  652.8122
 570  570.2059
 571  454.787
 572  432.0204
 573  443.616
 574  544.8876
 575  617.0275
 576  771.9301
 577  859.5385
 578  882.5178
 579  858.4845
 580  863.1623
 581  872.1934
 582  746.0833
 583  693.3209
 584  846.3708
 585  927.0212
 586  970.5933
 587  838.2429
 588  962.9218
 589  998.1399
 590  1078.222
 591  1055.97
 592  1000.371
 593  992.2662
 594  1046.334
 595  954.7674
 596  861.5868
 597  650.6493
 598  592.3331
 599  573.4653
 600  684.387
 601  758.9698
 602  784.78
 603  708.1118
 604  641.3889
 605  641.4732
 606  769.0424
 607  767.7626
 608  852.437
 609  912.4321
 610  1065.24
 611  1048.158
 612  891.5576
 613  915.9241
 614  785.7678
 615  885.1032
 616  935.5762
 617  962.3109
 618  893.5808
 619  764.0157
 620  878.9068
 621  879.7664
 622  922.2133
 623  960.4445
 624  966.0933
 625  980.9738
 626  973.129
 627  1164.113
 628  1220.047
 629  1304.005
 630  1370.969
 631  1485.039
 632  1762.529
 633  1790.582
 634  1709.958
 635  1459.566
 636  1304.139
 637  1241.277
 638  1060.067
 639  978.8945
 640  875.9484
 641  830.4246
 642  862.2708
 643  816.687
 644  803.9757
 645  662.3852
 646  694.2158
 647  640.5822
 648  728.8724
 649  935.5916
 650  905.3989
 651  738.6143
 652  564.7496
 653  743.8058
 654  795.7208
 655  729.5748
 656  768.4692
 657  838.731
 658  743.454
 659  697.6939
 660  706.3466
 661  871.9756
 662  732.1702
 663  697.4042
 664  752.4749
 665  848.0419
 666  942.1562
 667  894.2453
 668  953.5091
 669  891.8763
 670  681.9443
 671  516.1022
 672  573.5806
 673  728.08
 674  749.4272
 675  785.6524
 676  822.8088
 677  734.6509
 678  589.9542
 679  644.6024
 680  728.9239
 681  815.7939
 682  702.2608
 683  697.5573
 684  722.1404
 685  804.2881
 686  805.0728
 687  804.8718
 688  824.1315
 689  726.244
 690  825.1578
 691  784.855
 692  680.3746
 693  617.6108
 694  602.3363
 695  722.6868
 696  730.6799
 697  795.14
 698  781.8408
 699  784.6191
 700  852.8036
 701  856.0863
 702  1028.189
 703  990.1157
 704  972.8826
 705  803.9497
 706  698.9923
 707  769.9788
 708  801.56
 709  811.3519
 710  810.644
 711  843.6686
 712  895.3383
 713  835.9357
 714  826.9077
 715  943.3539
 716  1040.264
 717  1130.598
 718  1131.61
 719  1002.816
 720  885.1328
 721  868.3942
 722  926.725
 723  965.2429
 724  895.0732
 725  774.2948
 726  866.2077
 727  938.3683
 728  920.3888
 729  837.6697
 730  664.4193
 731  773.2458
 732  754.4207
 733  816.6214
 734  753.9669
 735  699.2778
 736  752.8699
 737  718.0253
 738  696.8785
 739  783.0948
 740  872.6539
 741  953.5566
 742  921.077
 743  895.1746
 744  888.2405
 745  725.0622
 746  663.6727
 747  608.705
 748  687.9463
 749  687.6528
 750  596.2317
 751  635.8605
 752  640.4675
 753  745.4606
 754  847.3481
 755  965.6782
 756  1119.247
 757  1097.73
 758  1114.977
 759  1018.798
 760  928.0187
 761  946.9125
 762  975.0156
 763  984.467
 764  883.8673
 765  814.1816
 766  763.0066
 767  624.7336
 768  739.23
 769  798.9964
 770  850.2059
 771  812.8085
 772  890.5403
 773  1044.536
 774  1026.331
 775  1182.628
 776  1180.295
 777  1117.139
 778  1022.614
 779  1003.105
 780  929.7477
 781  741.0105
 782  723.2565
 783  836.1499
 784  938.1676
 785  922.2138
 786  895.7786
 787  855.1543
 788  900.9968
 789  873.0117
 790  952.7751
 791  1019.112
 792  1073.133
 793  1008.165
 794  911.1828
 795  745.5454
 796  778.409
 797  839.8155
 798  970.6987
 799  943.0485
 800  751.6752
 801  585.8579
 802  571.5444
 803  604.116
 804  733.2761
 805  759.4935
 806  733.0485
 807  724.7054
 808  646.8591
 809  681.9343
 810  745.4734
 811  889.9389
 812  893.0123
 813  820.511
 814  841.1417
 815  795.1663
 816  816.0914
 817  776.3386
 818  748.0356
 819  838.289
 820  894.1364
 821  909.6874
 822  756.1965
 823  827.4498
 824  935.4772
 825  878.8943
 826  791.6339
 827  672.6933
 828  742.5845
 829  690.0844
 830  795.9432
 831  939.6589
 832  1007.955
 833  962.7595
 834  825.9758
 835  863.5126
 836  850.1606
 837  768.9587
 838  734.1105
 839  863.1102
 840  983.7896
 841  1034.596
 842  891.1121
 843  867.7289
 844  741.5035
 845  795.8506
 846  840.3619
 847  931.0382
 848  929.5787
 849  895.014
 850  901.8776
 851  845.0945
 852  845.3285
 853  807.9752
 854  680.9925
 855  674.3903
 856  658.4265
 857  841.442
 858  856.6046
 859  761.5106
 860  701.1383
 861  628.9897
 862  712.7148
 863  638.4451
 864  744.8669
 865  788.5275
 866  922.2952
 867  895.6656
 868  903.4262
 869  788.8169
 870  765.1149
 871  738.1689
 872  839.2885
 873  828.7546
 874  780.7443
 875  652.9725
 876  683.2182
 877  767.9739
 878  801.3698
 879  815.8568
 880  781.9693
 881  868.7679
 882  962.6771
 883  986.2975
 884  982.9622
 885  846.2511
 886  781.0781
 887  808.8517
 888  905.957
 889  956.4253
 890  854.5609
 891  833.6854
 892  746.089
 893  791.7688
 894  711.563
 895  682.8116
 896  658.7212
 897  579.5851
 898  723.1069
 899  778.1135
 900  801.9701
 901  765.8514
 902  867.4353
 903  928.935
 904  748.7509
 905  666.7852
 906  897.0475
 907  1095.625
 908  1033.952
 909  963.4194
 910  888.934
 911  860.4191
 912  719.4302
 913  780.8606
 914  887.0282
 915  837.7858
 916  736.0258
 917  772.5399
 918  800.5236
 919  692.8218
 920  722.8541
 921  696.9028
 922  663.7847
 923  692.8345
 924  876.1475
 925  1006.138
 926  925.7238
 927  950.8104
 928  874.6522
 929  822.752
 930  687.4385
 931  619.9108
 932  568.3547
 933  534.9337
 934  488.6381
 935  567.3596
 936  553.0675
 937  629.5095
 938  641.5748
 939  814.36
 940  983.7081
 941  880.4778
 942  822.9841
 943  811.4595
 944  867.5084
 945  759.5795
 946  675.8691
 947  781.6766
 948  910.0545
 949  978.5839
 950  954.7052
 951  756.8616
 952  694.7067
 953  725.8343
 954  964.7154
 955  1103.534
 956  1161.085
 957  1151.215
 958  1070.175
 959  1048.181
 960  927.0569
 961  980.9156
 962  1055.733
 963  1070.429
 964  848.9224
 965  555.9185
 966  622.0706
 967  664.9604
 968  728.7069
 969  771.608
 970  901.5557
 971  1027.844
 972  1047.015
 973  1074.186
 974  935.6683
 975  846.4595
 976  904.2365
 977  1030.782
 978  1012.196
 979  1025.881
 980  953.1943
 981  1027.332
 982  822.0298
 983  859.6617
 984  821.8052
 985  835.7537
 986  668.5805
 987  601.3305
 988  671.1921
 989  721.1105
 990  841.1592
 991  945.7064
 992  1005.88
 993  1043.956
 994  747.902
 995  805.731
 996  703.0658
 997  664.5365
 998  516.294
 999  496.4728
1000  597.9413
1001  527.7202
1002  520.423
1003  609.9135
1004  690.1984
1005  888.3469
1006  959.2834
1007  967.6244
1008  783.4493
1009  727.9886
1010  744.7543
1011  866.0518
1012  988.7079
1013  1083.326
1014  873.0443
1015  733.6907
1016  612.9433
1017  723.561
1018  740.8908
1019  849.0767
1020  785.6414
1021  711.501
1022  624.9634
1023  590.9739
