# Input file       =  1193002974.143132_cleaned.dat
# Candidate        =  PSR_0332+5434
# Telescope        =  AR
# Epoch_topo       =  58051.905013230695
# Epoch_bary       =  N/A
# T_sample         =  0.002
# Data Folded      =  7340032
# Data Avg         =  0.0859647174625672
# Data StdDev      =  3.09538213562659 
# Profile Bins     =  1024
# Profile Avg      =  616.208956095278 
# Profile StdDev   =  262.067562994559 
# Reduced chi-sqr  =  0.899
# Prob(Noise)      <  0.99   (~0.0 sigma)
# P_topo (ms)      =  714.490293186375  +/- 0.000239
# P'_topo (s/s)    =  -0                +/- 1.26e-10
# P''_topo (s/s^2) =  0                 +/- 5.58e-14
# P_bary (ms)      =  N/A
# P'_bary (s/s)    =  N/A
# P''_bary (s/s^2) =  N/A
# P_orb (s)        =  N/A
# asin(i)/c (s)    =  N/A
# eccentricity     =  N/A
# w (rad)          =  N/A
# T_peri           =  N/A
######################################################
   0  533.8096
   1  573.8284
   2  627.3188
   3  663.3596
   4  650.9332
   5  597.3765
   6  535.7145
   7  510.0905
   8  552.3747
   9  547.9661
  10  600.5018
  11  479.8318
  12  488.5129
  13  438.1505
  14  529.6916
  15  525.6661
  16  569.8306
  17  623.3694
  18  585.6552
  19  451.1589
  20  485.5464
  21  505.5431
  22  578.9258
  23  531.8839
  24  572.7932
  25  597.3762
  26  526.3826
  27  500.8013
  28  508.9562
  29  637.0069
  30  675.8806
  31  737.8535
  32  641.5894
  33  656.2352
  34  523.8356
  35  502.6484
  36  538.4182
  37  542.8387
  38  454.7209
  39  424.6862
  40  554.529
  41  582.532
  42  442.1612
  43  444.5021
  44  560.2041
  45  780.6261
  46  744.3315
  47  759.1638
  48  581.183
  49  624.6132
  50  651.5141
  51  740.4602
  52  602.5255
  53  542.9866
  54  554.0326
  55  559.2999
  56  580.7039
  57  601.5424
  58  776.2108
  59  813.2188
  60  761.7079
  61  621.9724
  62  427.5127
  63  323.2077
  64  335.5757
  65  535.4283
  66  551.6639
  67  467.8251
  68  396.372
  69  423.5112
  70  560.4608
  71  611.5744
  72  652.2267
  73  740.8393
  74  816.668
  75  899.7985
  76  725.9006
  77  775.0309
  78  711.458
  79  653.6029
  80  472.2675
  81  501.2504
  82  644.3141
  83  741.5372
  84  830.0724
  85  797.9833
  86  735.9714
  87  583.5452
  88  536.6981
  89  604.1071
  90  665.8251
  91  656.6846
  92  502.1337
  93  450.8621
  94  307.4219
  95  311.1951
  96  277.7122
  97  354.5727
  98  456.8994
  99  518.6047
 100  575.1288
 101  478.7139
 102  442.2943
 103  492.0206
 104  518.898
 105  512.0067
 106  511.3958
 107  606.4266
 108  680.9766
 109  645.7825
 110  561.856
 111  512.2961
 112  568.9868
 113  657.6392
 114  713.5649
 115  686.1299
 116  654.4362
 117  672.9155
 118  663.1921
 119  701.4039
 120  748.209
 121  746.8136
 122  717.4696
 123  628.9292
 124  579.1653
 125  582.79
 126  653.2884
 127  739.2012
 128  747.7363
 129  652.9335
 130  600.9796
 131  438.2203
 132  434.023
 133  478.747
 134  475.5158
 135  523.3584
 136  502.4123
 137  619.2704
 138  636.5626
 139  730.408
 140  645.1216
 141  639.2155
 142  644.0519
 143  727.1537
 144  840.5309
 145  803.1206
 146  801.6338
 147  619.2361
 148  585.394
 149  634.9755
 150  616.4495
 151  604.2382
 152  509.806
 153  545.5162
 154  591.4066
 155  604.3658
 156  657.6669
 157  658.3339
 158  629.45
 159  571.209
 160  505.3159
 161  535.5189
 162  541.5204
 163  574.9177
 164  575.0452
 165  591.0948
 166  663.4892
 167  708.4998
 168  807.2197
 169  740.1976
 170  703.2461
 171  573.6141
 172  537.0146
 173  422.233
 174  517.0623
 175  556.4789
 176  577.7575
 177  460.1896
 178  449.8
 179  544.365
 180  694.0239
 181  695.4656
 182  555.4806
 183  483.4363
 184  572.6585
 185  589.1124
 186  584.9199
 187  530.8038
 188  549.8734
 189  568.3647
 190  559.3611
 191  509.7074
 192  443.839
 193  375.9201
 194  347.2862
 195  321.2394
 196  326.331
 197  288.0287
 198  304.6491
 199  337.9189
 200  503.1559
 201  508.4055
 202  527.0004
 203  550.1493
 204  641.0345
 205  574.6596
 206  479.0063
 207  445.2813
 208  444.3457
 209  467.2454
 210  475.0256
 211  578.0906
 212  562.6868
 213  587.8649
 214  634.8099
 215  633.3531
 216  693.6337
 217  638.3527
 218  564.89
 219  455.513
 220  381.2082
 221  480.9584
 222  501.6946
 223  475.5054
 224  374.1235
 225  403.2785
 226  422.9034
 227  468.8857
 228  432.7513
 229  459.8242
 230  508.372
 231  493.7051
 232  488.7599
 233  438.781
 234  442.8395
 235  379.4429
 236  425.9043
 237  626.4097
 238  689.104
 239  676.3215
 240  614.238
 241  528.1594
 242  497.0121
 243  531.3192
 244  560.739
 245  560.3275
 246  597.5521
 247  739.0381
 248  733.0913
 249  701.0047
 250  644.1299
 251  672.788
 252  661.7388
 253  584.248
 254  631.5577
 255  654.5269
 256  792.0681
 257  813.7704
 258  872.7776
 259  817.3043
 260  829.8052
 261  771.3248
 262  729.7449
 263  651.5246
 264  759.2897
 265  714.4271
 266  600.754
 267  588.701
 268  680.9116
 269  832.3335
 270  860.6259
 271  880.5289
 272  820.5842
 273  870.9815
 274  841.1743
 275  881.1437
 276  787.931
 277  741.1924
 278  662.0459
 279  778.7301
 280  812.7514
 281  830.7817
 282  795.4612
 283  732.9826
 284  687.2144
 285  633.3938
 286  758.5499
 287  694.4933
 288  692.6229
 289  644.0452
 290  660.035
 291  629.8442
 292  650.191
 293  705.6122
 294  615.5018
 295  574.884
 296  573.0954
 297  635.2948
 298  524.6625
 299  549.7946
 300  649.9879
 301  752.9995
 302  734.1655
 303  701.7691
 304  799.8514
 305  768.4886
 306  673.7534
 307  651.806
 308  644.6844
 309  636.7119
 310  666.699
 311  764.5807
 312  847.8311
 313  777.7065
 314  709.3714
 315  658.4385
 316  726.1089
 317  783.7017
 318  718.1357
 319  571.4602
 320  546.7195
 321  591.4938
 322  582.6566
 323  558.2932
 324  559.9285
 325  665.6747
 326  664.3397
 327  635.9117
 328  550.8769
 329  628.5352
 330  680.3283
 331  692.7856
 332  664.4261
 333  602.3096
 334  626.7161
 335  662.5585
 336  697.4068
 337  735.9388
 338  679.8776
 339  677.2502
 340  665.121
 341  720.6038
 342  591.0363
 343  530.1722
 344  512.5256
 345  663.2292
 346  709.1371
 347  742.9477
 348  700.6037
 349  737.6265
 350  670.5251
 351  675.4525
 352  582.4954
 353  540.082
 354  462.8442
 355  465.4197
 356  570.2129
 357  650.7427
 358  571.5682
 359  432.3861
 360  250.5957
 361  242.5145
 362  324.4749
 363  548.9474
 364  541.4846
 365  374.7702
 366  270.1937
 367  272.9684
 368  404.7632
 369  423.6658
 370  401.3676
 371  310.764
 372  388.2045
 373  515.532
 374  450.4982
 375  454.1747
 376  512.1121
 377  682.1072
 378  645.049
 379  560.0128
 380  501.4566
 381  542.3591
 382  622.7577
 383  666.0723
 384  648.4471
 385  589.9586
 386  613.8423
 387  550.7938
 388  482.3725
 389  420.8462
 390  473.7192
 391  423.1172
 392  346.7957
 393  377.157
 394  629.8659
 395  702.5948
 396  697.7346
 397  613.4061
 398  616.2308
 399  620.7507
 400  587.4229
 401  639.6987
 402  608.8795
 403  628.5905
 404  652.8066
 405  654.3691
 406  668.1667
 407  647.5083
 408  694.994
 409  632.5799
 410  600.8408
 411  612.0326
 412  764.4439
 413  740.1144
 414  752.3741
 415  667.9572
 416  739.4964
 417  586.5565
 418  480.1888
 419  313.9679
 420  400.3619
 421  484.0751
 422  584.7128
 423  528.1557
 424  584.5275
 425  624.6564
 426  738.9656
 427  697.7341
 428  716.7885
 429  683.6181
 430  681.7694
 431  674.2307
 432  709.1912
 433  764.2191
 434  762.5259
 435  718.1225
 436  614.7552
 437  661.3563
 438  704.2236
 439  697.2151
 440  621.2241
 441  697.7205
 442  796.6074
 443  809.368
 444  734.7809
 445  766.8713
 446  708.864
 447  672.3171
 448  642.093
 449  601.6134
 450  638.3071
 451  690.5284
 452  760.5706
 453  748.3788
 454  713.9869
 455  803.0272
 456  767.3304
 457  696.1729
 458  619.6212
 459  671.2233
 460  793.7402
 461  901.1443
 462  816.6469
 463  726.5656
 464  696.4727
 465  825.082
 466  817.465
 467  748.1292
 468  708.8896
 469  812.9078
 470  868.7861
 471  874.4249
 472  860.346
 473  849.6351
 474  780.9069
 475  636.5555
 476  627.4021
 477  646.8179
 478  707.0485
 479  652.7184
 480  751.3046
 481  770.3117
 482  841.2798
 483  803.1548
 484  806.8148
 485  729.7537
 486  739.8621
 487  662.264
 488  537.6509
 489  433.9426
 490  528.1804
 491  585.0639
 492  637.0435
 493  591.8709
 494  596.3044
 495  644.4678
 496  667.7937
 497  758.176
 498  824.5052
 499  816.8484
 500  753.3259
 501  657.4825
 502  694.9822
 503  618.8201
 504  603.2695
 505  619.181
 506  715.3534
 507  759.1574
 508  719.4634
 509  671.9681
 510  565.6323
 511  441.9086
 512  378.7418
 513  387.7349
 514  388.9537
 515  412.1164
 516  446.0033
 517  455.1702
 518  373.2739
 519  441.6009
 520  534.7269
 521  530.1198
 522  498.6166
 523  509.7419
 524  502.7444
 525  493.2642
 526  441.01
 527  451.566
 528  404.6281
 529  372.1309
 530  448.7878
 531  578.4496
 532  642.058
 533  630.8909
 534  592.1315
 535  623.7231
 536  692.0892
 537  742.5862
 538  712.4399
 539  632.2043
 540  522.6142
 541  592.3387
 542  570.4033
 543  522.8183
 544  416.6984
 545  397.6026
 546  447.2699
 547  521.0848
 548  590.4385
 549  649.6264
 550  593.5013
 551  503.7121
 552  575.528
 553  595.8032
 554  703.7691
 555  730.395
 556  684.949
 557  511.7824
 558  452.0877
 559  518.2955
 560  500.0564
 561  505.4425
 562  546.8601
 563  670.5373
 564  603.6703
 565  478.6627
 566  458.1767
 567  446.2357
 568  484.3794
 569  444.7577
 570  430.9466
 571  431.0966
 572  387.8468
 573  419.9683
 574  487.5708
 575  584.0924
 576  603.9637
 577  623.2294
 578  679.3524
 579  702.2651
 580  638.6702
 581  565.2657
 582  466.9071
 583  467.5893
 584  426.6827
 585  433.3514
 586  378.8754
 587  395.8212
 588  468.2578
 589  570.7396
 590  608.0397
 591  706.4122
 592  757.5833
 593  709.199
 594  579.356
 595  569.8324
 596  674.4021
 597  631.1315
 598  543.5146
 599  468.6172
 600  463.2577
 601  463.0168
 602  364.3525
 603  400.3628
 604  504.7115
 605  634.2653
 606  715.105
 607  715.7809
 608  715.8251
 609  646.8483
 610  600.5716
 611  598.6853
 612  495.1119
 613  519.5368
 614  528.8187
 615  566.1932
 616  580.3944
 617  608.6418
 618  631.2903
 619  706.7363
 620  833.1693
 621  872.4608
 622  739.575
 623  745.0083
 624  823.3572
 625  905.0775
 626  865.4419
 627  958.3874
 628  1110.189
 629  1110.66
 630  1157.42
 631  1100.479
 632  1149.902
 633  1078.981
 634  1185.079
 635  1227.739
 636  1256.442
 637  1199.551
 638  1159.582
 639  1093.107
 640  992.3998
 641  936.2248
 642  877.0303
 643  865.6776
 644  804.6586
 645  813.5034
 646  857.9598
 647  787.955
 648  618.2424
 649  537.0965
 650  471.5903
 651  495.2224
 652  590.8102
 653  812.5433
 654  786.4747
 655  778.7021
 656  718.6181
 657  772.445
 658  835.647
 659  884.9739
 660  853.2121
 661  838.6877
 662  865.1265
 663  850.0358
 664  771.9926
 665  692.5362
 666  612.6838
 667  581.5368
 668  601.5057
 669  636.1365
 670  580.0535
 671  577.7177
 672  529.5565
 673  580.8698
 674  592.0605
 675  682.6738
 676  681.0176
 677  678.2861
 678  695.7901
 679  699.4151
 680  700.8459
 681  521.0776
 682  483.6166
 683  515.3971
 684  587.1608
 685  563.4954
 686  515.5589
 687  543.5731
 688  549.5638
 689  540.5123
 690  548.5505
 691  521.8381
 692  559.045
 693  527.4943
 694  578.9292
 695  599.6813
 696  584.9532
 697  533.4528
 698  467.9915
 699  465.6497
 700  570.7434
 701  540.6777
 702  477.0744
 703  414.6531
 704  386.2917
 705  438.0753
 706  513.4735
 707  526.2972
 708  492.7214
 709  411.2634
 710  408.7708
 711  455.5909
 712  433.3443
 713  485.9201
 714  482.5449
 715  453.1779
 716  492.1743
 717  546.4039
 718  766.5317
 719  774.2936
 720  668.121
 721  563.4965
 722  692.8264
 723  675.1919
 724  649.4478
 725  471.6507
 726  509.1322
 727  457.6398
 728  558.6596
 729  606.8259
 730  484.0235
 731  374.2507
 732  413.4548
 733  520.5446
 734  550.7737
 735  530.3185
 736  572.5416
 737  564.811
 738  555.7404
 739  481.333
 740  587.1626
 741  574.5125
 742  561.6642
 743  546.7748
 744  671.2593
 745  687.7728
 746  630.9969
 747  569.6268
 748  565.6489
 749  565.6863
 750  622.1086
 751  622.0637
 752  655.3207
 753  686.9019
 754  783.7288
 755  809.3032
 756  859.8879
 757  785.9434
 758  691.6613
 759  637.0948
 760  654.5168
 761  661.1815
 762  663.6509
 763  600.1539
 764  571.3242
 765  638.0342
 766  708.0292
 767  761.9337
 768  688.0259
 769  667.9951
 770  573.545
 771  524.1517
 772  498.4042
 773  516.1569
 774  526.8601
 775  492.8683
 776  449.994
 777  355.3593
 778  407.0009
 779  438.6984
 780  516.4489
 781  586.8472
 782  582.6931
 783  654.8351
 784  700.0621
 785  770.8618
 786  764.7368
 787  710.1991
 788  613.1066
 789  650.4332
 790  668.2709
 791  662.887
 792  632.3467
 793  600.2076
 794  650.9568
 795  516.0316
 796  479.768
 797  609.775
 798  691.4711
 799  782.4479
 800  726.1976
 801  679.6466
 802  638.4076
 803  488.1283
 804  477.7054
 805  481.5962
 806  479.5849
 807  499.5746
 808  542.1237
 809  610.2858
 810  698.601
 811  761.6987
 812  833.1768
 813  728.217
 814  638.6744
 815  599.5195
 816  681.7001
 817  738.5442
 818  794.6308
 819  667.989
 820  669.8806
 821  611.6395
 822  616.5228
 823  584.71
 824  549.4053
 825  575.4486
 826  554.5402
 827  544.0383
 828  580.2921
 829  633.715
 830  646.0558
 831  685.2964
 832  669.4721
 833  738.6138
 834  689.9224
 835  629.9761
 836  621.3931
 837  668.5526
 838  705.8762
 839  581.5291
 840  506.025
 841  585.2273
 842  693.4442
 843  732.2406
 844  703.4359
 845  751.0206
 846  777.3217
 847  826.9931
 848  844.2637
 849  881.1804
 850  860.3966
 851  744.7998
 852  738.9246
 853  752.4934
 854  763.6492
 855  658.291
 856  651.4833
 857  703.4818
 858  623.8956
 859  585.5386
 860  541.4369
 861  507.9342
 862  465.8873
 863  540.7476
 864  567.2771
 865  519.519
 866  384.4056
 867  512.3864
 868  546.3981
 869  597.41
 870  475.3986
 871  480.4341
 872  479.6768
 873  574.4733
 874  549.2684
 875  504.2617
 876  508.4896
 877  554.6945
 878  577.2708
 879  593.1113
 880  711.4568
 881  829.3257
 882  855.7451
 883  777.8933
 884  718.6844
 885  727.9052
 886  750.5729
 887  759.0605
 888  718.3003
 889  658.3248
 890  618.2546
 891  725.5928
 892  702.9323
 893  747.0396
 894  718.0771
 895  828.1689
 896  806.4182
 897  790.9576
 898  689.8383
 899  695.7465
 900  672.7321
 901  718.6955
 902  657.9396
 903  633.3436
 904  665.8115
 905  680.2327
 906  752.9217
 907  773.7115
 908  724.7743
 909  659.6505
 910  638.5515
 911  731.8459
 912  857.9481
 913  927.8785
 914  818.2028
 915  803.0812
 916  776.9249
 917  720.2932
 918  638.1258
 919  653.0593
 920  692.2699
 921  608.6514
 922  527.7677
 923  460.5854
 924  446.6752
 925  451.5541
 926  589.9202
 927  587.2631
 928  464.1411
 929  386.6131
 930  364.7007
 931  450.5051
 932  455.6993
 933  505.4515
 934  677.3096
 935  739.0124
 936  803.2339
 937  668.2675
 938  656.1316
 939  599.2949
 940  653.3803
 941  610.1845
 942  565.4178
 943  479.2978
 944  463.8298
 945  390.6954
 946  415.8607
 947  491.7694
 948  581.2354
 949  551.1094
 950  616.9542
 951  599.59
 952  584.0901
 953  490.9141
 954  453.8731
 955  508.188
 956  545.6056
 957  559.5995
 958  623.8772
 959  579.6807
 960  469.756
 961  411.545
 962  498.7822
 963  607.076
 964  555.8336
 965  546.3099
 966  631.9461
 967  616.2905
 968  534.0556
 969  430.2998
 970  464.0956
 971  469.4652
 972  517.4457
 973  468.7982
 974  475.6038
 975  444.2294
 976  513.3568
 977  657.8163
 978  749.732
 979  824.8531
 980  688.6769
 981  621.7133
 982  611.334
 983  596.2607
 984  561.793
 985  594.8815
 986  643.1574
 987  675.7089
 988  703.0828
 989  772.1059
 990  816.7325
 991  704.0124
 992  667.1962
 993  698.0199
 994  740.1161
 995  705.0717
 996  560.7415
 997  508.6514
 998  532.6879
 999  593.2718
1000  593.6415
1001  532.5685
1002  490.518
1003  524.492
1004  578.9062
1005  616.6788
1006  676.7771
1007  672.4771
1008  666.6492
1009  587.1367
1010  671.9739
1011  729.4289
1012  755.5477
1013  605.8611
1014  557.9236
1015  589.2144
1016  534.3317
1017  563.1862
1018  610.3963
1019  771.2267
1020  687.0678
1021  613.1529
1022  517.2129
1023  517.3352
