# Input file       =  1193017889.147111_cleaned.dat
# Candidate        =  PSR_0332+5434
# Telescope        =  AR
# Epoch_topo       =  58052.077640591560
# Epoch_bary       =  N/A
# T_sample         =  0.002
# Data Folded      =  7340032
# Data Avg         =  0.0788876669518817
# Data StdDev      =  3.07950808677548 
# Profile Bins     =  512
# Profile Avg      =  1130.96522312295 
# Profile StdDev   =  368.718853776434 
# Reduced chi-sqr  =  1.039
# Prob(Noise)      <  0.265   (~0.6 sigma)
# P_topo (ms)      =  714.490776208438  +/- 0.00038
# P'_topo (s/s)    =  -0                +/- 2e-10
# P''_topo (s/s^2) =  0                 +/- 8.84e-14
# P_bary (ms)      =  N/A
# P'_bary (s/s)    =  N/A
# P''_bary (s/s^2) =  N/A
# P_orb (s)        =  N/A
# asin(i)/c (s)    =  N/A
# eccentricity     =  N/A
# w (rad)          =  N/A
# T_peri           =  N/A
######################################################
   0  1211.211
   1  1248.027
   2  1264.321
   3  1298.613
   4  929.3156
   5  910.6706
   6  1188.823
   7  1328.246
   8  1005.94
   9  663.5048
  10  415.8354
  11  542.1313
  12  811.6617
  13  1169.509
  14  1337.426
  15  1488.728
  16  1537.168
  17  1058.5
  18  747.1605
  19  755.5364
  20  918.7722
  21  822.7982
  22  1041.12
  23  862.9753
  24  1352.594
  25  1324.671
  26  881.7505
  27  856.8295
  28  894.1519
  29  868.9731
  30  901.4767
  31  1012.644
  32  1231.04
  33  1060.767
  34  1104.185
  35  1173.203
  36  1049.208
  37  957.8752
  38  1161.47
  39  978.4608
  40  1137.596
  41  1070.747
  42  1153.771
  43  786.9022
  44  883.3903
  45  1339.007
  46  1253.661
  47  1410.234
  48  1456.857
  49  1274.842
  50  890.5541
  51  849.3153
  52  985.0283
  53  1245.579
  54  1593.42
  55  1251.289
  56  1369.804
  57  1623.45
  58  1496.454
  59  1467.187
  60  1483.082
  61  1150.495
  62  1073.579
  63  1018.76
  64  1161.795
  65  1156.146
  66  1082.182
  67  931.1895
  68  938.6864
  69  1002.042
  70  948.3074
  71  828.8105
  72  1049.307
  73  846.0457
  74  908.2144
  75  980.6512
  76  852.1352
  77  750.4639
  78  902.0763
  79  896.6462
  80  1138.751
  81  1141.653
  82  880.1542
  83  1236.45
  84  1123.606
  85  1146.402
  86  965.6496
  87  699.0859
  88  825.473
  89  1062.811
  90  1069.64
  91  1010.419
  92  1037.954
  93  1098.16
  94  1076.116
  95  766.0775
  96  1119.082
  97  1139.313
  98  824.4588
  99  992.5388
 100  1079.348
 101  980.9995
 102  754.4653
 103  1073.331
 104  915.6494
 105  898.8379
 106  1024.587
 107  1302.728
 108  1156.53
 109  939.6746
 110  1293.042
 111  1098.236
 112  1028.593
 113  1324.67
 114  1387.042
 115  1129.575
 116  1062.641
 117  1106.168
 118  1146.706
 119  1174.231
 120  1173.074
 121  1481.922
 122  1291.2
 123  1004.709
 124  1049.445
 125  1426.855
 126  1370.188
 127  1204.61
 128  1178.164
 129  1162.527
 130  1148.844
 131  1044.708
 132  957.9239
 133  666.2477
 134  741.3744
 135  1128.508
 136  1190.886
 137  1312.123
 138  1294.037
 139  1291.206
 140  1160
 141  1053.564
 142  1201.524
 143  1639.199
 144  1452.538
 145  748.5605
 146  1033.699
 147  1390.486
 148  1160.302
 149  981.8521
 150  1288.578
 151  1475.497
 152  1429.653
 153  1230.714
 154  1278.397
 155  1300.449
 156  1100.313
 157  1265.786
 158  1351.386
 159  1453.001
 160  1056.309
 161  867.0939
 162  1077.013
 163  1053.326
 164  1215.484
 165  1503.263
 166  1497.379
 167  1126.732
 168  1121.617
 169  996.5063
 170  934.2011
 171  1150.692
 172  1388.981
 173  1307.317
 174  1193.485
 175  1110.138
 176  995.6334
 177  1278.319
 178  1442.771
 179  1381.607
 180  1124.188
 181  1035.438
 182  958.7958
 183  1187.231
 184  1183.695
 185  1322.895
 186  1074.665
 187  866.2292
 188  1248.206
 189  1327.703
 190  1157.56
 191  973.7316
 192  1071.084
 193  1125.366
 194  1434.257
 195  1323.294
 196  1077.458
 197  1071.384
 198  1038.554
 199  954.092
 200  1071.817
 201  1273.657
 202  1298.725
 203  1060.364
 204  733.1734
 205  884.6242
 206  1293.262
 207  1334.587
 208  1561.709
 209  1561.382
 210  1223.338
 211  1046.136
 212  1035.446
 213  755.4698
 214  917.9875
 215  1291.501
 216  1096.674
 217  892.186
 218  1119.119
 219  1432.724
 220  839.9043
 221  1009.254
 222  1207.302
 223  1111.821
 224  1409.748
 225  1038.814
 226  1067.296
 227  1318.912
 228  1222.796
 229  1211.162
 230  1189.416
 231  1051.97
 232  811.298
 233  1007.545
 234  967.1201
 235  807.6888
 236  898.276
 237  1110.007
 238  867.1439
 239  883.2642
 240  1372.996
 241  1202.365
 242  1304.76
 243  1069.614
 244  1304.783
 245  1140.273
 246  981.1992
 247  821.5831
 248  565.851
 249  606.6309
 250  755.8509
 251  782.9178
 252  1014.992
 253  948.2977
 254  894.2476
 255  1096.158
 256  1097.401
 257  739.236
 258  1097.261
 259  1360.504
 260  1297.318
 261  1363.512
 262  1338.826
 263  1168.574
 264  1303.704
 265  1078.579
 266  1213.147
 267  1158.073
 268  1423.658
 269  1379.49
 270  1474.549
 271  1138.346
 272  1251.691
 273  1351.79
 274  1153.797
 275  985.8406
 276  946.498
 277  1139.625
 278  1149.25
 279  1181.03
 280  1052.708
 281  1262.252
 282  1264.282
 283  1176.466
 284  920.7753
 285  847.1612
 286  1191.895
 287  1136.88
 288  1198.811
 289  1124.142
 290  1181.005
 291  1354.327
 292  1071.329
 293  1164.451
 294  982.6332
 295  701.4198
 296  1019.484
 297  1028.474
 298  1167.684
 299  982.2584
 300  1098.831
 301  1055.786
 302  886.238
 303  1448.39
 304  1671.147
 305  1513.636
 306  1351.126
 307  1325.443
 308  1233.226
 309  1401.654
 310  1286.404
 311  1168.095
 312  1375.165
 313  1408.545
 314  1788.311
 315  2272.098
 316  2551.836
 317  2948.014
 318  2858.373
 319  2489.552
 320  2124.617
 321  1654.357
 322  1444.437
 323  1341.727
 324  1329.153
 325  1255.12
 326  1411.489
 327  1266.623
 328  967.3909
 329  1385.983
 330  1483.637
 331  1274.373
 332  1460.264
 333  1547.229
 334  1631.888
 335  1490.166
 336  1115.972
 337  1119.205
 338  1216.752
 339  1470.34
 340  1280.142
 341  846.4509
 342  1262.895
 343  1486.897
 344  1265.685
 345  885.786
 346  806.1199
 347  1083.914
 348  1394.362
 349  1475.058
 350  1458.723
 351  1047.935
 352  1197.367
 353  1658.238
 354  1552.426
 355  1358.183
 356  1215.713
 357  859.833
 358  867.6836
 359  1047.63
 360  1203.431
 361  1122.068
 362  777.9615
 363  825.5334
 364  945.5629
 365  1004.013
 366  848.6596
 367  904.8148
 368  935.452
 369  798.8702
 370  911.0984
 371  922.9856
 372  1060.848
 373  1037.622
 374  943.7585
 375  1021.491
 376  853.7281
 377  948.3389
 378  807.406
 379  969.0972
 380  1021.561
 381  882.7875
 382  1186.256
 383  1205.719
 384  1030.996
 385  1031.791
 386  950.1998
 387  1240.708
 388  1156.135
 389  1291.108
 390  1289.526
 391  1179.891
 392  1388.575
 393  1172.349
 394  1221.679
 395  1428.156
 396  1219.441
 397  1089.127
 398  1268.883
 399  1426.58
 400  1688.396
 401  1547.313
 402  1208.774
 403  954.0782
 404  988.9626
 405  1308.141
 406  1062.961
 407  1060.644
 408  1153.828
 409  775.0169
 410  860.4507
 411  749.3225
 412  716.4877
 413  1233.62
 414  1366.425
 415  1471.006
 416  1320.453
 417  1062.416
 418  1026.332
 419  1031.778
 420  777.068
 421  899.5721
 422  963.963
 423  1421.286
 424  1338.753
 425  1051.886
 426  1120.495
 427  1128.363
 428  1176.282
 429  916.8303
 430  836.4817
 431  1220.66
 432  973.9812
 433  814.8413
 434  1230.813
 435  1160.54
 436  1016.632
 437  1091.513
 438  1285.958
 439  892.8555
 440  1148.004
 441  1181.974
 442  767.895
 443  560.7562
 444  1292.248
 445  1564.382
 446  1058.526
 447  911.7328
 448  1221.432
 449  1052.799
 450  898.752
 451  834.9242
 452  886.2247
 453  1176.226
 454  997.2457
 455  869.6809
 456  819.9961
 457  853.2806
 458  863.0856
 459  1134.185
 460  759.6307
 461  779.3068
 462  366.9472
 463  511.6637
 464  935.0427
 465  1008.551
 466  926.4668
 467  1113.413
 468  1312.247
 469  1105.725
 470  657.7632
 471  651.2437
 472  804.934
 473  710.5215
 474  1000.08
 475  1075.654
 476  1090.407
 477  1213.664
 478  1418.05
 479  1234.413
 480  1073.776
 481  1048.228
 482  1182.826
 483  1317.363
 484  1130.678
 485  1189.448
 486  1097.722
 487  1097.85
 488  888.8017
 489  709.2313
 490  1132.779
 491  1333.071
 492  1611.522
 493  1151.662
 494  1006.24
 495  951.2394
 496  936.0507
 497  1128.328
 498  1529.007
 499  1425.053
 500  1167.359
 501  1130.187
 502  1056.403
 503  824.8633
 504  946.5928
 505  1101.168
 506  995.762
 507  1143.169
 508  992.5864
 509  1062.121
 510  1250.158
 511  1207.975
