# Input file       =  1193002974.143132_cleaned.dat
# Candidate        =  PSR_0332+5434
# Telescope        =  AR
# Epoch_topo       =  58051.905013230695
# Epoch_bary       =  N/A
# T_sample         =  0.002
# Data Folded      =  7340032
# Data Avg         =  0.0859647174625672
# Data StdDev      =  3.09538213562659 
# Profile Bins     =  512
# Profile Avg      =  1232.41791219056 
# Profile StdDev   =  370.619501844971 
# Reduced chi-sqr  =  0.986
# Prob(Noise)      <  0.582   (~0.0 sigma)
# P_topo (ms)      =  714.490293186375  +/- 0.000242
# P'_topo (s/s)    =  -0                +/- 1.28e-10
# P''_topo (s/s^2) =  0                 +/- 5.64e-14
# P_bary (ms)      =  N/A
# P'_bary (s/s)    =  N/A
# P''_bary (s/s^2) =  N/A
# P_orb (s)        =  N/A
# asin(i)/c (s)    =  N/A
# eccentricity     =  N/A
# w (rad)          =  N/A
# T_peri           =  N/A
######################################################
   0  699.9423
   1  967.1815
   2  969.5037
   3  1327.772
   4  1057.73
   5  1169.817
   6  1314.424
   7  1202.59
   8  1029.28
   9  896.3402
  10  766.3629
  11  1016.127
  12  1398.932
  13  1227.202
  14  1208.602
  15  1248.101
  16  1283.146
  17  1321.512
  18  1344.119
  19  1230.315
  20  1382.77
  21  1489.328
  22  1408.062
  23  1059.572
  24  715.7198
  25  1073.195
  26  1113.116
  27  1364.904
  28  1415.784
  29  1363.312
  30  1385.51
  31  1525.998
  32  1330.898
  33  1367.723
  34  1316.345
  35  1499.262
  36  1540.624
  37  1474.635
  38  1314.787
  39  1240.743
  40  1453.367
  41  1460.982
  42  1569.198
  43  1313.64
  44  1471.024
  45  1715.242
  46  1422.643
  47  1643.538
  48  1456.503
  49  1685.643
  50  1733.725
  51  1626.857
  52  1260.972
  53  1355.302
  54  1405.788
  55  1612.976
  56  1610.341
  57  1467.973
  58  1194.75
  59  963.1943
  60  1222.32
  61  1188.486
  62  1314.456
  63  1586.233
  64  1566.231
  65  1351.359
  66  1221.781
  67  1337.913
  68  1478.461
  69  1231.904
  70  817.2868
  71  776.2917
  72  859.8686
  73  828.6882
  74  979.8359
  75  1026.854
  76  1012.059
  77  932.6643
  78  854.2347
  79  825.6111
  80  1223.721
  81  1222.482
  82  1316.969
  83  1454.278
  84  1151.574
  85  1163.916
  86  935.428
  87  846.886
  88  1114.159
  89  1241.081
  90  1079.833
  91  1303.76
  92  1413.025
  93  961.1008
  94  1018.706
  95  1054.503
  96  1272.681
  97  934.3721
  98  931.9858
  99  873.6492
 100  819.0363
 101  912.1978
 102  1187.594
 103  1304.775
 104  1338.155
 105  1029.354
 106  894.8747
 107  809.0043
 108  867.7178
 109  1182.559
 110  1467.008
 111  1283.378
 112  1247.369
 113  1170.946
 114  930.7803
 115  824.5976
 116  909.8054
 117  1352.557
 118  1431.028
 119  1245.886
 120  1091.398
 121  1049.342
 122  1147.914
 123  1240.931
 124  1545.753
 125  1607.868
 126  1572.377
 127  1770.62
 128  2074.253
 129  2267.856
 130  2249.123
 131  2267.719
 132  2483.623
 133  2357.348
 134  2081.407
 135  1811.352
 136  1668.789
 137  1673.687
 138  1398.509
 139  1006.477
 140  1091.236
 141  1602.406
 142  1495.112
 143  1612.027
 144  1736.102
 145  1705.644
 146  1617.016
 147  1302.322
 148  1184.265
 149  1214.534
 150  1106.922
 151  1174.498
 152  1365.541
 153  1374.146
 154  1397.239
 155  1001.991
 156  1106.219
 157  1076.824
 158  1094.196
 159  1089.718
 160  1080.071
 161  1106.737
 162  1185.708
 163  997.301
 164  1039.345
 165  1013.617
 166  800.5617
 167  955.4203
 168  1016.311
 169  820.787
 170  890.0375
 171  968.042
 172  944.5805
 173  1320.528
 174  1437.324
 175  1259.661
 176  1322.041
 177  977.9436
 178  1019.122
 179  1086.31
 180  788.3804
 181  1073.104
 182  1104.952
 183  1118.312
 184  1070.984
 185  1134.113
 186  1224.056
 187  1313.567
 188  1135.81
 189  1188.361
 190  1278.511
 191  1474.527
 192  1668.219
 193  1474.778
 194  1292.045
 195  1324.953
 196  1169.277
 197  1350.329
 198  1448.499
 199  1239.626
 200  1019.163
 201  1044.865
 202  939.7285
 203  763.392
 204  957.2073
 205  1170.544
 206  1358.23
 207  1535.937
 208  1319.677
 209  1321.258
 210  1294.248
 211  1249.385
 212  992.9629
 213  1308.767
 214  1505.569
 215  1315.616
 216  963.2952
 217  963.549
 218  1041.924
 219  1313.417
 220  1595.291
 221  1363.378
 222  1284.096
 223  1534.245
 224  1334.066
 225  1228.291
 226  1132.239
 227  1129.749
 228  1126.444
 229  1280.707
 230  1355.682
 231  1427.599
 232  1250.345
 233  1375.219
 234  1085.839
 235  1282.691
 236  1436.608
 237  1528.281
 238  1674.517
 239  1738.973
 240  1481.04
 241  1516.862
 242  1309.569
 243  1324.432
 244  1125.653
 245  972.9417
 246  1110.809
 247  899.3353
 248  1063.165
 249  1070.048
 250  960.2736
 251  1125.14
 252  1012.606
 253  1133.477
 254  1308.231
 255  1686.262
 256  1494.432
 257  1478.779
 258  1475.66
 259  1276.263
 260  1430.594
 261  1466.125
 262  1634.32
 263  1478.83
 264  1369.463
 265  1374.737
 266  1298.484
 267  1435.854
 268  1498.963
 269  1297.183
 270  1594.584
 271  1743.841
 272  1580.065
 273  1352.952
 274  1347.114
 275  1132.266
 276  905.6526
 277  1044.927
 278  1046.223
 279  751.8849
 280  909.5587
 281  1187.865
 282  1542.296
 283  1321.353
 284  1253.965
 285  1171.704
 286  941.3452
 287  807.3237
 288  1075.626
 289  1168.065
 290  1182.075
 291  944.6542
 292  1055.481
 293  1185.697
 294  1043.613
 295  915.4666
 296  1161.607
 297  1179.914
 298  1144.338
 299  896.2859
 300  987.2234
 301  944.5046
 302  959.8948
 303  1413.475
 304  1509.554
 305  1231.832
 306  1157.983
 307  1240.033
 308  1380.702
 309  1588.746
 310  1367.937
 311  1440.245
 312  1262.367
 313  1041.34
 314  1185.032
 315  1022.589
 316  1105.765
 317  1294.571
 318  1339.127
 319  1260.925
 320  1484.244
 321  1160.336
 322  1123.555
 323  1179.044
 324  1456.052
 325  1127.996
 326  1051.392
 327  1203.709
 328  1312.981
 329  1130.163
 330  1064.079
 331  1147.499
 332  966.8828
 333  968.7538
 334  1098.047
 335  1207.581
 336  936.1323
 337  1085.539
 338  1105.115
 339  1122.041
 340  1012.007
 341  1315.951
 342  1377.018
 343  1177.03
 344  1040.922
 345  995.0423
 346  984.6377
 347  1018.94
 348  1012.472
 349  1525.75
 350  1336.855
 351  1278.664
 352  1339.909
 353  1097.271
 354  1139.082
 355  1386.11
 356  1571.029
 357  1041.309
 358  661.0455
 359  1087.653
 360  860.9774
 361  989.6935
 362  1266.617
 363  1561.564
 364  1622.145
 365  1486.135
 366  1118.944
 367  1152.278
 368  1572.993
 369  1530.863
 370  1117.557
 371  1272.418
 372  1153.687
 373  755.0045
 374  590.2791
 375  815.142
 376  1094.909
 377  918.2283
 378  1012.78
 379  1023.797
 380  1290.668
 381  1204.71
 382  1083.605
 383  1373.549
 384  1337.584
 385  1337.347
 386  1452.838
 387  1460.91
 388  1203.789
 389  1241.396
 390  1486.062
 391  1249.403
 392  871.3173
 393  955.1107
 394  1028.399
 395  1258.931
 396  1373.219
 397  1283.987
 398  1572.893
 399  1600.756
 400  1202.086
 401  1253.06
 402  1111.135
 403  1136.629
 404  1264.415
 405  1287.65
 406  1074.313
 407  1077.426
 408  1151.39
 409  1256.494
 410  1518.734
 411  1439.623
 412  1106.462
 413  940.6367
 414  1134.071
 415  907.8936
 416  1244.891
 417  1245.381
 418  1057.713
 419  1174.222
 420  1080.668
 421  1128.521
 422  948.9515
 423  720.6012
 424  648.1221
 425  592.6024
 426  846.5031
 427  1033.579
 428  1194.283
 429  1050.062
 430  889.3856
 431  944.7474
 432  1141.61
 433  1223.667
 434  1329.319
 435  1198.163
 436  834.6289
 437  984.5927
 438  846.9351
 439  827.4895
 440  902.4182
 441  970.0074
 442  979.4643
 443  881.0344
 444  808.5128
 445  1320.965
 446  1286.452
 447  1022.995
 448  1094.281
 449  1159.349
 450  1474.801
 451  1341.333
 452  1335.993
 453  1216.788
 454  1448.903
 455  1689.391
 456  1644.635
 457  1498.156
 458  1413.829
 459  1309.996
 460  1273.435
 461  1695.423
 462  1699.843
 463  1714.345
 464  1666.405
 465  1400.269
 466  1595.411
 467  1623.822
 468  1418.332
 469  1394.085
 470  1385.298
 471  1303.328
 472  1282.34
 473  1318.116
 474  1150.08
 475  1155.867
 476  1204.311
 477  1487.497
 478  1504.325
 479  1438.158
 480  1295.768
 481  1305.973
 482  1615.446
 483  1483.12
 484  1386.678
 485  1498.085
 486  1117.748
 487  1172.698
 488  1118.341
 489  1328.981
 490  1187.048
 491  1312.432
 492  1356.839
 493  1228.635
 494  1363.594
 495  1413.564
 496  1342.411
 497  1309.128
 498  1043.771
 499  1375.04
 500  1443.642
 501  1405.942
 502  1256.265
 503  999.9686
 504  1040.38
 505  1219.167
 506  675.1749
 507  572.2773
 508  1091.337
 509  639.6808
 510  681.0034
 511  824.3685
