# Input file       =  1193419152.126804_cleaned.dat
# Candidate        =  PSR_0332+5434
# Telescope        =  AR
# Epoch_topo       =  58056.721888041713
# Epoch_bary       =  N/A
# T_sample         =  0.002
# Data Folded      =  7143424
# Data Avg         =  0.0336856831830644
# Data StdDev      =  3.46552699125613 
# Profile Bins     =  1024
# Profile Avg      =  234.97540081041  
# Profile StdDev   =  289.449312028933 
# Reduced chi-sqr  =  0.767
# Prob(Noise)      <  1   (~0.0 sigma)
# P_topo (ms)      =  714.494540901442  +/- 0.000544
# P'_topo (s/s)    =  -0                +/- 2.95e-10
# P''_topo (s/s^2) =  0                 +/- 1.34e-13
# P_bary (ms)      =  N/A
# P'_bary (s/s)    =  N/A
# P''_bary (s/s^2) =  N/A
# P_orb (s)        =  N/A
# asin(i)/c (s)    =  N/A
# eccentricity     =  N/A
# w (rad)          =  N/A
# T_peri           =  N/A
######################################################
   0  308.9148
   1  363.9855
   2  326.5148
   3  248.6905
   4  231.3792
   5  114.5064
   6  221.0645
   7  169.7548
   8  257.2699
   9  208.5675
  10  323.7317
  11  347.3609
  12  184.0899
  13  157.8011
  14  184.4535
  15  208.1875
  16  143.4102
  17  126.4651
  18  247.8788
  19  181.3555
  20  178.1283
  21  303.8798
  22  393.2437
  23  375.9022
  24  252.9207
  25  300.3184
  26  202.0468
  27  136.1967
  28  93.69557
  29  150.6019
  30  241.5099
  31  293.0005
  32  285.7139
  33  240.253
  34  212.1935
  35  237.9107
  36  185.4682
  37  93.35429
  38  17.21909
  39  24.40829
  40  126.0459
  41  231.4945
  42  307.7676
  43  320.729
  44  338.7815
  45  278.4715
  46  305.6941
  47  290.437
  48  215.1395
  49  111.163
  50  140.7005
  51  159.7373
  52  155.9595
  53  199.9669
  54  332.7934
  55  417.925
  56  384.8811
  57  247.9655
  58  258.7881
  59  367.6169
  60  343.9841
  61  234.9955
  62  134.6063
  63  192.0375
  64  272.1975
  65  192.4302
  66  176.3442
  67  178.0105
  68  372.5737
  69  457.2146
  70  511.0804
  71  331.9233
  72  217.801
  73  253.5226
  74  235.4052
  75  186.7314
  76  82.88419
  77  128.9498
  78  204.6915
  79  254.9464
  80  187.0878
  81  114.0869
  82  79.59612
  83  213.8039
  84  246.26
  85  186.4818
  86  103.09
  87  78.13329
  88  79.96058
  89  102.6326
  90  119.2506
  91  169.0208
  92  258.3868
  93  332.1892
  94  436.2616
  95  327.9636
  96  273.5844
  97  177.5231
  98  216.731
  99  253.402
 100  310.7816
 101  201.8146
 102  201.1957
 103  197.9109
 104  194.1543
 105  180.0222
 106  114.2732
 107  218.1719
 108  133.1448
 109  195.742
 110  181.4189
 111  144.939
 112  83.51611
 113  116.2065
 114  104.8104
 115  54.87703
 116  -44.20168
 117  -75.36935
 118  -6.344705
 119  110.0257
 120  225.2768
 121  231.5145
 122  153.7407
 123  161.0128
 124  151.5385
 125  155.9282
 126  171.0721
 127  295.5367
 128  368.5754
 129  361.9066
 130  150.4453
 131  135.3324
 132  145.8604
 133  321.8289
 134  348.3435
 135  281.7202
 136  140.6207
 137  141.4579
 138  170.3258
 139  302.0283
 140  345.8082
 141  205.3669
 142  85.53759
 143  -34.56416
 144  114.8344
 145  74.09972
 146  149.0234
 147  253.7413
 148  264.2314
 149  269.1919
 150  239.8773
 151  322.9198
 152  327.9622
 153  274.8638
 154  270.6631
 155  275.6374
 156  310.1234
 157  198.5804
 158  213.4375
 159  267.1616
 160  411.8662
 161  420.2935
 162  263.1654
 163  269.5831
 164  271.6396
 165  392.9471
 166  326.5193
 167  267.31
 168  226.1009
 169  94.1329
 170  105.5257
 171  108.7228
 172  125.5764
 173  170.5666
 174  55.89376
 175  136.285
 176  150.8233
 177  285.3382
 178  245.173
 179  271.1953
 180  305.9606
 181  329.5281
 182  182.2924
 183  132.1003
 184  10.23884
 185  130.5978
 186  74.68415
 187  193.3183
 188  231.3886
 189  246.4896
 190  49.15341
 191  -13.07652
 192  6.50012
 193  48.23965
 194  -7.44163
 195  66.95667
 196  188.3526
 197  236.344
 198  194.6593
 199  210.8963
 200  296.9408
 201  305.0327
 202  301.3164
 203  258.8312
 204  189.9646
 205  12.36951
 206  -105.7953
 207  -6.241074
 208  38.99655
 209  135.6763
 210  158.1746
 211  279.1456
 212  340.4029
 213  267.829
 214  53.78421
 215  -31.68285
 216  19.82783
 217  206.2568
 218  331.6614
 219  349.8818
 220  330.1755
 221  399.7169
 222  430.4641
 223  332.7736
 224  128.0134
 225  123.3583
 226  152.1622
 227  143.3917
 228  208.9562
 229  131.9975
 230  107.6666
 231  86.90671
 232  178.8111
 233  218.2265
 234  114.0005
 235  174.6421
 236  284.9424
 237  316.1795
 238  255.9888
 239  375.78
 240  499.3016
 241  603.1428
 242  480.5127
 243  335.6917
 244  247.2222
 245  146.6844
 246  106.4954
 247  19.28391
 248  143.1747
 249  253.5879
 250  297.3181
 251  187.0146
 252  60.51575
 253  -1.027431
 254  126.8566
 255  279.8901
 256  197.3499
 257  99.79223
 258  163.4382
 259  261.6034
 260  260.7017
 261  110.8448
 262  97.62371
 263  158.009
 264  301.8336
 265  369.9146
 266  315.9278
 267  313.0676
 268  264.2865
 269  242.8143
 270  234.1293
 271  138.5792
 272  219.9865
 273  230.7782
 274  410.9529
 275  366.5129
 276  258.9817
 277  137.5807
 278  96.28188
 279  158.7554
 280  196.1887
 281  138.0864
 282  158.2184
 283  78.65614
 284  81.83418
 285  103.2242
 286  244.7921
 287  317.0823
 288  303.2367
 289  202.4217
 290  147.7344
 291  166.2434
 292  155.5751
 293  134.2122
 294  211.844
 295  292.462
 296  436.1641
 297  408.5704
 298  438.114
 299  352.3546
 300  327.1677
 301  181.562
 302  113.6417
 303  97.27811
 304  246.7426
 305  237.7036
 306  289.1893
 307  151.8957
 308  122.4459
 309  195.942
 310  349.8816
 311  568.6957
 312  585.8241
 313  482.1962
 314  419.584
 315  208.0052
 316  149.953
 317  229.3041
 318  327.4008
 319  325.4835
 320  228.1047
 321  205.9214
 322  191.9038
 323  95.62058
 324  54.97044
 325  154.5432
 326  354.996
 327  312.5856
 328  265.8846
 329  87.28396
 330  223.3033
 331  165.5654
 332  175.9017
 333  182.8136
 334  153.3517
 335  250.524
 336  237.6961
 337  289.6264
 338  198.5611
 339  144.8356
 340  106.9068
 341  208.613
 342  169.7409
 343  236.8921
 344  237.7101
 345  322.1771
 346  347.4119
 347  437.1527
 348  439.8574
 349  354.36
 350  299.2541
 351  256.8145
 352  283.0619
 353  133.6589
 354  149.2589
 355  203.1507
 356  152.8318
 357  9.976447
 358  39.4283
 359  324.5955
 360  477.236
 361  481.3219
 362  412.2856
 363  265.3748
 364  298.8022
 365  285.4486
 366  365.7679
 367  252.3604
 368  151.8852
 369  152.945
 370  199.7041
 371  265.2992
 372  228.498
 373  180.4895
 374  229.3446
 375  197.4111
 376  102.9047
 377  -24.04307
 378  -25.5125
 379  53.43458
 380  166.1924
 381  231.1668
 382  283.0262
 383  226.5999
 384  212.8637
 385  203.3618
 386  140.6076
 387  279.1841
 388  318.8758
 389  347.7059
 390  176.1279
 391  173.7498
 392  284.9174
 393  350.0932
 394  334.8058
 395  271.8622
 396  236.3871
 397  205.4106
 398  222.7108
 399  177.3948
 400  182.2151
 401  245.6155
 402  336.7772
 403  363.7333
 404  313.7571
 405  319.5593
 406  321.2766
 407  233.8382
 408  141.4478
 409  72.63183
 410  56.43774
 411  175.5031
 412  252.0597
 413  322.3489
 414  125.031
 415  132.3893
 416  19.22712
 417  151.1552
 418  172.9006
 419  325.0406
 420  276.599
 421  293.0735
 422  263.0454
 423  277.7254
 424  287.7899
 425  186.3497
 426  177.0928
 427  273.8515
 428  381.6759
 429  436.5987
 430  417.2812
 431  209.9396
 432  97.51001
 433  -5.140583
 434  130.8934
 435  90.33856
 436  69.66357
 437  178.1551
 438  205.2313
 439  204.5932
 440  172.768
 441  208.9469
 442  244.9352
 443  228.0511
 444  248.4714
 445  198.2691
 446  152.5001
 447  184.3362
 448  239.9771
 449  361.9955
 450  315.5469
 451  254.6645
 452  244.7804
 453  281.6062
 454  284.8969
 455  345.8676
 456  360.5124
 457  433.3136
 458  412.8485
 459  462.5204
 460  338.9888
 461  284.4016
 462  249.8589
 463  235.6647
 464  85.36922
 465  15.8275
 466  147.8278
 467  393.4585
 468  464.0334
 469  334.4974
 470  341.7425
 471  317.5592
 472  219.3774
 473  128.4317
 474  93.18671
 475  244.6087
 476  216.3403
 477  281.9406
 478  314.0265
 479  181.7768
 480  97.57996
 481  106.7401
 482  272.4905
 483  273.0882
 484  268.5156
 485  386.8146
 486  380.3132
 487  231.7095
 488  154.5159
 489  215.5776
 490  220.966
 491  148.0142
 492  65.37873
 493  86.54193
 494  29.99578
 495  92.6912
 496  128.2938
 497  204.8135
 498  44.3294
 499  -1.151762
 500  31.03142
 501  151.9916
 502  220.3848
 503  346.0465
 504  360.5698
 505  313.3754
 506  220.8511
 507  338.7464
 508  299.5127
 509  120.2841
 510  66.66361
 511  222.2102
 512  361.7188
 513  290.3896
 514  177.9629
 515  172.6878
 516  208.6313
 517  263.0561
 518  336.892
 519  233.5717
 520  58.97131
 521  -29.09424
 522  61.48302
 523  52.38287
 524  -1.532958
 525  176.9044
 526  397.3441
 527  464.9001
 528  460.785
 529  440.2479
 530  459.6009
 531  311.5681
 532  249.4171
 533  194.9258
 534  248.9594
 535  181.636
 536  176.5717
 537  123.8265
 538  127.457
 539  184.2397
 540  353.5522
 541  448.8896
 542  265.4342
 543  171.1621
 544  183.0883
 545  230.5898
 546  294.3469
 547  258.9691
 548  352.2641
 549  344.689
 550  447.6511
 551  493.0223
 552  373.179
 553  344.1042
 554  411.397
 555  560.1663
 556  515.0949
 557  352.6456
 558  258.0049
 559  250.8871
 560  261.2217
 561  313.1844
 562  233.9975
 563  133.4956
 564  -79.51704
 565  -12.04044
 566  77.9194
 567  211.9269
 568  226.6209
 569  141.7424
 570  186.4644
 571  213.5062
 572  298.1146
 573  276.995
 574  271.6511
 575  298.0414
 576  312.6412
 577  383.6265
 578  289.4573
 579  92.31498
 580  30.36075
 581  18.15699
 582  122.0579
 583  66.22744
 584  24.14161
 585  171.6793
 586  350.9716
 587  370.7249
 588  393.345
 589  337.8793
 590  390.624
 591  314.3886
 592  227.6126
 593  206.442
 594  166.1145
 595  267.3808
 596  258.7315
 597  234.9262
 598  185.4025
 599  236.0487
 600  203.7342
 601  248.9716
 602  287.0338
 603  266.5858
 604  320.6118
 605  358.4416
 606  385.265
 607  248.8268
 608  154.1674
 609  199.6156
 610  193.0438
 611  237.5306
 612  239.8797
 613  220.8643
 614  172.6841
 615  215.2688
 616  329.3445
 617  389.2711
 618  488.2976
 619  474.7938
 620  438.024
 621  443.4558
 622  436.8078
 623  484.9723
 624  453.8521
 625  513.1702
 626  509.3571
 627  449.3132
 628  498.3254
 629  587.2434
 630  849.9518
 631  990.8828
 632  1045.475
 633  1067.139
 634  1080.225
 635  1066.171
 636  992.656
 637  985.3868
 638  845.1
 639  682.6614
 640  500.5959
 641  437.2399
 642  364.7982
 643  257.2907
 644  174.6195
 645  171.2656
 646  223.4281
 647  270.2005
 648  233.0217
 649  318.3135
 650  331.6976
 651  440.4977
 652  329.3434
 653  314.8231
 654  300.2188
 655  478.6242
 656  537.2241
 657  478.3761
 658  264.3151
 659  163.0412
 660  215.7031
 661  273.0629
 662  336.7616
 663  352.5365
 664  342.5702
 665  262.3215
 666  201.477
 667  231.7832
 668  207.339
 669  301.2376
 670  209.3883
 671  176.8527
 672  103.8491
 673  139.0751
 674  184.7811
 675  146.2733
 676  9.092488
 677  104.0316
 678  163.9419
 679  303.4203
 680  234.5159
 681  247.4394
 682  210.2228
 683  141.8436
 684  211.0711
 685  147.5274
 686  140.9567
 687  -45.67572
 688  131.5934
 689  248.9069
 690  323.5164
 691  165.2255
 692  103.9586
 693  158.216
 694  202.3467
 695  225.1146
 696  307.4883
 697  372.7577
 698  504.4617
 699  447.8538
 700  468.0008
 701  412.229
 702  378.1715
 703  400.6823
 704  428.2037
 705  357.1058
 706  298.292
 707  285.8523
 708  413.4663
 709  374.4209
 710  365.3912
 711  313.9416
 712  211.6015
 713  100.4529
 714  86.14697
 715  152.7328
 716  219.4982
 717  207.5026
 718  129.4719
 719  65.36676
 720  125.8614
 721  190.9214
 722  270.5217
 723  234.1136
 724  235.8795
 725  278.9296
 726  268.0031
 727  186.445
 728  18.27708
 729  145.5536
 730  279.6268
 731  376.7571
 732  289.262
 733  274.786
 734  410.4407
 735  331.9148
 736  271.2762
 737  74.3572
 738  201.0733
 739  247.7694
 740  249.7399
 741  195.8521
 742  219.743
 743  227.2013
 744  271.3548
 745  190.0751
 746  220.2791
 747  330.4247
 748  474.7693
 749  402.7418
 750  275.3718
 751  309.6537
 752  516.8356
 753  527.4674
 754  428.5211
 755  178.4551
 756  255.8302
 757  314.2867
 758  456.2055
 759  350.2642
 760  165.3636
 761  145.4544
 762  135.3138
 763  171.8906
 764  45.90045
 765  -38.28319
 766  22.01215
 767  149.084
 768  156.1464
 769  110.7377
 770  108.1528
 771  216.536
 772  245.836
 773  286.2274
 774  266.0431
 775  123.7286
 776  70.1795
 777  146.4598
 778  84.36954
 779  11.89951
 780  -156.9715
 781  -52.70493
 782  19.48055
 783  7.943165
 784  9.453957
 785  11.60046
 786  261.3995
 787  360.9287
 788  430.7145
 789  396.363
 790  450.8412
 791  446.4804
 792  343.7289
 793  205.0263
 794  81.95122
 795  193.8306
 796  223.153
 797  365.8283
 798  261.2236
 799  156.5845
 800  67.37247
 801  15.55712
 802  92.05187
 803  238.2586
 804  421.6436
 805  294.0265
 806  341.7509
 807  335.819
 808  426.4664
 809  221.4673
 810  147.7656
 811  166.2365
 812  253.42
 813  240.1615
 814  126.7332
 815  102.7821
 816  61.11879
 817  114.8005
 818  155.2665
 819  420.3106
 820  394.3139
 821  443.3694
 822  366.6758
 823  379.0238
 824  211.6675
 825  118.045
 826  154.6015
 827  256.1643
 828  209.6001
 829  181.3402
 830  163.7276
 831  182.6493
 832  255.0603
 833  256.5147
 834  385.5149
 835  251.5946
 836  189.7206
 837  114.2289
 838  69.35348
 839  207.2941
 840  304.6279
 841  382.7401
 842  175.9553
 843  0.3905002
 844  9.938239
 845  72.38016
 846  171.9206
 847  126.1736
 848  176.6471
 849  234.8019
 850  252.4988
 851  145.733
 852  162.6685
 853  152.0827
 854  203.1334
 855  207.2235
 856  369.9753
 857  339.7306
 858  326.112
 859  209.902
 860  136.9224
 861  42.53666
 862  206.4155
 863  304.8834
 864  294.2855
 865  67.86983
 866  -12.80196
 867  95.76489
 868  339.579
 869  443.8497
 870  382.3447
 871  330.5796
 872  192.97
 873  201.4235
 874  204.2428
 875  248.5466
 876  182.3598
 877  192.1663
 878  280.1113
 879  216.5475
 880  137.2162
 881  186.227
 882  289.4334
 883  237.7358
 884  246.7434
 885  287.9146
 886  360.893
 887  298.6019
 888  160.999
 889  269.9793
 890  288.4091
 891  302.6902
 892  115.7304
 893  108.9002
 894  147.3373
 895  105.1778
 896  -34.89835
 897  8.89544
 898  115.761
 899  254.0152
 900  233.9317
 901  136.2322
 902  126.1685
 903  147.4013
 904  295.7447
 905  270.8792
 906  222.4096
 907  168.8165
 908  81.54505
 909  77.4707
 910  73.85326
 911  192.5287
 912  288.7115
 913  286.8958
 914  287.2394
 915  199.0453
 916  127.6356
 917  75.8167
 918  166.9114
 919  434.7793
 920  522.056
 921  619.6489
 922  556.2795
 923  626.8881
 924  493.4703
 925  302.2674
 926  67.68935
 927  76.40395
 928  65.19386
 929  192.479
 930  268.744
 931  353.6793
 932  274.032
 933  180.3675
 934  182.6017
 935  194.5035
 936  292.558
 937  313.0508
 938  264.0067
 939  217.5961
 940  199.6565
 941  230.8517
 942  166.2328
 943  104.0002
 944  79.12985
 945  76.3129
 946  112.2387
 947  107.5414
 948  108.2992
 949  130.773
 950  157.387
 951  205.929
 952  254.1004
 953  232.3986
 954  147.8089
 955  55.02562
 956  125.9632
 957  215.2664
 958  281.1526
 959  289.9562
 960  332.1777
 961  240.5604
 962  164.7272
 963  -24.34039
 964  70.2552
 965  194.8739
 966  263.8622
 967  247.343
 968  196.6069
 969  233.8298
 970  268.3849
 971  365.6276
 972  394.5747
 973  309.9659
 974  231.2491
 975  237.6699
 976  211.2931
 977  161.7066
 978  127.9441
 979  182.146
 980  325.3853
 981  340.7251
 982  268.6937
 983  109.0681
 984  91.70531
 985  186.8945
 986  236.7003
 987  273.9046
 988  275.9286
 989  295.5765
 990  351.7615
 991  277.9358
 992  165.5354
 993  128.5432
 994  233.1808
 995  141.7775
 996  125.4462
 997  126.9252
 998  92.36584
 999  15.29858
1000  -35.66991
1001  110.8736
1002  93.44585
1003  150.2991
1004  308.41
1005  420.7757
1006  400.3818
1007  270.4134
1008  274.5683
1009  104.0117
1010  106.7795
1011  56.74369
1012  273.3479
1013  240.9683
1014  81.90004
1015  88.75076
1016  131.8944
1017  133.2009
1018  213.1572
1019  306.7194
1020  525.079
1021  168.9108
1022  68.19769
1023  62.94835
