# Input file       =  1193519894.150377_cleaned.dat
# Candidate        =  PSR_0332+5434
# Telescope        =  AR
# Epoch_topo       =  58057.887883684918
# Epoch_bary       =  N/A
# T_sample         =  0.002
# Data Folded      =  7340032
# Data Avg         =  0.0829555315503965
# Data StdDev      =  2.73034237485947 
# Profile Bins     =  512
# Profile Avg      =  1189.16896329204 
# Profile StdDev   =  326.912182890074 
# Reduced chi-sqr  =  1.313
# Prob(Noise)      <  2.32e-06   (~4.6 sigma)
# P_topo (ms)      =  714.495611019945  +/- 0.000215
# P'_topo (s/s)    =  -0                +/- 1.14e-10
# P''_topo (s/s^2) =  0                 +/- 5.01e-14
# P_bary (ms)      =  N/A
# P'_bary (s/s)    =  N/A
# P''_bary (s/s^2) =  N/A
# P_orb (s)        =  N/A
# asin(i)/c (s)    =  N/A
# eccentricity     =  N/A
# w (rad)          =  N/A
# T_peri           =  N/A
######################################################
   0  1191.741
   1  831.874
   2  886.9289
   3  1091.764
   4  1175.703
   5  1273.342
   6  1612.455
   7  1318.577
   8  996.6572
   9  1179.367
  10  1322.162
  11  1216.321
  12  1270.543
  13  1313.048
  14  1358.256
  15  1245.754
  16  883.0106
  17  1001.252
  18  1156.472
  19  1336.681
  20  1100.441
  21  1312.444
  22  1522.402
  23  1412.456
  24  1348.936
  25  1247.75
  26  1570.045
  27  1251.885
  28  991.9681
  29  909.3283
  30  1077.97
  31  1150.569
  32  1097.816
  33  1216.304
  34  1257.974
  35  1271.702
  36  1341.592
  37  1455.282
  38  1217.887
  39  1126.964
  40  1082.597
  41  1467.624
  42  1669.211
  43  1282.125
  44  1046.97
  45  976.7873
  46  1214.436
  47  1265.533
  48  1175.208
  49  1141.966
  50  1089.687
  51  1252.732
  52  1124.634
  53  1238.012
  54  1397.724
  55  1499.062
  56  1411.658
  57  1141.001
  58  1002.502
  59  1156.636
  60  1354.094
  61  1319.624
  62  1190.104
  63  1194.863
  64  1246.622
  65  937.6628
  66  1104.063
  67  1092.459
  68  851.5805
  69  992.9608
  70  997.221
  71  988.405
  72  1169.412
  73  1430.585
  74  1483.634
  75  1332.604
  76  1299.646
  77  1233.13
  78  1133.398
  79  988.8514
  80  988.0009
  81  765.5488
  82  1049.289
  83  1093.92
  84  1386.336
  85  1380.897
  86  1246.057
  87  1274.358
  88  1369.469
  89  1429.23
  90  1633.351
  91  1469.396
  92  1260.775
  93  1366.788
  94  1167.837
  95  1148.863
  96  1208.268
  97  1630.72
  98  1646.262
  99  1528.859
 100  1347.923
 101  1427.19
 102  984.0801
 103  1202.352
 104  1399.781
 105  1411.031
 106  1145.38
 107  1573.922
 108  1308.56
 109  1418.453
 110  1316.426
 111  1219.366
 112  1312.788
 113  1136.87
 114  1053.42
 115  1064.702
 116  1113.794
 117  1162.27
 118  990.8912
 119  1132.141
 120  1226.95
 121  1222.897
 122  1186.577
 123  1154.673
 124  1097.778
 125  1176.627
 126  874.0391
 127  870.7167
 128  1006.087
 129  1080.377
 130  1148.167
 131  906.7646
 132  930.6347
 133  1031.962
 134  1027.365
 135  938.0065
 136  925.3072
 137  1029.294
 138  1221.504
 139  1164.53
 140  1238.334
 141  1483.345
 142  1396.789
 143  1173.995
 144  1357.449
 145  1244.891
 146  1317.825
 147  1216.848
 148  1259.016
 149  983.9317
 150  913.5461
 151  911.3541
 152  1100.957
 153  1086.246
 154  1224.409
 155  1140.981
 156  1047.328
 157  1249.673
 158  1383.073
 159  1352.371
 160  1342.355
 161  1420.845
 162  1244.384
 163  1211.996
 164  1270.699
 165  1298.824
 166  1314.391
 167  1298.599
 168  1460.928
 169  1314.108
 170  1038.071
 171  1448.188
 172  1572.294
 173  1500.161
 174  1267.01
 175  1175.381
 176  1122.388
 177  1226.672
 178  1250.28
 179  990.9642
 180  1246.901
 181  1340.997
 182  1153.147
 183  1057.01
 184  1311.589
 185  1128.073
 186  1386.115
 187  1619.474
 188  1291.402
 189  1101.269
 190  1027.571
 191  895.1908
 192  876.9351
 193  1005.027
 194  1107.178
 195  1099.661
 196  924.785
 197  823.4941
 198  965.2725
 199  963.4315
 200  1383.487
 201  1540.167
 202  1490.908
 203  1354.386
 204  1110.746
 205  1219.18
 206  1161.359
 207  1204.809
 208  1247.225
 209  1285.224
 210  1378.172
 211  1007.662
 212  1085.997
 213  1227.68
 214  1622.177
 215  1641.91
 216  1551.471
 217  1775.129
 218  1816.993
 219  2070.686
 220  2309.925
 221  2922.215
 222  2915.015
 223  2928.674
 224  2615.464
 225  2182.395
 226  1836.749
 227  1720.588
 228  1537.018
 229  1375.492
 230  1175.215
 231  1259.039
 232  1311.688
 233  1451.09
 234  1619.978
 235  1436.852
 236  1500.632
 237  1222.21
 238  1113.436
 239  1425.93
 240  1220.618
 241  829.0668
 242  1085.965
 243  1270.148
 244  1382.136
 245  1068.683
 246  1092.771
 247  1083.422
 248  1306.365
 249  1202.045
 250  1469.708
 251  1326.122
 252  1307.938
 253  1177.972
 254  1151.126
 255  1310.918
 256  1313.623
 257  1097.366
 258  1087.043
 259  1432.081
 260  1589.333
 261  1447.554
 262  1074.224
 263  1373.328
 264  1477.337
 265  1335.96
 266  1225.461
 267  1131.975
 268  884.7823
 269  987.1468
 270  1075.592
 271  1417.301
 272  1429.986
 273  1149.532
 274  1211.771
 275  1055.101
 276  1022.4
 277  1205.861
 278  1218.975
 279  1096.026
 280  1487.109
 281  1440.178
 282  1531.571
 283  1501.192
 284  1249.91
 285  1245.375
 286  1140.245
 287  952.881
 288  1021.637
 289  953.841
 290  875.3735
 291  794.3018
 292  834.2147
 293  794.7906
 294  972.2814
 295  1499.953
 296  1390.804
 297  1293.931
 298  1401.887
 299  1340.23
 300  1351.976
 301  1197.479
 302  1070.903
 303  1157.671
 304  1156.645
 305  1020.663
 306  1002.915
 307  1038.233
 308  836.2663
 309  871.775
 310  899.1067
 311  1185.799
 312  1168.883
 313  1340.457
 314  1589.607
 315  1878.585
 316  1536.107
 317  1196.077
 318  1144.089
 319  1102.941
 320  935.3321
 321  862.8914
 322  1239.533
 323  1133.27
 324  1034.094
 325  831.2546
 326  691.456
 327  1157.396
 328  1376.185
 329  1408.32
 330  1126.659
 331  992.8611
 332  1098.406
 333  1091.187
 334  1287.724
 335  986.2333
 336  596.8098
 337  900.7307
 338  935.5784
 339  1187.771
 340  942.7771
 341  966.0776
 342  865.6014
 343  860.3374
 344  878.905
 345  1086.489
 346  1417.754
 347  1359.108
 348  1048.474
 349  1242.941
 350  985.2624
 351  1024.789
 352  1165.532
 353  1147.195
 354  1009.565
 355  1361.29
 356  1270.536
 357  951.705
 358  675.4214
 359  878.2374
 360  923.0102
 361  1134.914
 362  1169.521
 363  1108.654
 364  1113.172
 365  949.3756
 366  776.5703
 367  834.8008
 368  761.2523
 369  795.5371
 370  976.0527
 371  1038.987
 372  1077.994
 373  1159.301
 374  1107.847
 375  1071.221
 376  1284.803
 377  1034.727
 378  1045.195
 379  1230.257
 380  1213.82
 381  1157.076
 382  867.1325
 383  1100.918
 384  934.2434
 385  617.9451
 386  594.1102
 387  713.9862
 388  891.4738
 389  1227.105
 390  1077.026
 391  1013.431
 392  1019.462
 393  1118.382
 394  1373.696
 395  1244.401
 396  964.2627
 397  1082.708
 398  919.4089
 399  1350.601
 400  1398.098
 401  1219.654
 402  1005.465
 403  1146.695
 404  1373.7
 405  1115.648
 406  584.1594
 407  792.4803
 408  1063.888
 409  1148.213
 410  1178.824
 411  1141.25
 412  979.3037
 413  648.0082
 414  967.6287
 415  1013.56
 416  1101.253
 417  1050.238
 418  1086.977
 419  833.4054
 420  933.662
 421  1180.937
 422  1306.112
 423  1258.942
 424  1421.549
 425  1122.457
 426  1414.509
 427  1379.749
 428  1089.057
 429  1158.337
 430  1428.243
 431  1180.626
 432  1256.964
 433  1007.762
 434  671.3065
 435  425.765
 436  760.8689
 437  648.1645
 438  935.5051
 439  1070.107
 440  1035.347
 441  968.5886
 442  1014.842
 443  1098.67
 444  1362.011
 445  1344.599
 446  1404.012
 447  1444.223
 448  1115.025
 449  1093.721
 450  1104.575
 451  1318.668
 452  1093.139
 453  1344.607
 454  1341.23
 455  1519.638
 456  1561.154
 457  1184.306
 458  1154.204
 459  1345.161
 460  1380.387
 461  1235.396
 462  1009.584
 463  873.7639
 464  753.7715
 465  1149.549
 466  1257.457
 467  1309.425
 468  1118.573
 469  1084.797
 470  1039.832
 471  1039.481
 472  1239.818
 473  1185.559
 474  1015.689
 475  1517.392
 476  1255.97
 477  1091.447
 478  1089.02
 479  1381.152
 480  1170.488
 481  1037.172
 482  1210.421
 483  909.5685
 484  701.9965
 485  973.1293
 486  1282.632
 487  975.4066
 488  965.1411
 489  1237.248
 490  1319.267
 491  1026.417
 492  955.8174
 493  964.6506
 494  1215.325
 495  1256.892
 496  1233.64
 497  1188.247
 498  1084.748
 499  1201.595
 500  1046.519
 501  1272.062
 502  1308.447
 503  1299.269
 504  1252.746
 505  1093.478
 506  897.2277
 507  752.8444
 508  1178.93
 509  999.2894
 510  736.6631
 511  836.7951
