# Input file       =  1193591436.151234_cleaned.dat
# Candidate        =  PSR_0332+5434
# Telescope        =  AR
# Epoch_topo       =  58058.715916102243
# Epoch_bary       =  N/A
# T_sample         =  0.002
# Data Folded      =  7143424
# Data Avg         =  0.135571503975437
# Data StdDev      =  3.63834362595511 
# Profile Bins     =  512
# Profile Avg      =  1891.57099136923 
# Profile StdDev   =  429.755998956442 
# Reduced chi-sqr  =  0.797
# Prob(Noise)      <  1   (~0.0 sigma)
# P_topo (ms)      =  714.49635940681   +/- 0.000155
# P'_topo (s/s)    =  -0                +/- 8.39e-11
# P''_topo (s/s^2) =  0                 +/- 3.8e-14
# P_bary (ms)      =  N/A
# P'_bary (s/s)    =  N/A
# P''_bary (s/s^2) =  N/A
# P_orb (s)        =  N/A
# asin(i)/c (s)    =  N/A
# eccentricity     =  N/A
# w (rad)          =  N/A
# T_peri           =  N/A
######################################################
   0  1574.887
   1  1552.564
   2  1816.03
   3  1837.647
   4  1824.816
   5  1905.099
   6  2127.179
   7  1633.14
   8  1788.928
   9  2368.663
  10  2303.457
  11  2163.521
  12  2021.326
  13  2084.17
  14  1970.501
  15  1988.367
  16  2088.345
  17  2152.809
  18  1989.449
  19  1921.274
  20  1820.62
  21  1600.141
  22  1924.875
  23  1800.112
  24  1932.784
  25  1781.38
  26  1666.227
  27  1842.539
  28  2147.531
  29  1949.611
  30  1996.937
  31  1764.59
  32  1761.763
  33  1585.059
  34  1500.694
  35  2035.033
  36  1560.771
  37  1628.023
  38  1818.235
  39  1666.23
  40  1729.878
  41  1818.518
  42  1586.406
  43  1772.714
  44  1675.659
  45  1498.032
  46  1500.357
  47  1925.199
  48  1928.743
  49  1822.588
  50  1877.857
  51  1509.978
  52  1822.239
  53  1877.556
  54  1977.109
  55  2089.148
  56  2132.055
  57  1962.518
  58  1843.143
  59  1689.597
  60  1758.131
  61  1697.069
  62  1504.657
  63  1799.63
  64  1920.79
  65  1683.811
  66  1597.641
  67  1823.916
  68  2018.833
  69  2000.318
  70  1755.947
  71  1212.606
  72  1533.102
  73  1475.7
  74  1492.456
  75  1520.317
  76  1793.955
  77  1981.475
  78  1995.311
  79  1837.583
  80  1783.625
  81  1654.743
  82  1773.294
  83  1687.52
  84  2288.911
  85  1860.005
  86  1699.42
  87  1987.979
  88  2041.025
  89  2041.708
  90  1526.135
  91  1650.411
  92  1479.469
  93  1876.362
  94  2170.598
  95  1900.567
  96  1889.262
  97  1964.168
  98  1724.243
  99  1695.6
 100  1923.046
 101  1823.406
 102  2345.529
 103  1832.362
 104  1573.867
 105  1460.438
 106  1509.133
 107  1293.876
 108  1473.249
 109  1756.789
 110  1791.484
 111  1894.73
 112  2134.458
 113  2067.416
 114  1820.563
 115  1459.132
 116  1502.494
 117  2119.971
 118  1667.079
 119  1911.763
 120  2172.118
 121  1850.382
 122  1679.881
 123  1673.173
 124  1705.876
 125  1518.688
 126  1639.112
 127  1931.726
 128  2095.811
 129  1758.695
 130  2049.055
 131  2101.995
 132  1966
 133  2049.208
 134  2377.141
 135  2178.396
 136  1515.29
 137  1718.237
 138  2051.341
 139  2153.107
 140  2029.339
 141  2116.028
 142  2167.031
 143  2175.449
 144  2051.117
 145  2203.987
 146  2353.955
 147  1996.125
 148  1744.248
 149  1698.168
 150  2171.029
 151  1936.669
 152  2236.18
 153  2370.867
 154  1859.759
 155  1704.345
 156  1526.09
 157  1395.519
 158  1688.786
 159  1718.737
 160  1952.497
 161  2056.816
 162  1955.083
 163  1786.489
 164  1729.943
 165  1869.198
 166  1689.815
 167  2030.036
 168  1887.079
 169  1576.276
 170  1849.138
 171  1810.831
 172  1880.439
 173  2122.879
 174  1785.058
 175  1654.228
 176  1903.113
 177  2259.466
 178  1765.689
 179  1839.641
 180  2045.274
 181  1846.98
 182  2069.64
 183  2188.795
 184  2078.421
 185  2017.729
 186  1907.94
 187  1921.744
 188  1809.661
 189  1575.459
 190  1714.304
 191  2023.24
 192  1860.711
 193  1921.786
 194  1849.02
 195  2103.171
 196  2169.498
 197  2076.843
 198  1888.593
 199  1997.611
 200  1823.056
 201  1714.329
 202  2148.64
 203  2037.12
 204  2019.939
 205  1930.847
 206  2437.148
 207  2064.049
 208  1993.276
 209  2029.852
 210  2046.353
 211  1712.715
 212  1853.635
 213  2010.256
 214  1655.306
 215  1665.097
 216  1737.52
 217  1794.634
 218  1667.322
 219  1605.025
 220  1508.27
 221  1347.926
 222  1688.865
 223  1567.04
 224  1580.661
 225  1613.424
 226  1690.165
 227  2069.71
 228  2133.205
 229  1725.707
 230  1556.844
 231  1934.525
 232  1973.75
 233  1605.84
 234  1950.708
 235  1978.817
 236  1861.428
 237  2092.889
 238  2186.082
 239  2280.611
 240  2004.184
 241  2354.541
 242  2038.714
 243  2003.21
 244  1821.393
 245  1807.382
 246  1814.612
 247  1906.552
 248  1645.399
 249  2013.703
 250  2135.37
 251  1665.234
 252  1883.298
 253  1628.674
 254  1763.159
 255  1650.994
 256  1877.289
 257  1627.65
 258  1895.848
 259  1708.105
 260  1824.06
 261  1892.837
 262  1479.687
 263  1522.749
 264  1560.322
 265  1420.958
 266  1394.362
 267  1958.088
 268  1999.192
 269  2175.767
 270  2182.762
 271  2323.703
 272  1692.302
 273  1197.763
 274  1320.111
 275  1369.603
 276  1579.994
 277  1700.069
 278  1942.725
 279  2143.062
 280  2039.913
 281  1706.633
 282  1799.765
 283  1925.615
 284  2015.432
 285  2047.509
 286  1939.928
 287  1631.676
 288  1853.457
 289  1812.612
 290  1874.489
 291  2264.091
 292  2051.059
 293  1883.091
 294  1566.68
 295  1926.01
 296  2100.022
 297  1870.499
 298  1785.16
 299  2305.355
 300  2165.697
 301  2271.987
 302  2155.333
 303  2172.493
 304  2015.904
 305  1917.198
 306  1867.618
 307  1694.003
 308  1662.822
 309  1841.237
 310  2059.439
 311  2253.599
 312  2486.894
 313  2572.419
 314  2746.572
 315  3462.163
 316  3720.982
 317  3559.51
 318  3122.528
 319  2964.939
 320  2468.233
 321  2312.205
 322  2040.341
 323  1931.942
 324  2045.206
 325  1983.231
 326  1770.5
 327  1889.039
 328  2008.5
 329  1934.944
 330  1985.325
 331  1979.182
 332  1844.361
 333  1764.204
 334  1842.568
 335  1889.652
 336  2017.19
 337  1957.02
 338  1624.328
 339  1602.682
 340  1762.106
 341  2023.393
 342  1828.474
 343  1895.111
 344  1864.676
 345  2090.039
 346  1909.332
 347  1594.519
 348  1709.034
 349  1749.188
 350  1637.741
 351  1970.809
 352  2101.1
 353  2016.499
 354  2025.486
 355  1886.435
 356  1823.303
 357  1876.986
 358  2196.396
 359  1947.581
 360  2037.756
 361  1901.862
 362  2025.324
 363  2279.129
 364  1910.203
 365  2129.861
 366  2214.688
 367  2093.284
 368  1650.172
 369  1634.187
 370  1815.747
 371  1644.605
 372  1646.093
 373  2001.594
 374  1781.839
 375  1810.549
 376  1485.467
 377  1910.143
 378  2525.926
 379  1914.523
 380  1814.373
 381  1916.23
 382  1723.464
 383  1358.757
 384  1718.852
 385  1944.46
 386  2213.381
 387  2291.425
 388  2264.04
 389  2012.679
 390  1563.525
 391  1638.436
 392  1722.147
 393  1953.45
 394  1769.281
 395  1587.801
 396  1705.707
 397  2071.32
 398  2073.264
 399  2281.46
 400  2156.937
 401  1703.858
 402  1564.659
 403  1798.245
 404  1830.371
 405  1589.817
 406  1669.646
 407  2140.102
 408  2215.876
 409  1856.384
 410  1797.04
 411  2088.573
 412  1879.922
 413  1722.199
 414  2233.567
 415  2110.595
 416  1604.621
 417  1629.883
 418  1792.961
 419  1849.98
 420  1768.995
 421  1913.259
 422  1776.23
 423  1717.691
 424  1578.386
 425  1257.991
 426  1468.137
 427  1677.456
 428  1844.619
 429  1647.289
 430  1728.894
 431  2012.406
 432  2023.939
 433  1866.177
 434  2005.128
 435  1821.305
 436  1923.762
 437  1815.253
 438  1985.041
 439  1928.494
 440  2153.373
 441  2125.675
 442  2068.799
 443  2101.735
 444  2182.386
 445  1803.175
 446  1749.192
 447  1937.661
 448  1551.938
 449  2017.191
 450  2001.502
 451  2146.195
 452  1744.871
 453  1820.122
 454  1495.168
 455  1309.603
 456  1903.634
 457  1849.49
 458  1868.699
 459  1913.881
 460  2041.759
 461  1942.882
 462  2077.315
 463  2163.154
 464  2381.731
 465  2466.597
 466  1914.14
 467  1605.014
 468  1870.521
 469  1990.984
 470  1751.903
 471  1945.153
 472  2241.326
 473  1916.9
 474  1622.823
 475  2026.646
 476  2209.593
 477  2021.49
 478  2012.979
 479  2062.044
 480  2111.777
 481  2035.752
 482  2261.089
 483  2169.029
 484  1837.713
 485  1894.92
 486  2099.414
 487  1814.208
 488  1940.628
 489  1633.009
 490  1963.796
 491  1704.726
 492  1785.359
 493  2111.492
 494  1634.89
 495  1981.68
 496  2191.343
 497  1890.392
 498  1536.035
 499  2039.757
 500  1992.431
 501  1626.188
 502  1645.329
 503  1776.991
 504  1915.591
 505  2122.362
 506  2078.626
 507  2133.905
 508  1961.485
 509  1452.791
 510  1403.992
 511  1374.017
