# Input file       =  1194985250.121086_cleaned.dat
# Candidate        =  PSR_0332+5434
# Telescope        =  AR
# Epoch_topo       =  58074.848022234793
# Epoch_bary       =  N/A
# T_sample         =  0.002
# Data Folded      =  7340032
# Data Avg         =  0.575324863861688
# Data StdDev      =  8.53078496484589 
# Profile Bins     =  512
# Profile Avg      =  8247.72736732647 
# Profile StdDev   =  1021.41678651826 
# Reduced chi-sqr  =  0.390
# Prob(Noise)      <  1   (~0.0 sigma)
# P_topo (ms)      =  714.512098849248  +/- 0.00265
# P'_topo (s/s)    =  -0                +/- 1.4e-09
# P''_topo (s/s^2) =  0                 +/- 6.18e-13
# P_bary (ms)      =  N/A
# P'_bary (s/s)    =  N/A
# P''_bary (s/s^2) =  N/A
# P_orb (s)        =  N/A
# asin(i)/c (s)    =  N/A
# eccentricity     =  N/A
# w (rad)          =  N/A
# T_peri           =  N/A
######################################################
   0  7550.952
   1  7956.701
   2  8105.835
   3  7713.752
   4  8111.249
   5  8278.989
   6  7829.22
   7  8154.218
   8  8809.795
   9  8575.692
  10  8057.089
  11  8456.563
  12  8979.929
  13  8941.727
  14  8313.395
  15  7780.789
  16  9075.828
  17  8587.498
  18  8513.307
  19  8478.889
  20  8209.629
  21  8240.965
  22  8744.692
  23  7654.902
  24  7685.173
  25  7205.184
  26  7733.575
  27  7636.116
  28  8109.511
  29  8218.147
  30  7817.911
  31  8119.362
  32  7400.075
  33  7647.523
  34  7741.682
  35  8481.583
  36  8606.354
  37  7828.889
  38  8510.049
  39  8646.713
  40  7610.625
  41  7424.464
  42  7633.891
  43  8443.8
  44  7791.073
  45  7844.623
  46  8854.388
  47  7997.794
  48  7953.674
  49  7960.07
  50  7343.915
  51  7564.743
  52  7696.775
  53  8193.339
  54  8053.468
  55  8289.42
  56  8253.136
  57  8034.178
  58  7635.419
  59  6996.999
  60  8362.474
  61  8833.572
  62  8016.931
  63  7375.273
  64  7666.502
  65  8294.64
  66  8350.73
  67  7792.158
  68  7645.209
  69  7410.217
  70  7975.517
  71  8669.751
  72  8700.816
  73  8398.002
  74  8774.461
  75  8941.001
  76  8224.003
  77  7920.197
  78  7597.716
  79  8244.074
  80  8097.436
  81  7809.022
  82  8014.337
  83  8220.175
  84  9380.399
  85  9102.248
  86  8439.181
  87  8465.8
  88  8118.266
  89  7898.456
  90  7817.324
  91  8547.886
  92  8508.766
  93  8412.149
  94  8069.975
  95  8045.734
  96  8060.008
  97  7899.62
  98  8176.432
  99  8201.703
 100  8406.62
 101  8156.206
 102  8470.478
 103  8323.118
 104  8231.092
 105  8663.607
 106  8671.195
 107  8839.934
 108  8603.445
 109  8577.674
 110  8303.671
 111  8228.369
 112  8481.357
 113  8370.32
 114  9096.117
 115  8963.772
 116  9120.062
 117  9233.244
 118  8989.803
 119  8587.104
 120  8348.208
 121  8605.728
 122  8441.008
 123  8434.79
 124  8437.79
 125  9155.582
 126  9110.658
 127  8732.76
 128  8889.417
 129  8797.116
 130  8673.784
 131  8704.528
 132  8404.512
 133  9042.334
 134  8939.761
 135  7887.285
 136  7681.409
 137  8773.738
 138  8687.347
 139  8645.836
 140  8035.09
 141  8297.207
 142  8382.853
 143  8849.448
 144  7909.701
 145  7439.141
 146  7967.464
 147  8115.433
 148  8056.111
 149  7887.65
 150  8319.727
 151  7760.33
 152  7901.537
 153  7920.887
 154  8466.467
 155  7849.263
 156  7910.758
 157  7813.246
 158  8272.07
 159  8114.777
 160  8483.804
 161  8725.882
 162  8513.838
 163  8451.459
 164  8547.595
 165  8638.23
 166  7825.542
 167  8709.463
 168  8999.771
 169  8489.835
 170  8062.521
 171  8534.489
 172  8015.87
 173  8210.519
 174  7914.491
 175  8122.651
 176  8717.685
 177  8873.369
 178  8852.802
 179  9250.049
 180  8924.997
 181  8444.687
 182  8259.624
 183  8658.999
 184  8693.766
 185  7832.577
 186  7609.69
 187  7470.279
 188  7632.395
 189  8273.432
 190  8298.438
 191  8407.003
 192  7732.284
 193  7626.997
 194  7769.006
 195  7270.752
 196  7737.749
 197  7978.196
 198  8284.196
 199  8598.001
 200  8062.053
 201  8880.891
 202  9065.212
 203  8402.971
 204  8473.276
 205  8111.266
 206  8533.254
 207  8953.951
 208  8868.162
 209  8951.578
 210  8508.238
 211  8274.748
 212  7622.73
 213  7550.406
 214  7631.413
 215  7809.232
 216  7740.89
 217  7626.318
 218  8352.289
 219  8354.099
 220  8152.964
 221  8434.579
 222  8256.33
 223  8016.329
 224  8236.708
 225  8353.275
 226  8256.873
 227  8664.01
 228  8272.038
 229  7602.676
 230  6889.79
 231  7631.867
 232  8350.531
 233  7982.146
 234  7613.222
 235  7416.404
 236  7853.997
 237  8420.995
 238  8124.188
 239  8177.387
 240  8403.103
 241  8016.935
 242  8185.349
 243  8355.805
 244  9041.921
 245  8629.153
 246  8640.484
 247  8924.067
 248  8405.781
 249  8066.91
 250  8603.003
 251  9082.601
 252  8777.298
 253  8193.887
 254  8648.423
 255  9391.007
 256  8899.852
 257  8766.238
 258  8973.562
 259  9368.26
 260  8716.139
 261  8411.596
 262  8183.096
 263  7970.085
 264  7560.336
 265  8184.876
 266  9104.47
 267  8844.163
 268  8219.57
 269  8151.812
 270  8314.366
 271  7728.368
 272  8322.235
 273  8638.023
 274  8602.713
 275  8201.709
 276  8990.998
 277  8136.856
 278  8490.241
 279  8742.792
 280  8123.603
 281  8146.8
 282  8002.753
 283  8307.686
 284  7822.139
 285  8577.915
 286  8119.694
 287  8223.157
 288  8483.482
 289  8186.441
 290  7990.955
 291  8158.02
 292  8835.338
 293  8721.344
 294  8596.167
 295  8529.246
 296  8309.427
 297  8218.449
 298  8300.037
 299  8621.49
 300  7692.736
 301  8257.286
 302  8449.316
 303  8430.826
 304  8464.507
 305  8043.573
 306  8683.775
 307  8227.487
 308  8205.945
 309  8520.896
 310  8689.768
 311  8580.116
 312  8354.843
 313  8762.685
 314  9083.562
 315  9381.877
 316  9486.667
 317  9234.938
 318  9023.493
 319  9459.33
 320  9324.979
 321  8553.611
 322  8377.895
 323  8070.405
 324  8292.257
 325  8386.233
 326  8730.793
 327  8151.999
 328  8153.761
 329  8375.329
 330  8402.997
 331  8525.824
 332  8475.442
 333  8740.575
 334  9099.153
 335  8763.293
 336  8372.548
 337  8243.381
 338  7997.822
 339  8640.935
 340  8636.098
 341  7798.72
 342  8030.385
 343  7873.194
 344  7885.451
 345  8163.396
 346  7710.994
 347  7731.285
 348  7984.031
 349  8400.173
 350  8700.133
 351  8746.261
 352  8623.123
 353  8430.606
 354  8219.775
 355  8416.772
 356  8419.991
 357  7421.521
 358  7595.723
 359  7891.168
 360  8058.414
 361  7913.686
 362  7666.437
 363  8053.085
 364  7938.937
 365  8619.05
 366  8418.648
 367  7799.294
 368  7777.906
 369  8005.056
 370  8944.657
 371  8885.926
 372  9009.877
 373  8601.524
 374  7891.661
 375  8146.892
 376  8195.499
 377  8380.021
 378  7589.371
 379  7429.257
 380  8433.902
 381  8761.361
 382  8293.745
 383  7701.75
 384  7843.389
 385  8278.37
 386  7583.636
 387  7982.993
 388  8286.283
 389  7526.366
 390  7785.154
 391  8126.768
 392  7566.889
 393  8296.541
 394  7578.344
 395  6789.728
 396  7552.463
 397  8548.505
 398  8973.504
 399  8633.228
 400  7972.731
 401  8485.844
 402  8607.766
 403  7376.403
 404  7529.885
 405  8096.245
 406  7834.085
 407  7815.47
 408  8159.494
 409  7820.536
 410  7340.154
 411  7548.746
 412  8076.842
 413  8063.543
 414  8587.432
 415  8652.358
 416  7952.186
 417  7385.278
 418  7514.966
 419  8205.853
 420  8348.273
 421  8764.711
 422  8466.387
 423  8881.94
 424  9122.857
 425  8378.469
 426  8029.06
 427  8109.278
 428  8214.549
 429  8784.835
 430  8360.075
 431  8380.031
 432  7899.182
 433  8432.62
 434  8663.861
 435  8061.593
 436  7485.399
 437  7578.598
 438  8590.086
 439  8555.271
 440  8594.039
 441  7820.247
 442  8197.26
 443  7805.363
 444  7466.997
 445  7496.418
 446  7262.883
 447  7368.907
 448  8231.722
 449  8141.033
 450  8386.905
 451  7995.803
 452  8095.96
 453  8575.305
 454  8653.842
 455  8603.127
 456  8602.985
 457  8252.449
 458  8193.442
 459  8038.994
 460  7588.471
 461  7612.365
 462  7974.117
 463  8378.774
 464  7976.602
 465  7994.003
 466  8325.174
 467  8272.355
 468  8024.588
 469  8412.778
 470  8780.367
 471  8125.494
 472  8077.885
 473  8452.407
 474  7962.345
 475  7904.872
 476  7740.345
 477  8133.066
 478  7832.466
 479  7459.36
 480  7502.921
 481  7080.746
 482  8021.957
 483  8363.612
 484  8300.017
 485  8825.672
 486  8683.365
 487  8895.394
 488  8175.108
 489  8131.164
 490  8563.752
 491  8681.251
 492  8052.722
 493  7906.054
 494  8049.074
 495  8490.907
 496  8341.317
 497  8019.655
 498  8018.562
 499  7761.392
 500  7586.351
 501  7838.026
 502  8963.096
 503  8336.583
 504  7462.252
 505  8333.151
 506  8293.999
 507  7675.716
 508  7845.2
 509  8338.594
 510  8191.557
 511  8275.276
