# Input file       =  1194797738.111993_cleaned.dat
# Candidate        =  PSR_0332+5434
# Telescope        =  AR
# Epoch_topo       =  58072.677744351771
# Epoch_bary       =  N/A
# T_sample         =  0.002
# Data Folded      =  7471104
# Data Avg         =  0.0764665980067659
# Data StdDev      =  3.51545201531171 
# Profile Bins     =  512
# Profile Avg      =  1115.5550138998  
# Profile StdDev   =  424.657290891877 
# Reduced chi-sqr  =  0.704
# Prob(Noise)      <  1   (~0.0 sigma)
# P_topo (ms)      =  714.509871216853  +/- 7e-05
# P'_topo (s/s)    =  -0                +/- 3.63e-11
# P''_topo (s/s^2) =  0                 +/- 1.57e-14
# P_bary (ms)      =  N/A
# P'_bary (s/s)    =  N/A
# P''_bary (s/s^2) =  N/A
# P_orb (s)        =  N/A
# asin(i)/c (s)    =  N/A
# eccentricity     =  N/A
# w (rad)          =  N/A
# T_peri           =  N/A
######################################################
   0  1247.84
   1  1256.808
   2  1091.34
   3  1406.004
   4  1380.808
   5  1041.328
   6  1349.736
   7  1359.995
   8  1235.87
   9  1379.419
  10  1487.127
  11  1399.227
  12  1034.204
  13  1245.442
  14  1118.75
  15  1039.282
  16  1337.439
  17  1400.944
  18  1594.04
  19  1247.917
  20  806.9859
  21  1172.324
  22  1590.487
  23  894.0392
  24  933.3332
  25  1081.824
  26  1087.656
  27  774.7348
  28  926.8551
  29  1440.79
  30  1128.724
  31  712.8741
  32  1004.169
  33  1227.66
  34  1014.082
  35  937.1458
  36  1085.375
  37  1493.187
  38  1138.003
  39  1253.187
  40  1008.671
  41  801.6852
  42  731.7767
  43  1077.627
  44  929.3128
  45  1273.7
  46  1490.819
  47  1392.468
  48  1400.58
  49  1330.898
  50  1234.561
  51  1025.192
  52  1219.423
  53  1297.611
  54  1115.684
  55  1319.298
  56  1324.8
  57  1244.295
  58  1113.839
  59  1188.097
  60  1146.088
  61  1146.484
  62  901.1251
  63  791.6563
  64  1128.927
  65  903.3072
  66  1190.666
  67  1117.356
  68  1073.597
  69  811.1822
  70  864.0668
  71  1132.755
  72  961.5618
  73  1550.18
  74  1511.416
  75  1039.427
  76  825.9224
  77  920.7432
  78  1128.38
  79  903.5471
  80  1114.956
  81  1395.055
  82  1518.317
  83  1225.546
  84  1191.224
  85  1156.411
  86  980.2716
  87  1290.55
  88  1030.628
  89  980.2754
  90  1109.65
  91  958.0866
  92  1013.941
  93  1054.444
  94  954.4286
  95  1063.151
  96  1157.204
  97  1400.226
  98  1058.337
  99  898.6693
 100  953.6863
 101  792.2972
 102  1125.635
 103  1316.66
 104  1478.281
 105  1028.924
 106  1129.294
 107  1222.954
 108  1213.482
 109  1352.446
 110  1217.464
 111  821.16
 112  801.7981
 113  1521.252
 114  1727.237
 115  1215.557
 116  1178.09
 117  1211.788
 118  1546.093
 119  1365.793
 120  963.1237
 121  1190.193
 122  1289.165
 123  924.6956
 124  789.2192
 125  1037.889
 126  1412.865
 127  1264.791
 128  1072.837
 129  1294.608
 130  1504.285
 131  1324.737
 132  1153.431
 133  1407.496
 134  953.3336
 135  872.6387
 136  860.821
 137  1375.262
 138  1266.19
 139  1067.097
 140  1077.353
 141  933.6597
 142  1155.557
 143  1529.869
 144  1289.106
 145  788.8181
 146  718.8766
 147  1194.686
 148  1129.144
 149  864.4649
 150  650.9591
 151  1142.199
 152  998.5708
 153  1177.037
 154  1105.41
 155  1268.783
 156  869.9603
 157  719.434
 158  926.1122
 159  1234.433
 160  789.2135
 161  996.0638
 162  643.8401
 163  1088.922
 164  860.1519
 165  814.7842
 166  917.0052
 167  1140.655
 168  903.8221
 169  753.6435
 170  1301.801
 171  1302.419
 172  1104.087
 173  1124.443
 174  628.3071
 175  429.0297
 176  764.2126
 177  862.9883
 178  1176.419
 179  1241.22
 180  1149.577
 181  1286.456
 182  824.4056
 183  1095.277
 184  1029.853
 185  1134.976
 186  1171.077
 187  1141.693
 188  928.2138
 189  850.8466
 190  1261.201
 191  1457.278
 192  1271.749
 193  1395.036
 194  1264.11
 195  1313.052
 196  1233.378
 197  1511.502
 198  1247.241
 199  1339.385
 200  1414.712
 201  838.1456
 202  727.382
 203  761.4316
 204  709.915
 205  931.2921
 206  828.9409
 207  854.4001
 208  698.0882
 209  789.6817
 210  914.4679
 211  1259.987
 212  1254.541
 213  1042.116
 214  837.4495
 215  977.7723
 216  898.8466
 217  1011.778
 218  965.4369
 219  634.0692
 220  999.7687
 221  1276.552
 222  965.3449
 223  1039.467
 224  839.0148
 225  1080.442
 226  983.5223
 227  921.7704
 228  899.8493
 229  1007.038
 230  1024.186
 231  919.1447
 232  1117.587
 233  1102.864
 234  837.1813
 235  852.4257
 236  1117.321
 237  1322.128
 238  966.2446
 239  879.554
 240  742.3818
 241  456.5927
 242  695.1817
 243  952.7023
 244  1267.583
 245  892.5043
 246  1146.687
 247  1227.883
 248  1088.691
 249  571.8892
 250  583.0393
 251  1074.401
 252  829.2006
 253  920.7417
 254  1404.555
 255  1534.937
 256  1244.292
 257  913.7443
 258  1148.918
 259  948.629
 260  766.9989
 261  1171.7
 262  1554.833
 263  699.2924
 264  655.3741
 265  980.4318
 266  1061.303
 267  1115.334
 268  881.3867
 269  1330.231
 270  1344.41
 271  1081.603
 272  1127.155
 273  1127.472
 274  966.8234
 275  769.6157
 276  1366.844
 277  1341.377
 278  1156.993
 279  782.6428
 280  1039.362
 281  888.316
 282  1004.57
 283  1396.328
 284  1313.666
 285  1033.185
 286  691.4093
 287  827.169
 288  782.4577
 289  666.8472
 290  1181.613
 291  1104.946
 292  720.3487
 293  893.0522
 294  1391.85
 295  1326.372
 296  1009.229
 297  1263.602
 298  1054.384
 299  777.6068
 300  640.723
 301  989.399
 302  671.9159
 303  852.1675
 304  1290.995
 305  996.7476
 306  1185.204
 307  954.5908
 308  1101.339
 309  1104.432
 310  1583.117
 311  1724.987
 312  1470.122
 313  1705.722
 314  2017.554
 315  2466.789
 316  2410.803
 317  2295.867
 318  1777.582
 319  1357.529
 320  1172.319
 321  951.0652
 322  822.3624
 323  964.3355
 324  1244.413
 325  1265.829
 326  1123.443
 327  1195.402
 328  1166.802
 329  1254.199
 330  1110.31
 331  1296.312
 332  924.5422
 333  1113.932
 334  1281.354
 335  1039.751
 336  1189.555
 337  753.5114
 338  1004.922
 339  994.3647
 340  1125.925
 341  1104.88
 342  923.6208
 343  1004.085
 344  929.3793
 345  1135.456
 346  780.1635
 347  1082.906
 348  1033.45
 349  999.1892
 350  915.4714
 351  702.4225
 352  1183.271
 353  1076.559
 354  1021.709
 355  972.3965
 356  999.9772
 357  889.9076
 358  946.4065
 359  921.5743
 360  709.7158
 361  745.5624
 362  680.0493
 363  750.4995
 364  1016.019
 365  948.5975
 366  1100.765
 367  1094.52
 368  1474.441
 369  1100.158
 370  603.9976
 371  890.2471
 372  1045.323
 373  1348.165
 374  901.509
 375  1160.557
 376  1900.706
 377  1509.197
 378  705.4774
 379  690.2717
 380  1409.708
 381  846.0049
 382  960.0091
 383  1003.624
 384  1517.277
 385  1225.502
 386  1096.778
 387  1379.866
 388  1246.447
 389  1154.073
 390  1337.189
 391  1241.105
 392  1248.872
 393  1222.064
 394  1565.612
 395  1499.47
 396  1361.867
 397  910.5305
 398  1124.853
 399  1024.149
 400  1021.536
 401  1266.447
 402  1042.21
 403  1179.608
 404  987.7841
 405  1309.503
 406  1162.684
 407  1024.231
 408  1215.765
 409  864.5633
 410  1129.668
 411  1259.276
 412  1079.759
 413  1000.56
 414  1256.74
 415  1134.458
 416  1200.671
 417  1455.073
 418  1191.076
 419  1106.499
 420  1065.649
 421  936.808
 422  732.1779
 423  1332.395
 424  1525.059
 425  1286.824
 426  1431.218
 427  1265.701
 428  1115.253
 429  1144.413
 430  1197.885
 431  1326.008
 432  1404.924
 433  1232.338
 434  1291.814
 435  1548.862
 436  1297.817
 437  1554.159
 438  1456.717
 439  1262.145
 440  1129.73
 441  975.2707
 442  1391.498
 443  1321.927
 444  1498.407
 445  1218.244
 446  1154.022
 447  1345.291
 448  1318.5
 449  1113.352
 450  1055.416
 451  1193.157
 452  1345.278
 453  1206.435
 454  1350.564
 455  967.6912
 456  924.7882
 457  983.9434
 458  1453.387
 459  1143.219
 460  1149.567
 461  1123.403
 462  1034.807
 463  1180.443
 464  1241.95
 465  1428.566
 466  1253.924
 467  1123.705
 468  1433.095
 469  1236.52
 470  835.7632
 471  575.6312
 472  1090.339
 473  1508.878
 474  1121.092
 475  1308.27
 476  1109.805
 477  975.4918
 478  831.1424
 479  989.7068
 480  1392.022
 481  1265.507
 482  1302.902
 483  1563.146
 484  1724.638
 485  1606.566
 486  1322.815
 487  987.4815
 488  1311.448
 489  1103.089
 490  912.4133
 491  1001.287
 492  1146.008
 493  1351.609
 494  1430.139
 495  1180.087
 496  891.7337
 497  1363.161
 498  1094.341
 499  1097.079
 500  884.2216
 501  761.3702
 502  913.392
 503  672.0097
 504  1002.174
 505  1192.388
 506  1026.306
 507  733.1333
 508  704.6708
 509  1156.057
 510  1048.409
 511  1078.298
