# Input file       =  1194310941.104431_cleaned.dat
# Candidate        =  PSR_0332+5434
# Telescope        =  AR
# Epoch_topo       =  58067.043519727209
# Epoch_bary       =  N/A
# T_sample         =  0.002
# Data Folded      =  7340032
# Data Avg         =  0.0698188596028819
# Data StdDev      =  3.24212967512442 
# Profile Bins     =  512
# Profile Avg      =  1000.76498801415 
# Profile StdDev   =  388.190030329866 
# Reduced chi-sqr  =  0.703
# Prob(Noise)      <  1   (~0.0 sigma)
# P_topo (ms)      =  714.504615557503  +/- 0.000438
# P'_topo (s/s)    =  -0                +/- 2.31e-10
# P''_topo (s/s^2) =  0                 +/- 1.02e-13
# P_bary (ms)      =  N/A
# P'_bary (s/s)    =  N/A
# P''_bary (s/s^2) =  N/A
# P_orb (s)        =  N/A
# asin(i)/c (s)    =  N/A
# eccentricity     =  N/A
# w (rad)          =  N/A
# T_peri           =  N/A
######################################################
   0  1041.553
   1  1115.297
   2  1094.317
   3  818.3115
   4  953.1096
   5  978.4997
   6  1209.172
   7  768.0432
   8  774.1263
   9  1139.371
  10  1122.495
  11  1072.591
  12  1091.959
  13  970.9591
  14  1108.47
  15  1288.275
  16  1214.824
  17  1145.271
  18  1185.726
  19  1149.38
  20  1271.462
  21  1073.335
  22  1185.545
  23  1015.006
  24  1062.645
  25  1304.407
  26  1310.738
  27  1354.456
  28  1220.791
  29  1254.769
  30  1093.464
  31  1158.591
  32  953.5203
  33  742.808
  34  688.1862
  35  773.0724
  36  1224.721
  37  1366.77
  38  1025.921
  39  1374.004
  40  1350.625
  41  1162.593
  42  956.9565
  43  762.8193
  44  566.4761
  45  595.7028
  46  745.8013
  47  902.53
  48  1017.469
  49  863.4792
  50  1182.772
  51  1255.437
  52  1120.817
  53  1215.602
  54  1171.12
  55  862.5659
  56  1114.819
  57  1129.121
  58  859.7366
  59  1011.224
  60  1238.303
  61  853.2737
  62  731.7093
  63  837.2284
  64  1034.849
  65  1038.835
  66  860.0357
  67  1011.18
  68  1055.103
  69  1003.699
  70  1046.706
  71  1086.848
  72  858.6055
  73  729.236
  74  1114.868
  75  1058.508
  76  985.8831
  77  1118.869
  78  1139.89
  79  1031.886
  80  769.3622
  81  682.7388
  82  954.4691
  83  865.2858
  84  861.5413
  85  680.8654
  86  805.7598
  87  991.944
  88  919.5974
  89  989.8924
  90  873.7894
  91  1173.767
  92  1237.028
  93  910.2282
  94  912.0034
  95  1094.075
  96  1054.189
  97  1170.976
  98  1274.439
  99  1177.216
 100  1177.894
 101  922.3828
 102  1002.49
 103  936.9337
 104  970.77
 105  821.6981
 106  894.1744
 107  1092.739
 108  921.8875
 109  872.5748
 110  1368.961
 111  1322.972
 112  1129.64
 113  1012.326
 114  1130.308
 115  1267.613
 116  1059.699
 117  1009.106
 118  1011.089
 119  861.5253
 120  967.8788
 121  718.0919
 122  607.8923
 123  543.4686
 124  736.7008
 125  748.1822
 126  626.0203
 127  505.2741
 128  653.8518
 129  1120.329
 130  1280.402
 131  1186.91
 132  1082.275
 133  1255.172
 134  1483.635
 135  1409.622
 136  1034.589
 137  500.1062
 138  799.9182
 139  1102.742
 140  1323.414
 141  1295.813
 142  973.1625
 143  802.3326
 144  936.0911
 145  977.3899
 146  631.2542
 147  485.3595
 148  901.9622
 149  1119.783
 150  1059.757
 151  1004.082
 152  809.7307
 153  940.2785
 154  862.6879
 155  709.2612
 156  766.2899
 157  813.2003
 158  907.7763
 159  966.73
 160  931.1176
 161  718.1673
 162  1054.466
 163  1263.897
 164  752.9482
 165  864.1967
 166  1140.942
 167  1142.468
 168  804.2347
 169  902.8164
 170  962.5137
 171  575.9364
 172  961.1973
 173  1030.448
 174  1189.867
 175  1056.609
 176  1007.151
 177  810.2793
 178  1023.424
 179  1011.474
 180  818.7192
 181  990.7902
 182  988.1365
 183  1158.917
 184  1074.469
 185  583.0398
 186  809.9896
 187  703.6811
 188  638.1299
 189  861.6113
 190  1216.93
 191  1064.705
 192  1008.44
 193  1139.81
 194  1098.536
 195  995.4635
 196  664.5664
 197  1121.102
 198  1161.658
 199  1231.622
 200  902.9703
 201  957.1705
 202  925.2418
 203  1063.079
 204  1198.941
 205  1370.304
 206  1001.461
 207  1037.394
 208  1076.361
 209  1245.37
 210  883.558
 211  1133.594
 212  1174.061
 213  916.2368
 214  935.8912
 215  931.7515
 216  1257.992
 217  1535.555
 218  1154.905
 219  1021.537
 220  915.6361
 221  637.7894
 222  663.3422
 223  958.5492
 224  913.6053
 225  911.2147
 226  921.4189
 227  917.6743
 228  545.9578
 229  882.5764
 230  1013.851
 231  902.639
 232  1184.178
 233  1329.262
 234  1156.598
 235  1020.726
 236  1231.413
 237  969.7589
 238  938.7698
 239  841.903
 240  1004.616
 241  1361.431
 242  1078.579
 243  1205.594
 244  979.0472
 245  1008.241
 246  935.9554
 247  894.1976
 248  920.136
 249  591.1731
 250  395.958
 251  434.2569
 252  558.0743
 253  779.4058
 254  1125.259
 255  1149.234
 256  977.981
 257  733.5904
 258  755.316
 259  637.6381
 260  681.4383
 261  676.7986
 262  941.4589
 263  1116.286
 264  1137.271
 265  1092.713
 266  1160.728
 267  1222.287
 268  985.1698
 269  911.2322
 270  1034.512
 271  820.4803
 272  671.3378
 273  868.0452
 274  985.442
 275  785.9316
 276  810.4765
 277  677.5161
 278  438.7281
 279  742.5906
 280  904.5308
 281  985.4449
 282  943.0746
 283  913.7122
 284  950.3317
 285  979.8847
 286  1130.914
 287  1016.615
 288  1143.28
 289  1106.295
 290  925.191
 291  828.0513
 292  908.2392
 293  977.1631
 294  998.0458
 295  767.5835
 296  969.1131
 297  1165.151
 298  1028.162
 299  826.1229
 300  700.9022
 301  960.5741
 302  828.2833
 303  1035.276
 304  853.9673
 305  900.8639
 306  813.7512
 307  1133.601
 308  841.5527
 309  631.4988
 310  913.6796
 311  1184.83
 312  1352.217
 313  1273.995
 314  1631.559
 315  2312.261
 316  2283.747
 317  1879.482
 318  1642.106
 319  1623.899
 320  1281.574
 321  882.5784
 322  723.7671
 323  920.4698
 324  1042.228
 325  1039.754
 326  972.8699
 327  647.1432
 328  820.1151
 329  709.0447
 330  1011.245
 331  1363.033
 332  980.8323
 333  739.2163
 334  643.0314
 335  835.7283
 336  720.7003
 337  643.1517
 338  971.5895
 339  971.9796
 340  1127.401
 341  711.7718
 342  987.5074
 343  980.6458
 344  788.2343
 345  870.5027
 346  604.8458
 347  858.6417
 348  1046.849
 349  922.5284
 350  993.243
 351  1258.33
 352  1353.519
 353  1318.712
 354  995.8595
 355  970.8297
 356  789.6415
 357  894.1204
 358  1060.214
 359  996.3915
 360  977.9538
 361  1035.351
 362  1307.578
 363  1178.913
 364  870.9326
 365  1052.803
 366  1419.745
 367  1284.013
 368  1211.938
 369  856.5469
 370  942.5101
 371  657.1721
 372  899.6953
 373  1044.174
 374  1368.759
 375  1535.419
 376  1264.611
 377  993.4255
 378  530.9233
 379  666.0731
 380  848.9653
 381  799.5016
 382  519.4969
 383  866.4444
 384  1244.243
 385  1040.988
 386  956.3
 387  1181.768
 388  962.6948
 389  588.413
 390  945.7614
 391  1126.443
 392  1202.919
 393  718.5458
 394  763.0655
 395  770.6229
 396  726.5197
 397  1169.383
 398  1215.499
 399  1225.244
 400  1105.011
 401  1044.594
 402  855.998
 403  866.0573
 404  895.3489
 405  516.1161
 406  292.7633
 407  772.625
 408  755.7036
 409  950.8238
 410  815.3431
 411  656.1889
 412  913.6451
 413  1233.827
 414  1025.303
 415  1194.823
 416  1236.78
 417  1185.662
 418  1323.896
 419  950.2794
 420  613.1227
 421  798.4739
 422  1052.401
 423  1200.441
 424  1021.721
 425  1155.814
 426  1225.589
 427  1169.179
 428  1086.48
 429  860.3315
 430  984.8757
 431  980.1254
 432  1052.199
 433  1425.517
 434  1378.352
 435  1189.36
 436  1161.848
 437  1408.989
 438  1495.156
 439  998.41
 440  1084.205
 441  1382.061
 442  1410.2
 443  1243.19
 444  1081.831
 445  1268.172
 446  1101.895
 447  734.4701
 448  981.7162
 449  659.6525
 450  542.5457
 451  1267.109
 452  1720.06
 453  1236.692
 454  1124.818
 455  1412.561
 456  1359.077
 457  1028.266
 458  840.5074
 459  976.4279
 460  1234.068
 461  1170.877
 462  1033.984
 463  843.3425
 464  940.7275
 465  1219.943
 466  1217.529
 467  1052.188
 468  800.2455
 469  1127.848
 470  932.3709
 471  793.7556
 472  823.5787
 473  917.8202
 474  1256.865
 475  867.3105
 476  1033.841
 477  1071.718
 478  1086.74
 479  856.0934
 480  1008.651
 481  1007.086
 482  900.4622
 483  1042.132
 484  1386.035
 485  1341.835
 486  688.3728
 487  969.9822
 488  1310.898
 489  1051.197
 490  813.2358
 491  832.7475
 492  703.7067
 493  1122.068
 494  1168.954
 495  1086.204
 496  1220.024
 497  1032.913
 498  1037.953
 499  1312.967
 500  1173.056
 501  595.6086
 502  977.7068
 503  1052.758
 504  960.1699
 505  771.9814
 506  1012.974
 507  946.7846
 508  978.5386
 509  1145.701
 510  1126.297
 511  725.702
