# Input file       =  1194899111.10159_cleaned.dat
# Candidate        =  PSR_0332+5434
# Telescope        =  AR
# Epoch_topo       =  58073.851042842478
# Epoch_bary       =  N/A
# T_sample         =  0.002
# Data Folded      =  7340032
# Data Avg         =  0.488193120177521
# Data StdDev      =  6.44059783581377 
# Profile Bins     =  512
# Profile Avg      =  6998.70802363707 
# Profile StdDev   =  771.152334963612 
# Reduced chi-sqr  =  0.636
# Prob(Noise)      <  1   (~0.0 sigma)
# P_topo (ms)      =  714.511081662013  +/- 3.85e-05
# P'_topo (s/s)    =  -0                +/- 2.03e-11
# P''_topo (s/s^2) =  0                 +/- 8.98e-15
# P_bary (ms)      =  N/A
# P'_bary (s/s)    =  N/A
# P''_bary (s/s^2) =  N/A
# P_orb (s)        =  N/A
# asin(i)/c (s)    =  N/A
# eccentricity     =  N/A
# w (rad)          =  N/A
# T_peri           =  N/A
######################################################
   0  6707.592
   1  6810.642
   2  6683.473
   3  6793.502
   4  6989.169
   5  6739.928
   6  6649.385
   7  6713.592
   8  7123.298
   9  7275.226
  10  6730.015
  11  6904.353
  12  7045.594
  13  6458.786
  14  6482.743
  15  6820.029
  16  7073.095
  17  7293.592
  18  7689.255
  19  7636.258
  20  6839.212
  21  6344.515
  22  6974.291
  23  7010.339
  24  6879.097
  25  6829.179
  26  7458.8
  27  7277.782
  28  6730.541
  29  7109.079
  30  7751.62
  31  7806.618
  32  7595.094
  33  8279.2
  34  7981.271
  35  7371.229
  36  7020.706
  37  7676.073
  38  7718.62
  39  7628.691
  40  8448.053
  41  7808.543
  42  7424.938
  43  7613.442
  44  7552.964
  45  7268.932
  46  6668.722
  47  7062.202
  48  7033.473
  49  6226.331
  50  6423.363
  51  6074.094
  52  6805.037
  53  6780.399
  54  7175.79
  55  7226.769
  56  7160.931
  57  6937.023
  58  6786.544
  59  7060.479
  60  7155.86
  61  7528.532
  62  8091.167
  63  7851.498
  64  7031.383
  65  7014.329
  66  7203.94
  67  7304.518
  68  7560.479
  69  8176.146
  70  7855.847
  71  7056.867
  72  7367.146
  73  7808.833
  74  7557.668
  75  7687.05
  76  7933.06
  77  7489.744
  78  7038.18
  79  7078.238
  80  8087.044
  81  7981.715
  82  7577.136
  83  7527.769
  84  7497.185
  85  7164.41
  86  7585.617
  87  7631.146
  88  7238.529
  89  6988.406
  90  7219.116
  91  7457.481
  92  7115.913
  93  7214.742
  94  7134.671
  95  6450.891
  96  6248.048
  97  7137.011
  98  7260.473
  99  7125.355
 100  6613.043
 101  6492.52
 102  6248.886
 103  6142.788
 104  6360.553
 105  6885.874
 106  7189.665
 107  7200.128
 108  7197.142
 109  7536.825
 110  7261.459
 111  7430.412
 112  7749.486
 113  7652.986
 114  7201.399
 115  6937.501
 116  7213.388
 117  6572.185
 118  6986.85
 119  7370.126
 120  7359.375
 121  7199.205
 122  8010.95
 123  7533.804
 124  7205.218
 125  6848.383
 126  6686.592
 127  7000.235
 128  6355.785
 129  6852.59
 130  7490.285
 131  7352.464
 132  6900.443
 133  7308.006
 134  7378.891
 135  7597.68
 136  7332.35
 137  7057.707
 138  7550.685
 139  7315.945
 140  7215.184
 141  7242.366
 142  7303.336
 143  7101.48
 144  7031.731
 145  6833.343
 146  6785.309
 147  7381.492
 148  7793.973
 149  7778.996
 150  7346.519
 151  6940.237
 152  7066.683
 153  6773.426
 154  7264.033
 155  7803.853
 156  7322.462
 157  6844.666
 158  7014.058
 159  7195.746
 160  6524.989
 161  6668.237
 162  6920.689
 163  7075.754
 164  6561.259
 165  5960.952
 166  6517.031
 167  6570.571
 168  6137.849
 169  6386.642
 170  6385.263
 171  6475.514
 172  6763.238
 173  6710.835
 174  6908.184
 175  6582.763
 176  6911.245
 177  7470.668
 178  7108.131
 179  6993.629
 180  7002.774
 181  7193.256
 182  7123.198
 183  7501.257
 184  7701.191
 185  7454.535
 186  6828.79
 187  6943.126
 188  7262.53
 189  6607.578
 190  7509.408
 191  7597.953
 192  7362.917
 193  7026.627
 194  7055.425
 195  7226.32
 196  6996.531
 197  7324.694
 198  7532.846
 199  7215.748
 200  6792.455
 201  7013.583
 202  7078.59
 203  6741.384
 204  7197.226
 205  7963.958
 206  7832.246
 207  7594.137
 208  6999.771
 209  7339.914
 210  6399.746
 211  6682.314
 212  7148.513
 213  7558.267
 214  6696.03
 215  6562.76
 216  6972.81
 217  6964.798
 218  6870.679
 219  7216.921
 220  6945.01
 221  6617.525
 222  6451.693
 223  6300.149
 224  6657.153
 225  6824.773
 226  7289.217
 227  7231.627
 228  6966.878
 229  6736.519
 230  6833.699
 231  6762.618
 232  6645.456
 233  6983.255
 234  7299.712
 235  7759.113
 236  7022.85
 237  7054.568
 238  6707.519
 239  6822.165
 240  7287.438
 241  7373.403
 242  6490.652
 243  6118.609
 244  6634.72
 245  7010.252
 246  6521.971
 247  6273.638
 248  6888.691
 249  7042.975
 250  6787.405
 251  6834.649
 252  7004.752
 253  7009.091
 254  7325.496
 255  7409.882
 256  7318.843
 257  6800.082
 258  6636.1
 259  6953.363
 260  7138.132
 261  7191.849
 262  6927.065
 263  7069.295
 264  6912.902
 265  7265.561
 266  6771.615
 267  6800.372
 268  7158.953
 269  7514.65
 270  6942.75
 271  7034.485
 272  7162.242
 273  7378.284
 274  7621.063
 275  6904.657
 276  6678.52
 277  6868.098
 278  6722.375
 279  6624.173
 280  7247.724
 281  6988.5
 282  6965.168
 283  6685.385
 284  7080.886
 285  6566.275
 286  6711.387
 287  7011.424
 288  6807.537
 289  7010.662
 290  7024.926
 291  6866.662
 292  6306.539
 293  6401.907
 294  6876.019
 295  6861.106
 296  6852.412
 297  7426.082
 298  7676.916
 299  7367.967
 300  7024.158
 301  7362.687
 302  7531.964
 303  7283.298
 304  7261.733
 305  7043.649
 306  7094.388
 307  6674.304
 308  6918.881
 309  6968.211
 310  7017.999
 311  6811.243
 312  7507.888
 313  8094.831
 314  7780.91
 315  7817.36
 316  8288.655
 317  8359.73
 318  7456.619
 319  7542.955
 320  7265.899
 321  6997.291
 322  6690.127
 323  7176.281
 324  7489.575
 325  7264.305
 326  7700.66
 327  7360.44
 328  7055.652
 329  6814.901
 330  7261.928
 331  7921.135
 332  8142.933
 333  7898.642
 334  8201.277
 335  7476.092
 336  7039.81
 337  6420.916
 338  7053.296
 339  6658.713
 340  6421.149
 341  6897.831
 342  6977.276
 343  6182.277
 344  6474.271
 345  7185.061
 346  6891.092
 347  6710.629
 348  6619.521
 349  6573.475
 350  6313.282
 351  6777.55
 352  6931.929
 353  7218.44
 354  6527.023
 355  6611.132
 356  6780.663
 357  6925.31
 358  6355.432
 359  6261.644
 360  7082.193
 361  7174.646
 362  6780.826
 363  6830.903
 364  6508.866
 365  6253.202
 366  6933.965
 367  6830.594
 368  6815.263
 369  7259.485
 370  7126.104
 371  6672.433
 372  6042.241
 373  6482.707
 374  7332.265
 375  6958.939
 376  7005.415
 377  7313.754
 378  6838.426
 379  6689.109
 380  6671.695
 381  6970.082
 382  6784.763
 383  6940.863
 384  7393.44
 385  7427.7
 386  7032.087
 387  6613.188
 388  6626.237
 389  6394.288
 390  6389.508
 391  6836.146
 392  6961.677
 393  6358.865
 394  6352.65
 395  6883.721
 396  6885.394
 397  6822.4
 398  7371.913
 399  7197.074
 400  6888.295
 401  6970.351
 402  7500.297
 403  6972.991
 404  6647.341
 405  6583.805
 406  6593.958
 407  6625.512
 408  6142.077
 409  6252.201
 410  6766.505
 411  6394.594
 412  6678.349
 413  7202.828
 414  6603.546
 415  6326.184
 416  6224.932
 417  6686.881
 418  6286.068
 419  6442.77
 420  6803.583
 421  6454.797
 422  6150.97
 423  6214.031
 424  6321.238
 425  6497.6
 426  6731.117
 427  6782.968
 428  6815.057
 429  6599.825
 430  6741.562
 431  6790.733
 432  6345.812
 433  6748.066
 434  7121.078
 435  7308.813
 436  6946.554
 437  6957.421
 438  7055.272
 439  6876.371
 440  6813.839
 441  7299.505
 442  6869.037
 443  6664.206
 444  6817.485
 445  7068.529
 446  6604.293
 447  6083.587
 448  6855.68
 449  6789.83
 450  6972.715
 451  6279.024
 452  6757.976
 453  7086.434
 454  6739.521
 455  7095.59
 456  7347.042
 457  6580.557
 458  5974.052
 459  6343.067
 460  6846.763
 461  7137.298
 462  6816.575
 463  7357.128
 464  7492.968
 465  6934.657
 466  6502.898
 467  6792.344
 468  6333.185
 469  7174.928
 470  7815.214
 471  7544.103
 472  7469.273
 473  7388.136
 474  7269.511
 475  6507.727
 476  6916.391
 477  7600.052
 478  7402.938
 479  6138.294
 480  6463.406
 481  6786.667
 482  6985.851
 483  6794.79
 484  6993.154
 485  6698.466
 486  6565.538
 487  6618.085
 488  6781.514
 489  6890.01
 490  6313.865
 491  7147.283
 492  7340.103
 493  7074.111
 494  6672.278
 495  6802.81
 496  6824.672
 497  6632.664
 498  6666.963
 499  6800.035
 500  6087.383
 501  5763.125
 502  6032.454
 503  6288.653
 504  6431.012
 505  6622.578
 506  6655.355
 507  6469.425
 508  6741.201
 509  6872.062
 510  6889.037
 511  6614.261
