# Input file       =  1194985250.121086_cleaned.dat
# Candidate        =  PSR_0332+5434
# Telescope        =  AR
# Epoch_topo       =  58074.848022234793
# Epoch_bary       =  N/A
# T_sample         =  0.002
# Data Folded      =  7340032
# Data Avg         =  0.0663541904439826
# Data StdDev      =  1.00019301809966 
# Profile Bins     =  512
# Profile Avg      =  951.214379476052 
# Profile StdDev   =  119.756147019914 
# Reduced chi-sqr  =  0.534
# Prob(Noise)      <  1   (~0.0 sigma)
# P_topo (ms)      =  714.512097560554  +/- 0.00205
# P'_topo (s/s)    =  -0                +/- 1.08e-09
# P''_topo (s/s^2) =  0                 +/- 4.77e-13
# P_bary (ms)      =  N/A
# P'_bary (s/s)    =  N/A
# P''_bary (s/s^2) =  N/A
# P_orb (s)        =  N/A
# asin(i)/c (s)    =  N/A
# eccentricity     =  N/A
# w (rad)          =  N/A
# T_peri           =  N/A
######################################################
   0  1206.084
   1  1195.328
   2  1159.806
   3  1046.782
   4  1122.81
   5  1042.533
   6  926.6248
   7  894.0204
   8  938.6188
   9  965.9325
  10  968.9586
  11  1017.78
  12  992.7415
  13  928.9095
  14  979.0982
  15  1028.974
  16  967.045
  17  905.7197
  18  966.8543
  19  995.5907
  20  959.27
  21  925.6658
  22  893.0527
  23  928.8881
  24  1012.573
  25  919.5601
  26  931.1846
  27  962.6454
  28  905.5034
  29  896.0453
  30  895.5032
  31  905.9343
  32  951.7264
  33  941.9318
  34  942.5701
  35  1009.297
  36  1049.497
  37  1047.678
  38  936.8815
  39  978.1381
  40  1027.515
  41  925.6448
  42  841.1839
  43  951.939
  44  989.7432
  45  914.2621
  46  836.9937
  47  862.0234
  48  916.7083
  49  889.0809
  50  927.6393
  51  883.7185
  52  920.4619
  53  917.3194
  54  1004.613
  55  1052.557
  56  1024.575
  57  1049.881
  58  988.3691
  59  905.812
  60  949.8598
  61  960.3045
  62  962.6163
  63  840.7523
  64  889.9218
  65  996.0759
  66  1006.31
  67  871.8225
  68  883.9263
  69  918.5787
  70  889.4443
  71  878.4373
  72  924.5576
  73  929.3683
  74  845.1725
  75  958.6836
  76  903.7535
  77  862.2731
  78  891.4487
  79  760.82
  80  796.9634
  81  886.8276
  82  997.112
  83  1052.781
  84  963.158
  85  917.8054
  86  990.4495
  87  898.8979
  88  801.0004
  89  944.2871
  90  915.4113
  91  906.1974
  92  925.5818
  93  928.6848
  94  892.2398
  95  863.3715
  96  897.3504
  97  886.723
  98  967.2807
  99  1023.897
 100  979.6652
 101  874.6182
 102  821.4702
 103  906.2178
 104  951.179
 105  975.7817
 106  958.0641
 107  968.0884
 108  1091.429
 109  1051.066
 110  917.529
 111  875.3822
 112  961.0718
 113  954.5283
 114  965.2582
 115  949.9622
 116  988.1459
 117  934.3365
 118  1012.93
 119  993.6472
 120  855.3244
 121  853.1397
 122  1011.667
 123  1054.165
 124  970.126
 125  948.8634
 126  935.2003
 127  984.8777
 128  819.4954
 129  838.838
 130  874.0977
 131  872.3489
 132  904.1399
 133  977.4796
 134  1039.613
 135  962.842
 136  901.6265
 137  995.7753
 138  1001.568
 139  1010.385
 140  966.276
 141  973.5905
 142  884.3917
 143  894.7682
 144  908.3231
 145  898.0219
 146  938.0894
 147  963.6296
 148  953.1948
 149  900.9012
 150  924.468
 151  969.4185
 152  920.5311
 153  872.501
 154  974.0768
 155  984.6295
 156  951.6931
 157  969.0803
 158  911.9538
 159  929.3763
 160  881.2664
 161  897.6635
 162  884.335
 163  823.8871
 164  799.7504
 165  832.7535
 166  934.212
 167  967.1508
 168  917.1306
 169  937.5127
 170  1015.588
 171  996.1058
 172  1025.248
 173  988.1202
 174  1020.34
 175  1016.674
 176  1024.225
 177  916.1636
 178  933.4807
 179  945.5132
 180  1009.656
 181  991.096
 182  962.5316
 183  915.8651
 184  867.4813
 185  835.7465
 186  941.325
 187  976.1342
 188  785.4818
 189  836.2224
 190  982.1313
 191  1003.736
 192  898.149
 193  895.7592
 194  948.7864
 195  1023.765
 196  981.6566
 197  892.0975
 198  1002.188
 199  937.8032
 200  915.8935
 201  955.2972
 202  956.0497
 203  852.983
 204  948.2193
 205  949.6948
 206  898.3675
 207  868.0022
 208  1009.712
 209  1030.358
 210  953.6957
 211  889.3914
 212  979.1301
 213  1027.395
 214  892.9527
 215  968.8424
 216  944.9683
 217  917.8818
 218  908.3915
 219  967.5033
 220  927.8264
 221  900.3636
 222  883.0573
 223  942.3223
 224  906.0186
 225  948.2645
 226  909.0302
 227  937.1017
 228  803.3793
 229  763.5289
 230  896.9276
 231  964.087
 232  1030.787
 233  937.819
 234  926.6292
 235  947.8952
 236  884.9976
 237  813.5818
 238  861.16
 239  911.2144
 240  975.8941
 241  863.7892
 242  971.1336
 243  973.7346
 244  923.3295
 245  900.3555
 246  925.3967
 247  904.4478
 248  955.8786
 249  966.3188
 250  945.1202
 251  898.5178
 252  946.2183
 253  967.933
 254  929.5671
 255  815.3576
 256  879.0102
 257  1008.825
 258  1014.818
 259  881.9197
 260  810.402
 261  860.6398
 262  1000.316
 263  995.0797
 264  977.7355
 265  966.1631
 266  959.1355
 267  936.6636
 268  989.0338
 269  940.1779
 270  975.2682
 271  1033.703
 272  1018.155
 273  982.1121
 274  921.5674
 275  956.3628
 276  974.3563
 277  952.4739
 278  891.8223
 279  843.6315
 280  1019.689
 281  1121.045
 282  1025.419
 283  1018.023
 284  1001.207
 285  963.6041
 286  925.7134
 287  917.8119
 288  987.2552
 289  926.7458
 290  916.4037
 291  912.6425
 292  962.6708
 293  967.52
 294  917.5782
 295  959.2123
 296  946.8875
 297  979.7946
 298  983.3442
 299  989.2673
 300  963.14
 301  1068.857
 302  1074.877
 303  1075.086
 304  1079.569
 305  1019.514
 306  998.4968
 307  939.9882
 308  975.3629
 309  948.6919
 310  925.683
 311  998.9211
 312  1021.689
 313  1081.808
 314  1016.644
 315  972.5107
 316  943.811
 317  988.1348
 318  992.3172
 319  980.076
 320  1053.516
 321  1035.119
 322  1089.486
 323  1061.948
 324  1047.278
 325  993.481
 326  1012.746
 327  1073.492
 328  1058.055
 329  1039.933
 330  1026.308
 331  885.573
 332  853.5536
 333  944.5378
 334  997.1199
 335  947.4762
 336  866.6083
 337  877.813
 338  915.7925
 339  952.0084
 340  1027.617
 341  851.9855
 342  872.2658
 343  910.6626
 344  903.4253
 345  940.2514
 346  949.912
 347  933.0016
 348  903.1209
 349  899.292
 350  983.8873
 351  934.5863
 352  917.6891
 353  883.125
 354  945.9865
 355  961.4365
 356  966.5472
 357  1012.14
 358  959.4666
 359  936.1135
 360  937.7159
 361  983.3185
 362  859.2386
 363  917.8684
 364  1045.05
 365  937.4091
 366  935.9313
 367  915.5828
 368  937.7613
 369  841.66
 370  910.6567
 371  822.3759
 372  947.6556
 373  1002.853
 374  1047.195
 375  1037.507
 376  982.3456
 377  985.0596
 378  973.3104
 379  953.2992
 380  996.0624
 381  967.2997
 382  852.3657
 383  876.5338
 384  881.6693
 385  953.6464
 386  924.7222
 387  944.2382
 388  928.0261
 389  797.1981
 390  893.2642
 391  893.3815
 392  922.895
 393  923.8145
 394  905.573
 395  1012.847
 396  949.0802
 397  953.8879
 398  1064.072
 399  999.3209
 400  970.1423
 401  980.7084
 402  968.86
 403  991.7412
 404  1030.327
 405  997.4407
 406  1008.442
 407  1018.338
 408  960.7647
 409  983.2278
 410  966.1266
 411  931.3542
 412  925.8476
 413  884.6277
 414  952.141
 415  969.6049
 416  893.8585
 417  917.123
 418  907.8532
 419  915.9065
 420  939.9642
 421  972.1779
 422  938.2919
 423  959.7746
 424  959.8184
 425  933.1781
 426  897.1734
 427  886.8597
 428  963.8342
 429  966.5718
 430  892.1771
 431  914.5911
 432  875.3223
 433  962.1109
 434  949.2287
 435  876.4059
 436  950.4158
 437  907.0377
 438  978.2698
 439  912.478
 440  923.5895
 441  957.9641
 442  920.7797
 443  1005.336
 444  948.1989
 445  884.2822
 446  869.718
 447  908.5118
 448  961.6731
 449  937.4474
 450  905.78
 451  919.612
 452  1002.064
 453  990.6654
 454  984.9323
 455  1004.43
 456  1046.8
 457  1016.311
 458  1030.364
 459  950.5641
 460  875.103
 461  881.6204
 462  1006.288
 463  1068.767
 464  1001.962
 465  951.6991
 466  986.8738
 467  878.1978
 468  897.9269
 469  893.8257
 470  965.3622
 471  946.8013
 472  972.332
 473  973.0366
 474  944.321
 475  1039.101
 476  947.2737
 477  972.5521
 478  978.9862
 479  954.6362
 480  983.651
 481  1039.699
 482  1062.958
 483  1016.242
 484  1028.283
 485  1040.002
 486  923.293
 487  899.2071
 488  964.4334
 489  1053.129
 490  994.5497
 491  977.7698
 492  948.3199
 493  929.5803
 494  878.7968
 495  939.6053
 496  979.1771
 497  979.1133
 498  975.4559
 499  983.6494
 500  1030.274
 501  992.8302
 502  1003.134
 503  1030.323
 504  983.6918
 505  996.9937
 506  1063.762
 507  1028.418
 508  990.9625
 509  1042.63
 510  1158.671
 511  1149.673
