# Input file       =  1194985250.121086_cleaned.dat
# Candidate        =  PSR_0332+5434
# Telescope        =  AR
# Epoch_topo       =  58074.848022234793
# Epoch_bary       =  N/A
# T_sample         =  0.002
# Data Folded      =  7340032
# Data Avg         =  0.575324863861688
# Data StdDev      =  8.53078496484589 
# Profile Bins     =  512
# Profile Avg      =  8247.72736713427 
# Profile StdDev   =  1021.41678651826 
# Reduced chi-sqr  =  0.389
# Prob(Noise)      <  1   (~0.0 sigma)
# P_topo (ms)      =  714.512098947562  +/- 0.00265
# P'_topo (s/s)    =  -0                +/- 1.4e-09
# P''_topo (s/s^2) =  0                 +/- 6.17e-13
# P_bary (ms)      =  N/A
# P'_bary (s/s)    =  N/A
# P''_bary (s/s^2) =  N/A
# P_orb (s)        =  N/A
# asin(i)/c (s)    =  N/A
# eccentricity     =  N/A
# w (rad)          =  N/A
# T_peri           =  N/A
######################################################
   0  8133.236
   1  7528.268
   2  7463.617
   3  7972.266
   4  8348.506
   5  8613.669
   6  8678.495
   7  8531.706
   8  9251.931
   9  8651.124
  10  8126.878
  11  7924.783
  12  8163.288
  13  8710.964
  14  8583.386
  15  8261.982
  16  7947.975
  17  8335.02
  18  8699.699
  19  8320.17
  20  7508.198
  21  7521.942
  22  8323.644
  23  8589.287
  24  8651.875
  25  7975.195
  26  8028.309
  27  8031.83
  28  7375.865
  29  7678.468
  30  7225.397
  31  7244.077
  32  8040.208
  33  8188.1
  34  8373.198
  35  8050.083
  36  8119.684
  37  8385.16
  38  8676.591
  39  8514.957
  40  8768.188
  41  8387.23
  42  8089.049
  43  8069.789
  44  7802.715
  45  7533.635
  46  7790.438
  47  8356.182
  48  8155.709
  49  8033.902
  50  8117.154
  51  8348.529
  52  8050.807
  53  8334.751
  54  8681.979
  55  8309.492
  56  7984.174
  57  8484.894
  58  8028.041
  59  7934.344
  60  7777.683
  61  8055.746
  62  7961.336
  63  7413.298
  64  7643.423
  65  7002.864
  66  7841.921
  67  8267
  68  8339.077
  69  8629.417
  70  8773.935
  71  8852.415
  72  8444.393
  73  7952.317
  74  8577.565
  75  8690.551
  76  8251.3
  77  7851.228
  78  7947.043
  79  8492.87
  80  8407.625
  81  8021.846
  82  8031.298
  83  7916.885
  84  7595.9
  85  7650.705
  86  8627.475
  87  8827.467
  88  7468.994
  89  7999.375
  90  8494.642
  91  7836.229
  92  7778.355
  93  8149.533
  94  8166.951
  95  8411.727
  96  7722.053
  97  7710.092
  98  8202.269
  99  7766.583
 100  8040.745
 101  8183.604
 102  7962.61
 103  8002.933
 104  8719.842
 105  8737.545
 106  8004.931
 107  8394.723
 108  8758.344
 109  9085.353
 110  8543.125
 111  7782.124
 112  8778.248
 113  8790.311
 114  8395.823
 115  8626.616
 116  8132.334
 117  8226.752
 118  8716.128
 119  7962.578
 120  7635.277
 121  7229.22
 122  7702.651
 123  7631.135
 124  7878.984
 125  8326.376
 126  7943.465
 127  8077.569
 128  7545.895
 129  7434.786
 130  7856.35
 131  8198.944
 132  8709.451
 133  7933.374
 134  8312.001
 135  8813.915
 136  7714.648
 137  7427.62
 138  7526.224
 139  8393.309
 140  7979.414
 141  7614.164
 142  8851.592
 143  8229.099
 144  7827.883
 145  7991.406
 146  7555.324
 147  7433.166
 148  7611.829
 149  8072.888
 150  8140.391
 151  8187.592
 152  8339.666
 153  8010.914
 154  7896.054
 155  6918.401
 156  7971.973
 157  8897.649
 158  8330.716
 159  7390.097
 160  7518.507
 161  8198.027
 162  8371.366
 163  7921.281
 164  7579.918
 165  7593.856
 166  7750.574
 167  8556.405
 168  8669.585
 169  8532.535
 170  8587.751
 171  9010.04
 172  8350.468
 173  8110.403
 174  7593.601
 175  8017.209
 176  8207.97
 177  7793.076
 178  8122.032
 179  7948.634
 180  9202.167
 181  9243.531
 182  8583.622
 183  8355.909
 184  8313.047
 185  7930.56
 186  7889.175
 187  8223.513
 188  8627.299
 189  8458.219
 190  8152.374
 191  8006.795
 192  8001.529
 193  7968.598
 194  8107.475
 195  8185.643
 196  8401.648
 197  8242.86
 198  8299
 199  8399.984
 200  8146.23
 201  8634.305
 202  8650.853
 203  8811.114
 204  8765.394
 205  8467.823
 206  8454.109
 207  8095.349
 208  8625.493
 209  8272.513
 210  8893.725
 211  8988.285
 212  9167.422
 213  9267.282
 214  9013.061
 215  8651.158
 216  8449.09
 217  8504.643
 218  8420.768
 219  8443.398
 220  8465.021
 221  9006.239
 222  9222.488
 223  8709.054
 224  8888.635
 225  8886.908
 226  8577.641
 227  8755.223
 228  8421.508
 229  8856.838
 230  9120.241
 231  8098.889
 232  7567.036
 233  8551.178
 234  8773.556
 235  8651.512
 236  8256.447
 237  8130.742
 238  8339.411
 239  8731.18
 240  8294.749
 241  7435.313
 242  7792.757
 243  8212.041
 244  8010.848
 245  7946.685
 246  8135.775
 247  8006.064
 248  7774.113
 249  7840.319
 250  8397.34
 251  8095.786
 252  7911.91
 253  7747.654
 254  8064.402
 255  8320.458
 256  8352.396
 257  8675.556
 258  8513.535
 259  8503.633
 260  8531.335
 261  8691.431
 262  7874.948
 263  8454.494
 264  9226.858
 265  8442.379
 266  8161.311
 267  8368.412
 268  8366.34
 269  7913.354
 270  8182.063
 271  7834.5
 272  8786.572
 273  8694.271
 274  8871.261
 275  9201.582
 276  9030.997
 277  8589.84
 278  8161.351
 279  8655.008
 280  8662.198
 281  8116.217
 282  7543.162
 283  7675.029
 284  7414.286
 285  8100.013
 286  8317.053
 287  8457.103
 288  7946.057
 289  7448.791
 290  7941.617
 291  7305.209
 292  7583.572
 293  7935.19
 294  8169.898
 295  8693.356
 296  8042.28
 297  8592.864
 298  9236.275
 299  8498.264
 300  8443.862
 301  8170.675
 302  8351.939
 303  9022.521
 304  8702.801
 305  9083.719
 306  8574.049
 307  8524.564
 308  7596.448
 309  7620.783
 310  7607.859
 311  7815.524
 312  7668.228
 313  7599.546
 314  8169.994
 315  8512.881
 316  8122.455
 317  8305.508
 318  8357.673
 319  8139.917
 320  8081.31
 321  8369.819
 322  8278.717
 323  8477.914
 324  8489.877
 325  7723.203
 326  7020.296
 327  7355.765
 328  8241.316
 329  8229.895
 330  7615.252
 331  7455.429
 332  7585.989
 333  8503.031
 334  8154.759
 335  8082.674
 336  8406.647
 337  8022.693
 338  8221.817
 339  8212.998
 340  8877.952
 341  8954.267
 342  8485.088
 343  8861.383
 344  8519.657
 345  8188.893
 346  8479.665
 347  8884.037
 348  8936.676
 349  8336.867
 350  8451.014
 351  9250.016
 352  9048.675
 353  8815.167
 354  8889.194
 355  9229.333
 356  8893.007
 357  8558.995
 358  8282.494
 359  7997.023
 360  7601.844
 361  7946.251
 362  8940.188
 363  9011.609
 364  8259.968
 365  8216.073
 366  8338.804
 367  7713.436
 368  8228.812
 369  8515.809
 370  8771.871
 371  8154.525
 372  8851.371
 373  8388.8
 374  8227.732
 375  8819.536
 376  8314.361
 377  8080.361
 378  8035.585
 379  8260.962
 380  7930.959
 381  8411.74
 382  8282.225
 383  8047.42
 384  8623.103
 385  8186.841
 386  8007.753
 387  7951.266
 388  8833.012
 389  8850.98
 390  8445.516
 391  8644.979
 392  8345.143
 393  8388.777
 394  8009.714
 395  8690.691
 396  7890.236
 397  8192.225
 398  8366.247
 399  8391.652
 400  8583.128
 401  8058.817
 402  8524.344
 403  8320.383
 404  8184.919
 405  8454.016
 406  8659.446
 407  8549.236
 408  8480.425
 409  8544.452
 410  9094.589
 411  9234.418
 412  9540.368
 413  9317.887
 414  9031.467
 415  9288.865
 416  9486.918
 417  8703.649
 418  8335.282
 419  8265.966
 420  8126.833
 421  8374.342
 422  8646.867
 423  8454.339
 424  8040.988
 425  8344.764
 426  8282.985
 427  8679.343
 428  8466.039
 429  8531.742
 430  9048.592
 431  8951.317
 432  8544.777
 433  8130.051
 434  8039.224
 435  8421.444
 436  8959.508
 437  7808.612
 438  7923.226
 439  7998.767
 440  7903.619
 441  8011.92
 442  7841.628
 443  7708.28
 444  7983.624
 445  8314.435
 446  8512.238
 447  8875.643
 448  8615.309
 449  8499.485
 450  8100.709
 451  8481.636
 452  8446.587
 453  7685.917
 454  7376.585
 455  7905.653
 456  8043.211
 457  8002.466
 458  7684.428
 459  7879.201
 460  7975.002
 461  8335.507
 462  8803.157
 463  7783.281
 464  7761.156
 465  7802.392
 466  8854.976
 467  8947.529
 468  8975.371
 469  8654.621
 470  8171.791
 471  8003.945
 472  8144.564
 473  8331.683
 474  7915.001
 475  7352.435
 476  8137.031
 477  8712.021
 478  8566.677
 479  7840.879
 480  7618.703
 481  8289.521
 482  7788.842
 483  7794.924
 484  8263.359
 485  7746.068
 486  7613.703
 487  8263.188
 488  7527.82
 489  8033.951
 490  8013.967
 491  6802.938
 492  7344.751
 493  8205.854
 494  9012.282
 495  8795.146
 496  8042.787
 497  8303.804
 498  8721.741
 499  7704.297
 500  7255.123
 501  8130.262
 502  7847.604
 503  7798.139
 504  8087.159
 505  8040.254
 506  7365.848
 507  7434.494
 508  7947.562
 509  8107.419
 510  8410.651
 511  8668.687
