# Input file       =  1194366952.10939_cleaned.dat
# Candidate        =  PSR_0332+5434
# Telescope        =  AR
# Epoch_topo       =  58067.691795247571
# Epoch_bary       =  N/A
# T_sample         =  0.002
# Data Folded      =  7208960
# Data Avg         =  0.162745815155689
# Data StdDev      =  4.54387935149036 
# Profile Bins     =  1024
# Profile Avg      =  1145.70348113509 
# Profile StdDev   =  381.252869508859 
# Reduced chi-sqr  =  0.574
# Prob(Noise)      <  1   (~0.0 sigma)
# P_topo (ms)      =  714.504890438801  +/- 7.03e-05
# P'_topo (s/s)    =  -0                +/- 3.78e-11
# P''_topo (s/s^2) =  0                 +/- 1.7e-14
# P_bary (ms)      =  N/A
# P'_bary (s/s)    =  N/A
# P''_bary (s/s^2) =  N/A
# P_orb (s)        =  N/A
# asin(i)/c (s)    =  N/A
# eccentricity     =  N/A
# w (rad)          =  N/A
# T_peri           =  N/A
######################################################
   0  1167.759
   1  1118.688
   2  1188.567
   3  1192.874
   4  1105.835
   5  820.5342
   6  972.0658
   7  1022.476
   8  1100.139
   9  1076.563
  10  1226.515
  11  1279.546
  12  1229.848
  13  1222.059
  14  1420.748
  15  1472.912
  16  1411.554
  17  1433.337
  18  1351.717
  19  1332.323
  20  1292.082
  21  1440.129
  22  1398.96
  23  1109.085
  24  890.237
  25  904.1874
  26  939.6807
  27  925.7191
  28  1048.23
  29  1045.713
  30  1006.183
  31  822.213
  32  878.3001
  33  1008.729
  34  1188.414
  35  1303.257
  36  1254.236
  37  1174.533
  38  1044.573
  39  964.2341
  40  1063.054
  41  1106.616
  42  1313.436
  43  1253.952
  44  1319.404
  45  1234.782
  46  1115.306
  47  1210.604
  48  1213.471
  49  1268.873
  50  1210.609
  51  1239.805
  52  1296.531
  53  1131.049
  54  1000.346
  55  1225.178
  56  1410.318
  57  1490.482
  58  1262.173
  59  998.4198
  60  960.041
  61  996.5007
  62  1166.515
  63  1129.249
  64  1117.178
  65  1160.993
  66  1258.535
  67  1297.592
  68  1241.287
  69  1273.756
  70  1274.94
  71  1338.893
  72  1231.329
  73  1041.611
  74  926.1144
  75  747.9149
  76  969.5873
  77  1052.13
  78  1265.207
  79  1281.371
  80  1326.985
  81  1275.383
  82  1135.708
  83  1088.284
  84  1094.91
  85  1175.836
  86  1152.454
  87  1183.865
  88  1177.008
  89  1145.824
  90  1069.287
  91  1053.311
  92  1142.462
  93  1190.188
  94  1224.57
  95  1192.973
  96  1244.676
  97  1121.713
  98  1288.406
  99  1244.401
 100  1256.495
 101  1193.536
 102  1109.717
 103  1230.861
 104  1218.121
 105  1194.806
 106  1188.772
 107  1145.52
 108  1176.356
 109  1139.684
 110  1370.963
 111  1341.492
 112  1276.054
 113  1069.994
 114  1329.096
 115  1470.587
 116  1354.432
 117  1208.178
 118  1149.728
 119  1058.782
 120  1009
 121  1137.781
 122  1424.584
 123  1324.832
 124  1157.87
 125  1129.405
 126  1093.797
 127  1026.214
 128  1141.709
 129  1275.325
 130  1531.274
 131  1456.844
 132  1447.695
 133  1260.828
 134  1115.302
 135  1024.506
 136  1058.637
 137  992.1793
 138  910.014
 139  1013.465
 140  1184.476
 141  1249.039
 142  1238.995
 143  1182.296
 144  1471.594
 145  1517.514
 146  1688.137
 147  1618.506
 148  1458.679
 149  1328.992
 150  1295.82
 151  1252.778
 152  1374.038
 153  1293.106
 154  1281.906
 155  1103.84
 156  952.2404
 157  1057.44
 158  1195.893
 159  1240.002
 160  1160.79
 161  1125.587
 162  1122.087
 163  1273.2
 164  1299.867
 165  1352.01
 166  1231.502
 167  1138.161
 168  1195.489
 169  1209.938
 170  1083.767
 171  1208.369
 172  1079.79
 173  1255.16
 174  1141.895
 175  1155.632
 176  1014.011
 177  1070.406
 178  1149.011
 179  1244.812
 180  1202.718
 181  1332.967
 182  1387.004
 183  1322.899
 184  1318.031
 185  1307.229
 186  1163.644
 187  1076.252
 188  1093.973
 189  1074.125
 190  921.5318
 191  824.9896
 192  857.8591
 193  925.5577
 194  886.4425
 195  1112.72
 196  1149.368
 197  1164.823
 198  1182.361
 199  1161.245
 200  1297.296
 201  1085.908
 202  1045.607
 203  974.4365
 204  1073.581
 205  1059.821
 206  1013.155
 207  1130.042
 208  1004.205
 209  963.1562
 210  897.6657
 211  1075.022
 212  1203.941
 213  1290.43
 214  1356.862
 215  1120.799
 216  1008.847
 217  1130.316
 218  1222.162
 219  1124.112
 220  965.4451
 221  968.6005
 222  1025.154
 223  1086.906
 224  1280.562
 225  1427.086
 226  1274.371
 227  1221.709
 228  1291.282
 229  1433.505
 230  1234.885
 231  1239.16
 232  1207.21
 233  1277.362
 234  1207.885
 235  1028.834
 236  1070.288
 237  1002.562
 238  1196.923
 239  1067.649
 240  893.9563
 241  883.8559
 242  878.7974
 243  974.4696
 244  1063.903
 245  1118.458
 246  1244.24
 247  1218.977
 248  1240.153
 249  1270.328
 250  1052.961
 251  934.0485
 252  946.7262
 253  1127.653
 254  1208.356
 255  1134.048
 256  1004.257
 257  847.7825
 258  934.426
 259  1108.26
 260  1214.455
 261  1162.7
 262  1079.802
 263  1088.233
 264  899.6078
 265  1003.572
 266  1030.768
 267  1112.284
 268  1166.697
 269  1127.572
 270  1281.804
 271  1176.848
 272  1159.419
 273  1134.636
 274  1195.757
 275  1129.451
 276  928.1233
 277  1120.719
 278  1224.784
 279  1248.879
 280  917.4532
 281  894.0038
 282  842.2946
 283  858.5566
 284  853.8798
 285  945.7375
 286  1018.367
 287  1245.455
 288  1332.865
 289  1356.925
 290  1141.857
 291  1065.021
 292  1179.465
 293  1191.537
 294  1135.384
 295  1112.976
 296  1164.474
 297  1147.823
 298  983.8091
 299  1007.965
 300  1003.555
 301  1060.533
 302  1063.625
 303  1105.943
 304  1200.632
 305  1076.301
 306  1113.591
 307  890.9492
 308  1012.167
 309  1076.047
 310  1176.029
 311  1279.024
 312  1201.844
 313  1100.956
 314  1124.621
 315  1170.52
 316  1145.63
 317  1014.086
 318  1031.925
 319  1271.594
 320  1273.532
 321  1215.214
 322  1092.613
 323  879.9658
 324  945.0836
 325  835.9064
 326  1002.225
 327  1015.638
 328  1118.662
 329  1262.533
 330  1242.703
 331  1139.867
 332  1002.812
 333  1087.098
 334  1064.366
 335  1069.853
 336  1124.824
 337  1208.415
 338  1104.055
 339  954.0104
 340  966.405
 341  945.4471
 342  970.9726
 343  1183.58
 344  1500.603
 345  1521.116
 346  1327.229
 347  1186.815
 348  1112.544
 349  1039.497
 350  1070.809
 351  1275.917
 352  1386.503
 353  1114.787
 354  865.7852
 355  916.9427
 356  974.8275
 357  1065.607
 358  1081.23
 359  1153.423
 360  1154.708
 361  971.7589
 362  1093.26
 363  968.4334
 364  976.5701
 365  1004.519
 366  1067.334
 367  1174.323
 368  1022.347
 369  1177.474
 370  1275.969
 371  1381.945
 372  1300.263
 373  1092.334
 374  1070.127
 375  1058.589
 376  1212.991
 377  1177.74
 378  1146.629
 379  1273.793
 380  1384.894
 381  1404.509
 382  1302.354
 383  1207.161
 384  1117.958
 385  1090.04
 386  1056.564
 387  1058.006
 388  862.1511
 389  963.4191
 390  897.5405
 391  943.0227
 392  919.181
 393  1048.812
 394  1171.033
 395  1287.714
 396  1484.383
 397  1418.239
 398  1318.329
 399  1093.978
 400  1138.257
 401  1136.674
 402  985.9698
 403  941.7094
 404  1013.841
 405  962.0193
 406  903.1129
 407  990.5114
 408  1231.247
 409  1218.682
 410  1175.651
 411  1251.603
 412  1340.198
 413  1139.368
 414  1127.287
 415  1232.271
 416  1302.216
 417  1274.429
 418  1298.162
 419  1384.781
 420  1388.965
 421  1305.062
 422  1287.304
 423  1070.932
 424  921.1475
 425  999.1227
 426  1168.931
 427  1225.874
 428  1097.84
 429  1161.041
 430  1260.26
 431  1246.884
 432  1424.059
 433  1379.096
 434  1406.316
 435  1265.98
 436  1170.766
 437  1187.344
 438  1066.426
 439  1232.709
 440  1209.545
 441  1178.394
 442  1078.781
 443  1067.858
 444  1385.417
 445  1442.106
 446  1234.682
 447  1000.646
 448  995.4025
 449  1038.549
 450  990.6594
 451  921.4912
 452  1040.783
 453  983.3266
 454  1108.014
 455  1140.91
 456  1051.842
 457  934.9562
 458  984.3647
 459  1149.65
 460  1091.217
 461  1129.294
 462  1135.896
 463  1061.226
 464  1130.333
 465  985.941
 466  1053.342
 467  967.4976
 468  1096.826
 469  1042.235
 470  891.5629
 471  875.0861
 472  896.2387
 473  916.1017
 474  1024.315
 475  1221.902
 476  1305.685
 477  1261.413
 478  1178.705
 479  1129.018
 480  1086.869
 481  1017.742
 482  1131.434
 483  1083.384
 484  1211.659
 485  1208.248
 486  1179.724
 487  1079.69
 488  1068.959
 489  1169.765
 490  1175.985
 491  1260.891
 492  1252.299
 493  1375.376
 494  1360.252
 495  1496.227
 496  1337.893
 497  1224.806
 498  1102.576
 499  1125.184
 500  1296.943
 501  1138.57
 502  986.5912
 503  949.0387
 504  1044.499
 505  1121.698
 506  919.6716
 507  1078.877
 508  971.1188
 509  1033.898
 510  1090.905
 511  1212.609
 512  1237.095
 513  1104.561
 514  1267.218
 515  1344.058
 516  1335.679
 517  1341.473
 518  1366.017
 519  1298.82
 520  1209.193
 521  1042.709
 522  1142.852
 523  1115.743
 524  1169.445
 525  1259.878
 526  1197.735
 527  1161.624
 528  1054.831
 529  1133.861
 530  1074.302
 531  1104.186
 532  1142.843
 533  1165.378
 534  1211.888
 535  1048.459
 536  1132.165
 537  1101.682
 538  1230.041
 539  1159.891
 540  1007.458
 541  1081.551
 542  1158.26
 543  1254.81
 544  1305.552
 545  1124.097
 546  1087.048
 547  1003.47
 548  1073.317
 549  1068.51
 550  1032.513
 551  976.313
 552  1040.032
 553  1103.021
 554  1014.752
 555  1111.307
 556  1134.801
 557  1252.394
 558  1141.481
 559  1231.973
 560  1214.425
 561  1173.728
 562  901.317
 563  1032.567
 564  1041.002
 565  1084.652
 566  901.6467
 567  826.4648
 568  1026.75
 569  904.0001
 570  938.9871
 571  915.9417
 572  1076.177
 573  1001.649
 574  1038.386
 575  1149.677
 576  1189.725
 577  1270.896
 578  1315.626
 579  1290.185
 580  1199.984
 581  1079.304
 582  1188.499
 583  1083.136
 584  1186.286
 585  1201.775
 586  1155.991
 587  997.2547
 588  929.8672
 589  883.5592
 590  1078.713
 591  1185.492
 592  1311.368
 593  1253.511
 594  1119.769
 595  1159.241
 596  1140.564
 597  1373.472
 598  1396.865
 599  1245.62
 600  1154.625
 601  1129.651
 602  1215.477
 603  1175.189
 604  1162.532
 605  1025.601
 606  1157.81
 607  1137.002
 608  1258.985
 609  1279.778
 610  1184.232
 611  1198.135
 612  1134.966
 613  1239.437
 614  1199.435
 615  1320.274
 616  1294.704
 617  1325.519
 618  1327.826
 619  1455.748
 620  1315.969
 621  1101.356
 622  1077.063
 623  1325.589
 624  1432.035
 625  1321.318
 626  1322.662
 627  1420.055
 628  1549.181
 629  1689.35
 630  1815.006
 631  1941.566
 632  1759.607
 633  1865.532
 634  1723.872
 635  1593.333
 636  1444.441
 637  1368.999
 638  1362.18
 639  1076.627
 640  1074.987
 641  1189.94
 642  1220.331
 643  1061.42
 644  1067.496
 645  1128.465
 646  1151.079
 647  1137.188
 648  1092.723
 649  1155.995
 650  1081.761
 651  1173.435
 652  1229.21
 653  1148.315
 654  1094.188
 655  1166.014
 656  1183.683
 657  1141.989
 658  1135.746
 659  1202.337
 660  1332.616
 661  1128.133
 662  1181.822
 663  1062.88
 664  1088.325
 665  1112.083
 666  1164.592
 667  1306.499
 668  1255.89
 669  1113.252
 670  916.592
 671  1015.061
 672  1204.986
 673  1281.489
 674  1288.745
 675  1217.02
 676  1229.58
 677  1064.672
 678  1101.819
 679  1062.882
 680  998.6979
 681  955.6908
 682  1146.159
 683  1118.012
 684  1018.603
 685  849.523
 686  1000.985
 687  1199.49
 688  1235.417
 689  1130.766
 690  977.3516
 691  962.403
 692  1003.996
 693  1012.15
 694  1102.717
 695  974.2975
 696  969.6566
 697  920.1332
 698  1168.279
 699  1212.125
 700  1176.088
 701  1308.827
 702  1186.524
 703  1250.254
 704  1154.504
 705  1174.552
 706  1101.992
 707  1162.216
 708  1274.56
 709  1219.369
 710  1132.67
 711  1281.44
 712  1247.791
 713  1006.492
 714  952.6499
 715  1108.931
 716  1172.298
 717  1008.905
 718  848.587
 719  912.2501
 720  952.6047
 721  1169.168
 722  1207.771
 723  1397.982
 724  1348.347
 725  1599.259
 726  1361.537
 727  1150.371
 728  801.6543
 729  660.8409
 730  810.3
 731  780.0568
 732  945.6354
 733  1122.998
 734  1381.823
 735  1451.256
 736  1181.038
 737  1042.443
 738  890.7459
 739  1041.586
 740  1076.179
 741  1178.202
 742  1246.23
 743  1354.095
 744  1335.928
 745  1110.236
 746  942.5745
 747  962.9985
 748  1038.762
 749  1206.652
 750  1122.915
 751  1114.741
 752  1088.902
 753  1127.995
 754  1142.04
 755  1039.195
 756  963.1061
 757  974.538
 758  984.146
 759  1093.33
 760  1056.803
 761  1044.882
 762  1005.847
 763  977.8109
 764  1104.252
 765  1118.612
 766  1101.095
 767  882.8544
 768  895.2532
 769  886.5812
 770  988.0778
 771  1159.615
 772  1066.627
 773  994.9962
 774  996.9916
 775  1091.997
 776  1158.8
 777  1104.407
 778  1263.34
 779  1304.757
 780  1232.305
 781  1300.962
 782  1216.548
 783  1160.204
 784  1185.26
 785  1410.617
 786  1487.805
 787  1087.718
 788  858.0351
 789  878.6155
 790  997.7928
 791  938.9562
 792  866.4191
 793  947.5664
 794  999.2704
 795  1077.403
 796  973.7279
 797  1040.112
 798  1086.822
 799  990.6202
 800  1146.481
 801  1025.147
 802  1070.62
 803  948.663
 804  1105.239
 805  1224.149
 806  1302.836
 807  1413.66
 808  1439.511
 809  1400.75
 810  1260.749
 811  1074.155
 812  961.5056
 813  1036.347
 814  1163.009
 815  1155.393
 816  1072.566
 817  1025.519
 818  993.8628
 819  976.5909
 820  930.6486
 821  940.325
 822  1105.679
 823  1267.564
 824  1352.611
 825  1398.389
 826  1236.116
 827  1304.315
 828  1120.026
 829  1174.318
 830  1065.216
 831  1247.962
 832  1288.223
 833  1094.432
 834  1009.955
 835  941.2889
 836  1091.39
 837  1149.145
 838  1338.953
 839  1368.947
 840  1296.425
 841  1399.226
 842  1451.113
 843  1453.755
 844  1322.821
 845  1311.948
 846  1260.745
 847  1058.998
 848  1173.146
 849  1355.037
 850  1342.575
 851  1153.366
 852  993.2224
 853  983.9805
 854  960.6236
 855  981.1313
 856  1160.144
 857  1040.81
 858  1058.881
 859  1069.703
 860  1051.627
 861  841.6511
 862  603.3221
 863  751.2263
 864  899.5979
 865  1062.757
 866  1133.855
 867  1141.351
 868  1180.722
 869  1040.168
 870  1109.846
 871  1106.828
 872  1218.772
 873  1462.88
 874  1751.754
 875  1632.309
 876  1352.649
 877  1144.069
 878  1245.241
 879  1102.192
 880  972.906
 881  937.1912
 882  945.3196
 883  840.3015
 884  718.3191
 885  884.921
 886  1052.164
 887  1180.775
 888  1208.79
 889  1194.889
 890  1235.785
 891  1117.019
 892  1100.152
 893  1008.666
 894  1048.528
 895  1122.479
 896  1166.006
 897  1344.526
 898  1221.722
 899  1280.969
 900  1028.341
 901  1107.309
 902  1031.255
 903  988.7626
 904  1039.28
 905  1024.459
 906  1082.115
 907  1079.691
 908  1141.451
 909  1222.42
 910  1139.698
 911  1068.417
 912  1091.847
 913  1041.331
 914  941.5458
 915  847.5944
 916  965.3021
 917  1023.308
 918  1000.682
 919  1147.933
 920  1178.616
 921  1174.564
 922  1002.658
 923  1120.292
 924  1219.044
 925  1268.569
 926  1178.376
 927  1067.156
 928  1023.968
 929  1021.452
 930  924.7136
 931  1051.617
 932  1035.891
 933  1220.67
 934  1158.29
 935  1066.031
 936  943.5863
 937  1023.542
 938  1210.461
 939  1143.389
 940  1052.874
 941  1111.685
 942  1148.881
 943  910.91
 944  650.4029
 945  811.3127
 946  1148.852
 947  1235.152
 948  1225.395
 949  1112.634
 950  987.3735
 951  877.1909
 952  1078.855
 953  1196.844
 954  1116.216
 955  996.267
 956  1076.157
 957  1066.713
 958  1100.794
 959  991.1136
 960  1141.762
 961  1133.771
 962  1320.4
 963  1312.222
 964  1297.851
 965  1233.712
 966  1109.219
 967  1088.225
 968  1034.674
 969  1112.459
 970  1241.24
 971  1491.46
 972  1629.136
 973  1525.721
 974  1388.597
 975  1243.183
 976  1191.987
 977  1002.85
 978  925.7078
 979  1083.24
 980  1261.234
 981  1256.479
 982  1121.297
 983  1082.319
 984  1157.784
 985  1149.068
 986  1181.013
 987  1224.323
 988  1244.773
 989  1395.268
 990  1382.329
 991  1369.054
 992  1223.949
 993  1225.563
 994  1349.002
 995  1166.091
 996  1115.743
 997  901.9404
 998  1127.862
 999  1084.056
1000  1080.707
1001  1184.499
1002  1218.562
1003  1338.187
1004  1483.971
1005  1478.838
1006  1465.659
1007  1358.147
1008  1409.842
1009  1305.929
1010  1147.022
1011  1045.898
1012  1140.629
1013  1041.391
1014  1108.889
1015  1131.586
1016  1267.428
1017  1104.412
1018  1058.404
1019  1090.65
1020  1099.005
1021  1084.59
1022  1212.351
1023  1340.161
