# Input file       =  1194036851.116523_cleaned.dat
# Candidate        =  PSR_0332+5434
# Telescope        =  AR
# Epoch_topo       =  58063.871181904200
# Epoch_bary       =  N/A
# T_sample         =  0.002
# Data Folded      =  7340032
# Data Avg         =  0.0686258280683044
# Data StdDev      =  2.83224088152433 
# Profile Bins     =  512
# Profile Avg      =  983.788448574701 
# Profile StdDev   =  339.112800495317 
# Reduced chi-sqr  =  0.997
# Prob(Noise)      <  0.513   (~0.0 sigma)
# P_topo (ms)      =  714.501198348006  +/- 0.000187
# P'_topo (s/s)    =  -0                +/- 9.86e-11
# P''_topo (s/s^2) =  0                 +/- 4.35e-14
# P_bary (ms)      =  N/A
# P'_bary (s/s)    =  N/A
# P''_bary (s/s^2) =  N/A
# P_orb (s)        =  N/A
# asin(i)/c (s)    =  N/A
# eccentricity     =  N/A
# w (rad)          =  N/A
# T_peri           =  N/A
######################################################
   0  614.0432
   1  768.6006
   2  888.7797
   3  780.7159
   4  937.397
   5  1050.616
   6  1012.64
   7  946.0394
   8  660.1091
   9  638.8944
  10  899.7092
  11  956.9811
  12  785.1506
  13  607.8555
  14  852.6675
  15  1249.83
  16  1185.825
  17  833.5379
  18  845.0009
  19  988.8983
  20  751.5408
  21  1042.944
  22  1198.124
  23  1066.305
  24  780.5206
  25  795.4057
  26  763.3254
  27  659.4252
  28  620.3713
  29  812.6531
  30  1173.054
  31  903.7924
  32  766.4861
  33  975.0908
  34  929.1761
  35  966.5112
  36  921.0108
  37  1101.297
  38  1191.321
  39  1088.861
  40  1111.279
  41  809.1577
  42  522.0972
  43  482.8266
  44  707.9788
  45  848.9671
  46  1144.137
  47  1132.488
  48  1103.48
  49  1016.403
  50  973.4971
  51  893.4887
  52  690.3477
  53  785.3969
  54  1119.098
  55  929.6265
  56  981.4463
  57  756.708
  58  1054.166
  59  1340.438
  60  1163.335
  61  1069.917
  62  847.0249
  63  1052.25
  64  1114.502
  65  1277.891
  66  1002.418
  67  848.5962
  68  704.8105
  69  801.9033
  70  878.689
  71  796.4474
  72  949.1843
  73  807.8774
  74  540.8665
  75  714.5561
  76  828.7044
  77  796.8239
  78  942.8428
  79  1042.333
  80  1052.17
  81  796.3326
  82  890.2708
  83  737.7915
  84  612.0988
  85  759.1885
  86  906.9033
  87  753.3608
  88  850.3524
  89  903.2653
  90  849.5377
  91  857.1888
  92  1078.091
  93  1105.281
  94  932.4443
  95  754.856
  96  526.3971
  97  959.9225
  98  1120.156
  99  1086.139
 100  1156.641
 101  1534.229
 102  1377.498
 103  1018.241
 104  1039.05
 105  1232.806
 106  1106.443
 107  1008.362
 108  1054.598
 109  1271.489
 110  1297.483
 111  1146.795
 112  858.2994
 113  661.9625
 114  705.9521
 115  1084.026
 116  951.5685
 117  880.5604
 118  676.8024
 119  799.5864
 120  759.4221
 121  827.8779
 122  648.7841
 123  903.8326
 124  846.8948
 125  568.0221
 126  884.8885
 127  756.8134
 128  634.1889
 129  979.8268
 130  970.0703
 131  733.7446
 132  738.1684
 133  1046.878
 134  1096.109
 135  1020.678
 136  868.9905
 137  909.4729
 138  1249.162
 139  1182.122
 140  999.6066
 141  794.4812
 142  1222.29
 143  1235.276
 144  1036.465
 145  1184.83
 146  1096.029
 147  1617.173
 148  1149.266
 149  983.85
 150  1199.853
 151  1159.908
 152  1204.487
 153  1069.547
 154  1046.177
 155  835.2264
 156  823.1583
 157  1079.559
 158  1035.446
 159  796.2186
 160  1059.117
 161  984.5075
 162  861.6137
 163  1116.903
 164  1245.962
 165  1285.978
 166  1458.423
 167  1043.219
 168  1170.389
 169  724.48
 170  1075.272
 171  756.2222
 172  914.8569
 173  1320.251
 174  1322.535
 175  1012.918
 176  991.7682
 177  1272.562
 178  990.6602
 179  909.0485
 180  918.3415
 181  1085.89
 182  1330.84
 183  1246.61
 184  1214.765
 185  933.6339
 186  1177.16
 187  1047.995
 188  948.1561
 189  992.9952
 190  1007.526
 191  1007.571
 192  941.3799
 193  962.0011
 194  1024.916
 195  1162.587
 196  773.7048
 197  825.0117
 198  851.4011
 199  936.9781
 200  827.5127
 201  769.5166
 202  709.776
 203  821.6495
 204  971.5157
 205  671.4955
 206  369.5395
 207  857.7232
 208  993.7179
 209  634.4105
 210  489.3654
 211  704.7906
 212  608.57
 213  679.5593
 214  742.5344
 215  917.4006
 216  862.142
 217  936.3259
 218  821.6215
 219  828.3815
 220  981.7498
 221  1079.8
 222  946.9789
 223  1177.338
 224  1113.602
 225  905.8663
 226  993.8183
 227  983.2819
 228  897.0372
 229  873.9909
 230  975.5392
 231  1127.708
 232  1045.41
 233  845.3484
 234  1060.237
 235  1066.286
 236  1009.134
 237  778.6589
 238  796.4428
 239  1168.8
 240  1213.477
 241  1085.975
 242  1004.166
 243  950.8542
 244  1086.611
 245  1179.737
 246  1026.598
 247  1008.606
 248  1083.943
 249  1394.348
 250  1321.347
 251  1164.447
 252  1073.634
 253  1026.767
 254  1091.098
 255  867.9638
 256  801.3229
 257  998.9848
 258  1052.511
 259  997.4099
 260  855.4077
 261  684.7441
 262  647.0912
 263  853.024
 264  1346.077
 265  1177.59
 266  1106.148
 267  1112.376
 268  878.244
 269  867.0288
 270  772.2351
 271  854.9709
 272  1278.182
 273  1195.197
 274  1003.695
 275  883.3638
 276  908.8079
 277  1005.575
 278  656.3973
 279  711.1035
 280  681.3033
 281  884.4002
 282  763.2767
 283  951.4747
 284  1145.109
 285  1066.132
 286  664.0521
 287  624.3312
 288  670.517
 289  1176.219
 290  1188.12
 291  945.0657
 292  1018.66
 293  1120.046
 294  1046.303
 295  1115.931
 296  1166.24
 297  1604.936
 298  1442.166
 299  1473.823
 300  990.4002
 301  902.5223
 302  890.5953
 303  544.3295
 304  1062.335
 305  1442.173
 306  1438.162
 307  1316.648
 308  1143.641
 309  1341.212
 310  1521.533
 311  1495.427
 312  1314.688
 313  1522.406
 314  2129.3
 315  2453.172
 316  2758.537
 317  2388.786
 318  1876.045
 319  1525.393
 320  1137.418
 321  985.478
 322  948.2343
 323  1172.6
 324  936.9706
 325  716.6056
 326  1301.088
 327  1413.951
 328  1044.12
 329  1179.833
 330  1211.47
 331  1051.59
 332  1077.207
 333  1102.48
 334  1438.721
 335  1130.894
 336  1240.748
 337  845.608
 338  886.3014
 339  1166.943
 340  983.8286
 341  850.7526
 342  840.8175
 343  871.6589
 344  1028.583
 345  891.5877
 346  616.5852
 347  672.7037
 348  1026.996
 349  1017.553
 350  761.1348
 351  698.6154
 352  841.4556
 353  813.4406
 354  1033.334
 355  885.3397
 356  815.1028
 357  927.5276
 358  960.0051
 359  735.3851
 360  1012.876
 361  992.0953
 362  981.8055
 363  1071.611
 364  1041.521
 365  960.4495
 366  1092.909
 367  1109.597
 368  636.1526
 369  819.2355
 370  1028.931
 371  1075.414
 372  1287.855
 373  1345.393
 374  1261.684
 375  1256.198
 376  1094.187
 377  1198.715
 378  1228.678
 379  1098.16
 380  1084.741
 381  1342.443
 382  1154.713
 383  1166.078
 384  1344.346
 385  1117.423
 386  905.449
 387  973.8284
 388  1082.659
 389  888.8644
 390  891.0176
 391  959.1998
 392  1060.042
 393  956.7448
 394  913.7051
 395  777.9839
 396  680.2493
 397  787.3112
 398  806.6818
 399  1013.944
 400  1026.47
 401  912.1596
 402  1275.11
 403  1534.511
 404  999.8066
 405  798.9863
 406  831.4592
 407  875.429
 408  1166.861
 409  1095.872
 410  1161.177
 411  1176.397
 412  1095.881
 413  959.6801
 414  937.5662
 415  745.9009
 416  826.0978
 417  1011.958
 418  1137.916
 419  980.0499
 420  804.8882
 421  955.1559
 422  635.105
 423  651.291
 424  1159.182
 425  1087.021
 426  862.1953
 427  1014.633
 428  1188.325
 429  774.2818
 430  896.1732
 431  901.3176
 432  1126.693
 433  1035.843
 434  1127.045
 435  1097.078
 436  1198.115
 437  1149.582
 438  960.0786
 439  971.5231
 440  871.9437
 441  802.9894
 442  1084.971
 443  960.7078
 444  782.6132
 445  998.9006
 446  914.3309
 447  850.5893
 448  509.5308
 449  736.5424
 450  1134.073
 451  1174.42
 452  993.5109
 453  665.7307
 454  769.9958
 455  813.1819
 456  717.5671
 457  660.3593
 458  576.1072
 459  889.8129
 460  1028.452
 461  1035.251
 462  983.0431
 463  815.6313
 464  668.0826
 465  951.1905
 466  643.3718
 467  767.6124
 468  1221.744
 469  1124.041
 470  664.7781
 471  563.5652
 472  774.5261
 473  587.9689
 474  617.2975
 475  1019.923
 476  1108.79
 477  1011.003
 478  815.4769
 479  963.7448
 480  1095.443
 481  1153.35
 482  1017.817
 483  1065.85
 484  1079.155
 485  805.39
 486  783.4387
 487  962.9998
 488  1179.412
 489  1145.736
 490  985.8511
 491  993.5005
 492  947.7635
 493  711.0628
 494  840.4781
 495  949.6788
 496  829.59
 497  1086.285
 498  1023.732
 499  961.6352
 500  1066.658
 501  998.1886
 502  953.2822
 503  853.6962
 504  831.4489
 505  695.3658
 506  741.3317
 507  962.2831
 508  1219.7
 509  1014.432
 510  842.6235
 511  556.1229
