# Input file       =  1194296026.116019_cleaned.dat
# Candidate        =  PSR_0332+5434
# Telescope        =  AR
# Epoch_topo       =  58066.870892546518
# Epoch_bary       =  N/A
# T_sample         =  0.002
# Data Folded      =  7340032
# Data Avg         =  0.106843722450971
# Data StdDev      =  3.50453635826801 
# Profile Bins     =  512
# Profile Avg      =  1530.15694469678 
# Profile StdDev   =  419.608779268204 
# Reduced chi-sqr  =  0.790
# Prob(Noise)      <  1   (~0.0 sigma)
# P_topo (ms)      =  714.504105960832  +/- 0.000544
# P'_topo (s/s)    =  -0                +/- 2.87e-10
# P''_topo (s/s^2) =  0                 +/- 1.27e-13
# P_bary (ms)      =  N/A
# P'_bary (s/s)    =  N/A
# P''_bary (s/s^2) =  N/A
# P_orb (s)        =  N/A
# asin(i)/c (s)    =  N/A
# eccentricity     =  N/A
# w (rad)          =  N/A
# T_peri           =  N/A
######################################################
   0  1383.293
   1  1374.876
   2  1360.576
   3  1423.216
   4  1341.102
   5  1029.406
   6  1172.517
   7  1410.855
   8  1367.028
   9  1300.309
  10  1371.073
  11  1253.417
  12  1447.365
  13  1434.638
  14  1270.399
  15  1077.619
  16  1178.657
  17  1492.483
  18  1675.844
  19  1342.526
  20  1433.87
  21  1423.727
  22  1325.014
  23  1239.812
  24  1670.341
  25  1959.661
  26  1738.324
  27  1460.952
  28  1486.464
  29  1325.537
  30  1328.091
  31  1423.764
  32  1347.94
  33  1180.421
  34  1073.087
  35  1221.859
  36  1292.341
  37  1271.035
  38  1572.658
  39  1510.871
  40  1436.597
  41  1467.709
  42  1589.843
  43  1720.092
  44  1460.586
  45  1630.266
  46  1280.756
  47  1253.426
  48  1463.502
  49  1687.557
  50  1734.057
  51  1925.297
  52  1781.653
  53  1601.099
  54  1527.606
  55  1580.102
  56  1463.136
  57  1416.979
  58  1732.975
  59  1594.902
  60  1438.145
  61  1353.253
  62  1524.886
  63  1853.853
  64  1751.349
  65  1691.318
  66  1483.584
  67  1730.283
  68  1735.654
  69  1917.023
  70  1936.42
  71  1858.809
  72  1828.102
  73  1808.564
  74  1380.805
  75  1420.24
  76  1598.669
  77  1582.434
  78  1543.34
  79  1539.454
  80  1460.509
  81  1348.607
  82  1571.266
  83  1452.728
  84  1615.333
  85  1951.865
  86  1966.308
  87  1769.207
  88  1654.649
  89  1754.387
  90  1339.535
  91  1417.982
  92  1468.842
  93  1687.218
  94  1911.066
  95  1539.732
  96  1395.012
  97  1639.404
  98  1466.685
  99  1658.038
 100  1206.331
 101  1599.2
 102  1746.822
 103  1250.587
 104  1136.788
 105  1330.54
 106  1330.179
 107  1319.347
 108  1551.873
 109  1825.578
 110  1686.092
 111  1492.247
 112  1333.616
 113  1156.172
 114  1346.77
 115  1558.26
 116  1425.323
 117  1450.021
 118  1226.752
 119  1538.347
 120  1169.826
 121  1298.806
 122  1558.673
 123  1687.803
 124  1777.095
 125  1605.179
 126  1244.824
 127  1324.414
 128  1199.162
 129  1204.86
 130  1229.348
 131  1323.46
 132  1329.052
 133  1308.592
 134  1455.731
 135  1420.769
 136  1349.198
 137  1639.79
 138  1334.573
 139  1231.546
 140  1697.364
 141  1666.377
 142  1700.404
 143  1523.86
 144  1639.867
 145  1673.255
 146  1581.454
 147  1428.529
 148  1345.818
 149  1208.376
 150  1479.989
 151  1208.963
 152  1140.731
 153  1482.584
 154  1250.458
 155  1128.919
 156  1409.527
 157  1471.433
 158  1597.875
 159  1401.201
 160  1261.572
 161  1512.878
 162  1581.331
 163  1271.51
 164  1678.145
 165  1489.238
 166  1092.19
 167  1021.892
 168  1331.5
 169  1508.913
 170  1377.27
 171  1394.335
 172  1289.081
 173  1291.24
 174  1281.211
 175  1316.792
 176  1330.119
 177  1593.489
 178  1499.13
 179  1355.488
 180  1159.114
 181  910.729
 182  954.855
 183  1237.883
 184  1188.227
 185  1373.812
 186  1406.487
 187  1466.715
 188  1350.345
 189  1321.198
 190  1249.659
 191  1443.597
 192  1437.548
 193  1378.913
 194  1347.955
 195  1349.902
 196  1453.292
 197  1538.094
 198  1389.163
 199  1290.177
 200  1279.386
 201  1682.337
 202  1429.683
 203  1586.706
 204  1814.01
 205  1575.604
 206  1403.552
 207  1470.764
 208  1448.887
 209  1816.821
 210  1713.64
 211  1614.022
 212  1044.602
 213  1071.887
 214  1122.036
 215  1208.93
 216  1256.727
 217  1328.745
 218  1304.293
 219  1367.769
 220  1320.096
 221  1432.599
 222  1192.64
 223  1208.837
 224  1034.878
 225  833.3569
 226  1014.186
 227  1365.738
 228  1485.38
 229  1518.967
 230  1540.026
 231  1375.936
 232  1623.014
 233  1618.658
 234  1418.224
 235  1539.211
 236  1424.342
 237  1408.03
 238  1446.755
 239  1824.984
 240  1884.33
 241  1783.774
 242  1761.255
 243  1718.191
 244  1361.515
 245  1200.873
 246  1262.563
 247  1269.505
 248  1504.418
 249  1605.46
 250  1474.427
 251  1480.779
 252  1050.712
 253  1136.26
 254  1496.995
 255  1646.307
 256  1341.736
 257  1350.853
 258  1412.955
 259  1421.013
 260  1389.729
 261  1407.354
 262  1315.609
 263  1546.999
 264  1450.422
 265  1642.299
 266  1643.016
 267  1425.702
 268  1397.052
 269  1362.347
 270  1638.078
 271  1730.221
 272  1813.596
 273  1834.909
 274  1732.819
 275  1781.353
 276  1447.411
 277  1301.548
 278  1818.467
 279  1781.023
 280  1676.771
 281  1609.601
 282  1817.627
 283  1918.257
 284  1613.683
 285  1407.067
 286  1683.903
 287  1457.798
 288  1620.012
 289  1802.388
 290  1719.214
 291  1716.825
 292  2009.793
 293  1890.283
 294  1720.152
 295  1629.428
 296  1570.413
 297  1542.14
 298  1659.519
 299  1879.719
 300  1805.063
 301  1543.609
 302  1540.737
 303  1513.788
 304  1170.594
 305  1333.3
 306  1849.32
 307  1759.338
 308  1414.873
 309  1497.735
 310  1442.018
 311  1675.301
 312  1786.84
 313  1709.795
 314  1533.042
 315  1306.33
 316  1353.76
 317  1422.432
 318  1505.503
 319  1587.132
 320  1722.052
 321  1674.752
 322  1618.688
 323  1374
 324  1631.745
 325  1757.211
 326  2081.646
 327  1833.22
 328  2070.677
 329  1904.754
 330  1804.355
 331  1764.528
 332  1716.532
 333  1836.725
 334  1695.278
 335  1713.02
 336  1869.608
 337  1756.436
 338  1872.139
 339  1483.861
 340  1483.526
 341  1788.718
 342  1676.217
 343  1775.316
 344  1672.863
 345  1810.1
 346  1903.07
 347  1776.306
 348  1867.36
 349  1632.335
 350  1771.76
 351  1995.561
 352  2024.424
 353  2178.615
 354  2267.638
 355  2039.896
 356  1915.951
 357  1443.825
 358  1399.983
 359  1770.125
 360  1681.895
 361  1958.942
 362  1759.77
 363  1325.506
 364  1662.58
 365  2136.975
 366  2026.594
 367  1981.189
 368  1996.339
 369  1935.118
 370  2636.977
 371  2844.327
 372  3039.692
 373  3016.76
 374  2624.51
 375  2035.636
 376  1850.91
 377  1717.931
 378  1999.72
 379  1859.657
 380  1379.23
 381  1180.537
 382  1106.439
 383  1539.175
 384  1897.519
 385  2140.403
 386  1999.759
 387  1924.019
 388  1920.339
 389  1806.336
 390  1626.805
 391  1665.501
 392  1856.543
 393  1828.419
 394  1676.351
 395  1485.98
 396  1660.867
 397  1528.376
 398  1440.842
 399  1537.833
 400  1755.363
 401  1639.43
 402  1852.598
 403  1757.81
 404  1139.098
 405  1407.947
 406  1353.33
 407  1282.235
 408  1315.693
 409  1351.474
 410  1418.508
 411  1438.734
 412  1505.592
 413  1725.613
 414  1351.147
 415  1599.969
 416  1445.858
 417  1378.877
 418  1023.179
 419  1326.715
 420  1410.398
 421  1405.73
 422  1426.869
 423  1612.292
 424  1762.283
 425  1280.725
 426  1107.846
 427  1467.166
 428  1548.366
 429  1426.897
 430  1207.096
 431  994.9977
 432  1471.456
 433  1636.956
 434  1711.422
 435  1643.878
 436  1486.972
 437  1181.791
 438  1255.876
 439  1497.858
 440  1378.761
 441  1487.251
 442  1449.276
 443  1476.41
 444  1619.823
 445  1478.901
 446  1590.553
 447  1610.698
 448  1616.485
 449  1336.689
 450  1198.389
 451  1332.622
 452  1698.437
 453  1740.188
 454  1761.347
 455  1691.78
 456  1885.209
 457  1863.005
 458  1339.248
 459  1262.113
 460  1448.997
 461  1533.733
 462  1889.438
 463  1739.259
 464  1455.284
 465  1455.004
 466  1584.094
 467  1260.187
 468  1403.616
 469  1523.082
 470  1609.219
 471  1496.903
 472  1086.341
 473  1121.874
 474  1390.767
 475  1378.1
 476  1343.988
 477  1435.28
 478  1768.024
 479  1463.598
 480  1488.299
 481  1665.288
 482  1387.143
 483  1648.329
 484  1683.698
 485  1362.558
 486  1437.559
 487  1516.566
 488  1827.027
 489  1813.095
 490  1740.555
 491  1420.105
 492  1190.174
 493  1269.368
 494  1403.423
 495  1210.235
 496  1282.455
 497  1423.74
 498  1739.311
 499  1728.149
 500  1501.737
 501  1143.882
 502  1225.809
 503  1392.983
 504  1361.825
 505  1609.426
 506  1692.323
 507  1557.878
 508  1485.061
 509  1706.474
 510  1272.863
 511  939.4592
