# Input file       =  1194539265.099607_cleaned.dat
# Candidate        =  PSR_0332+5434
# Telescope        =  AR
# Epoch_topo       =  58069.686158560267
# Epoch_bary       =  N/A
# T_sample         =  0.002
# Data Folded      =  7143424
# Data Avg         =  0.0881844928399552
# Data StdDev      =  1.00073594185105 
# Profile Bins     =  512
# Profile Avg      =  1230.35004136527 
# Profile StdDev   =  118.205512891575 
# Reduced chi-sqr  =  1.050
# Prob(Noise)      <  0.21   (~0.8 sigma)
# P_topo (ms)      =  714.506864249264  +/- 0.000334
# P'_topo (s/s)    =  -0                +/- 1.81e-10
# P''_topo (s/s^2) =  0                 +/- 8.22e-14
# P_bary (ms)      =  N/A
# P'_bary (s/s)    =  N/A
# P''_bary (s/s^2) =  N/A
# P_orb (s)        =  N/A
# asin(i)/c (s)    =  N/A
# eccentricity     =  N/A
# w (rad)          =  N/A
# T_peri           =  N/A
######################################################
   0  1209.801
   1  1245.225
   2  1292.961
   3  1410.362
   4  1425.207
   5  1359.313
   6  1313.358
   7  1300.191
   8  1373.084
   9  1403.648
  10  1285.013
  11  1200.485
  12  1226.415
  13  1206.4
  14  1245.684
  15  1190.118
  16  1225.188
  17  1288.423
  18  1227.502
  19  1307.91
  20  1339.276
  21  1474.329
  22  1495.53
  23  1517.782
  24  1561.243
  25  1494.467
  26  1423.691
  27  1245.845
  28  1173.87
  29  1174.738
  30  1247.589
  31  1331.92
  32  1137.992
  33  1041.092
  34  1216.874
  35  1256.717
  36  1241.915
  37  1190.496
  38  1250.092
  39  1281.645
  40  1189.895
  41  1203.49
  42  1254.095
  43  1195.077
  44  1205.276
  45  1207.411
  46  1142.195
  47  1199.644
  48  1379.521
  49  1401.522
  50  1274.482
  51  1348.245
  52  1298.386
  53  1254.875
  54  1241.019
  55  1255.19
  56  1350.53
  57  1166.725
  58  1224.681
  59  1233.083
  60  1286.26
  61  1314.014
  62  1248.842
  63  1153.526
  64  1131.975
  65  1203.896
  66  1095.2
  67  1126.572
  68  1177.764
  69  1293.49
  70  1271.428
  71  1120.165
  72  1099.087
  73  1166.124
  74  1296.145
  75  1272.567
  76  1224.05
  77  1271.81
  78  1326.859
  79  1297.31
  80  1298.399
  81  1302.457
  82  1383.192
  83  1253.066
  84  1189.157
  85  1238.788
  86  1213.851
  87  1226.349
  88  1386.407
  89  1459.261
  90  1403.148
  91  1293.061
  92  1340.094
  93  1241.893
  94  1190.614
  95  1217.464
  96  1274.278
  97  1272.506
  98  1244.688
  99  1332.899
 100  1245.921
 101  1206.866
 102  1211.712
 103  1201.287
 104  1126.711
 105  1190.147
 106  1327.072
 107  1240.383
 108  1283.051
 109  1248.02
 110  1237.732
 111  1161.574
 112  1161.782
 113  1140.303
 114  1263.798
 115  1220.239
 116  1023.644
 117  1078.263
 118  1055.344
 119  1096.033
 120  1092.296
 121  1100.656
 122  1015.953
 123  945.5657
 124  1001.038
 125  1082.136
 126  1059.232
 127  1143.659
 128  1115.129
 129  1022.945
 130  1043.484
 131  1090.422
 132  1179.247
 133  1070.863
 134  1084.741
 135  1102.744
 136  1089.537
 137  1043.688
 138  1083.788
 139  1088.037
 140  1165.5
 141  1181.677
 142  1234.133
 143  1297.036
 144  1239.683
 145  1117.376
 146  1011.731
 147  1155.624
 148  1268.751
 149  1252.887
 150  1192.945
 151  1228.44
 152  1183.329
 153  1172.223
 154  1216.957
 155  1341.962
 156  1284.586
 157  1211.554
 158  1196.956
 159  1145.955
 160  1205.335
 161  1183.16
 162  1224.129
 163  1271.743
 164  1293.671
 165  1261.589
 166  1246.387
 167  1252.747
 168  1269.054
 169  1199.298
 170  1220.24
 171  1200.517
 172  1270.083
 173  1180.402
 174  1193.536
 175  1177.139
 176  1228.526
 177  1289.244
 178  1300.23
 179  1269.735
 180  1320.705
 181  1367.564
 182  1182.744
 183  1248.011
 184  1257.109
 185  1162.329
 186  1138.743
 187  1136.822
 188  1219.729
 189  1348.808
 190  1255.248
 191  1189.22
 192  1160.246
 193  1240.335
 194  1121.67
 195  1017.225
 196  1065.439
 197  1149.974
 198  1187.544
 199  1295.522
 200  1199.934
 201  1163.568
 202  1145.872
 203  1238.198
 204  1267.696
 205  1210.494
 206  1158.171
 207  1211.858
 208  1141.725
 209  1056.86
 210  1023.913
 211  1153.608
 212  1170.29
 213  1196.316
 214  1228.053
 215  1164.58
 216  1129.341
 217  1050.781
 218  1205.844
 219  1292.255
 220  1313.438
 221  1281.579
 222  1322.408
 223  1285.413
 224  1308.066
 225  1351.488
 226  1294.138
 227  1325.65
 228  1344.818
 229  1310.917
 230  1344.632
 231  1211.814
 232  1211.26
 233  1254.184
 234  1249.891
 235  1211.281
 236  1167.341
 237  1182.373
 238  1145.554
 239  1247.803
 240  1293.396
 241  1231.371
 242  1241.525
 243  1283.251
 244  1285.559
 245  1264.647
 246  1197.124
 247  1233.086
 248  1252.148
 249  1298.692
 250  1339.454
 251  1358.227
 252  1306.178
 253  1165.58
 254  1191.331
 255  1337.022
 256  1328.818
 257  1220.78
 258  1255.102
 259  1226.931
 260  1121.765
 261  1190.871
 262  1279.837
 263  1315.147
 264  1272.847
 265  1182.494
 266  1201.399
 267  1254.063
 268  1168.691
 269  1162.298
 270  1227.011
 271  1361.718
 272  1413.193
 273  1388.703
 274  1300.966
 275  1347.27
 276  1280.87
 277  1289.92
 278  1255.581
 279  1247.53
 280  1345.851
 281  1234.042
 282  1117.136
 283  1130.104
 284  1204.263
 285  1267.319
 286  1228.214
 287  1202.991
 288  1304.093
 289  1310.897
 290  1257.737
 291  1302.506
 292  1351.439
 293  1283.184
 294  1247.047
 295  1269.124
 296  1276.048
 297  1238.253
 298  1249.263
 299  1193.048
 300  1217.542
 301  1234.652
 302  1287.868
 303  1212.225
 304  1054.86
 305  1075.277
 306  1268.089
 307  1160.262
 308  1269.577
 309  1212.683
 310  1185.376
 311  1196.229
 312  1254.978
 313  1155.523
 314  1186.993
 315  1141.988
 316  1274.681
 317  1256.115
 318  1141.389
 319  1291.493
 320  1259.029
 321  1247.4
 322  1133.775
 323  1192.836
 324  1255.396
 325  1319.621
 326  1250.138
 327  1116.793
 328  1175.558
 329  1175.091
 330  1093.404
 331  1129.36
 332  1176.841
 333  1190.065
 334  1235.309
 335  1223.868
 336  1346.052
 337  1281.839
 338  1218.91
 339  1277.745
 340  1278.925
 341  1212.272
 342  1181.965
 343  1269.321
 344  1241.886
 345  1082.953
 346  1071.083
 347  1246.259
 348  1240.266
 349  1295.631
 350  1279.702
 351  1138.47
 352  1115.199
 353  1230.784
 354  1278.292
 355  1222.07
 356  1260.397
 357  1228.222
 358  1153.276
 359  1258.808
 360  1252.999
 361  1239.556
 362  1176.036
 363  1208.043
 364  1197.611
 365  1112.095
 366  1159.559
 367  1105.107
 368  1166.111
 369  1215.023
 370  1243.764
 371  1262.242
 372  1181.737
 373  1161.762
 374  1215.33
 375  1200.341
 376  1269.099
 377  1236.599
 378  1073.91
 379  1064.833
 380  1191.633
 381  1270.549
 382  1208.436
 383  1212.344
 384  1230.203
 385  1124.71
 386  1240.988
 387  1226.034
 388  1150.932
 389  1141.666
 390  1064.172
 391  1204.487
 392  1341.005
 393  1215.9
 394  1207.267
 395  1180.991
 396  1260.93
 397  1134.404
 398  1168.426
 399  1300.72
 400  1327.663
 401  1326.129
 402  1322.9
 403  1389.334
 404  1382.202
 405  1341.223
 406  1252.438
 407  1248.428
 408  1227.51
 409  1236.975
 410  1224.252
 411  1275.69
 412  1315.401
 413  1365.177
 414  1366.005
 415  1276.117
 416  1340.42
 417  1267.536
 418  1294.117
 419  1239.808
 420  1321.724
 421  1344.869
 422  1354.581
 423  1389.817
 424  1349.13
 425  1410.797
 426  1465.191
 427  1469.784
 428  1311.226
 429  1408.694
 430  1352.278
 431  1251.756
 432  1189.147
 433  1190.817
 434  1217.449
 435  1373.202
 436  1381.25
 437  1319.964
 438  1182.772
 439  1151.454
 440  1107.593
 441  1244.469
 442  1363.635
 443  1372.903
 444  1326.829
 445  1272.513
 446  1280.843
 447  1201.089
 448  1206.358
 449  1220.603
 450  1292.798
 451  1317.638
 452  1200.052
 453  1160.675
 454  1164.465
 455  1150.333
 456  1141.391
 457  1159.968
 458  1161.846
 459  1246.365
 460  1190.927
 461  1163.72
 462  1160.375
 463  1155.854
 464  1183.642
 465  1155.748
 466  1232.224
 467  1222.036
 468  1389.641
 469  1387.65
 470  1283.91
 471  1253.758
 472  1189.807
 473  1138.762
 474  1194.315
 475  1270.142
 476  1322.024
 477  1258.015
 478  1255.434
 479  1145.442
 480  1182.74
 481  1269.413
 482  1277.119
 483  1269.046
 484  1209.556
 485  1253.254
 486  1206.987
 487  1133.945
 488  1128.46
 489  1258.395
 490  1292.054
 491  1273.762
 492  1222.262
 493  1275.859
 494  1260.451
 495  1191.724
 496  1181.953
 497  1252.593
 498  1178.424
 499  1230.615
 500  1144.129
 501  1146.516
 502  1179.88
 503  1191.309
 504  1189.87
 505  1143.545
 506  1146.332
 507  1090.573
 508  1143.05
 509  1195.285
 510  1165.269
 511  1141.823
