# Input file       =  1194310941.104431_cleaned.dat
# Candidate        =  PSR_0332+5434
# Telescope        =  AR
# Epoch_topo       =  58067.043519727209
# Epoch_bary       =  N/A
# T_sample         =  0.002
# Data Folded      =  7340032
# Data Avg         =  0.0698188596028819
# Data StdDev      =  3.24212967512442 
# Profile Bins     =  512
# Profile Avg      =  1000.76498857353 
# Profile StdDev   =  388.190030329866 
# Reduced chi-sqr  =  0.703
# Prob(Noise)      <  1   (~0.0 sigma)
# P_topo (ms)      =  714.504615392871  +/- 0.000438
# P'_topo (s/s)    =  -0                +/- 2.31e-10
# P''_topo (s/s^2) =  0                 +/- 1.02e-13
# P_bary (ms)      =  N/A
# P'_bary (s/s)    =  N/A
# P''_bary (s/s^2) =  N/A
# P_orb (s)        =  N/A
# asin(i)/c (s)    =  N/A
# eccentricity     =  N/A
# w (rad)          =  N/A
# T_peri           =  N/A
######################################################
   0  916.8914
   1  578.2656
   2  397.4909
   3  437.1346
   4  560.0943
   5  795.574
   6  1130.024
   7  1153.326
   8  964.6326
   9  738.019
  10  747.0826
  11  630.7307
  12  681.2393
  13  690.572
  14  951.3963
  15  1118.7
  16  1126.85
  17  1108.842
  18  1155.734
  19  1217.858
  20  973.2495
  21  925.9805
  22  1023.957
  23  799.9319
  24  677.0191
  25  890.7141
  26  971.8757
  27  774.2421
  28  823.4355
  29  654.6475
  30  445.4197
  31  754.4402
  32  912.8998
  33  978.9738
  34  940.9693
  35  919.9183
  36  948.9034
  37  990.0696
  38  1130.222
  39  1019.479
  40  1146.309
  41  1104.087
  42  904.6043
  43  838.2791
  44  911.3172
  45  981.3315
  46  980.5952
  47  774.8932
  48  984.4758
  49  1163.742
  50  1017.082
  51  806.6544
  52  725.7667
  53  950.4231
  54  839.8912
  55  1024.169
  56  864.3274
  57  890.3022
  58  813.749
  59  1143.398
  60  828.0135
  61  630.6122
  62  927.6367
  63  1193.918
  64  1363.117
  65  1271.545
  66  1664.248
  67  2340.889
  68  2253.195
  69  1870.062
  70  1633.565
  71  1618.966
  72  1262.709
  73  858.7084
  74  725.9162
  75  930.2681
  76  1052.256
  77  1036.844
  78  950.2789
  79  653.1644
  80  823.7576
  81  703.7394
  82  1045.642
  83  1359.793
  84  954.9055
  85  732.8488
  86  643.8857
  87  849.023
  88  707.4641
  89  645.9794
  90  980.1288
  91  979.1664
  92  1119.7
  93  708.7283
  94  1000.499
  95  975.6605
  96  786.3943
  97  860.4189
  98  592.8895
  99  898.8854
 100  1027.706
 101  916.6315
 102  1005.349
 103  1277.5
 104  1349.193
 105  1310.598
 106  983.04
 107  971.0901
 108  782.4766
 109  902.3888
 110  1063.523
 111  991.8152
 112  978.5519
 113  1039.848
 114  1332.553
 115  1147.144
 116  877.7367
 117  1063.255
 118  1428.375
 119  1278.099
 120  1198.901
 121  852.5994
 122  938.6423
 123  651.6624
 124  907.0309
 125  1054.079
 126  1383.854
 127  1547.759
 128  1232.513
 129  983.3002
 130  508.1006
 131  693.9418
 132  843.3873
 133  780.6057
 134  539.2288
 135  879.819
 136  1254.67
 137  1013.907
 138  973.5552
 139  1184.486
 140  930.5197
 141  594.266
 142  965.465
 143  1143.447
 144  1185.012
 145  702.7734
 146  776.0156
 147  751.6614
 148  737.2507
 149  1190.288
 150  1219.353
 151  1218.459
 152  1107.569
 153  1035.856
 154  846.6627
 155  879.3093
 156  871.4332
 157  497.7667
 158  302.2782
 159  786.9911
 160  754.8574
 161  963.8033
 162  806.1115
 163  648.8161
 164  940.5768
 165  1229.828
 166  1026.21
 167  1191.653
 168  1243.862
 169  1187.003
 170  1325.512
 171  913.7511
 172  616.3552
 173  817.4516
 174  1058.734
 175  1200.809
 176  1008.187
 177  1185.377
 178  1210.989
 179  1168.284
 180  1075.789
 181  853.9404
 182  1007.399
 183  959.1235
 184  1083.451
 185  1423.502
 186  1371.726
 187  1173.525
 188  1171.289
 189  1436.493
 190  1475.753
 191  972.0071
 192  1109.869
 193  1391.099
 194  1412.625
 195  1225.819
 196  1087.063
 197  1266.233
 198  1078.609
 199  729.2088
 200  1001.184
 201  636.8596
 202  561.5927
 203  1300.125
 204  1718.206
 205  1210.145
 206  1130.093
 207  1433.694
 208  1336.885
 209  1021.392
 210  822.1367
 211  997.4396
 212  1247.392
 213  1165.789
 214  1011.284
 215  836.6226
 216  971.0867
 217  1220.436
 218  1207.558
 219  1031.591
 220  818.6986
 221  1132.841
 222  919.9808
 223  779.354
 224  842.4116
 225  924.7198
 226  1255.041
 227  853.3429
 228  1051.378
 229  1062.563
 230  1078.754
 231  859.3858
 232  1021.066
 233  1004.327
 234  893.3398
 235  1064.334
 236  1390.147
 237  1324.49
 238  660.1964
 239  1008.688
 240  1310.78
 241  1028.313
 242  815.254
 243  823.2202
 244  726.8374
 245  1128.617
 246  1160.697
 247  1086.801
 248  1232.553
 249  1007.838
 250  1054.294
 251  1321.319
 252  1144.963
 253  584.9819
 254  1008.463
 255  1043.16
 256  956.717
 257  771.3604
 258  1017.472
 259  946.3839
 260  979.7234
 261  1150.34
 262  1104.204
 263  743.4102
 264  1042.999
 265  1112.963
 266  1083.036
 267  828.2289
 268  947.0356
 269  992.4717
 270  1201.341
 271  760.6311
 272  777.8211
 273  1147.498
 274  1114.498
 275  1087.229
 276  1076.082
 277  968.4185
 278  1131.889
 279  1296.332
 280  1201.008
 281  1142.965
 282  1192.642
 283  1149.787
 284  1263.316
 285  1069.244
 286  1188.113
 287  1011.158
 288  1063.73
 289  1309.494
 290  1321.931
 291  1350.571
 292  1214.53
 293  1249.665
 294  1092.001
 295  1170.392
 296  926.7442
 297  742.7048
 298  688.939
 299  784.0493
 300  1253.819
 301  1339.336
 302  1041.703
 303  1375.494
 304  1347.804
 305  1149.21
 306  950.8431
 307  752.1832
 308  549.7991
 309  608.975
 310  767.3368
 311  896.1851
 312  1015.105
 313  864.2042
 314  1209.288
 315  1240.011
 316  1119.82
 317  1226.146
 318  1153.62
 319  862.9731
 320  1122.29
 321  1121.401
 322  853.1995
 323  1033.419
 324  1218.281
 325  846.1315
 326  726.9382
 327  848.9633
 328  1034.939
 329  1036.528
 330  864.7326
 331  1008.314
 332  1061.066
 333  997.9267
 334  1061.615
 335  1075.714
 336  847.1696
 337  739.2755
 338  1134.134
 339  1030.669
 340  1010.956
 341  1110.029
 342  1147.572
 343  1015.008
 344  756.2256
 345  702.5173
 346  948.7198
 347  864.5551
 348  850.4665
 349  689.1431
 350  805.3629
 351  997.7914
 352  913.7939
 353  1000.02
 354  869.9548
 355  1196.813
 356  1215.949
 357  910.6237
 358  913.5688
 359  1097.374
 360  1048.012
 361  1197.57
 362  1256.614
 363  1189.14
 364  1155.915
 365  927.3085
 366  1001.496
 367  929.6354
 368  979.3618
 369  804.6226
 370  912.1652
 371  1083.284
 372  922.6978
 373  876.6406
 374  1395.382
 375  1301.284
 376  1124.83
 377  1015.631
 378  1144.141
 379  1262.849
 380  1046.787
 381  1013.683
 382  996.9366
 383  863.4508
 384  974.0701
 385  706.1194
 386  588.089
 387  560.3763
 388  745.0192
 389  739.5645
 390  618.0522
 391  498.2804
 392  688.7511
 393  1132.153
 394  1287.072
 395  1162.958
 396  1102.219
 397  1262.152
 398  1489.289
 399  1400.577
 400  999.5876
 401  486.0378
 402  827.3008
 403  1114.485
 404  1337.451
 405  1282.979
 406  947.2435
 407  809.225
 408  945.4232
 409  969.7448
 410  605.1626
 411  497.4206
 412  927.8843
 413  1113.44
 414  1054.716
 415  1002.878
 416  809.6082
 417  938.2576
 418  859.9742
 419  710.3265
 420  771.8893
 421  812.1924
 422  902.0505
 423  978.7795
 424  916.4289
 425  723.97
 426  1084.407
 427  1244.967
 428  742.963
 429  871.6599
 430  1154.61
 431  1131.16
 432  788.0475
 433  924.4088
 434  929.1554
 435  598.7139
 436  958.5155
 437  1041.254
 438  1178.776
 439  1074.573
 440  988.336
 441  817.8453
 442  1025.961
 443  1005.263
 444  820.0626
 445  985.517
 446  996.0389
 447  1171.15
 448  1052.572
 449  568.0555
 450  829.523
 451  688.4861
 452  653.7914
 453  875.9666
 454  1222.903
 455  1047.901
 456  1010.628
 457  1136.029
 458  1107.546
 459  974.6356
 460  668.8997
 461  1139.696
 462  1163.437
 463  1219.441
 464  892.4387
 465  968.7891
 466  924.9028
 467  1072.776
 468  1202.46
 469  1365.839
 470  990.7996
 471  1043.547
 472  1080.03
 473  1237.469
 474  885.5175
 475  1140.595
 476  1166.244
 477  904.8551
 478  949.809
 479  926.5765
 480  1289.62
 481  1517.864
 482  1150.26
 483  1007.839
 484  898.6385
 485  642.2111
 486  674.277
 487  964.325
 488  908.243
 489  906.153
 490  944.8184
 491  881.7125
 492  547.4363
 493  904.0465
 494  1003.814
 495  921.9609
 496  1188.658
 497  1342.648
 498  1126.498
 499  1036.41
 500  1223.497
 501  960.6552
 502  944.7175
 503  828.8217
 504  1035.634
 505  1349.262
 506  1086.139
 507  1200.582
 508  965.1836
 509  1018.888
 510  929.454
 511  886.8708
