# Input file       =  1194453136.114215_cleaned.dat
# Candidate        =  PSR_0332+5434
# Telescope        =  AR
# Epoch_topo       =  58068.689295303411
# Epoch_bary       =  N/A
# T_sample         =  0.002
# Data Folded      =  7143424
# Data Avg         =  0.122373179446077
# Data StdDev      =  3.8285026324129  
# Profile Bins     =  1024
# Profile Avg      =  853.720404495931 
# Profile StdDev   =  319.765927620493 
# Reduced chi-sqr  =  0.685
# Prob(Noise)      <  1   (~0.0 sigma)
# P_topo (ms)      =  714.505874159451  +/- 9.15e-05
# P'_topo (s/s)    =  -0                +/- 4.96e-11
# P''_topo (s/s^2) =  0                 +/- 2.25e-14
# P_bary (ms)      =  N/A
# P'_bary (s/s)    =  N/A
# P''_bary (s/s^2) =  N/A
# P_orb (s)        =  N/A
# asin(i)/c (s)    =  N/A
# eccentricity     =  N/A
# w (rad)          =  N/A
# T_peri           =  N/A
######################################################
   0  682.4146
   1  673.1674
   2  616.9776
   3  572.7641
   4  656.059
   5  721.192
   6  825.1726
   7  824.2653
   8  1006.742
   9  911.9703
  10  786.1355
  11  819.5444
  12  911.5452
  13  916.4825
  14  797.7007
  15  950.6312
  16  996.3519
  17  741.634
  18  531.5041
  19  614.0231
  20  848.0095
  21  884.7598
  22  841.521
  23  897.384
  24  816.6595
  25  842.0086
  26  899.3525
  27  978.6329
  28  798.6132
  29  729.1642
  30  905.2192
  31  921.1728
  32  768.1643
  33  682.3395
  34  714.5803
  35  635.2842
  36  609.3189
  37  647.0634
  38  769.3488
  39  660.0109
  40  730.347
  41  846.3788
  42  865.9973
  43  793.2601
  44  722.7231
  45  960.8445
  46  996.5527
  47  936.3497
  48  926.5786
  49  828.9828
  50  678.1047
  51  606.5693
  52  712.3729
  53  688.8193
  54  676.8875
  55  728.1959
  56  963.3271
  57  841.9739
  58  834.2549
  59  864.4891
  60  1065.645
  61  976.0734
  62  853.3942
  63  838.5644
  64  840.0203
  65  718.8648
  66  780.4686
  67  783.4878
  68  779.2193
  69  670.903
  70  756.4687
  71  883.7927
  72  958.4235
  73  1063.804
  74  1015.645
  75  951.051
  76  788.0872
  77  795.2281
  78  833.6243
  79  826.0616
  80  721.6835
  81  833.3349
  82  927.1697
  83  1012.416
  84  935.7573
  85  931.538
  86  831.3543
  87  743.3898
  88  834.9712
  89  974.3882
  90  957.7839
  91  857.259
  92  812.6765
  93  801.0628
  94  689.2573
  95  719.8937
  96  860.6119
  97  937.7386
  98  769.4629
  99  651.3191
 100  651.1743
 101  692.1805
 102  767.3189
 103  780.3441
 104  925.1543
 105  1083.501
 106  1119.281
 107  1017.893
 108  920.5589
 109  835.5077
 110  956.9005
 111  805.2804
 112  782.4059
 113  719.9144
 114  694.8666
 115  749.6742
 116  720.8445
 117  768.0477
 118  723.1452
 119  812.7698
 120  985.7723
 121  1026.789
 122  931.9623
 123  840.2411
 124  877.2881
 125  864.1584
 126  846.5698
 127  881.7253
 128  809.6782
 129  894.8936
 130  855.7109
 131  873.7329
 132  746.9544
 133  750.2614
 134  901.6435
 135  1043.739
 136  944.8082
 137  788.8025
 138  783.9434
 139  845.5726
 140  891.1929
 141  824.4901
 142  952.8296
 143  969.5919
 144  881.0076
 145  810.1415
 146  789.7
 147  744.2296
 148  697.3674
 149  753.2226
 150  705.8167
 151  634.4096
 152  568.7607
 153  679.0161
 154  564.8317
 155  663.1337
 156  848.7948
 157  997.7004
 158  823.028
 159  784.807
 160  929.4348
 161  1006.527
 162  824.1724
 163  794.3225
 164  836.6604
 165  761.9516
 166  691.6403
 167  639.7842
 168  679.0873
 169  607.669
 170  654.6485
 171  846.8799
 172  1002.552
 173  879.9841
 174  812.598
 175  804.7674
 176  825.717
 177  799.809
 178  949.2347
 179  893.6601
 180  901.2979
 181  843.4349
 182  970.449
 183  930.4343
 184  774.8556
 185  825.6251
 186  894.3452
 187  975.0353
 188  888.7672
 189  867.4526
 190  872.2678
 191  864.7078
 192  882.5624
 193  972.3932
 194  992.0426
 195  944.8363
 196  951.5605
 197  952.3858
 198  898.42
 199  835.0966
 200  828.1672
 201  818.9144
 202  644.7424
 203  492.1516
 204  607.8849
 205  826.6309
 206  1015.754
 207  1050.504
 208  1064.375
 209  1013.225
 210  954.2452
 211  949.0253
 212  989.1593
 213  853.9816
 214  886.3538
 215  772.7701
 216  937.1409
 217  834.4792
 218  887.5285
 219  807.6769
 220  812.8016
 221  780.8544
 222  703.2711
 223  760.0373
 224  707.1633
 225  714.7285
 226  812.4922
 227  904.7058
 228  920.6472
 229  997.5928
 230  1220.657
 231  1243.556
 232  1047.897
 233  869.5961
 234  878.1179
 235  854.4792
 236  716.6354
 237  678.6604
 238  703.4778
 239  741.0128
 240  844.5028
 241  847.3435
 242  764.8057
 243  648.475
 244  703.1322
 245  854.8422
 246  966.1082
 247  1015.57
 248  1067.696
 249  983.461
 250  954.9272
 251  771.4089
 252  702.9374
 253  694.5285
 254  657.212
 255  678.0228
 256  556.3049
 257  685.7142
 258  781.9637
 259  822.0198
 260  854.3062
 261  809.9485
 262  809.1108
 263  720.0734
 264  722.5215
 265  808.0217
 266  1008.188
 267  1024.728
 268  1140.198
 269  1153.736
 270  1165.887
 271  951.4161
 272  824.4669
 273  779.3152
 274  720.3271
 275  687.0844
 276  706.636
 277  719.1129
 278  787.0561
 279  799.9486
 280  860.4247
 281  819.2957
 282  860.5266
 283  995.7883
 284  940.4254
 285  842.2366
 286  811.384
 287  846.6898
 288  870.4453
 289  829.7489
 290  957.0142
 291  1046.834
 292  1017.546
 293  984.2582
 294  855.8439
 295  704.0388
 296  639.6048
 297  758.0726
 298  904.9864
 299  954.8463
 300  922.3527
 301  948.1697
 302  901.7846
 303  820.0607
 304  792.9901
 305  799.5507
 306  727.0043
 307  712.1006
 308  688.4611
 309  778.9742
 310  678.3305
 311  789.966
 312  739.1872
 313  756.2846
 314  653.1508
 315  663.1476
 316  704.8984
 317  713.9764
 318  803.074
 319  914.2673
 320  1075.816
 321  993.1627
 322  1010.137
 323  951.8074
 324  808.8008
 325  796.827
 326  996.1852
 327  1128.739
 328  1007.037
 329  789.7345
 330  827.9691
 331  841.7347
 332  824.0613
 333  794.6
 334  787.0332
 335  834.8714
 336  901.8221
 337  905.7915
 338  934.5934
 339  824.6202
 340  847.4714
 341  898.054
 342  987.3898
 343  995.5709
 344  969.1567
 345  975.5421
 346  812.5856
 347  691.4744
 348  545.3245
 349  672.2006
 350  733.893
 351  840.933
 352  930.0897
 353  1045.81
 354  1034.016
 355  946.3772
 356  981.9908
 357  1137.864
 358  1157.34
 359  1004.196
 360  933.5844
 361  894.7426
 362  858.6909
 363  849.3152
 364  886.8563
 365  798.1016
 366  672.9943
 367  670.9648
 368  755.3109
 369  668.3774
 370  632.9094
 371  706.9448
 372  862.4895
 373  939.6723
 374  976.0198
 375  908.5381
 376  849.0643
 377  828.0365
 378  898.9641
 379  969.6048
 380  842.1651
 381  796.6959
 382  698.3045
 383  740.6043
 384  661.5685
 385  720.4214
 386  805.9175
 387  847.8313
 388  749.8769
 389  615.2478
 390  801.9248
 391  921.9062
 392  1054.637
 393  943.1498
 394  894.667
 395  826.996
 396  941.5045
 397  1083.9
 398  1177.009
 399  1053.263
 400  911.7614
 401  1008.138
 402  994.9711
 403  890.5013
 404  696.9215
 405  740.3957
 406  868.8746
 407  996.9686
 408  1045.252
 409  826.9889
 410  834.966
 411  853.0085
 412  1060.321
 413  1020.211
 414  965.1365
 415  980.8332
 416  870.1116
 417  875.1588
 418  772.3924
 419  745.6949
 420  794.6506
 421  787.0842
 422  836.278
 423  829.8143
 424  868.9008
 425  782.1453
 426  862.4547
 427  935.4213
 428  1012.599
 429  933.7861
 430  839.0339
 431  807.2127
 432  615.2556
 433  639.5076
 434  785.1841
 435  1059.292
 436  1107.165
 437  1045.342
 438  1076.105
 439  1002.321
 440  1088.86
 441  1091.775
 442  1290.29
 443  1151.562
 444  1027.369
 445  968.9393
 446  974.7874
 447  871.6226
 448  723.4141
 449  766.7065
 450  845.6736
 451  970.9178
 452  1051.3
 453  977.6741
 454  738.6082
 455  604.7748
 456  720.9135
 457  831.4122
 458  828.9698
 459  905.3992
 460  906.2479
 461  882.3112
 462  750.8773
 463  801.317
 464  771.8215
 465  726.6299
 466  756.0502
 467  870.5294
 468  774.7089
 469  612.9219
 470  662.5841
 471  850.7919
 472  875.2874
 473  721.8809
 474  627.1874
 475  674.3414
 476  779.7522
 477  864.8555
 478  863.3218
 479  818.8737
 480  808.0334
 481  806.5104
 482  858.3748
 483  949.6096
 484  1067.764
 485  1070.536
 486  891.0335
 487  826.9116
 488  770.2338
 489  858.5538
 490  1010.885
 491  1038.403
 492  916.1971
 493  811.967
 494  973.7814
 495  1033.297
 496  1039.93
 497  867.8306
 498  957.2721
 499  801.7189
 500  786.5114
 501  788.0521
 502  936.9916
 503  901.5878
 504  780.1769
 505  907.5031
 506  967.5918
 507  1055.484
 508  1008.237
 509  1022.396
 510  947.9016
 511  814.6811
 512  812.1578
 513  824.9485
 514  657.9634
 515  569.3328
 516  748.7738
 517  964.2469
 518  825.7622
 519  820.131
 520  863.6617
 521  915.7134
 522  711.86
 523  770.4767
 524  794.7091
 525  817.4935
 526  981.751
 527  1095.412
 528  1031.148
 529  764.8525
 530  735.1376
 531  936.0152
 532  1036.714
 533  882.8952
 534  740.0878
 535  751.3052
 536  805.2367
 537  831.0114
 538  819.8733
 539  808.8366
 540  831.9979
 541  924.1227
 542  1028.214
 543  930.1406
 544  815.7994
 545  754.5959
 546  762.7797
 547  619.3514
 548  612.1118
 549  719.0378
 550  857.3058
 551  747.4179
 552  660.8563
 553  718.203
 554  753.088
 555  719.293
 556  697.1166
 557  753.6477
 558  785.72
 559  897.4027
 560  910.1981
 561  885.299
 562  758.7227
 563  845.8626
 564  811.3414
 565  681.924
 566  715.48
 567  968.7263
 568  1181.69
 569  1153.58
 570  1061.36
 571  990.1005
 572  973.1971
 573  975.5972
 574  921.6089
 575  1013.607
 576  913.8718
 577  835.993
 578  851.9268
 579  978.257
 580  986.7349
 581  785.198
 582  711.9421
 583  731.7458
 584  825.9404
 585  830.1197
 586  1005.788
 587  994.293
 588  1030.325
 589  1015.566
 590  1126.187
 591  1055.699
 592  988.1264
 593  1006.237
 594  1068.759
 595  1034.434
 596  1055.698
 597  1043.513
 598  1090.143
 599  984.3421
 600  963.6537
 601  837.0166
 602  773.4952
 603  748.7156
 604  814.8118
 605  824.5135
 606  686.4637
 607  719.6606
 608  785.9234
 609  1013.808
 610  1063.367
 611  1095.966
 612  937.7935
 613  945.9112
 614  888.4081
 615  943.7363
 616  916.7391
 617  977.9218
 618  1032.683
 619  1094.786
 620  1071.801
 621  980.9333
 622  830.3984
 623  780.0459
 624  853.0118
 625  968.0439
 626  1097.954
 627  1141.428
 628  1264.082
 629  1409.613
 630  1500.325
 631  1685.299
 632  1905.591
 633  1924.682
 634  1713.288
 635  1518.375
 636  1275.597
 637  1116.022
 638  832.5492
 639  883.8606
 640  788.9343
 641  756.2091
 642  682.2453
 643  678.8076
 644  730.3887
 645  736.2815
 646  839.2421
 647  888.9758
 648  789.4695
 649  790.8097
 650  932.1833
 651  1068.392
 652  893.1407
 653  660.3804
 654  720.2668
 655  744.1179
 656  863.2457
 657  839.0126
 658  777.9129
 659  740.3123
 660  687.387
 661  878.5214
 662  874.7242
 663  862.9193
 664  852.3403
 665  944.3237
 666  830.2451
 667  797.2136
 668  808.6499
 669  973.2303
 670  965.3377
 671  913.9091
 672  973.4081
 673  933.6168
 674  771.4343
 675  677.3098
 676  673.9304
 677  627.3254
 678  670.2025
 679  800.8967
 680  840.1796
 681  793.6295
 682  792.5513
 683  985.7302
 684  861.4293
 685  884.911
 686  808.9783
 687  924.0521
 688  832.0066
 689  950.8322
 690  1049.474
 691  939.7999
 692  793.399
 693  775.3683
 694  899.0493
 695  824.769
 696  731.4786
 697  798.5852
 698  790.9331
 699  726.8671
 700  699.6117
 701  721.5584
 702  843.7032
 703  765.969
 704  765.428
 705  855.0227
 706  931.5195
 707  834.9564
 708  726.5222
 709  682.9649
 710  788.9876
 711  765.2177
 712  916.9627
 713  887.0533
 714  871.2333
 715  867.7885
 716  874.9973
 717  689.3807
 718  543.8116
 719  603.131
 720  826.2589
 721  837.0144
 722  735.4054
 723  774.0765
 724  833.0076
 725  839.6555
 726  785.9523
 727  759.238
 728  657.5532
 729  582.7873
 730  579.2228
 731  625.1059
 732  695.4424
 733  737.4265
 734  723.5108
 735  758.3259
 736  736.2753
 737  917.6622
 738  993.947
 739  1015.959
 740  878.1453
 741  829.0228
 742  916.315
 743  868.8182
 744  810.1863
 745  707.7489
 746  856.8989
 747  801.7273
 748  728.5994
 749  666.7839
 750  683.9095
 751  634.3624
 752  719.4362
 753  776.1169
 754  867.4221
 755  931.0109
 756  1000.672
 757  937.6513
 758  826.5983
 759  799.2661
 760  955.3922
 761  895.9555
 762  898.3689
 763  911.1161
 764  964.3045
 765  954.2907
 766  854.569
 767  900.7625
 768  891.5446
 769  956.8442
 770  856.6641
 771  734.6434
 772  675.0089
 773  745.2994
 774  830.6502
 775  826.4518
 776  740.337
 777  734.2297
 778  752.6943
 779  873.5472
 780  962.6785
 781  930.616
 782  791.3582
 783  811.5545
 784  914.4586
 785  1018.923
 786  857.1452
 787  834.3879
 788  624.6074
 789  640.6672
 790  611.3598
 791  791.4254
 792  796.8612
 793  840.1565
 794  914.0705
 795  922.6375
 796  901.6468
 797  903.2972
 798  1015.165
 799  1116.639
 800  1065.096
 801  875.7984
 802  850.838
 803  869.7545
 804  946.6738
 805  1043.303
 806  1021.958
 807  909.434
 808  683.9432
 809  642.1813
 810  579.4736
 811  514.8722
 812  768.887
 813  956.9461
 814  1052.238
 815  844.5866
 816  950.7383
 817  1004.252
 818  896.8129
 819  820.5062
 820  969.865
 821  1025.005
 822  948.0333
 823  866.8079
 824  836.7025
 825  616.4059
 826  551.1454
 827  665.646
 828  862.5462
 829  907.7967
 830  983.1227
 831  916.7714
 832  727.4883
 833  662.7699
 834  669.3314
 835  790.6362
 836  697.2258
 837  809.3701
 838  817.2301
 839  960.3122
 840  963.5307
 841  1106.609
 842  976.4215
 843  763.0689
 844  652.7644
 845  704.162
 846  780.2677
 847  853.6694
 848  806.4402
 849  799.3314
 850  723.7168
 851  673.3558
 852  826.2213
 853  833.4186
 854  961.6454
 855  928.6219
 856  934.2054
 857  839.8273
 858  802.2462
 859  781.7563
 860  783.4833
 861  760.4706
 862  706.6774
 863  740.3762
 864  703.4988
 865  723.137
 866  624.9683
 867  612.3919
 868  745.026
 869  923.5773
 870  978.159
 871  926.7701
 872  866.0984
 873  828.873
 874  751.4142
 875  792.0497
 876  862.1009
 877  899.7401
 878  803.9729
 879  776.8732
 880  819.1939
 881  737.5057
 882  767.8074
 883  692.9485
 884  795.8771
 885  794.9114
 886  885.2629
 887  1047.907
 888  967.6482
 889  829.1784
 890  881.5
 891  927.7538
 892  856.8021
 893  624.9743
 894  623.0629
 895  703.3979
 896  557.2676
 897  592.2239
 898  493.6554
 899  651.5026
 900  631.9938
 901  743.1926
 902  895.6353
 903  892.9363
 904  919.3472
 905  988.5431
 906  1144.317
 907  1038.687
 908  960.9678
 909  1047.411
 910  1101.581
 911  1012.765
 912  1009.936
 913  1069.392
 914  1000.365
 915  768.7947
 916  769.9563
 917  874.0977
 918  885.0024
 919  883.5236
 920  948.2715
 921  909.271
 922  873.2018
 923  941.3198
 924  1175.703
 925  1065.65
 926  695.8705
 927  631.4617
 928  838.2186
 929  1006.381
 930  1041.729
 931  972.0932
 932  1083.118
 933  983.6937
 934  939.8006
 935  970.2949
 936  880.0771
 937  717.3672
 938  645.4753
 939  752.9429
 940  857.1768
 941  855.7172
 942  863.2801
 943  1008.981
 944  901.3744
 945  936.6102
 946  866.9715
 947  1070.128
 948  793.0452
 949  758.6243
 950  685.0855
 951  756.7982
 952  715.2519
 953  701.5696
 954  836.3475
 955  754.5243
 956  759.7485
 957  840.0805
 958  886.8168
 959  929.043
 960  1030.613
 961  1136.484
 962  1139.763
 963  1013.443
 964  993.0312
 965  935.2183
 966  803.6229
 967  839.4459
 968  845.0507
 969  944.3067
 970  931.9692
 971  932.0209
 972  882.3846
 973  779.2259
 974  750.1943
 975  667.09
 976  695.4682
 977  639.8314
 978  802.309
 979  867.3864
 980  917.8324
 981  779.0271
 982  821.0759
 983  769.2684
 984  733.6918
 985  720.6898
 986  743.5089
 987  831.7064
 988  880.7723
 989  1018.442
 990  854.9969
 991  647.7004
 992  522.6158
 993  616.1476
 994  809.066
 995  903.3753
 996  994.6901
 997  907.2931
 998  796.1201
 999  735.4438
1000  865.5026
1001  840.7028
1002  917.9389
1003  948.3339
1004  990.9752
1005  903.2914
1006  800.9251
1007  829.3242
1008  898.4083
1009  851.2778
1010  794.4282
1011  584.0283
1012  637.4039
1013  774.0256
1014  1059.662
1015  1012.797
1016  804.3732
1017  744.2159
1018  888.9628
1019  898.6205
1020  893.2703
1021  887.5421
1022  899.7766
1023  766.5246
