# Input file       =  1194296026.116019_cleaned.dat
# Candidate        =  PSR_0332+5434
# Telescope        =  AR
# Epoch_topo       =  58066.870892546518
# Epoch_bary       =  N/A
# T_sample         =  0.002
# Data Folded      =  7340032
# Data Avg         =  0.106843722450971
# Data StdDev      =  3.50453635826801 
# Profile Bins     =  1024
# Profile Avg      =  765.07847234839  
# Profile StdDev   =  296.708213265956 
# Reduced chi-sqr  =  0.719
# Prob(Noise)      <  1   (~0.0 sigma)
# P_topo (ms)      =  714.504105960832  +/- 0.000542
# P'_topo (s/s)    =  -0                +/- 2.86e-10
# P''_topo (s/s^2) =  0                 +/- 1.26e-13
# P_bary (ms)      =  N/A
# P'_bary (s/s)    =  N/A
# P''_bary (s/s^2) =  N/A
# P_orb (s)        =  N/A
# asin(i)/c (s)    =  N/A
# eccentricity     =  N/A
# w (rad)          =  N/A
# T_peri           =  N/A
######################################################
   0  670.1733
   1  664.4893
   2  759.4636
   3  872.9709
   4  862.6251
   5  814.1962
   6  775.997
   7  700.504
   8  735.969
   9  671.0745
  10  678.728
  11  697.9399
  12  837.5374
  13  951.9308
  14  900.4916
  15  887.1291
  16  865.8819
  17  894.017
  18  793.0731
  19  746.8094
  20  736.8464
  21  836.7844
  22  897.3173
  23  835.799
  24  899.4106
  25  917.9369
  26  1001.347
  27  962.6157
  28  971.5281
  29  967.466
  30  891.712
  31  912.1635
  32  915.3948
  33  959.9217
  34  844.6967
  35  718.1455
  36  659.1199
  37  692.6937
  38  730.0437
  39  789.0767
  40  813.1469
  41  809.4744
  42  769.6107
  43  762.8169
  44  782.9936
  45  780.2206
  46  757.4431
  47  782.7953
  48  672.0871
  49  666.3723
  50  688.4259
  51  832.2053
  52  738.3759
  53  754.5571
  54  697.3496
  55  776.7277
  56  843.7996
  57  938.7441
  58  1014.672
  59  986.7823
  60  977.5469
  61  921.7933
  62  842.5704
  63  826.5048
  64  831.1885
  65  889.9879
  66  860.7376
  67  688.1177
  68  651.8765
  69  705.042
  70  712.9653
  71  704.8406
  72  764.1931
  73  810.2081
  74  882.7289
  75  950.5065
  76  961.0192
  77  821.2457
  78  711.2672
  79  655.0361
  80  741.8118
  81  837.9866
  82  800.9945
  83  751.3084
  84  715.9825
  85  884.4954
  86  771.6432
  87  626.2687
  88  576.3763
  89  722.3997
  90  885.7206
  91  904.2861
  92  838.2565
  93  702.409
  94  539.8296
  95  515.2454
  96  626.7968
  97  671.777
  98  658.0281
  99  663.6451
 100  667.4258
 101  654.8971
 102  666.5445
 103  717.2869
 104  839.1138
 105  890.2639
 106  936.6256
 107  904.0963
 108  777.7035
 109  762.4671
 110  729.6249
 111  724.4049
 112  602.9648
 113  560.7354
 114  596.2164
 115  648.5321
 116  704.5268
 117  777.7405
 118  775.3434
 119  717.6104
 120  709.5916
 121  794.3378
 122  652.4789
 123  606.2015
 124  624.999
 125  771.5262
 126  765.6844
 127  615.1477
 128  548.053
 129  598.7952
 130  708.5017
 131  789.3397
 132  769.4208
 133  827.2954
 134  865.5792
 135  915.2451
 136  859.0269
 137  838.8248
 138  761.6418
 139  635.2192
 140  603.2178
 141  644.6487
 142  685.0676
 143  628.0003
 144  566.0941
 145  561.1315
 146  647.8206
 147  629.7627
 148  599.0701
 149  617.3738
 150  710.6629
 151  692.3153
 152  632.2383
 153  641.0148
 154  670.8494
 155  697.6182
 156  758.6149
 157  734.2231
 158  683.3269
 159  617.035
 160  739.5045
 161  830.366
 162  807.4661
 163  719.191
 164  611.7609
 165  566.3323
 166  666.5132
 167  814.9128
 168  885.8445
 169  828.4399
 170  838.325
 171  874.7844
 172  825.2344
 173  756.9713
 174  767.2849
 175  830.4922
 176  810.0358
 177  837.0392
 178  836.6415
 179  843.8671
 180  732.2565
 181  680.7474
 182  749.34
 183  723.185
 184  617.5353
 185  565.7269
 186  646.1523
 187  723.336
 188  757.7693
 189  651.3112
 190  548.8403
 191  516.9288
 192  630.5892
 193  745.5059
 194  738.4189
 195  639.3176
 196  604.6631
 197  539.2146
 198  592.0656
 199  667.3701
 200  747.1808
 201  767.7126
 202  704.7755
 203  823.8544
 204  773.1655
 205  752.1307
 206  646.1286
 207  652.303
 208  609.2534
 209  705.7166
 210  813.8339
 211  852.3271
 212  723.1266
 213  603.2213
 214  672.0154
 215  808.835
 216  870.7123
 217  795.4818
 218  685.8831
 219  577.2735
 220  510.3678
 221  488.9193
 222  537.0152
 223  648.094
 224  690.2938
 225  775.8435
 226  730.6427
 227  690.9316
 228  685.3264
 229  721.975
 230  671.0766
 231  652.6107
 232  636.6994
 233  646.3877
 234  645.4706
 235  627.6956
 236  652.599
 237  650.2582
 238  666.7077
 239  636.4904
 240  697.8267
 241  777.1147
 242  817.1683
 243  744.886
 244  750.3671
 245  688.4296
 246  664.2952
 247  592.5419
 248  563.6144
 249  474.8988
 250  433.6889
 251  480.6665
 252  478.0513
 253  600.4955
 254  640.7592
 255  609.1683
 256  577.5659
 257  653.539
 258  724.2415
 259  713.9178
 260  690.5576
 261  708.9341
 262  758.4062
 263  727.039
 264  621.4506
 265  706.5853
 266  613.3152
 267  624.8798
 268  627.5383
 269  729.1945
 270  715.5627
 271  713.64
 272  723.5653
 273  696.84
 274  681.7735
 275  678.3539
 276  669.1536
 277  675.7838
 278  674.4537
 279  747.4269
 280  708.1644
 281  791.8459
 282  745.3827
 283  693.5121
 284  693.9972
 285  653.6244
 286  634.1342
 287  599.4092
 288  685.033
 289  817.467
 290  867.3058
 291  747.6882
 292  676.1727
 293  722.4947
 294  871.7242
 295  909.8026
 296  902.2286
 297  854.4167
 298  714.5022
 299  688.4082
 300  718.2351
 301  774.2137
 302  692.7665
 303  648.6754
 304  806.8458
 305  889.0092
 306  928.3572
 307  842.6492
 308  872.126
 309  878.4172
 310  729.5449
 311  562.8149
 312  472.9264
 313  528.8895
 314  546.8521
 315  545.9468
 316  577.7572
 317  570.9456
 318  640.6655
 319  609.2102
 320  647.9007
 321  634.0851
 322  694.3057
 323  646.1256
 324  657.1768
 325  666.6332
 326  702.6301
 327  649.7322
 328  670.4656
 329  692.1064
 330  738.9929
 331  629.3382
 332  558.941
 333  571.4709
 334  642.1637
 335  577.3712
 336  449.9001
 337  405.1932
 338  429.9706
 339  474.1028
 340  542.9736
 341  639.7422
 342  730.0784
 343  741.6808
 344  744.6398
 345  754.2646
 346  766.2012
 347  817.0444
 348  721.5365
 349  669.1225
 350  708.6093
 351  805.6402
 352  817.7207
 353  831.9387
 354  786.741
 355  723.1531
 356  694.0112
 357  763.3647
 358  775.7
 359  695.3995
 360  729.4109
 361  722.2545
 362  684.0375
 363  669.165
 364  781.2668
 365  917.136
 366  910.7424
 367  936.6085
 368  950.9525
 369  950.0684
 370  828.7141
 371  896.4388
 372  864.7747
 373  914.8813
 374  801.0745
 375  745.3882
 376  607.9606
 377  581.0024
 378  622.8199
 379  613.8392
 380  649.2104
 381  610.963
 382  659.3557
 383  696.6526
 384  811.8633
 385  834.3521
 386  767.3547
 387  731.4451
 388  744.6171
 389  797.0099
 390  679.6887
 391  573.0354
 392  475.5167
 393  515.5818
 394  623.2209
 395  702.5621
 396  802.3714
 397  827.8737
 398  815.5539
 399  690.6492
 400  646.2174
 401  636.4305
 402  714.8818
 403  698.075
 404  718.3226
 405  738.5542
 406  679.9225
 407  679.2481
 408  711.7708
 409  715.8817
 410  688.1429
 411  644.249
 412  675.4091
 413  765.9941
 414  785.5735
 415  759.7357
 416  685.7974
 417  783.6898
 418  864.0873
 419  912.4841
 420  722.1979
 421  704.2936
 422  724.6257
 423  728.7491
 424  666.5115
 425  619.2267
 426  745.9222
 427  783.2697
 428  860.4894
 429  889.7395
 430  839.7552
 431  900.746
 432  915.1865
 433  958.1235
 434  873.7907
 435  841.5397
 436  892.736
 437  921.2703
 438  857.9419
 439  764.1935
 440  676.6816
 441  640.8351
 442  662.8809
 443  867.728
 444  959.6037
 445  949.9753
 446  824.9752
 447  835.75
 448  839.3445
 449  800.6013
 450  810.9571
 451  880.9117
 452  940.4725
 453  928.5446
 454  991.0526
 455  870.8922
 456  733.3333
 457  654.7794
 458  757.5898
 459  855.9987
 460  825.8331
 461  739.5125
 462  715.2229
 463  752.5303
 464  875.0493
 465  900.5471
 466  898.7192
 467  839.7365
 468  878.7847
 469  851.3343
 470  866.5005
 471  955.3353
 472  1060.791
 473  1006.418
 474  879.2955
 475  849.5388
 476  868.0258
 477  816.0881
 478  813.0186
 479  777.3363
 480  791.1248
 481  733.9304
 482  810.4061
 483  805.3897
 484  855.8676
 485  879.653
 486  1004.96
 487  923.7344
 488  874.9929
 489  735.6614
 490  809.6531
 491  746.3558
 492  794.3759
 493  783.8589
 494  722.6266
 495  614.612
 496  553.0481
 497  628.4084
 498  712.2266
 499  881.4042
 500  974.7488
 501  940.6107
 502  811.595
 503  702.9454
 504  711.1163
 505  737.0493
 506  760.7883
 507  719.181
 508  721.7829
 509  802.8261
 510  875.2903
 511  889.5822
 512  898.9988
 513  870.2341
 514  837.5187
 515  788.8577
 516  742.3015
 517  662.9146
 518  639.3114
 519  668.4722
 520  687.9957
 521  691.6531
 522  732.3655
 523  736.7726
 524  769.1826
 525  766.8525
 526  823.2502
 527  860.0172
 528  862.4922
 529  856.1534
 530  818.3712
 531  837.8409
 532  776.7096
 533  690.9368
 534  683.1842
 535  810.4979
 536  824.3397
 537  871.679
 538  889.9697
 539  1076.726
 540  1004.194
 541  945.4905
 542  887.6155
 543  1046.656
 544  1026.111
 545  987.3395
 546  915.8121
 547  920.6191
 548  881.0356
 549  870.4899
 550  894.3643
 551  872.9876
 552  843.2889
 553  904.0858
 554  936.9937
 555  886.056
 556  802.2062
 557  827.6646
 558  888.3371
 559  927.5168
 560  943.6789
 561  907.1091
 562  846.5319
 563  889.8491
 564  986.499
 565  807.6319
 566  664.0588
 567  672.7209
 568  819.5635
 569  914.7151
 570  873.0865
 571  822.3236
 572  854.7328
 573  856.6282
 574  917.6756
 575  810.213
 576  864.3709
 577  875.197
 578  939.0011
 579  975.9115
 580  925.1689
 581  912.3914
 582  861.4874
 583  959.1618
 584  908.0676
 585  850.8335
 586  779.1411
 587  838.3547
 588  937.1839
 589  1010.805
 590  987.5186
 591  991.4202
 592  1033.81
 593  1065.238
 594  1116.299
 595  1130.484
 596  1134.79
 597  1023.663
 598  1013.465
 599  1033.056
 600  878.9335
 601  787.4432
 602  652.0668
 603  706.8158
 604  695.2425
 605  870.3605
 606  902.4921
 607  848.0228
 608  836.387
 609  946.8684
 610  1012.919
 611  887.1944
 612  866.926
 613  696.7066
 614  622.1221
 615  709.7345
 616  968.9904
 617  1102.529
 618  1033.087
 619  972.8401
 620  1054.113
 621  981.6849
 622  996.8326
 623  979.7758
 624  1017.245
 625  926.8018
 626  1012.397
 627  1252.643
 628  1393.189
 629  1399.99
 630  1448.771
 631  1518.851
 632  1521.126
 633  1479.525
 634  1538.78
 635  1414.719
 636  1192.455
 637  1018.175
 638  1015.29
 639  983.858
 640  861.9254
 641  821.6523
 642  900.2043
 643  959.5328
 644  1040.705
 645  951.6179
 646  901.7321
 647  688.6319
 648  686.3955
 649  592.9465
 650  583.6561
 651  520.3964
 652  590.3059
 653  740.1188
 654  805.7506
 655  920.3097
 656  983.0543
 657  1072.175
 658  1069.142
 659  987.4636
 660  1010.117
 661  954.9892
 662  968.8872
 663  951.4196
 664  969.2241
 665  914.536
 666  886.205
 667  846.4124
 668  778.1917
 669  810.1007
 670  858.8017
 671  903.9082
 672  954.6243
 673  902.2265
 674  924.4466
 675  862.235
 676  810.974
 677  748.2318
 678  737.9232
 679  833.8989
 680  830.7721
 681  801.4577
 682  721.4089
 683  697.9604
 684  745.0748
 685  768.4673
 686  769.3674
 687  850.6658
 688  907.1382
 689  840.4451
 690  797.9615
 691  873.7989
 692  981.618
 693  923.2352
 694  826.8657
 695  594.5907
 696  541.111
 697  684.8941
 698  730.777
 699  714.6649
 700  635.4526
 701  647.8253
 702  631.9995
 703  621.7263
 704  694.728
 705  652.3528
 706  701.6635
 707  694.2635
 708  722.1309
 709  710.9059
 710  728.7505
 711  731.2945
 712  778.6333
 713  875.9248
 714  848.1131
 715  671.736
 716  677.0296
 717  787.2585
 718  815.9731
 719  726.4045
 720  717.8625
 721  720.5107
 722  650.4756
 723  507.4646
 724  517.2959
 725  642.52
 726  686.3434
 727  694.7095
 728  719.9482
 729  748.7838
 730  651.9487
 731  679.402
 732  754.2546
 733  821.7563
 734  790.6151
 735  896.5066
 736  865.0104
 737  728.1509
 738  541.3603
 739  545.2017
 740  568.6642
 741  721.7501
 742  751.1193
 743  783.1906
 744  765.4091
 745  732.2924
 746  687.0289
 747  647.3151
 748  557.2137
 749  469.1014
 750  528.8605
 751  664.4827
 752  815.0723
 753  801.8623
 754  834.4575
 755  845.5546
 756  868.0699
 757  867.1589
 758  772.4549
 759  750.266
 760  735.534
 761  658.3978
 762  514.6476
 763  545.7338
 764  722.0615
 765  792.0712
 766  700.6572
 767  661.2017
 768  719.6501
 769  771.9589
 770  716.065
 771  733.4231
 772  715.3705
 773  696.6743
 774  782.7939
 775  782.0652
 776  836.3881
 777  722.1465
 778  755.3957
 779  806.6669
 780  785.3459
 781  797.431
 782  813.7064
 783  818.1739
 784  795.1608
 785  692.8843
 786  640.9991
 787  597.3831
 788  601.8581
 789  634.3917
 790  701.0879
 791  829.2742
 792  872.8277
 793  873.4891
 794  867.8162
 795  922.5253
 796  836.8524
 797  844.6879
 798  849.6445
 799  928.5718
 800  958.4368
 801  970.3146
 802  884.9322
 803  699.1613
 804  637.5781
 805  611.1824
 806  651.849
 807  710.589
 808  740.0843
 809  757.6066
 810  778.6219
 811  913.34
 812  981.4736
 813  937.207
 814  795.897
 815  750.1759
 816  700.9741
 817  705.9717
 818  751.7744
 819  779.2875
 820  806.1207
 821  643.7957
 822  611.3522
 823  684.6962
 824  723.2062
 825  767.0406
 826  754.495
 827  775.4809
 828  836.7896
 829  767.3395
 830  724.498
 831  527.9454
 832  554.5546
 833  544.4431
 834  581.0258
 835  688.8206
 836  704.4772
 837  723.8176
 838  650.7541
 839  665.7733
 840  677.6904
 841  672.7841
 842  767.6879
 843  840.3762
 844  933.1923
 845  788.5187
 846  664.2838
 847  658.4195
 848  838.7967
 849  898.4229
 850  760.54
 851  706.2571
 852  681.8167
 853  770.8629
 854  884.5855
 855  870.2527
 856  809.6974
 857  676.5432
 858  682.4361
 859  734.5826
 860  704.5196
 861  731.7699
 862  788.6184
 863  906.5141
 864  920.8671
 865  901.5643
 866  911.9973
 867  894.2715
 868  842.999
 869  729.204
 870  683.89
 871  590.8507
 872  598.7794
 873  580.2266
 874  694.9237
 875  739.9446
 876  658.5228
 877  601.5693
 878  610.4758
 879  657.6938
 880  621.8228
 881  663.9235
 882  768.5994
 883  894.9522
 884  846.351
 885  844.6312
 886  883.0168
 887  796.9413
 888  696.058
 889  552.8146
 890  590.5777
 891  571.618
 892  657.8922
 893  683.6238
 894  710.8845
 895  690.5978
 896  669.78
 897  749.2938
 898  868.1032
 899  869.6263
 900  815.9732
 901  756.6343
 902  800.3846
 903  736.1902
 904  750.9649
 905  837.6192
 906  871.0168
 907  751.5929
 908  507.6761
 909  444.1562
 910  499.6922
 911  647.0515
 912  741.9376
 913  682.4419
 914  691.3562
 915  670.7358
 916  691.371
 917  715.3675
 918  707.9154
 919  715.1441
 920  619.8058
 921  521.1514
 922  505.9893
 923  538.7076
 924  639.7296
 925  684.7953
 926  727.9014
 927  713.8062
 928  649.6604
 929  612.9969
 930  690.548
 931  714.1301
 932  654.9027
 933  619.8673
 934  634.4769
 935  736.9438
 936  712.002
 937  763.3481
 938  669.8853
 939  658.0245
 940  607.1332
 941  534.9495
 942  543.2134
 943  583.6291
 944  597.2996
 945  683.5695
 946  817.9836
 947  895.4189
 948  773.546
 949  679.5071
 950  662.6155
 951  685.6389
 952  750.7609
 953  753.3024
 954  666.8564
 955  674.1043
 956  651.4547
 957  624.6257
 958  615.9659
 959  791.1774
 960  886.8013
 961  976.5798
 962  983.8882
 963  917.9551
 964  815.8605
 965  739.5743
 966  718.4315
 967  734.0089
 968  753.5355
 969  679.8563
 970  642.6953
 971  648.7343
 972  681.5591
 973  691.103
 974  732.8989
 975  671.4513
 976  672.1113
 977  607.444
 978  574.9521
 979  573.2548
 980  495.3845
 981  587.6346
 982  640.1562
 983  688.5845
 984  598.8933
 985  587.1304
 986  689.0112
 987  762.7862
 988  811.9092
 989  734.6959
 990  775.6039
 991  713.4167
 992  721.9194
 993  744.8527
 994  723.3546
 995  774.9032
 996  819.2437
 997  905.3105
 998  812.8216
 999  739.2708
1000  721.0718
1001  806.9998
1002  823.1
1003  663.1777
1004  611.4218
1005  569.7708
1006  689.4489
1007  710.6636
1008  752.8372
1009  807.3759
1010  884.8914
1011  869.4595
1012  864.0649
1013  949.5203
1014  977.3893
1015  900.8427
1016  877.5451
1017  818.2747
1018  778.2642
1019  737.6566
1020  794.6133
1021  803.1389
1022  775.5543
1023  786.3959
