# Input file       =  1194539265.099607_cleaned.dat
# Candidate        =  PSR_0332+5434
# Telescope        =  AR
# Epoch_topo       =  58069.686158560267
# Epoch_bary       =  N/A
# T_sample         =  0.002
# Data Folded      =  7143424
# Data Avg         =  0.0881844928399552
# Data StdDev      =  1.00073594185105 
# Profile Bins     =  512
# Profile Avg      =  1230.35000147562 
# Profile StdDev   =  118.205512891575 
# Reduced chi-sqr  =  1.045
# Prob(Noise)      <  0.233   (~0.7 sigma)
# P_topo (ms)      =  714.50686345183   +/- 0.000335
# P'_topo (s/s)    =  -0                +/- 1.81e-10
# P''_topo (s/s^2) =  0                 +/- 8.23e-14
# P_bary (ms)      =  N/A
# P'_bary (s/s)    =  N/A
# P''_bary (s/s^2) =  N/A
# P_orb (s)        =  N/A
# asin(i)/c (s)    =  N/A
# eccentricity     =  N/A
# w (rad)          =  N/A
# T_peri           =  N/A
######################################################
   0  1554.703
   1  1490.446
   2  1401.073
   3  1231.244
   4  1169.842
   5  1183.812
   6  1260.388
   7  1323.662
   8  1110.633
   9  1055.097
  10  1233.858
  11  1250.495
  12  1238.173
  13  1191.505
  14  1263.457
  15  1267.014
  16  1186.625
  17  1211.802
  18  1253.923
  19  1191.331
  20  1210.437
  21  1204.23
  22  1133.626
  23  1219.166
  24  1392.138
  25  1391.962
  26  1273.004
  27  1355.061
  28  1287.124
  29  1247.069
  30  1239.277
  31  1271.979
  32  1337.522
  33  1161.051
  34  1231.671
  35  1235.548
  36  1295.355
  37  1309.89
  38  1233.161
  39  1144.571
  40  1145.136
  41  1199.066
  42  1084.793
  43  1137.887
  44  1183.819
  45  1299.841
  46  1262.112
  47  1106.895
  48  1109.352
  49  1171.481
  50  1305.844
  51  1257.557
  52  1232.749
  53  1279.743
  54  1329.169
  55  1290.693
  56  1294.868
  57  1312.81
  58  1386.937
  59  1232.719
  60  1189.643
  61  1240.65
  62  1212.406
  63  1242.911
  64  1403.095
  65  1457.683
  66  1382.908
  67  1298.126
  68  1332.958
  69  1234.882
  70  1185.772
  71  1223.23
  72  1276.264
  73  1271.137
  74  1257.31
  75  1329.141
  76  1239.182
  77  1201.454
  78  1216.213
  79  1190.442
  80  1126.287
  81  1201.088
  82  1336.836
  83  1231.045
  84  1285.051
  85  1243.434
  86  1233.182
  87  1158.591
  88  1160.974
  89  1143.482
  90  1276.609
  91  1187.302
  92  1025.131
  93  1077.253
  94  1057.869
  95  1097.331
  96  1100.704
  97  1094.211
  98  1013.794
  99  933.0181
 100  1021.838
 101  1076.334
 102  1064.094
 103  1148.796
 104  1100.953
 105  1023.475
 106  1052.226
 107  1103.012
 108  1171.083
 109  1063.656
 110  1087.748
 111  1102.082
 112  1081.791
 113  1051.023
 114  1082.244
 115  1093.346
 116  1172.97
 117  1178.611
 118  1248.149
 119  1292.783
 120  1230.942
 121  1094.79
 122  1023.392
 123  1169.839
 124  1277.544
 125  1238.652
 126  1194.874
 127  1231.896
 128  1174.05
 129  1176.349
 130  1229.977
 131  1348.017
 132  1269.439
 133  1213.448
 134  1190.122
 135  1139.183
 136  1216.311
 137  1180.627
 138  1239.099
 139  1269.008
 140  1294.902
 141  1254.586
 142  1252.212
 143  1255.14
 144  1261.75
 145  1200.393
 146  1211.367
 147  1211.131
 148  1264.458
 149  1182.795
 150  1187.102
 151  1180.147
 152  1228.051
 153  1300.389
 154  1294.427
 155  1278.414
 156  1331.499
 157  1355.08
 158  1172.254
 159  1254.28
 160  1253.612
 161  1154.006
 162  1138.571
 163  1133.723
 164  1239.866
 165  1342.345
 166  1250.696
 167  1179.092
 168  1171.704
 169  1233.662
 170  1106.089
 171  1017.119
 172  1079.144
 173  1148.319
 174  1200.237
 175  1293.341
 176  1188.104
 177  1162.502
 178  1151.355
 179  1252.39
 180  1261.743
 181  1197.994
 182  1167.623
 183  1209.741
 184  1129.69
 185  1045.966
 186  1032.55
 187  1163.24
 188  1176.896
 189  1201.388
 190  1218.666
 191  1165.353
 192  1120.031
 193  1060.57
 194  1213.868
 195  1299.004
 196  1311.887
 197  1286.393
 198  1320.49
 199  1276.423
 200  1321.418
 201  1344.73
 202  1294.656
 203  1333.425
 204  1340
 205  1315.165
 206  1333.975
 207  1199.328
 208  1224.215
 209  1248.011
 210  1251.845
 211  1207.665
 212  1162.299
 213  1181.007
 214  1147.971
 215  1260.932
 216  1292.384
 217  1218.299
 218  1252.832
 219  1285.375
 220  1293.188
 221  1243.262
 222  1204.222
 223  1234.527
 224  1255.155
 225  1307.672
 226  1341.788
 227  1362.646
 228  1283.162
 229  1159.578
 230  1205.712
 231  1353.531
 232  1311.515
 233  1219.307
 234  1256.861
 235  1211.691
 236  1117.396
 237  1210.003
 238  1282.563
 239  1319.75
 240  1256.338
 241  1179.018
 242  1215.282
 243  1247.776
 244  1160.444
 245  1166.008
 246  1237.064
 247  1375.707
 248  1421.015
 249  1375.051
 250  1297.472
 251  1343.575
 252  1279.372
 253  1290.211
 254  1252.692
 255  1250.522
 256  1350.131
 257  1212.094
 258  1115.191
 259  1134.022
 260  1214.331
 261  1275.633
 262  1211.053
 263  1216.49
 264  1308.537
 265  1309
 266  1253.921
 267  1312.676
 268  1350.71
 269  1275.861
 270  1248.876
 271  1270.595
 272  1266.771
 273  1250.058
 274  1240.08
 275  1192.996
 276  1214.078
 277  1246.144
 278  1285.374
 279  1194.681
 280  1040.698
 281  1101.636
 282  1268.9
 283  1159.974
 284  1273.315
 285  1205.755
 286  1178.771
 287  1205.984
 288  1247.617
 289  1156.421
 290  1184.313
 291  1146.093
 292  1287.402
 293  1233.1
 294  1155.285
 295  1293.112
 296  1263.514
 297  1232.506
 298  1133.094
 299  1202.582
 300  1262.67
 301  1319.416
 302  1228.503
 303  1115.065
 304  1184.463
 305  1166.792
 306  1088.057
 307  1142.456
 308  1170.033
 309  1204.463
 310  1228.552
 311  1236.66
 312  1349.782
 313  1264.829
 314  1227.196
 315  1280.707
 316  1279.197
 317  1205.203
 318  1184.66
 319  1271.878
 320  1234.326
 321  1065.357
 322  1091.551
 323  1254.346
 324  1234.227
 325  1304.712
 326  1269.445
 327  1126.781
 328  1123.831
 329  1245.519
 330  1272.661
 331  1214.484
 332  1271.178
 333  1212.064
 334  1163.136
 335  1255.06
 336  1253.342
 337  1233.983
 338  1175.037
 339  1218.456
 340  1178.057
 341  1116.806
 342  1158.25
 343  1107.418
 344  1172.348
 345  1219.278
 346  1245.254
 347  1262.112
 348  1168.498
 349  1178.851
 350  1205.74
 351  1210.522
 352  1273.458
 353  1216.347
 354  1058.67
 355  1082.549
 356  1199.684
 357  1269.377
 358  1207.529
 359  1215.617
 360  1224.376
 361  1122.658
 362  1251.954
 363  1211.705
 364  1155.73
 365  1131.912
 366  1067.639
 367  1236.256
 368  1327.559
 369  1215.279
 370  1197.12
 371  1185.933
 372  1258.983
 373  1122.182
 374  1191.258
 375  1301.227
 376  1336.603
 377  1317.141
 378  1327.526
 379  1399.053
 380  1374.607
 381  1334.728
 382  1240.622
 383  1247.56
 384  1232.207
 385  1228.521
 386  1236.637
 387  1274.674
 388  1320.043
 389  1372.62
 390  1352.915
 391  1284.41
 392  1336.774
 393  1267.684
 394  1285.578
 395  1243.925
 396  1330.689
 397  1345.33
 398  1360.087
 399  1386.284
 400  1347.819
 401  1424.009
 402  1471.382
 403  1453.225
 404  1308.389
 405  1412.232
 406  1340.8
 407  1239.903
 408  1195.536
 409  1184.173
 410  1233.117
 411  1384.911
 412  1376.093
 413  1308.092
 414  1166.218
 415  1154.538
 416  1110.283
 417  1261.725
 418  1369.745
 419  1368.528
 420  1322.358
 421  1267.353
 422  1285.198
 423  1190.647
 424  1204.374
 425  1233.703
 426  1291.447
 427  1315.975
 428  1183.197
 429  1167.529
 430  1157.714
 431  1153.754
 432  1131.246
 433  1168.988
 434  1167.78
 435  1251.372
 436  1184.626
 437  1154.889
 438  1154.471
 439  1168.214
 440  1179.415
 441  1172.912
 442  1223.318
 443  1238.132
 444  1393.134
 445  1379.017
 446  1276.806
 447  1251.311
 448  1180.645
 449  1142.745
 450  1204.628
 451  1280.862
 452  1314.284
 453  1250.86
 454  1257.126
 455  1128.923
 456  1197.162
 457  1273.832
 458  1280.598
 459  1262.251
 460  1210.743
 461  1256.478
 462  1196.337
 463  1124.123
 464  1138.957
 465  1265.245
 466  1288.074
 467  1275.486
 468  1227.79
 469  1278.345
 470  1248.451
 471  1186.528
 472  1191.639
 473  1247.973
 474  1182.979
 475  1225.865
 476  1134.581
 477  1155.731
 478  1177.102
 479  1193.67
 480  1186.131
 481  1137.377
 482  1147.744
 483  1092.077
 484  1152.432
 485  1198.414
 486  1153.544
 487  1142.074
 488  1225.145
 489  1246.983
 490  1304.905
 491  1410.557
 492  1422.54
 493  1356.486
 494  1309.139
 495  1311.994
 496  1375.966
 497  1398.086
 498  1265.571
 499  1196.05
 500  1228.148
 501  1214.096
 502  1244.624
 503  1182.257
 504  1244.843
 505  1274.28
 506  1237.108
 507  1309.028
 508  1351.663
 509  1482.109
 510  1494.739
 511  1528.514
