# Input file       =  1194138544.111448_cleaned.dat
# Candidate        =  PSR_0332+5434
# Telescope        =  AR
# Epoch_topo       =  58065.048184160281
# Epoch_bary       =  N/A
# T_sample         =  0.002
# Data Folded      =  7340032
# Data Avg         =  0.160111991748896
# Data StdDev      =  4.54147336106311 
# Profile Bins     =  1024
# Profile Avg      =  1147.71510628959 
# Profile StdDev   =  384.499491174325 
# Reduced chi-sqr  =  0.676
# Prob(Noise)      <  1   (~0.0 sigma)
# P_topo (ms)      =  714.502676401207  +/- 0.00084
# P'_topo (s/s)    =  -0                +/- 4.43e-10
# P''_topo (s/s^2) =  0                 +/- 1.96e-13
# P_bary (ms)      =  N/A
# P'_bary (s/s)    =  N/A
# P''_bary (s/s^2) =  N/A
# P_orb (s)        =  N/A
# asin(i)/c (s)    =  N/A
# eccentricity     =  N/A
# w (rad)          =  N/A
# T_peri           =  N/A
######################################################
   0  1361.113
   1  1442.462
   2  1310.535
   3  1233.345
   4  1128.546
   5  1319.805
   6  1286.768
   7  1307.057
   8  1211.338
   9  1237.345
  10  1257.322
  11  1283.895
  12  1189.057
  13  1179.601
  14  1227.614
  15  1377.108
  16  1307.493
  17  1250.451
  18  1162.422
  19  1161.143
  20  1177.597
  21  1223.894
  22  1199.172
  23  1195.043
  24  1158.346
  25  1201.276
  26  1122.42
  27  1137.137
  28  1122.136
  29  1093.186
  30  1079.279
  31  1155.902
  32  1341.228
  33  1315.299
  34  1225.157
  35  1139.474
  36  1152.211
  37  1150.047
  38  1119.96
  39  1086.351
  40  1223.023
  41  1213.586
  42  1124.762
  43  949.379
  44  875.5281
  45  998.2397
  46  1065.781
  47  1070.763
  48  1067.609
  49  956.3502
  50  986.4305
  51  925.6992
  52  1001.379
  53  1010.876
  54  1090.831
  55  1087.171
  56  1175.323
  57  1173.36
  58  1245.66
  59  1269.434
  60  1219.142
  61  1214.071
  62  1117.298
  63  1164.682
  64  1206.935
  65  1218.113
  66  1255.187
  67  1235.764
  68  1197.194
  69  1134.474
  70  1095.226
  71  1181.482
  72  1313.739
  73  1432.433
  74  1417.938
  75  1287.662
  76  1267.378
  77  1381.284
  78  1391.538
  79  1419.39
  80  1297.473
  81  1281.861
  82  1179.971
  83  1145.976
  84  1203.8
  85  1298.223
  86  1448.112
  87  1478.111
  88  1415.163
  89  1324.708
  90  1249.492
  91  1367.206
  92  1418.092
  93  1324.96
  94  1322.957
  95  1268.097
  96  1326.936
  97  1257.729
  98  1398.612
  99  1401.616
 100  1391.649
 101  1264.322
 102  1136.972
 103  1027.867
 104  1010.124
 105  1277.935
 106  1276.241
 107  1280.379
 108  1228.667
 109  1377.474
 110  1388.912
 111  1275.728
 112  1297.84
 113  1343.567
 114  1326.666
 115  1209.088
 116  1223.721
 117  1369.144
 118  1392.17
 119  1165.821
 120  1069.543
 121  1084.253
 122  1178.259
 123  1191.399
 124  1276.61
 125  1201.257
 126  1212.405
 127  1110.456
 128  1042.938
 129  973.5403
 130  999.9859
 131  1082.839
 132  1150.549
 133  1306.437
 134  1385.839
 135  1391.645
 136  1249.049
 137  1249.667
 138  1214.794
 139  1291.448
 140  1207.731
 141  1100.879
 142  1036.006
 143  1085.07
 144  1366.715
 145  1499.111
 146  1489.86
 147  1342.135
 148  1286.171
 149  1268.839
 150  1173.295
 151  1140.002
 152  1183.2
 153  1220.664
 154  1181.475
 155  1132.012
 156  1174.817
 157  1190.428
 158  1245.094
 159  1271.738
 160  1366.715
 161  1281.147
 162  1162.523
 163  1156.138
 164  1157.534
 165  1107.066
 166  958.4479
 167  964.0697
 168  877.4557
 169  771.1898
 170  720.1948
 171  884.2371
 172  957.8042
 173  1051.237
 174  1106.965
 175  1264.211
 176  1258.725
 177  1212.048
 178  1154.253
 179  1180.981
 180  1108.207
 181  1067.782
 182  1063.144
 183  1198.496
 184  1264.695
 185  1269.274
 186  1158.732
 187  1143.13
 188  1226.181
 189  1220.76
 190  1061.035
 191  1001.096
 192  1036.596
 193  1110.952
 194  1157.149
 195  1213.667
 196  1283.408
 197  1260.051
 198  1336.707
 199  1367.705
 200  1375.516
 201  1490.631
 202  1564.818
 203  1489.208
 204  1259.476
 205  1055.661
 206  1038.581
 207  1120.783
 208  1200.992
 209  1223.496
 210  1169.823
 211  1134.759
 212  1163.237
 213  1145.864
 214  1192.837
 215  1265.605
 216  1261.968
 217  1220.536
 218  1255.07
 219  1132.633
 220  1043.621
 221  918.3463
 222  882.3091
 223  914.9774
 224  1051.388
 225  1220.256
 226  1131.158
 227  980.4858
 228  891.5478
 229  896.582
 230  1006.362
 231  979.2521
 232  1025.773
 233  1041.737
 234  1165.362
 235  1138.695
 236  1139.918
 237  1117.991
 238  1094.687
 239  1038.132
 240  1021.212
 241  1013.035
 242  1026.59
 243  1020.364
 244  1160.107
 245  1205.375
 246  1269.526
 247  1160.87
 248  1164.882
 249  1185.706
 250  1274.774
 251  1301.46
 252  1296.171
 253  1286.265
 254  1272.993
 255  1299.295
 256  1351.45
 257  1280.585
 258  1245.467
 259  1260.85
 260  1216.739
 261  1168.379
 262  1073.856
 263  1093.013
 264  1086.682
 265  1137.207
 266  1209.393
 267  1163.91
 268  1054.935
 269  1066.623
 270  1158.468
 271  1278.329
 272  1334.705
 273  1400.348
 274  1454.233
 275  1413.668
 276  1330.565
 277  1228.45
 278  1157.104
 279  1170.671
 280  1188.639
 281  1179.403
 282  1153.783
 283  1149.578
 284  1119.24
 285  1223.909
 286  1348.976
 287  1546.948
 288  1484.055
 289  1284.842
 290  1114.698
 291  1077.506
 292  1085.22
 293  984.0657
 294  1044.634
 295  1285.864
 296  1423.335
 297  1296.68
 298  1210.308
 299  1226.478
 300  1430.118
 301  1419.72
 302  1352.354
 303  1229.602
 304  1115.546
 305  1081.605
 306  1117.664
 307  1194.581
 308  1255.15
 309  1199.102
 310  1009.083
 311  938.406
 312  1092.659
 313  1154.703
 314  1185.721
 315  1260.781
 316  1386.649
 317  1305.64
 318  1087.519
 319  1073.631
 320  1109.312
 321  1108.758
 322  1143.703
 323  1116.478
 324  1204.884
 325  1251.632
 326  1366.457
 327  1244.212
 328  984.995
 329  928.9324
 330  1069.18
 331  1211.457
 332  1122.679
 333  1093.821
 334  1017.686
 335  1057.808
 336  1029.353
 337  992.3434
 338  984.1531
 339  1068.781
 340  1125.258
 341  1075.381
 342  1078.772
 343  1093.53
 344  1269.154
 345  1228.61
 346  1244.743
 347  1202.164
 348  1222.057
 349  1182.884
 350  1077.103
 351  1117.119
 352  1136.682
 353  1195.478
 354  1171.991
 355  1180.502
 356  1053.771
 357  1014.111
 358  1061.036
 359  1198.063
 360  1290.096
 361  1261.832
 362  1207.545
 363  1191.091
 364  1118.296
 365  1078.037
 366  989.4354
 367  951.8436
 368  954.1948
 369  995.968
 370  1024.967
 371  1059.463
 372  1078.361
 373  1208.008
 374  1232.955
 375  1171.573
 376  1183.459
 377  1048.469
 378  1065.893
 379  1009.631
 380  979.9117
 381  966.4019
 382  877.3978
 383  966.8748
 384  1084.941
 385  1109.057
 386  1153.049
 387  1195.147
 388  1227.433
 389  1145.927
 390  1233.629
 391  1237.973
 392  1229.335
 393  1037.79
 394  1074.508
 395  1106.705
 396  1158.142
 397  1123.156
 398  1117.174
 399  1042.393
 400  1038.48
 401  1083.533
 402  1244.096
 403  1297.745
 404  1347.756
 405  1334.099
 406  1369.736
 407  1278.045
 408  1374.988
 409  1363.903
 410  1355.651
 411  1226.491
 412  1144.511
 413  1184.314
 414  1279.198
 415  1428.321
 416  1450.173
 417  1407.057
 418  1267.687
 419  1185.779
 420  1140.949
 421  1112.786
 422  1124.96
 423  1139.954
 424  1072.756
 425  1059.375
 426  1113.386
 427  1144.701
 428  1149.945
 429  1170.874
 430  1268.179
 431  1258.103
 432  1253.13
 433  1133.995
 434  1041.099
 435  1124.303
 436  1188.977
 437  1213.26
 438  1153.522
 439  1094.087
 440  938.1517
 441  1000.331
 442  1072.297
 443  1159.322
 444  1173.851
 445  1280.647
 446  1310.164
 447  1196.872
 448  1076.207
 449  1014.199
 450  964.0914
 451  919.7973
 452  804.114
 453  927.8049
 454  1052.498
 455  1037.263
 456  928.3578
 457  1011.345
 458  1121.483
 459  1260.244
 460  1170.198
 461  1138.979
 462  1020.025
 463  902.6951
 464  788.2387
 465  751.4752
 466  754.5782
 467  845.5669
 468  818.7587
 469  865.6867
 470  954.1259
 471  1041.066
 472  1156.974
 473  1089.591
 474  993.3882
 475  905.7568
 476  952.2477
 477  936.74
 478  998.6685
 479  907.3237
 480  895.9357
 481  784.8558
 482  875.3706
 483  850.5108
 484  836.6884
 485  950.1974
 486  1097.255
 487  1215.24
 488  1128.814
 489  1090.163
 490  1122.115
 491  1252.205
 492  1368.103
 493  1250.698
 494  1205.598
 495  1193.601
 496  1271.992
 497  1268.601
 498  1087.282
 499  999.9446
 500  994.0416
 501  998.1087
 502  1003.489
 503  997.1903
 504  1144.744
 505  1131.194
 506  1097.068
 507  1105.982
 508  1157.776
 509  1115.456
 510  1048.415
 511  1071.52
 512  1189.233
 513  1179.479
 514  1108.694
 515  1054.574
 516  1073.943
 517  1103.667
 518  1135.64
 519  1167.753
 520  1148.498
 521  1173.752
 522  1122.658
 523  1036.63
 524  960.6979
 525  941.5847
 526  999.9907
 527  984.3217
 528  928.9143
 529  851.6476
 530  872.6411
 531  904.2843
 532  994.7099
 533  1074.161
 534  1112.997
 535  1206.751
 536  1201.557
 537  1252.349
 538  1313.832
 539  1297.167
 540  1152.053
 541  955.6021
 542  844.78
 543  954.642
 544  968.1468
 545  921.7202
 546  1044.021
 547  982.8396
 548  934.584
 549  846.8874
 550  888.2145
 551  872.524
 552  808.5013
 553  874.9407
 554  950.9261
 555  1051.479
 556  970.2276
 557  914.7144
 558  895.9846
 559  909.4485
 560  927.4274
 561  900.7648
 562  845.2314
 563  700.8121
 564  611.3228
 565  695.0515
 566  669.4129
 567  689.0757
 568  794.6876
 569  943.5439
 570  935.0933
 571  888.6004
 572  875.0496
 573  981.9224
 574  1007.374
 575  972.7957
 576  826.4484
 577  847.2033
 578  963.6934
 579  937.1099
 580  915.4089
 581  932.1743
 582  1047.497
 583  1088.393
 584  1078.146
 585  1084.255
 586  1104.317
 587  1135.525
 588  1116.029
 589  1160.433
 590  1162.641
 591  1152.592
 592  1138.414
 593  1201.194
 594  1209.842
 595  1193.683
 596  1013.662
 597  980.4868
 598  1116.121
 599  1267.148
 600  1262.17
 601  1317.629
 602  1368.787
 603  1289.246
 604  1107.087
 605  1059.895
 606  1184.885
 607  1198.293
 608  1139.973
 609  1120.712
 610  1091.089
 611  1102.616
 612  1038.78
 613  1102.049
 614  1157.131
 615  1261.206
 616  1394.724
 617  1374.068
 618  1496.632
 619  1449.414
 620  1303.246
 621  1176.672
 622  1176.376
 623  1408.669
 624  1401.659
 625  1484.204
 626  1546.328
 627  1589.893
 628  1788.549
 629  1850.247
 630  2067.927
 631  1940.694
 632  1913.487
 633  1828.561
 634  1910.487
 635  1981.978
 636  1952.792
 637  1587.777
 638  1383.344
 639  1337.108
 640  1407.86
 641  1358.035
 642  1338.629
 643  1365.234
 644  1290.131
 645  1285.045
 646  1247.778
 647  1287.215
 648  1239.697
 649  1195.109
 650  1292.303
 651  1428.256
 652  1485.586
 653  1345.911
 654  1275.724
 655  1325.906
 656  1356.465
 657  1301.09
 658  1138.367
 659  1169.2
 660  1175.69
 661  1260.449
 662  1193.405
 663  1250.857
 664  1347.207
 665  1464.787
 666  1549.069
 667  1487.576
 668  1410.666
 669  1324.901
 670  1400.496
 671  1456.162
 672  1412.285
 673  1248.541
 674  1204.597
 675  1198.027
 676  1098.927
 677  1102.819
 678  1128.7
 679  1165.202
 680  1118.699
 681  1168.365
 682  1232.552
 683  1303.515
 684  1380.161
 685  1378.505
 686  1272.318
 687  1109.624
 688  1014.36
 689  1123.045
 690  1224.056
 691  1214.479
 692  1151.912
 693  1184.719
 694  1365.163
 695  1470.37
 696  1341.799
 697  1082.337
 698  1027.544
 699  1151.124
 700  1157.014
 701  1096.544
 702  1015.878
 703  978.1108
 704  1072.11
 705  1106.476
 706  1321.343
 707  1346.738
 708  1394.648
 709  1234.969
 710  1093.267
 711  1006.142
 712  1006.06
 713  1052.627
 714  1082.458
 715  1168.4
 716  1336.335
 717  1411.653
 718  1373.968
 719  1330.237
 720  1309.31
 721  1285.817
 722  1266.236
 723  1291.66
 724  1248.147
 725  1290.373
 726  1253.82
 727  1245.892
 728  1217.563
 729  1188.168
 730  1167.777
 731  994.2798
 732  964.1324
 733  1001.463
 734  1044.873
 735  1075.319
 736  1079.561
 737  1210.07
 738  1408.321
 739  1327.769
 740  1301.023
 741  1088.375
 742  1109.202
 743  1116.221
 744  1133.194
 745  1089.354
 746  1020.114
 747  1019.443
 748  1047.341
 749  1083.514
 750  1211.55
 751  1229.843
 752  1233.031
 753  1170.437
 754  1168.475
 755  1114.242
 756  1102.676
 757  1167.01
 758  1276.493
 759  1291.263
 760  1209.86
 761  1224.985
 762  1200.765
 763  1196.751
 764  1088.569
 765  1050.354
 766  1024.552
 767  1016.785
 768  1010.297
 769  1037.027
 770  1101.023
 771  1254.747
 772  1313.946
 773  1223.081
 774  1151.214
 775  1178.533
 776  1124.888
 777  1086.567
 778  996.1116
 779  854.4337
 780  685.6974
 781  751.7308
 782  898.5788
 783  1057.873
 784  972.2225
 785  1014.04
 786  966.199
 787  901.0983
 788  833.2162
 789  911.5404
 790  1131.087
 791  1166.853
 792  1119.97
 793  1032.48
 794  967.6938
 795  876.3743
 796  887.101
 797  748.7101
 798  650.4059
 799  660.9056
 800  816.8451
 801  980.1378
 802  1187.042
 803  1210.244
 804  1310.017
 805  1275.654
 806  1401.236
 807  1354.42
 808  1192.996
 809  1080.4
 810  1010.772
 811  1112.263
 812  1071.601
 813  910.6055
 814  903.6617
 815  1000.305
 816  1154.29
 817  1098.744
 818  1089.221
 819  1079.403
 820  1150.59
 821  1126.67
 822  997.6808
 823  1008.013
 824  1044.301
 825  1046.453
 826  964.7694
 827  978.6271
 828  1020.409
 829  849.5532
 830  716.1876
 831  804.4603
 832  901.225
 833  928.0109
 834  859.765
 835  812.3211
 836  808.8632
 837  867.0574
 838  938.8127
 839  959.9313
 840  961.1784
 841  932.2396
 842  895.6806
 843  856.8615
 844  892.8141
 845  1008.301
 846  1013.842
 847  917.3879
 848  828.8769
 849  846.793
 850  765.4499
 851  694.8013
 852  747.2648
 853  834.347
 854  800.4852
 855  666.7524
 856  803.5955
 857  983.4859
 858  1149.883
 859  1236.53
 860  1267.194
 861  1288.021
 862  1083.16
 863  1041.092
 864  999.6504
 865  982.337
 866  931.8432
 867  862.3147
 868  904.3575
 869  1004.332
 870  968.3957
 871  1065.088
 872  1065.167
 873  1180.399
 874  1163.655
 875  1156.354
 876  1228.268
 877  1288.994
 878  1284.534
 879  1234.698
 880  1231.258
 881  1159.122
 882  1127.042
 883  1012.978
 884  991.1362
 885  944.7656
 886  940.809
 887  936.9296
 888  888.9805
 889  888.1378
 890  940.7577
 891  1001.272
 892  963.4815
 893  974.2064
 894  1057.172
 895  975.3489
 896  937.8196
 897  897.2793
 898  1042.747
 899  1129.162
 900  1221.158
 901  1286.058
 902  1336.605
 903  1320.015
 904  1218.988
 905  1123.776
 906  1011.528
 907  1036.652
 908  1141.024
 909  1124.87
 910  1217.182
 911  1246.506
 912  1291.823
 913  1240.438
 914  1284.054
 915  1320.092
 916  1408.067
 917  1354.829
 918  1391.062
 919  1299.183
 920  1278.562
 921  1326.488
 922  1250.977
 923  1188.818
 924  1119.517
 925  1240.079
 926  1300.265
 927  1293.326
 928  1161.084
 929  1169.512
 930  1103.56
 931  1175.074
 932  1129.031
 933  1071.112
 934  1020.431
 935  1106.483
 936  1176.277
 937  1132.198
 938  1109.717
 939  1163.194
 940  1060.013
 941  1025.231
 942  952.2796
 943  967.0114
 944  1011.636
 945  1131.604
 946  1190.804
 947  1198.532
 948  1087.315
 949  1211.698
 950  1231.191
 951  1264.969
 952  1082.504
 953  1005.863
 954  1035.747
 955  1025.805
 956  1010.098
 957  1008.499
 958  1164.767
 959  1288.865
 960  1268.055
 961  1166.206
 962  1137.414
 963  1221.854
 964  1191.391
 965  1185.24
 966  1119.018
 967  1007.706
 968  1044.606
 969  1143.13
 970  1283.45
 971  1186.097
 972  1182.82
 973  1236.997
 974  1269.785
 975  1227.488
 976  1210.06
 977  1153.241
 978  1137.422
 979  1016.25
 980  1035.012
 981  1185.734
 982  1308.99
 983  1301.256
 984  1224.975
 985  1187.748
 986  1242.201
 987  1218.936
 988  1200.321
 989  1078.973
 990  1044.404
 991  1052.059
 992  1048.763
 993  987.0123
 994  962.0694
 995  960.6975
 996  1048.928
 997  1105.168
 998  1063.189
 999  1042.883
1000  1045.74
1001  1137.034
1002  1242.04
1003  1302.083
1004  1293.28
1005  1142.128
1006  1085.803
1007  1142.412
1008  1247.656
1009  1290.496
1010  1353.389
1011  1315.004
1012  1279.975
1013  1248.197
1014  1282.983
1015  1333.015
1016  1395.966
1017  1330.469
1018  1350.469
1019  1385.679
1020  1423.99
1021  1329.182
1022  1248.166
1023  1284.757
