# Input file       =  1194553880.107303_cleaned.dat
# Candidate        =  PSR_0332+5434
# Telescope        =  AR
# Epoch_topo       =  58069.855313741929
# Epoch_bary       =  N/A
# T_sample         =  0.002
# Data Folded      =  7340032
# Data Avg         =  0.0440630286333198
# Data StdDev      =  1.00031873142652 
# Profile Bins     =  512
# Profile Avg      =  631.86216057016  
# Profile StdDev   =  119.771199058252 
# Reduced chi-sqr  =  0.993
# Prob(Noise)      <  0.534   (~0.0 sigma)
# P_topo (ms)      =  714.507042321441  +/- 0.000546
# P'_topo (s/s)    =  -0                +/- 2.88e-10
# P''_topo (s/s^2) =  0                 +/- 1.27e-13
# P_bary (ms)      =  N/A
# P'_bary (s/s)    =  N/A
# P''_bary (s/s^2) =  N/A
# P_orb (s)        =  N/A
# asin(i)/c (s)    =  N/A
# eccentricity     =  N/A
# w (rad)          =  N/A
# T_peri           =  N/A
######################################################
   0  1059.488
   1  1002.8
   2  937.6597
   3  868.6188
   4  735.6685
   5  639.6929
   6  702.1272
   7  831.3547
   8  768.1469
   9  683.7729
  10  710.3599
  11  661.1008
  12  674.1037
  13  646.0114
  14  650.7426
  15  632.8358
  16  620.1645
  17  622.0466
  18  559.8308
  19  529.2475
  20  564.2474
  21  593.219
  22  605.6119
  23  622.7831
  24  667.0311
  25  761.998
  26  734.7696
  27  587.0679
  28  485.2977
  29  553.1624
  30  626.4602
  31  662.5331
  32  538.9063
  33  607.58
  34  571.8319
  35  596.2906
  36  646.0615
  37  600.0292
  38  589.3265
  39  587.5948
  40  512.1098
  41  556.6683
  42  683.2856
  43  682.0167
  44  671.7149
  45  697.748
  46  623.881
  47  511.0069
  48  429.9823
  49  594.0615
  50  550.9777
  51  539.665
  52  649.535
  53  604.4995
  54  551.3928
  55  575.6061
  56  619.5358
  57  629.356
  58  597.4827
  59  693.0213
  60  551.3745
  61  603.2338
  62  546.1645
  63  606.3013
  64  626.0578
  65  668.9954
  66  627.1526
  67  594.101
  68  579.1725
  69  676.7334
  70  771.8541
  71  827.636
  72  618.9733
  73  637.4164
  74  723.6785
  75  613.7527
  76  686.2628
  77  837.6849
  78  683.1129
  79  567.5988
  80  594.1573
  81  613.2191
  82  665.8773
  83  600.3452
  84  674.7304
  85  632.8443
  86  608.2899
  87  565.8028
  88  496.4307
  89  533.3586
  90  550.5588
  91  531.1434
  92  429.2066
  93  478.6587
  94  589.403
  95  679.0845
  96  484.2963
  97  461.0624
  98  528.8463
  99  644.6555
 100  647.8227
 101  641.7723
 102  563.3959
 103  642.3477
 104  607.2706
 105  724.763
 106  617.9386
 107  558.2161
 108  595.4463
 109  620.4756
 110  528.4383
 111  608.623
 112  745.2927
 113  697.6404
 114  531.9025
 115  527.2585
 116  555.2754
 117  668.6466
 118  705.0228
 119  667.2478
 120  652.8898
 121  584.3073
 122  742.0234
 123  768.3732
 124  660.7053
 125  575.1899
 126  588.1772
 127  673.4519
 128  648.5244
 129  585.5833
 130  586.9907
 131  736.3806
 132  670.0353
 133  491.7317
 134  495.632
 135  505.8357
 136  565.9739
 137  606.458
 138  623.2047
 139  602.6025
 140  560.4607
 141  530.4523
 142  543.4018
 143  554.6686
 144  592.2203
 145  561.4803
 146  566.6018
 147  630.9688
 148  603.1797
 149  538.1166
 150  578.7819
 151  595.2585
 152  586.0485
 153  708.2985
 154  719.7949
 155  648.1326
 156  585.7077
 157  569.7001
 158  647.0538
 159  578.3751
 160  633.9257
 161  662.005
 162  725.639
 163  719.773
 164  683.0596
 165  546.5028
 166  491.3351
 167  514.6274
 168  638.2426
 169  684.5762
 170  622.7567
 171  775.2397
 172  658.79
 173  598.3356
 174  675.3519
 175  642.3168
 176  572.0349
 177  556.9492
 178  645.3708
 179  726.1631
 180  696.5546
 181  688.8135
 182  576.4667
 183  588.441
 184  643.1959
 185  676.2982
 186  668.173
 187  663.8502
 188  681.2443
 189  674.654
 190  598.3376
 191  543.7811
 192  581.5524
 193  614.85
 194  592.7021
 195  625.7579
 196  733.5717
 197  713.7145
 198  678.3068
 199  675.3295
 200  609.4401
 201  476.0963
 202  603.9928
 203  632.1902
 204  695.4977
 205  680.7468
 206  754.7376
 207  677.614
 208  673.9363
 209  785.8203
 210  704.115
 211  740.7038
 212  777.9251
 213  805.22
 214  832.8204
 215  875.7377
 216  817.5421
 217  603.3233
 218  658.9977
 219  731.5507
 220  750.4277
 221  709.8499
 222  637.1332
 223  624.8928
 224  684.0364
 225  648.3196
 226  597.9803
 227  650.3275
 228  564.6401
 229  614.1761
 230  654.0425
 231  674.613
 232  628.4836
 233  626.8234
 234  694.7186
 235  645.5097
 236  508.246
 237  640.2607
 238  702.9363
 239  685.323
 240  662.767
 241  641.163
 242  679.0852
 243  636.0845
 244  518.5233
 245  592.4589
 246  694.5381
 247  682.7277
 248  697.1136
 249  659.4244
 250  600.4034
 251  606.3691
 252  640.4562
 253  573.0538
 254  619.105
 255  643.4955
 256  600.1033
 257  608.8998
 258  500.3566
 259  634.0584
 260  656.2598
 261  618.9919
 262  637.3135
 263  643.7516
 264  660.744
 265  559.5037
 266  470.447
 267  503.9678
 268  489.7156
 269  674.9073
 270  697.2864
 271  549.5799
 272  427.7961
 273  544.5871
 274  605.6062
 275  523.3071
 276  596.0439
 277  643.5221
 278  572.0223
 279  665.3234
 280  603.4436
 281  548.6113
 282  585.1702
 283  651.7539
 284  683.9436
 285  632.9415
 286  601.2672
 287  583.9623
 288  541.8986
 289  584.8028
 290  579.7712
 291  549.4702
 292  603.2834
 293  637.6835
 294  573.0424
 295  602.3676
 296  788.2244
 297  680.939
 298  489.5081
 299  604.2706
 300  621.5219
 301  580.3735
 302  724.5212
 303  736.8919
 304  708.6068
 305  557.314
 306  574.179
 307  505.0332
 308  598.9738
 309  738.6387
 310  691.4943
 311  684.4703
 312  553.1801
 313  533.778
 314  573.5067
 315  457.1616
 316  524.032
 317  453.8233
 318  478.6863
 319  466.2844
 320  543.2823
 321  555.7582
 322  540.5671
 323  506.4616
 324  587.9318
 325  615.6292
 326  564.2713
 327  492.9169
 328  567.695
 329  601.2153
 330  574.2925
 331  553.2245
 332  570.2361
 333  464.8976
 334  553.1046
 335  572.2132
 336  580.9567
 337  548.0514
 338  681.658
 339  736.0981
 340  677.5928
 341  747.9734
 342  759.2958
 343  737.8763
 344  619.886
 345  646.9975
 346  641.1029
 347  682.6973
 348  634.0785
 349  626.4165
 350  676.7019
 351  656.2876
 352  643.3517
 353  745.5231
 354  572.8837
 355  617.7551
 356  626.5577
 357  550.9294
 358  560.6108
 359  552.865
 360  548.8661
 361  601.1304
 362  638.252
 363  612.3975
 364  590.0757
 365  635.7896
 366  566.9393
 367  555.9363
 368  623.7988
 369  687.0489
 370  615.2163
 371  589.657
 372  658.2488
 373  649.4954
 374  652.6361
 375  801.7797
 376  747.569
 377  611.8082
 378  668.4437
 379  600.0595
 380  528.2228
 381  606.2515
 382  585.0612
 383  723.2565
 384  731.2896
 385  796.9102
 386  608.3513
 387  549.8625
 388  581.5956
 389  613.1511
 390  657.6139
 391  719.051
 392  701.3663
 393  638.4417
 394  566.9124
 395  527.8761
 396  679.8524
 397  782.137
 398  778.5568
 399  689.5981
 400  600.355
 401  628.4043
 402  615.2871
 403  737.0563
 404  657.5148
 405  640.2707
 406  647.8221
 407  567.2477
 408  644.3319
 409  604.23
 410  642.5343
 411  586.312
 412  574.209
 413  621.0053
 414  668.9861
 415  697.2484
 416  598.1434
 417  547.3083
 418  572.8001
 419  554.9376
 420  590.7612
 421  656.2349
 422  724.6299
 423  630.4507
 424  513.4685
 425  543.1406
 426  692.5681
 427  771.0009
 428  839.8049
 429  744.256
 430  649.5428
 431  616.7347
 432  618.2381
 433  697.4268
 434  699.4428
 435  724.1191
 436  855.1399
 437  645.664
 438  608.9307
 439  713.9628
 440  566.2864
 441  563.8339
 442  588.8865
 443  562.2205
 444  530.139
 445  524.2028
 446  616.6032
 447  637.8301
 448  563.3834
 449  721.6069
 450  636.613
 451  556.3259
 452  638.1851
 453  582.6199
 454  550.0522
 455  486.0367
 456  626.0988
 457  685.0537
 458  674.613
 459  624.6389
 460  667.759
 461  679.0117
 462  537.1735
 463  712.2606
 464  684.8658
 465  609.3799
 466  616.248
 467  608.6767
 468  605.5553
 469  631.0291
 470  591.4798
 471  674.295
 472  644.704
 473  619.7318
 474  629.7967
 475  647.3453
 476  645.1535
 477  587.7006
 478  636.382
 479  589.2581
 480  603.0396
 481  606.4135
 482  576.53
 483  568.0096
 484  568.3149
 485  635.5042
 486  721.9427
 487  587.0411
 488  564.0573
 489  601.0421
 490  633.6315
 491  673.2617
 492  652.394
 493  688.9075
 494  654.5369
 495  652.4775
 496  652.269
 497  707.4572
 498  640.7303
 499  671.5251
 500  717.1503
 501  717.8502
 502  617.2279
 503  619.1199
 504  672.1495
 505  739.9686
 506  693.1765
 507  758.9586
 508  880.0709
 509  934.6988
 510  1092.602
 511  1081.51
