# Input file       =  1194726807.10001_cleaned.dat
# Candidate        =  PSR_0332+5434
# Telescope        =  AR
# Epoch_topo       =  58071.856783564930
# Epoch_bary       =  N/A
# T_sample         =  0.002
# Data Folded      =  7340032
# Data Avg         =  0.147141001729843
# Data StdDev      =  3.88274009778604 
# Profile Bins     =  1024
# Profile Avg      =  1054.74766443789 
# Profile StdDev   =  328.728470535695 
# Reduced chi-sqr  =  0.632
# Prob(Noise)      <  1   (~0.0 sigma)
# P_topo (ms)      =  714.509060020277  +/- 0.000532
# P'_topo (s/s)    =  -0                +/- 2.81e-10
# P''_topo (s/s^2) =  0                 +/- 1.24e-13
# P_bary (ms)      =  N/A
# P'_bary (s/s)    =  N/A
# P''_bary (s/s^2) =  N/A
# P_orb (s)        =  N/A
# asin(i)/c (s)    =  N/A
# eccentricity     =  N/A
# w (rad)          =  N/A
# T_peri           =  N/A
######################################################
   0  1251.28
   1  1202.091
   2  1174.073
   3  1149.644
   4  1151.57
   5  1100.875
   6  1050.217
   7  1209.089
   8  1310.014
   9  1351.912
  10  1225.873
  11  1120.128
  12  1077.794
  13  1091.15
  14  1169.804
  15  1208.893
  16  1121.612
  17  1060.173
  18  1107.95
  19  1102.379
  20  1016.039
  21  914.6665
  22  856.1963
  23  921.4506
  24  963.3448
  25  930.1441
  26  731.7739
  27  702.8402
  28  755.9825
  29  845.3358
  30  761.425
  31  798.4828
  32  900.825
  33  1012.703
  34  925.8651
  35  805.8977
  36  788.0422
  37  851.1211
  38  942.5653
  39  1000.165
  40  1019.463
  41  952.4384
  42  734.2417
  43  744.3152
  44  724.2822
  45  808.0628
  46  856.3234
  47  816.9761
  48  832.0804
  49  855.6727
  50  1013.572
  51  1000.537
  52  1032.581
  53  1005.388
  54  1045.474
  55  1045.94
  56  1085.176
  57  994.192
  58  1006.095
  59  1057.06
  60  1099.154
  61  1055.357
  62  994.1819
  63  1094.615
  64  1133.96
  65  1047.688
  66  913.6025
  67  901.1653
  68  959.4816
  69  998.4248
  70  1096.337
  71  1093.298
  72  1068.084
  73  1092.893
  74  1162.312
  75  1091.593
  76  1138.661
  77  1221.683
  78  1384.14
  79  1358.335
  80  1283.523
  81  1141.924
  82  1130.588
  83  1097.828
  84  1179.749
  85  1180.198
  86  1273.905
  87  1291.789
  88  1286.581
  89  1070.911
  90  823.249
  91  887.9632
  92  1030.04
  93  1069.098
  94  1044.391
  95  908.2703
  96  893.5097
  97  941.4395
  98  993.8126
  99  963.5405
 100  944.2913
 101  1044.944
 102  1029.545
 103  1035.789
 104  972.1673
 105  956.9078
 106  938.8191
 107  944.0857
 108  1019.296
 109  966.8755
 110  940.2646
 111  919.9427
 112  1060.824
 113  1087.833
 114  1165.585
 115  1233.779
 116  1306.213
 117  1252.205
 118  1183.664
 119  1170.053
 120  1224.35
 121  1064.189
 122  980.2999
 123  903.5027
 124  958.4824
 125  907.2555
 126  975.9435
 127  1076.455
 128  1060.242
 129  1089.034
 130  1153.521
 131  1162.292
 132  1098.706
 133  1076.529
 134  1114.997
 135  1097.726
 136  1062.021
 137  1103.435
 138  1056.173
 139  1079.789
 140  986.1715
 141  1008.14
 142  1119.716
 143  1093.47
 144  1134.137
 145  1209.336
 146  1279.917
 147  1272.874
 148  1094.737
 149  1042.379
 150  890.7603
 151  1034.032
 152  1188.902
 153  1235.975
 154  1136.191
 155  1082.979
 156  1223.914
 157  1177.431
 158  1089.979
 159  944.5555
 160  981.183
 161  975.4388
 162  1027.824
 163  984.7136
 164  1013.656
 165  1070.65
 166  1137.313
 167  1148.739
 168  1083.191
 169  1018.935
 170  1085.893
 171  1148.534
 172  1182.775
 173  1054.082
 174  1097.036
 175  933.9005
 176  895.3197
 177  917.304
 178  1008.564
 179  972.9875
 180  905.1738
 181  1038.831
 182  1139.011
 183  1194.169
 184  1234.631
 185  1262.347
 186  1268.032
 187  1134.871
 188  1074.52
 189  1193.41
 190  1174.173
 191  1085.794
 192  1031.753
 193  1074.438
 194  1142.402
 195  1148.847
 196  1128.954
 197  995.8843
 198  883.016
 199  1005.865
 200  1111.873
 201  1286.849
 202  1236.015
 203  1189.441
 204  1161.387
 205  1121.367
 206  1091.096
 207  981.0824
 208  933.1503
 209  886.4819
 210  890.507
 211  971.8898
 212  965.5051
 213  1058.686
 214  1094.948
 215  1144.506
 216  1040.63
 217  964.0263
 218  988.1583
 219  1119.885
 220  1160.866
 221  1058.731
 222  1091.301
 223  1046.031
 224  1081.526
 225  1041.739
 226  1079.208
 227  1095.459
 228  1022.304
 229  940.1788
 230  898.6741
 231  942.3438
 232  1011.793
 233  1031.023
 234  1099.307
 235  1127.557
 236  1042.297
 237  993.3414
 238  1014.19
 239  1227.703
 240  1181.736
 241  1110.115
 242  978.3222
 243  1016.437
 244  1026.183
 245  1062.522
 246  1119.633
 247  1155.659
 248  1138.346
 249  1153.043
 250  1153.372
 251  1122.893
 252  1083.544
 253  1096.881
 254  1173.482
 255  1188.339
 256  1164.696
 257  1173.987
 258  1184.709
 259  1204.339
 260  1173.526
 261  1158.476
 262  1191.169
 263  1215.684
 264  1230.928
 265  1173.476
 266  1187.64
 267  1154.195
 268  1002.115
 269  937.9485
 270  1031.589
 271  1163.938
 272  1070.797
 273  977.2898
 274  907.0029
 275  958.0364
 276  1071.333
 277  1125.612
 278  1080.264
 279  1007.933
 280  1020.966
 281  1028.18
 282  1017.906
 283  1036.693
 284  1039.446
 285  1192.537
 286  1271.641
 287  1271.656
 288  1223.984
 289  1120.131
 290  1139.26
 291  1070.989
 292  1125.06
 293  1045.014
 294  1085.304
 295  1131.074
 296  1191.116
 297  1199.96
 298  1278.71
 299  1293.709
 300  1326.248
 301  1244.436
 302  1184.393
 303  1114.133
 304  1166.204
 305  1192.69
 306  1204.276
 307  1185.536
 308  1196.973
 309  1162.709
 310  1074.564
 311  1094.228
 312  1179.479
 313  1233.186
 314  1290.089
 315  1329.135
 316  1289.639
 317  1166.349
 318  1079.391
 319  1092.574
 320  1153.005
 321  1173.432
 322  1103.328
 323  1065.092
 324  1147.494
 325  1206.421
 326  1232.48
 327  1126.356
 328  1065.465
 329  1007.446
 330  966.157
 331  1000.936
 332  1048.763
 333  1142.246
 334  1170.052
 335  1156.12
 336  1005.316
 337  928.3113
 338  1011.564
 339  1119.146
 340  1139.685
 341  1040.393
 342  983.9237
 343  806.7916
 344  674.1415
 345  666.2656
 346  739.8033
 347  888.8027
 348  999.9594
 349  1130.173
 350  1194.457
 351  1163.732
 352  1194.573
 353  1058.909
 354  1020.248
 355  934.3196
 356  1043.17
 357  1035.917
 358  996.8468
 359  1092.538
 360  1193.345
 361  1178.23
 362  1095.5
 363  1085.389
 364  1090.73
 365  1069.789
 366  992.7365
 367  966.979
 368  952.1678
 369  940.1251
 370  1006.753
 371  1018.887
 372  1086.418
 373  1094.088
 374  1085.796
 375  1061.645
 376  1045.279
 377  1051.129
 378  972.5137
 379  1055.012
 380  1176.68
 381  1232.613
 382  1169.241
 383  1116.593
 384  1137.754
 385  1121.865
 386  1065.208
 387  976.4287
 388  936.9203
 389  922.9314
 390  886.4199
 391  962.1455
 392  1003.454
 393  1069.826
 394  988.2064
 395  935.3192
 396  892.0053
 397  949.8439
 398  1030.81
 399  1156.23
 400  1153.231
 401  1105.794
 402  1055.563
 403  1071.213
 404  1028.385
 405  980.8104
 406  970.2524
 407  984.2511
 408  1030.379
 409  1062.348
 410  1032.296
 411  1018.28
 412  1013.974
 413  1046.436
 414  1035.103
 415  1057.133
 416  1096.122
 417  1158.459
 418  1022.569
 419  890.221
 420  812.7672
 421  826.347
 422  893.9003
 423  919.1313
 424  1000.618
 425  1004.63
 426  937.5739
 427  803.761
 428  790.5773
 429  851.066
 430  874.1885
 431  912.8308
 432  1025.847
 433  1062.994
 434  1081.853
 435  1082.555
 436  1144.519
 437  1206.64
 438  1119.748
 439  978.1368
 440  986.0114
 441  1157.279
 442  1257.063
 443  1112.315
 444  998.0289
 445  976.5269
 446  1031.733
 447  1001.32
 448  1019.856
 449  1074.673
 450  1143.548
 451  1062.694
 452  1118.613
 453  1182.248
 454  1324.377
 455  1330.864
 456  1417.635
 457  1445.318
 458  1379.815
 459  1125.235
 460  947.0659
 461  983.9059
 462  1160.287
 463  1212.987
 464  1308.828
 465  1202.174
 466  1158.329
 467  1103.806
 468  1011.426
 469  962.415
 470  902.619
 471  954.3251
 472  991.0732
 473  1062.61
 474  1060.904
 475  1082.216
 476  1055.596
 477  1081.499
 478  1088.89
 479  1033
 480  1047.24
 481  1053.941
 482  1157.375
 483  1168.207
 484  1097.05
 485  1064.596
 486  988.4162
 487  996.3531
 488  870.0366
 489  961.5607
 490  1025.622
 491  1199.783
 492  1132.318
 493  1087.301
 494  1055.358
 495  1070.833
 496  1088.185
 497  1067.253
 498  1085.611
 499  1030.064
 500  1050.384
 501  1153.78
 502  1228.348
 503  1236.934
 504  1172.946
 505  1193.75
 506  1184.54
 507  1153.619
 508  1059.706
 509  1003.588
 510  1051.046
 511  1093.57
 512  1146.068
 513  1115.674
 514  1133.635
 515  1083.916
 516  1175.868
 517  1136.126
 518  1042.686
 519  991.2003
 520  1048.704
 521  1175.656
 522  1193.951
 523  1202.26
 524  1237.455
 525  1207.37
 526  1144.033
 527  1131.251
 528  1057.823
 529  954.3071
 530  940.1577
 531  966.6827
 532  1024.898
 533  1082.105
 534  1201.791
 535  1144.885
 536  1090.169
 537  1054.21
 538  993.0323
 539  973.0703
 540  818.9486
 541  742.2415
 542  723.6525
 543  752.2964
 544  867.0365
 545  934.8604
 546  1093.096
 547  1150.593
 548  1098.365
 549  1012.972
 550  987.5085
 551  1007.146
 552  1082.652
 553  1074.457
 554  968.2197
 555  926.2923
 556  912.2114
 557  944.2462
 558  966.0728
 559  831.8944
 560  790.8984
 561  753.0346
 562  939.6509
 563  1183.226
 564  1183.524
 565  1008.807
 566  880.0908
 567  975.9373
 568  1023.823
 569  1075.282
 570  1088.889
 571  1184.618
 572  1229.9
 573  1293.304
 574  1379.187
 575  1334.565
 576  1275.141
 577  1213.98
 578  1185.871
 579  1141.081
 580  995.0587
 581  981.1346
 582  1142.882
 583  1325.169
 584  1298.562
 585  1326.293
 586  1303.544
 587  1327.648
 588  1329.759
 589  1421.334
 590  1436.589
 591  1360.822
 592  1199.104
 593  1068.217
 594  1005.339
 595  1026.639
 596  1064.175
 597  1046.519
 598  1039.423
 599  954.9689
 600  847.1671
 601  857.8463
 602  1015.952
 603  1095.489
 604  1198.009
 605  1127.564
 606  1132.897
 607  1144.313
 608  1033.071
 609  880.918
 610  859.4702
 611  964.1213
 612  1172.467
 613  1212.173
 614  1313.872
 615  1174.828
 616  1205.462
 617  1289.536
 618  1275.061
 619  1215.856
 620  1176.801
 621  1283.307
 622  1300.199
 623  1325.962
 624  1340.634
 625  1387.715
 626  1470.162
 627  1536.83
 628  1642.147
 629  1720.226
 630  1720.354
 631  1707.054
 632  1654.032
 633  1605.904
 634  1596.778
 635  1582.834
 636  1467.778
 637  1260.15
 638  1133.754
 639  1096.965
 640  972.5859
 641  973.0675
 642  972.4542
 643  1085.221
 644  1160.728
 645  1161.201
 646  1034.108
 647  950.0067
 648  966.7481
 649  965.1224
 650  1107.638
 651  986.8948
 652  1062.323
 653  987.2729
 654  1019.247
 655  962.1829
 656  1006.485
 657  1127.86
 658  1097.402
 659  1069.567
 660  1066.09
 661  1095.908
 662  1111.802
 663  1072.849
 664  1056.297
 665  1017.037
 666  977.4929
 667  860.0291
 668  891.7163
 669  868.4476
 670  894.7136
 671  897.7239
 672  923.2335
 673  830.4222
 674  745.6796
 675  717.5702
 676  797.3307
 677  706.8679
 678  671.5927
 679  683.9819
 680  837.6028
 681  984.0193
 682  1041.07
 683  957.1453
 684  893.4443
 685  755.1113
 686  861.3023
 687  842.904
 688  1000.851
 689  1021.074
 690  1159.692
 691  1076.646
 692  1042.602
 693  1084.102
 694  1088.064
 695  1040.901
 696  1029.488
 697  1158.869
 698  1112.386
 699  1037.654
 700  1067.757
 701  1025.837
 702  891.7172
 703  823.7773
 704  854.5548
 705  863.8609
 706  891.8521
 707  929.6786
 708  1091.767
 709  1137.552
 710  1120.03
 711  1142.882
 712  1175.467
 713  1139.119
 714  1015.482
 715  876.6958
 716  831.6484
 717  886.7975
 718  961.5712
 719  1078.373
 720  1076.8
 721  1015.332
 722  949.1118
 723  865.4764
 724  816.0239
 725  835.7401
 726  844.2565
 727  922.0408
 728  1005.734
 729  1109.131
 730  1122.482
 731  1008.242
 732  838.1973
 733  912.3439
 734  929.4943
 735  1102.372
 736  1214.649
 737  1272.725
 738  1136.013
 739  1071.46
 740  1198.903
 741  1292.762
 742  1194.748
 743  1211.137
 744  1138.923
 745  1082.675
 746  860.5503
 747  759.1723
 748  763.3259
 749  862.7128
 750  910.1672
 751  1007.998
 752  962.9537
 753  978.9828
 754  967.8197
 755  1015.738
 756  1025.48
 757  1089.408
 758  1112.173
 759  1029.005
 760  857.0219
 761  938.9476
 762  938.3498
 763  998.8635
 764  1086.789
 765  1218.833
 766  1208.604
 767  1008.942
 768  899.8354
 769  794.9269
 770  859.8705
 771  923.1307
 772  1069.262
 773  993.8763
 774  961.0025
 775  973.2039
 776  1060.045
 777  1017.786
 778  974.1903
 779  1064.503
 780  1078.863
 781  1006.849
 782  974.8162
 783  968.0723
 784  987.8877
 785  1014.019
 786  1046.721
 787  1028.356
 788  1002.368
 789  1049.683
 790  963.5451
 791  874.3345
 792  827.0166
 793  881.1699
 794  956.0521
 795  956.3149
 796  980.652
 797  1118.495
 798  1168.002
 799  1056.575
 800  947.2382
 801  980.0927
 802  965.6962
 803  1022.576
 804  921.844
 805  947.7441
 806  963.705
 807  1013.186
 808  929.8401
 809  901.504
 810  896.9659
 811  935.5282
 812  832.2037
 813  758.62
 814  781.47
 815  921.4707
 816  1019.757
 817  1110.138
 818  998.7167
 819  1088.147
 820  1049.648
 821  1094.533
 822  1047.795
 823  1083.504
 824  1134.964
 825  1029.598
 826  1016.584
 827  1036.498
 828  1154.497
 829  1184.419
 830  1150.659
 831  1195.104
 832  1186.355
 833  1115.745
 834  966.6695
 835  907.2511
 836  888.9794
 837  896.6578
 838  936.8345
 839  1013.757
 840  1057.384
 841  1131.707
 842  1123.093
 843  1169.246
 844  1140.268
 845  1122.106
 846  1043.529
 847  1027.157
 848  1065.146
 849  1166.254
 850  1246.172
 851  1311.755
 852  1387.235
 853  1255.488
 854  1062.993
 855  819.1356
 856  868.9977
 857  936.8935
 858  989.6817
 859  952.4125
 860  989.8314
 861  995.6585
 862  1027.853
 863  1022.523
 864  1126.684
 865  1166.234
 866  1140.812
 867  1096.438
 868  1061.634
 869  1053.077
 870  1029.083
 871  1043.012
 872  1018.819
 873  1047.396
 874  995.2952
 875  1027.926
 876  1006.245
 877  1018.184
 878  1038.01
 879  1034.191
 880  1027.752
 881  1098.849
 882  1133.599
 883  1119.191
 884  1037.876
 885  1037.509
 886  1057.735
 887  1030.025
 888  921.6191
 889  898.3579
 890  962.5573
 891  1049.956
 892  1035.372
 893  978.4152
 894  959.2543
 895  966.0778
 896  1035.61
 897  1052.262
 898  1084.898
 899  1026.514
 900  1055.593
 901  1054.298
 902  1096.264
 903  951.3926
 904  899.3033
 905  977.3997
 906  846.7767
 907  863.6285
 908  859.4312
 909  1065.628
 910  1080.629
 911  1062.263
 912  932.2233
 913  1012.282
 914  1135.154
 915  1215.044
 916  1017.914
 917  944.0264
 918  1021.828
 919  1046.45
 920  1023.398
 921  1105.523
 922  1110.509
 923  1184.711
 924  1134.495
 925  1160.071
 926  1096.964
 927  1110.858
 928  1172.293
 929  1270.571
 930  1307.511
 931  1203.708
 932  1093.493
 933  1023.608
 934  1108.937
 935  1128.687
 936  1219.92
 937  1259.548
 938  1267.347
 939  1128.054
 940  1061.51
 941  1007.39
 942  987.8826
 943  966.1874
 944  998.0381
 945  1028.919
 946  1070.847
 947  1117.033
 948  1082.103
 949  1095.06
 950  1023.456
 951  980.3494
 952  908.5323
 953  809.9412
 954  923.5051
 955  976.8102
 956  1111.85
 957  1060.248
 958  1058.586
 959  1021.052
 960  927.3127
 961  811.5361
 962  749.2398
 963  723.6138
 964  599.4724
 965  531.0582
 966  533.662
 967  710.8463
 968  839.8403
 969  824.3574
 970  931.037
 971  946.6405
 972  1012.427
 973  955.3126
 974  937.0019
 975  939.2015
 976  866.5591
 977  814.9466
 978  710.1692
 979  719.2095
 980  769.5125
 981  777.6588
 982  849.332
 983  843.0095
 984  836.7575
 985  904.3043
 986  1024.567
 987  1002.172
 988  969.8475
 989  989.9023
 990  1007.753
 991  1017.26
 992  937.9384
 993  928.7366
 994  818.3297
 995  891.2329
 996  879.0411
 997  986.5018
 998  986.0058
 999  1121.207
1000  1104.346
1001  1115.126
1002  1151.618
1003  1146.222
1004  1054.79
1005  1020.343
1006  1154.057
1007  1155.792
1008  1112.859
1009  1160.022
1010  1257.277
1011  1279.47
1012  1118.764
1013  1108.793
1014  1073.491
1015  1162.652
1016  1248.37
1017  1281.078
1018  1208.307
1019  1076.624
1020  1045.317
1021  1013.311
1022  1096.8
1023  1115.616
