# Input file       =  1194970650.113932_cleaned.dat
# Candidate        =  PSR_0332+5434
# Telescope        =  AR
# Epoch_topo       =  58074.679040670511
# Epoch_bary       =  N/A
# T_sample         =  0.002
# Data Folded      =  7143424
# Data Avg         =  0.0999673054638694
# Data StdDev      =  1.00050829157495 
# Profile Bins     =  512
# Profile Avg      =  1394.83377635607 
# Profile StdDev   =  118.178623163204 
# Reduced chi-sqr  =  0.673
# Prob(Noise)      <  1   (~0.0 sigma)
# P_topo (ms)      =  714.511900629882  +/- 5.51e-05
# P'_topo (s/s)    =  -0                +/- 2.99e-11
# P''_topo (s/s^2) =  0                 +/- 1.36e-14
# P_bary (ms)      =  N/A
# P'_bary (s/s)    =  N/A
# P''_bary (s/s^2) =  N/A
# P_orb (s)        =  N/A
# asin(i)/c (s)    =  N/A
# eccentricity     =  N/A
# w (rad)          =  N/A
# T_peri           =  N/A
######################################################
   0  1498.122
   1  1499.456
   2  1347.787
   3  1353.669
   4  1444.037
   5  1320.555
   6  1404.29
   7  1470.148
   8  1429.999
   9  1336.062
  10  1440.372
  11  1421.957
  12  1370.579
  13  1198.207
  14  1360.987
  15  1444.984
  16  1514.151
  17  1368.023
  18  1289.436
  19  1261.482
  20  1210.885
  21  1296.901
  22  1390.698
  23  1432.278
  24  1460.904
  25  1417.541
  26  1437.917
  27  1357.827
  28  1262.718
  29  1357.558
  30  1467.965
  31  1401.8
  32  1413.387
  33  1394.601
  34  1380.701
  35  1274.782
  36  1391.667
  37  1409.235
  38  1301.523
  39  1341.108
  40  1424.818
  41  1518.309
  42  1402.305
  43  1372.272
  44  1388.098
  45  1368.163
  46  1357.84
  47  1443.601
  48  1401.328
  49  1379.039
  50  1385.911
  51  1332.705
  52  1227.298
  53  1287.734
  54  1341.184
  55  1346.38
  56  1404.495
  57  1420.457
  58  1404.869
  59  1383.708
  60  1258.123
  61  1309.065
  62  1394.817
  63  1359.325
  64  1412.547
  65  1365.585
  66  1424.269
  67  1329.718
  68  1455.271
  69  1435.113
  70  1418.487
  71  1508.37
  72  1511.511
  73  1350.517
  74  1268.323
  75  1283.442
  76  1353.781
  77  1374.604
  78  1355.113
  79  1451.007
  80  1471.375
  81  1396.059
  82  1329.397
  83  1395.338
  84  1432.432
  85  1420.559
  86  1364.214
  87  1389.605
  88  1382.262
  89  1381.256
  90  1466.031
  91  1460.206
  92  1482.422
  93  1412.497
  94  1421.545
  95  1402.598
  96  1365.026
  97  1404.728
  98  1486.595
  99  1454.852
 100  1372.063
 101  1465.66
 102  1483.621
 103  1339.04
 104  1271.673
 105  1417.501
 106  1424.181
 107  1426.921
 108  1434.992
 109  1374.642
 110  1330.198
 111  1346.26
 112  1382.196
 113  1382.148
 114  1398.727
 115  1388.479
 116  1407.244
 117  1459.188
 118  1399.882
 119  1299.65
 120  1272.807
 121  1301.481
 122  1433.78
 123  1417.06
 124  1390.884
 125  1385.532
 126  1365.12
 127  1427.236
 128  1396.857
 129  1275.873
 130  1326.666
 131  1341.929
 132  1338.884
 133  1446.976
 134  1471.315
 135  1403.076
 136  1390.969
 137  1413.94
 138  1491.799
 139  1411.579
 140  1384.484
 141  1368.617
 142  1271.628
 143  1390.047
 144  1535.805
 145  1499.198
 146  1413.837
 147  1486.134
 148  1596.262
 149  1501.833
 150  1383.917
 151  1306.686
 152  1318.993
 153  1370.574
 154  1417.464
 155  1341.633
 156  1293.604
 157  1313.56
 158  1425.938
 159  1508.539
 160  1397.951
 161  1321.283
 162  1330.878
 163  1405.998
 164  1393.676
 165  1388.984
 166  1374.579
 167  1365.51
 168  1293.214
 169  1353.178
 170  1383.173
 171  1473.66
 172  1499.771
 173  1623.839
 174  1693.721
 175  1704.65
 176  1651.804
 177  1556.196
 178  1447.333
 179  1441.284
 180  1521.312
 181  1446.116
 182  1432.425
 183  1505.321
 184  1413.606
 185  1356.499
 186  1391.076
 187  1472.012
 188  1474.133
 189  1452.808
 190  1445.628
 191  1398.285
 192  1431.049
 193  1449.859
 194  1415.836
 195  1420.522
 196  1377.673
 197  1349.303
 198  1366
 199  1376.223
 200  1297.34
 201  1317.646
 202  1332.095
 203  1299.053
 204  1328.784
 205  1404.183
 206  1426.536
 207  1305.169
 208  1383.912
 209  1406.446
 210  1377.056
 211  1415.849
 212  1435.363
 213  1433.015
 214  1371.887
 215  1327.056
 216  1404.529
 217  1376.457
 218  1324.817
 219  1333.386
 220  1372.605
 221  1396.219
 222  1483.015
 223  1495.361
 224  1364.603
 225  1307.496
 226  1447.786
 227  1536.441
 228  1429.002
 229  1452.296
 230  1398.676
 231  1348.846
 232  1306.867
 233  1390.973
 234  1375.756
 235  1343.127
 236  1370.004
 237  1352.345
 238  1355.807
 239  1291.099
 240  1371.762
 241  1411.761
 242  1387.253
 243  1277.745
 244  1294.725
 245  1391.778
 246  1436.226
 247  1391.333
 248  1499.169
 249  1474.911
 250  1526.383
 251  1513.044
 252  1441.086
 253  1368.495
 254  1391.164
 255  1453.359
 256  1389.016
 257  1344.199
 258  1284.63
 259  1287.706
 260  1396.339
 261  1366.816
 262  1490.239
 263  1491.794
 264  1471.201
 265  1434.497
 266  1355.794
 267  1387.66
 268  1314.017
 269  1393.449
 270  1380.58
 271  1339.086
 272  1321.09
 273  1289.68
 274  1281.249
 275  1344.799
 276  1388.223
 277  1445.852
 278  1321.306
 279  1260.479
 280  1320.44
 281  1343.372
 282  1277.505
 283  1168.835
 284  1325.709
 285  1369.899
 286  1349.758
 287  1291.687
 288  1307.426
 289  1310.604
 290  1275.116
 291  1380.495
 292  1350.495
 293  1400.439
 294  1472.036
 295  1448.091
 296  1503.005
 297  1447.679
 298  1388.486
 299  1362.697
 300  1369.122
 301  1458.01
 302  1514.877
 303  1449.683
 304  1434.956
 305  1412.265
 306  1417.426
 307  1400.517
 308  1313.721
 309  1370.993
 310  1435.516
 311  1405.293
 312  1471.065
 313  1491.275
 314  1402.803
 315  1388.803
 316  1358.867
 317  1360.317
 318  1446.804
 319  1464.737
 320  1395.21
 321  1222.591
 322  1326.887
 323  1415.032
 324  1451.147
 325  1263.691
 326  1192.879
 327  1248.806
 328  1406.504
 329  1374.323
 330  1426.97
 331  1474.463
 332  1409.06
 333  1419.76
 334  1459.638
 335  1350.43
 336  1347.743
 337  1417.524
 338  1397.488
 339  1359.968
 340  1271.241
 341  1300.481
 342  1403.445
 343  1394.823
 344  1390.221
 345  1252.994
 346  1326.774
 347  1362.769
 348  1437.23
 349  1370.862
 350  1316.239
 351  1400.227
 352  1453.921
 353  1416.772
 354  1344.595
 355  1313.812
 356  1311.896
 357  1263.958
 358  1402.116
 359  1501.992
 360  1501.737
 361  1420.594
 362  1423.215
 363  1438.054
 364  1362.599
 365  1437.982
 366  1473.713
 367  1415.881
 368  1407.08
 369  1494.883
 370  1487.807
 371  1405.016
 372  1355.028
 373  1342.193
 374  1339.927
 375  1355.534
 376  1477.275
 377  1473.261
 378  1415.622
 379  1376.434
 380  1458.321
 381  1501.114
 382  1339.465
 383  1287.253
 384  1275.255
 385  1367.777
 386  1389.526
 387  1338.734
 388  1408.327
 389  1464.084
 390  1445.294
 391  1446.341
 392  1428.716
 393  1461.491
 394  1460.126
 395  1490.977
 396  1396.183
 397  1307.569
 398  1444.628
 399  1452.669
 400  1468.091
 401  1464.829
 402  1442.516
 403  1395.395
 404  1551.819
 405  1490.039
 406  1441.469
 407  1380.422
 408  1325.692
 409  1425.124
 410  1403.871
 411  1471.921
 412  1562.823
 413  1478.516
 414  1409.636
 415  1308.862
 416  1390.487
 417  1420.296
 418  1392.483
 419  1426.723
 420  1467.59
 421  1375.217
 422  1293.522
 423  1432.518
 424  1494.818
 425  1358.653
 426  1335.855
 427  1359.238
 428  1401.704
 429  1386.611
 430  1368.194
 431  1397.047
 432  1408.434
 433  1346.415
 434  1367.455
 435  1366.704
 436  1319.396
 437  1461.886
 438  1517.858
 439  1494.996
 440  1469.072
 441  1478.726
 442  1446.007
 443  1340.186
 444  1320.45
 445  1451.595
 446  1443.746
 447  1444.804
 448  1453.638
 449  1425.097
 450  1307.036
 451  1323.29
 452  1411.398
 453  1375.391
 454  1272.942
 455  1405.943
 456  1435.639
 457  1353.422
 458  1310.731
 459  1394.695
 460  1453.499
 461  1454.064
 462  1373.975
 463  1376.368
 464  1347.02
 465  1389.859
 466  1342.125
 467  1345.263
 468  1391.892
 469  1411.539
 470  1403.542
 471  1345.411
 472  1260.436
 473  1278.833
 474  1332.974
 475  1370.38
 476  1398.002
 477  1485.514
 478  1508.184
 479  1337.076
 480  1387.978
 481  1359.417
 482  1348.721
 483  1317.345
 484  1357.675
 485  1456.762
 486  1442.591
 487  1405.232
 488  1394.472
 489  1343.88
 490  1291.561
 491  1375.58
 492  1408.487
 493  1350.439
 494  1445.144
 495  1444.168
 496  1469.609
 497  1493.174
 498  1401.53
 499  1404.522
 500  1361.004
 501  1327.826
 502  1398.875
 503  1420.164
 504  1456.3
 505  1416.329
 506  1448.495
 507  1403.291
 508  1445.873
 509  1496.728
 510  1491.922
 511  1423.179
