# Input file       =  1194467733.106676_cleaned.dat
# Candidate        =  PSR_0332+5434
# Telescope        =  AR
# Epoch_topo       =  58068.858241975417
# Epoch_bary       =  N/A
# T_sample         =  0.002
# Data Folded      =  7340032
# Data Avg         =  0.0877618396979023
# Data StdDev      =  3.48203572302597 
# Profile Bins     =  512
# Profile Avg      =  1257.65637459089 
# Profile StdDev   =  416.914709890267 
# Reduced chi-sqr  =  0.782
# Prob(Noise)      <  1   (~0.0 sigma)
# P_topo (ms)      =  714.506052460964  +/- 0.00047
# P'_topo (s/s)    =  -0                +/- 2.48e-10
# P''_topo (s/s^2) =  0                 +/- 1.1e-13
# P_bary (ms)      =  N/A
# P'_bary (s/s)    =  N/A
# P''_bary (s/s^2) =  N/A
# P_orb (s)        =  N/A
# asin(i)/c (s)    =  N/A
# eccentricity     =  N/A
# w (rad)          =  N/A
# T_peri           =  N/A
######################################################
   0  1414.484
   1  1535.843
   2  1487.898
   3  1650.253
   4  1527.775
   5  1408.916
   6  973.2636
   7  1355.939
   8  1704.573
   9  1479.865
  10  1052.908
  11  1276.671
  12  1245.526
  13  1151.38
  14  1147.34
  15  1317.956
  16  1368.497
  17  1462.172
  18  1499.182
  19  1270.421
  20  1142.777
  21  1244.503
  22  1220.968
  23  1382.208
  24  1455.391
  25  1461.194
  26  1131.4
  27  748.1788
  28  907.1233
  29  859.5406
  30  1053.457
  31  998.8771
  32  1320.698
  33  1432.096
  34  1128.301
  35  1033.868
  36  1200.234
  37  1162.456
  38  764.4572
  39  1166.715
  40  1538.832
  41  1464.382
  42  1353.703
  43  1199.953
  44  1325.607
  45  1079.506
  46  1466.263
  47  1411.938
  48  1085.54
  49  1221.073
  50  1324.582
  51  1555.507
  52  1311.168
  53  1333.535
  54  1403.939
  55  1429.799
  56  1082.237
  57  1114.357
  58  1248.386
  59  1088.325
  60  865.7479
  61  971.0317
  62  911.177
  63  1128.369
  64  1313.253
  65  1401.26
  66  1196.798
  67  1230.892
  68  1070.594
  69  1342.097
  70  1303.947
  71  929.848
  72  1027.144
  73  989.4152
  74  1064.589
  75  1177.44
  76  1067.366
  77  871.9113
  78  1075.988
  79  1363.156
  80  1450.91
  81  1199.929
  82  1693.13
  83  1777.233
  84  1350.993
  85  1348.917
  86  1362.883
  87  1305.452
  88  1246.264
  89  1392.897
  90  1762.785
  91  1665.616
  92  1368.326
  93  1628.959
  94  1668.344
  95  1416.349
  96  1227.313
  97  1412.006
  98  1592.854
  99  1471.47
 100  1459.589
 101  1366.084
 102  1501.192
 103  1270.416
 104  1132.615
 105  1155.956
 106  1218.315
 107  1368.827
 108  1432.042
 109  1496.827
 110  1463.912
 111  1310.12
 112  1483.451
 113  1312.014
 114  1128.713
 115  1091.089
 116  1140.875
 117  1290.371
 118  1254.787
 119  1492.461
 120  1051.268
 121  1111.171
 122  952.1455
 123  1172.49
 124  1316.063
 125  1517.415
 126  1447.144
 127  1497.488
 128  1387.309
 129  1411.256
 130  1280.391
 131  1107.842
 132  1101.393
 133  1172.519
 134  1087.295
 135  1087.729
 136  1148.195
 137  1089.25
 138  1166.768
 139  1227.429
 140  1312.278
 141  1271.636
 142  1277.812
 143  1127.818
 144  1440.308
 145  1493.294
 146  1257.437
 147  968.6555
 148  1088.519
 149  1126.57
 150  1308.177
 151  1302.448
 152  936.2831
 153  1394.254
 154  1059.46
 155  656.045
 156  587.7822
 157  926.3859
 158  1222.95
 159  1224.498
 160  1143.453
 161  1318.282
 162  1203.719
 163  1187.387
 164  1163.4
 165  1100.694
 166  1468.81
 167  1332.584
 168  970.4827
 169  936.4796
 170  1397.905
 171  1157.104
 172  1124.32
 173  1071.011
 174  1183.544
 175  1149.801
 176  821.1859
 177  1111.473
 178  1155.355
 179  1279.114
 180  1013.961
 181  1026.616
 182  1349.395
 183  1174.149
 184  836.1742
 185  1019.006
 186  1204.305
 187  1565.995
 188  1351.749
 189  1155.738
 190  958.6656
 191  1457.878
 192  1366.311
 193  896.066
 194  631.3647
 195  820.1453
 196  1143.413
 197  1327.655
 198  1737.819
 199  1721.456
 200  1498.077
 201  1500.305
 202  1447.423
 203  1455.577
 204  1611.765
 205  1543.856
 206  1611.966
 207  1337.644
 208  1452.755
 209  1455.186
 210  1382.844
 211  916.2037
 212  975.2015
 213  1070.721
 214  960.3115
 215  1307.439
 216  1433.662
 217  1398.293
 218  1238.528
 219  815.153
 220  678.5414
 221  1101.096
 222  1268.266
 223  1146.024
 224  951.1536
 225  1288.768
 226  1167.245
 227  1280.921
 228  1390.507
 229  1223.427
 230  1033.52
 231  1205.502
 232  1304.527
 233  1082.233
 234  1144.29
 235  872.4347
 236  670.1221
 237  782.9813
 238  794.8113
 239  1355.423
 240  1269.514
 241  1068.96
 242  1225.789
 243  1394.267
 244  1261.915
 245  916.0809
 246  1228.175
 247  1309.585
 248  1115.387
 249  1117.716
 250  902.3242
 251  1173.779
 252  1140.006
 253  873.5072
 254  916.8917
 255  1055.749
 256  943.3661
 257  1032.021
 258  847.7406
 259  1025.724
 260  900.118
 261  1066.697
 262  1353.527
 263  1248.134
 264  1448.982
 265  1213.447
 266  1140.97
 267  1108.103
 268  1064.121
 269  1154.919
 270  1280.656
 271  1256.003
 272  1195.122
 273  1364.854
 274  1271.938
 275  1163.511
 276  1493.298
 277  1169.506
 278  901.1727
 279  1352.024
 280  1177.366
 281  715.5837
 282  1063.261
 283  1426.967
 284  1184.173
 285  1111.914
 286  1264.01
 287  1252.93
 288  1128.755
 289  1209.665
 290  1176.132
 291  1267.711
 292  1202.438
 293  1392.303
 294  1239.185
 295  1520.285
 296  1498.723
 297  1589.935
 298  1426.406
 299  1550.061
 300  1727.539
 301  1693.501
 302  1327.461
 303  1206.375
 304  1119.294
 305  1406.594
 306  1334.026
 307  1562.393
 308  1421.178
 309  1197.098
 310  1308.013
 311  1444.186
 312  1898.856
 313  2009.698
 314  2368.384
 315  2511.692
 316  2568.441
 317  2759.913
 318  2839.308
 319  2272.378
 320  2096.604
 321  1789.227
 322  1756.103
 323  1170.874
 324  839.9427
 325  1294.531
 326  1573.505
 327  1522.771
 328  1476.84
 329  1510.02
 330  1519.523
 331  1650.124
 332  1404.631
 333  1516.867
 334  1487.028
 335  1472.632
 336  1524.521
 337  1886.22
 338  1443.727
 339  1144.017
 340  1283.069
 341  1431.954
 342  1249.196
 343  1214.946
 344  956.0045
 345  955.7809
 346  1146.026
 347  1363.934
 348  1696.575
 349  1101.927
 350  1339.424
 351  1652.619
 352  1323.571
 353  1116.786
 354  1351.933
 355  1570.968
 356  1447.708
 357  1302.933
 358  1373.561
 359  1417.36
 360  1479.026
 361  1028.56
 362  1245.414
 363  930.2543
 364  888.2919
 365  716.494
 366  1001.23
 367  1306.242
 368  1338.46
 369  1070.448
 370  970.108
 371  984.8702
 372  1210.112
 373  1341.565
 374  1376.397
 375  1010.387
 376  1098.8
 377  1006.428
 378  1181.857
 379  1210.013
 380  1138.255
 381  839.2484
 382  748.955
 383  1156.482
 384  1101.249
 385  874.0914
 386  881.0752
 387  1026.78
 388  1028.487
 389  1111.262
 390  1197.353
 391  1019.328
 392  1165.489
 393  1331.516
 394  1156.196
 395  1004.487
 396  1149.394
 397  1174.337
 398  1121.869
 399  1165.783
 400  1241.581
 401  994.3593
 402  861.7863
 403  1077.829
 404  1162.31
 405  1178.803
 406  973.71
 407  1483.271
 408  1711.133
 409  1568.474
 410  1345.53
 411  1455.417
 412  1555.528
 413  1190.342
 414  1189.577
 415  1482.439
 416  1320.192
 417  1370.013
 418  1332.828
 419  1563.504
 420  1653.71
 421  1700.784
 422  1503.2
 423  1385.568
 424  1336.357
 425  1292.342
 426  1272.95
 427  1010.923
 428  927.2886
 429  1207.888
 430  1433.889
 431  1429.951
 432  955.0302
 433  1372.12
 434  1544.723
 435  1323.285
 436  1087.91
 437  777.3843
 438  950.6974
 439  1235.887
 440  1214.866
 441  1060.006
 442  1223.855
 443  1312.743
 444  1358.759
 445  1505.363
 446  1218.95
 447  1101.915
 448  1213.251
 449  1305.03
 450  1128.336
 451  1179.904
 452  869.7965
 453  977.2165
 454  1344.565
 455  1431.218
 456  1130.643
 457  906.2731
 458  1287.803
 459  1344.283
 460  1017.069
 461  846.7838
 462  963.6681
 463  1099.818
 464  1139.881
 465  1502.691
 466  1375.561
 467  1187.859
 468  1341.614
 469  1604.781
 470  1345.02
 471  1143.528
 472  978.4902
 473  1142.071
 474  1029.489
 475  1265.76
 476  1565.323
 477  1452.382
 478  1357.492
 479  1130.121
 480  1269.301
 481  1101.486
 482  1162.042
 483  1065.393
 484  1344.962
 485  1168.659
 486  934.3961
 487  1103.061
 488  1029.071
 489  1413.159
 490  1513.693
 491  1406.865
 492  1188.125
 493  1250.608
 494  1150.414
 495  1250.275
 496  1366.751
 497  1361.726
 498  1199.499
 499  1068.051
 500  1078.551
 501  1210.116
 502  1266.113
 503  1316.362
 504  1109.624
 505  1161.97
 506  1026.484
 507  1253.93
 508  1423.454
 509  1343.906
 510  1612.22
 511  1500.695
