# Input file       =  1194482637.105718_cleaned.dat
# Candidate        =  PSR_0332+5434
# Telescope        =  AR
# Epoch_topo       =  58069.030741964329
# Epoch_bary       =  N/A
# T_sample         =  0.002
# Data Folded      =  7340032
# Data Avg         =  0.0587986977833294
# Data StdDev      =  3.9695494166057  
# Profile Bins     =  512
# Profile Avg      =  843.195483511917 
# Profile StdDev   =  475.286204697821 
# Reduced chi-sqr  =  0.713
# Prob(Noise)      <  1   (~0.0 sigma)
# P_topo (ms)      =  714.506556890091  +/- 0.000361
# P'_topo (s/s)    =  -0                +/- 1.91e-10
# P''_topo (s/s^2) =  0                 +/- 8.42e-14
# P_bary (ms)      =  N/A
# P'_bary (s/s)    =  N/A
# P''_bary (s/s^2) =  N/A
# P_orb (s)        =  N/A
# asin(i)/c (s)    =  N/A
# eccentricity     =  N/A
# w (rad)          =  N/A
# T_peri           =  N/A
######################################################
   0  955.5612
   1  902.5754
   2  723.9139
   3  780.0196
   4  433.614
   5  533.4404
   6  785.8422
   7  910.0436
   8  785.1931
   9  532.0116
  10  889.1302
  11  1123.635
  12  1075.033
  13  622.3552
  14  598.9866
  15  461.6289
  16  828.5783
  17  1041.663
  18  827.3188
  19  492.7213
  20  389.0637
  21  564.0408
  22  675.8994
  23  1119.481
  24  941.665
  25  1143.57
  26  917.9966
  27  458.3921
  28  491.5995
  29  693.1723
  30  550.6636
  31  691.3598
  32  174.1147
  33  686.1558
  34  1002.765
  35  736.714
  36  363.6277
  37  429.5294
  38  532.0587
  39  525.9969
  40  392.2293
  41  940.9826
  42  1050.758
  43  694.0629
  44  620.9971
  45  417.994
  46  295.5045
  47  413.5122
  48  1053.785
  49  998.5256
  50  623.4243
  51  1067.344
  52  937.6052
  53  1041.713
  54  941.3891
  55  816.9297
  56  1201.621
  57  1413.252
  58  833.1661
  59  891.5732
  60  1027.728
  61  508.4514
  62  741.5131
  63  1040.246
  64  600.1779
  65  491.8369
  66  346.2195
  67  716.1211
  68  707.9308
  69  461.2102
  70  613.4704
  71  725.8067
  72  953.1824
  73  883.1835
  74  572.5717
  75  611.0129
  76  448.9903
  77  697.863
  78  617.4072
  79  770.9387
  80  619.5728
  81  550.3554
  82  652.318
  83  683.3837
  84  1023.231
  85  625.479
  86  650.4274
  87  764.3633
  88  998.5646
  89  1183.538
  90  1167.39
  91  880.7166
  92  1314.949
  93  1222.608
  94  940.4421
  95  1148.049
  96  817.3301
  97  1113.275
  98  1354.492
  99  1285.396
 100  1209.658
 101  948.181
 102  1075.708
 103  986.9391
 104  846.3405
 105  704.7435
 106  768.6983
 107  1137.142
 108  863.4108
 109  570.1281
 110  1009.632
 111  681.2132
 112  624.7204
 113  803.2466
 114  884.3824
 115  969.4655
 116  603.6342
 117  878.14
 118  668.4239
 119  675.0049
 120  1002.527
 121  1186.016
 122  837.1526
 123  881.4849
 124  1033.812
 125  736.0386
 126  911.916
 127  1005.825
 128  1040.356
 129  815.3782
 130  479.7765
 131  966.7891
 132  1191.54
 133  1090.003
 134  971.7147
 135  657.9959
 136  436.3544
 137  537.1419
 138  492.2511
 139  618.6014
 140  637.4249
 141  1213.088
 142  1152.467
 143  872.2992
 144  677.9657
 145  756.6899
 146  782.1558
 147  945.0513
 148  1221.206
 149  651.6695
 150  893.4068
 151  1231.762
 152  990.9813
 153  745.5353
 154  492.5645
 155  903.3843
 156  1273.182
 157  1413.922
 158  1059.345
 159  910.183
 160  689.6847
 161  419.7121
 162  648.1831
 163  1007.03
 164  1112.073
 165  733.4521
 166  492.1673
 167  460.5295
 168  312.3837
 169  991.2949
 170  1038.054
 171  913.1029
 172  900.8303
 173  717.1526
 174  252.0613
 175  413.0559
 176  947.6923
 177  1020.672
 178  978.5456
 179  895.4961
 180  797.8065
 181  976.7092
 182  1374.498
 183  1304.401
 184  1033.712
 185  1050.608
 186  1298.618
 187  1232.516
 188  1561.075
 189  1530.81
 190  993.7525
 191  777.1669
 192  800.1716
 193  436.5534
 194  715.8188
 195  1030.033
 196  949.4293
 197  972.7402
 198  1001.144
 199  1223.16
 200  526.3259
 201  498.9233
 202  590.8126
 203  857.3568
 204  1065.315
 205  1273.43
 206  1347.326
 207  753.6545
 208  750.1868
 209  902.6669
 210  1002.482
 211  880.6152
 212  629.9692
 213  803.4852
 214  939.1334
 215  996.3983
 216  721.0141
 217  930.7072
 218  669.0132
 219  573.1034
 220  830.6749
 221  1049.441
 222  1304.218
 223  1064.327
 224  954.7999
 225  929.2811
 226  550.1746
 227  541.8648
 228  525.9996
 229  836.1844
 230  1350.062
 231  963.7866
 232  654.2139
 233  778.5387
 234  1125.38
 235  1045.704
 236  556.9685
 237  984.5847
 238  788.6196
 239  640.5562
 240  972.738
 241  702.2673
 242  580.3275
 243  634.557
 244  748.4899
 245  774.3493
 246  563.892
 247  651.1918
 248  823.4123
 249  599.7954
 250  605.6918
 251  628.3951
 252  436.1865
 253  748.1768
 254  666.5482
 255  1007.194
 256  1004.378
 257  1012.607
 258  1041.744
 259  422.4565
 260  611.7927
 261  701.3356
 262  710.7332
 263  771.1038
 264  284.4086
 265  588.5323
 266  669.2726
 267  610.4846
 268  456.804
 269  841.6316
 270  879.3598
 271  953.8746
 272  843.5072
 273  270.4263
 274  384.4047
 275  558.6486
 276  703.971
 277  967.8395
 278  1244.694
 279  1030.722
 280  963.7617
 281  1152.946
 282  1573.533
 283  1403.175
 284  996.9317
 285  1234.757
 286  1049.213
 287  806.6324
 288  625.4083
 289  891.1711
 290  765.9122
 291  851.7188
 292  967.3019
 293  1073.259
 294  833.0127
 295  899.167
 296  1261.312
 297  699.4055
 298  877.5701
 299  932.7867
 300  857.0123
 301  966.329
 302  919.7468
 303  936.2513
 304  993.6375
 305  1113.898
 306  753.6393
 307  772.2507
 308  871.8569
 309  1389.528
 310  1128.236
 311  1125.925
 312  1184.676
 313  1328.885
 314  1667.969
 315  2004.9
 316  2361.343
 317  2646.346
 318  2052.484
 319  1438.283
 320  932.1641
 321  586.8789
 322  623.031
 323  813.7358
 324  630.6414
 325  623.8798
 326  975.7227
 327  759.7606
 328  899.9828
 329  998.5616
 330  777.4127
 331  492.8368
 332  348.9277
 333  916.9032
 334  733.3126
 335  925.4767
 336  891.1678
 337  677.7937
 338  379.8244
 339  374.3636
 340  685.4139
 341  561.2812
 342  657.5497
 343  525.4789
 344  83.67046
 345  280.5111
 346  761.7913
 347  1015.674
 348  1116.244
 349  1038.385
 350  769.4119
 351  631.4838
 352  596.3922
 353  841.4744
 354  743.0525
 355  944.263
 356  822.5782
 357  961.0958
 358  1099.438
 359  1116.351
 360  1047.859
 361  830.799
 362  503.5988
 363  419.7119
 364  998.4008
 365  955.1351
 366  702.7413
 367  530.6885
 368  590.1531
 369  498.1111
 370  733.6808
 371  610.7977
 372  635.9681
 373  639.5145
 374  722.7738
 375  818.8269
 376  901.0911
 377  949.1683
 378  837.1919
 379  912.9982
 380  1038.512
 381  985.1287
 382  1106.141
 383  813.8913
 384  777.5572
 385  630.5265
 386  686.08
 387  823.0446
 388  793.0135
 389  1050.463
 390  741.9407
 391  747.7393
 392  1072.965
 393  689.4369
 394  72.60584
 395  281.5255
 396  348.0529
 397  384.4107
 398  582.446
 399  826.3231
 400  631.1353
 401  1053.021
 402  993.2171
 403  989.5172
 404  494.4348
 405  840.882
 406  847.4582
 407  775.7389
 408  635.1766
 409  844.8141
 410  1125.999
 411  1268.514
 412  1111.672
 413  730.1921
 414  908.6069
 415  574.9084
 416  381.0378
 417  741.2587
 418  792.2419
 419  961.3465
 420  954.9482
 421  681.9749
 422  562.8167
 423  132.3227
 424  728.6483
 425  775.9503
 426  557.4993
 427  809.4396
 428  664.0276
 429  258.3033
 430  336.3787
 431  796.6294
 432  646.9471
 433  911.1384
 434  1130.359
 435  775.3496
 436  419.3438
 437  322.802
 438  674.3341
 439  870.705
 440  1062.836
 441  1204.462
 442  1209.867
 443  1076.252
 444  1133.601
 445  1231.42
 446  1404.073
 447  1270.721
 448  940.8357
 449  1014.196
 450  1044.393
 451  874.4099
 452  887.406
 453  833.1938
 454  903.2178
 455  625.0555
 456  708.2343
 457  1015.249
 458  963.2154
 459  918.4916
 460  797.7751
 461  977.3029
 462  860.7299
 463  759.5039
 464  975.124
 465  816.3491
 466  958.5983
 467  1149.008
 468  916.4771
 469  618.1019
 470  706.6099
 471  812.9263
 472  1191.419
 473  1480.693
 474  1226.128
 475  874.1374
 476  796.0553
 477  779.4641
 478  757.5598
 479  1083.264
 480  1298.529
 481  832.5973
 482  295.7701
 483  490.6762
 484  500.8303
 485  590.4037
 486  848.2628
 487  847.9694
 488  1135.483
 489  1035
 490  745.0505
 491  852.2972
 492  771.1512
 493  731.8148
 494  834.1155
 495  1158.952
 496  1160.57
 497  1054.766
 498  1113.268
 499  1083.781
 500  1156.69
 501  1018.631
 502  1178.987
 503  969.3404
 504  756.7325
 505  502.2929
 506  573.1055
 507  941.4962
 508  1028.583
 509  1184.414
 510  979.1626
 511  1104.659
