# Input file       =  1194553880.107303_cleaned.dat
# Candidate        =  PSR_0332+5434
# Telescope        =  AR
# Epoch_topo       =  58069.855313741929
# Epoch_bary       =  N/A
# T_sample         =  0.002
# Data Folded      =  7340032
# Data Avg         =  0.425657295932719
# Data StdDev      =  6.37160821793036 
# Profile Bins     =  512
# Profile Avg      =  6103.16072245862 
# Profile StdDev   =  762.891998535958 
# Reduced chi-sqr  =  0.562
# Prob(Noise)      <  1   (~0.0 sigma)
# P_topo (ms)      =  714.507043424575  +/- 0.000923
# P'_topo (s/s)    =  -0                +/- 4.87e-10
# P''_topo (s/s^2) =  0                 +/- 2.15e-13
# P_bary (ms)      =  N/A
# P'_bary (s/s)    =  N/A
# P''_bary (s/s^2) =  N/A
# P_orb (s)        =  N/A
# asin(i)/c (s)    =  N/A
# eccentricity     =  N/A
# w (rad)          =  N/A
# T_peri           =  N/A
######################################################
   0  5597.521
   1  5439.242
   2  5671.848
   3  5750.316
   4  5567.049
   5  5717.397
   6  5727.668
   7  5764.876
   8  5664.443
   9  5573.254
  10  5903.057
  11  5495.872
  12  6056.113
  13  5996.348
  14  5670.614
  15  5628.904
  16  5855.723
  17  6473.644
  18  6553.898
  19  6780.918
  20  6841.331
  21  6761.189
  22  6186.794
  23  5894.761
  24  5964.54
  25  6230.772
  26  6092.426
  27  6383.166
  28  6616.47
  29  6345.503
  30  6220.829
  31  6416.964
  32  6269.572
  33  5987.311
  34  5983.328
  35  5880.908
  36  5930.07
  37  5815.996
  38  5790.784
  39  5764.166
  40  6165.833
  41  5871.504
  42  5958.917
  43  5771.904
  44  5762.714
  45  6108.553
  46  5978.302
  47  5988.693
  48  5661.144
  49  5809.058
  50  6495.101
  51  6191.031
  52  6331.924
  53  6736.522
  54  6225.116
  55  5671.605
  56  5830.775
  57  5597.122
  58  5839.195
  59  6197.835
  60  6238.693
  61  6732.041
  62  6749.656
  63  6590.624
  64  5742.997
  65  5623.701
  66  5959.575
  67  6001.41
  68  6788.172
  69  6994.655
  70  6519.704
  71  5905.794
  72  5670.043
  73  5991.336
  74  6870.302
  75  6989.405
  76  6786.177
  77  6837.667
  78  6310.459
  79  6338.331
  80  6610.649
  81  7346.752
  82  6792.773
  83  6418.993
  84  6230.873
  85  5725.655
  86  5809.476
  87  5719.379
  88  5898.829
  89  5872.842
  90  6017.247
  91  6013.847
  92  6240.61
  93  6222.457
  94  5894.48
  95  5816.434
  96  6214.516
  97  6176.293
  98  6071.475
  99  6311.765
 100  6115.077
 101  5430.419
 102  5350.565
 103  5745.995
 104  6484.045
 105  6799.522
 106  7022.816
 107  6702.583
 108  6095.21
 109  6049.289
 110  6183.814
 111  6327.782
 112  6439.54
 113  6458.418
 114  6902.252
 115  6375.108
 116  6261.74
 117  6753.887
 118  5979.903
 119  6027.132
 120  6190.075
 121  6083.607
 122  5941.322
 123  5943.731
 124  6182.036
 125  6251.142
 126  5904.632
 127  6548.944
 128  5865.071
 129  5378.257
 130  5591.639
 131  5541.13
 132  5330.784
 133  5310.897
 134  5736.969
 135  6003.424
 136  5790.728
 137  5746.059
 138  6009.794
 139  5825.248
 140  5933.018
 141  6390.448
 142  6036.211
 143  5647.436
 144  5551.907
 145  5712.138
 146  6025.58
 147  5952.106
 148  6102.155
 149  6235.904
 150  6233.157
 151  6004.729
 152  5992.691
 153  6180.446
 154  6483.307
 155  6553.368
 156  6764.951
 157  6325.058
 158  6176.33
 159  6120.205
 160  5914.25
 161  6373.078
 162  6116.366
 163  6345.972
 164  6600.826
 165  6111.794
 166  5999.981
 167  6385.562
 168  6184.515
 169  6539.643
 170  6390.761
 171  6160.183
 172  5880.451
 173  5719.044
 174  6161.752
 175  6400.954
 176  6417.484
 177  6549.808
 178  6684.081
 179  6359.776
 180  5881.793
 181  6079.442
 182  6175.513
 183  6429.253
 184  6225.088
 185  6619.159
 186  6760.306
 187  6673.224
 188  7190.07
 189  7250.389
 190  7144.983
 191  7147.398
 192  6993.765
 193  6802.054
 194  6218.948
 195  5870.529
 196  5838.764
 197  6398.275
 198  6393.761
 199  6245.661
 200  6345.451
 201  6117.654
 202  6382.717
 203  6372.788
 204  6316.961
 205  5952.055
 206  6132.03
 207  6125.852
 208  6150.161
 209  6079.538
 210  6322.586
 211  6088.249
 212  5830.087
 213  5961.783
 214  6128.248
 215  6188.108
 216  6431.579
 217  6206.555
 218  5738.949
 219  5807.187
 220  5698.424
 221  5956.978
 222  5638.122
 223  5565.575
 224  5306.19
 225  5401.131
 226  5626.847
 227  5592.845
 228  6199.542
 229  6209.796
 230  5862.533
 231  5951.481
 232  6181.878
 233  6429.667
 234  6153.218
 235  6226.809
 236  6017.913
 237  5548.2
 238  5510.503
 239  6279.73
 240  6303.938
 241  6089.459
 242  6255.051
 243  6067.236
 244  6142.154
 245  5879.087
 246  5780.86
 247  5765.721
 248  5722.774
 249  6395.42
 250  5663.926
 251  5878.173
 252  5667.246
 253  5734.904
 254  5526.08
 255  6148.452
 256  6110.869
 257  5878.706
 258  5649.222
 259  6008.72
 260  6847.579
 261  7016.945
 262  6406.019
 263  6206.473
 264  6474.21
 265  6077.278
 266  6065.945
 267  6941.343
 268  6126.497
 269  5684.795
 270  5571.493
 271  5554.313
 272  5612.119
 273  5505.395
 274  6059.1
 275  5883.979
 276  5926.713
 277  5728.757
 278  5202.957
 279  5261.842
 280  5310.073
 281  5102.457
 282  4717.797
 283  5494.307
 284  6244.211
 285  6345.006
 286  5390.208
 287  5191.272
 288  5718.44
 289  6013.955
 290  5918.558
 291  5678.935
 292  5917.932
 293  6037.391
 294  5912.494
 295  6565.807
 296  6173.625
 297  5744.07
 298  6048.311
 299  6257.142
 300  6065.008
 301  6347.296
 302  6568.932
 303  6295.472
 304  5609.803
 305  5724.932
 306  5783.944
 307  6054.956
 308  6176.885
 309  5823.038
 310  5861.042
 311  5854.989
 312  6429.296
 313  6835.85
 314  6354.662
 315  5792.06
 316  5906.628
 317  6091.844
 318  5938.906
 319  5554.019
 320  6097.263
 321  6666.438
 322  6318.719
 323  5808.755
 324  5720.963
 325  5476.593
 326  5585.383
 327  5519.261
 328  5897.955
 329  6193.275
 330  5706.56
 331  5718.925
 332  5858.778
 333  5876.181
 334  5836.524
 335  5657.859
 336  5671.911
 337  5978.64
 338  5980.917
 339  5814.272
 340  5790.307
 341  5696.55
 342  6052.795
 343  6726.008
 344  6732.883
 345  6008.466
 346  6040.59
 347  6250.664
 348  6228.696
 349  6004.315
 350  6069.833
 351  6110.268
 352  6247.686
 353  6520.438
 354  6139.142
 355  5631.391
 356  5412.488
 357  5596.846
 358  6282.755
 359  6510.842
 360  6649.388
 361  7098.366
 362  6369.657
 363  6310.297
 364  6464.659
 365  6176.058
 366  5852.023
 367  6097.145
 368  6279.773
 369  6530.773
 370  6446.654
 371  6578.062
 372  5920.715
 373  5742.145
 374  6034.078
 375  6252.37
 376  6330.616
 377  6761.459
 378  6769.489
 379  6251.212
 380  5884.542
 381  5760.862
 382  5861.852
 383  5919.296
 384  6183.929
 385  6538.539
 386  6556.192
 387  6260.342
 388  6201.634
 389  6365.091
 390  6115.199
 391  5872.586
 392  6030.495
 393  6130.778
 394  6217.44
 395  6203.071
 396  6568.7
 397  6343.703
 398  6534.331
 399  6982.399
 400  6476.25
 401  6574.222
 402  6655.607
 403  7191.932
 404  7346.635
 405  7530.196
 406  7325.472
 407  6060.934
 408  6306.002
 409  6183.265
 410  6413.778
 411  6544.49
 412  6666.97
 413  6514.373
 414  6549.395
 415  6066.7
 416  6198.608
 417  6648.556
 418  6261.754
 419  6370.763
 420  6390.744
 421  6739.831
 422  6498.751
 423  6311.469
 424  6632.798
 425  6460.85
 426  5709.977
 427  5894.274
 428  6048.524
 429  6042.962
 430  5978.144
 431  6182.863
 432  6640.778
 433  6145.906
 434  5773.641
 435  5902.111
 436  6079.561
 437  6147.749
 438  6255.257
 439  6251.459
 440  6344.729
 441  6353.435
 442  6289.907
 443  5771.538
 444  6018.441
 445  6244.094
 446  6048.851
 447  5755.523
 448  5828.898
 449  6339.978
 450  6194.788
 451  5848.33
 452  5915.215
 453  6123.125
 454  6282.674
 455  6127.242
 456  5721.361
 457  5838.409
 458  5456.408
 459  6317.153
 460  6294.793
 461  5860.055
 462  5450.896
 463  5919.967
 464  6079.693
 465  5848.209
 466  6511.648
 467  6576.601
 468  6070.369
 469  6190.63
 470  5925.891
 471  6060.727
 472  6182.082
 473  6210.679
 474  6288.496
 475  6479.418
 476  6257.392
 477  5715.957
 478  5698.308
 479  5748.264
 480  5465.234
 481  5520.984
 482  5864.241
 483  5907.572
 484  5554.395
 485  5950.757
 486  6315.406
 487  5641.396
 488  5573.746
 489  5954.105
 490  6330.985
 491  6294.982
 492  7040.916
 493  6967.646
 494  6572.531
 495  6006.899
 496  6306.099
 497  5755.009
 498  6212.391
 499  6519.991
 500  6079.216
 501  6322.98
 502  5848.476
 503  5753.703
 504  5708.917
 505  5044.87
 506  5213.849
 507  5020.963
 508  5225.068
 509  5019.847
 510  5261.493
 511  5565.727
