# Input file       =  1194640006.109184_cleaned.dat
# Candidate        =  PSR_0332+5434
# Telescope        =  AR
# Epoch_topo       =  58070.852142467411
# Epoch_bary       =  N/A
# T_sample         =  0.002
# Data Folded      =  7340032
# Data Avg         =  0.11744155134407 
# Data StdDev      =  3.85620203070173 
# Profile Bins     =  512
# Profile Avg      =  1684.39552704566 
# Profile StdDev   =  461.714778018169 
# Reduced chi-sqr  =  0.641
# Prob(Noise)      <  1   (~0.0 sigma)
# P_topo (ms)      =  714.508040148659  +/- 0.000349
# P'_topo (s/s)    =  -0                +/- 1.84e-10
# P''_topo (s/s^2) =  0                 +/- 8.14e-14
# P_bary (ms)      =  N/A
# P'_bary (s/s)    =  N/A
# P''_bary (s/s^2) =  N/A
# P_orb (s)        =  N/A
# asin(i)/c (s)    =  N/A
# eccentricity     =  N/A
# w (rad)          =  N/A
# T_peri           =  N/A
######################################################
   0  1441.065
   1  1419.415
   2  1696.936
   3  1600.772
   4  1359.771
   5  1568.687
   6  1579.071
   7  1374.561
   8  1634.557
   9  1545.326
  10  1638.149
  11  1808.073
  12  1581.17
  13  1459.926
  14  1392.669
  15  1601.774
  16  1690.64
  17  1536.324
  18  1643.615
  19  1360.091
  20  1217.309
  21  1417.372
  22  1619.785
  23  1674.291
  24  1567.72
  25  1480.587
  26  1469.913
  27  1559.541
  28  1571.107
  29  1756.621
  30  1889.907
  31  1687.167
  32  1753.211
  33  1337.013
  34  1041.013
  35  987.9102
  36  1374.664
  37  1600.16
  38  1654.578
  39  1588.884
  40  1521.862
  41  1379.907
  42  1715.924
  43  1361.379
  44  921.8019
  45  1476.772
  46  1523.233
  47  1799.382
  48  1923.256
  49  1943.977
  50  1849.76
  51  1613.159
  52  1633.271
  53  1460.976
  54  1658.262
  55  1887.72
  56  1718.785
  57  1428.234
  58  1343.862
  59  1497.675
  60  1446.802
  61  1716.54
  62  1516.817
  63  1740.854
  64  1866.27
  65  1676.038
  66  1647.98
  67  1768.901
  68  1566.613
  69  1444.382
  70  1408.028
  71  1601.667
  72  1603.655
  73  1477.878
  74  1418.028
  75  1509.905
  76  1662.537
  77  1577.809
  78  1450.599
  79  1647.533
  80  1909.004
  81  1866.531
  82  1947.318
  83  1998.577
  84  1674.641
  85  1621.324
  86  1996.993
  87  1806.137
  88  1733.897
  89  1854.547
  90  1542.417
  91  1638.546
  92  1624.653
  93  1834.667
  94  1540.015
  95  1778.74
  96  1806.206
  97  1526.172
  98  1502.853
  99  1434.667
 100  1614.68
 101  1543.355
 102  1885.985
 103  1860.253
 104  1604.055
 105  1551.795
 106  1591.564
 107  1701.737
 108  1668.808
 109  1710.96
 110  1832.245
 111  2075.724
 112  2092.604
 113  1799.767
 114  1323.196
 115  1468.325
 116  1522.578
 117  1610.315
 118  1420.141
 119  1229.154
 120  1477.345
 121  1706.013
 122  1485.877
 123  1370.966
 124  1601.49
 125  1461.66
 126  1809.733
 127  1985.231
 128  1748.495
 129  1611.57
 130  1738.411
 131  1623.627
 132  1764.543
 133  1949.569
 134  1858.864
 135  1514.408
 136  1999.852
 137  1889.529
 138  1787.318
 139  1940.793
 140  1778.033
 141  1712.746
 142  1826.133
 143  2073.568
 144  2202.721
 145  2097.854
 146  2025.768
 147  1898.328
 148  1980.456
 149  1916.01
 150  1976.062
 151  2123.463
 152  2234.05
 153  1869.987
 154  1806.37
 155  1584.445
 156  1334.813
 157  1236.612
 158  1279.38
 159  1474.999
 160  1585.568
 161  1696.957
 162  1685.66
 163  1650.34
 164  1854.821
 165  1713.584
 166  1300.302
 167  1299.477
 168  1684.032
 169  1747.008
 170  1719.945
 171  1781.507
 172  1680.58
 173  1602.043
 174  2012.561
 175  1815.221
 176  1656.149
 177  1591.422
 178  1794.792
 179  2073.565
 180  1763.666
 181  1745.872
 182  1757.73
 183  1713.29
 184  1711.225
 185  1795.842
 186  2029.923
 187  2056.712
 188  1952.089
 189  1714.76
 190  1684.721
 191  1804.687
 192  1597.9
 193  1818.64
 194  2057.566
 195  2093.869
 196  1828.752
 197  1917.79
 198  1758.329
 199  1855.599
 200  1959.822
 201  1754.325
 202  2186.567
 203  1933.658
 204  1788.63
 205  1764.713
 206  1603.851
 207  1771.243
 208  1720.141
 209  2002.528
 210  1975.049
 211  1928.365
 212  1983.443
 213  1987.446
 214  1941.522
 215  1931.253
 216  1737.642
 217  1714.956
 218  1925.63
 219  1903.9
 220  1953.387
 221  1620.231
 222  1574.276
 223  1853.966
 224  2147.873
 225  2179.817
 226  2053.63
 227  2027.009
 228  1725.812
 229  1730.09
 230  1849.735
 231  1896.319
 232  1878.697
 233  1882.503
 234  1764.994
 235  1578.059
 236  1631.287
 237  1722.409
 238  1647.153
 239  1551.997
 240  1552.966
 241  1045.832
 242  1387.572
 243  1575.015
 244  1770.947
 245  1717.267
 246  1590.824
 247  1739.996
 248  1873.913
 249  1804.996
 250  1542.346
 251  1772.167
 252  1453.587
 253  1826.411
 254  1976.928
 255  1738.116
 256  1990.626
 257  1880.803
 258  1833.327
 259  1792.927
 260  1726.61
 261  1829.074
 262  1542.448
 263  1892.8
 264  2031.174
 265  1884.738
 266  1811.295
 267  1952.429
 268  1848.359
 269  1976.994
 270  1783.84
 271  1386.045
 272  2047.545
 273  2398.982
 274  2169.677
 275  1798.803
 276  1887.374
 277  1837.869
 278  1296.849
 279  1424.488
 280  1297.855
 281  1526.246
 282  1538.815
 283  1732.588
 284  1897.131
 285  1749.543
 286  1561.528
 287  1343.801
 288  1332.626
 289  1315.273
 290  1515.771
 291  1605.871
 292  1542.682
 293  1648.243
 294  1565.289
 295  1285.342
 296  1527.08
 297  1620.784
 298  1786.85
 299  2074.113
 300  1671.511
 301  1543.389
 302  1575.987
 303  1611.082
 304  1413.294
 305  1402.648
 306  1783.234
 307  1592.17
 308  1801.24
 309  1620.768
 310  1647.343
 311  1837.441
 312  2538.488
 313  2765.434
 314  2883.833
 315  3062.623
 316  3094.79
 317  3047.557
 318  2382.931
 319  1918.643
 320  1779.182
 321  1547.595
 322  1479.591
 323  1507.49
 324  1437.405
 325  1437.275
 326  1472.22
 327  1676.94
 328  1435.744
 329  1079.901
 330  1336.91
 331  1681.01
 332  1798.534
 333  2116.805
 334  1946.441
 335  2176.163
 336  1900.605
 337  1379.845
 338  1243.341
 339  1510.945
 340  1799.781
 341  2279.137
 342  1910.252
 343  1415.843
 344  1756.002
 345  1738.292
 346  1497.773
 347  1521.14
 348  1846.862
 349  1548.025
 350  1205.592
 351  1339.213
 352  1932.667
 353  1890.249
 354  1993.887
 355  2049.79
 356  1974.172
 357  1809.383
 358  1576.389
 359  1574.21
 360  1763.332
 361  1659.432
 362  1575.281
 363  1310.559
 364  1384.841
 365  1726.129
 366  1677.558
 367  1871.69
 368  1825.419
 369  1925.251
 370  2134.802
 371  2080.127
 372  1855.085
 373  1985.912
 374  1884.962
 375  1456.152
 376  1663.181
 377  1638.15
 378  1851.052
 379  1757.065
 380  1658.756
 381  1640.516
 382  1607.663
 383  1668.457
 384  1384.036
 385  1643.587
 386  1346.276
 387  1394.429
 388  1477.308
 389  1139.852
 390  1223.471
 391  1098.649
 392  1484.195
 393  1839.543
 394  1662.954
 395  1698.868
 396  1424.137
 397  1486.423
 398  1957.393
 399  1656.393
 400  1680.193
 401  1418.186
 402  1536.144
 403  1305.422
 404  1591.083
 405  1841.536
 406  1700.191
 407  1683.907
 408  1767.106
 409  1452.922
 410  1513.855
 411  2039.193
 412  2182.411
 413  1786.963
 414  1678.457
 415  2033.517
 416  1583.923
 417  1666.126
 418  1721.28
 419  1559.717
 420  1319.901
 421  1299.722
 422  1491.806
 423  1524.606
 424  1616.725
 425  1370.135
 426  1583.827
 427  1753.99
 428  1682.148
 429  1868.178
 430  1215.794
 431  1442.086
 432  1805.636
 433  1765.28
 434  1679.142
 435  1540.506
 436  1494.972
 437  1568.584
 438  1491.965
 439  1367.593
 440  1467.367
 441  1675.535
 442  1528.764
 443  1476.403
 444  1367.574
 445  1133.604
 446  1149.723
 447  1465.16
 448  1599.387
 449  1523.065
 450  1740.495
 451  1559.601
 452  1249.437
 453  1335.139
 454  1486.848
 455  1565.536
 456  1771.964
 457  1555.142
 458  1593.908
 459  1628.638
 460  1600.279
 461  1333.981
 462  1533.245
 463  1677.893
 464  1513.126
 465  1742.464
 466  1818.436
 467  1379.837
 468  1114.539
 469  1117.118
 470  1303.185
 471  1348.188
 472  1296.065
 473  1477.628
 474  1697.502
 475  1556.556
 476  1806.967
 477  1768.514
 478  1743.736
 479  1845.453
 480  1821.628
 481  1970.898
 482  1845.433
 483  1786.824
 484  1890.463
 485  1728.09
 486  1700.701
 487  1670.042
 488  1667.866
 489  1466.046
 490  1567.601
 491  1901.898
 492  1988.245
 493  1948.886
 494  1552.311
 495  1517.682
 496  1769.275
 497  1458.078
 498  1405.897
 499  1197.622
 500  1355.649
 501  1932.143
 502  1735.832
 503  1681.996
 504  1752.299
 505  1638.999
 506  1797.039
 507  1732.198
 508  1648.971
 509  1878.293
 510  1860.451
 511  1711.099
