# Input file       =  1194194576.102522_cleaned.dat
# Candidate        =  PSR_0332+5434
# Telescope        =  AR
# Epoch_topo       =  58065.696702575486
# Epoch_bary       =  N/A
# T_sample         =  0.002
# Data Folded      =  7143424
# Data Avg         =  0.168896358502909
# Data StdDev      =  3.95991217431854 
# Profile Bins     =  1024
# Profile Avg      =  1178.29780851089 
# Profile StdDev   =  330.741574786015 
# Reduced chi-sqr  =  0.574
# Prob(Noise)      <  1   (~0.0 sigma)
# P_topo (ms)      =  714.502944612657  +/- 3.74e-05
# P'_topo (s/s)    =  -0                +/- 2.03e-11
# P''_topo (s/s^2) =  0                 +/- 9.21e-15
# P_bary (ms)      =  N/A
# P'_bary (s/s)    =  N/A
# P''_bary (s/s^2) =  N/A
# P_orb (s)        =  N/A
# asin(i)/c (s)    =  N/A
# eccentricity     =  N/A
# w (rad)          =  N/A
# T_peri           =  N/A
######################################################
   0  926.495
   1  784.6202
   2  916.4874
   3  1047.798
   4  1000.546
   5  956.6204
   6  1162.456
   7  1441.122
   8  1386.884
   9  1238.009
  10  1201.819
  11  1270.213
  12  1261.933
  13  1262.884
  14  1282.249
  15  1439.298
  16  1346.193
  17  1309.354
  18  1060.307
  19  994.5442
  20  1002.081
  21  1021.037
  22  1153.502
  23  1234.735
  24  1437.909
  25  1300.339
  26  1311.414
  27  1336.918
  28  1415.154
  29  1401.599
  30  1235.824
  31  1163.936
  32  1013.593
  33  1141.38
  34  1365.703
  35  1367.237
  36  1139.709
  37  1006.096
  38  1071.237
  39  1142.438
  40  1062.537
  41  968.3562
  42  1109.781
  43  1212.314
  44  1406.638
  45  1338.589
  46  1422.032
  47  1467.351
  48  1463.722
  49  1408.143
  50  1304.153
  51  1324.326
  52  1392.554
  53  1472.736
  54  1370.54
  55  1204.763
  56  1195.059
  57  1207.246
  58  1141.398
  59  1042.426
  60  1128.165
  61  1265.502
  62  1345.042
  63  1261.861
  64  1122.27
  65  1035.81
  66  1086.33
  67  1164.764
  68  1151.671
  69  1066.4
  70  1084.355
  71  1162.455
  72  1097.003
  73  1023.266
  74  1148.412
  75  1297.62
  76  1404.196
  77  1280.043
  78  1198.92
  79  1053.651
  80  1170.953
  81  1172.364
  82  1144.516
  83  1080.324
  84  1091.277
  85  1185.32
  86  1144.099
  87  1159.422
  88  1046.966
  89  1220.96
  90  1378.267
  91  1356.529
  92  1375.886
  93  1384.844
  94  1523.557
  95  1523.418
  96  1396.958
  97  1358.799
  98  1249.258
  99  1227.795
 100  1213.765
 101  1214.465
 102  1300.063
 103  1260.145
 104  1327.001
 105  1219.344
 106  1124.299
 107  1134.686
 108  1339.292
 109  1315.316
 110  1218.078
 111  1116.95
 112  1180.086
 113  1142.441
 114  1094.698
 115  1089.79
 116  1174.31
 117  1199.07
 118  1159.264
 119  1132.536
 120  1071.581
 121  1139.924
 122  1205.153
 123  1189.293
 124  1078.151
 125  1204.368
 126  1340.546
 127  1396.326
 128  1246.318
 129  1170.696
 130  1259.069
 131  1330.443
 132  1322.243
 133  1141.535
 134  1094.218
 135  1138.63
 136  1324.459
 137  1382.511
 138  1266.89
 139  1216.638
 140  1198.85
 141  1194.696
 142  1052.705
 143  1066.647
 144  1106.803
 145  1194.977
 146  1250.189
 147  1249.033
 148  1152.75
 149  994.3548
 150  1121.384
 151  1150.283
 152  1236.68
 153  1168.102
 154  1221.418
 155  1198.528
 156  1154.239
 157  1200.169
 158  1145.31
 159  1202.501
 160  1326.316
 161  1400.49
 162  1373.089
 163  1306.569
 164  1167.276
 165  1128.608
 166  978.7321
 167  979.1522
 168  929.4443
 169  1012.363
 170  1090.381
 171  1116.401
 172  1128.924
 173  1071.31
 174  1095.728
 175  1089.657
 176  1180.764
 177  1230.904
 178  1310.428
 179  1328.053
 180  1335.693
 181  1200.367
 182  1175.614
 183  1123.607
 184  1059.111
 185  944.08
 186  882.1203
 187  971.8934
 188  1001.034
 189  1037.169
 190  1210.005
 191  1282.153
 192  1312.662
 193  1222.382
 194  1329.145
 195  1330.961
 196  1339.321
 197  1089.129
 198  1006.344
 199  978.6475
 200  1151.966
 201  1222.284
 202  1100.087
 203  1101.116
 204  1214.912
 205  1261.495
 206  1235.998
 207  1137.494
 208  1208.086
 209  1336.057
 210  1431.901
 211  1433.258
 212  1278.934
 213  1179.42
 214  1188.478
 215  1179.361
 216  1188.494
 217  1127.64
 218  1172.652
 219  1162.016
 220  1200.209
 221  1170.497
 222  1276.863
 223  1373.144
 224  1425.695
 225  1408.277
 226  1227.941
 227  1272.116
 228  1323.012
 229  1370.403
 230  1211.482
 231  1080.206
 232  1143.578
 233  1251.509
 234  1275.775
 235  1207.348
 236  1212.822
 237  1279.006
 238  1223.484
 239  1167.7
 240  1212.428
 241  1380.321
 242  1404.858
 243  1357.201
 244  1281.655
 245  1225.537
 246  1115.483
 247  1089.624
 248  1096.666
 249  1229.876
 250  1356.99
 251  1353.843
 252  1303.619
 253  1100.404
 254  1146.921
 255  1167.486
 256  1356.744
 257  1353.225
 258  1358.881
 259  1314.449
 260  1450.686
 261  1395.247
 262  1213.487
 263  1102.363
 264  1123.753
 265  1276.014
 266  1229.568
 267  1200.192
 268  1220.595
 269  1255.436
 270  1258.136
 271  1263.522
 272  1231.581
 273  1171.15
 274  1214.623
 275  1165.723
 276  1150.98
 277  1063.333
 278  1096.146
 279  1137.45
 280  1149.776
 281  1190.837
 282  1072.529
 283  1106.671
 284  1197.839
 285  1181.808
 286  1053.99
 287  1108.879
 288  1159.585
 289  1156.909
 290  1153.18
 291  1164.069
 292  1226.105
 293  1236.399
 294  1184.271
 295  1158.589
 296  1045.039
 297  1104.491
 298  1027.1
 299  955.0411
 300  857.1097
 301  988.4335
 302  1093.267
 303  1265.415
 304  1254.053
 305  1327.177
 306  1313.325
 307  1361.119
 308  1177.972
 309  1156.635
 310  1132.892
 311  1259.385
 312  1144.551
 313  1080.374
 314  1030.214
 315  1074.859
 316  1107.432
 317  1065.6
 318  988.5763
 319  974.7247
 320  1069.262
 321  1042.95
 322  1093.891
 323  1127.698
 324  1370.175
 325  1314.762
 326  1332.014
 327  1244.686
 328  1167.615
 329  990.1736
 330  985.5401
 331  960.62
 332  887.9943
 333  886.3992
 334  1008.465
 335  1061.535
 336  1019.01
 337  1046.895
 338  1159.828
 339  1199.109
 340  1161.734
 341  1163.928
 342  1339.879
 343  1386.021
 344  1445.62
 345  1133.843
 346  1150.393
 347  1159.729
 348  1358.241
 349  1342.321
 350  1206.115
 351  1097.22
 352  1077.153
 353  1120.693
 354  1238.241
 355  1121.094
 356  1236.401
 357  1201.076
 358  1238.136
 359  1151.65
 360  1166.049
 361  1250.165
 362  1266.912
 363  1187.271
 364  1002.894
 365  878.2947
 366  1049.917
 367  1170.961
 368  1176.982
 369  1148.127
 370  1169.285
 371  1351.706
 372  1264.162
 373  1281.315
 374  1350.032
 375  1369.175
 376  1317.472
 377  1157.474
 378  996.4027
 379  898.683
 380  1007.088
 381  1209.81
 382  1240.453
 383  1133.735
 384  1111.215
 385  1299.816
 386  1351.24
 387  1380.563
 388  1315.875
 389  1340.175
 390  1408.821
 391  1375.009
 392  1403.892
 393  1293.627
 394  1279.253
 395  1287.363
 396  1209.217
 397  1176.238
 398  1176.163
 399  1262.109
 400  1238.931
 401  1121.206
 402  1069.791
 403  1114.344
 404  1211.284
 405  1199.293
 406  1162.307
 407  1135.598
 408  1315.138
 409  1402.847
 410  1362.472
 411  1282.448
 412  1354.59
 413  1306.938
 414  1237.207
 415  1045.216
 416  1112.53
 417  1068.884
 418  1068.053
 419  1073.238
 420  1130.058
 421  1197.863
 422  1195.247
 423  1147.003
 424  1152.602
 425  1069.441
 426  1128.896
 427  1194.474
 428  1250.078
 429  1124.514
 430  1171.964
 431  1263.906
 432  1148.348
 433  928.2985
 434  917.9102
 435  954.1737
 436  983.4274
 437  956.5181
 438  974.5585
 439  1083.007
 440  1264.92
 441  1414.335
 442  1254.327
 443  1099.519
 444  1030.408
 445  1140.873
 446  1175.084
 447  1176.766
 448  1088.487
 449  1080.705
 450  1051.629
 451  1142.255
 452  1139.924
 453  1196.398
 454  1223.562
 455  1319.82
 456  1205.958
 457  1254.002
 458  1278.533
 459  1354.209
 460  1261.07
 461  1136.596
 462  1137.735
 463  1097.026
 464  1129.744
 465  1040.598
 466  991.2712
 467  1114.17
 468  1190.656
 469  1198.084
 470  1092.709
 471  1185.294
 472  1254.623
 473  1236.193
 474  1246.121
 475  1329.269
 476  1346.363
 477  1230.659
 478  1026.877
 479  1044.4
 480  1079.507
 481  1131.543
 482  1153.718
 483  1088.265
 484  1067.154
 485  1025.128
 486  1148.379
 487  1151.989
 488  975.9274
 489  973.0936
 490  1070.767
 491  1224.609
 492  1059.243
 493  925.9826
 494  920.7354
 495  1039.676
 496  1175.783
 497  1131.761
 498  1008.516
 499  1011.685
 500  1154.225
 501  1269.331
 502  1151.563
 503  1006.523
 504  1151.781
 505  1244.165
 506  1285.084
 507  1249.509
 508  1261.697
 509  1255.444
 510  1204.465
 511  1231.07
 512  1026.213
 513  927.0023
 514  977.176
 515  1047.002
 516  1063.184
 517  1037.287
 518  1235.348
 519  1197.535
 520  1193.929
 521  1148.723
 522  1201.643
 523  1160.653
 524  1229.309
 525  1262.772
 526  1278.485
 527  1195.503
 528  1135.531
 529  1057.543
 530  998.2819
 531  1006.666
 532  1040.336
 533  1238.33
 534  1295.682
 535  1219.258
 536  1217.104
 537  1219.676
 538  1212.657
 539  1052.487
 540  1087.641
 541  1219.942
 542  1290.759
 543  1306.67
 544  1219.04
 545  1196.026
 546  1132.351
 547  1209.844
 548  1146.377
 549  1139.33
 550  1082.136
 551  1160.52
 552  1127.575
 553  1162.515
 554  1262.619
 555  1378.813
 556  1252.996
 557  1258.815
 558  1169.642
 559  1276.61
 560  1282.564
 561  1402.09
 562  1260.324
 563  1088.065
 564  1053.976
 565  1041.556
 566  953.428
 567  898.2384
 568  995.679
 569  1157.957
 570  1133.115
 571  995.0967
 572  954.8384
 573  1089.29
 574  1257.303
 575  1287.974
 576  1196.408
 577  1163.478
 578  1121.797
 579  1070.052
 580  943.1741
 581  833.4756
 582  920.8278
 583  1029.047
 584  1111.947
 585  918.8887
 586  975.7563
 587  1102.598
 588  1136.568
 589  910.1101
 590  886.7994
 591  890.4317
 592  1050.214
 593  1098.339
 594  1118.119
 595  1006.707
 596  1073.958
 597  1255.871
 598  1320.685
 599  1090.896
 600  1051.221
 601  1119.658
 602  1109.292
 603  1045.597
 604  943.1915
 605  1090.575
 606  1105.316
 607  1180.19
 608  1142.89
 609  1170.849
 610  1170.521
 611  1226.287
 612  1141.139
 613  1184.625
 614  978.9879
 615  1140.416
 616  1128.434
 617  1180.808
 618  1028.844
 619  1120.46
 620  1283.651
 621  1294.52
 622  1216.758
 623  1289.721
 624  1353.634
 625  1525.226
 626  1494.154
 627  1569.772
 628  1469.044
 629  1579.7
 630  1637.401
 631  1641.06
 632  1608.671
 633  1643.571
 634  1785.116
 635  1628.678
 636  1466.252
 637  1311.678
 638  1405.711
 639  1330.93
 640  1335.012
 641  1322.331
 642  1383.625
 643  1370.843
 644  1474.359
 645  1376.277
 646  1291.208
 647  1167.337
 648  1220.255
 649  1180.857
 650  964.8804
 651  1005.324
 652  1076.609
 653  1179.662
 654  1020.629
 655  1004.45
 656  1046.174
 657  1244.818
 658  1197.142
 659  1077.566
 660  927.1935
 661  987.0602
 662  1297.143
 663  1360.162
 664  1291.747
 665  1223.172
 666  1286.195
 667  1302.552
 668  1156.021
 669  1016.736
 670  1081.276
 671  1124.643
 672  1238.009
 673  1268.911
 674  1290.214
 675  1218.163
 676  1215.725
 677  1165.328
 678  1137.248
 679  1028.529
 680  1171.825
 681  1210.097
 682  1150.159
 683  1205.349
 684  1308.436
 685  1369.021
 686  1215.615
 687  1227.731
 688  1385.895
 689  1427.609
 690  1342.804
 691  1197.385
 692  1066.142
 693  1092.281
 694  1110.633
 695  1078.099
 696  1017.347
 697  1026.433
 698  1094.14
 699  977.0355
 700  922.1017
 701  1000.615
 702  1101.951
 703  1253.357
 704  1214.916
 705  1180.5
 706  1153.037
 707  1274.235
 708  1208.33
 709  1060.333
 710  932.2244
 711  994.204
 712  1055.604
 713  1046.715
 714  1055.642
 715  1040.473
 716  1185.171
 717  1265.628
 718  1253.079
 719  1164.867
 720  1126.398
 721  1287.194
 722  1315.912
 723  1228.408
 724  1122.116
 725  1081.473
 726  1097.515
 727  1070.948
 728  968.0709
 729  835.544
 730  809.874
 731  953.5042
 732  957.1121
 733  956.418
 734  960.7064
 735  1059.538
 736  1200.906
 737  1206.007
 738  1211.467
 739  1117.753
 740  1150.703
 741  1191.848
 742  1126.169
 743  989.2545
 744  946.1246
 745  865.8818
 746  987.5853
 747  790.4388
 748  1095.803
 749  1116.468
 750  1313.568
 751  1138.162
 752  1137.111
 753  1249.465
 754  1266.005
 755  1120.354
 756  955.8865
 757  950.3149
 758  1007.082
 759  1027.836
 760  1023.666
 761  1034.137
 762  1064.952
 763  1111.96
 764  1045.694
 765  1058.096
 766  1041.748
 767  1054.963
 768  1057.51
 769  962.6625
 770  966.571
 771  1120.171
 772  1342.534
 773  1444.571
 774  1357.34
 775  1213.975
 776  1055.788
 777  1075.889
 778  1049.057
 779  1051.173
 780  834.8651
 781  892.9276
 782  896.3409
 783  950.6998
 784  1020.139
 785  1016.07
 786  1064.31
 787  1027.022
 788  974.0838
 789  1169.341
 790  1352.345
 791  1558
 792  1363.127
 793  1148.824
 794  1103.013
 795  1071.844
 796  1193.557
 797  1137.295
 798  1076.946
 799  973.3916
 800  1072.254
 801  1207.7
 802  1172.374
 803  1157.647
 804  1343.173
 805  1444.995
 806  1441.912
 807  1263.534
 808  1154.12
 809  1099.125
 810  1033.327
 811  1049.113
 812  1015.889
 813  1157.006
 814  1225.87
 815  1219.568
 816  1259.285
 817  1311.647
 818  1378.766
 819  1327.274
 820  1249.761
 821  1203.035
 822  1212.163
 823  1206.192
 824  1262.848
 825  1219.699
 826  1146.77
 827  1116.079
 828  1063.624
 829  948.9307
 830  798.8973
 831  943.1031
 832  1089.87
 833  1247.76
 834  1189.272
 835  1293.54
 836  1242.266
 837  1275.486
 838  1313.748
 839  1382.713
 840  1330.49
 841  1254.003
 842  1135.498
 843  1140.147
 844  1152.169
 845  1185.392
 846  1127.359
 847  1030.844
 848  905.7028
 849  1025.528
 850  1226.935
 851  1411.881
 852  1401.467
 853  1355.13
 854  1478.731
 855  1408.145
 856  1337.333
 857  1154.001
 858  1052.736
 859  1058.46
 860  1135.887
 861  1239.76
 862  1080.67
 863  1097.994
 864  1152.815
 865  1200.187
 866  981.2252
 867  892.3742
 868  1004.294
 869  1222.819
 870  1260.435
 871  1197.555
 872  1065.068
 873  1011.865
 874  1066.331
 875  1042.35
 876  1030.543
 877  984.3813
 878  975.1191
 879  984.0031
 880  987.9214
 881  1112.182
 882  1073.56
 883  1128.444
 884  1218.803
 885  1229.25
 886  1078.893
 887  919.1717
 888  955.7318
 889  1129.457
 890  1119.807
 891  1004.674
 892  993.2169
 893  1026.06
 894  1127.781
 895  987.8187
 896  1006.908
 897  1020.794
 898  1256.615
 899  1193.282
 900  1154.8
 901  1116.613
 902  1318.452
 903  1375.522
 904  1383.91
 905  1401.437
 906  1380.095
 907  1313.18
 908  1263.014
 909  1231.637
 910  1268.066
 911  1238.697
 912  1029.664
 913  1010.569
 914  1109.984
 915  1204.882
 916  1168.117
 917  1166.459
 918  1319.469
 919  1378.891
 920  1448.447
 921  1345.941
 922  1291.823
 923  1220.931
 924  1319.23
 925  1216.227
 926  1096.995
 927  1041.711
 928  1130.402
 929  1224.488
 930  1124.374
 931  1156.185
 932  1019.266
 933  1063.722
 934  1157.054
 935  1181.408
 936  1097.154
 937  1037.758
 938  1314.587
 939  1469.269
 940  1374.097
 941  1206.621
 942  1153.304
 943  1222.512
 944  1105.652
 945  1001.009
 946  1080.187
 947  1331.766
 948  1501.591
 949  1403.475
 950  1189.896
 951  1128.377
 952  1197.507
 953  1229.091
 954  1266.568
 955  1289.431
 956  1392.7
 957  1377.739
 958  1391.934
 959  1295.162
 960  1262.549
 961  1145.299
 962  1114.349
 963  1118.046
 964  1244.015
 965  1250.245
 966  1168.12
 967  1048.784
 968  1144.022
 969  1187.81
 970  1286.391
 971  1254.165
 972  1296.131
 973  1232.818
 974  1256.692
 975  1189.998
 976  1246.459
 977  1208.607
 978  1257.783
 979  1170.933
 980  1200.636
 981  1225.97
 982  1269.198
 983  1481.317
 984  1544.225
 985  1450.429
 986  1157.289
 987  1192.006
 988  1307.13
 989  1240.452
 990  1191.843
 991  1141.598
 992  1094.957
 993  1096.28
 994  1071.378
 995  1174.003
 996  1071.378
 997  1252.484
 998  1288.589
 999  1250.509
1000  1115.184
1001  1060.889
1002  1178.38
1003  1219.639
1004  1203.274
1005  1234.989
1006  1252.489
1007  1312.356
1008  1291.029
1009  1252.74
1010  1229.316
1011  1226.873
1012  1319.224
1013  1313.222
1014  1371.305
1015  1285.293
1016  1357.326
1017  1362.803
1018  1353.902
1019  1242.874
1020  1096.807
1021  1203.612
1022  1268.876
1023  1184.528
