# Input file       =  1194899111.10159_cleaned.dat
# Candidate        =  PSR_0332+5434
# Telescope        =  AR
# Epoch_topo       =  58073.851042842478
# Epoch_bary       =  N/A
# T_sample         =  0.002
# Data Folded      =  7340032
# Data Avg         =  0.0567371421896635
# Data StdDev      =  1.00042522969732 
# Profile Bins     =  512
# Profile Avg      =  813.376523305063 
# Profile StdDev   =  119.783950419584 
# Reduced chi-sqr  =  0.858
# Prob(Noise)      <  0.991   (~0.0 sigma)
# P_topo (ms)      =  714.511080736454  +/- 0.000168
# P'_topo (s/s)    =  -0                +/- 8.88e-11
# P''_topo (s/s^2) =  0                 +/- 3.92e-14
# P_bary (ms)      =  N/A
# P'_bary (s/s)    =  N/A
# P''_bary (s/s^2) =  N/A
# P_orb (s)        =  N/A
# asin(i)/c (s)    =  N/A
# eccentricity     =  N/A
# w (rad)          =  N/A
# T_peri           =  N/A
######################################################
   0  1146.093
   1  1169.921
   2  1041.642
   3  947.4357
   4  794.0685
   5  720.2386
   6  755.8162
   7  747.6532
   8  875.977
   9  862.7661
  10  853.4191
  11  796.9238
  12  777.838
  13  865.5406
  14  872.142
  15  891.5805
  16  953.8554
  17  915.2921
  18  905.4784
  19  887.1486
  20  867.9779
  21  837.5269
  22  911.7581
  23  937.7524
  24  803.2036
  25  745.4888
  26  783.0626
  27  698.9596
  28  666.6544
  29  733.704
  30  804.6496
  31  803.8636
  32  788.7341
  33  750.3307
  34  676.9507
  35  779.8845
  36  801.2805
  37  850.5992
  38  805.8018
  39  770.0978
  40  825.2294
  41  851.9408
  42  864.9272
  43  685.5437
  44  775.6306
  45  864.6964
  46  806.8696
  47  769.4178
  48  778.6769
  49  778.9537
  50  795.5148
  51  801.4786
  52  721.4733
  53  840.0586
  54  831.731
  55  772.7604
  56  647.59
  57  657.222
  58  776.046
  59  853.1367
  60  786.8755
  61  884.3243
  62  907.6718
  63  778.6747
  64  820.1304
  65  744.0227
  66  737.5705
  67  707.5951
  68  900.4211
  69  953.0604
  70  840.23
  71  770.1344
  72  771.6601
  73  704.0591
  74  714.912
  75  772.1121
  76  845.9742
  77  776.1301
  78  714.7011
  79  737.5193
  80  809.9361
  81  884.5696
  82  889.6514
  83  845.9448
  84  825.2795
  85  768.1243
  86  816.2978
  87  832.4467
  88  805.6803
  89  802.1077
  90  772.8066
  91  721.6464
  92  725.1313
  93  627.2418
  94  760.0391
  95  696.001
  96  703.9272
  97  811.8798
  98  844.7012
  99  816.4271
 100  738.1192
 101  755.7537
 102  758.2102
 103  730.9583
 104  738.0798
 105  745.1071
 106  668.2556
 107  776.4164
 108  799.0029
 109  782.4544
 110  769.77
 111  780.3599
 112  763.3614
 113  854.2868
 114  853.2189
 115  779.1483
 116  665.454
 117  777.8914
 118  797.839
 119  810.4365
 120  800.405
 121  711.9604
 122  814.3028
 123  751.4695
 124  799.0144
 125  902.3239
 126  862.5093
 127  726.0339
 128  701.7807
 129  785.4193
 130  840.7916
 131  683.5838
 132  754.2163
 133  730.1316
 134  770.0486
 135  687.8823
 136  695.3518
 137  866.6552
 138  839.8892
 139  793.3112
 140  782.5228
 141  765.4576
 142  683.7455
 143  680.9763
 144  664.1309
 145  763.1375
 146  783.2667
 147  817.2346
 148  840.2255
 149  882.0577
 150  707.8516
 151  716.8381
 152  693.6451
 153  707.9017
 154  892.2094
 155  866.4343
 156  864.3641
 157  855.5853
 158  846.9222
 159  685.4377
 160  642.2677
 161  840.5606
 162  975.6025
 163  801.6283
 164  744.4736
 165  788.4913
 166  797.1009
 167  764.8445
 168  741.097
 169  773.2806
 170  731.3585
 171  661.484
 172  618.8972
 173  744.6594
 174  648.5906
 175  743.59
 176  829.0692
 177  865.2927
 178  831.303
 179  716.9202
 180  772.8416
 181  803.251
 182  791.9606
 183  810.983
 184  746.7361
 185  631.7529
 186  666.5103
 187  663.1124
 188  791.1327
 189  839.3956
 190  762.9899
 191  687.4113
 192  792.2314
 193  759.1878
 194  713.506
 195  752.9343
 196  797.1599
 197  824.4476
 198  766.2677
 199  769.5794
 200  771.3127
 201  707.0513
 202  814.3935
 203  773.5737
 204  802.8016
 205  809.4648
 206  835.078
 207  772.6768
 208  844.4641
 209  763.6431
 210  643.3629
 211  758.2402
 212  811.71
 213  829.2529
 214  841.7002
 215  830.6332
 216  757.4161
 217  786.3726
 218  792.1623
 219  798.0026
 220  772.4998
 221  776.595
 222  853.6934
 223  904.6199
 224  772.4742
 225  726.2214
 226  841.2173
 227  916.2611
 228  863.0874
 229  915.4324
 230  852.1703
 231  754.5987
 232  703.4246
 233  730.2006
 234  843.0591
 235  850.6861
 236  1013.244
 237  891.8126
 238  832.1167
 239  903.824
 240  810.1346
 241  745.1692
 242  689.3457
 243  740.8616
 244  734.4183
 245  731.6184
 246  718.8298
 247  690.8242
 248  725.9172
 249  810.1125
 250  828.4927
 251  837.2585
 252  874.1273
 253  800.8609
 254  806.6096
 255  738.9803
 256  846.9404
 257  815.3297
 258  932.6063
 259  950.0022
 260  864.5701
 261  845.9951
 262  848.7233
 263  909.2379
 264  884.0079
 265  940.8819
 266  926.5108
 267  781.0952
 268  813.731
 269  814.1403
 270  799.2343
 271  822.3541
 272  959.2796
 273  891.1578
 274  812.3497
 275  794.467
 276  887.7873
 277  994.1988
 278  937.0389
 279  838.9731
 280  795.6199
 281  737.2794
 282  814.4135
 283  881.2808
 284  786.4562
 285  766.2247
 286  800.684
 287  831.874
 288  768.7509
 289  793.8483
 290  913.0733
 291  847.5757
 292  644.5178
 293  795.1976
 294  810.345
 295  768.8217
 296  815.7046
 297  741.1375
 298  650.8573
 299  706.6711
 300  740.3689
 301  726.4523
 302  846.6359
 303  925.7043
 304  851.941
 305  856.7394
 306  795.5743
 307  833.3638
 308  877.075
 309  922.2078
 310  951.6913
 311  795.4492
 312  765.3126
 313  740.7547
 314  777.4955
 315  813.7514
 316  841.0797
 317  785.8279
 318  836.376
 319  842.2349
 320  843.6592
 321  883.0327
 322  783.0812
 323  811.2617
 324  774.4356
 325  720.8229
 326  902.6599
 327  914.9651
 328  806.7003
 329  868.3329
 330  841.5865
 331  926.6182
 332  979.1146
 333  842.0432
 334  935.8423
 335  990.7253
 336  867.7615
 337  878.8619
 338  912.8438
 339  946.2527
 340  848.0164
 341  782.4985
 342  663.9834
 343  772.7432
 344  930.5363
 345  1031.052
 346  986.6787
 347  932.8604
 348  796.05
 349  776.2686
 350  781.5616
 351  906.795
 352  901.319
 353  784.286
 354  866.1113
 355  892.101
 356  788.6305
 357  783.6458
 358  748.7402
 359  778.086
 360  812.9107
 361  736.4081
 362  693.4641
 363  743.2957
 364  710.2853
 365  657.3658
 366  624.6462
 367  701.61
 368  850.1029
 369  860.0422
 370  854.5201
 371  789.2509
 372  807.4258
 373  895.4709
 374  845.3676
 375  773.6505
 376  830.253
 377  813.2786
 378  873.2864
 379  894.7611
 380  934.4618
 381  897.7045
 382  866.7521
 383  814.5593
 384  897.2126
 385  741.201
 386  787.026
 387  895.5565
 388  902.8571
 389  876.7198
 390  822.7588
 391  835.9189
 392  938.84
 393  909.8671
 394  903.1215
 395  830.4927
 396  813.1762
 397  795.4612
 398  805.6315
 399  779.0409
 400  814.4142
 401  848.4073
 402  887.6168
 403  874.7397
 404  813.4063
 405  839.2955
 406  829.8696
 407  766.5458
 408  857.8937
 409  853.7067
 410  775.8231
 411  779.7462
 412  865.3861
 413  880.1008
 414  801.2877
 415  851.6856
 416  862.8763
 417  840.2172
 418  785.4431
 419  746.0092
 420  847.092
 421  842.4648
 422  825.4352
 423  756.1465
 424  759.3802
 425  764.3526
 426  850.741
 427  838.9078
 428  823.9362
 429  759.3345
 430  782.3331
 431  1011.102
 432  995.8679
 433  847.8068
 434  828.5689
 435  789.1155
 436  834.9154
 437  875.5631
 438  793.0941
 439  713.9359
 440  817.2421
 441  837.4543
 442  834.3496
 443  743.881
 444  788.7809
 445  828.6824
 446  896.1674
 447  844.2764
 448  758.7258
 449  840.7969
 450  909.0966
 451  897.1807
 452  781.9954
 453  818.7536
 454  710.3837
 455  732.1771
 456  809.8349
 457  749.2472
 458  836.5959
 459  865.4602
 460  801.6355
 461  870.0226
 462  876.765
 463  743.8817
 464  803.7934
 465  904.6428
 466  837.715
 467  803.9677
 468  853.6787
 469  852.2471
 470  838.5059
 471  832.7379
 472  795.5918
 473  793.2596
 474  778.3551
 475  728.399
 476  799.1334
 477  860.3454
 478  816.6275
 479  802.2219
 480  834.9931
 481  792.397
 482  760.0079
 483  865.4528
 484  824.2655
 485  782.3661
 486  766.4991
 487  826.9302
 488  730.3577
 489  684.3221
 490  829.167
 491  796.3883
 492  799.7253
 493  875.3942
 494  983.8422
 495  950.8334
 496  841.0142
 497  892.8835
 498  926.4861
 499  896.7036
 500  900.9037
 501  893.2655
 502  845.2307
 503  848.5685
 504  973.0179
 505  944.4679
 506  894.3838
 507  855.6307
 508  911.9338
 509  1071.954
 510  1148.041
 511  1152.085
