# Input file       =  1194482637.105718_cleaned.dat
# Candidate        =  PSR_0332+5434
# Telescope        =  AR
# Epoch_topo       =  58069.030741964329
# Epoch_bary       =  N/A
# T_sample         =  0.002
# Data Folded      =  7340032
# Data Avg         =  0.0587986977833294
# Data StdDev      =  3.9695494166057  
# Profile Bins     =  512
# Profile Avg      =  843.195483520789 
# Profile StdDev   =  475.286204697821 
# Reduced chi-sqr  =  0.710
# Prob(Noise)      <  1   (~0.0 sigma)
# P_topo (ms)      =  714.506556696245  +/- 0.000361
# P'_topo (s/s)    =  -0                +/- 1.9e-10
# P''_topo (s/s^2) =  0                 +/- 8.41e-14
# P_bary (ms)      =  N/A
# P'_bary (s/s)    =  N/A
# P''_bary (s/s^2) =  N/A
# P_orb (s)        =  N/A
# asin(i)/c (s)    =  N/A
# eccentricity     =  N/A
# w (rad)          =  N/A
# T_peri           =  N/A
######################################################
   0  787.1917
   1  759.999
   2  800.4872
   3  1120.168
   4  1313.184
   5  687.7229
   6  314.3917
   7  495.9723
   8  498.3665
   9  607.9725
  10  847.084
  11  929.6666
  12  1140.925
  13  1004.873
  14  713.9706
  15  859.6164
  16  768.7798
  17  709.4052
  18  865.3497
  19  1192.023
  20  1161.036
  21  1052.834
  22  1091.093
  23  1107.254
  24  1135.806
  25  1076.663
  26  1144.578
  27  950.054
  28  680.5836
  29  524.3521
  30  603.8288
  31  972.9269
  32  1043.877
  33  1187.001
  34  972.6012
  35  1105.588
  36  948.0727
  37  861.3032
  38  750.6791
  39  701.6588
  40  450.4727
  41  552.3627
  42  814.0952
  43  923.2675
  44  725.7435
  45  565.8722
  46  910.9814
  47  1179.171
  48  987.5386
  49  619.6996
  50  562.3721
  51  489.3668
  52  885.7199
  53  1040.124
  54  776.6544
  55  455.0751
  56  413.7185
  57  552.02
  58  741.6769
  59  1148.469
  60  921.71
  61  1177.267
  62  834.0681
  63  406.4981
  64  564.0499
  65  658.1589
  66  582.096
  67  606.9482
  68  211.3975
  69  782.2833
  70  980.822
  71  640.5308
  72  406.2968
  73  416.5381
  74  570.846
  75  478.5712
  76  432.7856
  77  1001.059
  78  981.6583
  79  676.4036
  80  639.7902
  81  380.2519
  82  283.0056
  83  518.1685
  84  1062.778
  85  966.1541
  86  632.7867
  87  1099.782
  88  901.1029
  89  1059.431
  90  927.314
  91  824.0763
  92  1290.859
  93  1343.307
  94  781.7228
  95  945.7831
  96  983.7952
  97  436.8378
  98  854.813
  99  975.661
 100  589.3307
 101  441.9536
 102  401.7553
 103  726.0016
 104  671.3384
 105  442.0554
 106  654.6848
 107  754.2398
 108  965.1151
 109  852.9472
 110  550.6819
 111  629.6157
 112  425.7084
 113  731.6154
 114  585.4014
 115  803.6219
 116  586.3404
 117  582.1431
 118  646.4763
 119  714.9449
 120  1027.731
 121  558.2583
 122  685.3397
 123  766.907
 124  1075.708
 125  1183.986
 126  1115.806
 127  895.3346
 128  1383.428
 129  1139.008
 130  964.131
 131  1110.913
 132  817.5971
 133  1201.241
 134  1351.88
 135  1280.651
 136  1147.442
 137  951.0065
 138  1077.871
 139  1000.096
 140  787.5502
 141  701.4739
 142  824.3467
 143  1164.772
 144  736.1638
 145  667.4517
 146  989.1304
 147  627.4541
 148  660.7667
 149  808.2242
 150  927.7845
 151  908.1403
 152  597.8291
 153  913.883
 154  616.0426
 155  749.7702
 156  1033.276
 157  1155.582
 158  798.3593
 159  933.4921
 160  981.6097
 161  748.4876
 162  903.8248
 163  1082.081
 164  982.48
 165  782.1627
 166  479.0759
 167  1058.181
 168  1154.487
 169  1082.79
 170  940.7447
 171  609.1006
 172  470.1257
 173  501.8751
 174  537.2167
 175  571.5385
 176  719.2587
 177  1250.231
 178  1121.829
 179  838.8901
 180  650.86
 181  779.2986
 182  760.2253
 183  1051.049
 184  1151.624
 185  623.9803
 186  990.9587
 187  1203.22
 188  950.9424
 189  698.4817
 190  502.2005
 191  986.0732
 192  1292.475
 193  1417.62
 194  986.4667
 195  899.2556
 196  627.1006
 197  437.4448
 198  741.8899
 199  1006.721
 200  1086.572
 201  634.1324
 202  550.5045
 203  382.99
 204  399.8181
 205  1027.782
 206  1045.921
 207  868.1791
 208  967.0344
 209  585.1771
 210  262.8927
 211  456.2729
 212  1003.377
 213  1008.325
 214  985.1653
 215  874.6987
 216  802.2149
 217  1027.495
 218  1401.018
 219  1269.566
 220  1009.648
 221  1089.359
 222  1299.069
 223  1241.485
 224  1629.603
 225  1460.018
 226  909.9481
 227  791.2806
 228  765.4904
 229  439.9671
 230  753.1124
 231  1051.295
 232  922.7679
 233  983.3022
 234  1061.522
 235  1145.679
 236  467.2812
 237  541.0134
 238  603.8749
 239  870.3881
 240  1123.092
 241  1322.019
 242  1274.852
 243  700.1438
 244  782.2948
 245  916.5253
 246  1003.459
 247  840.3632
 248  610.651
 249  852.4896
 250  944.7369
 251  957.4419
 252  754.1571
 253  941.5327
 254  607.6198
 255  589.5107
 256  872.8217
 257  1075.735
 258  1325.609
 259  1020.584
 260  955.7067
 261  852.1055
 262  519.9628
 263  580.4661
 264  547.2131
 265  930.1679
 266  1335.35
 267  884.1713
 268  660.7057
 269  821.7811
 270  1158.666
 271  926.7812
 272  598.5505
 273  1012.166
 274  758.3559
 275  663.0981
 276  957.4765
 277  676.2953
 278  552.8189
 279  686.4622
 280  749.7493
 281  767.1138
 282  521.5593
 283  713.7073
 284  809.1683
 285  580.1808
 286  614.7468
 287  582.6959
 288  477.4761
 289  752.5746
 290  709.0255
 291  1016.859
 292  991.4921
 293  1046.533
 294  952.5826
 295  395.2983
 296  664.5049
 297  698.4354
 298  742.4172
 299  702.4896
 300  256.2022
 301  666.9401
 302  640.029
 303  591.6931
 304  473.7839
 305  879.2831
 306  869.9432
 307  968.5386
 308  779.8618
 309  212.3875
 310  445.0352
 311  564.9658
 312  742.8248
 313  1020.414
 314  1243.75
 315  1003.08
 316  960.5077
 317  1226.225
 318  1598.104
 319  1319.884
 320  1022.283
 321  1190.943
 322  1050.583
 323  747.1819
 324  684.4342
 325  876.3308
 326  755.4582
 327  870.1974
 328  991.8902
 329  1083.083
 330  783.2106
 331  959.0999
 332  1202.49
 333  691.1727
 334  933.4365
 335  894.2503
 336  861.0043
 337  977.0807
 338  929.8926
 339  943.8676
 340  1004.18
 341  1085.862
 342  724.5516
 343  773.4556
 344  958.2689
 345  1373.825
 346  1101.2
 347  1129.635
 348  1203.919
 349  1386.929
 350  1727.685
 351  2055.479
 352  2414.283
 353  2610.224
 354  1924.663
 355  1363.712
 356  867.0382
 357  576.7914
 358  658.2798
 359  811.476
 360  563.5645
 361  694.2419
 362  964.1849
 363  780.0471
 364  903.4395
 365  1023.431
 366  698.1742
 367  472.6963
 368  387.7592
 369  950.7415
 370  706.4968
 371  945.4631
 372  882.4898
 373  599.7007
 374  389.49
 375  392.244
 376  758.7587
 377  496.1613
 378  702.3259
 379  429.8552
 380  69.25781
 381  381.4556
 382  795.8324
 383  1041.918
 384  1093.43
 385  1033.296
 386  729.6964
 387  617.5381
 388  613.5152
 389  852.3173
 390  766.1931
 391  919.322
 392  829.9423
 393  998.1756
 394  1111.152
 395  1118.377
 396  1009.625
 397  805.8045
 398  404.362
 399  547.6942
 400  1001.367
 401  944.2556
 402  635.6136
 403  543.2385
 404  578.7015
 405  505.1054
 406  785.2443
 407  556.1649
 408  684.0087
 409  597.1923
 410  764.293
 411  816.8229
 412  928.6077
 413  930.1974
 414  816.8865
 415  958.1054
 416  1024.801
 417  1031.078
 418  1057.976
 419  808.5857
 420  763.786
 421  609.2312
 422  702.2601
 423  824.0092
 424  838.9438
 425  1048.238
 426  681.9759
 427  798.33
 428  1086.456
 429  546.9958
 430  85.86775
 431  297.6809
 432  370.2723
 433  379.0172
 434  661.238
 435  771.6789
 436  677.3482
 437  1048.014
 438  1047.666
 439  906.3167
 440  501.754
 441  844.588
 442  860.1439
 443  740.9479
 444  662.016
 445  853.4373
 446  1217.126
 447  1253.749
 448  1026.89
 449  761.1416
 450  890.1635
 451  536.03
 452  381.4466
 453  784.6234
 454  762.8426
 455  1024.48
 456  881.0967
 457  713.1884
 458  471.3372
 459  131.5808
 460  844.0518
 461  711.0483
 462  584.5198
 463  833.2606
 464  605.6287
 465  197.5632
 466  438.8252
 467  783.4774
 468  659.7636
 469  989.1536
 470  1066.603
 471  725.8855
 472  389.4992
 473  350.6718
 474  731.7015
 475  851.1073
 476  1103.253
 477  1192.097
 478  1223.629
 479  1072.655
 480  1166.076
 481  1252.666
 482  1397.68
 483  1214.991
 484  915.1437
 485  1069.375
 486  1021.809
 487  852.7877
 488  887.5806
 489  827.7086
 490  881.4985
 491  618.8143
 492  739.6918
 493  1029.038
 494  962.8295
 495  909.1851
 496  801.7903
 497  993.455
 498  821.1675
 499  797.1992
 500  946.7657
 501  828.3595
 502  976.4296
 503  1146.328
 504  851.509
 505  630.7501
 506  724.7413
 507  844.2419
 508  1264.813
 509  1468.646
 510  1185.942
 511  833.3406
