# Input file       =  1194123649.104459_cleaned.dat
# Candidate        =  PSR_0332+5434
# Telescope        =  AR
# Epoch_topo       =  58064.875788246056
# Epoch_bary       =  N/A
# T_sample         =  0.002
# Data Folded      =  7340032
# Data Avg         =  0.223619230255801
# Data StdDev      =  5.53153154804733 
# Profile Bins     =  1024
# Profile Avg      =  1603.25185546214 
# Profile StdDev   =  468.321819054124 
# Reduced chi-sqr  =  0.351
# Prob(Noise)      <  1   (~0.0 sigma)
# P_topo (ms)      =  714.502170543052  +/- 0.000697
# P'_topo (s/s)    =  -0                +/- 3.68e-10
# P''_topo (s/s^2) =  0                 +/- 1.62e-13
# P_bary (ms)      =  N/A
# P'_bary (s/s)    =  N/A
# P''_bary (s/s^2) =  N/A
# P_orb (s)        =  N/A
# asin(i)/c (s)    =  N/A
# eccentricity     =  N/A
# w (rad)          =  N/A
# T_peri           =  N/A
######################################################
   0  1730.901
   1  1744.213
   2  1761.484
   3  1722.739
   4  1641.012
   5  1647.807
   6  1670.292
   7  1657.316
   8  1589.931
   9  1534.95
  10  1635.284
  11  1736.67
  12  1863.83
  13  1868.19
  14  1835.88
  15  1832.12
  16  1857.656
  17  1795.127
  18  1665.158
  19  1645.818
  20  1778.184
  21  1738.321
  22  1742.178
  23  1805.646
  24  1868.136
  25  1710.929
  26  1637.12
  27  1664.238
  28  1675.726
  29  1727.136
  30  1841.131
  31  1832.795
  32  1826.33
  33  1705.563
  34  1708.108
  35  1653.23
  36  1604.975
  37  1605.069
  38  1642.833
  39  1600.193
  40  1613.014
  41  1618.121
  42  1631.661
  43  1596.098
  44  1657.996
  45  1674.075
  46  1670.59
  47  1719.803
  48  1667.344
  49  1562.495
  50  1541.83
  51  1653.219
  52  1543.504
  53  1365.085
  54  1334.56
  55  1440.161
  56  1622.224
  57  1749.723
  58  1771.413
  59  1660.076
  60  1579.353
  61  1466.781
  62  1460.834
  63  1389.85
  64  1342.49
  65  1398.969
  66  1449.145
  67  1623.048
  68  1669.17
  69  1565.375
  70  1475.459
  71  1472.019
  72  1554.566
  73  1549.104
  74  1596.677
  75  1752.378
  76  1747.187
  77  1758.627
  78  1715.472
  79  1586.051
  80  1493.272
  81  1395.659
  82  1374.075
  83  1478.929
  84  1473.59
  85  1397.389
  86  1325.996
  87  1363.542
  88  1548.137
  89  1580.176
  90  1715.591
  91  1546.189
  92  1449.212
  93  1296.201
  94  1314.432
  95  1523.26
  96  1621.907
  97  1621.24
  98  1614.563
  99  1678.616
 100  1754.761
 101  1692.343
 102  1570.171
 103  1410.485
 104  1380.225
 105  1415.234
 106  1288.628
 107  1179.656
 108  1183.392
 109  1427.459
 110  1451.36
 111  1449.043
 112  1383.276
 113  1457.997
 114  1476.579
 115  1530.051
 116  1558.381
 117  1560.757
 118  1500.088
 119  1497.285
 120  1537.119
 121  1539.167
 122  1517.194
 123  1497.411
 124  1442.358
 125  1516.037
 126  1559.114
 127  1615.393
 128  1534.438
 129  1526.031
 130  1650.123
 131  1857.054
 132  1860.347
 133  1765.964
 134  1639.649
 135  1637.348
 136  1620.003
 137  1709.756
 138  1770.803
 139  1874.633
 140  1804.282
 141  1574.114
 142  1494.092
 143  1472.476
 144  1589.07
 145  1559.274
 146  1526.161
 147  1543.896
 148  1622.827
 149  1665.481
 150  1683.048
 151  1658.851
 152  1659.659
 153  1425.04
 154  1355.081
 155  1347.591
 156  1463.148
 157  1587.917
 158  1646.272
 159  1708.874
 160  1773.593
 161  1883.636
 162  1741.239
 163  1588.03
 164  1467.224
 165  1566.129
 166  1666.308
 167  1644.963
 168  1588.655
 169  1619.94
 170  1572.28
 171  1548.675
 172  1540.468
 173  1609.647
 174  1728.366
 175  1629.033
 176  1646.427
 177  1573.815
 178  1530.857
 179  1505.382
 180  1473.86
 181  1570.902
 182  1580.09
 183  1707.08
 184  1768.484
 185  1843.275
 186  1752.375
 187  1744.567
 188  1624.255
 189  1524.626
 190  1565.106
 191  1670.005
 192  1735.678
 193  1648.46
 194  1530.495
 195  1525.225
 196  1553.132
 197  1596.149
 198  1477.251
 199  1563.933
 200  1575.235
 201  1518.028
 202  1464.039
 203  1620.165
 204  1587.198
 205  1444.775
 206  1342.995
 207  1288.68
 208  1193.521
 209  1314.381
 210  1366.154
 211  1533.504
 212  1524.773
 213  1625.859
 214  1636.851
 215  1694.088
 216  1582.265
 217  1464.533
 218  1453.205
 219  1500.486
 220  1594.546
 221  1633.452
 222  1674.358
 223  1730.61
 224  1674.513
 225  1645.427
 226  1603.485
 227  1675.369
 228  1671.402
 229  1697.06
 230  1668.958
 231  1625.336
 232  1613.519
 233  1652.181
 234  1704.093
 235  1578.108
 236  1531.168
 237  1542.851
 238  1517.279
 239  1459.021
 240  1401.047
 241  1460.986
 242  1464.247
 243  1498.049
 244  1548.225
 245  1630.953
 246  1735.652
 247  1643.45
 248  1548.92
 249  1372.008
 250  1388.595
 251  1458.785
 252  1552.224
 253  1479.959
 254  1501.047
 255  1558.41
 256  1627.526
 257  1604.157
 258  1620.292
 259  1708.677
 260  1786.698
 261  1862.596
 262  1866.466
 263  1838.748
 264  1735.061
 265  1653.677
 266  1659.235
 267  1671.676
 268  1715.164
 269  1641.998
 270  1678.167
 271  1677.935
 272  1652.943
 273  1605.488
 274  1589.33
 275  1667.239
 276  1703.66
 277  1629.655
 278  1557.691
 279  1467.625
 280  1527.256
 281  1459.95
 282  1518.446
 283  1457.17
 284  1431.481
 285  1407.365
 286  1432.03
 287  1591.637
 288  1709.785
 289  1719.443
 290  1688.017
 291  1638.518
 292  1583.178
 293  1480.604
 294  1457.859
 295  1585.006
 296  1637.188
 297  1658.916
 298  1684.979
 299  1826.489
 300  1723.247
 301  1719.312
 302  1682.099
 303  1740.536
 304  1731.101
 305  1772.476
 306  1791.016
 307  1703.643
 308  1635.856
 309  1698.134
 310  1699.983
 311  1642.832
 312  1642.341
 313  1512.212
 314  1547.24
 315  1506.974
 316  1639.051
 317  1637.127
 318  1631.994
 319  1638.039
 320  1711.445
 321  1667.492
 322  1584.257
 323  1672.397
 324  1612.965
 325  1673.361
 326  1618.236
 327  1634.973
 328  1536.706
 329  1525.316
 330  1782.447
 331  1915.281
 332  1912.577
 333  1690.073
 334  1433.602
 335  1349.537
 336  1327.093
 337  1291.384
 338  1390.491
 339  1433.863
 340  1576.692
 341  1646.924
 342  1695.442
 343  1706.44
 344  1700.114
 345  1691.727
 346  1625.517
 347  1636.811
 348  1729.946
 349  1827.106
 350  1790.906
 351  1710.122
 352  1808.271
 353  1814.611
 354  1779.042
 355  1764.298
 356  1908.189
 357  1992.778
 358  1868.409
 359  1695.528
 360  1510.137
 361  1620.243
 362  1653.799
 363  1737.283
 364  1712.913
 365  1701.24
 366  1766.487
 367  1836.684
 368  1983.286
 369  1998.625
 370  1880.118
 371  1895.525
 372  1847.876
 373  1927.26
 374  1924.493
 375  1829.729
 376  1791.295
 377  1802.737
 378  1850.637
 379  1795.669
 380  1899.47
 381  1925.424
 382  1969.235
 383  1870.385
 384  1772.944
 385  1669.784
 386  1622.586
 387  1637.674
 388  1638.541
 389  1619.969
 390  1565.496
 391  1556.211
 392  1634.49
 393  1657.023
 394  1611.516
 395  1676.086
 396  1719.231
 397  1619.853
 398  1560.084
 399  1479.261
 400  1553.947
 401  1533.333
 402  1564.76
 403  1616.094
 404  1728.241
 405  1833.131
 406  1797.31
 407  1813.319
 408  1773.352
 409  1722.62
 410  1708.746
 411  1739.721
 412  1757.813
 413  1625.94
 414  1591.289
 415  1546.976
 416  1658.176
 417  1586.443
 418  1672.661
 419  1784.573
 420  1856.361
 421  1693.126
 422  1618.711
 423  1739.759
 424  1816.764
 425  1765.773
 426  1626.928
 427  1601.13
 428  1657.649
 429  1650.308
 430  1565
 431  1649.499
 432  1623.375
 433  1624.828
 434  1632.258
 435  1818.417
 436  1840.981
 437  1613.878
 438  1573.065
 439  1500.841
 440  1477.005
 441  1440.928
 442  1428.735
 443  1438.866
 444  1509.837
 445  1558.01
 446  1558.35
 447  1546.522
 448  1708.366
 449  1802.349
 450  1757.961
 451  1694.991
 452  1705.292
 453  1740.984
 454  1694.765
 455  1793.137
 456  1627.72
 457  1579.476
 458  1473.83
 459  1586.915
 460  1645.335
 461  1592.812
 462  1694.311
 463  1723.698
 464  1707.869
 465  1665.186
 466  1673.192
 467  1646.733
 468  1500.557
 469  1435.52
 470  1408.555
 471  1491.162
 472  1471.155
 473  1632.363
 474  1731.185
 475  1658.917
 476  1672.076
 477  1652.256
 478  1653.071
 479  1649.747
 480  1603.733
 481  1654.745
 482  1550.981
 483  1519.861
 484  1526.94
 485  1477.953
 486  1474.548
 487  1457.191
 488  1646.763
 489  1870.617
 490  1857.271
 491  1741.99
 492  1611.267
 493  1588.148
 494  1662.735
 495  1690.813
 496  1744.642
 497  1760.911
 498  1756.018
 499  1551.172
 500  1544.041
 501  1614.167
 502  1782.602
 503  1660.286
 504  1562.403
 505  1520.807
 506  1523.305
 507  1564.734
 508  1607.383
 509  1710.317
 510  1622.739
 511  1528.731
 512  1530.834
 513  1473.518
 514  1402.617
 515  1302.017
 516  1295.385
 517  1392.053
 518  1457.046
 519  1519.044
 520  1540.29
 521  1632.177
 522  1702.052
 523  1701.577
 524  1660.673
 525  1584.634
 526  1448.527
 527  1381.393
 528  1365.122
 529  1390.152
 530  1383.013
 531  1457.044
 532  1563.815
 533  1542.613
 534  1555.375
 535  1527.022
 536  1534.983
 537  1519.892
 538  1504.801
 539  1520.666
 540  1494.701
 541  1493.562
 542  1355.004
 543  1497.954
 544  1594.919
 545  1755.402
 546  1622.201
 547  1581.295
 548  1609.201
 549  1725.06
 550  1737.362
 551  1808.611
 552  1721.675
 553  1706.922
 554  1705.437
 555  1806.396
 556  1789.719
 557  1739.575
 558  1667.681
 559  1559.39
 560  1475.943
 561  1429.521
 562  1553.758
 563  1593.972
 564  1653.744
 565  1671.814
 566  1788.216
 567  1745.449
 568  1780.241
 569  1700.213
 570  1812.07
 571  1718.579
 572  1639.531
 573  1452.386
 574  1382.156
 575  1436.681
 576  1554.619
 577  1594.485
 578  1559.701
 579  1521.565
 580  1575.023
 581  1605.342
 582  1719.071
 583  1815.546
 584  1866.499
 585  1784.094
 586  1680.618
 587  1682.883
 588  1687.969
 589  1608.778
 590  1495.32
 591  1437.967
 592  1371.324
 593  1381.026
 594  1406.988
 595  1609.163
 596  1624.374
 597  1690.733
 598  1609.518
 599  1481.681
 600  1461.122
 601  1461.854
 602  1489.297
 603  1482.252
 604  1510.709
 605  1534.385
 606  1441.99
 607  1314.615
 608  1224.055
 609  1334.199
 610  1351.874
 611  1326.62
 612  1314.575
 613  1381.185
 614  1490.855
 615  1388.822
 616  1429.388
 617  1489.718
 618  1554.214
 619  1456.386
 620  1379.83
 621  1380.632
 622  1562.823
 623  1626.803
 624  1727.849
 625  1747.996
 626  1825.011
 627  1963.307
 628  2129.5
 629  2222.749
 630  2307.598
 631  2323.288
 632  2302.968
 633  2257.141
 634  2209.19
 635  2162.561
 636  2078.094
 637  2010.957
 638  1941.693
 639  1761.026
 640  1559.115
 641  1431.209
 642  1409.21
 643  1482.829
 644  1472.768
 645  1487.582
 646  1477.965
 647  1444.051
 648  1501.672
 649  1603.666
 650  1634.675
 651  1526.257
 652  1507.46
 653  1323.95
 654  1322.836
 655  1393.989
 656  1600.76
 657  1619.305
 658  1547.441
 659  1478.798
 660  1447.626
 661  1485.997
 662  1561.099
 663  1663.75
 664  1748.492
 665  1642.605
 666  1568.892
 667  1478.281
 668  1388.452
 669  1327.591
 670  1446.913
 671  1578.659
 672  1482.835
 673  1497.104
 674  1534.522
 675  1655.088
 676  1608.576
 677  1592.52
 678  1641.614
 679  1625.327
 680  1594.3
 681  1474.287
 682  1557.16
 683  1496.461
 684  1454.258
 685  1382.152
 686  1404.849
 687  1415.367
 688  1512.93
 689  1566.67
 690  1457.595
 691  1305.9
 692  1274.797
 693  1409.651
 694  1534.858
 695  1524.769
 696  1561.439
 697  1548.656
 698  1542.387
 699  1435.337
 700  1415.199
 701  1465.948
 702  1572.872
 703  1707.629
 704  1838.526
 705  1776.108
 706  1672.154
 707  1470.347
 708  1463.686
 709  1418.186
 710  1439.273
 711  1394.223
 712  1458.617
 713  1497.589
 714  1538.06
 715  1457.214
 716  1541.242
 717  1599.741
 718  1607.185
 719  1559.602
 720  1528.205
 721  1473.692
 722  1413.701
 723  1421.258
 724  1550.994
 725  1506.834
 726  1502.307
 727  1514.46
 728  1535.845
 729  1514.1
 730  1421.278
 731  1583.446
 732  1645.4
 733  1570.982
 734  1486.255
 735  1621.791
 736  1642.599
 737  1607.504
 738  1643.409
 739  1778.673
 740  1802.149
 741  1664.502
 742  1515.428
 743  1398.877
 744  1341.977
 745  1362.47
 746  1450.516
 747  1554.684
 748  1531.248
 749  1454.211
 750  1446.44
 751  1483.752
 752  1543.761
 753  1554.474
 754  1534.518
 755  1563.08
 756  1538.665
 757  1635.285
 758  1656.79
 759  1630.728
 760  1664.261
 761  1619.538
 762  1736.726
 763  1639.304
 764  1624.271
 765  1497.911
 766  1572.263
 767  1500.27
 768  1530.666
 769  1612.247
 770  1704.446
 771  1678.389
 772  1616.175
 773  1604.584
 774  1572.74
 775  1704.335
 776  1648.762
 777  1685.152
 778  1636.557
 779  1687.095
 780  1790.604
 781  1764.221
 782  1665.625
 783  1608.335
 784  1735.605
 785  1774.535
 786  1778.729
 787  1711.952
 788  1642.511
 789  1589.44
 790  1580.545
 791  1558.529
 792  1420.452
 793  1443.736
 794  1630.99
 795  1772.458
 796  1744.53
 797  1506.486
 798  1405.388
 799  1422.836
 800  1466.175
 801  1450.341
 802  1669.47
 803  1774.059
 804  1906.964
 805  1932.64
 806  1932.696
 807  1859.09
 808  1746.33
 809  1668.361
 810  1661.269
 811  1607.493
 812  1712.82
 813  1689.339
 814  1662.19
 815  1600.527
 816  1619.644
 817  1829.452
 818  1877.691
 819  1855.471
 820  1721.181
 821  1705.326
 822  1676.152
 823  1706.752
 824  1758.137
 825  1781.416
 826  1769.323
 827  1779.153
 828  1836.907
 829  1867.386
 830  1917.557
 831  1947.213
 832  1996.538
 833  2037.583
 834  2023.033
 835  1875.444
 836  1757.898
 837  1794.134
 838  1891.472
 839  1794.271
 840  1688.562
 841  1660.396
 842  1731.858
 843  1731.455
 844  1591.609
 845  1545.763
 846  1469.458
 847  1592.618
 848  1608.619
 849  1608.556
 850  1495.502
 851  1465.333
 852  1345.199
 853  1246.836
 854  1233.221
 855  1390.462
 856  1579.893
 857  1564.731
 858  1517.92
 859  1515.474
 860  1602.106
 861  1574.086
 862  1598.092
 863  1579.013
 864  1657.099
 865  1660.676
 866  1686.573
 867  1612.931
 868  1529.69
 869  1452.241
 870  1493.274
 871  1576.941
 872  1570.327
 873  1478.131
 874  1451.319
 875  1560.582
 876  1649.411
 877  1603.198
 878  1535.148
 879  1517.059
 880  1475.474
 881  1515.457
 882  1507.086
 883  1499.145
 884  1499.031
 885  1458.344
 886  1437.727
 887  1531.415
 888  1628.197
 889  1735.991
 890  1677.175
 891  1690.203
 892  1669.151
 893  1654.668
 894  1530.625
 895  1474.014
 896  1568.965
 897  1625.701
 898  1655.217
 899  1515.471
 900  1522.656
 901  1457.373
 902  1500.396
 903  1587.711
 904  1748.103
 905  1914.35
 906  1870.816
 907  1726.927
 908  1565.972
 909  1524.717
 910  1591.521
 911  1644.806
 912  1637.353
 913  1673.689
 914  1608.414
 915  1580.255
 916  1586.97
 917  1648.67
 918  1549.775
 919  1518.467
 920  1437.935
 921  1488.483
 922  1390.626
 923  1347.98
 924  1422.297
 925  1382.072
 926  1456.318
 927  1364.151
 928  1386.703
 929  1410.898
 930  1490.333
 931  1529.577
 932  1601.574
 933  1704.715
 934  1577.35
 935  1549.781
 936  1490.839
 937  1534.567
 938  1485.725
 939  1475.721
 940  1436.544
 941  1351.763
 942  1283.369
 943  1258.121
 944  1294.676
 945  1397.333
 946  1446.837
 947  1562.202
 948  1597.197
 949  1590.91
 950  1505.506
 951  1451.746
 952  1469.313
 953  1454.966
 954  1406.693
 955  1357.037
 956  1345.064
 957  1400.814
 958  1432.808
 959  1338.167
 960  1263.484
 961  1252.264
 962  1362.36
 963  1372.952
 964  1359.805
 965  1322.156
 966  1538.511
 967  1534.713
 968  1595.111
 969  1465.074
 970  1524.722
 971  1609.449
 972  1593.201
 973  1601.525
 974  1533.452
 975  1515.291
 976  1552.564
 977  1619.474
 978  1727.243
 979  1803.255
 980  1756.232
 981  1788.615
 982  1737.165
 983  1712.059
 984  1623.901
 985  1537.966
 986  1432.204
 987  1510.982
 988  1616.79
 989  1728.265
 990  1561.907
 991  1513.125
 992  1497.162
 993  1706.946
 994  1720.865
 995  1682.927
 996  1474.796
 997  1456.013
 998  1426.727
 999  1560.517
1000  1611.034
1001  1669.327
1002  1639.223
1003  1601.07
1004  1552.5
1005  1494.456
1006  1418.683
1007  1427.709
1008  1480.758
1009  1638.809
1010  1728.255
1011  1674.602
1012  1700.431
1013  1697.319
1014  1754.45
1015  1705.767
1016  1735.714
1017  1607.878
1018  1581.11
1019  1550.398
1020  1641.741
1021  1652.807
1022  1672.912
1023  1733.728
