# Input file       =  1194797738.111993_cleaned.dat
# Candidate        =  PSR_0332+5434
# Telescope        =  AR
# Epoch_topo       =  58072.677744351771
# Epoch_bary       =  N/A
# T_sample         =  0.002
# Data Folded      =  7471104
# Data Avg         =  0.0764665980067659
# Data StdDev      =  3.51545201531171 
# Profile Bins     =  512
# Profile Avg      =  1115.55501378752 
# Profile StdDev   =  424.657290891877 
# Reduced chi-sqr  =  0.704
# Prob(Noise)      <  1   (~0.0 sigma)
# P_topo (ms)      =  714.509871206274  +/- 7e-05
# P'_topo (s/s)    =  -0                +/- 3.63e-11
# P''_topo (s/s^2) =  0                 +/- 1.57e-14
# P_bary (ms)      =  N/A
# P'_bary (s/s)    =  N/A
# P''_bary (s/s^2) =  N/A
# P_orb (s)        =  N/A
# asin(i)/c (s)    =  N/A
# eccentricity     =  N/A
# w (rad)          =  N/A
# T_peri           =  N/A
######################################################
   0  1498.908
   1  1217.578
   2  1154.475
   3  1345.219
   4  1318.406
   5  1113.183
   6  1055.524
   7  1193.28
   8  1345.322
   9  1206.478
  10  1350.699
  11  966.9794
  12  925.1812
  13  983.796
  14  1453.945
  15  1142.579
  16  1149.876
  17  1123.086
  18  1035.043
  19  1180.554
  20  1241.965
  21  1428.822
  22  1253.414
  23  1123.981
  24  1433.114
  25  1236.378
  26  835.1813
  27  575.6901
  28  1091.205
  29  1508.769
  30  1120.837
  31  1308.456
  32  1109.537
  33  975.0538
  34  831.5034
  35  990.0391
  36  1392.157
  37  1265.239
  38  1303.341
  39  1563.179
  40  1724.708
  41  1606.408
  42  1322.211
  43  987.4736
  44  1311.816
  45  1102.632
  46  912.338
  47  1001.685
  48  1146.084
  49  1351.673
  50  1430.151
  51  1179.435
  52  892.1078
  53  1363.548
  54  1094.053
  55  1096.811
  56  883.832
  57  761.8294
  58  913.0864
  59  672.2836
  60  1002.231
  61  1192.497
  62  1026.01
  63  733.159
  64  704.8423
  65  1156.421
  66  1048.103
  67  1078.496
  68  1247.952
  69  1256.526
  70  1091.403
  71  1406.5
  72  1380.424
  73  1041.145
  74  1349.984
  75  1360.01
  76  1235.741
  77  1379.687
  78  1486.953
  79  1399.076
  80  1034.145
  81  1245.865
  82  1118.302
  83  1039.433
  84  1337.537
  85  1401.031
  86  1594.122
  87  1247.404
  88  806.944
  89  1172.953
  90  1590.167
  91  893.3992
  92  933.9664
  93  1081.668
  94  1087.538
  95  774.5149
  96  927.3231
  97  1441.103
  98  1127.898
  99  712.8627
 100  1004.696
 101  1227.687
 102  1013.454
 103  937.614
 104  1085.58
 105  1493.195
 106  1138.008
 107  1253.294
 108  1008.015
 109  801.694
 110  731.9102
 111  1077.679
 112  929.3651
 113  1274.165
 114  1490.74
 115  1392.55
 116  1400.24
 117  1331.025
 118  1234.477
 119  1025.177
 120  1219.537
 121  1297.474
 122  1116.045
 123  1319.215
 124  1324.827
 125  1244.01
 126  1113.779
 127  1188.335
 128  1145.64
 129  1146.885
 130  900.5035
 131  792.0532
 132  1128.778
 133  903.3821
 134  1190.65
 135  1117.445
 136  1073.359
 137  810.9834
 138  864.5098
 139  1132.77
 140  961.6055
 141  1550.912
 142  1510.79
 143  1039.19
 144  825.7164
 145  921.0191
 146  1128.457
 147  903.202
 148  1115.559
 149  1395.06
 150  1518.388
 151  1225.143
 152  1191.451
 153  1156.171
 154  980.5141
 155  1290.418
 156  1030.403
 157  980.4581
 158  1109.62
 159  958.0471
 160  1013.834
 161  1054.573
 162  954.6254
 163  1062.893
 164  1157.597
 165  1400.208
 166  1057.927
 167  898.8
 168  953.4308
 169  792.3169
 170  1126.061
 171  1316.901
 172  1477.964
 173  1028.698
 174  1129.535
 175  1222.838
 176  1213.877
 177  1352.493
 178  1216.922
 179  820.8314
 180  802.3279
 181  1521.866
 182  1727.043
 183  1214.881
 184  1178.341
 185  1211.84
 186  1546.558
 187  1364.978
 188  963.2611
 189  1190.513
 190  1288.817
 191  924.4283
 192  789.1418
 193  1038.564
 194  1412.749
 195  1264.548
 196  1073.029
 197  1294.813
 198  1504.542
 199  1324.206
 200  1153.887
 201  1407.069
 202  953.1371
 203  872.3998
 204  861.2088
 205  1375.579
 206  1265.869
 207  1067.025
 208  1077.259
 209  933.8326
 210  1155.777
 211  1530.008
 212  1288.579
 213  788.5995
 214  719.0603
 215  1195.121
 216  1128.975
 217  863.8636
 218  651.3277
 219  1142.261
 220  998.5543
 221  1177.38
 222  1105.357
 223  1268.384
 224  869.9109
 225  719.29
 226  926.7562
 227  1234.028
 228  789.1903
 229  995.7885
 230  643.9612
 231  1089.487
 232  859.7294
 233  814.6105
 234  917.4147
 235  1140.501
 236  903.6448
 237  753.8133
 238  1302.281
 239  1302.087
 240  1104.275
 241  1124.276
 242  627.475
 243  429.4313
 244  764.1578
 245  863.381
 246  1176.558
 247  1241.231
 248  1149.56
 249  1286.362
 250  824.3415
 251  1095.522
 252  1029.489
 253  1135.341
 254  1171.104
 255  1141.377
 256  928.2062
 257  850.8845
 258  1261.616
 259  1457.334
 260  1271.749
 261  1394.714
 262  1264.217
 263  1313.003
 264  1233.451
 265  1511.718
 266  1246.73
 267  1339.911
 268  1414.344
 269  837.6324
 270  727.2747
 271  761.5548
 272  709.993
 273  931.4639
 274  828.804
 275  854.4787
 276  697.882
 277  789.8094
 278  914.7202
 279  1260.534
 280  1254.104
 281  1042.164
 282  837.1198
 283  978.0599
 284  898.4679
 285  1012.181
 286  964.9076
 287  634.2383
 288  1000.126
 289  1276.536
 290  965.1493
 291  1039.578
 292  838.9848
 293  1080.405
 294  983.4747
 295  921.5496
 296  900.1084
 297  1007.078
 298  1024.045
 299  919.1599
 300  1117.847
 301  1102.479
 302  837.2193
 303  852.5836
 304  1117.748
 305  1322.045
 306  965.7124
 307  879.838
 308  741.673
 309  456.8741
 310  695.4156
 311  952.9698
 312  1267.673
 313  892.0866
 314  1147.066
 315  1227.907
 316  1088.343
 317  571.3505
 318  583.6302
 319  1074.561
 320  828.835
 321  921.2089
 322  1404.868
 323  1534.683
 324  1244.099
 325  913.6937
 326  1149.167
 327  948.2273
 328  767.0406
 329  1172.426
 330  1554.634
 331  698.439
 332  655.8101
 333  980.6143
 334  1061.349
 335  1115.062
 336  881.5272
 337  1330.773
 338  1343.963
 339  1081.501
 340  1127.247
 341  1127.413
 342  966.5069
 343  769.7096
 344  1367.354
 345  1341.276
 346  1156.656
 347  782.6094
 348  1039.428
 349  888.0718
 350  1005.076
 351  1396.413
 352  1313.368
 353  1032.998
 354  691.0819
 355  827.4083
 356  782.4805
 357  666.8054
 358  1182.193
 359  1104.348
 360  720.2886
 361  893.5345
 362  1392.274
 363  1325.906
 364  1009.329
 365  1263.677
 366  1054.177
 367  777.0146
 368  641.3594
 369  989.1566
 370  671.6694
 371  852.704
 372  1291.098
 373  996.5186
 374  1185.268
 375  954.4484
 376  1101.536
 377  1104.621
 378  1583.694
 379  1724.539
 380  1470.264
 381  1706.182
 382  2017.851
 383  2466.856
 384  2410.79
 385  2295.726
 386  1776.808
 387  1357.199
 388  1172.118
 389  951.0176
 390  822.2117
 391  964.779
 392  1244.641
 393  1265.534
 394  1123.537
 395  1195.233
 396  1167.009
 397  1254.064
 398  1110.48
 399  1296.002
 400  924.6537
 401  1114.031
 402  1281.23
 403  1039.842
 404  1189.461
 405  753.0004
 406  1005.696
 407  993.9459
 408  1126.111
 409  1104.756
 410  923.4753
 411  1004.219
 412  929.7401
 413  1134.99
 414  780.053
 415  1083.463
 416  1033.097
 417  999.2465
 418  915.1969
 419  702.8417
 420  1183.346
 421  1076.348
 422  1021.489
 423  972.5172
 424  1000.066
 425  889.761
 426  946.382
 427  921.5902
 428  709.444
 429  745.7286
 430  679.7856
 431  751.0455
 432  1015.958
 433  948.5684
 434  1100.835
 435  1094.693
 436  1474.664
 437  1099.395
 438  603.8992
 439  890.6586
 440  1045.58
 441  1348.135
 442  900.955
 443  1161.61
 444  1901.016
 445  1508.446
 446  704.6418
 447  691.2344
 448  1409.136
 449  846.1299
 450  959.8457
 451  1004.46
 452  1517.189
 453  1225.201
 454  1096.889
 455  1380.053
 456  1246.094
 457  1154.097
 458  1337.357
 459  1240.96
 460  1248.95
 461  1222.077
 462  1565.974
 463  1499.295
 464  1361.44
 465  910.4347
 466  1125.067
 467  1023.953
 468  1021.661
 469  1266.538
 470  1041.927
 471  1180.058
 472  987.3256
 473  1309.993
 474  1162.187
 475  1024.711
 476  1215.429
 477  864.5303
 478  1130.031
 479  1259.137
 480  1079.479
 481  1000.756
 482  1256.774
 483  1134.266
 484  1201.081
 485  1454.844
 486  1190.942
 487  1106.403
 488  1065.801
 489  936.4314
 490  732.4348
 491  1332.961
 492  1524.962
 493  1286.49
 494  1431.538
 495  1265.312
 496  1115.241
 497  1144.495
 498  1197.958
 499  1326.279
 500  1404.915
 501  1232.06
 502  1291.886
 503  1549.127
 504  1297.64
 505  1554.564
 506  1456.248
 507  1262.099
 508  1129.461
 509  975.491
 510  1391.936
 511  1321.347
