# Input file       =  1194281335.097739_cleaned.dat
# Candidate        =  PSR_0332+5434
# Telescope        =  AR
# Epoch_topo       =  58066.700857612719
# Epoch_bary       =  N/A
# T_sample         =  0.002
# Data Folded      =  7208960
# Data Avg         =  0.0853827237024567
# Data StdDev      =  3.66647382652704 
# Profile Bins     =  512
# Profile Avg      =  1201.98811739537 
# Profile StdDev   =  435.060762324251 
# Reduced chi-sqr  =  0.840
# Prob(Noise)      <  0.996   (~0.0 sigma)
# P_topo (ms)      =  714.503913331222  +/- 7.44e-05
# P'_topo (s/s)    =  -0                +/- 4e-11
# P''_topo (s/s^2) =  0                 +/- 1.8e-14
# P_bary (ms)      =  N/A
# P'_bary (s/s)    =  N/A
# P''_bary (s/s^2) =  N/A
# P_orb (s)        =  N/A
# asin(i)/c (s)    =  N/A
# eccentricity     =  N/A
# w (rad)          =  N/A
# T_peri           =  N/A
######################################################
   0  986.6301
   1  1414.427
   2  1256.701
   3  1025.713
   4  956.6945
   5  1004.324
   6  657.6216
   7  865.2764
   8  932.1003
   9  1035.375
  10  635.6833
  11  764.9883
  12  1059.697
  13  1099.627
  14  509.5521
  15  931.8395
  16  805.0169
  17  972.6238
  18  1281.071
  19  1199.124
  20  1198.884
  21  1108.461
  22  1087.049
  23  1472.928
  24  1484.472
  25  1333.089
  26  1244.93
  27  1149.089
  28  1356.543
  29  1236.32
  30  904.4168
  31  1215.489
  32  1268.859
  33  1332.593
  34  1289.919
  35  1428.1
  36  1386.342
  37  998.9734
  38  743.5839
  39  950.6979
  40  998.0284
  41  1089.193
  42  1184.836
  43  1453.595
  44  1357.475
  45  1063.495
  46  990.8616
  47  1275.297
  48  1423.76
  49  1375.664
  50  1006.469
  51  1233.133
  52  1658.492
  53  1362.836
  54  1113.451
  55  1126.433
  56  1280.32
  57  1150.425
  58  1476.531
  59  1466.712
  60  1404.99
  61  1017.825
  62  949.6666
  63  1071.137
  64  1158.632
  65  996.5266
  66  1343.03
  67  1283.046
  68  926.6836
  69  891.0021
  70  929.5994
  71  1187.647
  72  1089.933
  73  1341.713
  74  1552.261
  75  1504.852
  76  1768.138
  77  1530.253
  78  1432.563
  79  1310.959
  80  890.068
  81  1043.115
  82  1512.708
  83  1592.93
  84  1688.101
  85  1709.852
  86  1252.477
  87  1259.53
  88  927.1703
  89  1321.957
  90  1418.144
  91  1218.721
  92  1145.041
  93  1337.166
  94  1254.508
  95  822.1155
  96  596.2495
  97  892.5096
  98  1049.084
  99  902.5413
 100  1160.82
 101  1528.115
 102  1381.237
 103  1143.155
 104  988.6402
 105  1134.037
 106  1357.814
 107  1352.227
 108  1194.584
 109  1422.747
 110  1302.146
 111  1564.203
 112  1632.539
 113  1242.727
 114  1296.176
 115  1355.462
 116  1264.654
 117  1326.218
 118  1415.575
 119  1252.808
 120  1015.371
 121  692.8195
 122  962.3518
 123  1348.802
 124  1360.603
 125  1108.988
 126  1220.552
 127  1113.24
 128  817.596
 129  634.6729
 130  814.4075
 131  1103.103
 132  1434.443
 133  1436.666
 134  1133.711
 135  1082.802
 136  943.4894
 137  616.3267
 138  809.9565
 139  980.6507
 140  1253.54
 141  1384.473
 142  1354.276
 143  928.6822
 144  1366.518
 145  1004.064
 146  758.7205
 147  981.5421
 148  1104
 149  1385.052
 150  1120.085
 151  1293.347
 152  1594.19
 153  1673.566
 154  1366.437
 155  1400.975
 156  1380.973
 157  1189.238
 158  1093.724
 159  1368.521
 160  1334.19
 161  1224.252
 162  974.9902
 163  894.8394
 164  916.5547
 165  971.7648
 166  1371.431
 167  1565.824
 168  1602.255
 169  1042.645
 170  628.7066
 171  869.3127
 172  804.6238
 173  1436.774
 174  1450.59
 175  1353.098
 176  1355.823
 177  1070.229
 178  942.8116
 179  1041.739
 180  985.8549
 181  1269.715
 182  1363.41
 183  1259.593
 184  1229.739
 185  1397.347
 186  1176.76
 187  1254.025
 188  1438.811
 189  1315
 190  1376.025
 191  1416.066
 192  975.7337
 193  1306.153
 194  1400.382
 195  1273.693
 196  1195.246
 197  1012.638
 198  1314.633
 199  1444.559
 200  1507.384
 201  1419.791
 202  1206.226
 203  869.3592
 204  731.9518
 205  1081.427
 206  1083.529
 207  808.6705
 208  1511.004
 209  1438.032
 210  1590.429
 211  1528.351
 212  1076.454
 213  1216.64
 214  933.3962
 215  1224.361
 216  1464.049
 217  1223.301
 218  973.0241
 219  972.7559
 220  954.9824
 221  1101.165
 222  1230.146
 223  1449.22
 224  1488.124
 225  1276.767
 226  1294.374
 227  1408.896
 228  1341.652
 229  1526.031
 230  1549.957
 231  1315.905
 232  1811.538
 233  1599.835
 234  1399.937
 235  1246.906
 236  1208.78
 237  1435.113
 238  1279.775
 239  1207.275
 240  1171.22
 241  1109.813
 242  1169.674
 243  1001.037
 244  1142.584
 245  1131.592
 246  757.2888
 247  941.8045
 248  1185.566
 249  1041.916
 250  1161.217
 251  1318.685
 252  1176.79
 253  923.5682
 254  846.7361
 255  824.0775
 256  953.1603
 257  770.2758
 258  876.5082
 259  1114.534
 260  1075.503
 261  724.1725
 262  1144.733
 263  1120.525
 264  1082.776
 265  1488.067
 266  1254.73
 267  1408.046
 268  937.8039
 269  1301.16
 270  1314.096
 271  1217.244
 272  1187.546
 273  1240.721
 274  1184.886
 275  1215.349
 276  1149.1
 277  1384.357
 278  1115.6
 279  1068.672
 280  1701.428
 281  1771.583
 282  1779.308
 283  1286.019
 284  1325.273
 285  1163.26
 286  819.8708
 287  1212.003
 288  1394.493
 289  1677.498
 290  1513.279
 291  1307.225
 292  1158.113
 293  904.8898
 294  914.7979
 295  1436.602
 296  1693.235
 297  1193.539
 298  1126.948
 299  1226.234
 300  700.1908
 301  883.0237
 302  1157.295
 303  1245.156
 304  1192.807
 305  1335.025
 306  1040.587
 307  757.1827
 308  1012.642
 309  1130.646
 310  1353.828
 311  1488.549
 312  1732.807
 313  1797.445
 314  2862.91
 315  2742.193
 316  2946.425
 317  2827.341
 318  2361.939
 319  1582.39
 320  1564.051
 321  1479.426
 322  1221.012
 323  1361.873
 324  1400.865
 325  1443.421
 326  1362.406
 327  935.6817
 328  935.8497
 329  1080.75
 330  1260.27
 331  1449.573
 332  1706.624
 333  1553.459
 334  1403.767
 335  918.8572
 336  1156.826
 337  1125.072
 338  971.4665
 339  1111.548
 340  966.7925
 341  917.387
 342  829.8673
 343  698.2612
 344  1390.49
 345  1613.819
 346  1229.317
 347  1271.685
 348  1321.247
 349  1295.286
 350  1266.251
 351  802.603
 352  327.5058
 353  563.5601
 354  955.8925
 355  1252.926
 356  1380.474
 357  1080.725
 358  1029.911
 359  1371.964
 360  1184.026
 361  983.0377
 362  1166.508
 363  1376.097
 364  1340.7
 365  1303.094
 366  1475.393
 367  1405.004
 368  1301.801
 369  1133.149
 370  1091.155
 371  765.3911
 372  839.8856
 373  912.8283
 374  970.2874
 375  1151.353
 376  1236.42
 377  1444.432
 378  1279.52
 379  1437.508
 380  1674.605
 381  1734.107
 382  1070.172
 383  824.8463
 384  1095.127
 385  1151.148
 386  1440.352
 387  1500.399
 388  1455.16
 389  1250.2
 390  967.2267
 391  1191.688
 392  1042.124
 393  648.2476
 394  1061.412
 395  1159.882
 396  1324.691
 397  918.6304
 398  1685.251
 399  1318.421
 400  933.3658
 401  1074.387
 402  887.0706
 403  808.0526
 404  1528.936
 405  1644.438
 406  1384.442
 407  1354.103
 408  1319.417
 409  1231.79
 410  1112.618
 411  1002.605
 412  1350.296
 413  1446.576
 414  1354.551
 415  1290.813
 416  1295.713
 417  1156.873
 418  1025.876
 419  1106.054
 420  1221.937
 421  1397.368
 422  1502.416
 423  1357.549
 424  1313.375
 425  1362.149
 426  1182.591
 427  1151.044
 428  1437.456
 429  933.1016
 430  919.8572
 431  1271.163
 432  1119.927
 433  941.4821
 434  789.3089
 435  1169.118
 436  1113.314
 437  1357.373
 438  1214.38
 439  1004.448
 440  482.3455
 441  950.2669
 442  954.4943
 443  904.6657
 444  838.9135
 445  1362.199
 446  1012.435
 447  951.5808
 448  903.851
 449  938.5989
 450  790.2318
 451  906.6833
 452  1281.141
 453  1495.173
 454  1240.641
 455  1356.974
 456  997.0764
 457  1146.717
 458  1238.312
 459  1210.587
 460  1312.058
 461  1204.788
 462  1105.718
 463  1290.511
 464  1463.547
 465  1524.707
 466  1164.487
 467  999.8572
 468  690.1013
 469  689.1138
 470  1061.242
 471  1203.25
 472  1210.856
 473  1443.833
 474  1429.904
 475  966.6801
 476  1064.252
 477  1183.272
 478  1361.199
 479  1068.494
 480  1386.394
 481  1328.506
 482  1135.209
 483  1051.255
 484  981.4446
 485  949.8965
 486  886.3928
 487  911.3792
 488  1439.473
 489  1513.697
 490  1246.89
 491  1116.882
 492  1251.299
 493  893.694
 494  1073.884
 495  1342.216
 496  1133.113
 497  1085.597
 498  1322.829
 499  1364.225
 500  867.6542
 501  1081.242
 502  1200.842
 503  1212.027
 504  1139.371
 505  1172.098
 506  1084.227
 507  1270.222
 508  1197.918
 509  681.6519
 510  924.3339
 511  1005.808
