# Input file       =  1194209154.098369_cleaned.dat
# Candidate        =  PSR_0332+5434
# Telescope        =  AR
# Epoch_topo       =  58065.865429379272
# Epoch_bary       =  N/A
# T_sample         =  0.002
# Data Folded      =  7340032
# Data Avg         =  0.210786997836424
# Data StdDev      =  5.25528659558656 
# Profile Bins     =  1024
# Profile Avg      =  1508.6005016308  
# Profile StdDev   =  444.933804809386 
# Reduced chi-sqr  =  0.516
# Prob(Noise)      <  1   (~0.0 sigma)
# P_topo (ms)      =  714.503117025339  +/- 0.00103
# P'_topo (s/s)    =  -0                +/- 5.43e-10
# P''_topo (s/s^2) =  0                 +/- 2.4e-13
# P_bary (ms)      =  N/A
# P'_bary (s/s)    =  N/A
# P''_bary (s/s^2) =  N/A
# P_orb (s)        =  N/A
# asin(i)/c (s)    =  N/A
# eccentricity     =  N/A
# w (rad)          =  N/A
# T_peri           =  N/A
######################################################
   0  1399.259
   1  1394.38
   2  1383.621
   3  1422.024
   4  1546.338
   5  1640.902
   6  1699.563
   7  1778.212
   8  1761.597
   9  1634.527
  10  1582.814
  11  1505.698
  12  1581.823
  13  1526.49
  14  1606.695
  15  1614.477
  16  1737.272
  17  1709.207
  18  1646.604
  19  1569.541
  20  1528.473
  21  1448.913
  22  1425.521
  23  1450.115
  24  1556.608
  25  1571.52
  26  1443.122
  27  1198.005
  28  1035.696
  29  1060.408
  30  1280.505
  31  1465.4
  32  1429.352
  33  1442.923
  34  1443.746
  35  1447.946
  36  1431.351
  37  1531.785
  38  1693.135
  39  1535.709
  40  1307.84
  41  1060.597
  42  1136.114
  43  1108.229
  44  1176.519
  45  1290.659
  46  1388.751
  47  1386.409
  48  1255.394
  49  1214.55
  50  1312.758
  51  1373.157
  52  1436.623
  53  1504.87
  54  1402.734
  55  1446.612
  56  1319.035
  57  1240.645
  58  1104.552
  59  1150.259
  60  1251.602
  61  1218.957
  62  1243.621
  63  1389.361
  64  1414.254
  65  1346.71
  66  1347.763
  67  1358.485
  68  1308.982
  69  1139.83
  70  1114.573
  71  1215.718
  72  1337.999
  73  1519.684
  74  1603.509
  75  1597.862
  76  1527.921
  77  1501.087
  78  1425.737
  79  1426.114
  80  1399.871
  81  1359.415
  82  1299.056
  83  1245.373
  84  1342.437
  85  1407.355
  86  1426.269
  87  1386.953
  88  1339.853
  89  1428.373
  90  1434.846
  91  1500.664
  92  1541.644
  93  1593.849
  94  1569.153
  95  1523.364
  96  1494.122
  97  1419.347
  98  1470.818
  99  1473.112
 100  1486.717
 101  1503.42
 102  1425.968
 103  1467.244
 104  1497.949
 105  1676.496
 106  1786.334
 107  1759.721
 108  1688.763
 109  1674.369
 110  1728.731
 111  1722.804
 112  1590.824
 113  1618.033
 114  1496.651
 115  1410.079
 116  1320.743
 117  1428.595
 118  1478
 119  1667.1
 120  1749.778
 121  1695.416
 122  1620.762
 123  1515.091
 124  1568.13
 125  1550.919
 126  1530.296
 127  1561.193
 128  1642.196
 129  1724.932
 130  1674.604
 131  1734.322
 132  1697.815
 133  1672.037
 134  1561.058
 135  1675.003
 136  1725.091
 137  1709.517
 138  1649.174
 139  1597.923
 140  1571.304
 141  1564.518
 142  1529.277
 143  1479.021
 144  1502.369
 145  1387.266
 146  1281.974
 147  1361.388
 148  1489.61
 149  1665.346
 150  1601.839
 151  1585.583
 152  1392.881
 153  1246.978
 154  1226.952
 155  1437.825
 156  1381.282
 157  1377.33
 158  1234.811
 159  1226.434
 160  1219.96
 161  1288.476
 162  1433.402
 163  1511.974
 164  1662.442
 165  1715.799
 166  1687.964
 167  1588.738
 168  1579.386
 169  1530.195
 170  1444.338
 171  1379.428
 172  1311.278
 173  1317.797
 174  1249.734
 175  1312.792
 176  1319.624
 177  1428.885
 178  1584.912
 179  1626.394
 180  1572.092
 181  1430.869
 182  1318.819
 183  1340.259
 184  1413.269
 185  1494.89
 186  1386.346
 187  1286.291
 188  1198.556
 189  1199.259
 190  1253.243
 191  1364.813
 192  1515.381
 193  1689.285
 194  1759.778
 195  1640.887
 196  1400.884
 197  1260.826
 198  1246.119
 199  1305.726
 200  1451.181
 201  1458.938
 202  1535.084
 203  1566.518
 204  1693.338
 205  1672.608
 206  1588.28
 207  1465.746
 208  1291.44
 209  1267.892
 210  1289.251
 211  1418.393
 212  1436.558
 213  1415.196
 214  1349.487
 215  1368.953
 216  1452.606
 217  1497.082
 218  1474.824
 219  1409.778
 220  1352.864
 221  1372.016
 222  1323.6
 223  1317.466
 224  1245.802
 225  1285.921
 226  1366.039
 227  1471.893
 228  1524.016
 229  1499.725
 230  1529.162
 231  1516.572
 232  1453.623
 233  1478.783
 234  1509.703
 235  1586.187
 236  1514.828
 237  1450.804
 238  1480.21
 239  1364.962
 240  1369.618
 241  1426.211
 242  1455.686
 243  1431.675
 244  1348.467
 245  1351.142
 246  1300.141
 247  1409.617
 248  1512.735
 249  1575.177
 250  1576.157
 251  1442.923
 252  1382.526
 253  1268.915
 254  1377.269
 255  1413.659
 256  1410.527
 257  1363.754
 258  1413.689
 259  1434.983
 260  1378.38
 261  1378.217
 262  1495.677
 263  1646.163
 264  1695.046
 265  1752.993
 266  1671.424
 267  1555.056
 268  1383.182
 269  1482.515
 270  1481.68
 271  1537.529
 272  1492.798
 273  1591.632
 274  1540.7
 275  1503.087
 276  1475.921
 277  1561.086
 278  1602.011
 279  1618.109
 280  1624.182
 281  1641.003
 282  1681.155
 283  1701.526
 284  1662.273
 285  1644.739
 286  1626.674
 287  1621.439
 288  1566.969
 289  1508.675
 290  1665.896
 291  1833.8
 292  1821.385
 293  1707.501
 294  1701.821
 295  1752.454
 296  1693.179
 297  1548.828
 298  1547.026
 299  1587.204
 300  1596.785
 301  1649.124
 302  1554.321
 303  1421.616
 304  1294.28
 305  1293.471
 306  1483.436
 307  1417.034
 308  1452.133
 309  1429.03
 310  1482.814
 311  1548.9
 312  1566.82
 313  1550.68
 314  1465.486
 315  1345.231
 316  1286.053
 317  1222.469
 318  1264.032
 319  1334.056
 320  1405.277
 321  1388.038
 322  1310.822
 323  1475.578
 324  1602.674
 325  1699.331
 326  1718.903
 327  1744.633
 328  1642.851
 329  1487.914
 330  1492.617
 331  1597.298
 332  1735.755
 333  1592.062
 334  1428.096
 335  1277.449
 336  1339.368
 337  1428.169
 338  1510.079
 339  1584.048
 340  1686.346
 341  1564.068
 342  1463.191
 343  1471.717
 344  1555.113
 345  1588.126
 346  1440.202
 347  1315.505
 348  1329.596
 349  1452.31
 350  1462.805
 351  1527.062
 352  1455.73
 353  1475.801
 354  1412.479
 355  1367.872
 356  1327.647
 357  1208.279
 358  1232.698
 359  1217.693
 360  1376.649
 361  1374.199
 362  1384.077
 363  1338.197
 364  1471.2
 365  1543.237
 366  1464.972
 367  1401.31
 368  1358.86
 369  1355.724
 370  1309.716
 371  1309.121
 372  1388.752
 373  1324.176
 374  1187.729
 375  1193.932
 376  1347.094
 377  1401.45
 378  1352.377
 379  1192.47
 380  1179.398
 381  1124.793
 382  1301.618
 383  1395.76
 384  1378.927
 385  1175.609
 386  1190.479
 387  1329.382
 388  1338.466
 389  1369.958
 390  1374.376
 391  1516.044
 392  1636.78
 393  1713.65
 394  1717.268
 395  1575.224
 396  1602.855
 397  1624.078
 398  1620.941
 399  1553.082
 400  1530.982
 401  1437.542
 402  1414.551
 403  1475.43
 404  1556.95
 405  1596.162
 406  1577.137
 407  1610.813
 408  1695.327
 409  1643.184
 410  1686.838
 411  1603.495
 412  1583.471
 413  1661.988
 414  1842.666
 415  1864.106
 416  1692.032
 417  1642.252
 418  1761.261
 419  1861.93
 420  1890.025
 421  1928.699
 422  1832.396
 423  1788.57
 424  1712.426
 425  1794.047
 426  1775.129
 427  1775.158
 428  1632.02
 429  1640.416
 430  1658.091
 431  1852.471
 432  1923.827
 433  1792.209
 434  1622.786
 435  1541.722
 436  1629.936
 437  1657.428
 438  1580.501
 439  1620.35
 440  1684.38
 441  1847.766
 442  1797.166
 443  1643.152
 444  1565.568
 445  1552.579
 446  1551.528
 447  1388.447
 448  1312.037
 449  1485.942
 450  1580.213
 451  1601.38
 452  1586.24
 453  1526.586
 454  1554.54
 455  1414.596
 456  1448.86
 457  1542.811
 458  1664.51
 459  1658.807
 460  1635.661
 461  1655.98
 462  1683.168
 463  1696.115
 464  1724.235
 465  1685.385
 466  1654.991
 467  1540.934
 468  1452.643
 469  1453.096
 470  1486.651
 471  1487.2
 472  1479.43
 473  1519.761
 474  1491.347
 475  1553.882
 476  1474.609
 477  1541.996
 478  1404.174
 479  1418.538
 480  1534.081
 481  1572.008
 482  1554.467
 483  1463.976
 484  1382.212
 485  1397.412
 486  1434.817
 487  1457.199
 488  1557.379
 489  1640.31
 490  1520.076
 491  1560.441
 492  1565.14
 493  1681.772
 494  1543.687
 495  1540.535
 496  1565.396
 497  1646.861
 498  1572.232
 499  1483.79
 500  1371.539
 501  1441.832
 502  1469.298
 503  1424.396
 504  1485.628
 505  1536.334
 506  1613.962
 507  1588.388
 508  1566.164
 509  1475.034
 510  1432.407
 511  1450.695
 512  1388.353
 513  1409.025
 514  1314.036
 515  1427.093
 516  1438.779
 517  1599.213
 518  1725.79
 519  1663.271
 520  1583.143
 521  1568.346
 522  1614.886
 523  1613.199
 524  1591.195
 525  1664.24
 526  1601.144
 527  1467.433
 528  1449.386
 529  1449.48
 530  1507.009
 531  1541.007
 532  1566.799
 533  1490.048
 534  1523.105
 535  1523.949
 536  1519.759
 537  1493.628
 538  1558.447
 539  1678.51
 540  1613.704
 541  1499.031
 542  1424.55
 543  1436.691
 544  1432.363
 545  1368.44
 546  1253.536
 547  1307.374
 548  1355.754
 549  1351.149
 550  1423.359
 551  1566.038
 552  1660.463
 553  1654.093
 554  1650.676
 555  1670.359
 556  1683.898
 557  1659.191
 558  1723.477
 559  1735.307
 560  1757.915
 561  1724.113
 562  1722.679
 563  1722.505
 564  1710.435
 565  1720.233
 566  1776.265
 567  1693.748
 568  1665.19
 569  1766.735
 570  1839.292
 571  1744.456
 572  1700.673
 573  1726.219
 574  1912.061
 575  1940.776
 576  1881.682
 577  1864.761
 578  1840.673
 579  1814.871
 580  1652.524
 581  1606.101
 582  1698.52
 583  1775.52
 584  1905.291
 585  2035.999
 586  2101.952
 587  2015.449
 588  1932.231
 589  1976.851
 590  2016.278
 591  1854.632
 592  1817.851
 593  1799.275
 594  1859.835
 595  1769.592
 596  1704.42
 597  1541.256
 598  1429.066
 599  1486.804
 600  1612.054
 601  1684.412
 602  1663.141
 603  1699.181
 604  1779.588
 605  1685.088
 606  1575.64
 607  1451.386
 608  1450.765
 609  1443.885
 610  1448.513
 611  1512.882
 612  1458.98
 613  1455.984
 614  1471.724
 615  1469.415
 616  1500.101
 617  1593.798
 618  1695.751
 619  1650.444
 620  1708.938
 621  1748.124
 622  1814.822
 623  1820.178
 624  1699.024
 625  1486.543
 626  1433.515
 627  1580.726
 628  1870.949
 629  1934.554
 630  2119.609
 631  2273.831
 632  2421.763
 633  2329.063
 634  2175.503
 635  2089.283
 636  2136.581
 637  2100.783
 638  1938.683
 639  1678.042
 640  1559.291
 641  1582.586
 642  1611.713
 643  1525.646
 644  1447.363
 645  1517.785
 646  1580.246
 647  1733.58
 648  1609.967
 649  1502.128
 650  1338.88
 651  1306.506
 652  1427.179
 653  1550.734
 654  1664.773
 655  1787.042
 656  1662.05
 657  1591.499
 658  1504.267
 659  1600.241
 660  1670.678
 661  1738.804
 662  1770.562
 663  1796.447
 664  1610.737
 665  1530.656
 666  1529.319
 667  1661.576
 668  1674.734
 669  1511.659
 670  1416.275
 671  1486.078
 672  1634.896
 673  1772.682
 674  1732.185
 675  1563.66
 676  1582.453
 677  1676.205
 678  1671.779
 679  1511.197
 680  1261.469
 681  1360.464
 682  1447.204
 683  1562.114
 684  1657.559
 685  1778.753
 686  1785.223
 687  1713.442
 688  1657.504
 689  1723.295
 690  1680.813
 691  1524.071
 692  1343.319
 693  1234.874
 694  1304.539
 695  1297.532
 696  1396.493
 697  1436.797
 698  1559.662
 699  1602.417
 700  1627.465
 701  1544.938
 702  1544.792
 703  1478.696
 704  1474.172
 705  1485.795
 706  1374.25
 707  1312.367
 708  1295.084
 709  1298.015
 710  1311.707
 711  1282.597
 712  1331.681
 713  1399.868
 714  1569.167
 715  1663.813
 716  1660.743
 717  1603.001
 718  1664.405
 719  1606.676
 720  1548.506
 721  1459.214
 722  1443.958
 723  1465.623
 724  1456.93
 725  1413.401
 726  1334.082
 727  1366.755
 728  1398.583
 729  1500.779
 730  1529.798
 731  1524.234
 732  1613.602
 733  1684.382
 734  1684.937
 735  1619.911
 736  1753.083
 737  1691.844
 738  1564.077
 739  1471.219
 740  1533.4
 741  1557.231
 742  1492.921
 743  1503.242
 744  1516.19
 745  1593.373
 746  1608.112
 747  1691.081
 748  1816.393
 749  1834.503
 750  1847.377
 751  1759.426
 752  1779.903
 753  1673.763
 754  1627.571
 755  1489.607
 756  1402.97
 757  1440.922
 758  1437.873
 759  1397.761
 760  1494.445
 761  1621.109
 762  1629.942
 763  1538.068
 764  1485.477
 765  1566.017
 766  1593.752
 767  1623.542
 768  1620.844
 769  1655.004
 770  1674.424
 771  1596.902
 772  1561.496
 773  1538.167
 774  1588.919
 775  1663.963
 776  1552.825
 777  1471.294
 778  1463.052
 779  1603.077
 780  1694.389
 781  1661.397
 782  1732.64
 783  1680.334
 784  1720.315
 785  1672.118
 786  1702.303
 787  1710.064
 788  1628.959
 789  1613.648
 790  1552.918
 791  1545.533
 792  1541.194
 793  1570.512
 794  1505.94
 795  1408.293
 796  1256.714
 797  1227.698
 798  1202.727
 799  1204.403
 800  1265.844
 801  1334.067
 802  1258.02
 803  1226.707
 804  1352.282
 805  1476.629
 806  1359.901
 807  1411.259
 808  1524.673
 809  1543.058
 810  1430.814
 811  1286.887
 812  1333.807
 813  1334.757
 814  1467.27
 815  1522.756
 816  1584.863
 817  1612.186
 818  1640.366
 819  1541.655
 820  1356.954
 821  1331.739
 822  1446.31
 823  1463.043
 824  1417.704
 825  1366.185
 826  1420.566
 827  1392.344
 828  1269.898
 829  1212.957
 830  1169.169
 831  1303.609
 832  1306.242
 833  1340.839
 834  1295.123
 835  1317.575
 836  1347.425
 837  1462.942
 838  1385.609
 839  1353.374
 840  1380.219
 841  1394.034
 842  1306.819
 843  1236.234
 844  1266.739
 845  1397.398
 846  1425.078
 847  1397.418
 848  1309.23
 849  1295.524
 850  1368.99
 851  1455.314
 852  1395.488
 853  1295.96
 854  1305.199
 855  1287.956
 856  1288.147
 857  1218.856
 858  1180.373
 859  1132.513
 860  1153.859
 861  1248.049
 862  1206.346
 863  1243.633
 864  1266.698
 865  1407.663
 866  1298.641
 867  1142.482
 868  1104.452
 869  1208.828
 870  1265.251
 871  1199.058
 872  1236.416
 873  1277.624
 874  1292.823
 875  1317.739
 876  1550.86
 877  1552.37
 878  1524.331
 879  1378.998
 880  1367.406
 881  1429.782
 882  1395.069
 883  1384.781
 884  1219.922
 885  1265.594
 886  1229.255
 887  1346.905
 888  1428.238
 889  1544.235
 890  1475.177
 891  1394.723
 892  1330.079
 893  1275.416
 894  1306.781
 895  1295.816
 896  1371.717
 897  1293.156
 898  1368.495
 899  1320.413
 900  1381.141
 901  1257.25
 902  1284.872
 903  1241.761
 904  1365.366
 905  1395.002
 906  1290.89
 907  1295.354
 908  1275.829
 909  1371.872
 910  1451.549
 911  1475.092
 912  1537.34
 913  1452.908
 914  1468.663
 915  1317.106
 916  1351.178
 917  1364.87
 918  1379.646
 919  1342.109
 920  1327.491
 921  1346.785
 922  1228.677
 923  1250.893
 924  1269.879
 925  1332.699
 926  1403.303
 927  1384.173
 928  1335.594
 929  1380.968
 930  1451.443
 931  1513.244
 932  1451.475
 933  1403.589
 934  1384.747
 935  1344.903
 936  1395.036
 937  1366.9
 938  1344.339
 939  1282.726
 940  1421.061
 941  1448.841
 942  1480.074
 943  1433.686
 944  1433.708
 945  1391.873
 946  1291.934
 947  1357.968
 948  1480.314
 949  1518.223
 950  1488.576
 951  1502.738
 952  1565.539
 953  1562.802
 954  1522.956
 955  1514.428
 956  1549.487
 957  1526.056
 958  1430.528
 959  1382.011
 960  1446.604
 961  1555.77
 962  1639.9
 963  1538.764
 964  1564.696
 965  1587.204
 966  1564.377
 967  1482.963
 968  1407.995
 969  1427.549
 970  1428.596
 971  1465.771
 972  1515.149
 973  1483.16
 974  1496.789
 975  1477.758
 976  1533.349
 977  1594.316
 978  1613.958
 979  1557.316
 980  1483.1
 981  1502.167
 982  1521.931
 983  1561.861
 984  1526.863
 985  1490.846
 986  1444.811
 987  1426.907
 988  1436.302
 989  1471.545
 990  1581.774
 991  1594.024
 992  1579.043
 993  1585.628
 994  1641.482
 995  1635.023
 996  1540.156
 997  1446.347
 998  1521.338
 999  1535.773
1000  1474.559
1001  1483.212
1002  1583.307
1003  1645.005
1004  1622.226
1005  1713.834
1006  1768.949
1007  1842.727
1008  1789.967
1009  1854.643
1010  1829.42
1011  1753.365
1012  1724.188
1013  1619.645
1014  1496.274
1015  1442.412
1016  1470.171
1017  1648.565
1018  1617.243
1019  1524.54
1020  1387.186
1021  1481.141
1022  1509.558
1023  1432.1
