# Input file       =  1194899111.10159_cleaned.dat
# Candidate        =  PSR_0332+5434
# Telescope        =  AR
# Epoch_topo       =  58073.851042842478
# Epoch_bary       =  N/A
# T_sample         =  0.002
# Data Folded      =  7340032
# Data Avg         =  0.488193120177521
# Data StdDev      =  6.44059783581377 
# Profile Bins     =  512
# Profile Avg      =  6998.7080235242  
# Profile StdDev   =  771.152334963612 
# Reduced chi-sqr  =  0.631
# Prob(Noise)      <  1   (~0.0 sigma)
# P_topo (ms)      =  714.511081748073  +/- 4.15e-05
# P'_topo (s/s)    =  -0                +/- 2.19e-11
# P''_topo (s/s^2) =  0                 +/- 9.66e-15
# P_bary (ms)      =  N/A
# P'_bary (s/s)    =  N/A
# P''_bary (s/s^2) =  N/A
# P_orb (s)        =  N/A
# asin(i)/c (s)    =  N/A
# eccentricity     =  N/A
# w (rad)          =  N/A
# T_peri           =  N/A
######################################################
   0  7527.463
   1  7726.959
   2  7227.238
   3  6779.179
   4  7097.875
   5  7163.508
   6  6694.576
   7  7621.234
   8  7531.86
   9  7255.586
  10  7083.061
  11  6979.739
  12  7288.491
  13  6889.653
  14  7593.949
  15  7333.044
  16  7170.524
  17  6766.281
  18  7148.684
  19  6906.98
  20  6799.644
  21  7460.199
  22  8013.849
  23  7756.79
  24  7399.053
  25  7152.389
  26  7105.738
  27  6329.394
  28  6781.997
  29  7397.752
  30  7354.548
  31  6566.012
  32  6624.049
  33  7099.673
  34  6814.502
  35  6997.553
  36  7194.92
  37  6884.061
  38  6574.417
  39  6312.374
  40  6465.242
  41  6585.899
  42  7052.752
  43  7183.854
  44  7380.807
  45  6745.824
  46  6827.938
  47  6765.273
  48  6777.521
  49  6738.273
  50  6993.709
  51  7450.723
  52  7649.443
  53  6964.633
  54  6968.114
  55  6730.67
  56  6845.8
  57  7505.694
  58  7088.765
  59  6358.752
  60  6169.956
  61  6824.877
  62  6908.714
  63  6397.105
  64  6404.81
  65  6937.832
  66  7017.018
  67  6737.613
  68  6971.029
  69  6944.206
  70  7060.124
  71  7374.506
  72  7433.348
  73  7175.554
  74  6726.081
  75  6645.749
  76  7140.078
  77  7075.301
  78  7182.069
  79  6938.653
  80  7046.031
  81  7005.335
  82  7125.801
  83  6794.796
  84  6779.32
  85  7418.831
  86  7272.679
  87  7005.582
  88  6990.733
  89  7242.247
  90  7432.299
  91  7573.321
  92  6708.859
  93  6741.652
  94  6850.827
  95  6624.673
  96  6846.334
  97  7178.457
  98  7061.765
  99  6830.539
 100  6794.46
 101  6982.458
 102  6470.114
 103  6925.19
 104  6932.658
 105  6819.778
 106  7000.411
 107  7066.926
 108  6705.002
 109  6226.355
 110  6540.807
 111  6958.426
 112  6804.47
 113  6961.439
 114  7523.731
 115  7714.116
 116  7158.054
 117  7154.339
 118  7392.439
 119  7495.437
 120  7205.22
 121  7221.143
 122  7149.214
 123  6925.548
 124  6701.415
 125  6903.865
 126  7066.545
 127  6908.259
 128  6937.996
 129  7666.759
 130  8153.056
 131  7669.798
 132  7949.382
 133  8403.781
 134  8158.536
 135  7397.907
 136  7490.297
 137  7242.763
 138  6807.543
 139  6867.427
 140  7218.498
 141  7526.452
 142  7250.464
 143  7785.957
 144  7159.948
 145  6994.112
 146  6917.309
 147  7427.068
 148  8011.609
 149  8093.877
 150  7997.457
 151  8098.257
 152  7331.627
 153  6753.579
 154  6635.176
 155  7000.156
 156  6585.391
 157  6430.989
 158  7098.091
 159  6701.999
 160  6173.623
 161  6637.407
 162  7244.756
 163  6749.926
 164  6693.185
 165  6681.868
 166  6439.024
 167  6415.83
 168  6727.577
 169  7178.058
 170  7011.685
 171  6514.366
 172  6624.804
 173  6904.174
 174  6791.116
 175  6205.34
 176  6461.564
 177  7223.028
 178  7087.504
 179  6722.262
 180  6847.257
 181  6296.184
 182  6476.686
 183  6932.697
 184  6797.675
 185  6894.44
 186  7329.136
 187  7003.801
 188  6487.741
 189  6053.726
 190  6708.039
 191  7388.241
 192  6808.793
 193  7188.703
 194  7233.191
 195  6765.917
 196  6649.214
 197  6767.669
 198  6948.542
 199  6776.625
 200  7046.747
 201  7507.203
 202  7259.75
 203  6953.562
 204  6587.787
 205  6612.518
 206  6340.205
 207  6438.611
 208  6947.223
 209  6845.603
 210  6254.265
 211  6477.978
 212  7007.807
 213  6750.884
 214  6985.896
 215  7307.408
 216  7243.22
 217  6764.592
 218  7189.766
 219  7412.019
 220  6802.338
 221  6688.917
 222  6529.493
 223  6652.033
 224  6582.618
 225  6040.134
 226  6385.785
 227  6674.022
 228  6381.792
 229  6907.732
 230  7101.838
 231  6525.654
 232  6254.438
 233  6328.045
 234  6610.034
 235  6211.527
 236  6640.149
 237  6770.407
 238  6298.175
 239  6142.158
 240  6280.478
 241  6340.18
 242  6585.523
 243  6724.363
 244  6870.274
 245  6708.208
 246  6619.282
 247  6808.694
 248  6670.33
 249  6352.534
 250  6864.469
 251  7179.854
 252  7320.635
 253  6863.689
 254  6990.074
 255  7092.972
 256  6768.521
 257  6964.881
 258  7191.613
 259  6808.694
 260  6683.857
 261  6880.702
 262  7057.993
 263  6308.533
 264  6378.024
 265  6729.552
 266  6951.811
 267  6749.17
 268  6402.728
 269  6846.866
 270  7059.548
 271  6684.269
 272  7351.982
 273  7123.89
 274  6415.229
 275  5937.496
 276  6482.444
 277  6975.821
 278  7024.279
 279  6953.97
 280  7448.857
 281  7457.043
 282  6651.253
 283  6686.96
 284  6673.319
 285  6381.7
 286  7477.803
 287  7731.946
 288  7524.583
 289  7395.057
 290  7468.092
 291  7097.836
 292  6462.036
 293  7065.619
 294  7746.674
 295  7035.924
 296  6136.783
 297  6504.925
 298  6936.029
 299  6858.606
 300  6872.004
 301  6887.929
 302  6723.802
 303  6601.917
 304  6572.383
 305  6865.993
 306  6711.762
 307  6488.472
 308  7245.063
 309  7297.784
 310  6920.042
 311  6789.054
 312  6705.785
 313  6834.708
 314  6584.859
 315  6806.569
 316  6592.263
 317  5945.416
 318  5805.828
 319  6137.608
 320  6318.897
 321  6425.861
 322  6745.756
 323  6538.605
 324  6556.947
 325  6747.785
 326  6929.644
 327  6799.337
 328  6659.757
 329  6671.212
 330  6864.353
 331  6602.428
 332  6927.639
 333  6893.04
 334  6758.638
 335  6601.868
 336  6810.424
 337  7217.799
 338  7236.324
 339  6624.49
 340  7001.501
 341  6893.298
 342  6400.994
 343  6618.565
 344  6791.867
 345  7227.98
 346  7343.253
 347  7788.653
 348  7426.543
 349  6601.853
 350  6532.961
 351  6985.034
 352  7009.608
 353  6760.083
 354  7089.771
 355  7426.107
 356  7153.295
 357  6720.799
 358  7314.359
 359  7803.031
 360  7691.75
 361  7731.165
 362  8381.615
 363  7778.475
 364  7160.432
 365  7220.749
 366  7775.657
 367  7609.776
 368  7800.947
 369  8485.028
 370  7543.323
 371  7511.043
 372  7579.08
 373  7620.129
 374  6954.165
 375  6773.675
 376  7065.807
 377  6954.387
 378  6129.88
 379  6368.004
 380  6223.726
 381  6823.088
 382  6930.536
 383  7117.12
 384  7339.458
 385  6972.026
 386  7018.599
 387  6626.332
 388  7298.422
 389  7135.399
 390  7697.904
 391  8123.746
 392  7639.288
 393  6990.272
 394  6986.465
 395  7312.04
 396  7274.458
 397  7810.372
 398  8144.009
 399  7623.522
 400  7018.626
 401  7608.068
 402  7734.837
 403  7536.541
 404  7763.335
 405  7894.387
 406  7337.459
 407  6956.493
 408  7388.898
 409  8130.243
 410  7849.66
 411  7469.716
 412  7648.336
 413  7335.71
 414  7248.592
 415  7628.687
 416  7647.102
 417  7026.81
 418  7022.508
 419  7307.82
 420  7415.596
 421  7113.353
 422  7191.548
 423  7119.655
 424  6144.621
 425  6505.277
 426  7153.694
 427  7368.115
 428  6972.646
 429  6583.967
 430  6360.46
 431  6249.64
 432  6115.868
 433  6551.978
 434  6931.622
 435  7285.16
 436  7152.696
 437  7250.47
 438  7566.684
 439  7204.295
 440  7636.003
 441  7643.152
 442  7584.179
 443  7065.981
 444  7041.363
 445  7067.604
 446  6557.182
 447  7143.42
 448  7443.56
 449  7233.373
 450  7387.9
 451  7979.577
 452  7456.421
 453  7110.313
 454  6736.883
 455  6840.143
 456  6813.726
 457  6426.371
 458  7013.342
 459  7580.124
 460  7121.07
 461  6993.52
 462  7377.504
 463  7447.581
 464  7609.767
 465  7109.516
 466  7235.312
 467  7509.029
 468  7296.87
 469  7155.86
 470  7385.288
 471  7215.447
 472  7042.121
 473  6960.953
 474  6828.5
 475  6915.197
 476  7475.12
 477  7878.05
 478  7636.315
 479  7323.58
 480  6821.771
 481  7101.732
 482  6707.912
 483  7606.68
 484  7630.673
 485  7222.839
 486  6770.118
 487  7193.075
 488  6984.278
 489  6496.283
 490  6770.33
 491  6959.623
 492  7051.208
 493  6299.83
 494  6086.315
 495  6628.169
 496  6430.732
 497  6119.249
 498  6489.47
 499  6314.169
 500  6597.537
 501  6700.97
 502  6838.17
 503  6816.772
 504  6546.729
 505  7152.899
 506  7437.544
 507  7017.79
 508  6961.741
 509  7118.345
 510  7137.21
 511  7232.033
