# Input file       =  1194812911.096002_cleaned.dat
# Candidate        =  PSR_0332+5434
# Telescope        =  AR
# Epoch_topo       =  58072.853357592619
# Epoch_bary       =  N/A
# T_sample         =  0.002
# Data Folded      =  7340032
# Data Avg         =  0.118665938379958
# Data StdDev      =  3.82117020777203 
# Profile Bins     =  1024
# Profile Avg      =  850.619410201376 
# Profile StdDev   =  323.515714784442 
# Reduced chi-sqr  =  0.570
# Prob(Noise)      <  1   (~0.0 sigma)
# P_topo (ms)      =  714.510067192094  +/- 0.000566
# P'_topo (s/s)    =  -0                +/- 2.99e-10
# P''_topo (s/s^2) =  0                 +/- 1.32e-13
# P_bary (ms)      =  N/A
# P'_bary (s/s)    =  N/A
# P''_bary (s/s^2) =  N/A
# P_orb (s)        =  N/A
# asin(i)/c (s)    =  N/A
# eccentricity     =  N/A
# w (rad)          =  N/A
# T_peri           =  N/A
######################################################
   0  831.3414
   1  784.2649
   2  627.4313
   3  573.1808
   4  591.2293
   5  772.9714
   6  890.886
   7  935.8271
   8  965.1461
   9  914.2451
  10  866.9127
  11  799.4851
  12  799.9848
  13  763.3587
  14  773.4156
  15  717.1417
  16  718.9979
  17  819.2502
  18  816.6872
  19  839.7891
  20  789.0859
  21  832.4858
  22  889.4991
  23  865.5737
  24  850.3958
  25  850.6354
  26  827.6315
  27  812.0694
  28  687.1142
  29  788.9464
  30  923.1783
  31  880.0811
  32  755.2331
  33  710.2069
  34  767.8353
  35  799.0728
  36  780.3787
  37  733.9069
  38  676.5732
  39  731.4445
  40  885.357
  41  1042.766
  42  1016.764
  43  942.1128
  44  935.3851
  45  833.0264
  46  792.8459
  47  716.745
  48  767.923
  49  741.561
  50  654.1019
  51  661.1689
  52  591.5116
  53  629.2062
  54  680.9154
  55  767.5397
  56  822.8437
  57  761.0797
  58  766.2556
  59  786.3047
  60  779.282
  61  734.7907
  62  733.5391
  63  755.0389
  64  751.1078
  65  730.7691
  66  648.2573
  67  744.0952
  68  797.9316
  69  869.4315
  70  861.492
  71  878.5213
  72  926.7816
  73  958.5323
  74  891.5477
  75  892.688
  76  986.1612
  77  1108.305
  78  1017.081
  79  927.5637
  80  881.9291
  81  872.5818
  82  873.4763
  83  825.404
  84  787.863
  85  814.1136
  86  851.9121
  87  834.1181
  88  840.0693
  89  954.6068
  90  1053.264
  91  954.588
  92  835.2802
  93  766.0476
  94  768.2003
  95  731.8774
  96  740.6962
  97  817.45
  98  994.001
  99  1057.832
 100  1040.725
 101  1024.141
 102  1005.666
 103  949.4823
 104  841.5573
 105  768.8834
 106  837.0532
 107  836.8339
 108  797.1328
 109  714.0648
 110  790.8919
 111  837.1865
 112  918.479
 113  960.4304
 114  1009.349
 115  915.109
 116  962.1282
 117  938.5264
 118  1060.524
 119  976.1354
 120  899.4216
 121  757.1989
 122  711.7346
 123  750.0049
 124  713.904
 125  702.8387
 126  809.2158
 127  905.2237
 128  933.1017
 129  787.6912
 130  701.0665
 131  684.5795
 132  821.5645
 133  765.6378
 134  815.1952
 135  803.2314
 136  729.7926
 137  788.8124
 138  774.3712
 139  832.3025
 140  688.6903
 141  713.3654
 142  886.1771
 143  949.2445
 144  909.7062
 145  878.6221
 146  937.7583
 147  1008.908
 148  938.9958
 149  822.7995
 150  736.6361
 151  755.2453
 152  800.3076
 153  928.6925
 154  958.457
 155  1016.118
 156  935.8442
 157  1000.293
 158  915.5052
 159  890.2145
 160  781.1022
 161  730.5784
 162  629.5051
 163  739.5113
 164  817.2559
 165  920.4785
 166  875.113
 167  925.0894
 168  874.5143
 169  834.2939
 170  825.3826
 171  956.0268
 172  1100.935
 173  1102.051
 174  950.0049
 175  813.842
 176  799.3204
 177  853.9433
 178  857.3425
 179  816.1714
 180  789.14
 181  826.4687
 182  824.0481
 183  843.9861
 184  879.532
 185  885.0677
 186  919.0847
 187  879.286
 188  824.8107
 189  766.0516
 190  849.2429
 191  837.8098
 192  890.6279
 193  875.3927
 194  865.6082
 195  840.6292
 196  845.2509
 197  858.4868
 198  842.864
 199  946.9391
 200  972.7347
 201  926.5987
 202  925.1684
 203  909.657
 204  911.0401
 205  714.352
 206  564.9908
 207  583.1776
 208  633.6436
 209  720.8566
 210  752.2578
 211  864.4872
 212  903.9478
 213  900.8558
 214  883.3377
 215  958.4443
 216  961.6317
 217  894.8769
 218  736.5464
 219  689.7354
 220  737.5722
 221  734.0338
 222  745.6951
 223  810.3463
 224  962.3505
 225  1106.016
 226  1046.282
 227  983.74
 228  932.9242
 229  970.9145
 230  977.2614
 231  919.8422
 232  762.146
 233  796.2596
 234  746.0332
 235  891.4608
 236  872.1811
 237  992.0259
 238  993.4666
 239  1008.924
 240  978.1965
 241  934.4708
 242  1029.498
 243  999.8745
 244  1054.248
 245  881.3676
 246  828.4952
 247  741.6945
 248  826.7831
 249  786.7556
 250  789.9266
 251  817.1164
 252  864.7981
 253  886.3839
 254  824.7806
 255  803.2446
 256  803.3104
 257  770.3266
 258  861.1884
 259  822.9833
 260  827.7985
 261  818.8478
 262  787.862
 263  777.9042
 264  774.4889
 265  767.6891
 266  745.9797
 267  704.9889
 268  759.7248
 269  836.55
 270  830.978
 271  856.8114
 272  905.8765
 273  833.5823
 274  824.9116
 275  895.0424
 276  928.0255
 277  1008.088
 278  994.0662
 279  1039.97
 280  988.9083
 281  975.1553
 282  995.9178
 283  946.6744
 284  847.5819
 285  847.7375
 286  861.0377
 287  940.2732
 288  989.6507
 289  981.3246
 290  906.0238
 291  837.9985
 292  897.1932
 293  930.2195
 294  882.0997
 295  875.2925
 296  950.1998
 297  955.5957
 298  939.1605
 299  878.1895
 300  928.4997
 301  823.7682
 302  756.1049
 303  725.3361
 304  835.3924
 305  949.4472
 306  1058.714
 307  958.146
 308  785.9895
 309  680.8634
 310  609.3448
 311  663.1134
 312  597.3206
 313  761.3688
 314  779.6908
 315  862.2986
 316  766.6794
 317  834.8613
 318  908.2468
 319  960.997
 320  866.3535
 321  735.8419
 322  628.5996
 323  614.0774
 324  647.3973
 325  688.8737
 326  829.1481
 327  942.5925
 328  944.6459
 329  857.0649
 330  828.6569
 331  960.0408
 332  993.05
 333  851.9479
 334  807.0827
 335  827.7581
 336  986.0117
 337  970.4927
 338  961.2816
 339  866.4966
 340  837.2601
 341  892.8469
 342  974.0158
 343  882.0022
 344  836.6609
 345  892.8596
 346  996.0101
 347  1075.4
 348  944.5174
 349  846.1411
 350  801.7308
 351  957.9859
 352  1112.806
 353  1160.922
 354  1070.504
 355  1058.179
 356  1123.529
 357  1224.428
 358  1252.097
 359  1194.119
 360  1136.437
 361  1055.724
 362  987.7188
 363  1033.928
 364  1029.945
 365  1181.942
 366  1156.64
 367  1103.681
 368  985.514
 369  902.6177
 370  921.7996
 371  999.4208
 372  1143.609
 373  1233.467
 374  1201.288
 375  1138.827
 376  1078.793
 377  1067.32
 378  1102.856
 379  1145.64
 380  1109.956
 381  982.425
 382  985.7668
 383  1041.523
 384  1044.667
 385  1000.246
 386  935.1063
 387  920.3979
 388  866.8142
 389  931.8456
 390  937.4596
 391  990.7961
 392  921.3757
 393  980.4593
 394  987.4131
 395  876.8316
 396  846.5833
 397  822.5266
 398  925.5431
 399  892.4994
 400  879.9838
 401  871.7075
 402  938.474
 403  1049.062
 404  1063.69
 405  942.6003
 406  912.3815
 407  995.8068
 408  1066.707
 409  995.5514
 410  968.3161
 411  924.4749
 412  884.7493
 413  750.2127
 414  756.7396
 415  798.0438
 416  836.5496
 417  882.2091
 418  875.4647
 419  874.512
 420  815.246
 421  830.0093
 422  834.283
 423  835.811
 424  891.852
 425  952.5733
 426  927.8419
 427  794.8876
 428  783.4415
 429  760.46
 430  875.9548
 431  821.8152
 432  871.3838
 433  799.3491
 434  790.6102
 435  817.8766
 436  898.9662
 437  916.8355
 438  902.4268
 439  842.4912
 440  866.3642
 441  857.5486
 442  913.7675
 443  1004.116
 444  1045.713
 445  1039.736
 446  1004.64
 447  1032.978
 448  956.4149
 449  962.3364
 450  988.7308
 451  1010.447
 452  997.6343
 453  913.428
 454  1006.171
 455  928.4484
 456  947.2797
 457  959.1984
 458  1017.783
 459  986.5892
 460  871.9956
 461  857.1395
 462  830.9053
 463  869.5123
 464  860.3633
 465  884.0554
 466  926.9479
 467  950.6162
 468  887.5583
 469  849.0357
 470  881.9418
 471  878.9476
 472  782.9448
 473  776.8759
 474  864.8885
 475  934.8128
 476  895.1397
 477  839.3701
 478  842.0487
 479  809.7162
 480  772.5669
 481  775.4701
 482  790.0403
 483  804.7656
 484  734.4426
 485  760.3447
 486  725.6089
 487  886.5537
 488  921.3844
 489  955.3041
 490  805.3171
 491  817.4947
 492  917.4753
 493  965.2697
 494  909.6027
 495  892.273
 496  876.0887
 497  880.8362
 498  875.7833
 499  985.8405
 500  1058.195
 501  1093.338
 502  935.4365
 503  886.8271
 504  749.3482
 505  744.2105
 506  850.3212
 507  927.8843
 508  1007.753
 509  881.9843
 510  861.4162
 511  940.0349
 512  965.6481
 513  886.6429
 514  880.9257
 515  1020.875
 516  1008.916
 517  953.7676
 518  876.7852
 519  896.3806
 520  829.6006
 521  844.5364
 522  952.1859
 523  1043.938
 524  1037.622
 525  989.1368
 526  924.6502
 527  978.876
 528  1053.762
 529  1101.126
 530  1031.051
 531  908.7709
 532  922.8409
 533  907.511
 534  959.6002
 535  1038.153
 536  1074.676
 537  1150.35
 538  1121.142
 539  1038.16
 540  906.4676
 541  819.91
 542  904.3248
 543  843.9706
 544  891.6793
 545  916.2778
 546  850.3757
 547  757.6948
 548  725.5564
 549  868.847
 550  923.1177
 551  925.3163
 552  888.6646
 553  876.3449
 554  857.2142
 555  899.0684
 556  936.1038
 557  944.2658
 558  866.4689
 559  845.6835
 560  779.9581
 561  719.4589
 562  642.5189
 563  620.0792
 564  711.2875
 565  753.2846
 566  803.2685
 567  786.5931
 568  756.6596
 569  725.6572
 570  691.3788
 571  653.5725
 572  593.8868
 573  686.3229
 574  780.1481
 575  937.6468
 576  870.908
 577  741.4927
 578  695.4923
 579  758.8527
 580  874.06
 581  900.9199
 582  759.2258
 583  734.1706
 584  858.3713
 585  983.5815
 586  987.1945
 587  879.7502
 588  874.533
 589  943.8429
 590  979.0413
 591  921.0992
 592  822.3041
 593  794.0569
 594  918.663
 595  873.1868
 596  855.1681
 597  806.3707
 598  737.1941
 599  659.9249
 600  734.6822
 601  810.5416
 602  896.0752
 603  871.6501
 604  854.3319
 605  857.7706
 606  828.5477
 607  846.4646
 608  934.7173
 609  1011.683
 610  956.4294
 611  712.8773
 612  693.953
 613  605.4991
 614  653.7018
 615  685.254
 616  809.4238
 617  894.8417
 618  889.4284
 619  875.007
 620  980.0978
 621  1003.725
 622  1026.507
 623  1027.915
 624  1116.318
 625  1165.261
 626  1162.637
 627  1269.657
 628  1427.734
 629  1476.624
 630  1396.935
 631  1279.935
 632  1298.984
 633  1354.595
 634  1338.324
 635  1165.236
 636  1060.613
 637  911.475
 638  828.4548
 639  750.5526
 640  762.7507
 641  861.5896
 642  904.3832
 643  843.553
 644  744.8369
 645  717.4197
 646  761.5651
 647  834.9016
 648  945.7512
 649  1055.299
 650  1097.382
 651  1059.846
 652  933.582
 653  922.6541
 654  935.7885
 655  985.2212
 656  1058.734
 657  1079.067
 658  1075.1
 659  966.2328
 660  871.184
 661  902.8269
 662  970.5583
 663  999.6415
 664  993.781
 665  965.8975
 666  1088.987
 667  1062.282
 668  1017.967
 669  864.7961
 670  849.7957
 671  792.0366
 672  860.3754
 673  806.4403
 674  823.1034
 675  842.6121
 676  852.6614
 677  915.264
 678  907.7479
 679  853.4908
 680  829.0544
 681  796.8192
 682  869.7594
 683  823.1794
 684  858.3802
 685  874.5519
 686  949.5682
 687  928.3919
 688  990.0569
 689  960.8832
 690  947.9427
 691  812.6945
 692  778.2753
 693  770.6271
 694  828.8561
 695  873.863
 696  917.7286
 697  845.7521
 698  787.7579
 699  761.4119
 700  818.4696
 701  878.1772
 702  774.664
 703  786.2328
 704  734.5
 705  822.3813
 706  801.7556
 707  744.8882
 708  660.0906
 709  615.7875
 710  648.3762
 711  686.2771
 712  711.9495
 713  773.6052
 714  678.2563
 715  621.1845
 716  558.7118
 717  599.7538
 718  638.5317
 719  624.1956
 720  667.492
 721  610.9548
 722  642.1504
 723  605.3317
 724  607.1381
 725  496.2795
 726  363.8748
 727  342.8058
 728  373.1728
 729  498.2073
 730  504.4371
 731  554.994
 732  607.5381
 733  586.8167
 734  590.3193
 735  551.7289
 736  561.6036
 737  677.6885
 738  731.8758
 739  816.1408
 740  802.3065
 741  820.8132
 742  822.7897
 743  847.7349
 744  844.4141
 745  759.8315
 746  630.4333
 747  614.5128
 748  688.787
 749  775.1104
 750  816.6047
 751  779.5793
 752  688.5656
 753  721.8121
 754  753.3478
 755  890.0348
 756  920.8822
 757  876.4953
 758  771.2227
 759  692.3445
 760  701.0714
 761  672.2415
 762  577.3768
 763  574.0989
 764  627.3184
 765  722.0199
 766  714.4586
 767  718.0906
 768  800.1453
 769  804.858
 770  740.9315
 771  617.6207
 772  628.9003
 773  671.596
 774  772.2047
 775  833.7346
 776  893.9238
 777  856.2256
 778  838.1597
 779  783.1663
 780  798.901
 781  789.3649
 782  721.2971
 783  785.9883
 784  885.7906
 785  841.3242
 786  862.619
 787  796.6892
 788  825.8833
 789  768.6451
 790  742.2172
 791  820.8159
 792  822.5244
 793  832.3829
 794  861.7523
 795  936.6924
 796  999.427
 797  934.2125
 798  880.0751
 799  912.0164
 800  848.4396
 801  844.3764
 802  862.0359
 803  848.8147
 804  803.2966
 805  684.523
 806  707.0523
 807  743.6104
 808  872.1574
 809  957.1338
 810  1000.371
 811  897.8027
 812  883.7087
 813  797.47
 814  728.4579
 815  753.7518
 816  807.2996
 817  877.4374
 818  976.2076
 819  989.3553
 820  921.8789
 821  771.3174
 822  766.9603
 823  774.2443
 824  717.7021
 825  736.4555
 826  972.6809
 827  1020.06
 828  1063.004
 829  863.6422
 830  885.571
 831  845.1298
 832  857.3517
 833  1015.265
 834  1195.956
 835  1158.808
 836  1050.776
 837  946.1204
 838  899.5905
 839  751.6484
 840  780.8278
 841  885.8378
 842  923.9762
 843  946.5274
 844  878.1534
 845  821.7156
 846  829.9374
 847  899.2889
 848  920.2155
 849  926.2762
 850  891.9123
 851  930.1763
 852  859.1614
 853  855.7272
 854  895.4495
 855  966.7424
 856  918.7415
 857  825.1426
 858  863.9651
 859  912.119
 860  883.5308
 861  748.3965
 862  738.6209
 863  679.36
 864  664.1721
 865  616.7146
 866  660.8228
 867  754.3965
 868  865.1993
 869  966.3854
 870  889.1953
 871  739.6284
 872  561.3966
 873  503.9014
 874  710.3913
 875  880.6852
 876  893.6349
 877  893.6902
 878  867.5453
 879  888.2065
 880  824.552
 881  650.4266
 882  619.8673
 883  631.1437
 884  774.6696
 885  791.2472
 886  816.6152
 887  743.4403
 888  693.909
 889  759.4804
 890  889.3901
 891  927.3489
 892  840.2199
 893  795.5895
 894  747.8099
 895  786.52
 896  653.5022
 897  506.3614
 898  497.5401
 899  542.8364
 900  748.0204
 901  807.2856
 902  897.4649
 903  878.7405
 904  883.7095
 905  920.4652
 906  905.6899
 907  823.0732
 908  687.9277
 909  820.6832
 910  826.9186
 911  844.3453
 912  759.0171
 913  752.9584
 914  720.4015
 915  649.75
 916  692.086
 917  768.3838
 918  722.3264
 919  796.8976
 920  716.2264
 921  789.4767
 922  642.8875
 923  676.6817
 924  640.3956
 925  664.9155
 926  685.5432
 927  745.9015
 928  804.4393
 929  884.3328
 930  831.9253
 931  838.2442
 932  809.2005
 933  771.385
 934  716.3116
 935  565.2039
 936  553.3569
 937  636.0185
 938  760.2344
 939  751.5828
 940  714.4299
 941  732.6982
 942  747.0023
 943  694.9102
 944  641.0221
 945  652.7706
 946  707.3554
 947  723.6505
 948  666.0322
 949  801.6373
 950  868.9578
 951  910.173
 952  866.5601
 953  842.1031
 954  811.7595
 955  716.5653
 956  642.3793
 957  681.6479
 958  756.8677
 959  764.7443
 960  821.9706
 961  793.6661
 962  794.0778
 963  829.3373
 964  886.1546
 965  1067.113
 966  1112.394
 967  1122.389
 968  1064.073
 969  1050.125
 970  1048.638
 971  935.4147
 972  912.9434
 973  808.4767
 974  801.4215
 975  790.8478
 976  864.859
 977  894.704
 978  923.0281
 979  1003.428
 980  913.1219
 981  872.1317
 982  804.1169
 983  770.7494
 984  836.1695
 985  792.4099
 986  838.669
 987  701.6044
 988  702.6713
 989  747.3245
 990  763.8919
 991  777.6282
 992  818.896
 993  826.6125
 994  864.3934
 995  748.5555
 996  758.3042
 997  803.6803
 998  770.2522
 999  733.5612
1000  701.5023
1001  673.1285
1002  719.6194
1003  754.2682
1004  767.6461
1005  757.5045
1006  678.129
1007  743.2868
1008  817.7875
1009  745.6675
1010  766.1427
1011  617.5931
1012  721.6824
1013  770.0609
1014  752.5294
1015  718.7251
1016  719.1285
1017  870.2476
1018  859.9675
1019  700.3654
1020  595.8145
1021  630.7352
1022  697.6448
1023  767.4774
