# Input file       =  1194281335.097739_cleaned.dat
# Candidate        =  PSR_0332+5434
# Telescope        =  AR
# Epoch_topo       =  58066.700857612719
# Epoch_bary       =  N/A
# T_sample         =  0.002
# Data Folded      =  7208960
# Data Avg         =  0.0853827237024567
# Data StdDev      =  3.66647382652704 
# Profile Bins     =  512
# Profile Avg      =  1201.98811731565 
# Profile StdDev   =  435.060762324251 
# Reduced chi-sqr  =  0.834
# Prob(Noise)      <  0.997   (~0.0 sigma)
# P_topo (ms)      =  714.503913191014  +/- 7.44e-05
# P'_topo (s/s)    =  -0                +/- 3.99e-11
# P''_topo (s/s^2) =  0                 +/- 1.8e-14
# P_bary (ms)      =  N/A
# P'_bary (s/s)    =  N/A
# P''_bary (s/s^2) =  N/A
# P_orb (s)        =  N/A
# asin(i)/c (s)    =  N/A
# eccentricity     =  N/A
# w (rad)          =  N/A
# T_peri           =  N/A
######################################################
   0  737.7644
   1  1062.625
   2  1083.501
   3  1355.746
   4  1534.046
   5  1417.233
   6  1361.393
   7  1070.45
   8  1121.671
   9  1167.607
  10  708.75
  11  863.7689
  12  1174.093
  13  1235.22
  14  1057.23
  15  1389.675
  16  1577.876
  17  972.074
  18  1018.306
  19  1081.409
  20  686.4629
  21  1251.777
  22  1673.283
  23  1476.021
  24  1375.664
  25  1268.907
  26  1305.028
  27  1155.905
  28  958.188
  29  1259.741
  30  1426.848
  31  1490.648
  32  1200.916
  33  1315.409
  34  1224.239
  35  1112.376
  36  1040.424
  37  1166.789
  38  1324.881
  39  1497.623
  40  1388.967
  41  1312.545
  42  1391.545
  43  1269.173
  44  1109.438
  45  1330.401
  46  1270.981
  47  728.9507
  48  1192.535
  49  1159.463
  50  1060.65
  51  806.9142
  52  1000.186
  53  1170.297
  54  1246.312
  55  1315.403
  56  1097.66
  57  616.277
  58  741.7511
  59  1033.239
  60  902.8075
  61  797.0977
  62  1227.573
  63  1215.849
  64  904.5302
  65  932.8817
  66  949.5996
  67  854.6002
  68  790.0457
  69  1139.05
  70  1472.347
  71  1291.967
  72  1340.556
  73  1117.562
  74  1098.571
  75  1203.429
  76  1206.59
  77  1269.222
  78  1285.158
  79  1084.266
  80  1220.957
  81  1419.891
  82  1571.602
  83  1254.692
  84  1024.404
  85  852.5873
  86  607.0015
  87  962.7787
  88  1160.803
  89  1258.35
  90  1302.159
  91  1503.826
  92  1106.095
  93  980.7349
  94  1149.812
  95  1322.819
  96  1170.86
  97  1245.774
  98  1410.646
  99  1164.254
 100  1054.769
 101  1044.48
 102  941.6296
 103  932.9705
 104  813.8892
 105  1271.334
 106  1541.208
 107  1375.021
 108  1115.041
 109  1230.753
 110  1043.076
 111  882.42
 112  1320.407
 113  1231.628
 114  1044.715
 115  1248.898
 116  1409.475
 117  1081.244
 118  897.9066
 119  1176.069
 120  1218.343
 121  1213.872
 122  1149.86
 123  1085.248
 124  1185.718
 125  1335.911
 126  821.425
 127  711.7733
 128  1098.322
 129  926.2528
 130  1276.505
 131  1304.224
 132  1198.657
 133  911.5432
 134  1069.568
 135  708.2127
 136  754.3334
 137  948.6313
 138  973.8219
 139  851.2651
 140  648.4418
 141  935.7344
 142  1209.668
 143  552.715
 144  874.0891
 145  829.274
 146  916.8818
 147  1124.826
 148  1323.158
 149  1085.395
 150  1248.173
 151  1012.277
 152  1410.781
 153  1475.345
 154  1359.032
 155  1240.324
 156  1212.022
 157  1251.405
 158  1348.228
 159  982.1995
 160  1066.824
 161  1321.13
 162  1267.45
 163  1312.75
 164  1374.2
 165  1395.751
 166  1206.188
 167  751.8018
 168  948.1605
 169  929.8586
 170  1055.936
 171  1133.293
 172  1382.275
 173  1440.45
 174  1118.63
 175  1042.879
 176  1137.678
 177  1371.161
 178  1402.386
 179  1168.65
 180  1047.632
 181  1558.11
 182  1558.021
 183  1153.612
 184  1159.997
 185  1149.395
 186  1248.038
 187  1318.82
 188  1495.612
 189  1431.461
 190  1119.642
 191  1031.641
 192  945.5311
 193  1229.194
 194  946.361
 195  1263.74
 196  1373.169
 197  1000.822
 198  930.4512
 199  889.9548
 200  1095.406
 201  1109.07
 202  1201.945
 203  1567.653
 204  1484.44
 205  1633.431
 206  1721.37
 207  1400.989
 208  1387.446
 209  1044.544
 210  869.353
 211  1429.073
 212  1566.539
 213  1579.224
 214  1837.528
 215  1354.917
 216  1266.808
 217  1011.98
 218  1169.719
 219  1466.033
 220  1304.884
 221  1092.45
 222  1316.198
 223  1327.19
 224  977.6533
 225  574.392
 226  779.5473
 227  1064.069
 228  910.3698
 229  1008.076
 230  1450.947
 231  1476.484
 232  1209.652
 233  1075.582
 234  998.9568
 235  1313.165
 236  1372.809
 237  1234.289
 238  1388.753
 239  1321.41
 240  1389.144
 241  1697.734
 242  1374.462
 243  1203.127
 244  1396.872
 245  1306.455
 246  1317.078
 247  1371.789
 248  1307.023
 249  1155.248
 250  764.9391
 251  783.3762
 252  1215.583
 253  1433.418
 254  1207.333
 255  1119.434
 256  1238.9
 257  893.9037
 258  677.6496
 259  671.2537
 260  992.631
 261  1385.558
 262  1459.419
 263  1270.579
 264  990.1055
 265  1145.376
 266  659.697
 267  721.2996
 268  889.7525
 269  1182.301
 270  1316.504
 271  1454.357
 272  984.902
 273  1247.852
 274  1248.804
 275  729.7733
 276  903.4862
 277  1065.297
 278  1267.785
 279  1253.718
 280  1131.906
 281  1578.669
 282  1662.102
 283  1519.728
 284  1311.932
 285  1431.505
 286  1257.991
 287  1038.186
 288  1306.363
 289  1320.799
 290  1295.384
 291  1085.182
 292  877.8915
 293  969.7789
 294  824.1132
 295  1276.478
 296  1531.184
 297  1636.065
 298  1282.011
 299  615.683
 300  882.7038
 301  773.3308
 302  1213.882
 303  1471.77
 304  1384.754
 305  1402.778
 306  1185.341
 307  957.0295
 308  1010.299
 309  972.7568
 310  1140.562
 311  1411.961
 312  1278.776
 313  1207.516
 314  1346.588
 315  1260.364
 316  1223.688
 317  1377.672
 318  1424.52
 319  1251.591
 320  1510.113
 321  1081.05
 322  1112.487
 323  1386.271
 324  1372.389
 325  1178.602
 326  1134.564
 327  1143.6
 328  1442.49
 329  1471.439
 330  1460.167
 331  1343.038
 332  987.4632
 333  687.4501
 334  872.0309
 335  1252.554
 336  824.983
 337  1232.808
 338  1534.531
 339  1477.843
 340  1672.815
 341  1154.178
 342  1136.954
 343  1099.863
 344  1003.956
 345  1464.229
 346  1350.479
 347  1024.364
 348  1004.608
 349  854.1447
 350  1087.156
 351  1159.753
 352  1416.152
 353  1450.142
 354  1411.499
 355  1217.549
 356  1451.009
 357  1283.612
 358  1421.356
 359  1669.328
 360  1333.284
 361  1661.525
 362  1709.162
 363  1464.368
 364  1294.75
 365  1169.168
 366  1399.232
 367  1349.114
 368  1185.963
 369  1190.891
 370  1134.04
 371  1197.543
 372  1004.005
 373  1071.463
 374  1207.564
 375  893.9058
 376  773.5201
 377  1116.454
 378  1114.204
 379  1120.253
 380  1254.697
 381  1253.255
 382  1044.046
 383  887.2215
 384  770.5096
 385  886.7999
 386  864.2744
 387  807.4485
 388  1043.774
 389  1188.097
 390  803.4396
 391  962.5513
 392  1185.678
 393  998.7894
 394  1368.399
 395  1393.276
 396  1319.309
 397  1141.686
 398  1098.292
 399  1392.586
 400  1229.111
 401  1135.053
 402  1290.711
 403  1138.456
 404  1283.902
 405  1111.881
 406  1350.734
 407  1270.813
 408  892.8932
 409  1567.707
 410  1718.276
 411  1874.518
 412  1425.95
 413  1289.686
 414  1297.509
 415  876.1035
 416  995.0745
 417  1398.594
 418  1585.965
 419  1596.885
 420  1343.167
 421  1248.635
 422  1000.785
 423  883.6703
 424  1126.032
 425  1775.386
 426  1377.238
 427  1027.212
 428  1291.291
 429  924.1852
 430  691.1672
 431  1070.103
 432  1213.74
 433  1247.527
 434  1310.18
 435  1178.338
 436  780.4027
 437  888.1138
 438  1124.736
 439  1263.232
 440  1451.847
 441  1713.044
 442  1672.881
 443  2471.528
 444  2830.347
 445  2839.363
 446  2944.258
 447  2546.241
 448  1902.579
 449  1484.472
 450  1579.838
 451  1241.614
 452  1333.819
 453  1374.957
 454  1426.887
 455  1358.19
 456  1159.391
 457  854.4435
 458  1069.996
 459  1139.846
 460  1408.944
 461  1630.59
 462  1600.702
 463  1498.443
 464  1064.908
 465  1045.208
 466  1176.133
 467  1031.037
 468  1033.798
 469  1128.881
 470  807.6299
 471  936.4384
 472  619.7451
 473  1141.507
 474  1667.414
 475  1293.584
 476  1285.011
 477  1327.865
 478  1280.969
 479  1285.529
 480  1044.354
 481  424.6275
 482  405.2339
 483  822.5827
 484  1162.357
 485  1396.313
 486  1220.968
 487  994.4573
 488  1235.387
 489  1289.895
 490  965.8344
 491  1150.244
 492  1304.513
 493  1416.781
 494  1210.653
 495  1522.1
 496  1412.913
 497  1347.226
 498  1132.084
 499  1146.146
 500  884.8229
 501  745.1278
 502  927.7734
 503  914.4471
 504  1152.345
 505  1142.31
 506  1388.579
 507  1389.926
 508  1327.15
 509  1586.589
 510  1694.041
 511  1455.588
