# Input file       =  1194036851.116523_cleaned.dat
# Candidate        =  PSR_0332+5434
# Telescope        =  AR
# Epoch_topo       =  58063.871181904200
# Epoch_bary       =  N/A
# T_sample         =  0.002
# Data Folded      =  7340032
# Data Avg         =  0.0686258280683044
# Data StdDev      =  2.83224088152433 
# Profile Bins     =  512
# Profile Avg      =  983.788448627983 
# Profile StdDev   =  339.112800495317 
# Reduced chi-sqr  =  0.993
# Prob(Noise)      <  0.539   (~0.0 sigma)
# P_topo (ms)      =  714.501198400457  +/- 0.000185
# P'_topo (s/s)    =  -0                +/- 9.78e-11
# P''_topo (s/s^2) =  0                 +/- 4.32e-14
# P_bary (ms)      =  N/A
# P'_bary (s/s)    =  N/A
# P''_bary (s/s^2) =  N/A
# P_orb (s)        =  N/A
# asin(i)/c (s)    =  N/A
# eccentricity     =  N/A
# w (rad)          =  N/A
# T_peri           =  N/A
######################################################
   0  1045.674
   1  1015.612
   2  1124.517
   3  1276.197
   4  1292.487
   5  1051.274
   6  786.3033
   7  634.8245
   8  814.8604
   9  1085.876
  10  908.8057
  11  857.1685
  12  678.2719
  13  806.6858
  14  760.4797
  15  754.9551
  16  704.2145
  17  952.7258
  18  732.4532
  19  652.8697
  20  901.3079
  21  663.8515
  22  750.0238
  23  986.7635
  24  934.0811
  25  670.1092
  26  841.4612
  27  1061.09
  28  1107.89
  29  993.8883
  30  788.9689
  31  1072.379
  32  1234.559
  33  1169.989
  34  872.9475
  35  884.5792
  36  1335.386
  37  1119.483
  38  1108.141
  39  1080.346
  40  1280.377
  41  1560.855
  42  1039.198
  43  1036.091
  44  1199.962
  45  1179.781
  46  1147.055
  47  1067.245
  48  974.0359
  49  816.6335
  50  897.2767
  51  1138.62
  52  951.9723
  53  814.1087
  54  1108.651
  55  899.7781
  56  889.2218
  57  1201.286
  58  1236.42
  59  1377.489
  60  1335.019
  61  1059.238
  62  1067.811
  63  765.9572
  64  1097.13
  65  668.7358
  66  1072.939
  67  1386.945
  68  1193.042
  69  970.277
  70  1077.016
  71  1258.99
  72  956.6615
  73  880.3231
  74  962.9685
  75  1175.706
  76  1310.14
  77  1217.694
  78  1153.291
  79  933.1107
  80  1238.73
  81  942.5072
  82  978.2775
  83  999.8798
  84  1026.523
  85  999.9081
  86  933.5413
  87  942.6753
  88  1101.898
  89  1079.768
  90  740.236
  91  841.5314
  92  857.2627
  93  927.6497
  94  809.9828
  95  756.3463
  96  710.767
  97  877.6627
  98  975.0267
  99  508.7751
 100  461.6185
 101  958.9455
 102  915.7747
 103  532.2795
 104  536.666
 105  715.3849
 106  606.7839
 107  721.6611
 108  760.7922
 109  924.1555
 110  900.1053
 111  918.2455
 112  786.0468
 113  858.2413
 114  1044.145
 115  1061.679
 116  969.8019
 117  1196.371
 118  1042.611
 119  934.809
 120  996.3798
 121  966.9218
 122  867.3042
 123  892.3314
 124  1015.075
 125  1168.422
 126  922.725
 127  897.5113
 128  1090.84
 129  1056.11
 130  967.1727
 131  743.5068
 132  893.829
 133  1217.847
 134  1159.369
 135  1059.981
 136  985.5096
 137  971.7001
 138  1118.576
 139  1146.652
 140  996.1267
 141  1020.902
 142  1192.048
 143  1419.387
 144  1300.103
 145  1097.801
 146  1052.913
 147  1024.184
 148  1067.055
 149  800.9277
 150  858.7905
 151  1041.771
 152  1006.732
 153  1022.694
 154  781.9948
 155  692.8334
 156  621.472
 157  1003.744
 158  1400.993
 159  1035.26
 160  1218.255
 161  970.5911
 162  926.448
 163  797.7082
 164  780.2677
 165  972.2973
 166  1328.253
 167  1107.086
 168  989.326
 169  863.6317
 170  959.2018
 171  931.2868
 172  620.1359
 173  716.4487
 174  694.6812
 175  910.2026
 176  770.8926
 177  1049.563
 178  1137.352
 179  915.4327
 180  651.8488
 181  562.1945
 182  858.0416
 183  1247.293
 184  1119.8
 185  887.3619
 186  1073.672
 187  1096.962
 188  1109.446
 189  1095.069
 190  1294.474
 191  1592.117
 192  1429.539
 193  1388.708
 194  868.2438
 195  988.8896
 196  767.6879
 197  596.1743
 198  1275.113
 199  1409.62
 200  1454.151
 201  1186.845
 202  1226.665
 203  1368.956
 204  1572.048
 205  1423.232
 206  1328.036
 207  1690.983
 208  2251.354
 209  2583.459
 210  2685.259
 211  2225.953
 212  1744.779
 213  1440.728
 214  1045.481
 215  1001.281
 216  940.4327
 217  1235.248
 218  721.4797
 219  920.6974
 220  1371.873
 221  1334.772
 222  1003.053
 223  1276.507
 224  1108.453
 225  1089.85
 226  1048.684
 227  1253.784
 228  1341.324
 229  1127.939
 230  1189.75
 231  765.6648
 232  1037.011
 233  1105.984
 234  929.5738
 235  830.3183
 236  831.8635
 237  918.3398
 238  1063.579
 239  768.5423
 240  615.4354
 241  760.8195
 242  1083.296
 243  958.1747
 244  699.9184
 245  739.5027
 246  839.4444
 247  847.5963
 248  1036.975
 249  804.7687
 250  871.2795
 251  960.5526
 252  916.7613
 253  774.2445
 254  1015.419
 255  986.9316
 256  948.5596
 257  1143.536
 258  960.7275
 259  1026.862
 260  1119.972
 261  1016.823
 262  575.1657
 263  930.7418
 264  1014.616
 265  1145.943
 266  1320.007
 267  1338.56
 268  1268.566
 269  1211.451
 270  1074.793
 271  1204.443
 272  1259.844
 273  1010.782
 274  1238.237
 275  1266.425
 276  1129.145
 277  1214.198
 278  1345.539
 279  1051.662
 280  879.7958
 281  1066.226
 282  996.5573
 283  870.2659
 284  893.2339
 285  1011.673
 286  1032.514
 287  938.1404
 288  861.7839
 289  750.3926
 290  692.7355
 291  837.7859
 292  809.7138
 293  1063.362
 294  975.1541
 295  964.8682
 296  1423.319
 297  1437.538
 298  847.7758
 299  831.7888
 300  829.093
 301  1003.256
 302  1127.776
 303  1108.103
 304  1133.845
 305  1195.591
 306  1039.529
 307  975.0752
 308  878.4884
 309  717.6247
 310  900.7076
 311  1054.888
 312  1152.005
 313  869.8518
 314  884.8403
 315  889.8021
 316  509.485
 317  857.2762
 318  1175.211
 319  1060.434
 320  814.8169
 321  1154.661
 322  1056.066
 323  743.196
 324  921.6917
 325  945.9457
 326  1147.704
 327  1020.629
 328  1166.131
 329  1065.011
 330  1257.956
 331  1064.365
 332  956.2681
 333  945.3928
 334  834.9495
 335  859.3864
 336  1095.853
 337  874.0734
 338  852.6403
 339  1015.414
 340  861.5054
 341  802.1091
 342  449.0988
 343  903.136
 344  1156.259
 345  1170.894
 346  851.5842
 347  691.0602
 348  813.8934
 349  802.1332
 350  681.2391
 351  610.1653
 352  627.5767
 353  968.9173
 354  1069.81
 355  1035.295
 356  942.4255
 357  718.7917
 358  718.0934
 359  952.7754
 360  555.0095
 361  963.3462
 362  1214.957
 363  1029.099
 364  561.9603
 365  648.7611
 366  747.8163
 367  503.4055
 368  799.7248
 369  1031.701
 370  1120.229
 371  916.1791
 372  841.8935
 373  1032.697
 374  1091.761
 375  1178.595
 376  978.9154
 377  1121.566
 378  977.4727
 379  764.1017
 380  836.5872
 381  1023.377
 382  1189.888
 383  1095.416
 384  940.7746
 385  1064.758
 386  853.7407
 387  767.5582
 388  834.7717
 389  905.4599
 390  884.1274
 391  1122.065
 392  966.3727
 393  1021.85
 394  1023.745
 395  1015.948
 396  905.1893
 397  862.8199
 398  785.9464
 399  695.2308
 400  776.0364
 401  1076.289
 402  1174.84
 403  979.6395
 404  714.2529
 405  573.7136
 406  669.6776
 407  833.287
 408  844.5593
 409  778.2203
 410  976.807
 411  1050.377
 412  1007.026
 413  868.767
 414  625.8903
 415  702.2974
 416  981.3734
 417  913.2871
 418  728.6699
 419  619.3738
 420  964.5121
 421  1311.285
 422  1078.861
 423  765.2645
 424  945.2383
 425  909.9732
 426  779.223
 427  1150.533
 428  1131.731
 429  994.0223
 430  769.5706
 431  819.5804
 432  741.6566
 433  614.0485
 434  650.5975
 435  910.1204
 436  1196.115
 437  770.8271
 438  859.9206
 439  944.7295
 440  926.2914
 441  984.5218
 442  922.9246
 443  1207.561
 444  1121.435
 445  1094.796
 446  1066.741
 447  670.799
 448  511.9577
 449  555.26
 450  748.8616
 451  945.046
 452  1106.405
 453  1150.428
 454  1067.501
 455  1048.07
 456  912.8763
 457  867.4993
 458  657.5824
 459  912.8635
 460  1090.291
 461  892.674
 462  971.9825
 463  770.5851
 464  1188.46
 465  1309.908
 466  1122.316
 467  1001.893
 468  884.884
 469  1066.245
 470  1181.089
 471  1219.223
 472  963.8425
 473  790.6281
 474  695.4557
 475  842.787
 476  832.0291
 477  841.8571
 478  979.1711
 479  690.7103
 480  555.8992
 481  794.1073
 482  776.6899
 483  868.8118
 484  926.0762
 485  1146.294
 486  929.7852
 487  815.9861
 488  880.183
 489  677.8054
 490  610.1115
 491  814.8701
 492  891.9134
 493  745.0449
 494  894.6986
 495  885.6558
 496  849.8389
 497  928.9088
 498  1083.337
 499  1050.72
 500  892.6691
 501  661.0522
 502  631.4436
 503  1034.183
 504  1145.049
 505  1065.102
 506  1282.017
 507  1545.567
 508  1267.126
 509  954.6555
 510  1096.83
 511  1252.287
