# Input file       =  1194827813.107991_cleaned.dat
# Candidate        =  PSR_0332+5434
# Telescope        =  AR
# Epoch_topo       =  58073.025834583226
# Epoch_bary       =  N/A
# T_sample         =  0.002
# Data Folded      =  7340032
# Data Avg         =  0.152383890817873
# Data StdDev      =  4.14469428016019 
# Profile Bins     =  1024
# Profile Avg      =  1092.40487625615 
# Profile StdDev   =  350.906570422264 
# Reduced chi-sqr  =  0.737
# Prob(Noise)      <  1   (~0.0 sigma)
# P_topo (ms)      =  714.510581462361  +/- 8.08e-05
# P'_topo (s/s)    =  -0                +/- 4.26e-11
# P''_topo (s/s^2) =  0                 +/- 1.88e-14
# P_bary (ms)      =  N/A
# P'_bary (s/s)    =  N/A
# P''_bary (s/s^2) =  N/A
# P_orb (s)        =  N/A
# asin(i)/c (s)    =  N/A
# eccentricity     =  N/A
# w (rad)          =  N/A
# T_peri           =  N/A
######################################################
   0  936.3226
   1  841.2685
   2  825.8658
   3  832.458
   4  903.1227
   5  799.1532
   6  817.0566
   7  878.1534
   8  1032.315
   9  1100.894
  10  1105.477
  11  1052.464
  12  1074.908
  13  1087.334
  14  1235.535
  15  1197.522
  16  1390.23
  17  1326.682
  18  1359.02
  19  1158.778
  20  1176.826
  21  1221.324
  22  1218.66
  23  1138.59
  24  1031.32
  25  911.7186
  26  850.0532
  27  857.3935
  28  938.9383
  29  1048.537
  30  987.7766
  31  931.5483
  32  861.8748
  33  879.613
  34  905.3956
  35  962.691
  36  1103.719
  37  1181.472
  38  1106.947
  39  1060.251
  40  1002.106
  41  920.2579
  42  899.0953
  43  912.7823
  44  968.2651
  45  1018.599
  46  1099.711
  47  1163.283
  48  1281.228
  49  1181.52
  50  1184.479
  51  1090.21
  52  1050.63
  53  1061.558
  54  1043.156
  55  1130.773
  56  1194.275
  57  1188.345
  58  1016.746
  59  1075.333
  60  1163.088
  61  1342.367
  62  1183.747
  63  1147.952
  64  1116.461
  65  1140.2
  66  1001.304
  67  963.4644
  68  829.7587
  69  911.5438
  70  937.6274
  71  1090.675
  72  1166.278
  73  1202.538
  74  1104.968
  75  1007.765
  76  850.7594
  77  788.931
  78  782.0979
  79  771.6158
  80  886.9583
  81  934.6379
  82  921.7314
  83  836.6638
  84  811.6752
  85  958.824
  86  969.1707
  87  1067.601
  88  1132.651
  89  1134.441
  90  1022.659
  91  1006.481
  92  1015.225
  93  1038.046
  94  1057.984
  95  1135.073
  96  1184.717
  97  1263.291
  98  1224.45
  99  1177.044
 100  1074.707
 101  1052.895
 102  1108.007
 103  1039.75
 104  1056.257
 105  1081.609
 106  1209.906
 107  1319.906
 108  1377.022
 109  1347.846
 110  1298.537
 111  1293.215
 112  1291.896
 113  1219.887
 114  1011.523
 115  1190.107
 116  1304.774
 117  1517.007
 118  1367.199
 119  1231.438
 120  1101.406
 121  1102.045
 122  1011.357
 123  1009.232
 124  960.1082
 125  903.5047
 126  900.5344
 127  815.0952
 128  947.1462
 129  1009.414
 130  1241.627
 131  1376.289
 132  1338.101
 133  1189.101
 134  1103.171
 135  1140.215
 136  1215.658
 137  1252.994
 138  1303.263
 139  1282.532
 140  1240.757
 141  1198.284
 142  1348.593
 143  1309.375
 144  1402.272
 145  1405.908
 146  1434.795
 147  1439.247
 148  1377.502
 149  1249.258
 150  1218.194
 151  1276.041
 152  1374.956
 153  1245.63
 154  1132.304
 155  1088.143
 156  1032.154
 157  1066.204
 158  1177.292
 159  1171.369
 160  1159.216
 161  1159.772
 162  1037.553
 163  938.0348
 164  876.0825
 165  920.7493
 166  966.1792
 167  992.1083
 168  1060.68
 169  1168.369
 170  1079.661
 171  1172.55
 172  1142.978
 173  1092.802
 174  977.0657
 175  987.4211
 176  1088.397
 177  1061.374
 178  937.2225
 179  1004.468
 180  1017.55
 181  946.1723
 182  990.5811
 183  1070.187
 184  1131.874
 185  1083.745
 186  947.4709
 187  858.5934
 188  878.9889
 189  1033.206
 190  1139.136
 191  1097.555
 192  1156.674
 193  1088.949
 194  987.5881
 195  889.2595
 196  996.3587
 197  1120.028
 198  1088.895
 199  1006.788
 200  972.9151
 201  963.8049
 202  1006.017
 203  1020.792
 204  1042.898
 205  954.858
 206  990.1941
 207  1070.904
 208  1038.896
 209  948.4824
 210  960.188
 211  1035.231
 212  1097.699
 213  1111.244
 214  1145.523
 215  1172.441
 216  1136.577
 217  1181.327
 218  1119.06
 219  1098.226
 220  947.486
 221  941.0693
 222  819.6015
 223  865.6238
 224  784.278
 225  971.3663
 226  940.4607
 227  896.0552
 228  794.562
 229  918.327
 230  1088.025
 231  1285.857
 232  1264.642
 233  1149.303
 234  1011.111
 235  1013.097
 236  1263.455
 237  1268.328
 238  1235.122
 239  1131.264
 240  1046.522
 241  1050.719
 242  877.5942
 243  918.2105
 244  960.3799
 245  1188.158
 246  1312.379
 247  1321.184
 248  1105.291
 249  1023.002
 250  1156.223
 251  1248.333
 252  1209.707
 253  1032.281
 254  1084.513
 255  1067.668
 256  996.7485
 257  964.6894
 258  1113.983
 259  1268.667
 260  1212.221
 261  1171.414
 262  1188.542
 263  1257.4
 264  1292.646
 265  1423.042
 266  1274.755
 267  1112.387
 268  1084.083
 269  1072.708
 270  1022.399
 271  1083.675
 272  1159.854
 273  1244.104
 274  1111.706
 275  1173.294
 276  1136.79
 277  1034.127
 278  1024.607
 279  1116.86
 280  1108.233
 281  1038.927
 282  975.9348
 283  949.4153
 284  991.1508
 285  946.5733
 286  1047.445
 287  999.0732
 288  837.2629
 289  807.6747
 290  1065.859
 291  1230.367
 292  1232.275
 293  1232.799
 294  1205.503
 295  1100.723
 296  1017.711
 297  1039.735
 298  1065.645
 299  919.967
 300  940.3747
 301  969.3127
 302  929.665
 303  951.8791
 304  1121.156
 305  1369.279
 306  1348.485
 307  1038.98
 308  975.428
 309  1047.825
 310  1129.168
 311  1242.142
 312  1280.218
 313  1250.938
 314  1256.265
 315  1209.028
 316  1141.741
 317  1063.419
 318  1085.011
 319  1147.396
 320  1074.677
 321  987.1051
 322  991.1653
 323  1184.786
 324  1320.133
 325  1257.938
 326  1247.172
 327  1158.385
 328  1164.402
 329  1217.38
 330  1407.342
 331  1394.557
 332  1411.258
 333  1328.209
 334  1258.187
 335  1215.301
 336  1218.401
 337  1199.44
 338  1180.322
 339  1211.347
 340  1478.646
 341  1562.964
 342  1434.324
 343  1146.296
 344  1173.789
 345  1217.277
 346  1171.039
 347  1066.454
 348  1036.291
 349  1116.124
 350  1193.957
 351  1248.254
 352  1229.932
 353  1066.839
 354  1063.287
 355  1185.009
 356  1328.91
 357  1335.986
 358  1308.04
 359  1243.697
 360  1282.9
 361  1241.635
 362  1197.844
 363  1045.188
 364  947.4744
 365  1010.641
 366  1122.278
 367  1201.469
 368  1188.851
 369  1081.542
 370  1012.6
 371  968.8033
 372  1085.592
 373  1244.517
 374  1292.883
 375  1264.226
 376  1196.078
 377  1053.735
 378  1002.468
 379  999.984
 380  1009.785
 381  1077.61
 382  1045.892
 383  1064.097
 384  1044.294
 385  1016.917
 386  1158.98
 387  1093.851
 388  1241.31
 389  1302.798
 390  1410.583
 391  1292.485
 392  1126.182
 393  1085.237
 394  1231.785
 395  1253.589
 396  1303.031
 397  1326.357
 398  1306.038
 399  1238.36
 400  1127.317
 401  1159.305
 402  1047.728
 403  1089.281
 404  1101.61
 405  1249.809
 406  1149.477
 407  1133.896
 408  1157.568
 409  1384.11
 410  1429.597
 411  1244.022
 412  1084.683
 413  1096.82
 414  1136.821
 415  1129.144
 416  1113.77
 417  1105.526
 418  1105.608
 419  1061.199
 420  961.6129
 421  1007.916
 422  1002.56
 423  980.333
 424  939.1638
 425  922.1025
 426  1075.465
 427  1108.224
 428  1012.309
 429  898.5768
 430  986.2363
 431  1092.836
 432  1111.453
 433  1046.148
 434  965.6785
 435  951.1571
 436  777.1008
 437  907.9714
 438  973.6526
 439  1240.615
 440  1361.422
 441  1284.599
 442  1168.465
 443  1092.926
 444  1119.527
 445  1208.419
 446  1228.718
 447  1140.958
 448  1165.218
 449  1054.685
 450  1016.073
 451  948.7578
 452  794.9473
 453  789.3141
 454  940.8016
 455  1141.394
 456  1175.919
 457  1079.065
 458  986.3265
 459  1034.563
 460  1016.97
 461  1107.531
 462  1048.492
 463  947.4228
 464  847.213
 465  835.476
 466  948.1191
 467  996.9371
 468  937.9061
 469  862.3944
 470  889.9811
 471  844.7806
 472  908.0582
 473  829.9818
 474  902.6843
 475  933.3586
 476  879.278
 477  847.01
 478  773.3159
 479  808.7366
 480  762.0429
 481  677.9091
 482  714.4998
 483  856.4188
 484  910.604
 485  886.8981
 486  878.8251
 487  836.556
 488  851.0331
 489  770.5754
 490  814.8774
 491  942.0514
 492  981.0932
 493  953.4743
 494  1006.174
 495  1142.258
 496  1248.836
 497  1210.682
 498  987.616
 499  876.5817
 500  725.2838
 501  680.6196
 502  725.0874
 503  886.8199
 504  1063.928
 505  1033.819
 506  942.2722
 507  912.4202
 508  920.153
 509  845.0585
 510  833.0014
 511  926.1299
 512  1171.311
 513  1298.548
 514  1164.136
 515  999.8875
 516  1009.99
 517  1048.726
 518  1150.365
 519  1196.339
 520  1243.054
 521  1232.214
 522  1217.041
 523  1321.773
 524  1252.203
 525  1152.094
 526  1176.54
 527  1113.584
 528  1034.295
 529  954.0895
 530  1017.082
 531  920.1871
 532  829.2857
 533  821.2264
 534  884.5687
 535  823.976
 536  867.5215
 537  1053.059
 538  1198.813
 539  1136.719
 540  1079.338
 541  1084.619
 542  1160.086
 543  1167.5
 544  1227.942
 545  1226.165
 546  1188.937
 547  1097.564
 548  991.4644
 549  828.2783
 550  823.644
 551  971.7917
 552  1064.628
 553  1052.094
 554  975.8456
 555  1024.339
 556  1125.372
 557  1153.356
 558  1185.876
 559  1192.859
 560  1136.827
 561  1166.703
 562  1075.869
 563  1004.376
 564  896.5068
 565  1005.768
 566  1094.916
 567  1084.713
 568  949.8354
 569  978.6558
 570  967.8251
 571  1032.108
 572  1149.563
 573  1153.542
 574  1215.114
 575  1063.085
 576  1034.675
 577  885.2741
 578  787.1046
 579  744.1701
 580  1018.765
 581  1218.101
 582  1180.064
 583  974.3664
 584  866.4321
 585  971.6792
 586  960.2896
 587  966.3406
 588  939.0634
 589  1033.932
 590  1162.805
 591  1238.815
 592  1120.55
 593  985.3555
 594  861.9327
 595  916.5499
 596  974.2094
 597  1046.305
 598  1100.235
 599  1198.276
 600  990.7448
 601  795.5346
 602  770.2482
 603  990.0679
 604  1108.984
 605  955.6395
 606  836.1663
 607  829.9929
 608  906.4796
 609  929.2742
 610  1005.026
 611  1022.855
 612  1118.863
 613  1024.132
 614  1062.548
 615  997.2297
 616  992.6089
 617  934.4368
 618  796.7528
 619  973.5503
 620  945.7059
 621  1022.036
 622  1005.191
 623  1246.974
 624  1506.386
 625  1546.126
 626  1479.482
 627  1373.469
 628  1439.171
 629  1598.329
 630  1813.588
 631  1880.603
 632  1801.699
 633  1723.578
 634  1734.913
 635  1491.833
 636  1325.927
 637  1078.747
 638  1115.604
 639  995.2932
 640  991.1363
 641  1053.56
 642  1070.95
 643  1016.313
 644  1042.877
 645  1150.728
 646  1179.491
 647  1022.229
 648  831.0694
 649  683.6818
 650  719.2848
 651  844.371
 652  1104.896
 653  1225.451
 654  1309.535
 655  1264.137
 656  1275.136
 657  1298.127
 658  1206.907
 659  1109.656
 660  1215.703
 661  1357.796
 662  1292.978
 663  1295.643
 664  1072.468
 665  959.4525
 666  961.1309
 667  1130.268
 668  1260.148
 669  1336.658
 670  1282.263
 671  1307.9
 672  1273.939
 673  1352.517
 674  1363.361
 675  1407.999
 676  1283.546
 677  1187.188
 678  1115.005
 679  1168.669
 680  1151.949
 681  937.8193
 682  979.2051
 683  935.5543
 684  973.7399
 685  896.2678
 686  866.0388
 687  1005.928
 688  1144.759
 689  1248.753
 690  1249.621
 691  1076.289
 692  1015.284
 693  1031.55
 694  1004.576
 695  1098.759
 696  1198.222
 697  1352.356
 698  1330.405
 699  1248.291
 700  1280.32
 701  1325.248
 702  1402.352
 703  1299.267
 704  1226.669
 705  1086.783
 706  1099.596
 707  1053.753
 708  984.5424
 709  949.2736
 710  1009.45
 711  1109.471
 712  1250.353
 713  1321.164
 714  1416.071
 715  1289.521
 716  1159.28
 717  1139.221
 718  1266.793
 719  1406.304
 720  1409.995
 721  1196.12
 722  1164.991
 723  1160.284
 724  1100.028
 725  988.8516
 726  1043.689
 727  1281.424
 728  1447.151
 729  1433.568
 730  1344.728
 731  1206.532
 732  1135.688
 733  1266.274
 734  1231.487
 735  1175.271
 736  1164.841
 737  1209.308
 738  1275.477
 739  1136.454
 740  1212.453
 741  1377.377
 742  1483.101
 743  1454.715
 744  1330.657
 745  1246.129
 746  1100.883
 747  1100.999
 748  966.3398
 749  970.3715
 750  853.9342
 751  830.4226
 752  914.6724
 753  1022.584
 754  1157.612
 755  1260.958
 756  1230.373
 757  1261.171
 758  1113.437
 759  1038.191
 760  808.0906
 761  891.7894
 762  895.6441
 763  943.8998
 764  650.3577
 765  683.2186
 766  874.0043
 767  1099.042
 768  1097.269
 769  961.5417
 770  891.5581
 771  855.6736
 772  917.2517
 773  1064.478
 774  983.3763
 775  941.5242
 776  974.9022
 777  1060.814
 778  1038.725
 779  1021.109
 780  980.2212
 781  1054.866
 782  1114.262
 783  1256.687
 784  1202.946
 785  1186.104
 786  1006.462
 787  1116.467
 788  1069.745
 789  1092.78
 790  1067.276
 791  1050.854
 792  1036.233
 793  917.5179
 794  879.2003
 795  893.6781
 796  910.4386
 797  894.6389
 798  1002.13
 799  1100.411
 800  1124.188
 801  1087.009
 802  1079.571
 803  1102.82
 804  1189.018
 805  1280.381
 806  1334.543
 807  1185.948
 808  1091.389
 809  1322.236
 810  1354.662
 811  1410.496
 812  1244.362
 813  1222.352
 814  1315.427
 815  1114.228
 816  1024.581
 817  855.1949
 818  1001.337
 819  1061.939
 820  1051.766
 821  950.2509
 822  1003.916
 823  1191.517
 824  1307.412
 825  1304.251
 826  1238.53
 827  1153.897
 828  1110.283
 829  1032.432
 830  1075.237
 831  1019.044
 832  1031.938
 833  1088.448
 834  1026.092
 835  1012.321
 836  888.785
 837  912.3741
 838  1129.704
 839  1213.22
 840  1194.042
 841  1063.634
 842  1085.83
 843  1188.236
 844  1217.407
 845  1208.378
 846  1280.126
 847  1249.837
 848  1289.121
 849  1167.67
 850  1029.578
 851  1027.267
 852  1089.866
 853  1092.161
 854  1025.097
 855  1001.644
 856  1001.085
 857  1049.325
 858  1024.456
 859  1070.915
 860  1099.328
 861  1182.938
 862  1272.283
 863  1274.422
 864  1168.143
 865  1155.615
 866  1029.862
 867  1118.072
 868  1204.337
 869  1222.134
 870  1381.378
 871  1273.495
 872  1343.694
 873  1141.863
 874  1096.486
 875  1193.068
 876  1388.937
 877  1407.675
 878  1386.524
 879  1167.103
 880  1191.392
 881  1278.125
 882  1391.021
 883  1273.371
 884  1232.876
 885  1224.616
 886  1282.308
 887  1265.69
 888  1261.5
 889  1400.816
 890  1414.793
 891  1329.406
 892  1201.158
 893  1209.945
 894  1253.617
 895  1276.529
 896  1348.883
 897  1436.255
 898  1293.454
 899  1157.861
 900  1259.431
 901  1285.984
 902  1421.6
 903  1482.427
 904  1392.725
 905  1285.281
 906  1156.422
 907  1086.936
 908  977.6524
 909  972.8882
 910  1130.451
 911  1093.14
 912  990.6011
 913  867.8798
 914  841.2426
 915  803.6769
 916  899.3505
 917  1031.352
 918  1016.174
 919  972.4286
 920  942.8009
 921  1021.42
 922  1127.149
 923  1193.233
 924  1268.498
 925  1233.183
 926  1189.926
 927  1069.981
 928  949.8382
 929  1050.752
 930  1051.025
 931  1056.315
 932  1057.662
 933  1068.548
 934  1096.071
 935  1137.039
 936  1030.156
 937  944.1094
 938  925.9942
 939  1030.44
 940  1099.372
 941  1133.573
 942  1154.033
 943  1081.748
 944  1056.294
 945  1104.008
 946  1262.644
 947  1218.25
 948  1243.072
 949  1156.229
 950  1103.852
 951  829.1586
 952  676.4626
 953  703.0775
 954  908.7205
 955  971.7566
 956  1033.917
 957  895.8898
 958  868.646
 959  973.9106
 960  1075.467
 961  1122.071
 962  964.2665
 963  921.1805
 964  1014.977
 965  953.2792
 966  883.7611
 967  821.6417
 968  1052.758
 969  1073.308
 970  975.7321
 971  810.4843
 972  794.399
 973  1003.28
 974  1061.236
 975  1172.671
 976  1100.705
 977  1138.779
 978  1111.659
 979  1106.726
 980  1101.871
 981  1167.877
 982  1187.769
 983  1133.747
 984  924.7634
 985  944.4691
 986  989.6232
 987  1052.157
 988  1014.156
 989  1133.44
 990  1184.432
 991  1149.497
 992  1048.593
 993  1015.718
 994  1039.616
 995  1004.998
 996  987.8278
 997  989.6151
 998  880.7188
 999  972.9081
1000  816.8672
1001  826.5123
1002  864.5836
1003  848.6931
1004  1085.834
1005  989.9639
1006  919.9327
1007  732.1519
1008  867.507
1009  908.1242
1010  840.5444
1011  891.0244
1012  1072.005
1013  1273.129
1014  1156.551
1015  1075.254
1016  1073.662
1017  1042.195
1018  981.5606
1019  890.0373
1020  999.5574
1021  880.2285
1022  894.4396
1023  912.0972
