# Input file       =  1194467733.106676_cleaned.dat
# Candidate        =  PSR_0332+5434
# Telescope        =  AR
# Epoch_topo       =  58068.858241975417
# Epoch_bary       =  N/A
# T_sample         =  0.002
# Data Folded      =  7340032
# Data Avg         =  0.0877618396979023
# Data StdDev      =  3.48203572302597 
# Profile Bins     =  512
# Profile Avg      =  1257.65637454631 
# Profile StdDev   =  416.914709890267 
# Reduced chi-sqr  =  0.780
# Prob(Noise)      <  1   (~0.0 sigma)
# P_topo (ms)      =  714.506052512511  +/- 0.000476
# P'_topo (s/s)    =  -0                +/- 2.51e-10
# P''_topo (s/s^2) =  0                 +/- 1.11e-13
# P_bary (ms)      =  N/A
# P'_bary (s/s)    =  N/A
# P''_bary (s/s^2) =  N/A
# P_orb (s)        =  N/A
# asin(i)/c (s)    =  N/A
# eccentricity     =  N/A
# w (rad)          =  N/A
# T_peri           =  N/A
######################################################
   0  1045.717
   1  1235.121
   2  1089.619
   3  1136.892
   4  1230.592
   5  1159.005
   6  836.1363
   7  1010.244
   8  1126.576
   9  1214.807
  10  989.6755
  11  1231.047
  12  1733.886
  13  1636.631
  14  1451.579
  15  1319.13
  16  1619.631
  17  1289.215
  18  1133.54
  19  1434.17
  20  1367.575
  21  1346.052
  22  1329.026
  23  1474.751
  24  1664.566
  25  1686.816
  26  1587.68
  27  1402.996
  28  1368.277
  29  1275.765
  30  1333.967
  31  1085.136
  32  955.3694
  33  1008.065
  34  1438.848
  35  1467.257
  36  1127.486
  37  1099.004
  38  1601.907
  39  1352.584
  40  1231.151
  41  841.182
  42  839.0755
  43  1175.056
  44  1264.527
  45  1091.695
  46  1126.964
  47  1303.089
  48  1323.143
  49  1482.924
  50  1336.563
  51  1098.968
  52  1151.535
  53  1303.957
  54  1208.704
  55  1120.592
  56  1076.673
  57  812.4922
  58  1251.164
  59  1449.136
  60  1236.792
  61  960.9856
  62  1070.285
  63  1472.804
  64  1089.729
  65  899.4511
  66  913.4706
  67  1036.71
  68  1126.844
  69  1338.719
  70  1519.605
  71  1183.553
  72  1276.314
  73  1527.962
  74  1488.164
  75  1188.128
  76  1058.023
  77  1042.992
  78  1064.95
  79  1143.698
  80  1497.286
  81  1529.126
  82  1417.569
  83  1177.341
  84  1217.172
  85  1122.043
  86  1139.661
  87  1121.347
  88  1233.575
  89  1326.823
  90  929.4484
  91  1061.031
  92  1025.966
  93  1236.378
  94  1559.149
  95  1469.063
  96  1241.045
  97  1214.311
  98  1177.764
  99  1191.138
 100  1321.842
 101  1371.055
 102  1308.884
 103  1070.822
 104  1106.213
 105  1111.665
 106  1270.241
 107  1318.174
 108  1182.547
 109  1126.762
 110  1085.44
 111  1153.379
 112  1380.306
 113  1399.042
 114  1424.449
 115  1665.908
 116  1329.596
 117  1591.854
 118  1433.559
 119  1642.288
 120  1552.16
 121  1520.869
 122  1056.231
 123  1162.65
 124  1617.947
 125  1660.004
 126  1122.604
 127  1189.42
 128  1306.78
 129  1129.947
 130  1161.679
 131  1207.248
 132  1390.613
 133  1452.151
 134  1481.017
 135  1411.263
 136  1100.059
 137  1276.644
 138  1174.367
 139  1311.594
 140  1414.843
 141  1508.165
 142  1293.618
 143  841.0834
 144  833.5719
 145  881.8084
 146  974.8202
 147  1015.15
 148  1212.665
 149  1385.625
 150  1305.984
 151  971.5442
 152  1189.542
 153  1238.971
 154  836.968
 155  954.7863
 156  1452.559
 157  1518.973
 158  1416.172
 159  1210.952
 160  1300.839
 161  1145.371
 162  1268.787
 163  1550.264
 164  1182.73
 165  1150.71
 166  1246.618
 167  1501.242
 168  1376.928
 169  1336.989
 170  1390.726
 171  1429.639
 172  1271.236
 173  998.1568
 174  1256.764
 175  1129.749
 176  935.9578
 177  921.2717
 178  952.4482
 179  1014.171
 180  1268.743
 181  1393.177
 182  1248.856
 183  1230.31
 184  1126.708
 185  1218.39
 186  1427.758
 187  991.5458
 188  981.3002
 189  1028.728
 190  981.1996
 191  1173.357
 192  1129.813
 193  902.5768
 194  972.4679
 195  1275.25
 196  1464.472
 197  1212.465
 198  1479.475
 199  1860.947
 200  1504.351
 201  1304.79
 202  1423.533
 203  1293.804
 204  1316.145
 205  1222.793
 206  1680.799
 207  1730.784
 208  1449.868
 209  1476.406
 210  1737.622
 211  1484.896
 212  1309.64
 213  1240.186
 214  1652.754
 215  1468.081
 216  1500.399
 217  1360.301
 218  1482.01
 219  1402.402
 220  1117.36
 221  1185.729
 222  1119.37
 223  1348.038
 224  1412.58
 225  1466.941
 226  1548.455
 227  1264.158
 228  1480.229
 229  1377.3
 230  1196.041
 231  1074.19
 232  1133.861
 233  1232.81
 234  1261.792
 235  1429.773
 236  1230.014
 237  1088.136
 238  962.3953
 239  1082.625
 240  1227.566
 241  1520.333
 242  1454.154
 243  1466.929
 244  1463.82
 245  1343.871
 246  1426.266
 247  1103.003
 248  1125.431
 249  1115.495
 250  1162.783
 251  1020.328
 252  1178.004
 253  1092.292
 254  1148.552
 255  1189.575
 256  1324.571
 257  1221.591
 258  1371.248
 259  1078.706
 260  1376.723
 261  1452.143
 262  1371.76
 263  1043.013
 264  1017.035
 265  1147.083
 266  1187.036
 267  1442.845
 268  947.4922
 269  1260.608
 270  1263.948
 271  738.1591
 272  612.7894
 273  737.4138
 274  1166.223
 275  1282.616
 276  1113.876
 277  1260.904
 278  1267.466
 279  1151.435
 280  1235.881
 281  1063.697
 282  1374.337
 283  1415.56
 284  1089.397
 285  846.6822
 286  1270.801
 287  1280.021
 288  1098.138
 289  1089.713
 290  1125.348
 291  1253.948
 292  884.556
 293  996.353
 294  1143.842
 295  1227.179
 296  1211.992
 297  897.4296
 298  1310.273
 299  1279.984
 300  876.2351
 301  963.4545
 302  1065.482
 303  1474.466
 304  1466.79
 305  1213.943
 306  1025.506
 307  1230.499
 308  1542.871
 309  1022.327
 310  683.8109
 311  689.8041
 312  1059.317
 313  1238.281
 314  1645.222
 315  1768.558
 316  1549.006
 317  1458.831
 318  1491.165
 319  1412.739
 320  1606.489
 321  1551.632
 322  1584.962
 323  1461.466
 324  1318.502
 325  1523.141
 326  1441.628
 327  1125.62
 328  856.8818
 329  1088.439
 330  941.6785
 331  1220.382
 332  1338.626
 333  1470.621
 334  1289.296
 335  1011.643
 336  656.512
 337  911.1277
 338  1269.981
 339  1206.968
 340  1003.337
 341  1153.803
 342  1243.248
 343  1185.625
 344  1377.552
 345  1312.221
 346  1062.838
 347  1121.329
 348  1301.582
 349  1194.223
 350  1103.129
 351  1001.939
 352  677.0444
 353  765.2653
 354  750.6485
 355  1153.456
 356  1394.151
 357  1091.866
 358  1144.953
 359  1329.669
 360  1351.984
 361  1011.745
 362  1069.467
 363  1336.067
 364  1193.307
 365  1106.605
 366  978.7614
 367  1048.389
 368  1248.729
 369  919.6101
 370  870.1017
 371  1021.299
 372  981.494
 373  991.6027
 374  941.6702
 375  921.8236
 376  1040.562
 377  860.1888
 378  1318.443
 379  1253.105
 380  1381.195
 381  1347.936
 382  1125.672
 383  1139.147
 384  1071.769
 385  1119.047
 386  1234.987
 387  1276.671
 388  1240.856
 389  1251.075
 390  1403.957
 391  1071.132
 392  1433.278
 393  1370.167
 394  905.2914
 395  1205.353
 396  1329.387
 397  790.7118
 398  871.6555
 399  1366.349
 400  1323.141
 401  1052.525
 402  1261.743
 403  1249.678
 404  1195.927
 405  1138.084
 406  1173.261
 407  1264.867
 408  1213.71
 409  1364.055
 410  1259.641
 411  1395.547
 412  1539.305
 413  1540.954
 414  1525.63
 415  1452.031
 416  1658.627
 417  1766.493
 418  1444.829
 419  1231.11
 420  1107.96
 421  1344.545
 422  1350.893
 423  1505.093
 424  1467.838
 425  1292.93
 426  1217.314
 427  1449.763
 428  1639.458
 429  2052.058
 430  2153.406
 431  2553.24
 432  2508.408
 433  2700.778
 434  2846.95
 435  2500.152
 436  2138.827
 437  1887.148
 438  1776.624
 439  1450.56
 440  843.4365
 441  1091.156
 442  1542.056
 443  1548.257
 444  1493.503
 445  1498.038
 446  1456.116
 447  1663.77
 448  1473.39
 449  1481.748
 450  1493.294
 451  1491.44
 452  1413.496
 453  1841.994
 454  1657.439
 455  1204.311
 456  1186.676
 457  1436.219
 458  1260.135
 459  1240.316
 460  1087.242
 461  915.0201
 462  1096.352
 463  1198.376
 464  1685.104
 465  1323.001
 466  1152.272
 467  1618.92
 468  1484.147
 469  1107.422
 470  1287.403
 471  1524.175
 472  1530.3
 473  1326.162
 474  1305.973
 475  1433.247
 476  1484.389
 477  1207.162
 478  1094.654
 479  1102.369
 480  818.9446
 481  813.196
 482  809.8322
 483  1306.377
 484  1320.118
 485  1175.233
 486  973.8423
 487  951.5305
 488  1164.437
 489  1285.083
 490  1415.005
 491  1144.195
 492  1038.42
 493  1063.253
 494  1063.964
 495  1220.129
 496  1159.106
 497  979.2477
 498  746.7017
 499  989.213
 500  1185.736
 501  933.066
 502  848.4657
 503  964.6419
 504  1057.096
 505  1059.356
 506  1194.755
 507  1095.261
 508  1062.836
 509  1353.093
 510  1197.508
 511  1032.322
