# Input file       =  1194381597.099506_cleaned.dat
# Candidate        =  PSR_0332+5434
# Telescope        =  AR
# Epoch_topo       =  58067.861297447984
# Epoch_bary       =  N/A
# T_sample         =  0.002
# Data Folded      =  7340032
# Data Avg         =  0.120033950611416
# Data StdDev      =  3.77566499028581 
# Profile Bins     =  1024
# Profile Avg      =  861.107207407952 
# Profile StdDev   =  319.663059142059 
# Reduced chi-sqr  =  0.584
# Prob(Noise)      <  1   (~0.0 sigma)
# P_topo (ms)      =  714.505068470414  +/- 0.000463
# P'_topo (s/s)    =  -0                +/- 2.44e-10
# P''_topo (s/s^2) =  0                 +/- 1.08e-13
# P_bary (ms)      =  N/A
# P'_bary (s/s)    =  N/A
# P''_bary (s/s^2) =  N/A
# P_orb (s)        =  N/A
# asin(i)/c (s)    =  N/A
# eccentricity     =  N/A
# w (rad)          =  N/A
# T_peri           =  N/A
######################################################
   0  1027.842
   1  1090.405
   2  1101.431
   3  1049.618
   4  1124.833
   5  1159.168
   6  1179.804
   7  1126.673
   8  1036.96
   9  1029.711
  10  998.3423
  11  1036.204
  12  1047.331
  13  976.054
  14  998.5566
  15  1068.132
  16  1127.297
  17  1005.056
  18  994.4591
  19  910.7417
  20  992.4919
  21  1025.709
  22  1078.357
  23  1085.116
  24  1039.968
  25  1054.94
  26  1017.485
  27  871.1877
  28  818.3397
  29  823.6923
  30  949.9014
  31  940.5256
  32  939.8924
  33  901.5709
  34  840.8695
  35  887.5671
  36  930.0258
  37  1026.998
  38  1079.19
  39  1162.596
  40  1084.552
  41  965.3776
  42  939.2379
  43  980.817
  44  1035.881
  45  1001.874
  46  920.178
  47  909.9966
  48  968.5107
  49  970.9489
  50  926.7128
  51  930.0524
  52  1005.774
  53  1057.807
  54  1058.625
  55  958.8837
  56  910.8572
  57  918.227
  58  851.5928
  59  931.2237
  60  1025.217
  61  1080.512
  62  1027.541
  63  1017.26
  64  1158.976
  65  1161.025
  66  1077.234
  67  954.9599
  68  948.5825
  69  988.0912
  70  946.2343
  71  962.3369
  72  982.2346
  73  999.2821
  74  987.7083
  75  960.2983
  76  948.2943
  77  992.8689
  78  981.7468
  79  940.3519
  80  920.7288
  81  975.6039
  82  1033.666
  83  1000.596
  84  981.6918
  85  948.0899
  86  933.3098
  87  926.0083
  88  931.0464
  89  890.1846
  90  899.8087
  91  946.1901
  92  936.7499
  93  884.1647
  94  819.2667
  95  958.1987
  96  1062.081
  97  1017.923
  98  1007.606
  99  1041.031
 100  1168.317
 101  1050.2
 102  982.5996
 103  884.6051
 104  949.6882
 105  926.6985
 106  927.8082
 107  927.3765
 108  972.7027
 109  958.6962
 110  809.6502
 111  843.5347
 112  850.7554
 113  845.4266
 114  763.1639
 115  805.3502
 116  803.3287
 117  801.3731
 118  711.5366
 119  778.6028
 120  746.045
 121  719.2928
 122  544.7479
 123  542.191
 124  621.2576
 125  734.0323
 126  845.2184
 127  913.9931
 128  932.4814
 129  944.5996
 130  918.5613
 131  892.4031
 132  888.6607
 133  871.921
 134  838.2066
 135  840.9193
 136  883.8638
 137  884.9716
 138  830.7796
 139  887.5713
 140  912.6246
 141  916.0369
 142  858.3347
 143  913.572
 144  930.0092
 145  970.116
 146  1025.331
 147  1128.62
 148  1018.085
 149  918.5383
 150  862.7353
 151  861.1351
 152  732.1642
 153  779.5859
 154  883.282
 155  1010.558
 156  899.1762
 157  871.6513
 158  967.1572
 159  1069.379
 160  1005.586
 161  963.0272
 162  991.6681
 163  1046.379
 164  977.0523
 165  920.6042
 166  910.4738
 167  928.5275
 168  980.9347
 169  1028.663
 170  1097.268
 171  1019.801
 172  975.2817
 173  911.8961
 174  904.1332
 175  882.1362
 176  879.3745
 177  964.6991
 178  1009.959
 179  1074.081
 180  1031.408
 181  994.2527
 182  944.183
 183  889.2873
 184  868.9398
 185  886.6995
 186  931.4177
 187  952.8305
 188  957.301
 189  883.1111
 190  818.6146
 191  770.7075
 192  871.6928
 193  918.3085
 194  923.1703
 195  844.2133
 196  762.6989
 197  759.1064
 198  746.9202
 199  809.5547
 200  868.858
 201  920.413
 202  929.6268
 203  946.5576
 204  879.0439
 205  884.6329
 206  927.6226
 207  946.5942
 208  893.4121
 209  860.5865
 210  858.2173
 211  850.0321
 212  904.7098
 213  874.6733
 214  873.9537
 215  774.1209
 216  798.538
 217  869.2714
 218  848.0728
 219  834.6626
 220  843.8011
 221  904.6294
 222  926.3774
 223  915.476
 224  864.5155
 225  819.1296
 226  887.7637
 227  1002.233
 228  998.3597
 229  931.5653
 230  908.7113
 231  863.5714
 232  823.3046
 233  841.5936
 234  855.0315
 235  861.2134
 236  865.0615
 237  956.6865
 238  1003.908
 239  946.0047
 240  832.4658
 241  902.7772
 242  859.3437
 243  844.1877
 244  839.7557
 245  880.3594
 246  854.9213
 247  834.1352
 248  860.4387
 249  924.7943
 250  827.251
 251  772.5872
 252  760.1512
 253  764.2312
 254  862.1578
 255  899.6061
 256  956.3668
 257  882.8072
 258  744.3525
 259  728.354
 260  723.6104
 261  713.9172
 262  736.4108
 263  876.1808
 264  917.5015
 265  927.2601
 266  846.9616
 267  897.8553
 268  958.8358
 269  957.2137
 270  978.7263
 271  931.3827
 272  962.1884
 273  884.2842
 274  845.7938
 275  920.9786
 276  933.6241
 277  929.1015
 278  800.4003
 279  863.3834
 280  830.2635
 281  836.2362
 282  774.2253
 283  797.2244
 284  805.262
 285  793.4142
 286  847.701
 287  948.0694
 288  922.075
 289  935.5747
 290  845.3414
 291  850.1373
 292  869.9384
 293  871.7833
 294  934.8745
 295  1036.034
 296  952.7749
 297  916.3175
 298  826.2875
 299  862.6898
 300  851.5953
 301  926.0369
 302  1031.441
 303  1030.481
 304  899.1632
 305  916.8881
 306  935.981
 307  968.0488
 308  889.0342
 309  901.298
 310  841.5965
 311  797.7825
 312  837.6508
 313  796.8433
 314  822.8382
 315  705.8911
 316  797.7458
 317  864.2068
 318  944.6044
 319  933.3436
 320  826.7898
 321  776.2338
 322  888.1102
 323  885.5903
 324  893.9296
 325  814.7882
 326  953.9794
 327  1062.02
 328  1032.758
 329  848.449
 330  742.5248
 331  786.2295
 332  891.7958
 333  944.6599
 334  855.5629
 335  813.222
 336  747.1492
 337  697.9854
 338  691.2424
 339  692.8206
 340  822.2891
 341  846.4188
 342  827.3259
 343  707.2867
 344  601.9258
 345  657.5284
 346  800.1694
 347  950.4557
 348  985.7465
 349  1006.395
 350  1019.893
 351  953.6564
 352  899.5131
 353  811.2323
 354  920.1533
 355  1042.504
 356  987.1077
 357  901.9581
 358  893.5939
 359  923.5043
 360  852.8482
 361  724.5828
 362  768.4925
 363  718.0919
 364  681.7876
 365  684.2874
 366  714.6526
 367  835.4545
 368  884.5275
 369  1030.083
 370  1020.011
 371  904.6094
 372  810.2217
 373  876.4663
 374  891.9132
 375  881.3774
 376  827.4372
 377  734.9998
 378  862.0952
 379  855.2476
 380  894.6565
 381  767.0247
 382  802.4684
 383  856.1875
 384  818.8994
 385  879.4311
 386  967.7859
 387  944.3064
 388  848.3342
 389  755.8262
 390  727.8521
 391  713.7539
 392  693.0771
 393  697.7889
 394  759.098
 395  806.4957
 396  779.3401
 397  827.4139
 398  754.3026
 399  696.3417
 400  591.2322
 401  589.6185
 402  648.0486
 403  585.8474
 404  600.5396
 405  639.1021
 406  743.5161
 407  784.282
 408  883.2125
 409  884.2146
 410  878.0227
 411  848.6121
 412  937.7236
 413  908.05
 414  806.773
 415  777.735
 416  785.1562
 417  770.9716
 418  667.2046
 419  556.4901
 420  566.0964
 421  690.7984
 422  690.3328
 423  681.5312
 424  752.1369
 425  915.8577
 426  940.2221
 427  889.807
 428  849.0052
 429  880.312
 430  906.8773
 431  803.3028
 432  780.2028
 433  727.1962
 434  831.2237
 435  885.8351
 436  861.4595
 437  825.3669
 438  759.8541
 439  847.1559
 440  777.5302
 441  755.8008
 442  768.0171
 443  843.1666
 444  791.8412
 445  753.2682
 446  650.8745
 447  577.9871
 448  517.2037
 449  533.2966
 450  573.6976
 451  683.4075
 452  758.8367
 453  839.8703
 454  806.7774
 455  783.3697
 456  751.301
 457  782.4507
 458  867.7332
 459  961.6832
 460  963.4749
 461  884.7396
 462  871.131
 463  877.893
 464  860.2966
 465  720.3215
 466  751.3729
 467  757.8817
 468  900.5779
 469  872.959
 470  866.6901
 471  792.5966
 472  869.811
 473  841.4422
 474  858.9951
 475  857.3388
 476  846.892
 477  804.4603
 478  800.0748
 479  759.7238
 480  805.8961
 481  847.5013
 482  1023.257
 483  1097.567
 484  898.1268
 485  743.6946
 486  676.7818
 487  726.3454
 488  759.4433
 489  789.8566
 490  820.493
 491  809.3928
 492  789.6445
 493  816.6628
 494  771.5791
 495  763.8586
 496  808.4474
 497  817.8197
 498  706.3148
 499  683.3482
 500  573.6687
 501  667.0386
 502  733.2596
 503  720.977
 504  693.9711
 505  610.084
 506  668.6882
 507  785.3776
 508  928.3063
 509  915.6358
 510  851.5161
 511  709.8376
 512  795.7662
 513  859.9259
 514  866.1021
 515  786.3333
 516  777.9473
 517  781.2123
 518  774.7294
 519  725.6402
 520  652.0562
 521  684.6994
 522  627.1901
 523  717.6779
 524  772.9855
 525  939.4157
 526  1092.982
 527  1051.194
 528  991.8038
 529  853.316
 530  817.457
 531  936.119
 532  955.2326
 533  925.9827
 534  900.245
 535  905.8642
 536  905.7721
 537  943.4372
 538  1015.21
 539  1064.833
 540  982.8696
 541  966.566
 542  961.0695
 543  956.975
 544  936.6123
 545  960.6
 546  855.078
 547  782.9108
 548  594.3689
 549  573.1771
 550  623.2783
 551  715.6763
 552  802.3248
 553  830.3503
 554  907.7911
 555  928.8515
 556  896.335
 557  914.863
 558  884.7614
 559  875.7443
 560  753.0867
 561  747.606
 562  712.2482
 563  831.91
 564  840.1841
 565  829.644
 566  755.2546
 567  691.6023
 568  632.9882
 569  734.0331
 570  771.8104
 571  800.73
 572  835.1346
 573  845.0836
 574  897.5469
 575  880.6618
 576  843.7043
 577  838.1481
 578  855.0617
 579  882.6243
 580  870.3284
 581  923.0064
 582  968.1103
 583  950.87
 584  906.9703
 585  807.3499
 586  733.4711
 587  705.9045
 588  821.0361
 589  760.7163
 590  717.8776
 591  685.964
 592  728.0024
 593  775.5811
 594  806.4591
 595  857.527
 596  830.8727
 597  948.0685
 598  1111.825
 599  1264.09
 600  1142.188
 601  913.9137
 602  842.4601
 603  921.1074
 604  989.6315
 605  981.8896
 606  928.4781
 607  956.7133
 608  884.998
 609  781.901
 610  741.9697
 611  806.7054
 612  890.5123
 613  981.3084
 614  971.4855
 615  927.6479
 616  910.0197
 617  974.8051
 618  991.7998
 619  915.678
 620  887.637
 621  870.397
 622  895.8392
 623  949.9669
 624  1038.476
 625  1061.708
 626  1124.714
 627  1192.613
 628  1289.974
 629  1374.549
 630  1570.962
 631  1627.148
 632  1486.834
 633  1359.151
 634  1271.071
 635  1225.923
 636  1172.921
 637  1051.683
 638  980.3342
 639  838.728
 640  812.0594
 641  722.4673
 642  648.7958
 643  623.7578
 644  585.6423
 645  609.6567
 646  716.8969
 647  723.8147
 648  637.7325
 649  472.2938
 650  602.6642
 651  603.3615
 652  726.2066
 653  682.5316
 654  722.0336
 655  700.2013
 656  714.3448
 657  733.5731
 658  755.8955
 659  786.6313
 660  819.2562
 661  871.4627
 662  770.7845
 663  782.3029
 664  737.7743
 665  883.337
 666  864.8561
 667  876.4371
 668  862.3262
 669  793.2605
 670  815.4858
 671  887.9141
 672  928.0225
 673  845.43
 674  735.838
 675  708.932
 676  707.9814
 677  795.2053
 678  855.1975
 679  776.8167
 680  656.2101
 681  748.136
 682  845.7844
 683  966.8096
 684  931.4659
 685  864.9724
 686  853.8697
 687  856.7109
 688  906.1175
 689  775.546
 690  764.2566
 691  772.0839
 692  870.9423
 693  885.0817
 694  819.9805
 695  776.4955
 696  753.649
 697  884.9027
 698  995.2321
 699  968.7975
 700  938.473
 701  933.5426
 702  977.9297
 703  893.1371
 704  869.5076
 705  897.4761
 706  963.5901
 707  929.6678
 708  881.8658
 709  852.233
 710  888.8177
 711  903.016
 712  954.2042
 713  985.1111
 714  925.8354
 715  770.2695
 716  644.5495
 717  660.5127
 718  711.9354
 719  707.5435
 720  744.0712
 721  781.9774
 722  831.2607
 723  692.1654
 724  702.8979
 725  818.0439
 726  886.2918
 727  913.6368
 728  712.8135
 729  645.835
 730  610.192
 731  664.8656
 732  868.4789
 733  837.6271
 734  788.6495
 735  653.2692
 736  593.1165
 737  545.8373
 738  547.2917
 739  653.1343
 740  757.5389
 741  756.2356
 742  722.1365
 743  813.0441
 744  860.0814
 745  828.9189
 746  705.4327
 747  619.9119
 748  616.7668
 749  688.0015
 750  706.8598
 751  667.0306
 752  663.7421
 753  520.2322
 754  562.3421
 755  547.0503
 756  643.4044
 757  690.8694
 758  707.1371
 759  758.0056
 760  744.5739
 761  687.4041
 762  645.23
 763  706.7021
 764  809.0066
 765  835.4478
 766  725.1214
 767  679.5618
 768  741.354
 769  766.0771
 770  847.5121
 771  812.3786
 772  753.9919
 773  642.922
 774  678.6197
 775  706.8325
 776  798.5416
 777  831.6243
 778  820.9047
 779  746.4385
 780  644.1374
 781  714.9974
 782  828.3551
 783  847.1962
 784  853.5446
 785  755.8785
 786  827.5425
 787  838.024
 788  876.8212
 789  784.8688
 790  638.8115
 791  635.9372
 792  605.3246
 793  571.144
 794  568.1865
 795  636.2606
 796  746.3775
 797  786.6302
 798  809.9908
 799  732.1534
 800  697.298
 801  661.855
 802  696.0312
 803  657.737
 804  702.379
 805  665.8397
 806  655.1116
 807  698.2332
 808  744.2407
 809  776.5667
 810  800.1277
 811  812.9488
 812  732.1744
 813  662.4042
 814  632.3938
 815  651.8491
 816  681.5519
 817  687.2506
 818  723.9016
 819  786.1543
 820  802.9951
 821  782.076
 822  789.9491
 823  858.442
 824  942.4485
 825  968.6262
 826  990.8969
 827  955.3068
 828  774.509
 829  643.5292
 830  604.8903
 831  730.1267
 832  903.7601
 833  1015.078
 834  993.3042
 835  881.4432
 836  860.8724
 837  805.8602
 838  834.3953
 839  848.8229
 840  1008.552
 841  1109.818
 842  1013.638
 843  788.9095
 844  724.2921
 845  750.1251
 846  813.0831
 847  753.4691
 848  723.4797
 849  686.1819
 850  601.9781
 851  751.3701
 852  883.9841
 853  974.6758
 854  918.5732
 855  846.9664
 856  973.5424
 857  945.3103
 858  981.2972
 859  860.9094
 860  868.3504
 861  859.7264
 862  931.0595
 863  1006.65
 864  969.9476
 865  955.4149
 866  958.5557
 867  1022.134
 868  1047.573
 869  1006.374
 870  1054.385
 871  1043.072
 872  1040.81
 873  972.3655
 874  948.9635
 875  951.7867
 876  974.6686
 877  973.3527
 878  1023.191
 879  1072.905
 880  1160.27
 881  1123.582
 882  994.7944
 883  903.9079
 884  896.7701
 885  933.5663
 886  901.8119
 887  877.9481
 888  849.3141
 889  913.9878
 890  968.8464
 891  994.4897
 892  995.3929
 893  1019.068
 894  1098.913
 895  1172.86
 896  1052.885
 897  981.3273
 898  891.4246
 899  962.6074
 900  1036.861
 901  921.6684
 902  792.5123
 903  690.2146
 904  924.3467
 905  1038.224
 906  1051.749
 907  988.0726
 908  948.9708
 909  881.162
 910  839.3113
 911  833.5989
 912  861.1762
 913  935.7469
 914  892.1405
 915  958.1983
 916  975.9777
 917  1000.357
 918  1005.435
 919  1007.158
 920  1099.761
 921  1111.621
 922  1044.602
 923  961.5497
 924  945.1108
 925  1121.004
 926  1190.058
 927  1162.339
 928  1052.784
 929  1049.548
 930  1006.546
 931  1011.994
 932  1017.608
 933  1038.81
 934  947.3871
 935  945.0021
 936  957.1527
 937  1070.771
 938  1043.554
 939  943.0878
 940  965.5492
 941  854.9326
 942  848.3688
 943  728.7711
 944  728.9169
 945  752.9451
 946  799.7966
 947  794.101
 948  797.436
 949  803.5488
 950  820.8472
 951  774.9891
 952  796.8024
 953  815.061
 954  769.0982
 955  705.0917
 956  785.1221
 957  858.9281
 958  836.37
 959  640.0305
 960  577.3038
 961  631.6661
 962  821.74
 963  839.5916
 964  736.3746
 965  644.6796
 966  664.6603
 967  710.6186
 968  620.6221
 969  716.026
 970  808.9648
 971  875.0089
 972  775.4182
 973  711.1929
 974  749.0303
 975  765.1044
 976  780.2239
 977  742.6518
 978  739.4932
 979  833.1255
 980  894.3618
 981  865.3055
 982  845.1802
 983  832.1197
 984  826.1773
 985  833.836
 986  795.615
 987  798.3899
 988  877.9034
 989  1037.759
 990  1064.457
 991  1066.826
 992  963.6058
 993  865.2775
 994  789.1498
 995  791.1713
 996  886.7251
 997  854.0623
 998  851.1722
 999  848.7115
1000  913.3267
1001  894.8038
1002  846.8858
1003  746.9413
1004  709.1818
1005  712.9508
1006  754.3666
1007  803.8177
1008  757.9122
1009  834.3813
1010  875.2784
1011  970.0117
1012  987.5859
1013  924.6125
1014  948.5846
1015  933.9597
1016  901.6542
1017  693.129
1018  649.9088
1019  662.156
1020  880.2352
1021  938.5726
1022  947.7299
1023  963.5685
