# Input file       =  1194022278.105005_cleaned.dat
# Candidate        =  PSR_0332+5434
# Telescope        =  AR
# Epoch_topo       =  58063.702512789409
# Epoch_bary       =  N/A
# T_sample         =  0.002
# Data Folded      =  7143424
# Data Avg         =  0.121788583580541
# Data StdDev      =  3.83845806935993 
# Profile Bins     =  1024
# Profile Avg      =  849.55886804558  
# Profile StdDev   =  320.597430125749 
# Reduced chi-sqr  =  0.590
# Prob(Noise)      <  1   (~0.0 sigma)
# P_topo (ms)      =  714.501027415357  +/- 0.000151
# P'_topo (s/s)    =  -0                +/- 8.18e-11
# P''_topo (s/s^2) =  0                 +/- 3.71e-14
# P_bary (ms)      =  N/A
# P'_bary (s/s)    =  N/A
# P''_bary (s/s^2) =  N/A
# P_orb (s)        =  N/A
# asin(i)/c (s)    =  N/A
# eccentricity     =  N/A
# w (rad)          =  N/A
# T_peri           =  N/A
######################################################
   0  816.3812
   1  802.4789
   2  762.6142
   3  767.7288
   4  902.4522
   5  993.1779
   6  976.8763
   7  838.0709
   8  796.1032
   9  830.9529
  10  911.6667
  11  890.4387
  12  792.8527
  13  663.5031
  14  664.679
  15  685.3083
  16  847.1401
  17  945.9644
  18  953.6102
  19  961.0594
  20  917.8841
  21  890.7609
  22  852.0997
  23  860.9088
  24  937.2736
  25  977.5581
  26  1033.562
  27  1013.231
  28  910.514
  29  890.3978
  30  842.291
  31  850.8348
  32  833.9426
  33  796.9152
  34  751.064
  35  637.1942
  36  627.2733
  37  644.9016
  38  727.9877
  39  721.8651
  40  756.1727
  41  842.1384
  42  952.2427
  43  943.9058
  44  863.456
  45  911.2921
  46  965.5803
  47  873.4434
  48  828.0536
  49  770.1477
  50  777.8839
  51  713.4125
  52  761.0398
  53  771.4271
  54  745.7162
  55  806.369
  56  912.2333
  57  1048.979
  58  1030.073
  59  981.3157
  60  935.3751
  61  926.6676
  62  805.1082
  63  816.9963
  64  821.1704
  65  848.4329
  66  828.3132
  67  805.1007
  68  815.0063
  69  911.5908
  70  1019.731
  71  1081.554
  72  1027.089
  73  1025.401
  74  994.6577
  75  909.342
  76  868.9025
  77  817.4499
  78  848.74
  79  911.5325
  80  949.9832
  81  956.2905
  82  888.1125
  83  953.3487
  84  1121.118
  85  1111.607
  86  965.8448
  87  925.009
  88  965.4504
  89  915.0046
  90  809.0655
  91  855.7242
  92  930.0952
  93  900.4166
  94  1043.273
  95  1184.198
  96  1148.481
  97  976.3783
  98  889.6029
  99  952.2745
 100  935.6716
 101  915.4381
 102  989.4088
 103  965.6781
 104  923.942
 105  877.4731
 106  802.772
 107  771.6512
 108  739.0773
 109  889.777
 110  925.2319
 111  958.3149
 112  855.5486
 113  813.4699
 114  721.4932
 115  854.3244
 116  946.3539
 117  881.8922
 118  765.5748
 119  710.3117
 120  830.7681
 121  964.6574
 122  1019.242
 123  878.1847
 124  773.8975
 125  714.827
 126  658.7452
 127  572.8267
 128  549.7466
 129  558.8829
 130  491.6966
 131  470.1438
 132  589.8873
 133  800.0462
 134  879.103
 135  941.9866
 136  877.8241
 137  922.4752
 138  824.234
 139  819.8716
 140  725.9683
 141  748.6229
 142  770.2825
 143  784.1776
 144  801.6622
 145  808.3738
 146  771.4625
 147  756.0978
 148  874.9001
 149  1068.13
 150  1073.088
 151  894.2303
 152  851.907
 153  861.9174
 154  880.0212
 155  816.4886
 156  832.4103
 157  774.5172
 158  854.7736
 159  850.4877
 160  998.1814
 161  1047.889
 162  1001.188
 163  932.1064
 164  871.7781
 165  857.5875
 166  722.5599
 167  842.7144
 168  921.6234
 169  888.6329
 170  815.0233
 171  978.848
 172  1130.237
 173  1027.185
 174  876.2162
 175  969.7372
 176  1024.45
 177  923.6918
 178  819.2296
 179  688.8909
 180  846.8743
 181  998.8595
 182  1098.366
 183  1040.111
 184  799.8775
 185  703.808
 186  643.3703
 187  666.4657
 188  858.2708
 189  1019.363
 190  1090.478
 191  1055.241
 192  1001.073
 193  874.3696
 194  780.1685
 195  715.5737
 196  768.735
 197  845.1828
 198  1014.637
 199  981.0488
 200  1019.553
 201  971.0145
 202  1007.456
 203  942.3685
 204  882.8789
 205  748.0785
 206  750.3599
 207  848.5118
 208  988.9982
 209  873.7499
 210  837.3344
 211  772.1552
 212  768.1096
 213  695.5732
 214  833.7429
 215  1024.787
 216  1126.566
 217  1035.756
 218  856.0054
 219  841.2149
 220  936.1873
 221  934.3112
 222  942.6147
 223  763.7043
 224  690.722
 225  753.3311
 226  888.5067
 227  1014.918
 228  983.4694
 229  831.6716
 230  619.9284
 231  549.3657
 232  623.4959
 233  804.4777
 234  827.2808
 235  882.2891
 236  840.6162
 237  876.4901
 238  784.2945
 239  749.0769
 240  721.3931
 241  708.8519
 242  631.4039
 243  581.2899
 244  553.1805
 245  465.3561
 246  490.4204
 247  585.1684
 248  780.8214
 249  909.1393
 250  878.2589
 251  873.2655
 252  679.8903
 253  768.2037
 254  814.1159
 255  911.7347
 256  867.0276
 257  749.3755
 258  799.0606
 259  780.5903
 260  783.6343
 261  789.657
 262  780.3959
 263  806.5768
 264  687.8997
 265  756.4926
 266  810.0339
 267  820.1195
 268  838.0538
 269  811.3596
 270  879.2704
 271  920.2268
 272  1084.475
 273  1042.893
 274  1063.982
 275  998.9539
 276  906.5585
 277  828.2036
 278  901.8538
 279  850.8311
 280  789.0095
 281  688.6538
 282  727.1076
 283  710.3207
 284  718.3223
 285  848.8542
 286  995.8931
 287  1101.147
 288  1082.673
 289  932.5959
 290  889.2123
 291  801.0181
 292  737.4317
 293  640.0374
 294  628.8608
 295  650.7563
 296  643.0928
 297  696.9054
 298  780.3998
 299  807.6158
 300  800.715
 301  825.3589
 302  876.1558
 303  828.3154
 304  817.3189
 305  886.6546
 306  914.6977
 307  790.9961
 308  792.8644
 309  777.8438
 310  754.1161
 311  738.4769
 312  687.1404
 313  714.2283
 314  684.6016
 315  731.5469
 316  850.2922
 317  858.8465
 318  850.7215
 319  783.1829
 320  847.268
 321  907.9953
 322  874.5715
 323  930.7561
 324  959.6122
 325  1016.819
 326  909.3104
 327  926.2808
 328  822.4281
 329  749.2049
 330  701.7746
 331  879.1594
 332  973.175
 333  935.8701
 334  849.9111
 335  880.9837
 336  892.9059
 337  878.2339
 338  794.3425
 339  770.826
 340  803.1609
 341  774.5412
 342  749.3556
 343  757.2719
 344  812.9703
 345  939.7441
 346  1008.868
 347  990.3369
 348  999.8645
 349  889.6269
 350  928.056
 351  876.4988
 352  929.9783
 353  801.6474
 354  708.7996
 355  773.7946
 356  908.8025
 357  920.9571
 358  908.4853
 359  903.9755
 360  981.2846
 361  895.5903
 362  874.9175
 363  829.5056
 364  821.9846
 365  770.9107
 366  790.662
 367  792.3879
 368  826.2964
 369  838.2515
 370  874.9621
 371  805.0695
 372  817.8646
 373  1001.062
 374  1135.871
 375  1070.81
 376  940.1826
 377  826.8937
 378  796.5462
 379  654.6231
 380  734.3968
 381  850.0012
 382  976.592
 383  895.1104
 384  821.7576
 385  796.128
 386  910.1272
 387  847.1578
 388  814.5312
 389  728.283
 390  838.8531
 391  834.2346
 392  730.8737
 393  696.6122
 394  756.3533
 395  851.5875
 396  840.8743
 397  794.7828
 398  721.2729
 399  760.567
 400  921.8015
 401  993.6008
 402  996.5728
 403  913.2225
 404  1027.565
 405  1075.882
 406  1037.764
 407  907.9134
 408  849.5541
 409  793.7294
 410  746.2652
 411  722.9608
 412  739.6452
 413  917.8745
 414  937.8051
 415  932.8599
 416  716.7063
 417  715.9348
 418  639.2103
 419  649.4557
 420  726.0079
 421  821.5048
 422  766.3622
 423  716.4409
 424  649.5645
 425  773.6933
 426  781.1751
 427  893.7098
 428  964.0921
 429  928.8331
 430  891.8477
 431  769.5898
 432  752.2166
 433  810.5516
 434  788.3423
 435  833.853
 436  690.0911
 437  674.8571
 438  665.6708
 439  738.5876
 440  813.804
 441  726.6866
 442  743.8427
 443  772.16
 444  897.9818
 445  902.2076
 446  874.4687
 447  870.2753
 448  885.1911
 449  835.5048
 450  689.6491
 451  670.2071
 452  691.0629
 453  706.8143
 454  798.9453
 455  788.8571
 456  880.6874
 457  911.5465
 458  984.4177
 459  857.1082
 460  639.7197
 461  592.0291
 462  649.0895
 463  695.0222
 464  676.5188
 465  768.4017
 466  812.3552
 467  885.7167
 468  869.5591
 469  991.5339
 470  976.3459
 471  944.3276
 472  807.5505
 473  790.2638
 474  876.8984
 475  961.1589
 476  887.4913
 477  899.5715
 478  815.3343
 479  787.842
 480  767.9161
 481  921.6475
 482  963.9263
 483  901.3209
 484  844.4998
 485  1007.699
 486  1126.458
 487  1095.679
 488  1073.162
 489  1039.958
 490  982.1002
 491  928.9344
 492  846.2097
 493  915.1635
 494  912.1827
 495  897.7404
 496  813.8984
 497  810.6399
 498  777.0403
 499  762.5685
 500  722.3571
 501  779.5196
 502  823.6698
 503  854.7798
 504  890.0927
 505  856.8246
 506  938.7805
 507  851.078
 508  839.6653
 509  766.929
 510  737.0706
 511  815.3881
 512  876.2797
 513  921.3499
 514  903.2759
 515  940.3545
 516  986.056
 517  921.759
 518  987.208
 519  986.4302
 520  964.7922
 521  860.0447
 522  940.0802
 523  884.1547
 524  875.6172
 525  848.4404
 526  841.0319
 527  817.9983
 528  793.0867
 529  833.1851
 530  900.4256
 531  925.6965
 532  966.9154
 533  853.379
 534  802.2452
 535  801.2744
 536  856.8654
 537  846.9648
 538  840.1326
 539  841.6029
 540  944.507
 541  904.6284
 542  767.4424
 543  726.7758
 544  753.0071
 545  930.3536
 546  917.8213
 547  892.0206
 548  831.9305
 549  839.7127
 550  851.423
 551  913.4943
 552  840.9436
 553  886.7045
 554  871.6096
 555  905.5537
 556  799.4949
 557  758.6743
 558  787.1406
 559  788.7457
 560  797.4132
 561  848.321
 562  881.6787
 563  904.4407
 564  903.3311
 565  945.0837
 566  921.1072
 567  830.702
 568  722.7376
 569  669.3691
 570  606.5891
 571  767.6179
 572  675.3243
 573  729.0325
 574  748.8877
 575  912.1331
 576  1004.843
 577  960.0829
 578  999.2234
 579  820.1584
 580  782.1818
 581  733.1725
 582  776.3527
 583  698.106
 584  745.6077
 585  923.2892
 586  1027.254
 587  983.028
 588  874.8419
 589  888.6161
 590  839.5624
 591  702.5337
 592  670.6453
 593  624.6565
 594  745.7374
 595  780.1323
 596  853.7839
 597  762.9578
 598  764.7881
 599  809.9877
 600  828.3304
 601  813.1443
 602  844.6373
 603  925.1589
 604  987.4556
 605  910.9988
 606  803.5101
 607  768.9675
 608  648.2093
 609  622.5604
 610  792.3469
 611  909.4626
 612  1007.643
 613  970.3832
 614  1121.039
 615  1144.327
 616  984.6965
 617  873.0508
 618  801.3834
 619  879.1791
 620  907.8199
 621  1108.699
 622  1078.026
 623  1100.338
 624  958.6066
 625  1068.805
 626  1034.911
 627  1102.154
 628  1164.98
 629  1238.564
 630  1324.689
 631  1499.913
 632  1650.192
 633  1728.914
 634  1756.268
 635  1725.982
 636  1620.791
 637  1366.27
 638  1117.516
 639  974.0726
 640  904.1989
 641  962.835
 642  889.3601
 643  958.959
 644  875.5135
 645  868.262
 646  747.9235
 647  801.4554
 648  862.9597
 649  946.7089
 650  992.1495
 651  984.702
 652  846.3385
 653  769.7213
 654  880.4688
 655  1004.954
 656  1021.675
 657  846.1882
 658  786.8384
 659  729.0488
 660  795.5978
 661  760.9103
 662  799.8652
 663  744.3066
 664  809.5875
 665  848.1214
 666  911.4995
 667  893.3817
 668  972.825
 669  1104.347
 670  1167.129
 671  1009.234
 672  743.952
 673  623.4205
 674  554.1652
 675  693.8724
 676  708.3247
 677  807.2895
 678  866.7757
 679  929.5898
 680  847.9749
 681  681.1864
 682  654.7287
 683  730.5863
 684  959.6597
 685  994.0877
 686  982.7111
 687  906.5756
 688  834.7954
 689  826.1261
 690  762.4245
 691  862.348
 692  889.356
 693  935.2175
 694  891.7426
 695  801.7609
 696  860.1144
 697  828.8158
 698  868.5721
 699  942.4715
 700  987.9265
 701  946.2335
 702  911.3946
 703  889.3152
 704  826.0361
 705  733.0695
 706  849.8016
 707  917.8843
 708  914.9009
 709  876.3362
 710  888.7333
 711  879.5444
 712  778.2434
 713  733.9215
 714  702.5119
 715  690.4171
 716  695.0303
 717  839.8584
 718  947.6801
 719  938.1293
 720  795.8828
 721  759.0226
 722  730.8949
 723  711.5776
 724  653.9468
 725  759.0076
 726  772.8363
 727  808.4032
 728  784.0693
 729  830.1455
 730  777.5122
 731  668.729
 732  620.4191
 733  693.7291
 734  844.0756
 735  861.8181
 736  886.4332
 737  857.0616
 738  853.812
 739  775.1813
 740  733.36
 741  749.9093
 742  775.6808
 743  914.4596
 744  978.0624
 745  976.6469
 746  815.5024
 747  855.7682
 748  875.9352
 749  775.0872
 750  645.864
 751  624.4824
 752  613.2782
 753  566.5406
 754  666.5384
 755  869.299
 756  948.1407
 757  925.4197
 758  891.3912
 759  838.1088
 760  848.9069
 761  879.2787
 762  998.1288
 763  966.1219
 764  979.5485
 765  943.2085
 766  945.2952
 767  971.8647
 768  827.4319
 769  808.436
 770  765.72
 771  801.1347
 772  909.9811
 773  1023.676
 774  1052.15
 775  893.1494
 776  716.0557
 777  736.134
 778  716.2679
 779  774.6236
 780  738.7343
 781  729.4872
 782  714.639
 783  666.8607
 784  630.9376
 785  701.178
 786  834.2233
 787  892.0231
 788  823.3008
 789  876.9839
 790  977.8344
 791  898.4796
 792  713.3213
 793  670.9753
 794  640.9592
 795  665.1238
 796  569.3589
 797  644.0927
 798  670.4127
 799  662.9926
 800  649.065
 801  739.1993
 802  745.3942
 803  712.8781
 804  664.9769
 805  703.6614
 806  596.9398
 807  515.4398
 808  610.3814
 809  758.2619
 810  862.0601
 811  899.0508
 812  965.8555
 813  913.4772
 814  812.7229
 815  786.3687
 816  802.0007
 817  898.2799
 818  1018.681
 819  994.6299
 820  865.0479
 821  727.1117
 822  757.2206
 823  749.9131
 824  762.4285
 825  853.0674
 826  862.0654
 827  841.6786
 828  754.9877
 829  833.5932
 830  936.4584
 831  1068.392
 832  1064.233
 833  983.6086
 834  877.9996
 835  877.3332
 836  835.3694
 837  853.0402
 838  700.7921
 839  792.9708
 840  756.1758
 841  743.5755
 842  628.6003
 843  598.8068
 844  693.7535
 845  780.3961
 846  842.3216
 847  895.5878
 848  978.2473
 849  1052.37
 850  944.9206
 851  890.4901
 852  797.3433
 853  790.5331
 854  692.53
 855  722.9199
 856  682.5674
 857  663.0004
 858  663.7155
 859  668.9657
 860  649.8141
 861  640.6196
 862  659.8927
 863  750.9812
 864  752.4813
 865  824.0219
 866  966.4276
 867  1034.521
 868  962.2891
 869  804.1582
 870  708.4476
 871  688.7733
 872  702.6779
 873  871.4897
 874  850.0199
 875  801.8798
 876  742.433
 877  797.3348
 878  889.9331
 879  916.4282
 880  922.6929
 881  970.7625
 882  871.6152
 883  934.9913
 884  890.2452
 885  871.7604
 886  770.8295
 887  711.9254
 888  822.2877
 889  883.7629
 890  940.2684
 891  914.5109
 892  796.8751
 893  621.8422
 894  686.2039
 895  855.79
 896  944.0595
 897  896.9036
 898  810.5356
 899  925.5875
 900  917.7427
 901  886.3086
 902  934.2261
 903  978.2958
 904  876.9614
 905  860.6989
 906  863.6603
 907  956.1759
 908  901.3262
 909  785.9553
 910  704.6622
 911  558.6997
 912  664.5649
 913  772.4847
 914  913.284
 915  864.61
 916  815.4374
 917  901.1017
 918  887.3804
 919  755.9556
 920  655.8735
 921  718.5892
 922  784.1475
 923  731.1558
 924  711.025
 925  818.0918
 926  849.9241
 927  812.242
 928  789.7667
 929  788.9826
 930  789.2516
 931  781.4356
 932  926.5527
 933  860.381
 934  814.9077
 935  719.6697
 936  870.157
 937  922.5338
 938  975.1331
 939  930.4977
 940  931.7275
 941  1013.228
 942  1098.507
 943  995.6673
 944  819.2827
 945  894.01
 946  931.8691
 947  926.1632
 948  888.6656
 949  956.6149
 950  985.0622
 951  1024.662
 952  1011.106
 953  985.8068
 954  908.6005
 955  882.3927
 956  776.8931
 957  690.7851
 958  719.6827
 959  757.2605
 960  790.2904
 961  670.09
 962  597.3069
 963  686.8851
 964  889.8887
 965  1069.429
 966  1034.693
 967  1057.653
 968  972.5918
 969  917.1254
 970  813.6633
 971  712.4175
 972  654.03
 973  638.1989
 974  715.8777
 975  878.1198
 976  865.1052
 977  875.0657
 978  857.1411
 979  896.9578
 980  926.1348
 981  925.475
 982  898.7585
 983  794.0336
 984  832.5027
 985  895.8828
 986  891.0256
 987  725.8602
 988  630.4523
 989  675.4239
 990  743.4844
 991  823.5505
 992  774.2037
 993  794.5954
 994  892.6221
 995  991.2754
 996  1048.972
 997  1066.957
 998  965.1168
 999  864.9649
1000  696.0587
1001  595.7789
1002  564.9594
1003  631.2846
1004  714.1746
1005  667.7234
1006  755.9712
1007  842.1624
1008  791.2794
1009  760.9821
1010  916.059
1011  1061.865
1012  1057.752
1013  978.0602
1014  990.9386
1015  1064.411
1016  1029.261
1017  971.9658
1018  919.8823
1019  913.6839
1020  840.0966
1021  874.0616
1022  895.0533
1023  875.2285
