# Input file       =  1194108959.124819_cleaned.dat
# Candidate        =  PSR_0332+5434
# Telescope        =  AR
# Epoch_topo       =  58064.705765333551
# Epoch_bary       =  N/A
# T_sample         =  0.002
# Data Folded      =  7208960
# Data Avg         =  0.119372194985309
# Data StdDev      =  3.5055439606936  
# Profile Bins     =  1024
# Profile Avg      =  840.277367586313 
# Profile StdDev   =  294.131641889991 
# Reduced chi-sqr  =  0.773
# Prob(Noise)      <  1   (~0.0 sigma)
# P_topo (ms)      =  714.501981801728  +/- 4.7e-05
# P'_topo (s/s)    =  -0                +/- 2.52e-11
# P''_topo (s/s^2) =  0                 +/- 1.13e-14
# P_bary (ms)      =  N/A
# P'_bary (s/s)    =  N/A
# P''_bary (s/s^2) =  N/A
# P_orb (s)        =  N/A
# asin(i)/c (s)    =  N/A
# eccentricity     =  N/A
# w (rad)          =  N/A
# T_peri           =  N/A
######################################################
   0  1003.162
   1  1070.327
   2  834.0386
   3  677.8099
   4  831.6625
   5  853.1605
   6  912.1458
   7  863.3862
   8  682.2098
   9  656.0847
  10  726.2737
  11  788.4015
  12  752.4557
  13  682.9264
  14  820.6529
  15  929.6835
  16  930.5855
  17  828.0587
  18  738.6306
  19  727.2789
  20  835.2715
  21  897.6273
  22  776.4085
  23  813.1998
  24  718.9626
  25  792.39
  26  734.1031
  27  814.085
  28  895.9243
  29  873.7754
  30  769.4348
  31  729.9686
  32  714.5629
  33  872.265
  34  751.6566
  35  758.7961
  36  749.2576
  37  913.2355
  38  791.6585
  39  764.04
  40  787.4088
  41  907.6054
  42  939.0445
  43  852.2404
  44  778.666
  45  694.3035
  46  791.9108
  47  925.7236
  48  972.6003
  49  922.1894
  50  966.8285
  51  847.1603
  52  764.2094
  53  682.1152
  54  684.1032
  55  638.3718
  56  551.1982
  57  631.3269
  58  638.6142
  59  477.476
  60  503.3822
  61  605.3159
  62  692.1979
  63  766.4332
  64  998.7432
  65  1142.503
  66  965.187
  67  645.2109
  68  618.7365
  69  702.8672
  70  690.1507
  71  647.6419
  72  707.8416
  73  813.6849
  74  860.0236
  75  727.9373
  76  680.5443
  77  788.216
  78  763.7816
  79  1002.844
  80  937.5643
  81  985.5368
  82  916.3117
  83  1049.741
  84  1015.796
  85  841.4895
  86  750.5807
  87  899.5751
  88  945.2533
  89  796.8807
  90  766.7344
  91  724.7208
  92  764.8995
  93  748.7968
  94  675.5967
  95  783.6859
  96  700.7787
  97  850.7064
  98  860.5322
  99  1001.294
 100  1084.458
 101  1236.353
 102  1056.976
 103  862.7742
 104  601.7868
 105  711.5422
 106  747.1418
 107  804.3157
 108  825.9354
 109  755.3598
 110  681.5975
 111  759.3582
 112  863.6232
 113  909.1843
 114  905.7159
 115  1058.078
 116  1069.242
 117  912.3213
 118  713.5444
 119  793.4899
 120  943.7513
 121  785.7417
 122  774.7195
 123  705.7805
 124  730.6024
 125  655.2829
 126  600.9984
 127  668.8257
 128  590.9995
 129  692.2393
 130  841.8167
 131  901.4575
 132  851.3585
 133  746.0576
 134  907.6466
 135  882.6006
 136  854.1023
 137  741.873
 138  830.8831
 139  848.1716
 140  767.689
 141  707.0299
 142  678.197
 143  783.9302
 144  935.996
 145  844.8329
 146  662.4962
 147  610.7634
 148  830.7629
 149  914.31
 150  851.7525
 151  871.9304
 152  844.0927
 153  771.8266
 154  731.3104
 155  655.7024
 156  638.3241
 157  735.0048
 158  833.8138
 159  801.8742
 160  863.7868
 161  789.488
 162  809.6749
 163  741.4621
 164  739.1041
 165  771.4438
 166  641.9204
 167  666.7786
 168  613.6468
 169  604.649
 170  630.9453
 171  703.4755
 172  698.6753
 173  705.8138
 174  762.2474
 175  851.6476
 176  964.912
 177  950.6306
 178  1003.693
 179  1059.963
 180  962.2332
 181  914.9694
 182  678.7585
 183  792.3992
 184  857.5026
 185  960.8887
 186  936.0713
 187  941.6594
 188  840.724
 189  803.4643
 190  831.21
 191  873.4357
 192  892.7166
 193  969.6697
 194  889.4973
 195  797.8652
 196  550.6956
 197  704.0172
 198  879.8297
 199  906.8845
 200  839.1144
 201  747.4735
 202  771.8304
 203  801.295
 204  760.4314
 205  892.9706
 206  882.8109
 207  852.6316
 208  819.31
 209  783.326
 210  715.2491
 211  597.3627
 212  591.5945
 213  737.9669
 214  885.5875
 215  848.7014
 216  798.4748
 217  799.1393
 218  822.0306
 219  758.4494
 220  747.5938
 221  850.5092
 222  1016.404
 223  1066.853
 224  971.0542
 225  819.9869
 226  652.2856
 227  736.72
 228  658.4983
 229  557.5687
 230  611.4131
 231  739.0662
 232  888.1118
 233  820.6442
 234  825.6766
 235  949.7292
 236  1020.49
 237  1011.977
 238  947.3563
 239  836.3851
 240  906.6844
 241  998.3482
 242  849.8267
 243  796.2511
 244  679.3462
 245  731.4221
 246  893.9966
 247  977.5512
 248  1140.591
 249  1124.5
 250  1073.299
 251  1016.941
 252  782.7464
 253  813.3358
 254  788.4399
 255  805.0858
 256  827.9699
 257  916.5309
 258  1085.219
 259  1114.744
 260  1029.906
 261  896.7122
 262  900.687
 263  934.4306
 264  1003.108
 265  1044.142
 266  1010.445
 267  989.3934
 268  910.3828
 269  790.4001
 270  743.4926
 271  772.6625
 272  939.1555
 273  937.475
 274  724.2018
 275  651.3837
 276  686.0619
 277  835.6756
 278  920.7125
 279  917.9176
 280  948.3583
 281  1092.385
 282  1160.2
 283  1132.635
 284  990.7947
 285  963.5671
 286  896.979
 287  819.8583
 288  658.152
 289  547.3746
 290  449.7628
 291  576.3252
 292  688.409
 293  757.4409
 294  813.6931
 295  855.5969
 296  891.7461
 297  927.1838
 298  983.226
 299  1133.654
 300  1135.902
 301  1072.705
 302  886.1638
 303  851.7652
 304  864.0612
 305  883.1193
 306  774.9894
 307  740.7968
 308  787.1888
 309  843.7457
 310  904.2332
 311  991.6095
 312  934.5588
 313  962.9727
 314  994.9725
 315  997.0094
 316  974.3442
 317  804.449
 318  877.6907
 319  947.2963
 320  1022.552
 321  1096.523
 322  974.8246
 323  936.2132
 324  958.6758
 325  938.6578
 326  1016.789
 327  983.7723
 328  1066.782
 329  941.679
 330  747.1968
 331  745.3765
 332  742.2448
 333  702.1024
 334  511.5145
 335  600.6957
 336  629.9852
 337  760.1302
 338  661.5687
 339  675.7435
 340  678.1064
 341  680.9419
 342  618.1733
 343  692.0433
 344  700.8309
 345  778.3542
 346  881.5614
 347  963.6526
 348  935.702
 349  772.4159
 350  851.7031
 351  954.6118
 352  823.5131
 353  714.4028
 354  636.7648
 355  700.7684
 356  739.8829
 357  829.2633
 358  773.8351
 359  801.2596
 360  673.8622
 361  665.4111
 362  667.3889
 363  846.9956
 364  1098.759
 365  1136.713
 366  1030.874
 367  947.5697
 368  812.6857
 369  880.0255
 370  861.866
 371  875.8188
 372  873.2112
 373  756.3165
 374  732.3179
 375  747.7666
 376  801.6965
 377  817.3203
 378  853.3625
 379  895.8522
 380  873.6388
 381  793.09
 382  718.7541
 383  741.3762
 384  786.738
 385  765.702
 386  746.0949
 387  773.1287
 388  807.2727
 389  743.5881
 390  697.6511
 391  834.6891
 392  899.9014
 393  908.1599
 394  842.9977
 395  797.5135
 396  936.7671
 397  1022.879
 398  1051.699
 399  984.084
 400  924.9659
 401  892.1876
 402  898.3911
 403  698.3885
 404  644.3123
 405  665.9481
 406  890.7513
 407  956.1151
 408  923.9557
 409  892.3412
 410  962.9703
 411  878.2938
 412  751.6157
 413  869.9992
 414  941.3553
 415  1017.181
 416  831.8773
 417  901.9201
 418  956.4023
 419  882.9103
 420  871.0812
 421  875.9669
 422  919.0392
 423  791.0905
 424  733.1819
 425  603.4738
 426  669.8543
 427  652.6779
 428  847.8832
 429  962.3545
 430  969.027
 431  787.0095
 432  684.9185
 433  665.1246
 434  904.8691
 435  892.9348
 436  852.6976
 437  772.7238
 438  776.9163
 439  744.5443
 440  727.6733
 441  699.3234
 442  778.158
 443  754.9128
 444  863.7811
 445  875.1251
 446  807.5161
 447  782.3079
 448  936.6019
 449  962.7462
 450  991.8753
 451  808.6141
 452  771.77
 453  656.4941
 454  615.2722
 455  667.9403
 456  730.3016
 457  751.8921
 458  841.8239
 459  862.58
 460  891.0052
 461  877.3318
 462  922.0628
 463  863.9169
 464  854.7729
 465  770.7035
 466  829.1883
 467  620.1693
 468  488.6739
 469  489.6502
 470  643.7647
 471  852.869
 472  912.3514
 473  873.9518
 474  861.1405
 475  809.5023
 476  900.8253
 477  886.1592
 478  836.7114
 479  823.2019
 480  898.9774
 481  818.5111
 482  730.7754
 483  726.4592
 484  838.3502
 485  902.3809
 486  875.1285
 487  885.2787
 488  818.7504
 489  817.9799
 490  1009.825
 491  1106.077
 492  995.4587
 493  826.3763
 494  806.5718
 495  786.0898
 496  684.4548
 497  610.6958
 498  792.1798
 499  925.6416
 500  905.3678
 501  830.3862
 502  824.6762
 503  841.5262
 504  977.9379
 505  942.3786
 506  714.12
 507  507.9291
 508  604.2429
 509  789.8978
 510  712.705
 511  620.171
 512  834.9702
 513  1023.429
 514  916.4363
 515  760.1891
 516  611.9875
 517  797.8233
 518  780.7219
 519  742.112
 520  724.5966
 521  679.5974
 522  760.3994
 523  736.7018
 524  673.7357
 525  640.0021
 526  654.5432
 527  777.1293
 528  849.1547
 529  806.7641
 530  929.7214
 531  997.7043
 532  918.0698
 533  833.8565
 534  823.2269
 535  791.7847
 536  807.1912
 537  700.448
 538  722.0807
 539  685.0453
 540  676.5042
 541  697.5615
 542  685.5735
 543  796.2872
 544  919.4465
 545  927.7702
 546  836.5374
 547  852.8022
 548  969.1096
 549  922.9309
 550  836.5002
 551  797.528
 552  874.5048
 553  884.123
 554  811.1683
 555  726.6454
 556  619.4619
 557  656.6423
 558  857.0902
 559  865.9214
 560  851.1639
 561  879.9483
 562  1027.539
 563  1231.449
 564  1052.895
 565  923.4978
 566  809.0209
 567  789.8317
 568  703.7862
 569  653.2869
 570  644.4778
 571  684.1407
 572  721.9325
 573  834.4442
 574  896.826
 575  754.0464
 576  804.5262
 577  939.5764
 578  1041.566
 579  1029.409
 580  1000.315
 581  898.1038
 582  829.6922
 583  677.2529
 584  759.6086
 585  702.8411
 586  621.6409
 587  781.6155
 588  788.4285
 589  712.088
 590  610.1923
 591  741.674
 592  879.5116
 593  785.8366
 594  781.0469
 595  1039.876
 596  1058.854
 597  897.9712
 598  764.8331
 599  779.3099
 600  857.694
 601  846.8975
 602  880.0102
 603  917.8861
 604  957.761
 605  976.813
 606  1045.646
 607  1018.573
 608  841.9639
 609  830.6679
 610  900.2773
 611  1086.942
 612  1025.025
 613  1001.639
 614  1042.896
 615  1071.532
 616  944.404
 617  882.6706
 618  780.3605
 619  815.7166
 620  812.5034
 621  876.524
 622  967.7128
 623  1040.328
 624  1126.855
 625  1133.384
 626  1069.289
 627  1160.725
 628  1272.271
 629  1309.043
 630  1310.43
 631  1405.734
 632  1494.322
 633  1573.831
 634  1495.278
 635  1452.229
 636  1482.751
 637  1373.527
 638  1285.23
 639  1059.857
 640  971.3649
 641  1027.28
 642  1055.058
 643  1014.515
 644  877.7822
 645  835.77
 646  969.1428
 647  1010.836
 648  921.0519
 649  748.0467
 650  641.4099
 651  704.557
 652  891.2579
 653  769.105
 654  846.1075
 655  804.1721
 656  855.6101
 657  804.2188
 658  785.3821
 659  917.5282
 660  987.2893
 661  1115.785
 662  960.8739
 663  812.7012
 664  654.8349
 665  964.4597
 666  995.2091
 667  1032.849
 668  792.3248
 669  819.6518
 670  930.6147
 671  918.8821
 672  857.0927
 673  791.6943
 674  772.6532
 675  761.4725
 676  719.2791
 677  723.9365
 678  755.9174
 679  820.6857
 680  813.1304
 681  880.6649
 682  747.6734
 683  719.92
 684  742.4139
 685  708.8262
 686  768.9998
 687  761.5499
 688  720.8104
 689  630.0827
 690  554.7309
 691  730.4537
 692  920.705
 693  990.3727
 694  893.5085
 695  884.2427
 696  939.5131
 697  937.3683
 698  741.3802
 699  476.0959
 700  475.4111
 701  687.3149
 702  872.8778
 703  871.6309
 704  691.7598
 705  694.1606
 706  881.4897
 707  974.0255
 708  1044.584
 709  997.7032
 710  1020.765
 711  965.9253
 712  868.3408
 713  818.7208
 714  828.3297
 715  813.0602
 716  823.6064
 717  814.4666
 718  793.8383
 719  774.6143
 720  782.1203
 721  791.119
 722  708.2058
 723  617.1707
 724  713.286
 725  930.1104
 726  956.2999
 727  943.7406
 728  1053.265
 729  1155.566
 730  1182.496
 731  888.5438
 732  806.7534
 733  644.5221
 734  715.6508
 735  945.05
 736  994.5993
 737  823.595
 738  729.4786
 739  789.6739
 740  1091.441
 741  1053.431
 742  1016.017
 743  988.9575
 744  1064.548
 745  1115.51
 746  948.3235
 747  870.9926
 748  756.6639
 749  827.816
 750  822.8477
 751  845.0677
 752  848.9725
 753  759.4297
 754  816.0109
 755  791.5331
 756  847.7942
 757  767.003
 758  672.5225
 759  691.6485
 760  702.5482
 761  807.1318
 762  915.2501
 763  861.8181
 764  856.3332
 765  913.6418
 766  905.7703
 767  823.2778
 768  655.3911
 769  687.2913
 770  765.017
 771  715.7884
 772  596.8438
 773  642.5565
 774  852.6655
 775  1059.372
 776  961.4637
 777  793.2897
 778  833.9572
 779  916.461
 780  951.9489
 781  829.1138
 782  628.8162
 783  619.4183
 784  772.6562
 785  925.5571
 786  923.2794
 787  955.1444
 788  957.5307
 789  1053.72
 790  801.5528
 791  645.9144
 792  622.7484
 793  731.336
 794  926.5019
 795  948.0887
 796  983.949
 797  897.7858
 798  964.3123
 799  960.3779
 800  855.4272
 801  673.7846
 802  696.7429
 803  881.9713
 804  965.8852
 805  930.6957
 806  790.2151
 807  904.7296
 808  954.2557
 809  909.4658
 810  807.3917
 811  780.5056
 812  820.3758
 813  819.8678
 814  707.2419
 815  741.4919
 816  828.3367
 817  999.8724
 818  1003.015
 819  982.7396
 820  1010.09
 821  999.2188
 822  922.5961
 823  819.0856
 824  754.0585
 825  682.0471
 826  706.1201
 827  747.0752
 828  758.1903
 829  698.0253
 830  768.6176
 831  867.4682
 832  924.2124
 833  774.606
 834  836.1184
 835  888.9869
 836  904.2304
 837  835.0688
 838  800.6476
 839  841.2593
 840  913.6727
 841  903.2615
 842  856.6775
 843  803.7906
 844  772.6885
 845  772.0687
 846  745.4202
 847  843.0758
 848  1014.48
 849  933.2732
 850  817.7801
 851  702.699
 852  655.1835
 853  757.4823
 854  792.3812
 855  898.4658
 856  943.6074
 857  1079.05
 858  1222.509
 859  1266.502
 860  1062.248
 861  967.2986
 862  895.8129
 863  936.6587
 864  743.5063
 865  569.1902
 866  591.2651
 867  722.1778
 868  827.0029
 869  663.0508
 870  557.6638
 871  450.2564
 872  583.2056
 873  769.9488
 874  840.8707
 875  845.5287
 876  712.3261
 877  755.3745
 878  872.8986
 879  783.8383
 880  840.2489
 881  732.9966
 882  666.2012
 883  493.9312
 884  467.3892
 885  608.1264
 886  714.3047
 887  759.6588
 888  897.4019
 889  775.2808
 890  736.5502
 891  696.5588
 892  863.3365
 893  901.8878
 894  905.1452
 895  940.5001
 896  881.8895
 897  786.8928
 898  558.5401
 899  632.8271
 900  660.8574
 901  806.7549
 902  880.6936
 903  847.7366
 904  930.0334
 905  860.522
 906  813.998
 907  678.4192
 908  629.9023
 909  709.0598
 910  850.0815
 911  836.5784
 912  897.0607
 913  759.0747
 914  748.9758
 915  634.3283
 916  727.1828
 917  858.1455
 918  915.9318
 919  886.6906
 920  801.8159
 921  937.2016
 922  908.193
 923  1021.978
 924  1005.417
 925  986.9163
 926  975.7742
 927  942.199
 928  1021.156
 929  842.1089
 930  695.7183
 931  779.438
 932  822.6806
 933  775.9645
 934  672.2266
 935  681.4416
 936  776.6292
 937  834.8425
 938  933.1849
 939  918.7201
 940  970.7531
 941  1037.712
 942  1151.79
 943  1061.844
 944  924.4841
 945  824.0189
 946  855.9802
 947  956.4437
 948  856.083
 949  764.5183
 950  782.2611
 951  860.6132
 952  823.8097
 953  730.9396
 954  667.2614
 955  831.6067
 956  868.8708
 957  745.0447
 958  766.1022
 959  882.9644
 960  973.3998
 961  895.4264
 962  869.3816
 963  927.2987
 964  1008.114
 965  889.8889
 966  852.2976
 967  691.0444
 968  669.8306
 969  581.0457
 970  622.4266
 971  747.7106
 972  720.7006
 973  703.8148
 974  862.9355
 975  816.2192
 976  736.6963
 977  794.4724
 978  950.0452
 979  1010.113
 980  978.2094
 981  988.5335
 982  963.4073
 983  839.2591
 984  810.4974
 985  799.9979
 986  740.0129
 987  802.5693
 988  889.6034
 989  943.3956
 990  909.7397
 991  933.8837
 992  925.5518
 993  918.0324
 994  883.939
 995  870.3513
 996  858.0668
 997  772.5055
 998  777.1371
 999  691.5066
1000  719.7975
1001  876.9938
1002  996.7226
1003  977.119
1004  1012.981
1005  1034.545
1006  1093.435
1007  1106.898
1008  1016.299
1009  1030.188
1010  929.2147
1011  953.1942
1012  928.1349
1013  979.0306
1014  1003.658
1015  922.1185
1016  883.9335
1017  855.2918
1018  864.814
1019  860.3196
1020  993.886
1021  927.6378
1022  785.0659
1023  855.8031
