# Input file       =  1194654907.104029_cleaned.dat
# Candidate        =  PSR_0332+5434
# Telescope        =  AR
# Epoch_topo       =  58071.024607685518
# Epoch_bary       =  N/A
# T_sample         =  0.002
# Data Folded      =  7340032
# Data Avg         =  -0.190551401429861
# Data StdDev      =  4.93775522455209 
# Profile Bins     =  1024
# Profile Avg      =  -1365.96473154048
# Profile StdDev   =  418.050315490391 
# Reduced chi-sqr  =  0.560
# Prob(Noise)      <  1   (~0.0 sigma)
# P_topo (ms)      =  714.508545790186  +/- 0.000858
# P'_topo (s/s)    =  -0                +/- 4.53e-10
# P''_topo (s/s^2) =  0                 +/- 2e-13
# P_bary (ms)      =  N/A
# P'_bary (s/s)    =  N/A
# P''_bary (s/s^2) =  N/A
# P_orb (s)        =  N/A
# asin(i)/c (s)    =  N/A
# eccentricity     =  N/A
# w (rad)          =  N/A
# T_peri           =  N/A
######################################################
   0  -1439.08
   1  -1402.339
   2  -1332.712
   3  -1378.283
   4  -1269.331
   5  -1338.656
   6  -1359.692
   7  -1437.357
   8  -1502.402
   9  -1332.146
  10  -1249.885
  11  -1139.722
  12  -1142.758
  13  -1161.187
  14  -1216.704
  15  -1352.207
  16  -1418.55
  17  -1512.12
  18  -1564.708
  19  -1356.19
  20  -1329.167
  21  -1267.247
  22  -1432.182
  23  -1323.705
  24  -1171.506
  25  -1305.956
  26  -1187.488
  27  -1152.485
  28  -1146.169
  29  -1376.974
  30  -1497.41
  31  -1439.936
  32  -1531.662
  33  -1316.661
  34  -1225.233
  35  -1176.205
  36  -1344.03
  37  -1416.99
  38  -1322.329
  39  -1327.951
  40  -1345.195
  41  -1440.576
  42  -1628.594
  43  -1562.193
  44  -1494.732
  45  -1455.467
  46  -1458.534
  47  -1475.141
  48  -1343.289
  49  -1237.275
  50  -1289.088
  51  -1299.817
  52  -1433.033
  53  -1433.59
  54  -1359.601
  55  -1473.223
  56  -1500.618
  57  -1609.225
  58  -1476.642
  59  -1362.514
  60  -1291.223
  61  -1229.202
  62  -1320.367
  63  -1327.242
  64  -1292.438
  65  -1329.91
  66  -1207.429
  67  -1224.095
  68  -1227.844
  69  -1338.768
  70  -1374.467
  71  -1303.047
  72  -1273.206
  73  -1277.476
  74  -1333.958
  75  -1431.771
  76  -1331.642
  77  -1232.139
  78  -1222.641
  79  -1450.061
  80  -1410.828
  81  -1301.585
  82  -1253.897
  83  -1336.489
  84  -1323.452
  85  -1348.417
  86  -1615.294
  87  -1663.59
  88  -1444.436
  89  -1312.831
  90  -1378.954
  91  -1435.648
  92  -1340.906
  93  -1366.353
  94  -1497.769
  95  -1427.291
  96  -1432.599
  97  -1349.928
  98  -1226.062
  99  -1101.755
 100  -1173.966
 101  -1333.944
 102  -1346.478
 103  -1281.169
 104  -1372.122
 105  -1315.964
 106  -1441.98
 107  -1396.478
 108  -1388.365
 109  -1321.634
 110  -1216.113
 111  -1305.838
 112  -1401.569
 113  -1306.425
 114  -1252.002
 115  -1134.754
 116  -1226.15
 117  -1263.72
 118  -1291.741
 119  -1227.606
 120  -1123.872
 121  -1108.475
 122  -1169.697
 123  -1155.261
 124  -1204.082
 125  -1266.169
 126  -1272.013
 127  -1183.652
 128  -1136.931
 129  -1240.823
 130  -1231.567
 131  -1170.567
 132  -1040.192
 133  -1089.894
 134  -1089.55
 135  -1087.25
 136  -1212.489
 137  -1331.273
 138  -1568.49
 139  -1670.708
 140  -1723.113
 141  -1549.548
 142  -1526.624
 143  -1540.335
 144  -1551.383
 145  -1321.208
 146  -1093.86
 147  -1138.083
 148  -1153.566
 149  -1093.895
 150  -933.8952
 151  -948.6874
 152  -1193.393
 153  -1395.619
 154  -1521.807
 155  -1488.281
 156  -1504.536
 157  -1581.615
 158  -1422.281
 159  -1194.514
 160  -937.6407
 161  -1078.886
 162  -1068.033
 163  -1156.385
 164  -1065.471
 165  -1165.112
 166  -1213.543
 167  -1282.528
 168  -1399.054
 169  -1355.522
 170  -1382.008
 171  -1279.719
 172  -1306.439
 173  -1381.636
 174  -1469.371
 175  -1540.811
 176  -1458.909
 177  -1491.837
 178  -1305.447
 179  -1309.415
 180  -1123.795
 181  -1170.988
 182  -1213.965
 183  -1413.04
 184  -1478.895
 185  -1431.912
 186  -1265.667
 187  -1224.486
 188  -1321.155
 189  -1449.792
 190  -1313.675
 191  -1259.663
 192  -1321.426
 193  -1386.426
 194  -1260.796
 195  -1195.72
 196  -1129.437
 197  -1123.846
 198  -1043.7
 199  -1042.011
 200  -1088.269
 201  -1227.824
 202  -1334.881
 203  -1385.489
 204  -1218.781
 205  -1151.219
 206  -1148.291
 207  -1235.87
 208  -1256.573
 209  -1255.011
 210  -1276.345
 211  -1346.742
 212  -1358.269
 213  -1466.526
 214  -1389.723
 215  -1340.036
 216  -1289.057
 217  -1351.348
 218  -1333.986
 219  -1318.409
 220  -1317.741
 221  -1504.514
 222  -1569.589
 223  -1584.803
 224  -1523.271
 225  -1321.204
 226  -1263.854
 227  -1272.129
 228  -1445.653
 229  -1406.982
 230  -1455.674
 231  -1508.82
 232  -1372.294
 233  -1328.751
 234  -1333.909
 235  -1422.637
 236  -1402.391
 237  -1360.106
 238  -1410.731
 239  -1377.765
 240  -1461.386
 241  -1370.701
 242  -1420.048
 243  -1370.802
 244  -1389.702
 245  -1339.95
 246  -1337.171
 247  -1280.436
 248  -1201.755
 249  -1154.551
 250  -1103.282
 251  -1035.422
 252  -1021.595
 253  -1151.829
 254  -1371.635
 255  -1485.905
 256  -1435.244
 257  -1306.455
 258  -1240.792
 259  -1246.203
 260  -1319.913
 261  -1393.05
 262  -1438.361
 263  -1411.49
 264  -1373.612
 265  -1375.789
 266  -1337.079
 267  -1365.505
 268  -1342.44
 269  -1383.138
 270  -1385.275
 271  -1468.197
 272  -1543.348
 273  -1582.592
 274  -1460.201
 275  -1373.785
 276  -1375.885
 277  -1424.493
 278  -1595.33
 279  -1618.923
 280  -1615.594
 281  -1466.932
 282  -1463.93
 283  -1331.58
 284  -1223.352
 285  -1231.113
 286  -1388.584
 287  -1409.225
 288  -1378.01
 289  -1487.62
 290  -1675.444
 291  -1585.949
 292  -1491.047
 293  -1478.45
 294  -1628.784
 295  -1595.961
 296  -1434.523
 297  -1389.186
 298  -1368.625
 299  -1519.679
 300  -1584.605
 301  -1655.415
 302  -1702.024
 303  -1691.377
 304  -1736.406
 305  -1657.272
 306  -1621.88
 307  -1572.186
 308  -1632.112
 309  -1598.638
 310  -1500.069
 311  -1552.103
 312  -1623.031
 313  -1601.656
 314  -1608.058
 315  -1565.514
 316  -1750.584
 317  -1727.269
 318  -1721.557
 319  -1551.823
 320  -1564.662
 321  -1638.722
 322  -1644.255
 323  -1789.456
 324  -1866.345
 325  -1820.664
 326  -1720.115
 327  -1701.49
 328  -1567.457
 329  -1436.859
 330  -1289.381
 331  -1482.355
 332  -1581.252
 333  -1615.37
 334  -1480.43
 335  -1427.808
 336  -1443.233
 337  -1375.428
 338  -1346.231
 339  -1277.83
 340  -1424.431
 341  -1550.92
 342  -1618.576
 343  -1459.071
 344  -1364.369
 345  -1273.025
 346  -1328.61
 347  -1232.608
 348  -1235.373
 349  -1205.676
 350  -1217.433
 351  -1298.048
 352  -1400.575
 353  -1473.154
 354  -1383.846
 355  -1218.8
 356  -1088.5
 357  -1091.219
 358  -1091.184
 359  -1173.726
 360  -1178.713
 361  -1053.998
 362  -1235.372
 363  -1236.473
 364  -1236.869
 365  -1209.608
 366  -1314.398
 367  -1341.983
 368  -1323.826
 369  -1440.815
 370  -1437.064
 371  -1290.755
 372  -1291.492
 373  -1342.847
 374  -1418.521
 375  -1263.324
 376  -1224.998
 377  -1209.404
 378  -1222.292
 379  -1193.441
 380  -1151.447
 381  -1109.872
 382  -1087.278
 383  -1037.58
 384  -1136.566
 385  -1235.916
 386  -1218.491
 387  -1325.426
 388  -1423.339
 389  -1523.155
 390  -1520.851
 391  -1466.75
 392  -1455.919
 393  -1410.508
 394  -1519.848
 395  -1493.097
 396  -1597.607
 397  -1615.396
 398  -1530.329
 399  -1527.38
 400  -1373.001
 401  -1312.052
 402  -1096.9
 403  -1008.431
 404  -1186.75
 405  -1316.02
 406  -1476.818
 407  -1474.864
 408  -1538.356
 409  -1633.773
 410  -1466.862
 411  -1397.018
 412  -1328.993
 413  -1416.907
 414  -1472.843
 415  -1372.694
 416  -1267.165
 417  -1222.387
 418  -1291.235
 419  -1351.665
 420  -1277.707
 421  -1216.828
 422  -1228.619
 423  -1198.537
 424  -1372.922
 425  -1404.366
 426  -1434.839
 427  -1214.778
 428  -1252.733
 429  -1387.203
 430  -1403.14
 431  -1236.955
 432  -1056.119
 433  -1069.36
 434  -1281.403
 435  -1373.748
 436  -1372.562
 437  -1291.291
 438  -1324.977
 439  -1434.471
 440  -1463.878
 441  -1550.332
 442  -1562.605
 443  -1574.461
 444  -1477.621
 445  -1382.591
 446  -1434.52
 447  -1490.29
 448  -1573.286
 449  -1375.575
 450  -1362.871
 451  -1294.011
 452  -1436.201
 453  -1596.375
 454  -1617.767
 455  -1688.24
 456  -1651.588
 457  -1759.613
 458  -1580.225
 459  -1553.758
 460  -1484.989
 461  -1557.45
 462  -1477.152
 463  -1391.723
 464  -1425.873
 465  -1504.917
 466  -1584.901
 467  -1547.032
 468  -1549.305
 469  -1486.086
 470  -1441.924
 471  -1328.005
 472  -1330.163
 473  -1413.87
 474  -1576.482
 475  -1719.41
 476  -1787.762
 477  -1655.953
 478  -1466.636
 479  -1281.888
 480  -1364.441
 481  -1459.331
 482  -1613.087
 483  -1701.014
 484  -1646.06
 485  -1622.898
 486  -1552.114
 487  -1456.287
 488  -1496.265
 489  -1282.671
 490  -1269.545
 491  -1263.597
 492  -1507.733
 493  -1478.453
 494  -1536.727
 495  -1613.342
 496  -1668.425
 497  -1503.931
 498  -1345.406
 499  -1147.88
 500  -1137.107
 501  -1185.991
 502  -1252.934
 503  -1362.428
 504  -1395.158
 505  -1434.167
 506  -1440.967
 507  -1309.959
 508  -1335.749
 509  -1364.267
 510  -1355.724
 511  -1303.961
 512  -1270.025
 513  -1363.915
 514  -1353.778
 515  -1386.459
 516  -1391.882
 517  -1418.725
 518  -1434.27
 519  -1485.899
 520  -1473.102
 521  -1422.878
 522  -1391.58
 523  -1367.82
 524  -1540.941
 525  -1727.828
 526  -1897.547
 527  -1815.853
 528  -1680.623
 529  -1701.36
 530  -1647.737
 531  -1563.325
 532  -1458.79
 533  -1508.537
 534  -1496.879
 535  -1505.109
 536  -1596.88
 537  -1626.87
 538  -1584.667
 539  -1581.837
 540  -1690.694
 541  -1604.591
 542  -1650.136
 543  -1541.245
 544  -1596.96
 545  -1548.736
 546  -1503.904
 547  -1393.377
 548  -1401.169
 549  -1389.91
 550  -1429.966
 551  -1408.006
 552  -1482.605
 553  -1567.086
 554  -1584.196
 555  -1496.622
 556  -1470.263
 557  -1477.087
 558  -1571.521
 559  -1518.044
 560  -1623.482
 561  -1764.762
 562  -1749.985
 563  -1466.684
 564  -1309.623
 565  -1269.207
 566  -1487.876
 567  -1397.178
 568  -1417.951
 569  -1329.387
 570  -1310.188
 571  -1280.929
 572  -1270.889
 573  -1350.624
 574  -1465.079
 575  -1415.596
 576  -1326.752
 577  -1420.959
 578  -1491.411
 579  -1482.502
 580  -1310.553
 581  -1242.209
 582  -1155.929
 583  -1187.487
 584  -1405.941
 585  -1626.353
 586  -1608.17
 587  -1532.612
 588  -1594.261
 589  -1583.993
 590  -1408.562
 591  -1443.909
 592  -1367.742
 593  -1348.07
 594  -1108.521
 595  -1204.543
 596  -1212.624
 597  -1278.01
 598  -1120.051
 599  -1118.198
 600  -1056.153
 601  -1172.969
 602  -1211.666
 603  -1246.785
 604  -1186.466
 605  -1134.591
 606  -1279.95
 607  -1390.884
 608  -1452.076
 609  -1385.578
 610  -1443.623
 611  -1494.594
 612  -1444.083
 613  -1452.991
 614  -1547.379
 615  -1566.523
 616  -1352.206
 617  -1134.36
 618  -1088.617
 619  -1165.8
 620  -1321.669
 621  -1328.752
 622  -1211.112
 623  -1079.256
 624  -1074.707
 625  -942.6611
 626  -934.9532
 627  -931.4109
 628  -1104.599
 629  -1006.382
 630  -1018.703
 631  -847.4003
 632  -838.8629
 633  -966.3544
 634  -1129.63
 635  -1162.081
 636  -1238.103
 637  -1376.262
 638  -1670.604
 639  -1739.601
 640  -1803.907
 641  -1638.491
 642  -1690.707
 643  -1669.095
 644  -1679.254
 645  -1516.55
 646  -1460.803
 647  -1362.947
 648  -1464.007
 649  -1581.468
 650  -1635.619
 651  -1414.231
 652  -1323.66
 653  -1141.451
 654  -1169.26
 655  -1301.51
 656  -1450.498
 657  -1486.755
 658  -1334.881
 659  -1324.158
 660  -1390.253
 661  -1352.226
 662  -1318.169
 663  -1303.543
 664  -1255.943
 665  -1192.311
 666  -1245.045
 667  -1429.14
 668  -1516.755
 669  -1467.247
 670  -1518.163
 671  -1580.926
 672  -1575.127
 673  -1459.13
 674  -1514.561
 675  -1651.949
 676  -1625.877
 677  -1521.396
 678  -1388.485
 679  -1199.398
 680  -1130.849
 681  -1126.968
 682  -1247.921
 683  -1292.183
 684  -1290.929
 685  -1362.776
 686  -1440.627
 687  -1552.108
 688  -1609.72
 689  -1526.919
 690  -1433.67
 691  -1313.698
 692  -1361.06
 693  -1376.179
 694  -1398.511
 695  -1399.825
 696  -1377.811
 697  -1354.764
 698  -1271.214
 699  -1182.175
 700  -1204.376
 701  -1350.112
 702  -1455.925
 703  -1624.841
 704  -1642.719
 705  -1526.386
 706  -1386.414
 707  -1467.098
 708  -1595.826
 709  -1501.182
 710  -1337.02
 711  -1226.191
 712  -1225.876
 713  -1183.189
 714  -1153.812
 715  -1212.199
 716  -1205.87
 717  -1230.969
 718  -1161.367
 719  -1349.148
 720  -1424.078
 721  -1463.699
 722  -1386.385
 723  -1381.067
 724  -1363.263
 725  -1359.103
 726  -1384.381
 727  -1660.904
 728  -1633.817
 729  -1528.13
 730  -1396.594
 731  -1270.938
 732  -1275.535
 733  -1231.036
 734  -1314.328
 735  -1426.296
 736  -1482.396
 737  -1500.492
 738  -1447.105
 739  -1394.908
 740  -1455.515
 741  -1430.84
 742  -1448.743
 743  -1372.787
 744  -1434.895
 745  -1477.358
 746  -1373.67
 747  -1181.761
 748  -1175.728
 749  -1263.29
 750  -1384.385
 751  -1264.871
 752  -1236.085
 753  -1237.9
 754  -1442.884
 755  -1528.008
 756  -1411.155
 757  -1201.427
 758  -1197.172
 759  -1223.398
 760  -1192.307
 761  -1148.059
 762  -1242.991
 763  -1351.665
 764  -1450.402
 765  -1516.944
 766  -1444.465
 767  -1373.179
 768  -1242.076
 769  -1286.639
 770  -1430.513
 771  -1545.066
 772  -1469.596
 773  -1393.726
 774  -1405.75
 775  -1407.365
 776  -1402.212
 777  -1372.914
 778  -1482.145
 779  -1425.038
 780  -1418.924
 781  -1305.079
 782  -1135.372
 783  -1031.761
 784  -1100.195
 785  -1089.303
 786  -1138.758
 787  -1097.315
 788  -1199.711
 789  -1179.657
 790  -1274.506
 791  -1287.569
 792  -1231.232
 793  -1268.113
 794  -1332.242
 795  -1357.313
 796  -1300.511
 797  -1179.138
 798  -1166.379
 799  -1147.769
 800  -1186.924
 801  -1096.85
 802  -1166.025
 803  -1371.962
 804  -1418.809
 805  -1425.522
 806  -1275.63
 807  -1238.572
 808  -1174.14
 809  -1069.468
 810  -1084.633
 811  -1113.841
 812  -1248.765
 813  -1242.349
 814  -1233.376
 815  -1168.223
 816  -1197.501
 817  -1218.253
 818  -1223.43
 819  -1350.266
 820  -1181.711
 821  -1069.436
 822  -1004.233
 823  -1199.688
 824  -1316.761
 825  -1243.256
 826  -1057.716
 827  -986.3454
 828  -904.937
 829  -1007.234
 830  -1010.489
 831  -1206.671
 832  -1234.747
 833  -1371.724
 834  -1375.994
 835  -1437.176
 836  -1378.867
 837  -1520.798
 838  -1460.082
 839  -1278.661
 840  -1120.418
 841  -1066.889
 842  -1017.938
 843  -960.1354
 844  -885.1144
 845  -929.6896
 846  -963.5525
 847  -1018.93
 848  -1183.71
 849  -1268.833
 850  -1199.017
 851  -1211.499
 852  -1245.034
 853  -1178.643
 854  -1086.365
 855  -1082.481
 856  -1130.908
 857  -1066.066
 858  -1090.905
 859  -1093.51
 860  -1083.206
 861  -1034.551
 862  -1078.401
 863  -1139.241
 864  -1163.775
 865  -1164.841
 866  -1267.24
 867  -1314.282
 868  -1242.42
 869  -1099.595
 870  -1042.767
 871  -1062.699
 872  -1094.797
 873  -1156.552
 874  -1314.982
 875  -1514.972
 876  -1605.208
 877  -1483.776
 878  -1396.115
 879  -1327.929
 880  -1346.02
 881  -1466.434
 882  -1471.778
 883  -1361.927
 884  -1218.83
 885  -1238.186
 886  -1362.94
 887  -1347.356
 888  -1403.491
 889  -1437.196
 890  -1308.733
 891  -1180.374
 892  -1191.568
 893  -1447.16
 894  -1550.323
 895  -1584.388
 896  -1518.746
 897  -1571.392
 898  -1509.204
 899  -1515.364
 900  -1524.587
 901  -1589.769
 902  -1544.501
 903  -1412.892
 904  -1325.475
 905  -1436.062
 906  -1517.732
 907  -1610.475
 908  -1538.994
 909  -1352.091
 910  -1237.87
 911  -1141.27
 912  -1197.362
 913  -1125.424
 914  -1213.923
 915  -1104.457
 916  -1231.399
 917  -1339.85
 918  -1412.692
 919  -1466.025
 920  -1399.161
 921  -1487.297
 922  -1432.174
 923  -1537.319
 924  -1580.406
 925  -1621.091
 926  -1477.914
 927  -1476.288
 928  -1393.047
 929  -1366.769
 930  -1347.433
 931  -1405.323
 932  -1412.449
 933  -1314.662
 934  -1347.587
 935  -1361.51
 936  -1371.65
 937  -1413.529
 938  -1401.362
 939  -1299.97
 940  -1191.969
 941  -1302.56
 942  -1405.129
 943  -1291.339
 944  -1098.393
 945  -1168.185
 946  -1396.881
 947  -1589.13
 948  -1565.562
 949  -1443.812
 950  -1330.682
 951  -1187.341
 952  -1124.664
 953  -1044.381
 954  -1092.721
 955  -1224.432
 956  -1363.564
 957  -1422.991
 958  -1268.833
 959  -1288.376
 960  -1418.568
 961  -1435.845
 962  -1426.159
 963  -1337.489
 964  -1486.839
 965  -1370.229
 966  -1278.792
 967  -1203.74
 968  -1251.476
 969  -1186.822
 970  -1266.021
 971  -1384.235
 972  -1540.19
 973  -1486.304
 974  -1460.256
 975  -1508.123
 976  -1526.44
 977  -1624.177
 978  -1583.203
 979  -1656.882
 980  -1490.515
 981  -1430.384
 982  -1395.641
 983  -1460.826
 984  -1456.635
 985  -1501.876
 986  -1636.644
 987  -1635.739
 988  -1601.452
 989  -1607.269
 990  -1762.18
 991  -1704.988
 992  -1644.133
 993  -1675.491
 994  -1635.431
 995  -1630.675
 996  -1542.266
 997  -1487.309
 998  -1364.321
 999  -1461.319
1000  -1489.426
1001  -1628.382
1002  -1437.331
1003  -1602.24
1004  -1710.124
1005  -1785.626
1006  -1658.772
1007  -1517.669
1008  -1433.091
1009  -1366.564
1010  -1417.12
1011  -1451.913
1012  -1539.691
1013  -1559.043
1014  -1639.595
1015  -1586.124
1016  -1513.746
1017  -1402.421
1018  -1313.736
1019  -1300.069
1020  -1301.486
1021  -1209.677
1022  -1313.562
1023  -1389.791
