# Input file       =  1194899111.10159_cleaned.dat
# Candidate        =  PSR_0332+5434
# Telescope        =  AR
# Epoch_topo       =  58073.851042842478
# Epoch_bary       =  N/A
# T_sample         =  0.002
# Data Folded      =  7340032
# Data Avg         =  0.0567371421896635
# Data StdDev      =  1.00042522969732 
# Profile Bins     =  512
# Profile Avg      =  813.376547930662 
# Profile StdDev   =  119.783950419584 
# Reduced chi-sqr  =  0.859
# Prob(Noise)      <  0.99   (~0.0 sigma)
# P_topo (ms)      =  714.511081748073  +/- 0.000175
# P'_topo (s/s)    =  -0                +/- 9.23e-11
# P''_topo (s/s^2) =  0                 +/- 4.07e-14
# P_bary (ms)      =  N/A
# P'_bary (s/s)    =  N/A
# P''_bary (s/s^2) =  N/A
# P_orb (s)        =  N/A
# asin(i)/c (s)    =  N/A
# eccentricity     =  N/A
# w (rad)          =  N/A
# T_peri           =  N/A
######################################################
   0  925.4724
   1  895.6514
   2  904.5216
   3  819.5626
   4  866.0931
   5  820.9286
   6  723.3269
   7  882.6196
   8  899.744
   9  880.5498
  10  855.6743
  11  795.657
  12  927.2814
  13  907.7302
  14  924.9666
  15  836.1943
  16  838.296
  17  791.3085
  18  815.454
  19  767.2589
  20  807.8996
  21  823.2607
  22  893.0972
  23  861.0769
  24  865.1047
  25  799.517
  26  878.3267
  27  750.8806
  28  839.298
  29  861.5075
  30  805.5132
  31  755.7294
  32  834.9824
  33  890.1489
  34  828.6757
  35  816.9581
  36  871.6137
  37  848.2363
  38  818.5603
  39  746.4684
  40  807.3442
  41  855.2883
  42  841.1144
  43  762.6101
  44  780.5004
  45  730.8419
  46  840.8245
  47  832.8823
  48  842.4176
  49  780.3613
  50  752.9726
  51  909.2267
  52  1055.515
  53  872.9141
  54  846.9246
  55  792.0253
  56  808.5049
  57  883.1033
  58  827.6475
  59  729.7646
  60  765.6696
  61  862.4829
  62  822.1006
  63  788.2293
  64  748.4697
  65  816.5236
  66  877.3413
  67  875.6704
  68  787.4504
  69  785.1505
  70  894.2704
  71  920.7878
  72  809.8193
  73  817.6202
  74  750.6081
  75  700.2086
  76  800.951
  77  760.8074
  78  808.7975
  79  850.883
  80  830.3464
  81  830.4617
  82  908.4859
  83  777.3002
  84  753.5413
  85  893.5824
  86  863.9761
  87  806.3495
  88  825.3777
  89  868.6522
  90  844.4185
  91  845.3917
  92  805.1051
  93  785.994
  94  781.2395
  95  753.6713
  96  757.3026
  97  859.5414
  98  832.5618
  99  800.4122
 100  823.2715
 101  817.5386
 102  741.3875
 103  841.3062
 104  856.0902
 105  777.0299
 106  773.7796
 107  798.7755
 108  801.0806
 109  666.1318
 110  778.4321
 111  819.3391
 112  794.664
 113  828.1399
 114  960.5135
 115  977.3998
 116  872.1282
 117  861.5483
 118  920.4183
 119  920.8628
 120  877.0515
 121  915.9669
 122  858.9516
 123  830.2227
 124  943.0206
 125  964.3817
 126  904.0647
 127  871.748
 128  872.8954
 129  1012.468
 130  1130.432
 131  1167.355
 132  1142.87
 133  1170.597
 134  1097.992
 135  957.3107
 136  871.8092
 137  716.6952
 138  749.9707
 139  754.3475
 140  810.5826
 141  896.6509
 142  841.5626
 143  842.3552
 144  744.3677
 145  843.8721
 146  880.103
 147  880.9449
 148  934.6309
 149  940.8909
 150  887.1614
 151  913.3773
 152  851.4443
 153  861.6471
 154  874.8701
 155  959.0698
 156  858.2704
 157  735.6232
 158  773.0805
 159  735.7626
 160  670.5795
 161  696.19
 162  790.2686
 163  803.1182
 164  805.9346
 165  759.9643
 166  700.8727
 167  725.5211
 168  810.045
 169  824.4281
 170  846.2441
 171  771.2123
 172  798.0569
 173  847.8953
 174  871.5704
 175  752.8943
 176  708.7822
 177  856.0029
 178  838.7957
 179  764.2979
 180  773.0392
 181  779.1508
 182  786.194
 183  814.4708
 184  737.3352
 185  790.4183
 186  866.4316
 187  788.4399
 188  679.1166
 189  646.1816
 190  715.7325
 191  863.2802
 192  785.4623
 193  844.5916
 194  932.417
 195  810.6237
 196  800.8409
 197  781.9456
 198  741.3976
 199  692.8071
 200  812.6629
 201  978.986
 202  881.7967
 203  794.0696
 204  758.8544
 205  737.6364
 206  704.9997
 207  743.9256
 208  824.3625
 209  822.8249
 210  714.2865
 211  724.6943
 212  777.3754
 213  879.2275
 214  887.7166
 215  855.1745
 216  836.8015
 217  779.9258
 218  797.5581
 219  831.8344
 220  824.8202
 221  804.0724
 222  794.1097
 223  721.5355
 224  739.5587
 225  645.1451
 226  697.3074
 227  735.36
 228  681.3679
 229  785.2774
 230  851.5068
 231  821.0184
 232  766.5822
 233  728.8828
 234  778.8722
 235  725.8694
 236  736.1216
 237  755.3776
 238  684.3518
 239  715.9686
 240  822.8933
 241  780.8224
 242  778.6258
 243  769.7252
 244  780.1716
 245  813.5692
 246  860.9495
 247  818.7903
 248  680.0134
 249  738.1328
 250  793.1589
 251  793.0587
 252  831.1985
 253  722.8346
 254  780.5773
 255  784.3591
 256  778.4484
 257  866.9199
 258  891.0145
 259  773.0257
 260  694.9389
 261  759.9092
 262  829.8851
 263  738.4949
 264  717.4059
 265  738.7996
 266  760.29
 267  715.1387
 268  687.6362
 269  796.15
 270  881.6545
 271  794.6475
 272  802.092
 273  765.6738
 274  716.593
 275  665.3462
 276  674.4074
 277  707.1606
 278  793.9683
 279  791.5443
 280  830.6521
 281  882.1639
 282  772.1723
 283  704.4716
 284  732.9137
 285  654.6817
 286  836.629
 287  888.5082
 288  873.1631
 289  850.2097
 290  870.4561
 291  745.9285
 292  631.4431
 293  739.718
 294  964.16
 295  888.8411
 296  730.3136
 297  774.0275
 298  788.3582
 299  792.2656
 300  737.0365
 301  759.8489
 302  757.5894
 303  701.2639
 304  606.151
 305  702.5108
 306  699.12
 307  675.5516
 308  829.0774
 309  829.6921
 310  871.4525
 311  745.9427
 312  739.6749
 313  802.9027
 314  797.8682
 315  809.4244
 316  778.676
 317  653.6972
 318  653.9349
 319  663.7988
 320  731.3192
 321  834.1998
 322  814.4761
 323  686.321
 324  761.7275
 325  784.7913
 326  722.2762
 327  741.0099
 328  775.748
 329  823.6263
 330  792.2449
 331  755.8809
 332  782.0229
 333  712.9147
 334  767.822
 335  817.9809
 336  768.5146
 337  818.8929
 338  838.2444
 339  781.7376
 340  814.9315
 341  817.6201
 342  663.9456
 343  713.633
 344  794.2111
 345  823.5028
 346  830.0768
 347  861.7266
 348  762.575
 349  776.9186
 350  791.2001
 351  792.0005
 352  774.1024
 353  768.0965
 354  829.5869
 355  902.3747
 356  833.702
 357  721.438
 358  791.6955
 359  913.7511
 360  858.9221
 361  902.5063
 362  902.5553
 363  777.79
 364  714.3961
 365  706.9853
 366  818.1595
 367  847.9905
 368  942.388
 369  975.4464
 370  807.9921
 371  888.5935
 372  863.0021
 373  759.6288
 374  710.8176
 375  702.071
 376  734.7635
 377  759.4092
 378  696.9907
 379  730.2369
 380  668.3192
 381  808.1276
 382  817.8382
 383  828.6777
 384  872.3632
 385  823.9964
 386  825.4572
 387  729.5978
 388  838.7036
 389  801.062
 390  888.5395
 391  958.9064
 392  887.7151
 393  853.6985
 394  841.5314
 395  896.6708
 396  897.9534
 397  906.6821
 398  949.6652
 399  818.179
 400  795.4559
 401  813.3365
 402  822.7678
 403  786.402
 404  928.1996
 405  940.0922
 406  826.1156
 407  793.9959
 408  848.6152
 409  961.1254
 410  983.8267
 411  845.3372
 412  828.5012
 413  747.7757
 414  780.1709
 415  868.9888
 416  830.1689
 417  753.2464
 418  784.4074
 419  823.6608
 420  799.7005
 421  771.6301
 422  874.304
 423  905.1852
 424  685.3867
 425  716.9413
 426  844.043
 427  766.1717
 428  812.6962
 429  775.216
 430  669.7444
 431  667.2592
 432  751.2173
 433  721.8245
 434  780.8539
 435  930.5374
 436  869.1165
 437  864.7479
 438  813.0376
 439  805.1678
 440  877.2438
 441  884.2248
 442  966.7353
 443  858.4569
 444  760.8605
 445  754.9055
 446  735.9769
 447  820.9396
 448  822.426
 449  828.4732
 450  782.9889
 451  878.9451
 452  823.0418
 453  879.9196
 454  827.061
 455  775.8506
 456  830.6605
 457  691.6251
 458  839.5967
 459  936.2225
 460  836.7625
 461  837.3489
 462  872.3038
 463  868.9219
 464  999.1912
 465  868.6894
 466  871.0289
 467  1013.62
 468  909.4514
 469  860.5109
 470  897.6177
 471  954.1481
 472  878.243
 473  809.6672
 474  703.1307
 475  708.9119
 476  876.6996
 477  1000.157
 478  1011.978
 479  970.0258
 480  827.8466
 481  783.3326
 482  765.17
 483  880.8689
 484  917.2519
 485  812.127
 486  810.4041
 487  927.1882
 488  805.3663
 489  782.0775
 490  761.1194
 491  753.3265
 492  833.4069
 493  746.9941
 494  709.6104
 495  721.9653
 496  738.8232
 497  661.828
 498  646.0016
 499  642.3525
 500  815.8738
 501  852.1158
 502  866.4471
 503  820.5598
 504  772.3097
 505  876.2933
 506  882.2355
 507  771.7542
 508  819.2369
 509  820.3867
 510  860.9266
 511  880.4661
