# Input file       =  1194640006.109184_cleaned.dat
# Candidate        =  PSR_0332+5434
# Telescope        =  AR
# Epoch_topo       =  58070.852142467411
# Epoch_bary       =  N/A
# T_sample         =  0.002
# Data Folded      =  7340032
# Data Avg         =  0.11744155134407 
# Data StdDev      =  3.85620203070173 
# Profile Bins     =  1024
# Profile Avg      =  842.19776346645  
# Profile StdDev   =  326.481650510689 
# Reduced chi-sqr  =  0.594
# Prob(Noise)      <  1   (~0.0 sigma)
# P_topo (ms)      =  714.508040128517  +/- 0.000347
# P'_topo (s/s)    =  -0                +/- 1.83e-10
# P''_topo (s/s^2) =  0                 +/- 8.09e-14
# P_bary (ms)      =  N/A
# P'_bary (s/s)    =  N/A
# P''_bary (s/s^2) =  N/A
# P_orb (s)        =  N/A
# asin(i)/c (s)    =  N/A
# eccentricity     =  N/A
# w (rad)          =  N/A
# T_peri           =  N/A
######################################################
   0  723.412
   1  677.8063
   2  700.1621
   3  778.9952
   4  865.7927
   5  833.0187
   6  852.0892
   7  706.3142
   8  685.3441
   9  665.5879
  10  792.6779
  11  842.0151
  12  790.4629
  13  716.6371
  14  689.373
  15  685.438
  16  842.9418
  17  840.1185
  18  778.5459
  19  754.2216
  20  811.0663
  21  907.0466
  22  924.0453
  23  829.2858
  24  812.7255
  25  689.6525
  26  767.5781
  27  697.9084
  28  703.7417
  29  719.1956
  30  783.3913
  31  902.0559
  32  838.8404
  33  788.8795
  34  742.775
  35  826.4556
  36  836.5435
  37  754.187
  38  656.9733
  39  632.2679
  40  606.6595
  41  615.0797
  42  690.3321
  43  828.1802
  44  790.7778
  45  840.6172
  46  818.2902
  47  881.5027
  48  754.0212
  49  743.6287
  50  728.4222
  51  735.5899
  52  725.1321
  53  796.4755
  54  765.1705
  55  799.9809
  56  764.4865
  57  813.6826
  58  875.8867
  59  950.627
  60  947.4377
  61  886.8465
  62  806.719
  63  905.9539
  64  867.4582
  65  817.515
  66  666.3896
  67  589.318
  68  515.8704
  69  426.6417
  70  471.5735
  71  635.3301
  72  703.2049
  73  709.6803
  74  823.0956
  75  860.1774
  76  832.7195
  77  734.4212
  78  778.4396
  79  864.8375
  80  740.5342
  81  695.1924
  82  674.4613
  83  762.5792
  84  895.2744
  85  844.7457
  86  695.0505
  87  449.5097
  88  425.738
  89  626.9916
  90  768.7379
  91  788.5665
  92  725.0338
  93  827.3574
  94  891.7864
  95  988.3965
  96  949.5741
  97  927.4665
  98  968.9645
  99  982.8173
 100  942.5777
 101  811.6332
 102  801.7317
 103  865.5148
 104  827.4105
 105  702.7392
 106  720.2588
 107  834.0042
 108  823.3675
 109  877.9481
 110  926.0636
 111  968.4765
 112  873.5735
 113  723.2573
 114  758.3054
 115  623.2696
 116  688.3572
 117  716.0184
 118  769.8891
 119  683.8529
 120  722.8264
 121  819.9269
 122  887.8965
 123  794.8684
 124  744.663
 125  819.9434
 126  852.9691
 127  922.2751
 128  931.845
 129  909.9136
 130  811.6734
 131  820.4852
 132  822.7947
 133  857.7342
 134  889.418
 135  885.1224
 136  773.5067
 137  726.0078
 138  727.3588
 139  719.6259
 140  679.4942
 141  736.7437
 142  794.3148
 143  860.0328
 144  798.1696
 145  752.2685
 146  734.8428
 147  735.7223
 148  716.1517
 149  668.6145
 150  782.3401
 151  776.5688
 152  843.2048
 153  821.3711
 154  803.2257
 155  719.3647
 156  721.6387
 157  786.8764
 158  832.2226
 159  852.5745
 160  974.9313
 161  960.8391
 162  958.3497
 163  870.9055
 164  988.6522
 165  1043.721
 166  1006.562
 167  943.7618
 168  830.8365
 169  753.5488
 170  782.2495
 171  963.4108
 172  1024.061
 173  961.8344
 174  888.0594
 175  866.4495
 176  861.7094
 177  884.8132
 178  948.3423
 179  909.4593
 180  740.3095
 181  740.4439
 182  823.7063
 183  849.9454
 184  803.5298
 185  877.1551
 186  935.2008
 187  838.4204
 188  729.6116
 189  821.9111
 190  913.8723
 191  912.8069
 192  924.7423
 193  835.5153
 194  757.9349
 195  716.9844
 196  758.4404
 197  710.6426
 198  719.9881
 199  784.2576
 200  835.8864
 201  754.5513
 202  743.6744
 203  867.3638
 204  939.1904
 205  973.8007
 206  920.3531
 207  899.5428
 208  804.9736
 209  717.8238
 210  780.6254
 211  832.2072
 212  784.2007
 213  779.3734
 214  829.0491
 215  925.3518
 216  832.115
 217  809.5314
 218  865.9055
 219  880.2657
 220  917.5737
 221  946.4123
 222  1048.36
 223  1067.327
 224  1040.102
 225  1006.194
 226  907.597
 227  764.1284
 228  635.2814
 229  667.9991
 230  768.9112
 231  742.9801
 232  758.2394
 233  780.7946
 234  822.7001
 235  777.3657
 236  682.4649
 237  690.9467
 238  564.3289
 239  666.1517
 240  729.075
 241  855.3096
 242  850.6576
 243  800.8616
 244  738.2111
 245  685.3365
 246  664.6635
 247  795.0233
 248  800.9039
 249  772.5069
 250  685.4677
 251  821.2109
 252  886.9566
 253  998.2373
 254  991.3517
 255  964.8975
 256  862.4504
 257  818.8268
 258  777.2504
 259  857.7762
 260  837.6189
 261  888.9476
 262  802.0045
 263  801.0931
 264  902.1613
 265  964.2927
 266  974.4165
 267  950.7225
 268  943.184
 269  827.0372
 270  719.15
 271  857.4578
 272  1010.47
 273  1062.255
 274  930.1074
 275  886.2072
 276  876.6814
 277  917.6727
 278  994.8323
 279  944.3863
 280  874.9877
 281  864.8441
 282  835.7936
 283  909.8014
 284  901.021
 285  957.1472
 286  1058.512
 287  1047.892
 288  1117.715
 289  1076.79
 290  1073.445
 291  1002.855
 292  1051.781
 293  972.2719
 294  972.2045
 295  926.872
 296  995.2262
 297  969.176
 298  968.1133
 299  952.7385
 300  996.0023
 301  1019.64
 302  1067.403
 303  1108.841
 304  1113.976
 305  1064.318
 306  900.0168
 307  895.7325
 308  904.7242
 309  898.817
 310  796.1487
 311  700.462
 312  672.5414
 313  628.6592
 314  624.8456
 315  592.9895
 316  639.6574
 317  704.9672
 318  747.4619
 319  763.1993
 320  782.3554
 321  853.0419
 322  834.501
 323  832.0923
 324  838.9916
 325  855.8045
 326  815.0374
 327  855.0168
 328  922.6519
 329  977.5565
 330  836.3799
 331  752.7937
 332  613.941
 333  632.771
 334  637.2622
 335  744.0484
 336  827.8241
 337  909.4943
 338  895.0455
 339  798.4128
 340  876.165
 341  902.4655
 342  894.4215
 343  850.4056
 344  843.1996
 345  805.6949
 346  757.7507
 347  915.9167
 348  1038.476
 349  1008.994
 350  905.569
 351  817.2464
 352  861.7198
 353  794.7966
 354  794.2911
 355  809.2971
 356  908.841
 357  991.7993
 358  1030.152
 359  983.4001
 360  884.1034
 361  838.6341
 362  866.3346
 363  902.5542
 364  871.2703
 365  886.459
 366  844.6801
 367  867.6435
 368  841.4786
 369  865.6583
 370  890.7869
 371  958.1375
 372  1022.495
 373  1054.786
 374  1016.34
 375  1011.761
 376  975.7704
 377  913.2802
 378  864.7042
 379  798.3367
 380  852.5761
 381  895.9888
 382  921.0113
 383  836.86
 384  782.5295
 385  795.2553
 386  911.7866
 387  1038.754
 388  1011.836
 389  1048.697
 390  1042.271
 391  1022.77
 392  903.6981
 393  897.1581
 394  958.1432
 395  971.8132
 396  867.9112
 397  821.2895
 398  923.762
 399  1042.135
 400  1023.141
 401  817.0705
 402  870.5398
 403  1001.31
 404  1119.335
 405  1039.942
 406  983.9245
 407  919.4367
 408  907.3191
 409  836.606
 410  892.4239
 411  879.4865
 412  785.3408
 413  823.1382
 414  865.8313
 415  950.7032
 416  796.4662
 417  941.9249
 418  973.2502
 419  1085.011
 420  944.6983
 421  976.7867
 422  951.3262
 423  981.3929
 424  960.0746
 425  1041.803
 426  970.7367
 427  995.5084
 428  960.3832
 429  1030.524
 430  943.7634
 431  892.2766
 432  868.3057
 433  844.7129
 434  855.0706
 435  925.5715
 436  956.6617
 437  973.2542
 438  929.6195
 439  1006.942
 440  966.4025
 441  892.8781
 442  784.6788
 443  772.6655
 444  779.957
 445  870.9202
 446  902.5787
 447  1018.291
 448  1074.235
 449  1113.724
 450  1105.461
 451  1023.449
 452  1046.484
 453  1010.53
 454  1024.916
 455  987.8704
 456  828.5402
 457  813.7416
 458  846.1132
 459  942.8253
 460  929.0112
 461  904.4769
 462  975.8635
 463  961.2236
 464  934.001
 465  926.6531
 466  931.0714
 467  935.853
 468  876.5591
 469  856.4291
 470  758.8795
 471  793.5499
 472  814.2667
 473  848.5334
 474  856.8851
 475  866.2599
 476  841.6635
 477  741.2344
 478  763.7917
 479  826.8138
 480  793.5262
 481  625.6528
 482  507.6483
 483  556.6238
 484  730.3857
 485  724.7794
 486  800.7429
 487  838.0628
 488  912.9146
 489  877.076
 490  874.6414
 491  808.4698
 492  810.6479
 493  782.2731
 494  893.8011
 495  872.8997
 496  941.1794
 497  950.8777
 498  946.3599
 499  763.1689
 500  760.6451
 501  907.1359
 502  879.2377
 503  764.5054
 504  717.4382
 505  782.1404
 506  950.4673
 507  973.3505
 508  1029.071
 509  880.3516
 510  855.6873
 511  920.3593
 512  1001.563
 513  1011.212
 514  907.7546
 515  933.3386
 516  893.9136
 517  950.3466
 518  871.6426
 519  904.1789
 520  846.8849
 521  856.0167
 522  932.0751
 523  904.6066
 524  731.0516
 525  813.0399
 526  907.351
 527  1060.516
 528  1001.756
 529  1012.943
 530  929.7209
 531  891.8916
 532  884.1136
 533  1002.029
 534  970.6709
 535  957.6852
 536  913.8682
 537  961.999
 538  986.3737
 539  999.5592
 540  899.2878
 541  708.6387
 542  647.1362
 543  827.8029
 544  1033.043
 545  1176.849
 546  1195.948
 547  1202.179
 548  1098.399
 549  944.7798
 550  921.0883
 551  873.0295
 552  953.5482
 553  962.3137
 554  929.5597
 555  798.3047
 556  598.9788
 557  631.9241
 558  732.2568
 559  725.8779
 560  636.0519
 561  673.366
 562  783.3741
 563  781.5981
 564  745.5688
 565  834.4854
 566  863.9839
 567  879.9757
 568  958.0605
 569  965.6063
 570  883.2562
 571  789.5197
 572  771.4832
 573  769.0969
 574  657.3408
 575  637.1595
 576  656.0615
 577  667.4631
 578  675.9911
 579  660.1376
 580  776.2821
 581  804.8928
 582  805.7525
 583  767.5335
 584  776.4159
 585  792.8173
 586  825.71
 587  838.6474
 588  787.287
 589  698.9621
 590  613.5293
 591  675.3382
 592  782.9434
 593  801.6354
 594  816.5065
 595  823.1287
 596  893.0497
 597  992.3597
 598  1066.347
 599  932.0344
 600  850.6383
 601  758.2068
 602  775.5293
 603  765.8062
 604  787.7516
 605  839.0964
 606  800.8582
 607  766.1705
 608  704.8094
 609  681.3893
 610  681.5387
 611  799.9457
 612  919.9089
 613  863.3419
 614  792.0925
 615  781.0898
 616  937.427
 617  874.4417
 618  796.6086
 619  812.2762
 620  825.1997
 621  780.6201
 622  923.9008
 623  1134.428
 624  1280.209
 625  1325.43
 626  1373.366
 627  1453.393
 628  1430.98
 629  1494.37
 630  1522.334
 631  1542.91
 632  1512.407
 633  1629.377
 634  1520.834
 635  1397.07
 636  1158.817
 637  1072.307
 638  938.938
 639  896.7157
 640  899.6664
 641  841.2842
 642  772.9109
 643  697.0932
 644  745.778
 645  798.9901
 646  732.3477
 647  724.1329
 648  713.0422
 649  737.9418
 650  738.9257
 651  690.4583
 652  759.9569
 653  753.1896
 654  869.2216
 655  850.347
 656  727.132
 657  522.7638
 658  523.6436
 659  603.3637
 660  692.6331
 661  686.8441
 662  874.597
 663  917.239
 664  900.1651
 665  955.8621
 666  1067.011
 667  1035.99
 668  958.3348
 669  1008.425
 670  1129.52
 671  1027.806
 672  959.0219
 673  816.9008
 674  675.4758
 675  645.7884
 676  611.9431
 677  686.6486
 678  730.6288
 679  866.0455
 680  877.6079
 681  1002.934
 682  1173.647
 683  1127.604
 684  953.9396
 685  784.5734
 686  679.8708
 687  723.2999
 688  884.7612
 689  987.2036
 690  874.7228
 691  744.3806
 692  758.6725
 693  722.8835
 694  752.4714
 695  862.9453
 696  943.2419
 697  899.8794
 698  771.6865
 699  670.7419
 700  593.9662
 701  582.9832
 702  656.931
 703  809.2543
 704  976.7824
 705  1014.265
 706  927.5087
 707  943.0251
 708  970.962
 709  1081.822
 710  1016.336
 711  986.0377
 712  980.7675
 713  999.3407
 714  900.6561
 715  792.1354
 716  805.6121
 717  775.03
 718  812.9331
 719  795.8963
 720  909.6631
 721  880.8263
 722  796.6882
 723  836.3187
 724  763.04
 725  787.684
 726  625.6409
 727  608.0123
 728  689.0579
 729  786.054
 730  901.6323
 731  792.6176
 732  859.7769
 733  898.1979
 734  953.9513
 735  931.4189
 736  901.4756
 737  920.106
 738  982.5844
 739  985.7013
 740  1109.525
 741  1063.271
 742  1065.959
 743  901.7863
 744  942.583
 745  968.9445
 746  999.7732
 747  991.5554
 748  968.1585
 749  800.2422
 750  710.6158
 751  758.8422
 752  839.5828
 753  830.6326
 754  806.4728
 755  909.4012
 756  908.8707
 757  951.7458
 758  854.9374
 759  835.1572
 760  834.5952
 761  863.6821
 762  827.5209
 763  735.9649
 764  814.6582
 765  839.7133
 766  874.9891
 767  698.9286
 768  704.6912
 769  739.6951
 770  840.977
 771  801.355
 772  666.4178
 773  633.5416
 774  683.4922
 775  774.5596
 776  749.7109
 777  619.3754
 778  555.4523
 779  578.5285
 780  623.6262
 781  608.4345
 782  509.7171
 783  607.9108
 784  732.6496
 785  898.9606
 786  938.1194
 787  843.1074
 788  846.7415
 789  840.4122
 790  852.6083
 791  827.4684
 792  684.6976
 793  652.8915
 794  728.2408
 795  914.8582
 796  991.0865
 797  911.9702
 798  817.6519
 799  845.309
 800  839.519
 801  790.4572
 802  678.5717
 803  729.5765
 804  747.8694
 805  746.8456
 806  634.1185
 807  683.0862
 808  790.2198
 809  933.4993
 810  925.1618
 811  888.521
 812  834.7947
 813  846.5593
 814  833.0848
 815  859.5236
 816  903.2874
 817  831.8827
 818  706.0895
 819  674.4855
 820  710.506
 821  940.3007
 822  1024.067
 823  1085.69
 824  1100.298
 825  1058.776
 826  899.2272
 827  726.7827
 828  838.5529
 829  991.4048
 830  1042.66
 831  901.2064
 832  780.5699
 833  774.41
 834  844.682
 835  884.8242
 836  865.312
 837  820.3522
 838  800.3531
 839  658.6773
 840  689.5219
 841  615.5314
 842  672.4222
 843  655.5991
 844  768.5662
 845  761.6049
 846  749.7776
 847  796.4756
 848  811.53
 849  774.2008
 850  678.3875
 851  683.8025
 852  808.5366
 853  883.6705
 854  898.3724
 855  798.4111
 856  840.4653
 857  877.1597
 858  984.1691
 859  809.6996
 860  583.7261
 861  563.2153
 862  743.0446
 863  844.1407
 864  898.1258
 865  932.2129
 866  879.4192
 867  815.5237
 868  839.7922
 869  886.1942
 870  774.6792
 871  657.7447
 872  757.4555
 873  800.5553
 874  795.0815
 875  749.5776
 876  738.4828
 877  741.6921
 878  680.0084
 879  660.5424
 880  744.7704
 881  826.8418
 882  842.0647
 883  783.8502
 884  769.3573
 885  718.3777
 886  774.3196
 887  689.4805
 888  739.0262
 889  581.2076
 890  594.3823
 891  516.7465
 892  574.4187
 893  619.9755
 894  729.0197
 895  864.662
 896  800.3044
 897  744.1112
 898  732.3779
 899  845.2499
 900  872.93
 901  847.9332
 902  800.6675
 903  642.3801
 904  623.2059
 905  635.3808
 906  661.4046
 907  719.86
 908  732.2235
 909  775.0845
 910  776.0506
 911  853.9547
 912  885.0145
 913  830.6486
 914  785.0582
 915  771.1776
 916  799.6152
 917  798.5687
 918  804.0654
 919  860.2288
 920  817.0186
 921  700.1379
 922  662.5978
 923  657.9313
 924  784.6497
 925  836.9592
 926  849.868
 927  800.767
 928  736.7017
 929  795.4174
 930  869.804
 931  947.2907
 932  946.184
 933  740.2444
 934  720.9009
 935  597.4818
 936  560.0531
 937  519.3656
 938  545.7177
 939  621.8671
 940  631.5695
 941  715.3514
 942  682.7668
 943  617.3863
 944  643.3843
 945  710.322
 946  732.3461
 947  777.7372
 948  868.0646
 949  814.7211
 950  769.061
 951  827.5542
 952  925.9235
 953  954.3392
 954  879.6407
 955  822.4978
 956  894.2923
 957  863.5759
 958  927.3825
 959  933.2744
 960  897.0627
 961  928.2299
 962  980.0772
 963  1027.833
 964  925.7244
 965  831.5978
 966  909.2234
 967  965.5653
 968  950.1328
 969  877.1093
 970  882.1263
 971  860.4937
 972  860.6464
 973  813.6392
 974  843.2241
 975  815.7147
 976  837.4707
 977  831.7684
 978  724.5618
 979  687.4149
 980  746.0189
 981  946.1629
 982  903.3365
 983  1014.239
 984  978.2555
 985  1035.529
 986  950.7212
 987  943.2689
 988  782.7449
 989  647.4868
 990  735.296
 991  939.1013
 992  891.1878
 993  744.8412
 994  711.2052
 995  761.8186
 996  710.9593
 997  619.5944
 998  585.0846
 999  598.9398
1000  653.9897
1001  857.4058
1002  987.5724
1003  972.7811
1004  848.7294
1005  835.4648
1006  840.1564
1007  845.7694
1008  874.3322
1009  867.1149
1010  811.2506
1011  802.7687
1012  934.2509
1013  932.0021
1014  900.6411
1015  757.0955
1016  820.5369
1017  907.8992
1018  936.2432
1019  921.9031
1020  944.5236
1021  918.2148
1022  886.7188
1023  756.8539
