# Input file       =  1194812911.096002_cleaned.dat
# Candidate        =  PSR_0332+5434
# Telescope        =  AR
# Epoch_topo       =  58072.853357592619
# Epoch_bary       =  N/A
# T_sample         =  0.002
# Data Folded      =  7340032
# Data Avg         =  0.118665938379958
# Data StdDev      =  3.82117020777203 
# Profile Bins     =  512
# Profile Avg      =  1701.23882049927 
# Profile StdDev   =  457.520311488984 
# Reduced chi-sqr  =  0.622
# Prob(Noise)      <  1   (~0.0 sigma)
# P_topo (ms)      =  714.510067167397  +/- 0.000565
# P'_topo (s/s)    =  -0                +/- 2.98e-10
# P''_topo (s/s^2) =  0                 +/- 1.32e-13
# P_bary (ms)      =  N/A
# P'_bary (s/s)    =  N/A
# P''_bary (s/s^2) =  N/A
# P_orb (s)        =  N/A
# asin(i)/c (s)    =  N/A
# eccentricity     =  N/A
# w (rad)          =  N/A
# T_peri           =  N/A
######################################################
   0  1621.18
   1  1301.948
   2  1248.787
   3  1743.695
   4  1902.482
   5  1736.259
   6  1582.728
   7  1508.194
   8  1460.37
   9  1656.003
  10  1640.967
  11  1727.771
  12  1726.054
  13  1656.8
  14  1466.679
  15  1777.691
  16  1535.483
  17  1533.348
  18  1558.349
  19  1383.325
  20  1778.682
  21  2025.863
  22  1818.603
  23  1555.834
  24  1523.444
  25  1341.013
  26  1213.039
  27  1375.556
  28  1606.818
  29  1534.691
  30  1537.455
  31  1469.083
  32  1504.906
  33  1387.939
  34  1600.178
  35  1743.994
  36  1857.1
  37  1807.791
  38  1984.636
  39  2043.925
  40  1781.684
  41  1734.131
  42  1598.037
  43  1664.317
  44  1691.504
  45  2047.18
  46  1701.126
  47  1532.411
  48  1480.574
  49  1943.146
  50  2085.106
  51  2008.937
  52  1677.144
  53  1640.604
  54  1570.569
  55  1553.754
  56  1824.329
  57  1946.132
  58  1902.729
  59  2038.398
  60  1762.356
  61  1452.431
  62  1437.444
  63  1609.322
  64  1802.334
  65  1410.494
  66  1562.704
  67  1615.613
  68  1502.153
  69  1593.017
  70  1436.146
  71  1748.917
  72  1831.253
  73  1868.441
  74  1861.015
  75  1501.485
  76  1646.529
  77  1937.444
  78  1947.747
  79  1864.275
  80  1592.74
  81  1340.519
  82  1654.719
  83  1796.03
  84  1782.266
  85  1676.439
  86  2172.834
  87  1896.812
  88  1631.898
  89  1699.308
  90  1615.26
  91  1650.523
  92  1741.182
  93  1814.914
  94  1609.79
  95  1671.747
  96  1749.456
  97  1737.81
  98  1698.537
  99  1725.359
 100  1907.306
 101  1832.535
 102  1777.827
 103  1156.251
 104  1293.465
 105  1540.409
 106  1807.227
 107  1797.855
 108  1925.872
 109  1504.894
 110  1455.134
 111  1498.761
 112  1898.824
 113  2122.961
 114  1892.523
 115  1947.999
 116  1622.979
 117  1581.176
 118  1800.441
 119  2003.826
 120  1946.258
 121  1989.586
 122  2028.873
 123  1624.824
 124  1602.177
 125  1552.431
 126  1741.245
 127  1679.806
 128  1583.38
 129  1649.42
 130  1642.196
 131  1575.088
 132  1567.259
 133  1468.159
 134  1555.065
 135  1656.827
 136  1787.961
 137  1638.529
 138  1895.03
 139  2014.891
 140  2011.407
 141  1939.348
 142  1754.878
 143  1751.569
 144  1971.165
 145  1789.358
 146  1790.691
 147  1784.727
 148  1883.679
 149  1838.666
 150  1812.083
 151  1499.744
 152  1657.865
 153  2035.298
 154  1603.755
 155  1273.377
 156  1277.93
 157  1627.271
 158  1607.277
 159  1817.932
 160  1736.778
 161  1280.356
 162  1271.587
 163  1653.863
 164  1865.136
 165  1724.661
 166  1916.745
 167  1609.851
 168  1915.435
 169  1889.458
 170  1694.546
 171  1893.483
 172  1700.71
 173  1991.971
 174  1905.705
 175  1660.224
 176  2202.451
 177  2176.322
 178  2271.634
 179  2461.537
 180  2262.525
 181  2021.112
 182  2128.686
 183  2314.867
 184  1988.791
 185  1854.957
 186  2296.469
 187  2379.097
 188  2181.348
 189  2190.036
 190  2193.258
 191  1972.204
 192  2065.76
 193  1906.608
 194  1795.167
 195  1905.913
 196  1892.571
 197  1953.997
 198  1643.203
 199  1815.977
 200  1746.613
 201  1898.775
 202  2082.016
 203  1836.885
 204  2092.892
 205  1934.588
 206  1720.082
 207  1515.698
 208  1668.229
 209  1784.264
 210  1656.726
 211  1669.616
 212  1770.929
 213  1808.573
 214  1553.788
 215  1679.36
 216  1686.787
 217  1580.582
 218  1771.223
 219  1789.325
 220  1716.962
 221  1841.858
 222  2082.461
 223  2031.839
 224  1927.545
 225  1987.297
 226  1964.702
 227  1939.315
 228  1893.119
 229  1992.294
 230  1773.977
 231  1702.046
 232  1741.457
 233  1842.547
 234  1776.814
 235  1747.587
 236  1592.695
 237  1768.051
 238  1788.04
 239  1649.099
 240  1538.937
 241  1589.892
 242  1519.355
 243  1528.034
 244  1885.22
 245  1671.642
 246  1815.854
 247  1834.733
 248  1786.351
 249  1772.549
 250  2117.273
 251  1937.46
 252  1541.604
 253  1685.057
 254  1923.025
 255  1751.926
 256  1911.89
 257  1797.442
 258  2028.405
 259  1802.783
 260  1676.67
 261  1906.477
 262  2042.418
 263  1893.376
 264  2117.68
 265  2041.324
 266  1804.048
 267  1947.32
 268  2193.583
 269  2214.749
 270  1811.298
 271  1742.364
 272  1796.977
 273  1669.619
 274  1517.093
 275  1825.72
 276  1803.001
 277  1737.337
 278  1870.578
 279  1757.762
 280  1571.685
 281  1286.186
 282  1396.731
 283  1593.443
 284  1531.155
 285  1368.62
 286  1244.204
 287  1591.88
 288  1739.427
 289  1423.842
 290  1718.158
 291  1573.348
 292  1708.203
 293  1938.482
 294  1755.669
 295  1944.615
 296  1632.451
 297  1773.653
 298  1706.623
 299  1480.896
 300  1435.337
 301  1753.634
 302  1728.536
 303  1666.444
 304  1878.308
 305  1835.275
 306  1328.211
 307  1290.077
 308  1618.608
 309  1743.202
 310  1922.35
 311  2048.398
 312  2222.457
 313  2365.543
 314  2815.06
 315  2784.208
 316  2621.3
 317  2607.711
 318  2085.379
 319  1662.544
 320  1564.747
 321  1765.767
 322  1497.383
 323  1535.191
 324  1875.337
 325  2187.996
 326  1910.805
 327  1887.867
 328  2087.241
 329  2119.604
 330  1784.651
 331  1941.538
 332  1987.231
 333  2096.524
 334  1992.181
 335  1677.096
 336  1657.924
 337  1620.691
 338  1751.488
 339  1778.16
 340  1663.219
 341  1681.691
 342  1702.296
 343  1844.452
 344  1946.602
 345  1839.539
 346  1562.447
 347  1638.163
 348  1776.002
 349  1585.474
 350  1654.884
 351  1618.631
 352  1524.836
 353  1587.973
 354  1334.603
 355  1305.168
 356  1455.745
 357  1369.166
 358  1150.341
 359  1266.803
 360  1277.984
 361  1260.269
 362  1168.998
 363  762.645
 364  792.5481
 365  1029.698
 366  1195.698
 367  1146.121
 368  1158.73
 369  1496.936
 370  1620.785
 371  1656.661
 372  1658.117
 373  1311.895
 374  1383.292
 375  1590.955
 376  1418.911
 377  1576.951
 378  1823.671
 379  1529.552
 380  1406.048
 381  1174.886
 382  1289.531
 383  1438.861
 384  1560.758
 385  1451.08
 386  1268.14
 387  1512.079
 388  1756.287
 389  1667.339
 390  1588.095
 391  1480.898
 392  1734.39
 393  1666.757
 394  1609.495
 395  1523.177
 396  1647.857
 397  1752.392
 398  1942.807
 399  1781.024
 400  1728.041
 401  1716.662
 402  1583.145
 403  1406.007
 404  1723.67
 405  1953.445
 406  1737.773
 407  1471.93
 408  1612.541
 409  1930.065
 410  1809.839
 411  1536.267
 412  1454.387
 413  1860.058
 414  2007.271
 415  1748.109
 416  1762.216
 417  2297.946
 418  2106.604
 419  1768.775
 420  1567.971
 421  1844.927
 422  1758.34
 423  1691.383
 424  1851.681
 425  1806.58
 426  1741.238
 427  1815.953
 428  1834.036
 429  1710.935
 430  1713.218
 431  1455.805
 432  1335.515
 433  1316.69
 434  1746.812
 435  1755.321
 436  1153.45
 437  1387.908
 438  1791.92
 439  1759.098
 440  1609.419
 441  1230.251
 442  1525.51
 443  1596.102
 444  1400.532
 445  1753.146
 446  1705.412
 447  1535.835
 448  1310.848
 449  983.1682
 450  1433.273
 451  1756.185
 452  1783.232
 453  1776.605
 454  1489.178
 455  1696.144
 456  1540.111
 457  1432.355
 458  1395.609
 459  1505.294
 460  1489.735
 461  1384.581
 462  1292.347
 463  1404.411
 464  1629.829
 465  1693.028
 466  1631.153
 467  1394.967
 468  1124.729
 469  1456.121
 470  1464.305
 471  1459.417
 472  1316.999
 473  1378.881
 474  1407.68
 475  1749.365
 476  1748.909
 477  1590.212
 478  1318.542
 479  1495.544
 480  1613.217
 481  1587.643
 482  1830.067
 483  2230.434
 484  2135.905
 485  2064.436
 486  1791.666
 487  1575.54
 488  1702.677
 489  1879.849
 490  1872.549
 491  1623.759
 492  1600.824
 493  1596.383
 494  1404.17
 495  1539.265
 496  1601.217
 497  1665.696
 498  1525.729
 499  1567.319
 500  1409.562
 501  1424.411
 502  1516
 503  1400.237
 504  1590.709
 505  1445.774
 506  1402.479
 507  1518.856
 508  1484.228
 509  1691.577
 510  1229.679
 511  1392.791
