# Input file       =  1194970650.113932_cleaned.dat
# Candidate        =  PSR_0332+5434
# Telescope        =  AR
# Epoch_topo       =  58074.679040670511
# Epoch_bary       =  N/A
# T_sample         =  0.002
# Data Folded      =  7143424
# Data Avg         =  0.0999673054638694
# Data StdDev      =  1.00050829157495 
# Profile Bins     =  512
# Profile Avg      =  1394.83378629461 
# Profile StdDev   =  118.178623163204 
# Reduced chi-sqr  =  0.676
# Prob(Noise)      <  1   (~0.0 sigma)
# P_topo (ms)      =  714.511899537194  +/- 5.47e-05
# P'_topo (s/s)    =  -0                +/- 2.97e-11
# P''_topo (s/s^2) =  0                 +/- 1.35e-14
# P_bary (ms)      =  N/A
# P'_bary (s/s)    =  N/A
# P''_bary (s/s^2) =  N/A
# P_orb (s)        =  N/A
# asin(i)/c (s)    =  N/A
# eccentricity     =  N/A
# w (rad)          =  N/A
# T_peri           =  N/A
######################################################
   0  1704.045
   1  1649.373
   2  1547.113
   3  1446.428
   4  1442.884
   5  1521.731
   6  1443.53
   7  1434.195
   8  1505.479
   9  1407.524
  10  1357.03
  11  1394.248
  12  1472.009
  13  1475.387
  14  1451.099
  15  1446.278
  16  1393.761
  17  1437.773
  18  1446.604
  19  1414.522
  20  1420.469
  21  1374.119
  22  1351.678
  23  1364.952
  24  1372.214
  25  1296.686
  26  1323.384
  27  1327.245
  28  1299.261
  29  1332.402
  30  1409.655
  31  1421.622
  32  1300.624
  33  1393.514
  34  1401.485
  35  1379.918
  36  1414.859
  37  1436.955
  38  1433.815
  39  1364.65
  40  1329.684
  41  1408.432
  42  1373.467
  43  1320.968
  44  1335.631
  45  1372.304
  46  1402.389
  47  1487.164
  48  1487.814
  49  1360.958
  50  1308.923
  51  1456.527
  52  1535.176
  53  1423.517
  54  1455.045
  55  1391.596
  56  1348.338
  57  1307.125
  58  1395.44
  59  1370.337
  60  1349.732
  61  1364.747
  62  1354.986
  63  1352.6
  64  1289.427
  65  1377.82
  66  1412.24
  67  1382.554
  68  1275.38
  69  1298.218
  70  1396.33
  71  1434.11
  72  1394.247
  73  1502.437
  74  1472.888
  75  1528.011
  76  1510.535
  77  1439.797
  78  1365.682
  79  1395.123
  80  1453.619
  81  1386.312
  82  1343.156
  83  1279.004
  84  1294.213
  85  1394.642
  86  1369.44
  87  1494.873
  88  1492.911
  89  1469.127
  90  1427.679
  91  1358.007
  92  1383.615
  93  1312.776
  94  1396.448
  95  1381.604
  96  1340.042
  97  1316.678
  98  1288.387
  99  1281.861
 100  1351.334
 101  1388.301
 102  1445.556
 103  1313.718
 104  1262.03
 105  1321.263
 106  1345.117
 107  1271.021
 108  1171.577
 109  1331.799
 110  1369.958
 111  1346.258
 112  1290.08
 113  1308.871
 114  1307.281
 115  1279.51
 116  1385.641
 117  1345.102
 118  1404.495
 119  1473.342
 120  1454.467
 121  1499.31
 122  1443.75
 123  1387.088
 124  1362.864
 125  1367.475
 126  1465.61
 127  1512.529
 128  1446.313
 129  1436.925
 130  1409.565
 131  1419.855
 132  1394.846
 133  1313.869
 134  1378.236
 135  1434.1
 136  1405.449
 137  1477.006
 138  1487.794
 139  1397.777
 140  1388.387
 141  1356.061
 142  1364.769
 143  1450.322
 144  1465.458
 145  1385.504
 146  1221.195
 147  1333.729
 148  1417.924
 149  1443.809
 150  1257.141
 151  1195.52
 152  1253.608
 153  1410.297
 154  1370.551
 155  1435.342
 156  1471.026
 157  1406.08
 158  1420.806
 159  1463.849
 160  1342.164
 161  1352.273
 162  1417.451
 163  1398.252
 164  1355.761
 165  1266.321
 166  1308.965
 167  1401.7
 168  1397.571
 169  1384.009
 170  1249.743
 171  1333.292
 172  1364.943
 173  1439.026
 174  1363.983
 175  1317.398
 176  1406.241
 177  1454.256
 178  1412.346
 179  1341.721
 180  1314.112
 181  1310.705
 182  1264.713
 183  1410.212
 184  1503.615
 185  1501.203
 186  1413.613
 187  1427.525
 188  1432.09
 189  1366.863
 190  1440.636
 191  1471.409
 192  1413.66
 193  1408.985
 194  1503.72
 195  1480.121
 196  1402.026
 197  1355.351
 198  1342.203
 199  1335.816
 200  1360.639
 201  1483.754
 202  1471.599
 203  1409.916
 204  1379.496
 205  1462.206
 206  1498.578
 207  1328.878
 208  1286.411
 209  1278.524
 210  1373.051
 211  1387.449
 212  1338.575
 213  1412.555
 214  1464.704
 215  1444.972
 216  1444.608
 217  1430.782
 218  1462.651
 219  1460.158
 220  1488.73
 221  1391.783
 222  1308.898
 223  1447.771
 224  1453.599
 225  1467.463
 226  1466.792
 227  1432.636
 228  1405.433
 229  1555.647
 230  1485.451
 231  1436.674
 232  1378.813
 233  1328.312
 234  1427.515
 235  1399.14
 236  1479.859
 237  1564.418
 238  1474.345
 239  1405.769
 240  1305.717
 241  1399.669
 242  1413.797
 243  1393.313
 244  1431.365
 245  1469.687
 246  1365.153
 247  1295.243
 248  1440.102
 249  1489.35
 250  1353.636
 251  1338.788
 252  1359.37
 253  1403.968
 254  1384.061
 255  1366.615
 256  1402.063
 257  1404.139
 258  1347.722
 259  1366.782
 260  1363.636
 261  1320.9
 262  1468.023
 263  1523.196
 264  1488.834
 265  1470.936
 266  1476.538
 267  1445.575
 268  1334.531
 269  1325.058
 270  1453.568
 271  1442.041
 272  1447.029
 273  1453.506
 274  1421.885
 275  1303.377
 276  1326.657
 277  1414.512
 278  1364.547
 279  1279.922
 280  1410.958
 281  1433.246
 282  1347.807
 283  1311.505
 284  1402.848
 285  1451.321
 286  1452.951
 287  1371.068
 288  1377.219
 289  1346.026
 290  1390.225
 291  1338.743
 292  1354.627
 293  1389.779
 294  1412.542
 295  1399.793
 296  1340.581
 297  1260.064
 298  1279.688
 299  1336.612
 300  1368.808
 301  1404.875
 302  1488.712
 303  1505.711
 304  1330.305
 305  1388.812
 306  1359.688
 307  1347.018
 308  1315.345
 309  1361.121
 310  1466.862
 311  1433.84
 312  1406.562
 313  1389.02
 314  1343.614
 315  1292.321
 316  1380.862
 317  1402.469
 318  1353.121
 319  1451.454
 320  1438.832
 321  1477.021
 322  1490.904
 323  1399.701
 324  1403.682
 325  1354.643
 326  1331.214
 327  1403.368
 328  1420.177
 329  1453.551
 330  1417.456
 331  1451.602
 332  1399.546
 333  1446.052
 334  1501.518
 335  1490.781
 336  1423.133
 337  1500.841
 338  1492.782
 339  1340.762
 340  1362.682
 341  1441.142
 342  1315.801
 343  1411.278
 344  1473.779
 345  1420.227
 346  1340.34
 347  1441.36
 348  1423.063
 349  1361.839
 350  1198.236
 351  1369.338
 352  1447.652
 353  1515.487
 354  1357.318
 355  1288.856
 356  1256.898
 357  1212.401
 358  1302.252
 359  1393.058
 360  1435.591
 361  1459.602
 362  1419.6
 363  1435.564
 364  1349.422
 365  1266.694
 366  1364.902
 367  1468.122
 368  1396.812
 369  1417.277
 370  1393.542
 371  1375.874
 372  1272.741
 373  1398.532
 374  1404.093
 375  1300.276
 376  1344.786
 377  1431.351
 378  1518.521
 379  1392.76
 380  1375.722
 381  1388.364
 382  1365.046
 383  1360.902
 384  1446.676
 385  1398.398
 386  1379.357
 387  1381.825
 388  1331.469
 389  1224.641
 390  1293.009
 391  1341.063
 392  1347.684
 393  1409.215
 394  1417.562
 395  1404.904
 396  1380.735
 397  1250.602
 398  1318.026
 399  1389.747
 400  1370.019
 401  1406.585
 402  1367.726
 403  1419.589
 404  1332.267
 405  1459.172
 406  1432.336
 407  1417.601
 408  1516.829
 409  1508.135
 410  1342.464
 411  1265.913
 412  1286.62
 413  1357.846
 414  1369.196
 415  1361.564
 416  1453.048
 417  1472.761
 418  1387.816
 419  1330.895
 420  1398.755
 421  1434.971
 422  1416.354
 423  1364.334
 424  1388.647
 425  1379.928
 426  1387.254
 427  1464.963
 428  1463.211
 429  1479.54
 430  1410.416
 431  1419.79
 432  1405.023
 433  1365.718
 434  1405.849
 435  1492.083
 436  1444.536
 437  1375.168
 438  1470.11
 439  1480.917
 440  1330.763
 441  1275.552
 442  1420.128
 443  1423.806
 444  1429.499
 445  1431.614
 446  1372.416
 447  1325.241
 448  1354.324
 449  1377.64
 450  1386.745
 451  1398.48
 452  1389.267
 453  1409.289
 454  1459.69
 455  1391.608
 456  1300.415
 457  1270.333
 458  1304.569
 459  1439.309
 460  1414.636
 461  1391.366
 462  1383.064
 463  1367.949
 464  1428.987
 465  1391.447
 466  1269.773
 467  1333.224
 468  1337.075
 469  1349.5
 470  1448.392
 471  1470.292
 472  1399.263
 473  1390.01
 474  1417.493
 475  1492.456
 476  1406.997
 477  1386.995
 478  1365.225
 479  1267.363
 480  1401.295
 481  1535.871
 482  1496.348
 483  1412.242
 484  1493.506
 485  1595.27
 486  1499.224
 487  1374.86
 488  1308.532
 489  1315.949
 490  1378.102
 491  1416.047
 492  1335.677
 493  1291.824
 494  1319.359
 495  1434.428
 496  1503.447
 497  1393.24
 498  1318.107
 499  1338.572
 500  1404.318
 501  1394.361
 502  1387.477
 503  1377.89
 504  1359.834
 505  1292.445
 506  1358.372
 507  1383.194
 508  1478.161
 509  1502.017
 510  1634.68
 511  1691.965
