# Input file       =  1194712115.107617_cleaned.dat
# Candidate        =  PSR_0332+5434
# Telescope        =  AR
# Epoch_topo       =  58071.686737356678
# Epoch_bary       =  N/A
# T_sample         =  0.002
# Data Folded      =  7208960
# Data Avg         =  0.0755307991936044
# Data StdDev      =  3.54910176215153 
# Profile Bins     =  512
# Profile Avg      =  1063.32459013706 
# Profile StdDev   =  421.133489904267 
# Reduced chi-sqr  =  0.745
# Prob(Noise)      <  1   (~0.0 sigma)
# P_topo (ms)      =  714.508863068757  +/- 0.000338
# P'_topo (s/s)    =  -0                +/- 1.81e-10
# P''_topo (s/s^2) =  0                 +/- 8.15e-14
# P_bary (ms)      =  N/A
# P'_bary (s/s)    =  N/A
# P''_bary (s/s^2) =  N/A
# P_orb (s)        =  N/A
# asin(i)/c (s)    =  N/A
# eccentricity     =  N/A
# w (rad)          =  N/A
# T_peri           =  N/A
######################################################
   0  1374.821
   1  1187.924
   2  1032.113
   3  1115.778
   4  1320.574
   5  1707.892
   6  1390.275
   7  804.4503
   8  873.929
   9  781.8456
  10  1112.617
  11  857.0021
  12  1071.447
  13  1068.852
  14  739.2942
  15  857.3279
  16  747.7053
  17  1229.7
  18  1237.51
  19  797.0468
  20  985.471
  21  1192.833
  22  1284.246
  23  920.757
  24  1337.721
  25  966.3107
  26  1086.904
  27  770.0551
  28  882.6797
  29  1007.274
  30  573.6908
  31  621.2068
  32  936.2159
  33  1083.854
  34  1064.774
  35  1287.324
  36  735.4334
  37  633.4933
  38  1069.929
  39  983.0158
  40  1105.263
  41  1045.172
  42  1306.222
  43  987.8405
  44  646.0536
  45  1184.154
  46  923.6423
  47  956.0431
  48  715.2655
  49  1220.302
  50  1473.252
  51  947.1225
  52  944.9882
  53  1079.133
  54  1076.948
  55  1034.668
  56  1154.585
  57  1452.806
  58  1156.046
  59  1295.363
  60  1045.359
  61  847.4382
  62  910.7236
  63  1011.999
  64  1201.792
  65  1246.412
  66  1055.849
  67  1336.584
  68  1082.853
  69  1246.029
  70  1356.378
  71  1335.74
  72  1335.367
  73  1326.68
  74  1241.756
  75  1475.909
  76  1109.823
  77  962.7014
  78  1186.701
  79  1242.087
  80  1186.883
  81  752.0991
  82  1366.119
  83  947.3187
  84  777.0731
  85  1122.686
  86  1027.776
  87  1180.882
  88  744.5687
  89  1052.117
  90  891.8943
  91  863.2803
  92  837.9393
  93  800.1588
  94  556.6625
  95  760.4516
  96  744.0621
  97  611.1331
  98  614.0831
  99  812.2241
 100  1007.599
 101  984.1193
 102  871.6765
 103  1218.957
 104  1119.796
 105  1182.27
 106  1058.756
 107  954.798
 108  955.3589
 109  1209.928
 110  955.1526
 111  620.3288
 112  1083.618
 113  1184.556
 114  1185.19
 115  798.9618
 116  839.3236
 117  1370.776
 118  1089.449
 119  1296.634
 120  1019.039
 121  951.1801
 122  738.154
 123  977.3441
 124  1398.281
 125  1258.643
 126  1009.345
 127  713.7912
 128  986.95
 129  1161.026
 130  1051.167
 131  966.6895
 132  1073.252
 133  1334.545
 134  1240.39
 135  1255.101
 136  904.301
 137  826.3289
 138  798.0538
 139  957.1532
 140  1133.856
 141  1109.504
 142  1254.128
 143  1052.909
 144  1023.966
 145  1170.705
 146  1160.712
 147  962.3883
 148  1056.387
 149  1458.182
 150  1366.229
 151  1277.027
 152  1012.373
 153  1142.276
 154  957.0522
 155  953.9131
 156  1498.717
 157  1220.183
 158  1292.988
 159  1101.58
 160  1124.507
 161  1053.231
 162  1186.332
 163  1046.914
 164  912.5099
 165  744.6044
 166  568.769
 167  1040.031
 168  992.6862
 169  915.2309
 170  727.5129
 171  782.369
 172  915.7885
 173  1063.596
 174  1222.067
 175  1332.825
 176  1191.422
 177  990.6913
 178  1067.554
 179  969.5278
 180  745.9608
 181  879.2275
 182  1163.116
 183  1353.467
 184  1100.937
 185  1163.814
 186  1602.324
 187  1179.335
 188  824.8177
 189  1129.932
 190  1555.98
 191  1824.264
 192  2017.923
 193  2297.346
 194  2326.151
 195  2428.988
 196  2170.825
 197  1524.534
 198  922.471
 199  1262.932
 200  1405.458
 201  804.6854
 202  888.9417
 203  923.3022
 204  1169.237
 205  1219.901
 206  1106.194
 207  1315.759
 208  1418.979
 209  1197.653
 210  1396.627
 211  1274.347
 212  1189.278
 213  1300.564
 214  1193.283
 215  1119.233
 216  1207.879
 217  822.9973
 218  962.3445
 219  1072.07
 220  1390.607
 221  1295.845
 222  1551.18
 223  1516.081
 224  1315.541
 225  1189.117
 226  945.5585
 227  1236.311
 228  1102.102
 229  974.498
 230  1346.897
 231  1239.005
 232  1275.123
 233  1160.479
 234  1298.666
 235  1077.444
 236  930.2157
 237  926.3789
 238  802.1959
 239  1076.828
 240  1268.746
 241  1248.962
 242  1036.368
 243  1037.176
 244  650.1629
 245  588.3792
 246  1202.981
 247  1174.992
 248  1478.948
 249  1408.653
 250  1164.784
 251  1086.34
 252  1183.338
 253  990.4279
 254  705.8249
 255  881.2068
 256  834.2567
 257  846.6663
 258  918.4448
 259  1001.625
 260  1212.52
 261  1161.791
 262  1076.665
 263  1105.873
 264  1150.809
 265  857.0375
 266  1081.464
 267  912.9066
 268  866.7324
 269  1218.721
 270  783.8226
 271  1024.224
 272  943.6686
 273  1008.395
 274  780.1696
 275  666.4338
 276  622.6091
 277  436.2849
 278  638.2767
 279  488.9932
 280  585.9233
 281  899.0319
 282  1200.904
 283  1080.72
 284  1263.035
 285  1234.405
 286  987.3823
 287  666.1698
 288  311.1179
 289  792.4302
 290  669.2993
 291  558.8619
 292  506.8922
 293  798.0086
 294  974.2605
 295  647.3245
 296  509.453
 297  406.0543
 298  839.5769
 299  1250.875
 300  961.6514
 301  1175.745
 302  1162.541
 303  1246.738
 304  1517.778
 305  1235.016
 306  1242.54
 307  792.2773
 308  1299.284
 309  1178.662
 310  1073.567
 311  1407.635
 312  1164.921
 313  919.3788
 314  792.1768
 315  1072.362
 316  1038.087
 317  911.1219
 318  885.0354
 319  1351.657
 320  1343.349
 321  1098.157
 322  1276.449
 323  1312.907
 324  961.7539
 325  855.7741
 326  910.265
 327  1013.696
 328  1100.292
 329  949.8358
 330  1037.093
 331  1268.19
 332  1337.687
 333  1370.113
 334  1242.539
 335  1061.807
 336  833.4526
 337  944.1851
 338  1154.365
 339  714.4344
 340  593.1594
 341  751.4517
 342  604.6996
 343  764.466
 344  740.74
 345  823.0187
 346  575.6996
 347  765.1689
 348  769.6144
 349  781.454
 350  1046.89
 351  869.2443
 352  1169.054
 353  1052.728
 354  785.2596
 355  632.315
 356  1053.802
 357  1542.917
 358  938.6071
 359  973.2507
 360  659.597
 361  855.186
 362  581.7444
 363  877.2716
 364  956.4907
 365  1106.314
 366  1515.865
 367  1085.635
 368  1180.984
 369  1323.15
 370  1145.036
 371  764.5007
 372  1338.458
 373  1446.358
 374  916.7167
 375  1157.295
 376  1205.363
 377  1293.392
 378  1312.808
 379  1373.691
 380  861.324
 381  773.7381
 382  1063.206
 383  1076.859
 384  1207.084
 385  769.0272
 386  869.9036
 387  965.5935
 388  1061.756
 389  998.0175
 390  867.38
 391  1265.435
 392  1018.1
 393  1108.339
 394  1141.406
 395  1130.258
 396  1128.752
 397  1313.857
 398  1258.27
 399  966.0934
 400  1361.977
 401  1491.525
 402  1203.453
 403  513.0325
 404  688.988
 405  972.6656
 406  944.1219
 407  829.9656
 408  557.709
 409  768.4346
 410  1040.293
 411  1129.606
 412  1020.898
 413  937.8591
 414  1200.578
 415  960.7654
 416  1199.395
 417  1086.148
 418  934.586
 419  758.0367
 420  790.8069
 421  989.6956
 422  1127.691
 423  1062.932
 424  1079.932
 425  1029.99
 426  1130.808
 427  1016.193
 428  1053.278
 429  1189.79
 430  1262.465
 431  1092.101
 432  1036.296
 433  1012.738
 434  1127.052
 435  816.2
 436  836.3804
 437  1365.059
 438  1209.394
 439  916.8973
 440  1182.155
 441  1568.122
 442  1379.547
 443  1325.033
 444  1427.035
 445  1058.642
 446  1154.616
 447  1105.867
 448  999.9327
 449  1146.921
 450  750.1372
 451  776.0048
 452  940.0187
 453  1335.958
 454  1206.492
 455  1016.129
 456  602.3593
 457  774.0497
 458  1095.24
 459  1203.534
 460  1126.55
 461  1316.677
 462  1126.511
 463  938.6896
 464  868.7882
 465  1180.732
 466  1096.939
 467  1040.5
 468  1080.054
 469  1095.566
 470  895.6191
 471  906.766
 472  785.6906
 473  1160.237
 474  1196.462
 475  1325.291
 476  1005.796
 477  889.7668
 478  792.1838
 479  704.7187
 480  693.0226
 481  936.0159
 482  1092.932
 483  1304.48
 484  1035.073
 485  820.32
 486  799.861
 487  910.1631
 488  995.9503
 489  957.3533
 490  1326.227
 491  1404.097
 492  1076.781
 493  1057.089
 494  759.7379
 495  1326.925
 496  1447.234
 497  1480.645
 498  1618.726
 499  1291.995
 500  1272.613
 501  1066.597
 502  1496.778
 503  1458.134
 504  1517.312
 505  1308.53
 506  876.7488
 507  953.5652
 508  1235.912
 509  1235.296
 510  1236.032
 511  1369.125
