# Input file       =  1194985250.121086_cleaned.dat
# Candidate        =  PSR_0332+5434
# Telescope        =  AR
# Epoch_topo       =  58074.848022234793
# Epoch_bary       =  N/A
# T_sample         =  0.002
# Data Folded      =  7340032
# Data Avg         =  0.0663541904439826
# Data StdDev      =  1.00019301809966 
# Profile Bins     =  512
# Profile Avg      =  951.214401029923 
# Profile StdDev   =  119.756147019914 
# Reduced chi-sqr  =  0.530
# Prob(Noise)      <  1   (~0.0 sigma)
# P_topo (ms)      =  714.512098947562  +/- 0.00205
# P'_topo (s/s)    =  -0                +/- 1.08e-09
# P''_topo (s/s^2) =  0                 +/- 4.77e-13
# P_bary (ms)      =  N/A
# P'_bary (s/s)    =  N/A
# P''_bary (s/s^2) =  N/A
# P_orb (s)        =  N/A
# asin(i)/c (s)    =  N/A
# eccentricity     =  N/A
# w (rad)          =  N/A
# T_peri           =  N/A
######################################################
   0  959.6042
   1  846.4478
   2  843.264
   3  911.0056
   4  963.9044
   5  972.9882
   6  954.9451
   7  984.1251
   8  1109.661
   9  1012.803
  10  910.958
  11  884.7155
  12  975.2132
  13  941.2562
  14  964.7831
  15  963.7117
  16  969.162
  17  950.7133
  18  1010.596
  19  981.6956
  20  831.3016
  21  882.8578
  22  1037.543
  23  1032.113
  24  973.565
  25  930.5251
  26  956.1358
  27  963.0821
  28  797.8027
  29  852.6881
  30  875.3779
  31  871.1861
  32  927.2407
  33  981.5067
  34  1051.553
  35  931.6361
  36  923.4633
  37  1002.806
  38  993.3911
  39  1007.471
  40  969.3582
  41  955.6744
  42  873.0687
  43  892.3684
  44  921.4464
  45  901.2546
  46  946.6188
  47  968.574
  48  936.0964
  49  902.3679
  50  927.4861
  51  973.5779
  52  893.3156
  53  901.4695
  54  985.0955
  55  974.1545
  56  950.0276
  57  962.1354
  58  912.9694
  59  921.4834
  60  874.8224
  61  895.072
  62  898.0111
  63  796.0588
  64  811.5492
  65  832.7181
  66  971.7289
  67  951.9656
  68  906.3171
  69  960.7252
  70  1007.068
  71  1020.318
  72  1010.013
  73  1001.184
  74  1006.807
  75  1031.319
  76  993.5974
  77  916.7438
  78  935.2057
  79  971.2557
  80  1003.786
  81  982.7085
  82  952.6401
  83  913.714
  84  847.5348
  85  839.6929
  86  973.1651
  87  939.7035
  88  781.2581
  89  864.2611
  90  1006.722
  91  975.997
  92  886.4687
  93  906.2742
  94  968.1865
  95  1025.607
  96  953.1993
  97  904.6169
  98  1021.594
  99  904.4125
 100  928.9739
 101  967.6788
 102  924.9119
 103  867.6056
 104  948.7579
 105  952.049
 106  876.332
 107  902.4907
 108  1023.012
 109  1016.488
 110  937.6272
 111  884.6227
 112  1021.422
 113  987.3839
 114  899.6813
 115  974.2438
 116  940.2456
 117  903.0688
 118  939.0242
 119  938.1539
 120  934.8074
 121  877.4198
 122  915.2563
 123  931.6754
 124  915.0944
 125  948.1494
 126  909.7117
 127  926.0507
 128  767.9649
 129  796.1905
 130  906.8072
 131  990.205
 132  1002.948
 133  939.9625
 134  918.8644
 135  960.3212
 136  841.3787
 137  839.8788
 138  857.3581
 139  944.3301
 140  940.7789
 141  878.8644
 142  989.6804
 143  959.5771
 144  913.0167
 145  910.0339
 146  912.6773
 147  915.6068
 148  960.5298
 149  971.5997
 150  931.0336
 151  892.162
 152  968.7839
 153  964.2712
 154  903.8071
 155  807.0839
 156  916.1625
 157  1019.555
 158  988.9861
 159  858.1864
 160  811.1247
 161  897.1951
 162  1007.036
 163  981.1436
 164  983.4139
 165  965.4808
 166  948.7546
 167  947.8688
 168  980.9024
 169  941.6873
 170  994.351
 171  1033.306
 172  1017.206
 173  972.9403
 174  912.6439
 175  958.8289
 176  982.9653
 177  932.1657
 178  883.3599
 179  849.9552
 180  1079.332
 181  1102.499
 182  1018.275
 183  1010.754
 184  985.5715
 185  965.9228
 186  907.959
 187  951.6699
 188  968.7219
 189  927.1675
 190  906.4302
 191  931.2427
 192  969.673
 193  949.4041
 194  926.4496
 195  952.4793
 196  952.3729
 197  979.1228
 198  989.5491
 199  987.6236
 200  980.4603
 201  1073.327
 202  1068.041
 203  1080.843
 204  1077.433
 205  1007.965
 206  987.1909
 207  937.5835
 208  987.2931
 209  927.5457
 210  939.2882
 211  1005.481
 212  1040.853
 213  1069.364
 214  1005.753
 215  961.4197
 216  955.1749
 217  989.9037
 218  979.0936
 219  1007.319
 220  1047.973
 221  1050.281
 222  1084.997
 223  1067.927
 224  1018.689
 225  1000.141
 226  1026.077
 227  1086.344
 228  1040.76
 229  1041.794
 230  1001.668
 231  865.0611
 232  867.8035
 233  959.7708
 234  997.1081
 235  928.3688
 236  854.135
 237  892.0761
 238  917.002
 239  984.0636
 240  992.9023
 241  835.0102
 242  894.254
 243  913.803
 244  896.601
 245  940.4037
 246  959.5896
 247  928.7571
 248  896.6734
 249  910.1063
 250  990.9842
 251  917.7767
 252  910.7871
 253  888.0953
 254  963.5022
 255  955.4802
 256  982.1753
 257  1002.872
 258  943.4765
 259  938.4727
 260  952.9186
 261  962.5497
 262  851.5446
 263  957.4423
 264  1045.217
 265  905.8954
 266  941.5267
 267  923.0958
 268  911.8123
 269  853.8909
 270  899.1713
 271  828.3394
 272  982.72
 273  1012.313
 274  1042.83
 275  1027.146
 276  967.4815
 277  1010.099
 278  953.3663
 279  964.9304
 280  994.9667
 281  940.4771
 282  849.0929
 283  871.5065
 284  907.9556
 285  949.5438
 286  924.8143
 287  943.871
 288  901.843
 289  801.17
 290  918.6975
 291  885.3955
 292  927.1774
 293  910.7761
 294  936.0435
 295  1003.708
 296  936.5023
 297  976.8162
 298  1074.197
 299  971.3162
 300  981.2809
 301  976.2789
 302  967.0656
 303  1013.027
 304  1014.318
 305  1003.268
 306  1002.48
 307  1026.367
 308  944.0483
 309  995.0848
 310  945.9274
 311  938.997
 312  918.1317
 313  895.468
 314  945.7476
 315  962.1633
 316  895.3021
 317  919.6817
 318  910.9921
 319  906.3726
 320  967.2068
 321  953.8821
 322  947.5667
 323  956.5346
 324  961.0604
 325  926.2402
 326  876.0247
 327  903.5636
 328  982.5803
 329  948.2836
 330  894.702
 331  898.8779
 332  886.4365
 333  982.1132
 334  919.1276
 335  884.8996
 336  957.8599
 337  918.3716
 338  976.4147
 339  901.6827
 340  937.4843
 341  955.276
 342  929.5558
 343  995.2152
 344  927.4624
 345  883.3409
 346  877.8502
 347  914.4951
 348  974.8676
 349  916.8802
 350  913.4089
 351  927.1646
 352  1013.392
 353  975.3169
 354  1001.352
 355  1015.221
 356  1041.944
 357  1007.581
 358  1021.57
 359  933.9949
 360  868.8572
 361  898.9062
 362  1030.897
 363  1070.422
 364  978.7917
 365  954.9718
 366  975.8273
 367  866.5216
 368  912.7506
 369  891.3945
 370  970.6366
 371  943.1422
 372  995.1636
 373  943.3188
 374  974.2268
 375  1023.864
 376  939.6476
 377  989.1556
 378  964.0433
 379  970.6132
 380  987.2943
 381  1050.42
 382  1050.258
 383  1014.917
 384  1047.772
 385  1012.422
 386  903.0394
 387  909.8307
 388  990.7719
 389  1053.276
 390  972.5245
 391  979.44
 392  934.5779
 393  929.101
 394  879.6472
 395  966.5156
 396  960.2896
 397  990.2722
 398  975.0507
 399  990.8608
 400  1036.062
 401  974.424
 402  1020.799
 403  1013.257
 404  978.1355
 405  1017.854
 406  1071.456
 407  1017.031
 408  978.7822
 409  1075.425
 410  1168.872
 411  1164.874
 412  1196.409
 413  1198.836
 414  1132.01
 415  1059.869
 416  1118.021
 417  1004.25
 418  914.9418
 419  904.4664
 420  956.2185
 421  951.9758
 422  986.2111
 423  1022.583
 424  973.6466
 425  922.943
 426  997.6883
 427  1028.533
 428  950.1998
 429  903.5137
 430  985.8033
 431  977.7552
 432  969.175
 433  905.6778
 434  898.2352
 435  937.8249
 436  1020.3
 437  889.7712
 438  960.0581
 439  940.5573
 440  906.6172
 441  898.9656
 442  892.0294
 443  913.3776
 444  952.6239
 445  950.6216
 446  944.7258
 447  1030.531
 448  1047.215
 449  1036.888
 450  921.4278
 451  1000.801
 452  1014.284
 453  891.7144
 454  863.3957
 455  964.613
 456  975.4722
 457  901.2881
 458  830.9111
 459  881.9183
 460  902.6749
 461  897.6385
 462  927.3005
 463  883.3922
 464  928.669
 465  922.4084
 466  1038.934
 467  1027.715
 468  1035.567
 469  1041.387
 470  966.2737
 471  914.7437
 472  948.5842
 473  970.426
 474  933.9841
 475  837.4328
 476  917.6895
 477  1018.757
 478  964.8731
 479  866.4292
 480  888.8182
 481  924.533
 482  875.2745
 483  892.8162
 484  929.5616
 485  913.1348
 486  848.8917
 487  971.4997
 488  880.2031
 489  879.0765
 490  866.5128
 491  751.5499
 492  818.2498
 493  916.0737
 494  1006.297
 495  1049.645
 496  937.4523
 497  941.9715
 498  982.9907
 499  855.1934
 500  828.6196
 501  959.9208
 502  897.6367
 503  909.7143
 504  929.2063
 505  930.7125
 506  877.4844
 507  871.7144
 508  899.8422
 509  890.4465
 510  995.3285
 511  1014.703
