# Input file       =  1194051750.097979_cleaned.dat
# Candidate        =  PSR_0332+5434
# Telescope        =  AR
# Epoch_topo       =  58064.043623819205
# Epoch_bary       =  N/A
# T_sample         =  0.002
# Data Folded      =  7340032
# Data Avg         =  0.0705541583998379
# Data StdDev      =  2.80264532308303 
# Profile Bins     =  512
# Profile Avg      =  1011.41440622437 
# Profile StdDev   =  335.569234419874 
# Reduced chi-sqr  =  1.156
# Prob(Noise)      <  0.00837   (~2.4 sigma)
# P_topo (ms)      =  714.501695350368  +/- 0.000265
# P'_topo (s/s)    =  -0                +/- 1.4e-10
# P''_topo (s/s^2) =  0                 +/- 6.18e-14
# P_bary (ms)      =  N/A
# P'_bary (s/s)    =  N/A
# P''_bary (s/s^2) =  N/A
# P_orb (s)        =  N/A
# asin(i)/c (s)    =  N/A
# eccentricity     =  N/A
# w (rad)          =  N/A
# T_peri           =  N/A
######################################################
   0  962.0479
   1  733.4988
   2  953.2731
   3  1477.167
   4  1360.245
   5  983.7257
   6  708.2174
   7  1052.539
   8  854.6314
   9  934.7898
  10  1140.224
  11  1121.83
  12  1106.954
  13  1283.037
  14  1329.044
  15  1384.882
  16  1452.534
  17  1503.742
  18  1472.227
  19  1260.674
  20  1057.005
  21  1207.385
  22  873.181
  23  944.8652
  24  933.6942
  25  1356.575
  26  1245.5
  27  1180.181
  28  1050.655
  29  1209.406
  30  960.9131
  31  941.0933
  32  851.5677
  33  906.1024
  34  1240.54
  35  1216.609
  36  1237.713
  37  1152.233
  38  1204.66
  39  1369.048
  40  1119.905
  41  1024.779
  42  1343.292
  43  1333.649
  44  811.5052
  45  780.3581
  46  1432.289
  47  953.1982
  48  601.4187
  49  794.0697
  50  1135.471
  51  902.306
  52  855.1953
  53  732.9376
  54  771.9374
  55  946.8445
  56  939.7509
  57  995.6528
  58  1215.53
  59  904.4999
  60  659.0147
  61  1217.752
  62  1225.966
  63  919.9651
  64  1297.421
  65  1590.998
  66  1264.959
  67  1176.518
  68  1291.993
  69  1353.501
  70  929.4803
  71  909.0436
  72  707.5463
  73  688.3911
  74  799.3686
  75  895.3468
  76  992.7341
  77  922.7874
  78  1067.556
  79  1122.012
  80  979.97
  81  1050.708
  82  840.3775
  83  980.2507
  84  973.8896
  85  740.0363
  86  972.2904
  87  807.449
  88  747.6901
  89  1147.728
  90  1369.625
  91  901.1646
  92  1140.619
  93  1194.05
  94  795.8901
  95  954.9981
  96  707.0222
  97  1048.577
  98  907.5326
  99  999.8907
 100  1052.191
 101  764.7396
 102  1311.041
 103  1293.484
 104  1033.434
 105  1133.845
 106  984.761
 107  765.2549
 108  783.9189
 109  955.814
 110  1120.147
 111  1075.564
 112  967.6425
 113  986.1605
 114  886.2833
 115  577.9589
 116  587.3975
 117  872.9452
 118  960.1759
 119  946.074
 120  506.222
 121  869.4702
 122  944.4393
 123  1046.536
 124  1220.756
 125  1448.81
 126  1066.547
 127  849.0494
 128  902.8107
 129  1166.99
 130  1145.114
 131  1036.602
 132  1054.488
 133  868.5036
 134  950.2103
 135  1020.181
 136  909.4924
 137  702.6595
 138  781.6741
 139  1072.86
 140  1037.018
 141  1219.475
 142  1055.375
 143  758.1694
 144  890.7124
 145  783.6494
 146  963.2798
 147  1270.567
 148  922.5749
 149  1105.102
 150  1116.076
 151  870.7219
 152  636.173
 153  952.1064
 154  1369.991
 155  987.0715
 156  562.6725
 157  826.3331
 158  839.3945
 159  974.248
 160  898.7401
 161  911.787
 162  989.5356
 163  1118.123
 164  1145.182
 165  1189.551
 166  1161.396
 167  907.4203
 168  1022.181
 169  1062.319
 170  1208.53
 171  1065.838
 172  1049.881
 173  1286.789
 174  1000.993
 175  1116.488
 176  1209.968
 177  1013.443
 178  841.7784
 179  735.1724
 180  816.9419
 181  821.4681
 182  1044.881
 183  1181.478
 184  959.3896
 185  776.7507
 186  685.7256
 187  799.0695
 188  817.1358
 189  985.0441
 190  1015.807
 191  905.2256
 192  612.37
 193  975.9448
 194  864.3295
 195  819.8824
 196  846.3702
 197  906.0569
 198  923.7663
 199  1219.771
 200  1025.63
 201  959.2039
 202  843.0864
 203  728.3076
 204  1025.508
 205  934.1431
 206  1083.435
 207  879.1642
 208  921.3632
 209  1062.159
 210  894.9538
 211  583.5351
 212  716.0005
 213  903.9394
 214  668.2156
 215  578.0466
 216  858.0388
 217  1125.906
 218  1142.166
 219  670.0886
 220  1040.313
 221  722.662
 222  1023.504
 223  1056.666
 224  1340.65
 225  1103.996
 226  1394.735
 227  1488.435
 228  966.7249
 229  784.4049
 230  796.0086
 231  478.2038
 232  680.5919
 233  624.5748
 234  638.7188
 235  590.3487
 236  798.1176
 237  1071.857
 238  964.6667
 239  883.8676
 240  756.1925
 241  924.011
 242  991.9169
 243  907.1208
 244  1155.119
 245  1170.31
 246  1195.968
 247  1456.899
 248  1399.482
 249  1037.703
 250  945.7161
 251  1073.273
 252  1087.267
 253  1235.832
 254  1356.549
 255  1281.941
 256  1217.57
 257  772.1335
 258  940.0308
 259  758.811
 260  595.3546
 261  732.5671
 262  719.1411
 263  795.5726
 264  873.5361
 265  967.9599
 266  920.2563
 267  846.2179
 268  759.4963
 269  725.4119
 270  801.186
 271  1127.829
 272  1433.094
 273  1437.411
 274  1503.725
 275  1486.4
 276  962.4777
 277  1367.72
 278  1251.33
 279  973.6205
 280  925.5898
 281  1160.923
 282  1494.461
 283  1015.686
 284  837.5637
 285  994.1846
 286  904.3305
 287  853.4101
 288  1065.457
 289  1267.431
 290  886.2211
 291  917.7659
 292  817.2987
 293  983.5009
 294  1051.154
 295  855.3989
 296  1222.319
 297  1149.01
 298  906.7348
 299  918.7336
 300  743.0286
 301  701.4344
 302  812.9128
 303  629.9976
 304  690.6803
 305  884.369
 306  1031.706
 307  1012.584
 308  1260.664
 309  1128.577
 310  883.1787
 311  1246.176
 312  1929.428
 313  1643.635
 314  1934.27
 315  2349.756
 316  2738.364
 317  2306.022
 318  2395.978
 319  2024.046
 320  1698.879
 321  1701.85
 322  1323.094
 323  1073.457
 324  1232.932
 325  1077.657
 326  901.326
 327  1081.828
 328  1308.393
 329  1272.515
 330  1053.528
 331  1228.415
 332  1252.997
 333  1278.411
 334  1109.454
 335  1142.092
 336  1372.566
 337  1507.446
 338  1368.975
 339  954.6467
 340  1013.32
 341  951.2307
 342  859.3085
 343  1218.799
 344  740.3973
 345  738.5648
 346  973.1788
 347  1032.323
 348  809.907
 349  714.8739
 350  750.5427
 351  1177.004
 352  1185.33
 353  1121.693
 354  627.4892
 355  940.8592
 356  1131.111
 357  1148.117
 358  1218.081
 359  1105.239
 360  1194.876
 361  805.4601
 362  1025.301
 363  974.2922
 364  791.3966
 365  957.3747
 366  654.2026
 367  748.4118
 368  882.0963
 369  843.2516
 370  1308.812
 371  1552.963
 372  987.9468
 373  705.1284
 374  711.7401
 375  882.1534
 376  883.116
 377  1083.337
 378  1035.637
 379  940.5521
 380  1115.096
 381  969.3819
 382  730.8044
 383  658.6199
 384  939.8057
 385  1064.312
 386  960.6124
 387  772.3184
 388  1139.367
 389  1264.406
 390  1097.278
 391  1314.312
 392  1152.558
 393  1064.737
 394  1021.818
 395  919.8604
 396  720.6226
 397  476.5453
 398  1177.124
 399  1295.486
 400  1046.1
 401  800.3502
 402  611.3096
 403  613.6068
 404  1125.477
 405  986.2675
 406  990.2832
 407  1135.271
 408  1199.145
 409  1094.23
 410  856.4042
 411  731.0622
 412  747.1884
 413  702.1721
 414  1225.115
 415  1088.497
 416  907.7178
 417  903.952
 418  667.3848
 419  712.8204
 420  719.8659
 421  763.8796
 422  830.5864
 423  922.5067
 424  996.1594
 425  963.1217
 426  1138.867
 427  924.3583
 428  941.6673
 429  1086.595
 430  1060.794
 431  847.933
 432  860.6863
 433  843.0767
 434  717.4191
 435  917.6762
 436  898.7717
 437  1011.804
 438  1155.831
 439  754.3085
 440  799.5471
 441  884.9833
 442  814.2556
 443  883.5046
 444  820.8477
 445  844.3724
 446  682.6223
 447  879.1569
 448  876.8236
 449  911.5676
 450  939.3837
 451  650.7084
 452  835.5883
 453  1167.563
 454  1191.153
 455  1040.45
 456  1115.546
 457  1287.543
 458  1029.201
 459  936.8876
 460  1032.138
 461  1155.606
 462  1323.093
 463  1349.641
 464  1246.727
 465  1247.038
 466  1017.992
 467  896.1258
 468  1214.03
 469  1199.553
 470  1143.53
 471  957.4946
 472  1141.402
 473  1042.459
 474  933.9806
 475  1214.005
 476  1173.82
 477  790.2124
 478  966.7444
 479  1188.167
 480  1017.72
 481  962.0768
 482  858.6028
 483  872.7309
 484  782.5844
 485  746.4737
 486  699.8887
 487  1040.352
 488  1239.813
 489  998.4291
 490  866.4966
 491  637.572
 492  652.8676
 493  578.3191
 494  832.1536
 495  1031.597
 496  963.9984
 497  827.7343
 498  971.1416
 499  1127.282
 500  1191.322
 501  805.2538
 502  1160.292
 503  1132.716
 504  747.6094
 505  781.6261
 506  1017.043
 507  516.6875
 508  872.2997
 509  1269.048
 510  1028.142
 511  721.1628
