# Input file       =  1194970650.113932_cleaned.dat
# Candidate        =  PSR_0332+5434
# Telescope        =  AR
# Epoch_topo       =  58074.679040670511
# Epoch_bary       =  N/A
# T_sample         =  0.002
# Data Folded      =  7143424
# Data Avg         =  2.19801935777944 
# Data StdDev      =  28.45769446068   
# Profile Bins     =  1024
# Profile Avg      =  15334.53737399   
# Profile StdDev   =  2376.8564216514  
# Reduced chi-sqr  =  0.375
# Prob(Noise)      <  1   (~0.0 sigma)
# P_topo (ms)      =  714.511900629882  +/- 4.4e-05
# P'_topo (s/s)    =  -0                +/- 2.38e-11
# P''_topo (s/s^2) =  0                 +/- 1.08e-14
# P_bary (ms)      =  N/A
# P'_bary (s/s)    =  N/A
# P''_bary (s/s^2) =  N/A
# P_orb (s)        =  N/A
# asin(i)/c (s)    =  N/A
# eccentricity     =  N/A
# w (rad)          =  N/A
# T_peri           =  N/A
######################################################
   0  14911.71
   1  15568.24
   2  15191.2
   3  15292.34
   4  15271.96
   5  15284.93
   6  15215.35
   7  15449.62
   8  15759.1
   9  16951.4
  10  17550.17
  11  16483.12
  12  15708.48
  13  14285.09
  14  14013.19
  15  13495.4
  16  14108.42
  17  15437.18
  18  15647.79
  19  15301.88
  20  15046.75
  21  14275.47
  22  14258.66
  23  14228.54
  24  14658.11
  25  14970.33
  26  14914.72
  27  15376.76
  28  15881.45
  29  15760.33
  30  15353.16
  31  15212.02
  32  15699.49
  33  15354.88
  34  14503.03
  35  13924.27
  36  14243.04
  37  14704.62
  38  15546.44
  39  15512.13
  40  15255.62
  41  15411.15
  42  15665.06
  43  15650.25
  44  15502.55
  45  15766.45
  46  16041.53
  47  15603.29
  48  15294.64
  49  14785.44
  50  14340.24
  51  13778.83
  52  14113.3
  53  15437.54
  54  15217.09
  55  15377.77
  56  15712.94
  57  16106.12
  58  15686.36
  59  15449.48
  60  16180.09
  61  16159.14
  62  14557.19
  63  14399.61
  64  16130.88
  65  16626.26
  66  17284.56
  67  16179.01
  68  16573.18
  69  15822.95
  70  15344.67
  71  14648.74
  72  14395.97
  73  14226.39
  74  15918.56
  75  16447.05
  76  16005.77
  77  15712.41
  78  15147.9
  79  15985.96
  80  15951.27
  81  16582.15
  82  16407.53
  83  14921.74
  84  15167.97
  85  15722.14
  86  15405.7
  87  14705.83
  88  14737.42
  89  14970.24
  90  14836.25
  91  13673.68
  92  14520.73
  93  14666.81
  94  14812.24
  95  15159.15
  96  16084.69
  97  15709.26
  98  14988.19
  99  13983.21
 100  13851.79
 101  13205.36
 102  14296.2
 103  15419.35
 104  15896.5
 105  15459.26
 106  16062.2
 107  15704.96
 108  15291.64
 109  14864.6
 110  15158.31
 111  15106.99
 112  14472.34
 113  15011.73
 114  14976.26
 115  14579.7
 116  14002.33
 117  14495.36
 118  15112.05
 119  14884.53
 120  14940.11
 121  15255.93
 122  15155.55
 123  15077.07
 124  15274.76
 125  15657.5
 126  15122.95
 127  14304.9
 128  14035.14
 129  14840.94
 130  15426.73
 131  16608.47
 132  16847.15
 133  17062.64
 134  16755.72
 135  16316.93
 136  15447.51
 137  15205.84
 138  15189.8
 139  16090.54
 140  15511.45
 141  15493.17
 142  15461.11
 143  15111.95
 144  14850.82
 145  15041.67
 146  15832.65
 147  16365.86
 148  15290.4
 149  14975.53
 150  15299.93
 151  15705.58
 152  15917.75
 153  16037.84
 154  15977.44
 155  15741.03
 156  15683.52
 157  15716.49
 158  15970.76
 159  15338.67
 160  16296.55
 161  16626.47
 162  16183.12
 163  16062.59
 164  14928.16
 165  14769.68
 166  14657.19
 167  15103.35
 168  16397.79
 169  16130.43
 170  16205.41
 171  15781.62
 172  14619.86
 173  14760.25
 174  15940.61
 175  17060.19
 176  16919.92
 177  15821.65
 178  16242.08
 179  16227.91
 180  15325.35
 181  15572.17
 182  16207.32
 183  16308.68
 184  15280.01
 185  14215.14
 186  14196.78
 187  14345.44
 188  14994.07
 189  15258.55
 190  14769.3
 191  14036.66
 192  14612.39
 193  14627.11
 194  14981.75
 195  15188.78
 196  15458.82
 197  14907.01
 198  14434.72
 199  14995.03
 200  15304.24
 201  14323.12
 202  14081.31
 203  14088
 204  14476.5
 205  13798.53
 206  13589.16
 207  14205.4
 208  14804.12
 209  15198.81
 210  15983.24
 211  15789.87
 212  15787.34
 213  15185.59
 214  15246.08
 215  14527.22
 216  14592.65
 217  15062.95
 218  16064.94
 219  15633.36
 220  15571.49
 221  15728.44
 222  15857.76
 223  15454.72
 224  15426.66
 225  15895.25
 226  15946.11
 227  15849.75
 228  16423.24
 229  15795.36
 230  15299.75
 231  15727.68
 232  15669.02
 233  15848.13
 234  14944.08
 235  15049.86
 236  15717.13
 237  15472.18
 238  16523.62
 239  16949.18
 240  17305.36
 241  16532.16
 242  15529.11
 243  15569.07
 244  14987.66
 245  15340.2
 246  16467.62
 247  16693.79
 248  16324.38
 249  16771.34
 250  16201.97
 251  15582.05
 252  15168.09
 253  15068.49
 254  15713.06
 255  14966.61
 256  15577.91
 257  15289.62
 258  14688.52
 259  15147.24
 260  15896.52
 261  16166.44
 262  15922.1
 263  15222.97
 264  16095.08
 265  16463.12
 266  16117.41
 267  16307.18
 268  15892.19
 269  16123.42
 270  15767.76
 271  15564.65
 272  15211.42
 273  14881.17
 274  14690.55
 275  15603.55
 276  15575.57
 277  15001.1
 278  15421.43
 279  15587.45
 280  15949.73
 281  16128.18
 282  16552.49
 283  16502.29
 284  14615.93
 285  14688.76
 286  14768.97
 287  15423.18
 288  16273.93
 289  16457.22
 290  16516.96
 291  15406.96
 292  15553.39
 293  16002.04
 294  16048.05
 295  16049.62
 296  16838.61
 297  16822.53
 298  16425.22
 299  15562.18
 300  15489.55
 301  15384.14
 302  14598.67
 303  14543.42
 304  15167.83
 305  14901.6
 306  14712.77
 307  14109.04
 308  14859.76
 309  15321.91
 310  15853.41
 311  16404.24
 312  16537.7
 313  16190.72
 314  15332.13
 315  13589.58
 316  13142.2
 317  13590.54
 318  14352.15
 319  14558.83
 320  13625.95
 321  14157.32
 322  14656.74
 323  14677.4
 324  15152.29
 325  16238.71
 326  16283.4
 327  15652.5
 328  15406.88
 329  15977.55
 330  15653.29
 331  15116.78
 332  16391.41
 333  16941.48
 334  15843.36
 335  15969.64
 336  15329.76
 337  15772.04
 338  14755
 339  14953.02
 340  16494.12
 341  16214.73
 342  15951.23
 343  15514.76
 344  14957.63
 345  15642.6
 346  15540.59
 347  16010.76
 348  15625.42
 349  14815.42
 350  14930.65
 351  15221.23
 352  14701.16
 353  15461.9
 354  15747.33
 355  15721.12
 356  14962.44
 357  13946.72
 358  13833.96
 359  13905.65
 360  14803.46
 361  15924.37
 362  16339.97
 363  16407.66
 364  15946.06
 365  14955.09
 366  14802.43
 367  15359.8
 368  16173.63
 369  16323.93
 370  15875.5
 371  16085.67
 372  15978.04
 373  15262.72
 374  15098.56
 375  15263
 376  15234.11
 377  14427.96
 378  13996.37
 379  14367.99
 380  14633.9
 381  15537.35
 382  16096.52
 383  16402.07
 384  15180.23
 385  14105.43
 386  14234.31
 387  14853.18
 388  14525.75
 389  15340.14
 390  15616.45
 391  15319.91
 392  15278.59
 393  16392.31
 394  16633.16
 395  15836.93
 396  15762.78
 397  17039.26
 398  16799.24
 399  15835.25
 400  15264.41
 401  13872.54
 402  13397.35
 403  13998.68
 404  15052.98
 405  15235.36
 406  13814.74
 407  14174.16
 408  15307.89
 409  15093.27
 410  15493.39
 411  14962.5
 412  15028.27
 413  14811.75
 414  14804.6
 415  14532.93
 416  14655.38
 417  14997.39
 418  16276.84
 419  15887.72
 420  15224.83
 421  15844.47
 422  15621.94
 423  15883.15
 424  15500.12
 425  15375.85
 426  15495.34
 427  14201.47
 428  14811.14
 429  15265.7
 430  15017.7
 431  15105.92
 432  14931.93
 433  15349.97
 434  15202.03
 435  15853.22
 436  16314.97
 437  16218.52
 438  15702.7
 439  15549.03
 440  15800.98
 441  15483.49
 442  15848.2
 443  14955.46
 444  14937.2
 445  14593.05
 446  14410.13
 447  15230.72
 448  14852.48
 449  15067.3
 450  15458.05
 451  14988.58
 452  14887.31
 453  14197.54
 454  14600.87
 455  14041.25
 456  13570.86
 457  14443.3
 458  14213.44
 459  14374.83
 460  14621.6
 461  15260.87
 462  14820.02
 463  14301.8
 464  14508.98
 465  15177.41
 466  14989.21
 467  15014.74
 468  15323.85
 469  15296.47
 470  14267.65
 471  13665.35
 472  13532.75
 473  13462.03
 474  14102.55
 475  14658.47
 476  14973.55
 477  14863.39
 478  15141.96
 479  15083.56
 480  14515.99
 481  14092.28
 482  14528.85
 483  15282.95
 484  15351.23
 485  15117.44
 486  15561.52
 487  15781.48
 488  15133.6
 489  15185.52
 490  15877.49
 491  16356.84
 492  15559.52
 493  15503.86
 494  15762.7
 495  15628.08
 496  16383.75
 497  16407.56
 498  16233.48
 499  15940.23
 500  15589.99
 501  15348.24
 502  14562.12
 503  15051.09
 504  16320.46
 505  16243.44
 506  15315.84
 507  15345.91
 508  15210.38
 509  14890.75
 510  14603.47
 511  15380.79
 512  15557.24
 513  14316.67
 514  14230.86
 515  15534.19
 516  16157.48
 517  15929.06
 518  15594.6
 519  15944.32
 520  14903.06
 521  14205.14
 522  14031.38
 523  14234.2
 524  13618.71
 525  15529.29
 526  15923.33
 527  15391.09
 528  14071.07
 529  14153.78
 530  14778.59
 531  15480.19
 532  16128.66
 533  16637.31
 534  16147.85
 535  15744.53
 536  15771.67
 537  15487.45
 538  15034.89
 539  15326.72
 540  16137.26
 541  16853.38
 542  15604.95
 543  15248.89
 544  14422.26
 545  14145.21
 546  14607.53
 547  15220.59
 548  15542.1
 549  15003.23
 550  15370.35
 551  15627.91
 552  16646.7
 553  17180.47
 554  17259.4
 555  16604.83
 556  15881.97
 557  15928.78
 558  15700.39
 559  15608.94
 560  15261.95
 561  15617.66
 562  15663.78
 563  14330.83
 564  13537.1
 565  13077.18
 566  13348.72
 567  14190.1
 568  15325.37
 569  15994.14
 570  15464.19
 571  15025.29
 572  15738.64
 573  15166.07
 574  15240.77
 575  15672.34
 576  16584.03
 577  16947.59
 578  15911.06
 579  15560.74
 580  15119.39
 581  14289.42
 582  14748.85
 583  14388.53
 584  14826.72
 585  14361.31
 586  14438.5
 587  15038.15
 588  14666.43
 589  15160.95
 590  14827.39
 591  14388.74
 592  13261.54
 593  13585.41
 594  13396.43
 595  14038.28
 596  14556.66
 597  14978.3
 598  15926.61
 599  15243.95
 600  15120.04
 601  15121.87
 602  14459.64
 603  14900.99
 604  15344.94
 605  16114.74
 606  15224.04
 607  14162.21
 608  14549.93
 609  14831.63
 610  14677.36
 611  15137.13
 612  14625.81
 613  13490.75
 614  13441.84
 615  13766.65
 616  14104.86
 617  13714.99
 618  13652.22
 619  14535.23
 620  14350.01
 621  14370.29
 622  15155.97
 623  14935.81
 624  15302.29
 625  15169.18
 626  15421.09
 627  15389.69
 628  15403.63
 629  16029.94
 630  16603.8
 631  15906.55
 632  16381.32
 633  16180.87
 634  16581.91
 635  15627.03
 636  15263.13
 637  15564.54
 638  15218.36
 639  15569.2
 640  16322.35
 641  16662.53
 642  15857.55
 643  15246.75
 644  15117.97
 645  15165.44
 646  15511.51
 647  16181.26
 648  15779.21
 649  14740.55
 650  14969.66
 651  15232.68
 652  15487.43
 653  15073.38
 654  15207.37
 655  15439.67
 656  15024.53
 657  16033.53
 658  16343.26
 659  15639.9
 660  15386.48
 661  16031.95
 662  16247.37
 663  15519
 664  15008.59
 665  15893.93
 666  16576.43
 667  15551.34
 668  15767.04
 669  15364.5
 670  14944.65
 671  14397.11
 672  14568.71
 673  14914.03
 674  14555.64
 675  14530.12
 676  15485.62
 677  15794.74
 678  15573.96
 679  16401.3
 680  16300.79
 681  16499.96
 682  15556.05
 683  15187.83
 684  15930.46
 685  15363.2
 686  15628.41
 687  15188.32
 688  14644.66
 689  15141.58
 690  15440.73
 691  15774.91
 692  15523.47
 693  15044.43
 694  14911.68
 695  14958.99
 696  14881.83
 697  15510.25
 698  15094.93
 699  15195.41
 700  16120.48
 701  16004.86
 702  16002.19
 703  14679.64
 704  15537.15
 705  15905.51
 706  15870.39
 707  15641.67
 708  15593.71
 709  14959.48
 710  14653.08
 711  14819.59
 712  15464.47
 713  15412.91
 714  15306.46
 715  15728.43
 716  15721.01
 717  15009.03
 718  14527.29
 719  15027.46
 720  15170.41
 721  14520.52
 722  14133.94
 723  14634.43
 724  15140.15
 725  15666.82
 726  16450.37
 727  15918.99
 728  15850.39
 729  15169.94
 730  15594.1
 731  14953.47
 732  15668.04
 733  16507.93
 734  16788.69
 735  16458.61
 736  16336.82
 737  16550
 738  16246.03
 739  16622.43
 740  16419.04
 741  16788.54
 742  15753.94
 743  16269.41
 744  16482.88
 745  16536.35
 746  16617.38
 747  16766.2
 748  15960.53
 749  15041.05
 750  13638.81
 751  14465.09
 752  15201
 753  15174.24
 754  15517.5
 755  15412.24
 756  14379.01
 757  14085.92
 758  13882.6
 759  14723.7
 760  14724.5
 761  15520.17
 762  16127.55
 763  16285.46
 764  15963.81
 765  16082.92
 766  15237.38
 767  15558.36
 768  15923.83
 769  16550.79
 770  16561.7
 771  16409.99
 772  17239.45
 773  17605.22
 774  16453.87
 775  16520.78
 776  16920.52
 777  17265.66
 778  16730.89
 779  15865.45
 780  15822.42
 781  15930.83
 782  15565.06
 783  16693.76
 784  16379.18
 785  15570.76
 786  14953.2
 787  14495.69
 788  14819.47
 789  14676.04
 790  15441.3
 791  15696.73
 792  15299.74
 793  15301.15
 794  15442.44
 795  14371.91
 796  14194.17
 797  14360.6
 798  14950.75
 799  14715.74
 800  14303.22
 801  14810.37
 802  14844.06
 803  14718.95
 804  15219.42
 805  15771.93
 806  15635.35
 807  15174.13
 808  15615.55
 809  15631.12
 810  15571.07
 811  15277.46
 812  15298.06
 813  15193.67
 814  15760.81
 815  15860.75
 816  15573.12
 817  15171.8
 818  14981.55
 819  15956.54
 820  15906.85
 821  15509.62
 822  14926.53
 823  15004.62
 824  15197.33
 825  14539.39
 826  14515.99
 827  14521.45
 828  14098.02
 829  13742.52
 830  14369.73
 831  14504.2
 832  15049.46
 833  15186.54
 834  15437.96
 835  14872.53
 836  13612.84
 837  13461.79
 838  13511.03
 839  13704.17
 840  15028.48
 841  15244.21
 842  14455.73
 843  13981.28
 844  13496.37
 845  13704.92
 846  12861.23
 847  12790.65
 848  13900.73
 849  14436.57
 850  15081.65
 851  14592.24
 852  14281.06
 853  14398.56
 854  15371.29
 855  15351.62
 856  15672.47
 857  14590.84
 858  14520.1
 859  14359.55
 860  14094.08
 861  15359.93
 862  16180.82
 863  16248.53
 864  15893.12
 865  15387.13
 866  16155.41
 867  16043.18
 868  15922.63
 869  17014.37
 870  16440.66
 871  15411.26
 872  15570.6
 873  15231.33
 874  15355.11
 875  14547.9
 876  15513.6
 877  15610.34
 878  14853.2
 879  14439.44
 880  14721.34
 881  14481.27
 882  14854.67
 883  15518.23
 884  16075.99
 885  16220.15
 886  15928.59
 887  16789.38
 888  16475.47
 889  16131.46
 890  16192.49
 891  16956.47
 892  16985.73
 893  16334.83
 894  15541.81
 895  16158.15
 896  15653.39
 897  16047.47
 898  15967.59
 899  15673.28
 900  15204.63
 901  15155.3
 902  15674.98
 903  15334.36
 904  15301.9
 905  15652.14
 906  16045.07
 907  15488.08
 908  15805.76
 909  15699.45
 910  15781.02
 911  15622.29
 912  15181.25
 913  15020.12
 914  13782.5
 915  13583.72
 916  14313.88
 917  14797.31
 918  15421.75
 919  15297.98
 920  15507
 921  15254.07
 922  14520.65
 923  14141.45
 924  14777.26
 925  14823.51
 926  16243.39
 927  16368.66
 928  16167.26
 929  16446.89
 930  16185.75
 931  15540.17
 932  13741.62
 933  12866.12
 934  13515.59
 935  13776.11
 936  14255.88
 937  15101.74
 938  14578.88
 939  14482.07
 940  14707.36
 941  16010.22
 942  16388.54
 943  15600.97
 944  15734.05
 945  16303.4
 946  16097.86
 947  16206.65
 948  16251.06
 949  16062.19
 950  15555.57
 951  14377.75
 952  14612.87
 953  15140.33
 954  16099.23
 955  17188.12
 956  17061.86
 957  16206.69
 958  15578.25
 959  14816.13
 960  15160.3
 961  15105.65
 962  15807.12
 963  15870.73
 964  15875.13
 965  16276.91
 966  16499.13
 967  15533.48
 968  14746.69
 969  15212.41
 970  15416.88
 971  15409.7
 972  15265.72
 973  15826.49
 974  15288.99
 975  14623.78
 976  14968.41
 977  15750.7
 978  15926.32
 979  15536.91
 980  14706.69
 981  14909.89
 982  15498.96
 983  16779.23
 984  17739.47
 985  16564.97
 986  16089.95
 987  15376.33
 988  15654.29
 989  15113.68
 990  14112.9
 991  14286.9
 992  14675.32
 993  14840.66
 994  14679.46
 995  14481.48
 996  14537.33
 997  15270.07
 998  15400.62
 999  15551.64
1000  14715.99
1001  15224.84
1002  16126.39
1003  15644.15
1004  16149.53
1005  16970.29
1006  16958.96
1007  16281.27
1008  15025.15
1009  15616.63
1010  15498.24
1011  15551.79
1012  16607.62
1013  17219.85
1014  16389.46
1015  16365.33
1016  15607.42
1017  15696.57
1018  15081.55
1019  15560.3
1020  16410.69
1021  15498.77
1022  14572.08
1023  14909.45
