# Input file       =  1194553880.107303_cleaned.dat
# Candidate        =  PSR_0332+5434
# Telescope        =  AR
# Epoch_topo       =  58069.855313741929
# Epoch_bary       =  N/A
# T_sample         =  0.002
# Data Folded      =  7340032
# Data Avg         =  0.425657295932719
# Data StdDev      =  6.37160821793036 
# Profile Bins     =  512
# Profile Avg      =  6103.16072229683 
# Profile StdDev   =  762.891998535958 
# Reduced chi-sqr  =  0.563
# Prob(Noise)      <  1   (~0.0 sigma)
# P_topo (ms)      =  714.507043359003  +/- 0.000921
# P'_topo (s/s)    =  -0                +/- 4.86e-10
# P''_topo (s/s^2) =  0                 +/- 2.15e-13
# P_bary (ms)      =  N/A
# P'_bary (s/s)    =  N/A
# P''_bary (s/s^2) =  N/A
# P_orb (s)        =  N/A
# asin(i)/c (s)    =  N/A
# eccentricity     =  N/A
# w (rad)          =  N/A
# T_peri           =  N/A
######################################################
   0  6644.989
   1  6247.568
   2  6241.078
   3  6289.215
   4  6217.47
   5  5861.395
   6  6021.325
   7  6086.298
   8  6234.854
   9  6211.806
  10  6498.402
  11  6400.642
  12  6444.425
  13  7015.182
  14  6506.12
  15  6531.557
  16  6635.514
  17  7135.833
  18  7323.701
  19  7517.388
  20  7432.128
  21  6188.522
  22  6259.949
  23  6186.287
  24  6392.282
  25  6495.939
  26  6670.938
  27  6519.842
  28  6600.057
  29  6116.26
  30  6083.022
  31  6652.454
  32  6311.729
  33  6369.149
  34  6318.99
  35  6759.923
  36  6522.511
  37  6347.459
  38  6548.805
  39  6550.772
  40  5803.124
  41  5841.931
  42  6028.437
  43  6072.164
  44  5968.414
  45  6137.197
  46  6591.531
  47  6244.265
  48  5795.029
  49  5892.216
  50  6019.733
  51  6158.973
  52  6239.446
  53  6274.272
  54  6275.842
  55  6403.98
  56  6304.044
  57  5868.911
  58  5901.818
  59  6253.348
  60  6112.53
  61  5756.531
  62  5787.342
  63  6276.702
  64  6310.297
  65  5818.355
  66  5899.812
  67  6091.14
  68  6284.375
  69  6192.394
  70  5710.324
  71  5874.926
  72  5448.568
  73  6231.301
  74  6308.874
  75  5958.205
  76  5435.4
  77  5864.711
  78  6083.458
  79  5846.239
  80  6413.507
  81  6629.847
  82  6076.082
  83  6213.862
  84  5981.069
  85  5969.318
  86  6205.942
  87  6186.764
  88  6272.481
  89  6442.408
  90  6317.925
  91  5810.452
  92  5694.506
  93  5737.098
  94  5534.227
  95  5476.931
  96  5799.995
  97  5947.858
  98  5543.43
  99  5900.369
 100  6329.69
 101  5718.392
 102  5535.387
 103  5920.918
 104  6287.476
 105  6269.193
 106  6913.259
 107  7080.392
 108  6625.824
 109  6038.004
 110  6263.925
 111  5872.67
 112  6050.204
 113  6568.203
 114  6095.262
 115  6314.921
 116  5926.006
 117  5694.651
 118  5824.039
 119  5074.806
 120  5207.014
 121  5015.563
 122  5240.271
 123  5023.519
 124  5221.244
 125  5506.888
 126  5654.505
 127  5402.428
 128  5635.94
 129  5785.083
 130  5555.093
 131  5690.216
 132  5692.081
 133  5786.39
 134  5733.124
 135  5547.498
 136  5902.204
 137  5451.766
 138  6065.838
 139  5990.298
 140  5729.292
 141  5566.198
 142  5839.061
 143  6416.288
 144  6538.533
 145  6752.95
 146  6849.737
 147  6760.068
 148  6306.935
 149  5872.476
 150  5974.954
 151  6174.785
 152  6082.463
 153  6366.935
 154  6595.444
 155  6441.101
 156  6139.5
 157  6493.136
 158  6253.561
 159  6051.115
 160  5928.677
 161  5942.601
 162  5893.576
 163  5840.828
 164  5793.436
 165  5739.203
 166  6156.726
 167  5886.282
 168  5964.91
 169  5800.996
 170  5696.222
 171  6096.166
 172  5983.887
 173  6036.075
 174  5707.464
 175  5703.275
 176  6453.274
 177  6264.269
 178  6235.442
 179  6712.583
 180  6390.09
 181  5666.689
 182  5843.483
 183  5617.049
 184  5748.675
 185  6228.298
 186  6157.829
 187  6729.808
 188  6690.734
 189  6740.467
 190  5791.777
 191  5612.707
 192  5907.813
 193  5990.973
 194  6672.79
 195  7005.237
 196  6622.381
 197  5944.264
 198  5703.394
 199  5853.509
 200  6820.857
 201  6961.572
 202  6844.077
 203  6820.795
 204  6409.643
 205  6312.144
 206  6493.332
 207  7321.697
 208  6900.964
 209  6453.141
 210  6245.75
 211  5807.777
 212  5773.2
 213  5720.287
 214  5876.891
 215  5862.613
 216  6032.603
 217  6011.755
 218  6176
 219  6250.788
 220  5967.084
 221  5786.273
 222  6161.269
 223  6206.158
 224  6099.801
 225  6223.727
 226  6231.786
 227  5478.578
 228  5339.837
 229  5662.307
 230  6364.997
 231  6800.883
 232  7038.586
 233  6782.391
 234  6126.44
 235  6020.392
 236  6193.408
 237  6267.762
 238  6465.272
 239  6441.626
 240  6837.322
 241  6532.719
 242  6125.082
 243  6817.165
 244  6070.881
 245  5946.787
 246  6193.591
 247  6128.473
 248  5966.075
 249  5889.996
 250  6160.653
 251  6249.238
 252  5965.634
 253  6426.281
 254  6087.014
 255  5330.505
 256  5610.828
 257  5496.566
 258  5406.498
 259  5276.473
 260  5665.502
 261  5963.207
 262  5847.655
 263  5748.225
 264  5964.446
 265  5867.211
 266  5872.353
 267  6379.906
 268  6074.294
 269  5725.963
 270  5515.228
 271  5739.327
 272  5914.938
 273  6023.645
 274  6051.966
 275  6225.412
 276  6215.425
 277  6040.373
 278  6011.989
 279  6132.217
 280  6458.778
 281  6522.881
 282  6766.206
 283  6399.386
 284  6194.504
 285  6114.701
 286  5954.544
 287  6247.865
 288  6195.304
 289  6221.507
 290  6714.183
 291  6168.312
 292  5934.606
 293  6366.322
 294  6189.05
 295  6522.047
 296  6414.635
 297  6213.658
 298  5914.27
 299  5724.686
 300  6041.954
 301  6400.404
 302  6411.315
 303  6551.88
 304  6620.949
 305  6476.958
 306  5928.224
 307  6037.141
 308  6136.575
 309  6436.838
 310  6258.29
 311  6510.399
 312  6795.875
 313  6615.467
 314  7197.298
 315  7221.801
 316  7158.473
 317  7150.907
 318  7017.36
 319  6860.905
 320  6276.555
 321  5930.004
 322  5799.744
 323  6337.192
 324  6381.096
 325  6271.893
 326  6353.004
 327  6123.659
 328  6356.035
 329  6366.91
 330  6372.06
 331  5915.412
 332  6118.974
 333  6148.275
 334  6174.386
 335  6061.681
 336  6284.977
 337  6157.007
 338  5831.084
 339  5929.909
 340  6103.69
 341  6247.747
 342  6356.593
 343  6307.541
 344  5740.752
 345  5809.966
 346  5705.964
 347  5907.049
 348  5740.455
 349  5546.847
 350  5343.769
 351  5357.411
 352  5580.031
 353  5642.083
 354  6039.41
 355  6297.915
 356  5865.434
 357  5939.542
 358  6152.027
 359  6383.176
 360  6235.335
 361  6221.486
 362  6035.969
 363  5605.346
 364  5462.591
 365  6207.105
 366  6336.976
 367  6063.583
 368  6263.898
 369  6096.616
 370  6155.205
 371  5878.306
 372  5795.496
 373  5767.753
 374  5692.412
 375  6347.285
 376  5794.008
 377  5814.267
 378  5693.973
 379  5718.987
 380  5542.313
 381  6089.702
 382  6123.513
 383  5929.996
 384  5639.184
 385  5921.317
 386  6714.421
 387  7084.266
 388  6498.736
 389  6167.004
 390  6465.864
 391  6170.98
 392  5954.247
 393  6910.74
 394  6285.049
 395  5685.187
 396  5599.718
 397  5538.035
 398  5641.654
 399  5469.772
 400  6008.438
 401  5913.153
 402  5897.202
 403  5793.803
 404  5306.432
 405  5153.305
 406  5349.708
 407  5160.231
 408  4729.498
 409  5350.587
 410  6117.943
 411  6476.559
 412  5475.034
 413  5188.427
 414  5599.735
 415  6002.13
 416  5958.33
 417  5722.595
 418  5815.414
 419  6103.63
 420  5843.265
 421  6524.455
 422  6267.825
 423  5770.341
 424  5979.866
 425  6260.423
 426  6098.166
 427  6297.649
 428  6544.98
 429  6353.69
 430  5677.904
 431  5665.353
 432  5831.946
 433  5941.588
 434  6263.999
 435  5816.098
 436  5895.315
 437  5783.306
 438  6360.855
 439  6855.872
 440  6412.75
 441  5870.55
 442  5816.416
 443  6132.514
 444  5956.406
 445  5601.804
 446  5928.535
 447  6693.824
 448  6384.93
 449  5853.804
 450  5764.174
 451  5477.062
 452  5571.884
 453  5491.196
 454  5866.842
 455  6164.358
 456  5792.551
 457  5621.027
 458  5890.07
 459  5904.629
 460  5821.924
 461  5707.87
 462  5607.192
 463  5984.683
 464  5951.606
 465  5870.259
 466  5779.261
 467  5717.266
 468  5936.094
 469  6639.363
 470  6837.818
 471  6068.124
 472  6011.536
 473  6209.189
 474  6284.148
 475  5998.108
 476  6072.553
 477  6090.943
 478  6230.867
 479  6496.23
 480  6223.186
 481  5654.474
 482  5484.355
 483  5506.96
 484  6203.12
 485  6511.014
 486  6603.721
 487  7075.327
 488  6493.914
 489  6248.849
 490  6522.002
 491  6195.251
 492  5852.576
 493  6067.99
 494  6269.319
 495  6471.79
 496  6454.943
 497  6610.027
 498  6029.694
 499  5708.799
 500  5959.673
 501  6259.425
 502  6304.266
 503  6699.005
 504  6807.765
 505  6335.985
 506  5926.207
 507  5748.193
 508  5848.075
 509  5909.922
 510  6133.163
 511  6459.764
