# Input file       =  1195689392.107103_cleaned.dat
# Candidate        =  PSR_0332+5434
# Telescope        =  AR
# Epoch_topo       =  58082.997813739617
# Epoch_bary       =  N/A
# T_sample         =  0.002
# Data Folded      =  7340032
# Data Avg         =  1.80426106673777 
# Data StdDev      =  16.6433367070033 
# Profile Bins     =  1024
# Profile Avg      =  12933.0710474545 
# Profile StdDev   =  1409.09215721739 
# Reduced chi-sqr  =  0.654
# Prob(Noise)      <  1   (~0.0 sigma)
# P_topo (ms)      =  714.520849813381  +/- 2.75e-05
# P'_topo (s/s)    =  -0                +/- 1.45e-11
# P''_topo (s/s^2) =  0                 +/- 6.4e-15
# P_bary (ms)      =  N/A
# P'_bary (s/s)    =  N/A
# P''_bary (s/s^2) =  N/A
# P_orb (s)        =  N/A
# asin(i)/c (s)    =  N/A
# eccentricity     =  N/A
# w (rad)          =  N/A
# T_peri           =  N/A
######################################################
   0  12931.04
   1  12858.26
   2  12197.28
   3  12265.38
   4  12785.87
   5  12926.19
   6  12647.8
   7  12998.84
   8  13678.56
   9  14043.93
  10  13952.4
  11  13786.79
  12  13188.89
  13  12724.21
  14  12971.97
  15  13033.52
  16  12846.27
  17  12720.55
  18  12736.07
  19  12597.19
  20  12814.69
  21  12915.17
  22  13283.83
  23  13132.66
  24  13364.09
  25  13619.86
  26  13812.98
  27  13033.12
  28  12734.39
  29  12930.32
  30  13574.98
  31  13557.09
  32  12944.69
  33  13098.41
  34  12675.44
  35  12720.87
  36  12348.13
  37  12371.83
  38  12542.46
  39  12556.35
  40  12380.66
  41  12303.92
  42  12016.43
  43  12450.18
  44  12849.1
  45  12724.56
  46  12766.17
  47  12573.16
  48  12737.49
  49  13084.08
  50  13668.83
  51  13740.38
  52  13597.02
  53  13008.39
  54  12950.09
  55  13023.46
  56  13079.16
  57  13525.26
  58  13684.02
  59  14375.47
  60  13928.84
  61  13567.49
  62  13619.94
  63  13707.33
  64  13832.15
  65  14074.17
  66  13607.45
  67  12837.52
  68  12484.82
  69  12970.55
  70  13306.61
  71  13394.62
  72  13365.1
  73  13326.89
  74  12535.07
  75  12248.36
  76  12232.78
  77  12306.9
  78  12862.82
  79  12837.51
  80  12660.65
  81  12424.63
  82  12372.6
  83  12359.9
  84  12603.52
  85  12880.99
  86  14062.72
  87  14263.62
  88  14033.91
  89  13249.77
  90  13062.35
  91  13604.86
  92  13711.22
  93  13743
  94  13418.43
  95  13155.84
  96  13127.55
  97  13140.11
  98  13431.72
  99  13527.21
 100  14086.47
 101  13872.06
 102  13612.51
 103  13053.03
 104  13337.27
 105  13056.11
 106  13447.53
 107  13931.04
 108  14257.45
 109  13578.49
 110  12770.56
 111  12559.67
 112  12494.16
 113  12463.7
 114  12949.76
 115  13050.25
 116  13272.46
 117  13012.12
 118  13063.85
 119  13435.82
 120  13937.06
 121  14049.1
 122  13849.43
 123  13349.16
 124  13190.55
 125  13217.8
 126  13373.36
 127  13505.05
 128  13571.53
 129  13804.31
 130  13738.29
 131  13044.63
 132  12959.6
 133  12462.46
 134  11821.74
 135  11844.11
 136  12613.54
 137  12895.88
 138  12703.5
 139  12155.76
 140  12642.33
 141  12691.41
 142  12770.22
 143  12850.59
 144  12754.51
 145  13214.38
 146  13137.23
 147  12801.08
 148  12736.17
 149  12835.81
 150  13131.84
 151  13494.69
 152  13294.48
 153  12980.87
 154  13284.01
 155  13342.74
 156  13318.55
 157  13009.25
 158  13420.54
 159  14252.98
 160  13899.21
 161  13431.68
 162  13101.04
 163  13106.47
 164  13905.25
 165  14478.59
 166  14207.66
 167  13990.32
 168  13676.6
 169  13762.57
 170  13679.08
 171  13318.67
 172  13199.51
 173  13065.39
 174  13203.24
 175  13705.16
 176  13550.6
 177  13311.97
 178  13307.97
 179  13260.42
 180  13075.04
 181  12758.29
 182  12788.05
 183  12652.05
 184  12331.86
 185  12264.97
 186  12389.64
 187  12925.46
 188  12567.56
 189  12256.88
 190  12017.77
 191  12357.84
 192  12531.82
 193  12775.15
 194  13098.09
 195  12637.32
 196  12285.92
 197  12617.25
 198  12236.41
 199  12154.45
 200  12148.99
 201  13507.87
 202  13909.66
 203  13477.31
 204  12432.35
 205  12168.91
 206  12353.39
 207  12946.27
 208  13361.89
 209  13459.5
 210  13154.01
 211  12524.85
 212  12054.13
 213  11869.03
 214  12088.91
 215  12430.26
 216  12888.38
 217  12298.46
 218  12126.49
 219  11959.83
 220  11517.89
 221  12327.9
 222  12980.27
 223  13427.25
 224  13175.04
 225  12640.73
 226  13133.68
 227  12899.77
 228  12935.5
 229  13260.11
 230  12634.86
 231  12201.58
 232  11745.54
 233  11545.11
 234  11736.5
 235  12089.21
 236  12586.83
 237  12857.15
 238  12842.12
 239  12913.19
 240  12761.39
 241  12255.88
 242  12147.7
 243  12078.1
 244  12504.12
 245  12731.35
 246  11992.3
 247  12106.75
 248  13141.83
 249  13507.2
 250  13499.01
 251  13134.08
 252  12981.92
 253  12510.11
 254  11675.66
 255  12051.61
 256  11689.64
 257  11678.67
 258  11857.24
 259  12657.78
 260  13091.71
 261  12998.72
 262  12678.52
 263  12603.39
 264  12695.29
 265  12739.15
 266  13087.13
 267  13126.1
 268  12872.57
 269  12725.82
 270  12183.31
 271  12160.38
 272  12528.21
 273  13376.19
 274  13665.5
 275  13536.84
 276  13130.12
 277  12737.86
 278  12547.7
 279  13170.38
 280  14092.16
 281  14311.25
 282  13741.68
 283  13470
 284  13074.79
 285  12922.71
 286  12927.56
 287  13361.2
 288  13629.94
 289  12854.3
 290  11882.3
 291  12064.95
 292  12706.52
 293  13470.72
 294  13698
 295  13898.08
 296  13530.49
 297  13247.66
 298  13133.22
 299  12831.19
 300  12546.87
 301  12665.76
 302  13139.87
 303  12697.86
 304  12753.98
 305  12736.36
 306  12726.99
 307  12918.5
 308  13120.9
 309  13698.85
 310  13435.9
 311  12744.28
 312  12420.35
 313  12501.81
 314  12374.88
 315  12950.49
 316  13176.93
 317  13326.34
 318  12968.58
 319  12492.07
 320  12217.4
 321  12306.54
 322  12496.8
 323  12958.97
 324  12532.31
 325  12455.79
 326  12144.02
 327  11810.28
 328  12133.35
 329  12261.1
 330  12817.48
 331  12798.14
 332  12443.24
 333  11806.43
 334  11720.65
 335  11940.18
 336  12590.67
 337  13121.32
 338  12737.1
 339  12240.94
 340  11224.21
 341  11264.12
 342  11074.1
 343  11207.34
 344  11486.93
 345  11743.3
 346  11641.08
 347  11614.58
 348  11911.23
 349  12550.8
 350  12781.57
 351  12768.08
 352  13191.23
 353  13183.21
 354  12716.35
 355  12503.17
 356  12484.74
 357  12352.38
 358  12488.61
 359  12478.2
 360  12505.61
 361  12235.7
 362  12402.6
 363  13367.43
 364  13066.73
 365  13205.05
 366  12510.5
 367  12574.84
 368  12191.39
 369  12851.85
 370  12734.6
 371  12742.18
 372  12440.9
 373  12705.9
 374  12781.42
 375  12448.6
 376  12325
 377  12149.81
 378  12353.93
 379  12655.05
 380  12625.6
 381  12654
 382  12815.32
 383  12762.66
 384  12346.72
 385  12780.15
 386  13230.48
 387  13918.97
 388  14311.31
 389  13858.22
 390  13208.27
 391  12354.58
 392  12657.65
 393  13184.97
 394  13445.5
 395  13647.06
 396  13190.28
 397  12481.79
 398  12308.88
 399  12357.69
 400  12091.15
 401  12298.73
 402  12809.54
 403  13136.33
 404  13052.62
 405  12730.93
 406  13077.96
 407  13262.63
 408  13045.57
 409  13813.39
 410  13380.2
 411  12891.79
 412  12297.59
 413  12296.08
 414  13008.02
 415  12914.51
 416  13214.6
 417  13595.02
 418  13442.94
 419  13303.63
 420  12935.36
 421  12826.59
 422  13507.85
 423  13609.69
 424  13601.46
 425  12752.49
 426  12351.85
 427  12271.38
 428  12655.67
 429  12468.95
 430  12827.64
 431  13117.29
 432  12984.41
 433  12613.06
 434  12270.44
 435  12484.37
 436  12867.08
 437  13142.31
 438  13318.67
 439  13323.19
 440  13202
 441  12951.62
 442  12546.79
 443  12506.68
 444  12873.74
 445  13124.99
 446  13275.47
 447  12929.83
 448  13196.35
 449  13441.12
 450  13699.75
 451  13652.4
 452  13749.9
 453  13674.02
 454  13217.77
 455  13131.87
 456  12854.42
 457  13110
 458  13593.02
 459  14538.1
 460  14710.62
 461  14397.74
 462  14003.95
 463  14050.66
 464  14137.37
 465  14172.31
 466  14145.64
 467  13805.74
 468  13384.09
 469  13549.25
 470  13169.61
 471  13271.51
 472  13025.26
 473  13665.18
 474  14217.56
 475  14063.73
 476  13994.67
 477  13908.02
 478  13607.73
 479  13957.32
 480  13874.49
 481  14116.47
 482  13310.98
 483  12869.88
 484  12957.02
 485  12920.73
 486  12802.1
 487  13464.63
 488  14083.8
 489  14899.7
 490  14402.91
 491  13531.98
 492  13022.89
 493  12858.48
 494  13296.64
 495  13594.71
 496  13179.2
 497  12496.29
 498  12308.51
 499  11969.24
 500  12733.39
 501  12684.92
 502  13406.12
 503  13307.28
 504  13120.4
 505  12902.94
 506  12725.31
 507  12666.44
 508  13543.53
 509  13584.14
 510  13518.74
 511  13253.16
 512  13141.68
 513  12544.16
 514  12333.13
 515  12818.49
 516  13573.09
 517  13357.52
 518  13543.06
 519  13570.94
 520  13648.91
 521  13143.06
 522  13372.67
 523  13182.6
 524  13145.46
 525  12434.61
 526  12056.38
 527  12000.39
 528  12090.04
 529  12163.64
 530  12525.81
 531  12662.66
 532  12884.69
 533  12463.96
 534  11981.29
 535  11537.2
 536  11961.85
 537  13019.08
 538  13543.16
 539  13184.68
 540  12833.57
 541  13032.11
 542  13375.51
 543  13332.92
 544  13608.95
 545  14285.69
 546  14622.31
 547  14006.16
 548  13001.37
 549  12627.07
 550  12436.39
 551  12513.72
 552  12102.74
 553  11738.85
 554  11995.92
 555  12070.18
 556  12145.97
 557  12501.01
 558  12777.74
 559  12965.84
 560  12951.26
 561  12781.35
 562  12609.39
 563  12502.16
 564  12239.54
 565  12492.61
 566  12673.43
 567  12574.51
 568  12204.65
 569  11695.98
 570  12300.85
 571  12509.48
 572  12706.03
 573  13708.93
 574  13891.79
 575  13980.18
 576  12850.32
 577  12223.25
 578  12016.2
 579  12215.79
 580  12867.97
 581  13795.11
 582  13529.06
 583  13145.08
 584  12714.32
 585  12681.82
 586  13008.91
 587  13195.36
 588  13052.71
 589  12897.09
 590  12571.02
 591  12602.67
 592  12500.92
 593  11901.44
 594  12625.59
 595  12918.14
 596  13336.28
 597  13105.63
 598  13172.1
 599  12799.46
 600  12553.41
 601  12764.59
 602  13203.27
 603  13674.38
 604  13825.89
 605  13592.34
 606  12783.98
 607  12485.91
 608  12997.76
 609  13125.13
 610  12920
 611  12614
 612  12638.21
 613  13001.08
 614  12982.44
 615  13120.7
 616  13218.54
 617  13290.58
 618  13072.87
 619  13309.32
 620  12833.4
 621  12532.73
 622  12437.72
 623  13241.57
 624  13709.93
 625  13728.03
 626  13808.21
 627  14369.64
 628  13958.56
 629  13344.75
 630  13374.59
 631  13487.18
 632  13962.89
 633  13518.72
 634  13561.68
 635  13779.33
 636  14039.62
 637  14590.51
 638  14386.02
 639  14204.72
 640  13630.82
 641  13544.33
 642  13195.3
 643  13249.77
 644  12746.49
 645  13190.7
 646  13050.52
 647  12900.11
 648  12664.81
 649  12449.44
 650  12250.41
 651  13093.02
 652  13683.6
 653  13894.72
 654  13499.98
 655  12588.5
 656  12845
 657  13038.92
 658  13256.39
 659  13550.54
 660  13837.65
 661  13559.52
 662  13072.51
 663  12440.93
 664  12803.62
 665  12573.69
 666  12859.73
 667  12814.17
 668  12694.12
 669  12289.57
 670  12363.88
 671  11787.2
 672  12122.18
 673  12380.93
 674  12192.42
 675  11866.13
 676  11189.44
 677  11561.92
 678  11384.31
 679  10890.75
 680  11400.73
 681  11827.22
 682  12171.03
 683  12257.22
 684  12605.84
 685  12736.23
 686  12448.44
 687  12270.49
 688  13264.46
 689  13373.75
 690  13307.92
 691  12943.99
 692  12325.88
 693  12312.69
 694  12570.61
 695  13054.38
 696  13003.42
 697  12581.77
 698  12123.12
 699  12209.22
 700  12201.69
 701  12761.42
 702  13093.86
 703  13098.09
 704  12806.53
 705  12273.26
 706  11956.09
 707  12041.92
 708  12228.5
 709  12943.06
 710  13321.09
 711  13222.21
 712  12934.12
 713  12950.9
 714  12649.23
 715  12110.34
 716  11806.92
 717  11733.96
 718  12180.08
 719  12465.88
 720  12107.83
 721  12478.33
 722  12271.04
 723  12881.63
 724  12868.84
 725  11979.37
 726  11437.53
 727  11272.09
 728  11494.6
 729  11912.81
 730  11798.81
 731  12376.81
 732  12646.42
 733  12808.85
 734  12475.16
 735  12062.36
 736  11558.33
 737  12668.79
 738  12603.93
 739  12846.78
 740  12706
 741  12518.69
 742  12353.1
 743  12212.22
 744  12445.96
 745  13122.41
 746  13164.02
 747  13280.72
 748  12786.41
 749  12364.56
 750  12639.79
 751  12685.16
 752  12653.61
 753  12798.6
 754  12333.3
 755  12241.33
 756  12245.99
 757  11744.48
 758  11786.9
 759  11735.56
 760  12360.99
 761  12320.01
 762  12121.39
 763  12133.11
 764  12576.48
 765  12789.23
 766  13189.19
 767  13008.32
 768  13234.12
 769  12600.59
 770  12094.67
 771  11964.06
 772  12266.22
 773  12205.17
 774  12436.55
 775  12610.92
 776  12781.34
 777  13013.83
 778  12719.65
 779  12653.39
 780  12680.49
 781  12784.06
 782  12676.14
 783  12413.89
 784  12312.5
 785  12205.66
 786  12222.02
 787  12445.39
 788  13153.53
 789  13003.93
 790  13069.8
 791  12292.74
 792  11989.8
 793  11872.13
 794  12132.17
 795  12628.69
 796  12806.74
 797  12587.5
 798  12443.76
 799  12467.94
 800  12310.43
 801  12010.27
 802  12583.76
 803  12692.09
 804  12718.62
 805  12174.6
 806  12225.59
 807  11982.07
 808  11680.09
 809  11975.73
 810  12669.63
 811  13283.03
 812  13299.28
 813  13080.91
 814  12785.2
 815  12877.82
 816  13331.76
 817  13731.35
 818  13297.76
 819  12770.35
 820  12836.83
 821  12443.17
 822  11606.53
 823  11528.1
 824  12150.35
 825  13030.56
 826  13698.51
 827  13577.08
 828  13326.97
 829  13068.66
 830  12879.32
 831  12951.78
 832  12362.42
 833  12212.05
 834  12259.17
 835  11999.18
 836  12120.53
 837  12299.27
 838  12850.47
 839  12859.33
 840  12136.07
 841  12179.5
 842  12413.28
 843  12106.61
 844  12734.17
 845  13448.68
 846  13765.8
 847  13178.55
 848  12940.61
 849  12708.67
 850  12882.63
 851  12923.71
 852  13403.5
 853  13483.19
 854  13357.34
 855  13184.11
 856  12784.37
 857  12617.35
 858  12628.77
 859  12484.75
 860  12810.43
 861  12643.42
 862  12653.39
 863  12555.99
 864  12654.35
 865  12473.19
 866  12968.86
 867  13618.11
 868  13799.35
 869  13254.94
 870  12752.33
 871  12289.21
 872  12648.84
 873  13723.82
 874  14385.33
 875  13759.51
 876  13359.88
 877  13176.4
 878  13320.19
 879  12874.74
 880  13178.41
 881  13851.96
 882  13955.4
 883  13242.87
 884  12534.81
 885  12539.86
 886  12530.74
 887  12877.56
 888  13206.14
 889  13438.75
 890  13427
 891  13287.03
 892  13347.52
 893  13453.99
 894  13197.94
 895  13513.72
 896  13510.78
 897  13182.79
 898  13187.09
 899  13590.86
 900  13184.12
 901  13069.22
 902  12880.55
 903  13550.66
 904  13738.06
 905  13367.36
 906  13589.29
 907  13056.44
 908  12367.09
 909  12876.75
 910  13393.47
 911  13646.28
 912  12739.87
 913  12613.39
 914  13062.68
 915  12798.44
 916  12786.3
 917  13064.39
 918  13197.4
 919  12984.79
 920  12886
 921  12272.41
 922  12217.03
 923  12759.93
 924  13419.11
 925  14306.47
 926  13672.69
 927  13086.82
 928  12669.52
 929  12517.62
 930  13034.62
 931  13124.35
 932  12936.58
 933  12947.76
 934  12549.75
 935  12839.2
 936  12505.91
 937  12262.88
 938  12852.01
 939  13124.91
 940  12984.06
 941  12854.11
 942  12714.47
 943  13106.97
 944  13123.75
 945  13283.21
 946  13241.93
 947  13047.83
 948  12550.68
 949  12631.42
 950  12668.98
 951  12690.37
 952  13203.2
 953  13500.79
 954  13623.8
 955  12916.31
 956  12661.58
 957  12394.54
 958  13049.52
 959  13466.2
 960  13631
 961  13547.69
 962  13519.77
 963  13537.9
 964  12988.37
 965  12450.65
 966  12492.7
 967  13475.28
 968  14267.56
 969  13289.2
 970  12514.11
 971  12691.01
 972  13516.1
 973  13858.31
 974  14428.27
 975  14656.11
 976  14870.15
 977  14279.77
 978  14027.58
 979  14254.32
 980  14274.64
 981  14370.32
 982  14579.41
 983  14162.03
 984  13865.54
 985  13184.28
 986  13373.79
 987  13977.27
 988  13929.76
 989  13883.05
 990  13733.05
 991  13659.01
 992  13675.22
 993  13212.86
 994  12845.8
 995  13056.49
 996  13320.64
 997  13581.37
 998  13470.4
 999  13362.15
1000  13477.44
1001  13069.55
1002  12603.88
1003  12835.63
1004  13069.01
1005  13426.91
1006  13545.69
1007  13276.87
1008  13173.75
1009  13710.87
1010  14238.85
1011  14215.95
1012  13204.96
1013  13223.64
1014  13624.78
1015  13352.96
1016  13361.54
1017  13241.59
1018  13578.88
1019  13075.02
1020  13204.28
1021  13711.6
1022  13923.57
1023  13346.37
