# Input file       =  1195243722.108974_cleaned.dat
# Candidate        =  PSR_0332+5434
# Telescope        =  AR
# Epoch_topo       =  58077.839596168684
# Epoch_bary       =  N/A
# T_sample         =  0.002
# Data Folded      =  7340032
# Data Avg         =  0.0524157933180441
# Data StdDev      =  1.000103262193   
# Profile Bins     =  512
# Profile Avg      =  751.701406992066 
# Profile StdDev   =  119.745400272677 
# Reduced chi-sqr  =  0.844
# Prob(Noise)      <  0.996   (~0.0 sigma)
# P_topo (ms)      =  714.515172248248  +/- 4.73e-05
# P'_topo (s/s)    =  -0                +/- 2.49e-11
# P''_topo (s/s^2) =  0                 +/- 1.1e-14
# P_bary (ms)      =  N/A
# P'_bary (s/s)    =  N/A
# P''_bary (s/s^2) =  N/A
# P_orb (s)        =  N/A
# asin(i)/c (s)    =  N/A
# eccentricity     =  N/A
# w (rad)          =  N/A
# T_peri           =  N/A
######################################################
   0  763.9062
   1  816.1985
   2  686.5614
   3  609.7637
   4  800.496
   5  765.8453
   6  685.8924
   7  725.1658
   8  843.707
   9  847.8832
  10  724.2416
  11  686.5851
  12  626.9421
  13  628.6135
  14  694.0549
  15  824.7878
  16  848.8785
  17  776.5547
  18  764.0355
  19  811.6602
  20  738.4505
  21  705.8418
  22  794.9652
  23  853.0676
  24  751.3315
  25  755.4232
  26  868.5251
  27  738.0967
  28  681.3408
  29  694.963
  30  726.3894
  31  602.898
  32  684.7898
  33  821.3401
  34  817.2795
  35  723.5369
  36  647.8601
  37  626.5173
  38  703.8948
  39  706.6855
  40  771.1
  41  790.4434
  42  794.4144
  43  738.0781
  44  779.2202
  45  681.1218
  46  687.6599
  47  791.2766
  48  782.3914
  49  671.6474
  50  683.4404
  51  787.5725
  52  815.1027
  53  801.4608
  54  801.472
  55  994.1256
  56  847.1891
  57  647.6819
  58  710.2035
  59  701.8292
  60  692.6331
  61  697.788
  62  644.1472
  63  712.0746
  64  789.4457
  65  746.8745
  66  825.2076
  67  740.0261
  68  704.4426
  69  689.8754
  70  728.14
  71  735.5624
  72  806.9269
  73  886.7853
  74  851.6384
  75  825.7842
  76  831.2188
  77  875.7604
  78  730.0015
  79  719.6082
  80  836.0452
  81  821.7073
  82  823.3025
  83  837.0412
  84  780.7751
  85  759.4571
  86  777.6753
  87  823.9504
  88  803.0618
  89  737.3694
  90  740.4985
  91  804.2256
  92  845.2533
  93  789.6447
  94  806.0349
  95  876.5571
  96  842.9611
  97  757.7926
  98  727.7582
  99  731.2991
 100  667.4205
 101  701.6121
 102  802.3595
 103  720.9013
 104  637.5023
 105  636.4461
 106  691.9626
 107  736.6184
 108  723.1497
 109  777.9033
 110  681.9684
 111  759.5834
 112  801.7032
 113  795.1159
 114  676.3701
 115  652.9883
 116  723.071
 117  686.2089
 118  719.9092
 119  697.6653
 120  725.9578
 121  742.2256
 122  696.9577
 123  728.2465
 124  662.0568
 125  681.2161
 126  764.0092
 127  765.709
 128  717.1224
 129  699.2109
 130  789.3904
 131  839.0158
 132  839.5703
 133  803.2711
 134  751.9645
 135  647.9785
 136  644.5604
 137  801.516
 138  862.3129
 139  818.9278
 140  854.4523
 141  793.8941
 142  725.3546
 143  756.6417
 144  764.7821
 145  811.5487
 146  827.4229
 147  780.9413
 148  714.3077
 149  634.9952
 150  537.4208
 151  669.0778
 152  834.9448
 153  785.6765
 154  772.7952
 155  794.902
 156  720.0932
 157  599.8536
 158  705.6823
 159  764.7471
 160  691.3409
 161  762.9434
 162  823.4396
 163  797.3234
 164  786.6019
 165  746.091
 166  677.4166
 167  748.1602
 168  781.5098
 169  839.2803
 170  820.6722
 171  703.7761
 172  761.8237
 173  874.8271
 174  871.6523
 175  836.3657
 176  749.2124
 177  696.7324
 178  712.9861
 179  793.3326
 180  826.9703
 181  797.6545
 182  810.9249
 183  819.5958
 184  741.4832
 185  742.3531
 186  820.7836
 187  733.639
 188  685.9662
 189  780.3719
 190  840.5291
 191  795.9518
 192  755.2952
 193  740.9166
 194  775.7123
 195  765.7975
 196  764.469
 197  781.8312
 198  730.1465
 199  633.2435
 200  669.5968
 201  700.8628
 202  800.5521
 203  737.0312
 204  705.3198
 205  802.7238
 206  736.0658
 207  760.6693
 208  842.7363
 209  774.2976
 210  640.0295
 211  682.0892
 212  721.938
 213  736.943
 214  725.4168
 215  794.2952
 216  785.2385
 217  644.2251
 218  575.8051
 219  608.9294
 220  678.1177
 221  721.9988
 222  691.6819
 223  754.3732
 224  718.243
 225  676.5052
 226  696.6744
 227  772.8142
 228  728.5582
 229  659.793
 230  846.1687
 231  880.9641
 232  773.0866
 233  835.8238
 234  863.3547
 235  749.3146
 236  689.7115
 237  808.4567
 238  782.3007
 239  780.1404
 240  744.0988
 241  825.0877
 242  682.7222
 243  610.3079
 244  686.8879
 245  699.8183
 246  630.1661
 247  678.7391
 248  772.5764
 249  841.8214
 250  798.2563
 251  758.2346
 252  807.4741
 253  798.1977
 254  926.3817
 255  907.7751
 256  769.4047
 257  812.6943
 258  799.088
 259  781.1968
 260  734.9323
 261  611.8326
 262  694.6035
 263  685.1508
 264  635.41
 265  626.2469
 266  707.5366
 267  676.2753
 268  706.1921
 269  622.6541
 270  564.099
 271  622.3111
 272  771.2137
 273  835.2571
 274  838.0465
 275  771.7197
 276  735.7062
 277  696.0366
 278  544.6871
 279  630.8548
 280  715.6959
 281  696.7172
 282  507.1587
 283  534.9285
 284  679.7031
 285  680.595
 286  747.7729
 287  750.9343
 288  718.1636
 289  791.121
 290  787.0503
 291  748.6113
 292  789.1986
 293  723.9894
 294  764.1844
 295  801.7104
 296  758.1746
 297  725.3429
 298  809.8136
 299  891.8843
 300  777.1188
 301  805.5482
 302  872.5386
 303  827.744
 304  911.7159
 305  992.1544
 306  1163.22
 307  1154.024
 308  1142.645
 309  1019.372
 310  834.5219
 311  785.8307
 312  745.2106
 313  839.177
 314  755.4311
 315  744.8849
 316  764.7419
 317  762.556
 318  733.4376
 319  711.858
 320  770.9465
 321  666.0157
 322  670.0935
 323  817.472
 324  723.6228
 325  702.6812
 326  723.4662
 327  701.7971
 328  704.843
 329  665.5457
 330  734.7694
 331  712.1018
 332  713.708
 333  776.8608
 334  795.4702
 335  785.5643
 336  778.784
 337  761.1078
 338  781.3135
 339  790.5027
 340  721.1066
 341  743.7466
 342  759.0143
 343  817.7407
 344  784.9053
 345  642.8914
 346  660.5219
 347  675.773
 348  718.3599
 349  768.2268
 350  764.4659
 351  838.3919
 352  796.3276
 353  703.3309
 354  798.0579
 355  773.7432
 356  800.4962
 357  834.7303
 358  821.3237
 359  922.7903
 360  795.6024
 361  626.4908
 362  655.3969
 363  681.335
 364  712.1454
 365  733.9662
 366  835.8799
 367  849.3952
 368  767.5702
 369  754.5087
 370  763.4962
 371  664.0959
 372  778.8906
 373  872.9697
 374  846.1381
 375  707.834
 376  733.5217
 377  817.1546
 378  813.0509
 379  795.3315
 380  749.2528
 381  757.8375
 382  808.6673
 383  863.128
 384  773.4669
 385  743.0627
 386  750.954
 387  784.0453
 388  818.6402
 389  810.5764
 390  891.6312
 391  868.5049
 392  790.2415
 393  836.1876
 394  843.8474
 395  882.9152
 396  781.2647
 397  761.0706
 398  794.141
 399  793.6869
 400  718.516
 401  747.548
 402  815.0306
 403  840.5048
 404  771.8293
 405  813.317
 406  772.1494
 407  621.6862
 408  708.663
 409  904.6823
 410  901.7546
 411  818.9455
 412  717.7664
 413  658.5681
 414  594.8629
 415  697.4651
 416  802.9139
 417  789.4818
 418  744.744
 419  672.9784
 420  713.7998
 421  675.8059
 422  645.4624
 423  698.7841
 424  671.7657
 425  647.5119
 426  668.7092
 427  851.0419
 428  831.7219
 429  755.8483
 430  831.1317
 431  823.5044
 432  825.2401
 433  835.3777
 434  776.3695
 435  740.4722
 436  765.235
 437  829.706
 438  833.3342
 439  731.8848
 440  628.5353
 441  734.4371
 442  748.0988
 443  647.7265
 444  727.2872
 445  723.8766
 446  673.4005
 447  670.5578
 448  731.8224
 449  735.4099
 450  705.8553
 451  697.6064
 452  777.6403
 453  623.3118
 454  599.2735
 455  625.5321
 456  820.1511
 457  765.918
 458  636.8364
 459  654.7697
 460  651.1077
 461  616.1407
 462  704.0829
 463  718.7033
 464  718.4608
 465  658.808
 466  698.4269
 467  720.7607
 468  725.8578
 469  674.6997
 470  715.0358
 471  832.3204
 472  792.1079
 473  656.4164
 474  611.8909
 475  559.0616
 476  594.3638
 477  687.0496
 478  730.9637
 479  632.0989
 480  737.1927
 481  851.7204
 482  804.1202
 483  750.5615
 484  790.114
 485  773.6401
 486  719.7109
 487  721.6117
 488  816.0425
 489  722.1187
 490  644.4525
 491  653.1325
 492  766.2486
 493  734.9986
 494  742.2356
 495  900.5706
 496  763.5775
 497  669.177
 498  755.9625
 499  810.0881
 500  671.0183
 501  713.0886
 502  814.4682
 503  862.278
 504  807.6693
 505  751.3386
 506  779.0312
 507  718.7627
 508  701.7834
 509  737.1617
 510  669.1054
 511  685.003
