# Input file       =  1195315227.114825_cleaned.dat
# Candidate        =  PSR_0332+5434
# Telescope        =  AR
# Epoch_topo       =  58078.667200403070
# Epoch_bary       =  N/A
# T_sample         =  0.002
# Data Folded      =  7143424
# Data Avg         =  0.104093533936849
# Data StdDev      =  1.00040949891502 
# Profile Bins     =  512
# Profile Avg      =  1452.31717107266 
# Profile StdDev   =  118.166953914057 
# Reduced chi-sqr  =  0.639
# Prob(Noise)      <  1   (~0.0 sigma)
# P_topo (ms)      =  714.516001335565  +/- 3.84e-05
# P'_topo (s/s)    =  -0                +/- 2.08e-11
# P''_topo (s/s^2) =  0                 +/- 9.45e-15
# P_bary (ms)      =  N/A
# P'_bary (s/s)    =  N/A
# P''_bary (s/s^2) =  N/A
# P_orb (s)        =  N/A
# asin(i)/c (s)    =  N/A
# eccentricity     =  N/A
# w (rad)          =  N/A
# T_peri           =  N/A
######################################################
   0  1802.333
   1  1680.165
   2  1438.23
   3  1416.721
   4  1406.868
   5  1490.174
   6  1461.05
   7  1513.334
   8  1565.021
   9  1475.135
  10  1424.214
  11  1384.272
  12  1425.446
  13  1520.675
  14  1606.592
  15  1574.245
  16  1388.925
  17  1337.774
  18  1435.293
  19  1517.728
  20  1564.888
  21  1519.274
  22  1538.101
  23  1409.797
  24  1460.931
  25  1501.28
  26  1471.806
  27  1427.176
  28  1383.117
  29  1490.435
  30  1560.113
  31  1494.831
  32  1463.84
  33  1470.125
  34  1490.801
  35  1442.996
  36  1502.731
  37  1480.977
  38  1484.478
  39  1496.846
  40  1485.992
  41  1398.006
  42  1414.584
  43  1466.412
  44  1433.59
  45  1373.091
  46  1388.291
  47  1516.617
  48  1625.591
  49  1523.997
  50  1458.301
  51  1491.336
  52  1455.661
  53  1499.837
  54  1525.745
  55  1491.187
  56  1386.6
  57  1336.183
  58  1349.497
  59  1296.571
  60  1350.635
  61  1342.241
  62  1323.954
  63  1474.705
  64  1494.363
  65  1568.419
  66  1415.25
  67  1509.265
  68  1493.837
  69  1372.744
  70  1418.154
  71  1426.821
  72  1518.937
  73  1387.61
  74  1375.743
  75  1412.734
  76  1472.404
  77  1455.074
  78  1469.011
  79  1547.246
  80  1520.206
  81  1483.264
  82  1425.25
  83  1390.02
  84  1353.911
  85  1378.291
  86  1504.635
  87  1518.025
  88  1414.758
  89  1344.651
  90  1377.8
  91  1459.03
  92  1449.723
  93  1512.407
  94  1568.358
  95  1500.58
  96  1465.835
  97  1446.002
  98  1433.47
  99  1406.891
 100  1467.57
 101  1488.252
 102  1325.189
 103  1387.08
 104  1543.89
 105  1537.895
 106  1519.585
 107  1504.377
 108  1486.151
 109  1424.605
 110  1344.157
 111  1499.188
 112  1388.54
 113  1398.669
 114  1439.031
 115  1513.567
 116  1469.434
 117  1354.839
 118  1317.96
 119  1429.737
 120  1505.331
 121  1481.839
 122  1543.271
 123  1533.563
 124  1478.569
 125  1541.582
 126  1556.76
 127  1572.944
 128  1560.948
 129  1485.683
 130  1430.915
 131  1371.073
 132  1443.509
 133  1498.576
 134  1502.253
 135  1462.212
 136  1456.284
 137  1427.021
 138  1441.381
 139  1538.743
 140  1467.195
 141  1385.732
 142  1401.062
 143  1498.935
 144  1483.66
 145  1343.716
 146  1381.4
 147  1498.022
 148  1437.742
 149  1447.185
 150  1401.743
 151  1482.056
 152  1437.95
 153  1517.601
 154  1525.435
 155  1432.063
 156  1399.091
 157  1376.727
 158  1506.804
 159  1450.723
 160  1424.29
 161  1484.312
 162  1508.937
 163  1468.204
 164  1488.559
 165  1427.048
 166  1346.961
 167  1355.797
 168  1485.039
 169  1517.006
 170  1464.781
 171  1418.711
 172  1380.307
 173  1340.541
 174  1340.924
 175  1480.771
 176  1513.065
 177  1433.056
 178  1427.914
 179  1467.369
 180  1483.64
 181  1483.485
 182  1481.709
 183  1550.816
 184  1438.559
 185  1326.65
 186  1389.555
 187  1472.995
 188  1454.472
 189  1411.417
 190  1467.359
 191  1450.267
 192  1484.717
 193  1465.682
 194  1551.749
 195  1505.149
 196  1510.356
 197  1524.133
 198  1431.788
 199  1496.027
 200  1515.442
 201  1565.25
 202  1485.612
 203  1402.556
 204  1438.386
 205  1402.772
 206  1447.389
 207  1447.516
 208  1503.95
 209  1492.353
 210  1495.651
 211  1498.61
 212  1440.941
 213  1408.02
 214  1399.139
 215  1448.342
 216  1515.23
 217  1441.534
 218  1504.145
 219  1494.893
 220  1397.814
 221  1466.056
 222  1490.178
 223  1546.216
 224  1458.379
 225  1540.117
 226  1578.249
 227  1440.317
 228  1516.484
 229  1556.71
 230  1487.053
 231  1434.382
 232  1447.156
 233  1526.629
 234  1508.356
 235  1419.355
 236  1385.062
 237  1454.399
 238  1378.639
 239  1365.576
 240  1449.144
 241  1468.045
 242  1473.578
 243  1480.836
 244  1526.452
 245  1453.136
 246  1397.15
 247  1481.383
 248  1514.307
 249  1476.757
 250  1440.279
 251  1485.892
 252  1561.699
 253  1498.958
 254  1583.175
 255  1582.553
 256  1498.684
 257  1509.236
 258  1527.562
 259  1537.052
 260  1337.356
 261  1386.438
 262  1453.034
 263  1460.12
 264  1553.667
 265  1463.07
 266  1401.509
 267  1341.966
 268  1436.065
 269  1471.755
 270  1427.826
 271  1373.198
 272  1377.79
 273  1445.122
 274  1474.989
 275  1405.327
 276  1377.063
 277  1302.833
 278  1339.507
 279  1359.516
 280  1489.31
 281  1445.903
 282  1373.484
 283  1432.742
 284  1411.419
 285  1414.567
 286  1439.585
 287  1516.75
 288  1500.158
 289  1462.856
 290  1481.73
 291  1344.018
 292  1370.125
 293  1420.877
 294  1417.794
 295  1460.863
 296  1388.055
 297  1448.861
 298  1454.108
 299  1377.19
 300  1377.643
 301  1381.495
 302  1432.326
 303  1389.88
 304  1392.79
 305  1470.767
 306  1438.245
 307  1416.922
 308  1363.219
 309  1384.607
 310  1390.731
 311  1510.123
 312  1473.001
 313  1435.901
 314  1377.844
 315  1390.875
 316  1497.816
 317  1462.188
 318  1509.865
 319  1506.38
 320  1395.869
 321  1353.352
 322  1407.91
 323  1397.78
 324  1385.032
 325  1444.771
 326  1501.539
 327  1475.014
 328  1485.668
 329  1468.34
 330  1464.666
 331  1369.079
 332  1307.946
 333  1399.341
 334  1408.263
 335  1447.574
 336  1430.991
 337  1389.994
 338  1371.759
 339  1348.018
 340  1427.185
 341  1484.613
 342  1386.104
 343  1377.306
 344  1416.398
 345  1385.751
 346  1288.639
 347  1332.981
 348  1394.089
 349  1369.591
 350  1394.806
 351  1388.217
 352  1411.736
 353  1424.563
 354  1409.264
 355  1463.336
 356  1397.603
 357  1370.081
 358  1488.562
 359  1546.669
 360  1507.231
 361  1359.452
 362  1409.299
 363  1408.354
 364  1413.078
 365  1389.411
 366  1415.653
 367  1411.184
 368  1339.666
 369  1397.922
 370  1406.62
 371  1422.661
 372  1464.016
 373  1579.088
 374  1479.778
 375  1393.188
 376  1475.677
 377  1460.713
 378  1448.205
 379  1510.273
 380  1464.609
 381  1391.524
 382  1353.04
 383  1478.584
 384  1425.39
 385  1355.184
 386  1339.26
 387  1341.987
 388  1374.9
 389  1333.068
 390  1400.125
 391  1434.586
 392  1388.525
 393  1419.219
 394  1446.843
 395  1371.058
 396  1284.057
 397  1416.471
 398  1516.455
 399  1438.391
 400  1376.949
 401  1426.393
 402  1471.078
 403  1516.981
 404  1473.62
 405  1535.073
 406  1489.988
 407  1484.097
 408  1475.036
 409  1412.558
 410  1386.362
 411  1436.768
 412  1496.959
 413  1446.096
 414  1450.611
 415  1503.297
 416  1513.695
 417  1390.074
 418  1415.314
 419  1452.21
 420  1492.347
 421  1461.338
 422  1390.294
 423  1396.493
 424  1410.602
 425  1480.903
 426  1457.634
 427  1478.776
 428  1446.629
 429  1369.718
 430  1319.381
 431  1401.398
 432  1453.461
 433  1505.014
 434  1456.02
 435  1419.389
 436  1457.252
 437  1388.885
 438  1414.732
 439  1342.711
 440  1425.411
 441  1457.328
 442  1381.06
 443  1453.787
 444  1404.062
 445  1472.875
 446  1476.67
 447  1397.166
 448  1456.703
 449  1437.57
 450  1441.499
 451  1486.691
 452  1395.086
 453  1426.7
 454  1432
 455  1560.254
 456  1404.533
 457  1384.451
 458  1407.978
 459  1469.433
 460  1457.878
 461  1467.124
 462  1543.987
 463  1467.741
 464  1405.99
 465  1390.551
 466  1413.666
 467  1441.317
 468  1406.467
 469  1515.277
 470  1522.027
 471  1320.683
 472  1352.24
 473  1385.897
 474  1415.38
 475  1379.034
 476  1506.706
 477  1489.57
 478  1411.474
 479  1445.994
 480  1471.4
 481  1403.273
 482  1417.777
 483  1483.868
 484  1568.669
 485  1482.302
 486  1473.094
 487  1539.806
 488  1503.831
 489  1399.059
 490  1463.875
 491  1556.397
 492  1479.404
 493  1479.176
 494  1588.816
 495  1640.484
 496  1642.787
 497  1639.974
 498  1666.42
 499  1557.72
 500  1504.848
 501  1528.839
 502  1554.659
 503  1541.959
 504  1564.828
 505  1603.489
 506  1539.062
 507  1441.788
 508  1566.18
 509  1609.033
 510  1633.497
 511  1707.425
