# Input file       =  1195171863.10669_cleaned.dat
# Candidate        =  PSR_0332+5434
# Telescope        =  AR
# Epoch_topo       =  58077.007894753355
# Epoch_bary       =  N/A
# T_sample         =  0.002
# Data Folded      =  7340032
# Data Avg         =  1.04763288394523 
# Data StdDev      =  21.4749002120303 
# Profile Bins     =  1024
# Profile Avg      =  7509.43534312183 
# Profile StdDev   =  1818.15185251073 
# Reduced chi-sqr  =  0.458
# Prob(Noise)      <  1   (~0.0 sigma)
# P_topo (ms)      =  714.514638687035  +/- 2.74e-05
# P'_topo (s/s)    =  -0                +/- 1.44e-11
# P''_topo (s/s^2) =  0                 +/- 6.38e-15
# P_bary (ms)      =  N/A
# P'_bary (s/s)    =  N/A
# P''_bary (s/s^2) =  N/A
# P_orb (s)        =  N/A
# asin(i)/c (s)    =  N/A
# eccentricity     =  N/A
# w (rad)          =  N/A
# T_peri           =  N/A
######################################################
   0  7687.763
   1  7545.025
   2  8060.919
   3  8307.249
   4  7922.9
   5  8340.776
   6  8347.817
   7  8515.993
   8  8617.596
   9  7534.735
  10  7435.422
  11  7284.023
  12  7436.858
  13  7552.485
  14  7489.42
  15  7553.058
  16  8034.039
  17  7576.55
  18  7377.935
  19  6897.458
  20  6541.557
  21  6779.706
  22  6817.006
  23  6294.753
  24  6617.599
  25  6171.912
  26  6122.172
  27  6677.812
  28  6949.342
  29  7636.977
  30  7970.15
  31  7461.247
  32  7067.996
  33  7040.665
  34  6904.708
  35  7082.377
  36  6562.233
  37  6434.387
  38  6403.622
  39  5675.456
  40  6883.798
  41  7383.361
  42  7730.458
  43  7949.093
  44  7184.963
  45  7237.691
  46  6723.827
  47  5865.778
  48  6208.943
  49  6437.85
  50  6907.941
  51  6970.084
  52  6670.972
  53  5779.874
  54  5928.315
  55  6015.653
  56  6097.799
  57  6383.564
  58  6326.813
  59  7335.732
  60  6780.329
  61  6952.779
  62  7290.602
  63  7001.34
  64  6635.49
  65  6836.536
  66  6684.288
  67  6937.849
  68  6648.591
  69  6843.226
  70  8057.592
  71  7698.948
  72  8289.1
  73  8060.37
  74  6953.206
  75  7191.081
  76  7369.568
  77  7634.939
  78  7497.411
  79  6106.078
  80  6478.883
  81  6556.895
  82  6250.793
  83  6370.396
  84  6342.417
  85  6419.025
  86  7240.269
  87  6823.25
  88  7124.051
  89  7223.669
  90  6989.26
  91  7535.128
  92  6891.025
  93  6904.278
  94  7876.206
  95  8054.857
  96  7799.351
  97  7156.434
  98  7045.98
  99  7423.301
 100  7338.247
 101  6984.073
 102  7474.124
 103  7236.117
 104  7069.005
 105  7288.748
 106  6847.447
 107  7082.318
 108  6953.016
 109  7175.453
 110  7650.437
 111  7312.217
 112  7595.836
 113  8252.887
 114  8174.798
 115  8158.61
 116  7829.949
 117  7614.094
 118  7915.26
 119  7585.284
 120  7540.583
 121  7923.664
 122  7857.102
 123  7932.939
 124  7677.599
 125  7292.71
 126  7678.764
 127  7966.96
 128  7376.927
 129  7742.354
 130  7959.875
 131  8201.71
 132  7898.014
 133  6936.804
 134  6989.951
 135  7491.967
 136  7360.619
 137  7944.686
 138  7766.695
 139  7596.957
 140  7562.82
 141  6938.652
 142  6885.808
 143  7479.707
 144  7139.263
 145  8080.864
 146  7720.008
 147  7672.314
 148  8023.896
 149  7735.079
 150  7490.616
 151  7670.751
 152  7667.018
 153  8181.416
 154  7266.376
 155  7178.662
 156  7381.984
 157  6410.261
 158  6081.24
 159  7101.184
 160  6878.18
 161  7497.272
 162  7022.688
 163  7571.864
 164  7999.476
 165  7291.499
 166  7138.802
 167  7224.229
 168  6478.223
 169  7120.107
 170  6975.154
 171  7065.219
 172  7582.387
 173  7509.542
 174  7939.703
 175  7400.787
 176  6661.465
 177  7789.716
 178  7990.487
 179  8032.599
 180  8217.848
 181  7575.785
 182  6804.642
 183  6137.047
 184  6296.963
 185  7176.129
 186  7762.314
 187  7758.253
 188  7890.387
 189  6780.026
 190  6539.581
 191  6773.464
 192  7086.004
 193  7308.204
 194  7600.016
 195  7808.26
 196  8403.431
 197  7677.333
 198  7165.312
 199  6950.392
 200  6538.426
 201  7005.839
 202  7379.686
 203  7381.134
 204  7455.617
 205  7564.655
 206  8007.318
 207  8300.905
 208  8357.733
 209  7824.848
 210  7161.519
 211  6186.834
 212  6973.802
 213  7121.583
 214  7191.835
 215  7518.571
 216  7773.387
 217  8095.067
 218  7491.912
 219  7224.869
 220  7085.721
 221  7367.635
 222  7002.737
 223  7279.072
 224  7105.38
 225  7284.278
 226  7503.186
 227  6924.736
 228  7304.967
 229  7793.249
 230  7804.798
 231  8068.779
 232  7442.338
 233  6965.097
 234  7675.721
 235  7741.009
 236  8167.219
 237  8360.18
 238  8096.547
 239  8824.194
 240  8753.742
 241  8751.602
 242  8918.473
 243  8698.82
 244  8660.618
 245  8496.846
 246  7528.119
 247  7793.617
 248  7900.442
 249  7439.729
 250  7784.128
 251  6984.466
 252  7507.812
 253  7783.79
 254  6995.959
 255  7568.365
 256  7461.769
 257  7397.091
 258  7828.748
 259  7185.901
 260  7242.316
 261  7105.509
 262  6910.062
 263  7207.739
 264  6873.295
 265  6860.531
 266  7047.81
 267  6678.318
 268  6672.549
 269  7523.262
 270  7358.642
 271  8340.959
 272  8552.537
 273  8872.474
 274  9033.206
 275  7789.089
 276  7495.529
 277  6966.23
 278  6929.172
 279  6765.724
 280  6865.048
 281  7065.383
 282  7749.805
 283  8137.491
 284  8052.545
 285  8679.831
 286  8276.232
 287  8333.442
 288  8267.998
 289  7773.866
 290  7961.813
 291  7453.333
 292  7651.159
 293  7947.738
 294  7703.649
 295  7216.07
 296  7344.458
 297  7371.578
 298  7705.717
 299  7708.527
 300  7880.029
 301  8276.401
 302  8065.409
 303  7778.465
 304  7813.877
 305  6542.513
 306  6240.778
 307  6274.702
 308  6312.213
 309  6757.094
 310  6774.415
 311  6769.408
 312  6821.653
 313  6483.998
 314  7358.929
 315  7895.996
 316  7795.59
 317  8069.815
 318  8399.794
 319  8207.715
 320  7969.151
 321  7397.132
 322  8024.354
 323  8338.708
 324  6971.605
 325  6606.986
 326  6338.423
 327  6468.195
 328  7443.448
 329  7051.929
 330  7395.064
 331  7680.914
 332  7111.058
 333  6978.583
 334  6570.678
 335  7008.199
 336  7952.299
 337  7098.995
 338  7125.256
 339  7020.3
 340  6401.494
 341  6870.353
 342  7504.048
 343  6964.012
 344  6670.298
 345  5664.858
 346  5987.927
 347  6177.188
 348  5725.001
 349  6141.943
 350  6666.949
 351  6362.808
 352  7220.377
 353  6872.644
 354  7347.869
 355  7128.747
 356  6740.532
 357  7282.614
 358  8161.171
 359  8432.03
 360  8386.046
 361  7356.738
 362  6778.875
 363  6843.182
 364  6697.052
 365  7617.915
 366  7916.809
 367  7213.729
 368  7265.859
 369  7045.359
 370  7487.669
 371  8154.259
 372  8068.271
 373  8572.553
 374  8201.391
 375  8338.125
 376  8567.385
 377  8525.801
 378  8440.994
 379  8703.538
 380  8390.051
 381  8083.291
 382  7720.064
 383  7178.635
 384  7334.213
 385  8081.208
 386  8442.657
 387  8772.713
 388  7925.417
 389  7577.823
 390  7469.287
 391  6903.652
 392  7244.442
 393  7485.132
 394  7337.083
 395  7287.847
 396  6703.981
 397  6576.957
 398  6611.904
 399  6485.091
 400  7820.168
 401  8394.597
 402  7805.916
 403  7291.792
 404  6698.385
 405  6015.238
 406  6463.747
 407  6681.086
 408  7411.25
 409  7755.13
 410  7149.236
 411  7535.41
 412  7085.165
 413  7411.855
 414  8436.761
 415  8495.581
 416  8908.408
 417  9106.794
 418  8646.169
 419  8462.03
 420  7896.862
 421  7924.764
 422  8255.978
 423  7552.896
 424  7991.021
 425  8300.648
 426  7854.63
 427  7751.623
 428  7285.503
 429  7355.245
 430  8176.612
 431  7883.092
 432  7580.038
 433  6816.157
 434  6123.368
 435  6515.318
 436  6809.452
 437  7168.684
 438  7546.626
 439  7318.764
 440  8077.09
 441  8176.906
 442  7819.883
 443  8016.584
 444  8509.287
 445  8192.48
 446  8112.583
 447  6847.705
 448  6343.51
 449  6645.239
 450  7273.301
 451  7723.847
 452  7515.196
 453  7257.208
 454  8006.36
 455  7500.295
 456  7813.392
 457  7822.338
 458  7615.074
 459  7664.687
 460  7713.129
 461  7907.331
 462  7767.568
 463  7138.632
 464  6977.474
 465  7511.828
 466  8122.452
 467  8137.437
 468  7981.988
 469  7383.756
 470  8041.218
 471  8894.748
 472  9164.076
 473  8979.892
 474  8148.015
 475  7823.06
 476  7492.774
 477  7106.262
 478  6426.567
 479  6908.776
 480  6977.011
 481  8128.871
 482  7524.789
 483  7511.929
 484  7318.388
 485  7227.272
 486  7764.734
 487  7592.636
 488  6821.29
 489  6732.128
 490  7078.526
 491  6965.116
 492  6840.817
 493  6976.682
 494  7199.271
 495  7950.394
 496  7456.885
 497  8251.763
 498  7761.214
 499  7719.697
 500  8432.938
 501  8309.044
 502  8313.383
 503  8311.283
 504  7634.204
 505  8286.67
 506  7111.784
 507  6777.546
 508  7384.575
 509  6970.983
 510  7029.073
 511  6666.542
 512  6884.049
 513  7356.264
 514  7379.29
 515  7769.773
 516  8948.435
 517  8545.81
 518  8479.442
 519  8529.742
 520  7928.528
 521  8398.906
 522  8345.394
 523  8382.006
 524  8602.335
 525  7584.684
 526  7630.392
 527  7726.84
 528  7224.868
 529  7385.33
 530  7018.215
 531  6433.084
 532  6605.814
 533  6270.936
 534  6334.999
 535  6338.522
 536  6875.466
 537  7291.224
 538  7594.316
 539  7020.006
 540  7265.973
 541  6711.092
 542  6395.522
 543  7486.841
 544  7931.281
 545  8884.4
 546  8530.315
 547  7704.633
 548  7878.509
 549  8031.424
 550  8412.599
 551  9072.181
 552  8606.704
 553  7872.078
 554  7231.64
 555  6747.061
 556  7045.393
 557  7453.011
 558  7722.374
 559  8146.993
 560  7399.5
 561  7619.487
 562  7761.522
 563  7890.249
 564  7519.502
 565  7947.314
 566  7451.202
 567  8200.366
 568  7580.51
 569  7200.093
 570  6471.884
 571  6202.303
 572  7149.995
 573  8040.146
 574  7859.578
 575  8603.845
 576  8439.011
 577  7537.855
 578  7148.537
 579  6969.526
 580  7492.854
 581  7722.668
 582  7153.62
 583  7712.261
 584  6926.38
 585  6627.347
 586  6799.626
 587  7001.751
 588  7064.71
 589  7445.182
 590  6870.825
 591  6839.47
 592  6376.37
 593  6594.456
 594  7642.07
 595  6645.788
 596  6473.103
 597  6628.27
 598  6154.308
 599  6303.641
 600  6337.697
 601  7103.852
 602  7825.32
 603  7073.031
 604  7245.982
 605  7773.109
 606  7285.495
 607  7537.689
 608  7351.223
 609  7895.55
 610  8320.292
 611  7808.583
 612  7569.18
 613  7326.888
 614  7313.494
 615  8361.071
 616  8987.481
 617  8662.821
 618  8106.185
 619  6976.307
 620  6733.657
 621  7476.101
 622  7521.632
 623  8143.901
 624  8023.101
 625  7845.625
 626  8029.587
 627  7876.323
 628  7628.58
 629  7994.274
 630  7974.535
 631  8165.193
 632  8136.444
 633  7526.37
 634  7857.667
 635  7681.502
 636  7628.277
 637  7938.006
 638  7824.165
 639  7725.118
 640  7551.129
 641  7119.237
 642  7008.561
 643  7354.466
 644  7683.036
 645  8723.041
 646  8124.56
 647  8004.302
 648  8214.355
 649  8379.113
 650  8975.324
 651  9417.161
 652  8762.735
 653  8886.863
 654  8678.989
 655  9060.715
 656  8582.681
 657  8021.022
 658  8208.399
 659  8551.971
 660  8275.601
 661  8621.385
 662  8681.546
 663  8097.842
 664  8914.377
 665  8851.174
 666  9280.881
 667  8936.336
 668  8528.99
 669  9100.777
 670  8646.887
 671  8675.652
 672  8576.993
 673  8359.126
 674  8245.588
 675  8684.755
 676  7837.349
 677  7817.83
 678  7620.155
 679  7443.403
 680  8207.603
 681  7840.567
 682  8344.04
 683  8319.467
 684  7329.042
 685  7037.987
 686  7329.606
 687  7789.019
 688  8520.288
 689  7446.813
 690  7089.244
 691  7102.395
 692  6922.716
 693  7095.408
 694  7151.447
 695  7388.86
 696  8014.148
 697  7730.619
 698  7668.248
 699  7526.818
 700  7267.082
 701  7992.718
 702  8095.212
 703  7532.28
 704  7556.649
 705  6940.429
 706  7284.361
 707  7864.001
 708  8146.153
 709  8182.602
 710  7548.007
 711  7225.32
 712  7309.699
 713  7299.413
 714  7316.291
 715  7652.247
 716  7786.843
 717  8006.59
 718  8471.751
 719  8231.501
 720  8282.39
 721  7849.207
 722  7373.67
 723  7550.984
 724  7063.017
 725  6591.316
 726  6842.958
 727  6343.637
 728  7137.532
 729  7060.871
 730  7032.355
 731  6944.208
 732  6438.798
 733  6266.198
 734  6505.808
 735  6227.214
 736  6613.233
 737  6449.17
 738  6737.695
 739  7275.305
 740  6753.882
 741  6365.915
 742  6767.952
 743  7252.481
 744  7905.743
 745  8523.558
 746  7999.004
 747  8375.28
 748  8271.62
 749  8082.758
 750  8163.667
 751  7272.377
 752  7401.125
 753  7725.21
 754  7282.293
 755  7506.252
 756  6896.54
 757  6614.051
 758  7138.203
 759  6949.67
 760  7521.253
 761  7842.672
 762  7599.474
 763  8015.503
 764  7818.453
 765  7256.591
 766  7689.805
 767  7411.585
 768  8038.493
 769  7717.151
 770  6507.703
 771  6273.523
 772  6704.649
 773  6955.4
 774  7884.553
 775  7175.518
 776  7806.964
 777  7465.345
 778  7040.518
 779  7440.689
 780  7512.692
 781  7729.248
 782  7873.419
 783  7207.786
 784  6516.781
 785  6811.032
 786  6738.403
 787  7092.202
 788  6820.947
 789  6632.42
 790  6820.228
 791  6266.13
 792  6435.519
 793  6815.699
 794  6957.44
 795  7560.813
 796  7648.296
 797  7203.465
 798  6790.466
 799  6467.386
 800  6102.452
 801  6673.048
 802  6628.978
 803  6841.355
 804  6341.5
 805  6542.635
 806  7599.382
 807  7918.188
 808  7440.778
 809  7558.821
 810  7266.842
 811  7713.905
 812  7659.884
 813  7208.953
 814  7228.517
 815  8014.373
 816  8489.725
 817  9076.644
 818  8203.531
 819  7748.639
 820  8162.111
 821  7583.358
 822  7933.007
 823  8094.454
 824  7733.181
 825  7759.193
 826  7076.18
 827  7208.811
 828  7220.301
 829  6901.444
 830  7179.929
 831  7987.83
 832  7943.483
 833  8335.978
 834  7487.21
 835  7145.864
 836  7325.641
 837  7013.649
 838  7838.117
 839  8538.394
 840  8462.145
 841  9123.956
 842  8787.925
 843  8452.706
 844  8212.202
 845  8002.152
 846  8325.028
 847  8674.261
 848  8012.7
 849  7823.336
 850  7074.913
 851  6673.942
 852  7549.485
 853  7535.693
 854  8058.596
 855  8136.877
 856  7909.158
 857  8187.006
 858  8536.846
 859  8934.696
 860  9772.535
 861  9287.443
 862  9195.305
 863  9079.907
 864  8287.517
 865  8434.918
 866  8810.032
 867  8584.474
 868  8700.779
 869  7703.818
 870  7984.106
 871  8519.895
 872  8102.582
 873  8647.976
 874  8331.485
 875  8116.382
 876  8206.21
 877  7832.389
 878  7915.409
 879  7506.377
 880  7313.657
 881  7892.329
 882  7901.39
 883  6929.188
 884  6887.23
 885  7187.135
 886  7270.184
 887  7219.999
 888  7291.375
 889  8619.642
 890  8970.83
 891  8545.5
 892  8671.979
 893  8534.507
 894  8379.203
 895  8488.078
 896  8487.832
 897  8391.3
 898  8221.88
 899  7278.793
 900  7376.916
 901  7609.998
 902  7331.671
 903  7633.778
 904  7478.044
 905  7635.364
 906  7140.221
 907  6888.506
 908  7104.953
 909  7571.159
 910  7133.126
 911  7454.669
 912  6918.464
 913  6533.558
 914  6961.218
 915  6753.033
 916  6993.149
 917  7098.786
 918  6706.421
 919  7711.663
 920  7284.599
 921  7593.758
 922  8518.146
 923  8714.88
 924  8725.172
 925  8059.339
 926  7424.48
 927  7841.62
 928  7639.524
 929  7677.082
 930  8011.472
 931  7860.566
 932  8614.815
 933  8564.331
 934  8269.429
 935  7862.497
 936  7074.61
 937  6377.028
 938  7201.717
 939  7270.551
 940  8209.544
 941  8146.107
 942  7472.513
 943  7620.973
 944  7334.188
 945  7541.254
 946  7528.775
 947  7300.351
 948  7723.131
 949  7974.652
 950  7523.403
 951  7811.956
 952  7855.292
 953  7609.273
 954  7454.605
 955  6634.2
 956  6417.184
 957  7012.854
 958  6860.853
 959  7608.571
 960  7489.464
 961  7148.842
 962  6826.063
 963  6177.059
 964  6846.125
 965  7490.065
 966  7654.085
 967  8053.904
 968  7600.147
 969  6920.692
 970  6772.876
 971  6637.387
 972  6610.95
 973  7217.123
 974  6871.881
 975  6773.063
 976  6627.399
 977  6318.309
 978  6592.596
 979  6686.938
 980  6877.317
 981  7921.639
 982  8307.178
 983  8757.435
 984  8108.655
 985  7249.79
 986  7492.534
 987  7765.915
 988  7727.774
 989  7537.966
 990  7587.285
 991  7426.703
 992  7520.059
 993  6961.277
 994  7058.118
 995  7361.924
 996  7767.521
 997  8787.938
 998  8229.624
 999  7426.231
1000  7747.436
1001  6956.956
1002  7455.755
1003  7949.121
1004  7777.228
1005  7791.951
1006  6784.733
1007  6777.264
1008  6887.301
1009  6778.541
1010  7179.111
1011  7958.658
1012  7896.017
1013  7429.379
1014  6551.476
1015  6726.365
1016  8345.516
1017  8182.709
1018  8355.212
1019  8302.623
1020  7348.87
1021  7173.391
1022  6685.72
1023  6741.994
