# Input file       =  1195502192.101845_cleaned.dat
# Candidate        =  PSR_0332+5434
# Telescope        =  AR
# Epoch_topo       =  58080.831147012097
# Epoch_bary       =  N/A
# T_sample         =  0.002
# Data Folded      =  7340032
# Data Avg         =  0.0601848189979186
# Data StdDev      =  1.00011082207458 
# Profile Bins     =  512
# Profile Avg      =  862.549868665436 
# Profile StdDev   =  119.746305440253 
# Reduced chi-sqr  =  0.717
# Prob(Noise)      <  1   (~0.0 sigma)
# P_topo (ms)      =  714.51826556142   +/- 7.41e-05
# P'_topo (s/s)    =  -0                +/- 3.91e-11
# P''_topo (s/s^2) =  0                 +/- 1.73e-14
# P_bary (ms)      =  N/A
# P'_bary (s/s)    =  N/A
# P''_bary (s/s^2) =  N/A
# P_orb (s)        =  N/A
# asin(i)/c (s)    =  N/A
# eccentricity     =  N/A
# w (rad)          =  N/A
# T_peri           =  N/A
######################################################
   0  886.9284
   1  926.0666
   2  846.1714
   3  837.3314
   4  999.9218
   5  925.3447
   6  931.6866
   7  957.8364
   8  899.2776
   9  926.7021
  10  868.675
  11  833.6128
  12  712.3316
  13  734.8441
  14  818.0903
  15  899.8416
  16  823.7578
  17  781.3921
  18  836.5289
  19  786.3433
  20  817.2708
  21  845.9464
  22  884.9369
  23  827.1094
  24  775.5549
  25  898.2328
  26  850.3553
  27  786.7473
  28  807.0941
  29  838.9835
  30  795.2337
  31  890.7448
  32  1009.948
  33  903.3293
  34  896.8765
  35  892.1666
  36  882.0983
  37  894.3772
  38  817.8033
  39  863.7688
  40  794.3586
  41  853.5036
  42  960.2516
  43  910.6187
  44  932.1268
  45  922.5552
  46  870.4827
  47  766.8726
  48  745.2393
  49  824.4722
  50  892.8547
  51  860.7705
  52  791.4541
  53  841.9872
  54  871.4091
  55  815.9174
  56  897.6063
  57  896.9967
  58  945.0925
  59  792.4792
  60  775.0521
  61  832.8687
  62  812.0458
  63  785.8481
  64  816.2249
  65  952.2443
  66  942.712
  67  970.1646
  68  877.3157
  69  890.1671
  70  850.9459
  71  741.105
  72  868.6827
  73  957.8474
  74  793.2051
  75  830.3016
  76  886.2361
  77  943.8961
  78  857.3579
  79  883.9855
  80  888.5621
  81  864.5417
  82  838.1237
  83  829.7794
  84  869.5399
  85  832.7711
  86  883.5679
  87  856.7192
  88  821.7465
  89  904.0063
  90  943.8796
  91  911.4902
  92  883.6622
  93  855.1082
  94  944.0284
  95  901.3013
  96  874.0223
  97  892.8562
  98  850.8398
  99  904.678
 100  916.3573
 101  856.445
 102  880.7278
 103  825.5538
 104  868.3161
 105  830.0228
 106  831.6433
 107  920.7328
 108  981.5381
 109  895.7968
 110  900.3988
 111  895.4635
 112  835.6111
 113  834.7454
 114  1027.991
 115  1076.135
 116  932.9664
 117  925.927
 118  938.95
 119  896.2861
 120  932.9122
 121  866.7769
 122  869.9655
 123  879.3416
 124  938.0461
 125  890.6829
 126  801.5782
 127  887.3757
 128  925.2966
 129  949.0776
 130  822.7887
 131  805.3623
 132  884.0001
 133  902.3411
 134  907.6589
 135  812.6552
 136  777.9187
 137  775.8346
 138  838.6877
 139  876.2912
 140  817.0143
 141  772.5037
 142  829.0515
 143  760.2468
 144  790.1462
 145  771.0831
 146  812.1163
 147  856.7919
 148  843.2029
 149  878.3695
 150  823.7387
 151  753.7206
 152  735.9427
 153  852.3491
 154  896.0085
 155  828.4445
 156  762.9135
 157  861.069
 158  915.4589
 159  957.3238
 160  961.4508
 161  1007.365
 162  1024.047
 163  935.9118
 164  894.0173
 165  829.3616
 166  836.7971
 167  904.1369
 168  850.4482
 169  834.696
 170  804.9322
 171  868.96
 172  922.3878
 173  887.079
 174  884.3068
 175  852.3209
 176  913.4758
 177  912.0785
 178  901.6484
 179  910.684
 180  815.9366
 181  885.5853
 182  980.652
 183  906.1396
 184  893.1376
 185  850.5707
 186  1008.701
 187  953.8541
 188  892.7845
 189  927.9589
 190  918.0942
 191  903.939
 192  880.5756
 193  884.9925
 194  935.0901
 195  921.3149
 196  971.9482
 197  964.9263
 198  868.5442
 199  855.3287
 200  846.3069
 201  827.2576
 202  830.6626
 203  945.4535
 204  962.9781
 205  958.5687
 206  927.3203
 207  856.6038
 208  899.0422
 209  870.4388
 210  953.9515
 211  973.2372
 212  924.6235
 213  845.5444
 214  817.5462
 215  931.6364
 216  827.1055
 217  814.8122
 218  914.4205
 219  868.2629
 220  850.4947
 221  849.2428
 222  936.136
 223  868.1998
 224  835.4841
 225  884.4053
 226  817.083
 227  772.1843
 228  768.5722
 229  862.6215
 230  834.6918
 231  869.9219
 232  861.9218
 233  871.5928
 234  881.2178
 235  882.4651
 236  903.7104
 237  876.9466
 238  801.3267
 239  802.0508
 240  872.7908
 241  861.0246
 242  846.516
 243  882.9616
 244  900.317
 245  937.5956
 246  886.2322
 247  869.3106
 248  836.4106
 249  861.9658
 250  898.0273
 251  944.0891
 252  903.0499
 253  955.9337
 254  967.2839
 255  858.5494
 256  877.8214
 257  897.4028
 258  881.8624
 259  916.9917
 260  879.8701
 261  926.665
 262  929.7148
 263  942.037
 264  975.5766
 265  868.0272
 266  791.1445
 267  720.4128
 268  713.2032
 269  740.9852
 270  709.6771
 271  791.4376
 272  841.7841
 273  804.5786
 274  703.3627
 275  769.967
 276  833.0344
 277  825.4265
 278  810.0037
 279  827.8098
 280  789.8604
 281  745.4565
 282  806.0098
 283  818.5649
 284  886.6219
 285  835.4368
 286  779.9588
 287  788.5113
 288  782.6188
 289  780.0602
 290  771.0689
 291  814.7584
 292  869.5682
 293  878.8415
 294  948.8475
 295  819.768
 296  788.3223
 297  850.2789
 298  804.3605
 299  786.9125
 300  794.9583
 301  774.0023
 302  746.1929
 303  789.1929
 304  816.0036
 305  919.7637
 306  892.1094
 307  920.0568
 308  971.905
 309  950.5742
 310  961.7911
 311  897.4973
 312  912.1199
 313  948.3508
 314  958.0187
 315  1031.903
 316  1013.883
 317  923.5499
 318  848.8059
 319  789.357
 320  854.4245
 321  882.4465
 322  899.6037
 323  934.3426
 324  836.0178
 325  898.2
 326  928.8298
 327  853.4734
 328  864.5909
 329  960.6454
 330  959.8874
 331  926.8113
 332  930.236
 333  932.4022
 334  775.3351
 335  746.7985
 336  795.9776
 337  807.5976
 338  802.8358
 339  784.7167
 340  881.5091
 341  825.2503
 342  895.0959
 343  989.9847
 344  988.4366
 345  949.7247
 346  985.197
 347  950.7277
 348  907.4973
 349  818.5465
 350  903.3384
 351  938.7768
 352  838.8863
 353  774.5857
 354  810.9683
 355  920.5428
 356  813.5846
 357  785.8901
 358  864.7354
 359  851.0417
 360  741.868
 361  743.8178
 362  836.8292
 363  876.4471
 364  858.604
 365  871.9247
 366  867.8768
 367  850.1818
 368  820.0828
 369  868.5813
 370  906.1687
 371  845.3574
 372  777.7576
 373  723.5469
 374  779.4014
 375  840.5569
 376  806.7313
 377  819.3239
 378  941.2415
 379  977.8368
 380  991.899
 381  1198.441
 382  1269.92
 383  1214.987
 384  1039.039
 385  1010.325
 386  911.2556
 387  840.7812
 388  835.6144
 389  896.6387
 390  925.1886
 391  838.1313
 392  803.665
 393  816.7385
 394  923.281
 395  900.306
 396  923.9967
 397  907.6369
 398  905.1696
 399  834.8688
 400  862.668
 401  884.026
 402  835.7256
 403  815.6008
 404  814.0081
 405  849.2548
 406  906.8789
 407  905.1031
 408  844.0707
 409  837.7493
 410  879.6724
 411  912.9896
 412  969.6744
 413  838.2701
 414  759.8151
 415  829.5126
 416  811.3055
 417  869.2856
 418  867.8066
 419  908.0541
 420  843.2422
 421  777.743
 422  861.1338
 423  1036.35
 424  853.7907
 425  812.7816
 426  840.1028
 427  899.408
 428  929.2396
 429  877.6566
 430  905.8713
 431  856.5368
 432  875.2983
 433  872.8484
 434  813.6031
 435  845.2179
 436  891.6948
 437  874.0992
 438  890.5915
 439  925.4074
 440  894.2698
 441  954.2989
 442  873.6008
 443  837.8988
 444  889.6149
 445  832.6373
 446  746.9594
 447  696.3538
 448  783.7383
 449  795.4463
 450  796.1298
 451  788.6257
 452  814.4428
 453  784.1183
 454  747.394
 455  710.2021
 456  702.4105
 457  732.8053
 458  735.5544
 459  752.5676
 460  723.2493
 461  821.2377
 462  786.4368
 463  764.1151
 464  787.3752
 465  809.5951
 466  859.6755
 467  805.3094
 468  860.4244
 469  803.6405
 470  744.4952
 471  770.2902
 472  752.4085
 473  777.238
 474  668.5593
 475  648.1813
 476  783.0876
 477  824.5276
 478  733.1916
 479  798.7564
 480  815.0992
 481  822.0994
 482  801.0649
 483  800.4209
 484  799.8455
 485  643.7247
 486  737.4541
 487  858.5848
 488  718.4874
 489  809.5468
 490  968.7314
 491  983.7751
 492  934.7505
 493  878.6696
 494  930.1186
 495  873.2197
 496  859.1573
 497  926.9108
 498  971.1866
 499  862.4795
 500  820.4813
 501  759.4536
 502  795.732
 503  791.1617
 504  855.9659
 505  871.5563
 506  841.1926
 507  827.0201
 508  841.8196
 509  841.9514
 510  849.5206
 511  847.513
