# Input file       =  1195746036.118177_cleaned.dat
# Candidate        =  PSR_0332+5434
# Telescope        =  AR
# Epoch_topo       =  58083.653415719644
# Epoch_bary       =  N/A
# T_sample         =  0.002
# Data Folded      =  7208960
# Data Avg         =  2.13107705382017 
# Data StdDev      =  20.7374535222757 
# Profile Bins     =  1024
# Profile Avg      =  15001.7371194607 
# Profile StdDev   =  1739.9699794144  
# Reduced chi-sqr  =  0.560
# Prob(Noise)      <  1   (~0.0 sigma)
# P_topo (ms)      =  714.521167895813  +/- 6.05e-05
# P'_topo (s/s)    =  -0                +/- 3.25e-11
# P''_topo (s/s^2) =  0                 +/- 1.46e-14
# P_bary (ms)      =  N/A
# P'_bary (s/s)    =  N/A
# P''_bary (s/s^2) =  N/A
# P_orb (s)        =  N/A
# asin(i)/c (s)    =  N/A
# eccentricity     =  N/A
# w (rad)          =  N/A
# T_peri           =  N/A
######################################################
   0  14243.23
   1  14593.96
   2  15367.63
   3  14840.15
   4  14814.59
   5  14674.1
   6  14643.3
   7  14766.57
   8  15179.02
   9  14839.83
  10  14512.84
  11  14608.33
  12  14510.2
  13  14142.56
  14  14212.39
  15  14598.06
  16  15272.81
  17  15620.85
  18  15441.24
  19  15354.97
  20  15227.48
  21  15371.26
  22  15614
  23  15226.8
  24  15235.64
  25  15509.77
  26  15565.36
  27  15954.06
  28  15362.99
  29  15023.26
  30  15851.12
  31  15772.17
  32  16116.47
  33  15718.6
  34  14940.99
  35  15236.1
  36  15058.81
  37  15206.5
  38  15475.29
  39  15031.82
  40  15690.91
  41  15529.77
  42  14815.59
  43  14900.7
  44  14283.69
  45  15070.49
  46  15614.08
  47  15176.17
  48  15132.51
  49  14865.57
  50  14573.66
  51  14788.27
  52  14645.82
  53  14891.26
  54  15199.81
  55  14170.95
  56  14248.71
  57  13897.12
  58  13965.08
  59  14831.19
  60  14929.64
  61  15920.92
  62  15943.48
  63  15182.63
  64  15273.83
  65  14747.57
  66  15034.91
  67  14939.76
  68  14595.04
  69  15030.93
  70  15586.1
  71  15561.77
  72  15847.09
  73  15761.27
  74  15875.57
  75  16149.13
  76  15948.36
  77  15188.41
  78  14381.54
  79  14498.29
  80  15227.02
  81  15000.33
  82  14856.36
  83  15047.4
  84  15208.42
  85  15848.2
  86  15616.68
  87  15477.16
  88  15142.88
  89  15091.6
  90  14856.91
  91  14818.58
  92  15203.35
  93  15075.24
  94  14931.82
  95  15277.45
  96  15003.63
  97  15026.41
  98  14640.65
  99  14633.71
 100  14304.93
 101  14379.05
 102  15596.26
 103  16179.69
 104  16200.08
 105  15805.74
 106  15579.3
 107  15360.28
 108  15676.37
 109  15270.61
 110  15276.95
 111  15107.47
 112  14887.85
 113  15555.9
 114  15295.13
 115  15640.65
 116  16020.6
 117  15746.29
 118  15953.73
 119  15737.17
 120  15241.95
 121  15308.09
 122  14863.29
 123  15303.12
 124  15999.28
 125  15245.24
 126  15610.09
 127  15790.25
 128  15790.84
 129  15828.49
 130  15762.9
 131  16140.25
 132  16770.61
 133  16103.56
 134  15970.54
 135  15137.52
 136  14494.2
 137  15093.64
 138  14534.92
 139  15129.2
 140  15406.91
 141  15184.53
 142  15255.41
 143  14991.16
 144  15553.08
 145  16620.56
 146  16133.7
 147  15681.66
 148  15367.3
 149  14646.84
 150  15541.51
 151  15495.56
 152  15995.29
 153  16114.21
 154  15757.07
 155  16292.54
 156  16109.85
 157  15248.89
 158  15006.54
 159  15199.3
 160  15639.35
 161  15469.94
 162  14730.06
 163  15189.21
 164  15266.45
 165  14987.05
 166  14534.93
 167  14281.4
 168  13885.55
 169  13972.01
 170  13577.26
 171  13603.75
 172  13606.8
 173  13958.9
 174  13886.94
 175  14473.29
 176  14535.79
 177  13920.05
 178  13668.38
 179  13472.7
 180  13893.51
 181  13876.16
 182  13878.9
 183  14125.06
 184  13771.64
 185  13639.27
 186  13047.95
 187  12808.21
 188  14131.03
 189  15149.36
 190  15101.6
 191  14537.26
 192  14564.68
 193  14901.44
 194  15185.36
 195  14861.3
 196  14976.39
 197  15231.49
 198  14635.32
 199  14642.87
 200  14023.73
 201  13866.43
 202  14387.3
 203  13944.97
 204  14035.72
 205  14242.2
 206  13936.5
 207  14721.34
 208  14633.75
 209  15500.26
 210  15790.68
 211  15281.42
 212  15284.33
 213  15442.13
 214  15250.4
 215  15076.2
 216  14434.38
 217  14642.08
 218  15514.97
 219  15247.54
 220  15361.8
 221  15329.38
 222  15335.34
 223  16047.48
 224  15113.17
 225  15253.94
 226  15783.83
 227  14870.22
 228  15166.32
 229  13963.73
 230  14188.43
 231  14602.64
 232  14494.56
 233  14316.54
 234  14046.71
 235  13741.88
 236  14237.74
 237  14073.58
 238  14829.65
 239  15567.76
 240  15683.97
 241  15078.07
 242  14711.4
 243  14234.23
 244  14767.74
 245  14945.66
 246  16517.18
 247  18018.93
 248  17637.28
 249  16433.95
 250  16029.38
 251  16312.12
 252  17154.44
 253  17104.51
 254  17067.4
 255  16569.43
 256  15684.81
 257  15474.96
 258  15094.12
 259  14994.37
 260  14854.55
 261  15108.4
 262  15124.5
 263  15264.28
 264  15730.02
 265  15892.52
 266  16079.2
 267  16441.47
 268  16273.73
 269  16138.41
 270  15139.74
 271  15020.66
 272  14917.7
 273  14365.81
 274  14604.43
 275  15316.23
 276  15248.22
 277  14856.59
 278  14233.11
 279  14240.74
 280  14580.11
 281  14471.36
 282  14807.68
 283  14942.02
 284  14185.49
 285  14474.54
 286  14205.71
 287  14604
 288  15795.77
 289  15708.85
 290  15905.57
 291  15210.42
 292  14378.42
 293  15048.23
 294  14674.59
 295  15405.36
 296  16081.27
 297  15298.61
 298  15737.93
 299  15258.73
 300  15043.38
 301  14872.22
 302  14611.23
 303  15055.42
 304  15447.7
 305  14940.41
 306  15562.85
 307  15625.4
 308  15874.94
 309  16011.39
 310  15367.31
 311  15645.31
 312  15931.13
 313  15086.29
 314  15117.7
 315  14809.15
 316  15001.49
 317  15255.51
 318  15043.89
 319  15115.62
 320  15353.43
 321  15454.57
 322  16248.81
 323  15736.39
 324  15728.86
 325  15634.34
 326  15407.07
 327  14891.24
 328  14809.18
 329  14558.55
 330  14694.51
 331  14415.79
 332  14332.43
 333  14791.55
 334  13970.61
 335  14341.83
 336  15155.78
 337  15945.13
 338  16559.88
 339  15846.71
 340  15671.15
 341  16088.64
 342  16007.16
 343  16345.14
 344  15637.09
 345  15847.01
 346  15641.85
 347  15358.34
 348  15142.82
 349  14451.27
 350  14681.78
 351  14664.75
 352  14977.88
 353  15197.57
 354  14585.96
 355  14880.04
 356  14371.21
 357  15007.2
 358  15255.79
 359  14945.08
 360  14900.61
 361  15065.48
 362  15038.97
 363  14816.97
 364  14444.12
 365  14693.65
 366  15119.15
 367  15286.92
 368  15377.15
 369  15523.68
 370  14565.42
 371  14741.5
 372  13955.8
 373  14083.55
 374  14654.9
 375  14198.05
 376  15066.34
 377  15404.57
 378  15304.78
 379  15559.86
 380  15704.47
 381  16450.09
 382  17118.63
 383  16066.23
 384  16246.99
 385  15922.6
 386  15928.98
 387  16391.3
 388  15511.63
 389  15540.81
 390  15491.98
 391  14363.2
 392  14162.91
 393  14083.01
 394  14824.52
 395  16509.46
 396  16263.17
 397  15969.27
 398  16466.73
 399  16465.99
 400  16774.63
 401  15670.1
 402  15212.38
 403  15618
 404  14938.91
 405  14642.75
 406  14273.7
 407  13725.87
 408  15014.97
 409  15069.51
 410  15410.18
 411  16103.78
 412  15752.97
 413  15618.59
 414  15259.95
 415  14860.47
 416  14749.99
 417  14414.88
 418  15087.71
 419  15496.83
 420  15014.37
 421  14655.79
 422  14441.89
 423  14551.91
 424  15109.61
 425  14797.23
 426  15123.91
 427  15348.39
 428  16041.25
 429  16063.32
 430  14722.95
 431  14066.87
 432  14298.38
 433  15071.98
 434  15292.06
 435  15358.55
 436  15464.18
 437  15402.29
 438  15273.94
 439  16284.79
 440  16098.75
 441  15674.74
 442  14845.08
 443  15220.95
 444  15295.63
 445  14975.11
 446  15016.74
 447  15851.49
 448  15563.09
 449  15677.88
 450  15354.85
 451  15516.56
 452  15467.63
 453  15048.28
 454  15479.5
 455  15971.6
 456  15313.64
 457  15513.11
 458  15261.94
 459  15906.66
 460  16028.83
 461  15604.11
 462  15477.74
 463  15183.42
 464  14453.27
 465  15193.9
 466  14768.17
 467  15318.71
 468  16139.37
 469  15525.81
 470  15691.29
 471  15451.77
 472  15022.62
 473  15588.53
 474  14773.42
 475  15207.99
 476  15688.28
 477  15211.57
 478  14895.61
 479  14282.64
 480  13930.18
 481  14879.91
 482  15083.08
 483  15158.08
 484  15233.17
 485  14460.71
 486  15097.24
 487  14255.61
 488  14459.86
 489  15561.67
 490  15253.36
 491  15456.14
 492  15007.25
 493  14976.27
 494  15615.32
 495  16068.6
 496  16358.42
 497  16271.2
 498  15715.24
 499  15163.31
 500  15289.4
 501  14352.94
 502  14454.86
 503  14430.62
 504  15182.06
 505  15322.47
 506  14340.07
 507  14478.17
 508  14143.09
 509  14561.56
 510  14505.95
 511  14849.73
 512  14629.83
 513  14331.68
 514  14370.28
 515  14515.87
 516  14258.3
 517  14591.48
 518  14701.62
 519  14957.69
 520  14947.64
 521  15018.38
 522  15034.03
 523  15022.68
 524  15817.77
 525  16797.27
 526  16611.5
 527  16001.08
 528  14903.41
 529  14217.74
 530  13970.68
 531  13371.96
 532  13811.62
 533  13907.31
 534  13473.67
 535  13362.01
 536  13521.61
 537  14212.04
 538  15061.84
 539  15266.21
 540  15200.19
 541  14899.97
 542  14410.94
 543  15650.91
 544  15107.75
 545  14560.07
 546  14443.23
 547  14374.86
 548  15130.23
 549  14733.37
 550  13506.54
 551  13677.84
 552  13346.4
 553  14206.43
 554  15081.01
 555  14993.89
 556  15591.63
 557  15732.32
 558  15936.89
 559  15535.75
 560  14293.01
 561  14626.84
 562  15426.33
 563  14305.52
 564  13539.64
 565  13346.42
 566  14095.69
 567  15607.37
 568  15061.2
 569  14615.38
 570  14621.49
 571  14293.27
 572  15384.85
 573  14806.95
 574  15264.04
 575  15707.69
 576  15747.51
 577  15344.55
 578  14998.64
 579  14474.3
 580  14849.28
 581  14495.64
 582  14899.97
 583  15130.47
 584  15252.11
 585  14770.19
 586  15228.45
 587  14708.53
 588  14695.73
 589  14731.59
 590  15490.16
 591  15807.57
 592  14793.39
 593  14651.47
 594  14576.29
 595  14771.73
 596  15092.69
 597  15385.84
 598  15670.97
 599  15172.48
 600  14913.86
 601  14478.41
 602  14023.63
 603  14539.71
 604  14256.59
 605  14612.76
 606  14315.65
 607  14349.03
 608  14215.94
 609  13789.6
 610  13902.96
 611  14114.33
 612  14013.21
 613  14276.96
 614  14396.34
 615  14398.06
 616  14712.68
 617  14680.62
 618  14621.34
 619  14615.68
 620  14276.08
 621  14728.17
 622  14944.25
 623  15237.21
 624  15995.84
 625  15916.83
 626  15940.57
 627  15552.49
 628  15087.71
 629  16312.41
 630  15725.09
 631  15556.29
 632  15954.91
 633  16248.14
 634  17158.2
 635  16905.96
 636  16246.94
 637  16086.12
 638  15627.93
 639  15963.22
 640  16330.09
 641  15648.03
 642  15622.67
 643  14986.76
 644  14906.94
 645  15054
 646  14510.93
 647  14866.33
 648  15505.61
 649  15496.57
 650  15467.92
 651  15522.72
 652  15169.61
 653  15519.93
 654  14601.33
 655  14824.19
 656  15281.77
 657  15473.33
 658  15558.74
 659  14380.1
 660  13683.82
 661  14049.76
 662  14198.49
 663  14330.01
 664  13824.98
 665  13366.3
 666  14220.98
 667  14590.34
 668  14976.27
 669  14870.24
 670  14828.14
 671  14794.8
 672  15572.44
 673  16389
 674  16540.74
 675  15490.39
 676  15045.08
 677  15904.13
 678  15927.69
 679  15346.51
 680  15180.78
 681  15695.35
 682  15823.09
 683  15249.22
 684  14626.62
 685  14538.54
 686  14285.3
 687  13861.1
 688  13367.05
 689  13545.65
 690  14073.22
 691  14741.12
 692  14658.77
 693  14600.04
 694  14836.51
 695  14960.78
 696  15456.18
 697  16025
 698  15619.53
 699  14801.58
 700  14127.83
 701  13632.81
 702  13479.16
 703  13143.28
 704  14088.21
 705  14745.79
 706  14436.39
 707  14358.12
 708  14483.72
 709  14866.73
 710  15323.94
 711  15414.9
 712  16044.98
 713  15613.21
 714  14550.11
 715  14696.55
 716  13777.98
 717  13538.61
 718  14127.48
 719  14230.51
 720  14754.35
 721  14121.7
 722  14314.14
 723  15056.83
 724  14437.22
 725  14252.05
 726  14321.24
 727  14302.38
 728  14753.66
 729  14184.11
 730  14225.36
 731  14879.03
 732  15157.95
 733  15697.83
 734  16127.53
 735  15451.25
 736  15897.77
 737  15087.74
 738  14765.62
 739  15580
 740  15501.12
 741  15180.57
 742  14596.43
 743  13828.48
 744  14905.04
 745  14493.24
 746  14987.66
 747  15989
 748  16014.17
 749  16504.37
 750  16118.29
 751  15594.72
 752  15607.79
 753  15599.67
 754  16057.8
 755  15626.31
 756  14712.32
 757  13911.05
 758  14213.65
 759  14062.58
 760  14222.59
 761  13784.79
 762  13969.48
 763  14770.59
 764  14313.38
 765  14800.4
 766  14985.73
 767  14832.05
 768  14536.76
 769  13801.85
 770  13609.38
 771  13626.21
 772  13934.11
 773  14262.78
 774  14039.39
 775  14559
 776  14806.1
 777  15204.53
 778  14819.35
 779  14407.93
 780  14223.97
 781  14062.72
 782  14334.69
 783  14553.73
 784  14352.91
 785  14110.07
 786  13438.75
 787  13414.54
 788  12727.75
 789  12510.35
 790  13086.65
 791  14351.71
 792  14402.46
 793  14345.03
 794  13766.04
 795  14321.44
 796  15372.21
 797  14954.34
 798  14844.68
 799  14362.7
 800  13780.49
 801  14138.22
 802  13747.21
 803  14150.19
 804  15147.58
 805  14721.28
 806  15021.16
 807  14447.81
 808  14080.5
 809  14302.68
 810  13950.52
 811  14954.78
 812  16449.73
 813  15676.71
 814  15382.41
 815  15032.7
 816  14937.65
 817  15270.79
 818  14703.31
 819  15151.19
 820  15575.29
 821  14874.83
 822  15528.93
 823  15412.38
 824  14955.35
 825  15238.29
 826  14733.37
 827  14556
 828  14553.73
 829  14374.74
 830  15781.71
 831  15347.43
 832  15085.9
 833  15611.08
 834  14933.6
 835  14996.56
 836  14970.78
 837  14571.79
 838  14281.7
 839  13384.55
 840  14035.34
 841  14928.13
 842  14754.48
 843  13979.45
 844  14230.3
 845  14305.75
 846  14545.53
 847  14371.55
 848  15160.59
 849  15388.12
 850  14481.17
 851  14011.33
 852  14363.64
 853  14848.54
 854  15191.98
 855  15198.15
 856  14856.38
 857  15146.79
 858  15377.19
 859  15406.1
 860  14940.12
 861  15150.7
 862  15213.61
 863  15591.24
 864  15606.07
 865  15855.98
 866  15016.55
 867  14240.45
 868  14339
 869  15511.99
 870  15358.36
 871  15767.02
 872  15500.37
 873  16278.5
 874  16090.6
 875  15612.79
 876  14862.54
 877  15122.18
 878  15219.72
 879  15573.53
 880  15354.53
 881  14725.81
 882  15168.89
 883  15013.9
 884  15136.49
 885  14925.69
 886  14233.97
 887  15385.36
 888  14591.6
 889  14543.02
 890  14755.9
 891  14591.81
 892  15359.24
 893  15861.03
 894  15542.84
 895  15273.29
 896  14302.36
 897  15408.92
 898  16115.08
 899  15242.89
 900  15022.99
 901  15437.93
 902  15999.86
 903  16295.53
 904  15465.08
 905  15789.29
 906  16322.67
 907  16109.65
 908  15989.32
 909  15238.08
 910  14735.44
 911  15383.56
 912  15298.48
 913  15049.39
 914  14487.44
 915  14600.11
 916  15701.89
 917  15163.75
 918  14615.36
 919  14825.15
 920  14729.42
 921  14640.37
 922  14340.03
 923  14126.98
 924  13648.36
 925  13761.26
 926  14905.89
 927  16157.42
 928  15881.62
 929  15460.91
 930  15711.8
 931  15011.33
 932  14594.15
 933  14507.74
 934  15222.95
 935  15332.88
 936  14321.96
 937  14660.13
 938  14567.26
 939  14351.35
 940  14871.96
 941  14759.56
 942  14410.22
 943  14070.62
 944  14644.69
 945  15022.72
 946  14777.33
 947  15077.17
 948  15484.67
 949  15677.73
 950  15865.38
 951  15793.75
 952  15501.74
 953  14467.2
 954  14670.43
 955  14809.85
 956  14470.2
 957  14103.5
 958  14401.93
 959  15212.55
 960  15749.12
 961  15408.1
 962  15180.66
 963  14891.69
 964  14475.22
 965  15269.66
 966  14981.78
 967  14633.06
 968  14178.64
 969  13997.7
 970  14276.08
 971  14358.87
 972  14655.91
 973  15629.04
 974  14847.5
 975  14285.44
 976  14474.88
 977  14020.08
 978  13878.49
 979  13469.21
 980  13765.48
 981  14456.92
 982  14067.16
 983  14884.73
 984  15725.47
 985  15374.43
 986  15033.46
 987  14603.04
 988  14295.17
 989  14785.2
 990  14389.02
 991  15141.6
 992  15835.9
 993  15128.49
 994  15562.36
 995  15285.87
 996  15666.72
 997  16277.81
 998  15249.44
 999  15078.89
1000  14774.51
1001  14247.59
1002  14162.25
1003  13751.44
1004  14026.17
1005  14761.03
1006  14801.65
1007  14619.86
1008  14314.55
1009  13992.43
1010  14095.54
1011  13991.13
1012  15100.25
1013  16129.26
1014  15403.46
1015  14395.3
1016  13762.34
1017  14145
1018  14722.63
1019  15171.84
1020  15031.17
1021  15074.4
1022  14537.36
1023  13998.25
