# Input file       =  1195487547.307883_cleaned.dat
# Candidate        =  PSR_0332+5434
# Telescope        =  AR
# Epoch_topo       =  58080.661647081979
# Epoch_bary       =  N/A
# T_sample         =  0.002
# Data Folded      =  7143424
# Data Avg         =  0.0987667432944225
# Data StdDev      =  1.00032249224849 
# Profile Bins     =  512
# Profile Avg      =  1377.98801220576 
# Profile StdDev   =  118.156676809765 
# Reduced chi-sqr  =  0.663
# Prob(Noise)      <  1   (~0.0 sigma)
# P_topo (ms)      =  714.518065397153  +/- 8.83e-05
# P'_topo (s/s)    =  -0                +/- 4.79e-11
# P''_topo (s/s^2) =  0                 +/- 2.17e-14
# P_bary (ms)      =  N/A
# P'_bary (s/s)    =  N/A
# P''_bary (s/s^2) =  N/A
# P_orb (s)        =  N/A
# asin(i)/c (s)    =  N/A
# eccentricity     =  N/A
# w (rad)          =  N/A
# T_peri           =  N/A
######################################################
   0  1646.192
   1  1591.824
   2  1634.2
   3  1479.351
   4  1419.043
   5  1300.247
   6  1380.392
   7  1399.081
   8  1417.19
   9  1454.904
  10  1458.155
  11  1445.294
  12  1310.111
  13  1344.887
  14  1322.246
  15  1376.05
  16  1484.116
  17  1531.444
  18  1421.384
  19  1360.742
  20  1335.348
  21  1267.961
  22  1341.582
  23  1305.908
  24  1381.25
  25  1434.157
  26  1464.795
  27  1476.224
  28  1326.921
  29  1354.307
  30  1491.448
  31  1451.269
  32  1447.223
  33  1391.103
  34  1371.139
  35  1376.525
  36  1429.437
  37  1486.59
  38  1408.102
  39  1326.697
  40  1359.956
  41  1415.346
  42  1379.517
  43  1397.323
  44  1411.687
  45  1488.427
  46  1392.051
  47  1348.871
  48  1277.543
  49  1359.945
  50  1468.445
  51  1423.101
  52  1455.032
  53  1429.706
  54  1457.888
  55  1411.9
  56  1338.119
  57  1224.698
  58  1350.559
  59  1519.276
  60  1427.072
  61  1470.543
  62  1386.619
  63  1402.908
  64  1392.977
  65  1249.497
  66  1331.934
  67  1338.339
  68  1300.748
  69  1282.688
  70  1314.697
  71  1282.234
  72  1176.292
  73  1235.522
  74  1383.62
  75  1412.639
  76  1317.879
  77  1347.982
  78  1309.456
  79  1355.824
  80  1326.769
  81  1308.294
  82  1382.909
  83  1389.264
  84  1360.54
  85  1321.368
  86  1408.603
  87  1348.917
  88  1282.391
  89  1276.334
  90  1318.384
  91  1355.891
  92  1431.581
  93  1426.771
  94  1466.516
  95  1418.948
  96  1284.937
  97  1262.228
  98  1315.896
  99  1334.761
 100  1369.331
 101  1372.348
 102  1429.525
 103  1337.817
 104  1317.293
 105  1353.712
 106  1375.985
 107  1366.471
 108  1411.679
 109  1342.843
 110  1240.573
 111  1267.604
 112  1339.105
 113  1325.989
 114  1350.313
 115  1381.13
 116  1401.788
 117  1373.132
 118  1306.419
 119  1330.432
 120  1303.414
 121  1281.065
 122  1337.548
 123  1345.644
 124  1416.47
 125  1434.844
 126  1467.433
 127  1445.724
 128  1394.459
 129  1292.029
 130  1307.032
 131  1403.386
 132  1314.05
 133  1268.22
 134  1312.979
 135  1438.621
 136  1378.864
 137  1405.139
 138  1363.616
 139  1300.71
 140  1372.891
 141  1366.98
 142  1360.002
 143  1400.187
 144  1505.025
 145  1431.951
 146  1267.917
 147  1283.379
 148  1340.262
 149  1380.201
 150  1410.843
 151  1425.177
 152  1435.469
 153  1403.531
 154  1292.666
 155  1342.014
 156  1298.115
 157  1368.095
 158  1313.09
 159  1319.752
 160  1443.366
 161  1342.847
 162  1267.694
 163  1267.077
 164  1327.342
 165  1446.268
 166  1476.061
 167  1461.009
 168  1390.583
 169  1319.078
 170  1330.391
 171  1273.75
 172  1295.367
 173  1343.283
 174  1344.592
 175  1339.658
 176  1296.894
 177  1334.063
 178  1340.144
 179  1382.61
 180  1380.791
 181  1413.619
 182  1367.326
 183  1368.158
 184  1404.656
 185  1442.148
 186  1396.869
 187  1396.16
 188  1397.251
 189  1316.466
 190  1293.138
 191  1306.736
 192  1333.694
 193  1336.532
 194  1350.971
 195  1421.092
 196  1370.232
 197  1282.06
 198  1354.675
 199  1421.124
 200  1407.978
 201  1392.639
 202  1419.499
 203  1331.189
 204  1266.694
 205  1309.355
 206  1339.561
 207  1288.046
 208  1385.045
 209  1397.112
 210  1287.973
 211  1292.903
 212  1445.586
 213  1449.366
 214  1393.326
 215  1261.951
 216  1302.056
 217  1296.852
 218  1223.844
 219  1331.614
 220  1305.787
 221  1370.935
 222  1369.647
 223  1355.007
 224  1367.455
 225  1315.42
 226  1344.021
 227  1397.056
 228  1342.442
 229  1279.048
 230  1339.237
 231  1342.086
 232  1322.305
 233  1305.98
 234  1339.649
 235  1336.071
 236  1299.665
 237  1347.019
 238  1418.637
 239  1324.552
 240  1263.441
 241  1322.763
 242  1427.809
 243  1390.896
 244  1440.106
 245  1416.094
 246  1391.153
 247  1333.543
 248  1274.932
 249  1268.039
 250  1297.638
 251  1421.075
 252  1471.584
 253  1365.959
 254  1281.76
 255  1366.565
 256  1353.279
 257  1341.168
 258  1381.458
 259  1461.38
 260  1451.734
 261  1312.504
 262  1345.367
 263  1362.496
 264  1355.876
 265  1412.783
 266  1432.876
 267  1400.191
 268  1321.053
 269  1292.116
 270  1330.798
 271  1292.048
 272  1283.799
 273  1394.104
 274  1483.422
 275  1494.645
 276  1430.399
 277  1443.294
 278  1432.239
 279  1380.398
 280  1362.952
 281  1397.886
 282  1357.541
 283  1405.2
 284  1473.677
 285  1481.576
 286  1464.411
 287  1333.972
 288  1431.103
 289  1505.173
 290  1422.23
 291  1372.465
 292  1467.653
 293  1453.916
 294  1486.347
 295  1460.246
 296  1397.922
 297  1289.187
 298  1332.408
 299  1353.011
 300  1293.501
 301  1336.075
 302  1383.789
 303  1413.515
 304  1343.646
 305  1312.714
 306  1316.109
 307  1333.645
 308  1379.485
 309  1297.016
 310  1355.527
 311  1245.698
 312  1268.686
 313  1385.49
 314  1389.174
 315  1378.378
 316  1396.769
 317  1444.993
 318  1319.957
 319  1327.47
 320  1378.467
 321  1461.444
 322  1428.308
 323  1452.682
 324  1470.361
 325  1327.985
 326  1212.661
 327  1290.999
 328  1331.639
 329  1308.088
 330  1283.95
 331  1299.996
 332  1356.888
 333  1312.94
 334  1264.566
 335  1326.424
 336  1268.316
 337  1383.74
 338  1424.231
 339  1338.125
 340  1242.912
 341  1286.893
 342  1355.881
 343  1364.049
 344  1424.422
 345  1411.919
 346  1483.237
 347  1366.714
 348  1365.951
 349  1413.629
 350  1335.716
 351  1289.437
 352  1289.84
 353  1313.467
 354  1297.446
 355  1383.188
 356  1448.188
 357  1441.251
 358  1421.854
 359  1414.381
 360  1441.691
 361  1470.351
 362  1439.468
 363  1410.976
 364  1412.671
 365  1384.974
 366  1343.969
 367  1379.47
 368  1476.926
 369  1396.353
 370  1393.268
 371  1436.38
 372  1297.87
 373  1320.264
 374  1393.896
 375  1459.723
 376  1369.074
 377  1384.899
 378  1455.349
 379  1383.202
 380  1320.556
 381  1420.52
 382  1453.053
 383  1486.625
 384  1462.641
 385  1422.083
 386  1336.394
 387  1331.837
 388  1373.483
 389  1445.789
 390  1374.94
 391  1430.931
 392  1394.794
 393  1411.39
 394  1532.176
 395  1489.856
 396  1398.788
 397  1371.68
 398  1438.574
 399  1415.507
 400  1395.273
 401  1317.597
 402  1278.583
 403  1347.843
 404  1396.949
 405  1414.403
 406  1456.072
 407  1479.38
 408  1422.52
 409  1346.925
 410  1363.72
 411  1329.364
 412  1294.058
 413  1438.695
 414  1434.423
 415  1373.274
 416  1360.04
 417  1390.889
 418  1378.927
 419  1377.141
 420  1462.655
 421  1605.873
 422  1505.941
 423  1383.544
 424  1438.264
 425  1474.225
 426  1495.733
 427  1450.121
 428  1559.586
 429  1434.064
 430  1442.124
 431  1488.97
 432  1455.404
 433  1421.965
 434  1388.885
 435  1449.567
 436  1387.266
 437  1440.435
 438  1440.248
 439  1410.447
 440  1376.47
 441  1381.896
 442  1403.601
 443  1368.519
 444  1345.738
 445  1320.534
 446  1377.912
 447  1381.216
 448  1432.202
 449  1501.962
 450  1491.823
 451  1407.481
 452  1420.887
 453  1421.331
 454  1353.351
 455  1405.626
 456  1462.647
 457  1452.995
 458  1349.018
 459  1295.654
 460  1290.694
 461  1337.33
 462  1347.966
 463  1209.629
 464  1221.991
 465  1283.882
 466  1284.785
 467  1303.523
 468  1282.92
 469  1372.006
 470  1351.899
 471  1451.265
 472  1431.251
 473  1415.939
 474  1369.023
 475  1360.981
 476  1336.239
 477  1361.409
 478  1338.373
 479  1355.826
 480  1378.579
 481  1330.398
 482  1330.665
 483  1346.789
 484  1362.148
 485  1424.415
 486  1406.312
 487  1336.388
 488  1335.693
 489  1293.589
 490  1374.324
 491  1350.495
 492  1422.28
 493  1354.942
 494  1317.01
 495  1434.41
 496  1422.128
 497  1465.542
 498  1554.218
 499  1482.427
 500  1515.521
 501  1498.003
 502  1455.466
 503  1424.084
 504  1456.767
 505  1478.633
 506  1429.883
 507  1484.188
 508  1421.93
 509  1462.976
 510  1591.181
 511  1633.748
