# Input file       =  1195344761.110509_cleaned.dat
# Candidate        =  PSR_0332+5434
# Telescope        =  AR
# Epoch_topo       =  58079.009029056819
# Epoch_bary       =  N/A
# T_sample         =  0.002
# Data Folded      =  7340032
# Data Avg         =  0.071478935622096
# Data StdDev      =  1.00008615325966 
# Profile Bins     =  512
# Profile Avg      =  1024.84952397203 
# Profile StdDev   =  119.743351768139 
# Reduced chi-sqr  =  0.818
# Prob(Noise)      <  0.999   (~0.0 sigma)
# P_topo (ms)      =  714.516717208679  +/- 0.000441
# P'_topo (s/s)    =  -0                +/- 2.32e-10
# P''_topo (s/s^2) =  0                 +/- 1.03e-13
# P_bary (ms)      =  N/A
# P'_bary (s/s)    =  N/A
# P''_bary (s/s^2) =  N/A
# P_orb (s)        =  N/A
# asin(i)/c (s)    =  N/A
# eccentricity     =  N/A
# w (rad)          =  N/A
# T_peri           =  N/A
######################################################
   0  1437.95
   1  1323.176
   2  1306.022
   3  1204.593
   4  1072.519
   5  1047.373
   6  1091.686
   7  1019.578
   8  1034.691
   9  1029.801
  10  1013.701
  11  1010.336
  12  975.187
  13  1147.34
  14  1095.994
  15  1101.686
  16  1039.913
  17  1087.494
  18  1044.116
  19  970.9502
  20  929.064
  21  971.741
  22  1024.569
  23  1072.759
  24  1092.824
  25  1046.961
  26  1065.695
  27  1079.034
  28  985.4034
  29  976.8376
  30  1110.226
  31  1133.727
  32  1122.499
  33  1094.491
  34  1026.617
  35  939.8732
  36  942.4546
  37  1041.023
  38  897.6791
  39  929.6123
  40  962.4838
  41  1005.525
  42  1003.064
  43  897.623
  44  1011.018
  45  1057.35
  46  1043.554
  47  990.0637
  48  972.3226
  49  954.697
  50  901.5852
  51  846.7515
  52  842.4537
  53  911.5565
  54  868.2728
  55  981.5732
  56  1001.871
  57  929.2836
  58  966.5391
  59  1015.442
  60  1076.684
  61  1054.758
  62  1068.403
  63  1046.394
  64  890.7969
  65  953.5408
  66  956.5509
  67  938.1775
  68  961.9355
  69  969.1982
  70  950.9892
  71  984.2673
  72  1002.143
  73  1034.095
  74  1129.848
  75  1047.9
  76  1056.665
  77  1058.085
  78  1061.953
  79  1156.752
  80  1139.842
  81  1043.913
  82  1072.109
  83  1051.135
  84  1085.149
  85  1102.748
  86  1067.071
  87  1056.913
  88  1004.806
  89  1062.068
  90  1008.84
  91  1031.952
  92  1049.468
  93  1036.11
  94  990.6616
  95  976.5989
  96  945.0778
  97  919.6807
  98  1024.048
  99  1027.899
 100  943.8146
 101  1019.246
 102  1073.632
 103  1080.742
 104  944.6086
 105  985.2652
 106  1049.43
 107  1060.758
 108  1066.155
 109  1107.717
 110  1109.516
 111  1014.215
 112  970.3801
 113  959.004
 114  1105.004
 115  1155.065
 116  1095.808
 117  966.3095
 118  966.2197
 119  1071.809
 120  1005.498
 121  1049.876
 122  996.3174
 123  975.1515
 124  1044.248
 125  1067.396
 126  1082.649
 127  1134.737
 128  1082.473
 129  996.4491
 130  918.9503
 131  1037.042
 132  1078.387
 133  1014.601
 134  991.7417
 135  958.752
 136  946.6107
 137  1161.225
 138  1161.168
 139  1091.182
 140  1051.145
 141  1099.506
 142  1128.966
 143  1126.215
 144  1151.215
 145  1133.892
 146  1239.571
 147  1231.01
 148  1081.546
 149  1034.118
 150  1045.972
 151  1028.418
 152  1078.549
 153  1047.14
 154  971.1637
 155  1070.821
 156  1042.156
 157  1088.865
 158  1088.438
 159  1162.104
 160  1167.084
 161  1008.939
 162  985.5799
 163  995.7532
 164  1115.991
 165  1095.756
 166  993.7708
 167  969.1827
 168  1000.462
 169  990.3516
 170  973.0367
 171  940.2473
 172  840.3575
 173  1037.277
 174  1133.766
 175  1101.113
 176  1044.936
 177  996.3626
 178  1047.351
 179  965.0333
 180  905.7494
 181  892.6862
 182  955.3536
 183  1047.626
 184  1077.066
 185  1045.761
 186  928.6154
 187  917.5146
 188  1032.997
 189  1059.184
 190  1095.142
 191  1053.592
 192  971.9672
 193  993.782
 194  923.4597
 195  932.5123
 196  927.1247
 197  914.1022
 198  1066.04
 199  1085.256
 200  1142.72
 201  1117.436
 202  1101.915
 203  1062.185
 204  1087.533
 205  1059.249
 206  1018.341
 207  993.9373
 208  968.5165
 209  1051.764
 210  1063.422
 211  1046.843
 212  1113.943
 213  1072.108
 214  1071.699
 215  1088.984
 216  1129.448
 217  1082.617
 218  1170.395
 219  1149.511
 220  1100.273
 221  1038.601
 222  1034.094
 223  1005.47
 224  1055.681
 225  1078.05
 226  1078.226
 227  1107.899
 228  1041.856
 229  980.848
 230  975.6053
 231  1065.558
 232  1121.761
 233  1089.414
 234  1034.824
 235  1033.086
 236  1073.63
 237  1003.013
 238  967.4915
 239  963.4882
 240  963.1351
 241  991.6638
 242  1041.348
 243  1077.279
 244  870.7555
 245  893.3734
 246  1037.801
 247  915.4158
 248  936.3386
 249  1024.095
 250  1021.691
 251  1001.96
 252  985.6004
 253  966.233
 254  960.7594
 255  1051.474
 256  1028.313
 257  1049.978
 258  1021.09
 259  996.1091
 260  1003.887
 261  987.103
 262  891.2433
 263  870.0773
 264  917.6001
 265  1021.807
 266  1073.652
 267  1058.342
 268  1044.917
 269  1071.15
 270  1089.12
 271  1001.161
 272  951.9754
 273  994.2022
 274  1005.838
 275  1015.22
 276  971.4871
 277  1025.806
 278  927.8843
 279  930.2717
 280  912.9842
 281  853.451
 282  985.0355
 283  1080.628
 284  1116.771
 285  1070.131
 286  1010.95
 287  810.0551
 288  813.9368
 289  877.2858
 290  836.6641
 291  877.0132
 292  976.2111
 293  981.775
 294  988.1715
 295  947.0062
 296  914.7396
 297  986.9141
 298  1076.32
 299  1037.585
 300  1061.323
 301  1071.862
 302  1061.977
 303  1039.171
 304  1083.056
 305  1090.47
 306  1086.627
 307  1022.735
 308  999.6447
 309  948.4312
 310  893.7701
 311  994.555
 312  1004.786
 313  1024.658
 314  886.4439
 315  938.7916
 316  1018.52
 317  934.8718
 318  937.2263
 319  999.2605
 320  1056.14
 321  992.1454
 322  1019.148
 323  1088.036
 324  1120.669
 325  1160.014
 326  1102.532
 327  1188.2
 328  1137.078
 329  1055.527
 330  1059.062
 331  1043.689
 332  1034.085
 333  1008.258
 334  1064.277
 335  1115.478
 336  1000.745
 337  953.8134
 338  1049.702
 339  1058.991
 340  1016.461
 341  1002.407
 342  993.5815
 343  946.1749
 344  935.0993
 345  954.6458
 346  1084.298
 347  1062.917
 348  972.5765
 349  1053.721
 350  1046.173
 351  992.1333
 352  984.6259
 353  928.8777
 354  1004.272
 355  1008.173
 356  994.2603
 357  1024.283
 358  1005.264
 359  1012.652
 360  939.5606
 361  1055.153
 362  1045.906
 363  985.2314
 364  936.707
 365  1019.295
 366  1058.449
 367  964.3478
 368  1005.994
 369  964.7022
 370  985.5715
 371  989.4237
 372  960.5262
 373  869.0398
 374  974.6318
 375  979.6282
 376  948.2229
 377  948.5318
 378  1026.313
 379  1013.68
 380  1068.965
 381  1040.143
 382  940.9523
 383  835.8904
 384  861.5479
 385  909.4326
 386  958.7169
 387  971.6933
 388  976.7667
 389  986.031
 390  964.2419
 391  967.4203
 392  916.0281
 393  929.7899
 394  1018.523
 395  1059.893
 396  1114.562
 397  1150.767
 398  1068.393
 399  992.2344
 400  988.6506
 401  1058.588
 402  1140.979
 403  1117.611
 404  1064.939
 405  1027.802
 406  964.9049
 407  1011.859
 408  898.3034
 409  932.5968
 410  873.3176
 411  991.8975
 412  1029.253
 413  1044.763
 414  1029.212
 415  985.7402
 416  1019.769
 417  1008.484
 418  1094.45
 419  1023.867
 420  1108.332
 421  1128.137
 422  1091.639
 423  1021.948
 424  1032.632
 425  1094.342
 426  1046.779
 427  990.4222
 428  901.4163
 429  958.7913
 430  1081.846
 431  1107.424
 432  1114.702
 433  1000.788
 434  934.6492
 435  934.1437
 436  1009.294
 437  1093.248
 438  1095.666
 439  1125.41
 440  1113.263
 441  975.0565
 442  955.2585
 443  920.5732
 444  943.7139
 445  964.7301
 446  1014.749
 447  1007.936
 448  1022.58
 449  1038.758
 450  992.0174
 451  989.0266
 452  1096.857
 453  1042.076
 454  1067.054
 455  998.0832
 456  1067.954
 457  1072.132
 458  1025.752
 459  1047.045
 460  1009.083
 461  1042.731
 462  940.6656
 463  925.9551
 464  939.4521
 465  1036.745
 466  1064.24
 467  1076.043
 468  992.4377
 469  936.7502
 470  1028.492
 471  1021.462
 472  1165.731
 473  1082.863
 474  1100.677
 475  1177.729
 476  1077.856
 477  1056.175
 478  1050.183
 479  999.0266
 480  918.851
 481  1011.345
 482  995.4877
 483  909.33
 484  1060.364
 485  1174.678
 486  1086.2
 487  1050.832
 488  1090.653
 489  1052.132
 490  1073.438
 491  998.3124
 492  976.4073
 493  949.8422
 494  1016.504
 495  1021.201
 496  1005.633
 497  872.0156
 498  912.568
 499  999.9412
 500  1049.828
 501  1084.557
 502  1119.634
 503  1098.191
 504  1063.427
 505  1036.864
 506  1119.556
 507  1082.321
 508  1155.015
 509  1237.296
 510  1274.726
 511  1391.491
