# Input file       =  1195573752.099748_cleaned.dat
# Candidate        =  PSR_0332+5434
# Telescope        =  AR
# Epoch_topo       =  58081.659387728563
# Epoch_bary       =  N/A
# T_sample         =  0.002
# Data Folded      =  7143424
# Data Avg         =  0.051912043459774
# Data StdDev      =  1.00021519998701 
# Profile Bins     =  512
# Profile Avg      =  724.291855063968 
# Profile StdDev   =  118.144003599713 
# Reduced chi-sqr  =  0.567
# Prob(Noise)      <  1   (~0.0 sigma)
# P_topo (ms)      =  714.519099000886  +/- 6.66e-05
# P'_topo (s/s)    =  -0                +/- 3.61e-11
# P''_topo (s/s^2) =  0                 +/- 1.64e-14
# P_bary (ms)      =  N/A
# P'_bary (s/s)    =  N/A
# P''_bary (s/s^2) =  N/A
# P_orb (s)        =  N/A
# asin(i)/c (s)    =  N/A
# eccentricity     =  N/A
# w (rad)          =  N/A
# T_peri           =  N/A
######################################################
   0  957.2849
   1  920.0131
   2  865.4668
   3  737.0775
   4  687.9219
   5  697.6404
   6  731.1212
   7  696.6855
   8  687.2574
   9  766.3652
  10  801.4293
  11  707.1562
  12  728.3877
  13  724.3177
  14  680.2325
  15  723.1437
  16  807.4148
  17  779.2636
  18  707.3497
  19  711.4755
  20  685.1244
  21  744.2138
  22  768.814
  23  771.8401
  24  815.3096
  25  806.8585
  26  712.5583
  27  676.9761
  28  713.6984
  29  648.8555
  30  692.8669
  31  748.0433
  32  719.3891
  33  784.3424
  34  739.6193
  35  753.2189
  36  737.628
  37  784.0279
  38  772.574
  39  613.5967
  40  648.6698
  41  688.8357
  42  710.257
  43  610.2582
  44  680.1907
  45  772.1473
  46  778.438
  47  757.657
  48  738.6093
  49  734.2886
  50  730.5956
  51  697.8344
  52  796.9323
  53  768.2191
  54  758.2313
  55  814.4805
  56  829.5459
  57  756.0798
  58  677.0317
  59  723.5667
  60  722.936
  61  800.9664
  62  872.7266
  63  848.1091
  64  752.8785
  65  737.574
  66  815.3813
  67  748.9366
  68  686.5729
  69  661.9016
  70  753.7591
  71  775.8708
  72  757.9239
  73  692.6697
  74  722.7648
  75  684.0912
  76  676.1519
  77  746.6459
  78  680.3199
  79  648.7742
  80  698.8636
  81  781.5618
  82  740.9483
  83  627.9554
  84  681.8504
  85  622.3431
  86  598.9615
  87  617.9227
  88  715.847
  89  793.9773
  90  774.3482
  91  700.7401
  92  642.0212
  93  668.6182
  94  689.4429
  95  766.4084
  96  705.7087
  97  729.6015
  98  789.872
  99  736.2943
 100  677.5835
 101  656.3436
 102  698.9571
 103  726.1949
 104  706.7425
 105  761.1184
 106  869.9638
 107  873.6616
 108  813.99
 109  772.0303
 110  742.1324
 111  757.2264
 112  740.0659
 113  756.1639
 114  771.7136
 115  585.3784
 116  569.8901
 117  628.5621
 118  660.3142
 119  758.2225
 120  727.7992
 121  731.7741
 122  696.3794
 123  718.5776
 124  791.6694
 125  674.3735
 126  686.2947
 127  708.6359
 128  673.9662
 129  722.9666
 130  779.0549
 131  699.7723
 132  678.4011
 133  705.7932
 134  686.5263
 135  624.4537
 136  707.5665
 137  707.8959
 138  708.8618
 139  773.3433
 140  703.9648
 141  712.7104
 142  644.0322
 143  705.4886
 144  703.0639
 145  680.3374
 146  772.2325
 147  781.0469
 148  817.6261
 149  646.4653
 150  583.1063
 151  685.7094
 152  775.2232
 153  786.5806
 154  762.1463
 155  776.0881
 156  787.1964
 157  699.5197
 158  725.4443
 159  731.6992
 160  787.5445
 161  744.0626
 162  774.3076
 163  685.0886
 164  704.3185
 165  697.3758
 166  804.0153
 167  869.6741
 168  727.0297
 169  633.5825
 170  633.8251
 171  656.6347
 172  696.4386
 173  657.9026
 174  653.9986
 175  637.3578
 176  663.731
 177  696.738
 178  681.1227
 179  691.5742
 180  747.5262
 181  769.0393
 182  647.7445
 183  529.9391
 184  601.3352
 185  649.9979
 186  716.4336
 187  680.4714
 188  658.0063
 189  698.2574
 190  723.636
 191  674.0465
 192  655.4418
 193  768.3096
 194  783.7062
 195  796.738
 196  792.0328
 197  697.78
 198  715.6268
 199  716.6868
 200  681.9481
 201  751.7786
 202  703.626
 203  771.7852
 204  801.0558
 205  751.0803
 206  808.0731
 207  698.6932
 208  819.3423
 209  817.8653
 210  846.5813
 211  791.2581
 212  791.5117
 213  751.1683
 214  705.7645
 215  773.2017
 216  731.7651
 217  749.5292
 218  802.915
 219  829.079
 220  732.6464
 221  656.0019
 222  659.5915
 223  656.8541
 224  722.2056
 225  691.7103
 226  658.2472
 227  770.3286
 228  713.6478
 229  651.8736
 230  604.8685
 231  693.4689
 232  749.8631
 233  727.6266
 234  791.4866
 235  750.9185
 236  728.1483
 237  748.0017
 238  733.3293
 239  725.8969
 240  696.956
 241  666.3611
 242  788.2539
 243  805.6548
 244  702.4789
 245  630.4989
 246  758.5754
 247  848.5883
 248  876.6074
 249  847.8323
 250  743.1828
 251  677.6237
 252  678.7049
 253  720.6588
 254  675.3389
 255  718.1511
 256  812.295
 257  794.1545
 258  725.8029
 259  768.6595
 260  756.2877
 261  722.7425
 262  703.7067
 263  765.6328
 264  794.5117
 265  710.1337
 266  722.3906
 267  747.5574
 268  713.017
 269  694.3806
 270  678.1313
 271  756.7279
 272  747.8848
 273  757.1811
 274  700.1761
 275  698.7898
 276  656.9352
 277  714.3229
 278  695.7684
 279  679.0179
 280  810.5695
 281  801.2345
 282  712.5175
 283  552.5024
 284  633.939
 285  753.2696
 286  713.0643
 287  664.3335
 288  681.8802
 289  614.7499
 290  677.3757
 291  744.6822
 292  709.3235
 293  708.2064
 294  743.9795
 295  629.2427
 296  641.6098
 297  628.7921
 298  696.7513
 299  734.2656
 300  728.1612
 301  742.5931
 302  648.3331
 303  624.275
 304  689.7947
 305  697.6306
 306  716.2138
 307  681.3149
 308  744.2309
 309  792.9692
 310  825.6678
 311  778.153
 312  669.7046
 313  698.899
 314  773.6497
 315  807.7231
 316  741.5009
 317  678.4064
 318  677.0792
 319  667.5795
 320  734.3576
 321  758.3017
 322  746.2156
 323  801.1602
 324  849.4719
 325  820.3923
 326  786.4423
 327  720.7431
 328  698.5638
 329  674.809
 330  701.0903
 331  649.0545
 332  634.196
 333  715.6656
 334  619.0125
 335  628.6696
 336  630.9312
 337  768.4603
 338  749.9136
 339  718.2648
 340  729.5402
 341  751.9525
 342  780.2238
 343  768.3904
 344  747.1612
 345  755.7975
 346  705.7849
 347  768.0471
 348  781.0719
 349  812.9053
 350  734.6705
 351  717.4547
 352  679.0244
 353  670.196
 354  681.7406
 355  692.2407
 356  705.0472
 357  692.1519
 358  750.6921
 359  747.2516
 360  755.7068
 361  744.4904
 362  743.8528
 363  738.0923
 364  689.7422
 365  716.0733
 366  797.0897
 367  819.46
 368  792.4283
 369  700.4909
 370  669.3967
 371  733.8474
 372  693.3778
 373  613.6714
 374  673.1138
 375  740.4076
 376  812.6147
 377  728.5731
 378  629.107
 379  635.2723
 380  643.0885
 381  736.9084
 382  773.3444
 383  715.3243
 384  715.8093
 385  722.4759
 386  664.6913
 387  607.5327
 388  605.1661
 389  574.9851
 390  631.7114
 391  738.3156
 392  759.8
 393  747.058
 394  788.1429
 395  809.2531
 396  759.9994
 397  769.1292
 398  758.2241
 399  799.8922
 400  756.095
 401  686.7704
 402  759.2676
 403  750.5196
 404  770.1597
 405  763.5308
 406  769.5613
 407  760.1639
 408  729.2224
 409  765.3175
 410  808.495
 411  688.3873
 412  631.0751
 413  594.1363
 414  733.4427
 415  728.7299
 416  756.9076
 417  755.7334
 418  818.1553
 419  811.3857
 420  801.8841
 421  752.8677
 422  582.7686
 423  694.1781
 424  795.1746
 425  818.6617
 426  707.8558
 427  639.7338
 428  706.5025
 429  698.6948
 430  828.8826
 431  771.3065
 432  648.7754
 433  664.3934
 434  622.2457
 435  646.7507
 436  659.4219
 437  660.1182
 438  755.3544
 439  783.242
 440  790.3728
 441  743.2655
 442  764.4933
 443  762.4118
 444  730.6242
 445  703.8141
 446  694.7067
 447  695.627
 448  791.6194
 449  908.3439
 450  834.691
 451  655.6862
 452  662.5019
 453  710.1432
 454  778.045
 455  729.1875
 456  676.6432
 457  721.9901
 458  656.8214
 459  689.0743
 460  604.644
 461  630.0677
 462  672.6963
 463  615.0287
 464  633.8654
 465  668.545
 466  696.5607
 467  763.7443
 468  728.3591
 469  688.2551
 470  557.9631
 471  658.4499
 472  681.0688
 473  635.4478
 474  703.2268
 475  714.9761
 476  772.7127
 477  713.155
 478  752.6056
 479  718.876
 480  680.7424
 481  657.0845
 482  741.1208
 483  724.1923
 484  641.8876
 485  676.0104
 486  624.8854
 487  556.8336
 488  652.4633
 489  646.3425
 490  798.8493
 491  807.5787
 492  768.4434
 493  770.6962
 494  698.9656
 495  721.5368
 496  731.5522
 497  758.0294
 498  687.3256
 499  697.2791
 500  725.3832
 501  787.3158
 502  878.6262
 503  744.8492
 504  614.8566
 505  714.5067
 506  848.118
 507  873.4205
 508  838.9709
 509  856.7493
 510  890.4737
 511  1001.068
