# Input file       =  1195674484.107206_cleaned.dat
# Candidate        =  PSR_0332+5434
# Telescope        =  AR
# Epoch_topo       =  58082.825267444518
# Epoch_bary       =  N/A
# T_sample         =  0.002
# Data Folded      =  7340032
# Data Avg         =  1.01865650442466 
# Data StdDev      =  8.43165345131965 
# Profile Bins     =  512
# Profile Avg      =  14603.4825012265 
# Profile StdDev   =  1009.54746940314 
# Reduced chi-sqr  =  0.682
# Prob(Noise)      <  1   (~0.0 sigma)
# P_topo (ms)      =  714.520332278735  +/- 0.000205
# P'_topo (s/s)    =  -0                +/- 1.08e-10
# P''_topo (s/s^2) =  0                 +/- 4.78e-14
# P_bary (ms)      =  N/A
# P'_bary (s/s)    =  N/A
# P''_bary (s/s^2) =  N/A
# P_orb (s)        =  N/A
# asin(i)/c (s)    =  N/A
# eccentricity     =  N/A
# w (rad)          =  N/A
# T_peri           =  N/A
######################################################
   0  15021.36
   1  14881.47
   2  14511.02
   3  14542.04
   4  14666.47
   5  13788.15
   6  14223.79
   7  14297.82
   8  14218.44
   9  13796.93
  10  13952.18
  11  13846.51
  12  14470.15
  13  14414.42
  14  14615.29
  15  14935.53
  16  14911.26
  17  15311.38
  18  15797.74
  19  14701.41
  20  14412.08
  21  13991.74
  22  14069.62
  23  14510.83
  24  13531.86
  25  13429.43
  26  13614.48
  27  14077.63
  28  14355.72
  29  13832.24
  30  13660.78
  31  13654.39
  32  13889.72
  33  14322.96
  34  14113.06
  35  14852.69
  36  15802.24
  37  14746.83
  38  14255.49
  39  13781.8
  40  14443.92
  41  14853.46
  42  13923.78
  43  14377.42
  44  14432.36
  45  14174.99
  46  14093.76
  47  14448.48
  48  14037.45
  49  13780.21
  50  13803.95
  51  14580.14
  52  15185.01
  53  14578.49
  54  14528.83
  55  14947.08
  56  15110.21
  57  14728.5
  58  14914.06
  59  14395.21
  60  14379.07
  61  14736.48
  62  14010.65
  63  14077.49
  64  14485.25
  65  14654.68
  66  14336.44
  67  14161.84
  68  14647.71
  69  14639.8
  70  14618.62
  71  15076.42
  72  15622.82
  73  15283.38
  74  14988.34
  75  14778.98
  76  14961.56
  77  14451.57
  78  14232.14
  79  14115.08
  80  14828.1
  81  14697.01
  82  13895.29
  83  14180.98
  84  14782.37
  85  15323.94
  86  14909.73
  87  13838.36
  88  14450.06
  89  14542.06
  90  14609.87
  91  14444.02
  92  14483.78
  93  13877.52
  94  14222.33
  95  14373.4
  96  14060.48
  97  15186.76
  98  14830.14
  99  14802.59
 100  15472.42
 101  15095.8
 102  14276.41
 103  13954.28
 104  14515.6
 105  14220.34
 106  14605.04
 107  14969.68
 108  15142.67
 109  15618.87
 110  15306.23
 111  14866.48
 112  15237.36
 113  14972.17
 114  14243.76
 115  14558.81
 116  14872
 117  15025.67
 118  14078.14
 119  14241.51
 120  14916.51
 121  14439.71
 122  14768.16
 123  14068.98
 124  13860.6
 125  13710.25
 126  14568.84
 127  15306.34
 128  15514.2
 129  15345.8
 130  13976.62
 131  13860.03
 132  13626.36
 133  14610.91
 134  13821.26
 135  13769.29
 136  14325.73
 137  14098.17
 138  14524.89
 139  14176.94
 140  14221.78
 141  14801.64
 142  14651.43
 143  14242.43
 144  14387.92
 145  14525.39
 146  14346.96
 147  14724.56
 148  15262.1
 149  15386.58
 150  14907.14
 151  14592.74
 152  14761.21
 153  14705.14
 154  14641.47
 155  15148.57
 156  15562.54
 157  15123.71
 158  14818.09
 159  15092.67
 160  14505.43
 161  14809.33
 162  14823.08
 163  14798.61
 164  14211.6
 165  14586.06
 166  15037.33
 167  14818.94
 168  14610.29
 169  14689.96
 170  14413.51
 171  14894.98
 172  14703.88
 173  14144.18
 174  13962.47
 175  14975.01
 176  15175.18
 177  15237.52
 178  15412.42
 179  15441.09
 180  15181.76
 181  14917.95
 182  15476.99
 183  15552.66
 184  15146.86
 185  15191
 186  14859.93
 187  14668.35
 188  14337.14
 189  14184.25
 190  14350.06
 191  14684.6
 192  14354.8
 193  14896.2
 194  15304.48
 195  15101.01
 196  14178.51
 197  14092.46
 198  14684.83
 199  14793.78
 200  14711.48
 201  15200.17
 202  14885.34
 203  15001.12
 204  15324.55
 205  14899.96
 206  13952.34
 207  14219.97
 208  14670.49
 209  14326.2
 210  14288.29
 211  14084.89
 212  14052.51
 213  14804.65
 214  14673.04
 215  14815.48
 216  14434.92
 217  14705.12
 218  14255.36
 219  14675.41
 220  14001.63
 221  13918.83
 222  14928.87
 223  15280.05
 224  15617.97
 225  14581.31
 226  14569.79
 227  14561.44
 228  14183.87
 229  13698.47
 230  13621.32
 231  13531.93
 232  14168.14
 233  13952.64
 234  13645
 235  14197.91
 236  14573.68
 237  15128.02
 238  15095.83
 239  14837.02
 240  14852.41
 241  15076.4
 242  14806.48
 243  14918.48
 244  15210.36
 245  14642.46
 246  14715.9
 247  14081
 248  14742.53
 249  14562.79
 250  14456.64
 251  15220.6
 252  14787.38
 253  15302.6
 254  15535.13
 255  15228.6
 256  14536.41
 257  14294.55
 258  14538.11
 259  14464.28
 260  14605.3
 261  15002.05
 262  15231.07
 263  15008.87
 264  14765.34
 265  14955.79
 266  14926.98
 267  15016.93
 268  15604.27
 269  15998.33
 270  16019.97
 271  15263.58
 272  15489.21
 273  15166.56
 274  13932.66
 275  13266.68
 276  14905.39
 277  15023.68
 278  13916.5
 279  13624.72
 280  14540.8
 281  15302.62
 282  14608.13
 283  14783.44
 284  15510.95
 285  14668.8
 286  14184.82
 287  14551.91
 288  13994.81
 289  14201.56
 290  14059.36
 291  14655.15
 292  15224.04
 293  15261.98
 294  15155.92
 295  15023.54
 296  15390.87
 297  15819.45
 298  16070.73
 299  16135.78
 300  15724.99
 301  15731.94
 302  15044.57
 303  14929.36
 304  15000.65
 305  15809.38
 306  15986.41
 307  15145.98
 308  15631.07
 309  15720.47
 310  15673.41
 311  15617.83
 312  16323.64
 313  16642.57
 314  16757.34
 315  16857.65
 316  16047.94
 317  15424.06
 318  14710.51
 319  14970.17
 320  15243.35
 321  14703.99
 322  14552.83
 323  15036.31
 324  14656.24
 325  15150.1
 326  14759.29
 327  14553.43
 328  14050.46
 329  14264.22
 330  14186.07
 331  13789.16
 332  14128.2
 333  14210.16
 334  14432.28
 335  13653.11
 336  14229.58
 337  15137.17
 338  15281.29
 339  15149.15
 340  15508.56
 341  15474.07
 342  14087.85
 343  13760.92
 344  14343.96
 345  13935.38
 346  12900.89
 347  13404.94
 348  14591.79
 349  14039
 350  13552.18
 351  14065.41
 352  15035.06
 353  14685.03
 354  14807.14
 355  15347.31
 356  15420.63
 357  15140.91
 358  15479.27
 359  14803.13
 360  15010.56
 361  15011.18
 362  14556.62
 363  14699.7
 364  14498.95
 365  14399.42
 366  14553.94
 367  14645.78
 368  14956.54
 369  14726.06
 370  14002.43
 371  14834.33
 372  14851.99
 373  15022.53
 374  14306.82
 375  14358.89
 376  14671.9
 377  15376.3
 378  14972.89
 379  14880.34
 380  14761.97
 381  15048.45
 382  14462
 383  14019.64
 384  14903.81
 385  15199.3
 386  14620.65
 387  15221.14
 388  14853.9
 389  14910
 390  14079.01
 391  14731.7
 392  14851.38
 393  13416.5
 394  14345.41
 395  15348.92
 396  15402.67
 397  14438.25
 398  14117.25
 399  14374.46
 400  14054.44
 401  14774.93
 402  15091.6
 403  14485.29
 404  13870.15
 405  14734.64
 406  15345.37
 407  14592.51
 408  13997.25
 409  14714.63
 410  15340.8
 411  16158.4
 412  15776.24
 413  15851.34
 414  15065.65
 415  15185.11
 416  14591.41
 417  13638.54
 418  15165.86
 419  15324.01
 420  14829.99
 421  14966.38
 422  14182.57
 423  14592.56
 424  14988.19
 425  15028.72
 426  14840.57
 427  14614.26
 428  14353.78
 429  13794.61
 430  14245.07
 431  14042.88
 432  14129.75
 433  14519.86
 434  15216.61
 435  15042.53
 436  13697.82
 437  14165.47
 438  14193.74
 439  14038.39
 440  14582.99
 441  14833.48
 442  14194.94
 443  13615.63
 444  13989.86
 445  13450.23
 446  13116.8
 447  13407.56
 448  14692.67
 449  14401.22
 450  13214.02
 451  14173.32
 452  14735.41
 453  14469.32
 454  13597.51
 455  13601.44
 456  13962.76
 457  14427.63
 458  13754.95
 459  13577.02
 460  13950.32
 461  13894.39
 462  14025.66
 463  13802.59
 464  14188.75
 465  13561.63
 466  14428.33
 467  14218.81
 468  14121.88
 469  14643.68
 470  14411.12
 471  14075.17
 472  13434.74
 473  13883.58
 474  13328.82
 475  13327.14
 476  14072.43
 477  14137.33
 478  14236.49
 479  14686.45
 480  14777.22
 481  14558.8
 482  14695.16
 483  14577.59
 484  14737.58
 485  13967.3
 486  13395.17
 487  13550.96
 488  14559.75
 489  14108.32
 490  14618.42
 491  14695.14
 492  14827.66
 493  15049.99
 494  14412.21
 495  14589.35
 496  14833
 497  15128.83
 498  14355.21
 499  13421.56
 500  13387.18
 501  13258.75
 502  13468.42
 503  13692.53
 504  13930.01
 505  14058.28
 506  14193.78
 507  14796.11
 508  14696.92
 509  14786.14
 510  14822.56
 511  14484.34
