# Input file       =  1195329842.107446_cleaned.dat
# Candidate        =  PSR_0332+5434
# Telescope        =  AR
# Epoch_topo       =  58078.836355410254
# Epoch_bary       =  N/A
# T_sample         =  0.002
# Data Folded      =  7340032
# Data Avg         =  0.07235932441198 
# Data StdDev      =  1.00005463717608 
# Profile Bins     =  512
# Profile Avg      =  1037.03824063923 
# Profile StdDev   =  119.739578251757 
# Reduced chi-sqr  =  0.545
# Prob(Noise)      <  1   (~0.0 sigma)
# P_topo (ms)      =  714.516200810115  +/- 6.95e-05
# P'_topo (s/s)    =  -0                +/- 3.67e-11
# P''_topo (s/s^2) =  0                 +/- 1.62e-14
# P_bary (ms)      =  N/A
# P'_bary (s/s)    =  N/A
# P''_bary (s/s^2) =  N/A
# P_orb (s)        =  N/A
# asin(i)/c (s)    =  N/A
# eccentricity     =  N/A
# w (rad)          =  N/A
# T_peri           =  N/A
######################################################
   0  1118.235
   1  972.4259
   2  1027.414
   3  985.1366
   4  982.8953
   5  996.0381
   6  1008.607
   7  910.563
   8  968.7686
   9  1026.562
  10  982.6251
  11  949.2244
  12  890.5911
  13  926.013
  14  1021.87
  15  1048.096
  16  972.6279
  17  944.9269
  18  948.1779
  19  933.772
  20  995.7618
  21  1002.528
  22  990.5499
  23  978.5333
  24  1080.397
  25  1001.49
  26  999.1846
  27  1081.522
  28  1091.201
  29  1047.604
  30  1021.683
  31  1069.37
  32  955.5063
  33  905.201
  34  959.6185
  35  960.2238
  36  961.1952
  37  1094.925
  38  1111.29
  39  1084.491
  40  936.9731
  41  986.4453
  42  1090.052
  43  1139.366
  44  1061.789
  45  1096.56
  46  1033.057
  47  1091.672
  48  1084.887
  49  1025.881
  50  963.9017
  51  1037.583
  52  1103.096
  53  1108.346
  54  1057.968
  55  1130.876
  56  1148.223
  57  1127.696
  58  1072.844
  59  985.6539
  60  984.2504
  61  1028.289
  62  1071.893
  63  1144.399
  64  1183.788
  65  1061.724
  66  1049.903
  67  1093.504
  68  945.6653
  69  928.1516
  70  949.9215
  71  953.8424
  72  1019.13
  73  1024.268
  74  1016.289
  75  1034.246
  76  1041.583
  77  1079.628
  78  1111.997
  79  1037.312
  80  1032.258
  81  1102.283
  82  1092.539
  83  1092.671
  84  1109.348
  85  1180.936
  86  1118.729
  87  1123.804
  88  1124.565
  89  1054.448
  90  1062.527
  91  1154.974
  92  1140.29
  93  1044.285
  94  1047.368
  95  1066.983
  96  1060.567
  97  1091.929
  98  1072.796
  99  1115.32
 100  1088.447
 101  993.7569
 102  1041.981
 103  1018.862
 104  1030.487
 105  1015.923
 106  1053.762
 107  1046.927
 108  1050.138
 109  1071.818
 110  1078.025
 111  1060.071
 112  1102.141
 113  1152.736
 114  1146.217
 115  994.6688
 116  987.6281
 117  942.4047
 118  972.5488
 119  1096.072
 120  1060.807
 121  1019.754
 122  946.0117
 123  1062.442
 124  1061.594
 125  975.5652
 126  916.0255
 127  921.2617
 128  985.2785
 129  1044.251
 130  1026.406
 131  994.7592
 132  1032.959
 133  1013.608
 134  953.5635
 135  1045.848
 136  1030.689
 137  1034.676
 138  992.5734
 139  1065.641
 140  997.1683
 141  1011.932
 142  1044.193
 143  1073.95
 144  1030.31
 145  1000.511
 146  1020.064
 147  1053.028
 148  1011.54
 149  1085.618
 150  1118.75
 151  1104.593
 152  1024.439
 153  1001.801
 154  1057.254
 155  1109.953
 156  1025.467
 157  1105.267
 158  1096.213
 159  1067.407
 160  1024.069
 161  1011.161
 162  1076.343
 163  1098.878
 164  999.1845
 165  1056.497
 166  1102.887
 167  1068.58
 168  1090.125
 169  1096.653
 170  1117.962
 171  1075.595
 172  1057.441
 173  1029.611
 174  1042.911
 175  953.6707
 176  1040.589
 177  1020.356
 178  1063.591
 179  966.3723
 180  1057.03
 181  1098.271
 182  951.6959
 183  894.0807
 184  975.8023
 185  1001.897
 186  1031.174
 187  994.3746
 188  1021.424
 189  977.9207
 190  963.9067
 191  1049.01
 192  1129.305
 193  1004.699
 194  993.4764
 195  1071.697
 196  1147.255
 197  1051.176
 198  1107.534
 199  1056.163
 200  1039.567
 201  934.7709
 202  952.71
 203  966.0062
 204  848.1013
 205  951.5312
 206  995.3079
 207  974.4897
 208  889.4668
 209  1025.324
 210  1134.184
 211  1053.309
 212  1049.163
 213  1050.104
 214  1073.828
 215  1120.873
 216  1071.966
 217  1043.858
 218  931.6459
 219  1050.275
 220  1030.844
 221  1069.46
 222  1033.286
 223  1108.745
 224  1096.156
 225  1054.368
 226  1060.614
 227  977.4177
 228  1048.42
 229  1125.775
 230  1147.152
 231  1158.762
 232  1238.126
 233  1357.85
 234  1346.175
 235  1297.103
 236  1202.043
 237  1145.314
 238  1100.503
 239  1067.053
 240  943.6991
 241  929.2863
 242  948.4252
 243  1027.527
 244  1009.974
 245  1045.162
 246  1081.863
 247  1068.659
 248  1086.434
 249  1121.637
 250  1112.284
 251  1111.168
 252  1134.997
 253  1064.785
 254  1034.637
 255  1007.397
 256  1051.256
 257  1054.479
 258  1046.84
 259  1002.874
 260  1050.27
 261  1135.968
 262  1077.073
 263  1025.619
 264  1059.747
 265  1005.407
 266  1074.228
 267  1035.651
 268  1008.956
 269  918.3196
 270  891.1951
 271  1002.816
 272  1081.801
 273  1003.45
 274  987.5317
 275  943.7239
 276  1000.761
 277  950.0279
 278  1003.143
 279  991.5294
 280  1034.072
 281  1068.153
 282  1103.917
 283  1055.909
 284  990.9713
 285  1001.14
 286  1089.25
 287  1061.18
 288  943.632
 289  946.8965
 290  984.5727
 291  1049.535
 292  1032.724
 293  1029.916
 294  1031.863
 295  1051.384
 296  1118.858
 297  1096.912
 298  978.8123
 299  1002.916
 300  988.3181
 301  1059.045
 302  1055.917
 303  993.8112
 304  1045.636
 305  1096.237
 306  1132.592
 307  1178.08
 308  1046.69
 309  1014.495
 310  1052.534
 311  1123.737
 312  1010.764
 313  968.4868
 314  971.4117
 315  1073.597
 316  1072.001
 317  1104.719
 318  992.242
 319  891.0981
 320  1012.743
 321  1070.19
 322  1037.226
 323  979.4754
 324  1019.047
 325  1059.572
 326  988.8486
 327  970.5925
 328  963.7808
 329  1033.776
 330  1075.915
 331  1021.923
 332  972.9628
 333  1008.828
 334  1057.898
 335  1080.84
 336  1009.176
 337  1025.338
 338  1126.736
 339  1158.976
 340  1150.389
 341  1112.189
 342  1072.469
 343  1009.062
 344  1047.832
 345  1084.128
 346  1089.257
 347  1035.723
 348  1090.998
 349  1064.43
 350  1058.714
 351  1001.736
 352  1063.818
 353  1083.017
 354  1082.819
 355  1060.884
 356  979.5537
 357  1026.244
 358  1016.405
 359  1111.087
 360  1121.97
 361  1028.56
 362  992.0526
 363  1034.553
 364  1049.034
 365  1070.443
 366  1057.516
 367  992.7382
 368  1014.794
 369  957.7803
 370  912.9266
 371  1008.651
 372  1076.432
 373  954.6185
 374  977.2673
 375  985.641
 376  1001.775
 377  997.5334
 378  1014.402
 379  1019.511
 380  1017.034
 381  1015.68
 382  1086.179
 383  1036.155
 384  974.4886
 385  957.238
 386  962.1105
 387  985.4838
 388  987.8693
 389  1080.162
 390  1093.034
 391  1039.524
 392  998.9981
 393  995.7604
 394  969.9067
 395  1012.239
 396  1086.159
 397  1061.961
 398  1079.855
 399  1072.717
 400  1046.351
 401  990.0342
 402  937.0212
 403  939.4426
 404  980.1855
 405  1049.517
 406  1088.375
 407  1049.224
 408  987.3668
 409  936.0939
 410  940.3641
 411  972.1102
 412  950.9596
 413  1015.204
 414  1082.719
 415  1154.206
 416  1088.647
 417  975.5497
 418  960.2794
 419  942.9347
 420  1016.167
 421  1028.969
 422  970.5547
 423  845.3777
 424  926.0298
 425  1061.1
 426  1046.022
 427  1074.787
 428  1045.364
 429  999.0624
 430  1013.84
 431  992.6378
 432  1097.599
 433  1094.815
 434  1055.445
 435  1034.495
 436  1029.016
 437  1026.393
 438  1008.153
 439  981.1556
 440  1032.751
 441  1006.088
 442  985.6597
 443  970.0596
 444  984.0613
 445  935.3868
 446  959.9686
 447  883.476
 448  1013.53
 449  967.6329
 450  1134.822
 451  1083.656
 452  1039.709
 453  1023.451
 454  1172.51
 455  1110.294
 456  1068.451
 457  1030.245
 458  1082.57
 459  1067.037
 460  1139.081
 461  1057.291
 462  1045.107
 463  1085.928
 464  1091.962
 465  1067.024
 466  1040.295
 467  1042.381
 468  1071.98
 469  1057.983
 470  1069.332
 471  1012.98
 472  990.9261
 473  1089.705
 474  1044.52
 475  1090.528
 476  1010.514
 477  1042.745
 478  1126.992
 479  1090.348
 480  991.7764
 481  1073.464
 482  1120.794
 483  1106.014
 484  1112.844
 485  1113.827
 486  985.2873
 487  1003.875
 488  992.9505
 489  1036.608
 490  1076.37
 491  1013.898
 492  985.435
 493  1025.798
 494  1043.296
 495  1005.714
 496  902.1132
 497  987.8163
 498  1000.207
 499  991.9784
 500  980.3622
 501  1070.141
 502  982.3599
 503  978.9958
 504  958.4878
 505  980.3391
 506  1057.576
 507  1090.14
 508  1026.359
 509  1026.906
 510  1012.124
 511  1109.273
