# Input file       =  1195329842.107446_cleaned.dat
# Candidate        =  PSR_0332+5434
# Telescope        =  AR
# Epoch_topo       =  58078.836355410254
# Epoch_bary       =  N/A
# T_sample         =  0.002
# Data Folded      =  7340032
# Data Avg         =  0.07235932441198 
# Data StdDev      =  1.00005463717608 
# Profile Bins     =  512
# Profile Avg      =  1037.03823816112 
# Profile StdDev   =  119.739578251757 
# Reduced chi-sqr  =  0.547
# Prob(Noise)      <  1   (~0.0 sigma)
# P_topo (ms)      =  714.516199609008  +/- 6.93e-05
# P'_topo (s/s)    =  -0                +/- 3.65e-11
# P''_topo (s/s^2) =  0                 +/- 1.61e-14
# P_bary (ms)      =  N/A
# P'_bary (s/s)    =  N/A
# P''_bary (s/s^2) =  N/A
# P_orb (s)        =  N/A
# asin(i)/c (s)    =  N/A
# eccentricity     =  N/A
# w (rad)          =  N/A
# T_peri           =  N/A
######################################################
   0  1342.08
   1  1295.706
   2  1193.924
   3  1146.618
   4  1093.77
   5  1067.594
   6  935.212
   7  930.4877
   8  947.7883
   9  1034.338
  10  1006.564
  11  1052.266
  12  1079.373
  13  1070.895
  14  1086.997
  15  1123.388
  16  1107.811
  17  1114.427
  18  1132.874
  19  1061.977
  20  1036.156
  21  1003.914
  22  1053.761
  23  1053.861
  24  1045.821
  25  1002.157
  26  1058.465
  27  1135.222
  28  1070.68
  29  1031.36
  30  1052.072
  31  1009.073
  32  1073.198
  33  1035.895
  34  1003.771
  35  914.9619
  36  891.425
  37  1015.395
  38  1078.293
  39  997.8195
  40  989.1145
  41  942.5192
  42  1002.687
  43  945.059
  44  1009.417
  45  992.1695
  46  1037.688
  47  1066.681
  48  1104.907
  49  1054.214
  50  987.7124
  51  1003.383
  52  1095.019
  53  1052.884
  54  941.1311
  55  947.8629
  56  986.5073
  57  1052.426
  58  1030.836
  59  1030.057
  60  1032.79
  61  1050.696
  62  1126.749
  63  1086.067
  64  979.9636
  65  999.3024
  66  994.424
  67  1058.869
  68  1056.083
  69  989.2044
  70  1054.353
  71  1091.788
  72  1141.649
  73  1173.094
  74  1042.719
  75  1014.023
  76  1059.21
  77  1119.52
  78  1005.019
  79  967.2877
  80  976.765
  81  1077.992
  82  1068.281
  83  1107.092
  84  982.1147
  85  892.8624
  86  1022.193
  87  1069.77
  88  1031.554
  89  980.2139
  90  1021.646
  91  1059.463
  92  984.3331
  93  972.9184
  94  960.1601
  95  1042.868
  96  1070.861
  97  1022.421
  98  968.322
  99  1012.608
 100  1063.624
 101  1076.964
 102  1003.239
 103  1033.226
 104  1128.419
 105  1159.171
 106  1152.539
 107  1106.891
 108  1070.798
 109  1007.94
 110  1049.13
 111  1089.309
 112  1083.815
 113  1038.632
 114  1089.547
 115  1066.472
 116  1052.709
 117  1004.17
 118  1068.634
 119  1082.381
 120  1081.867
 121  1058.174
 122  976.1963
 123  1031.398
 124  1016.165
 125  1113.804
 126  1119.869
 127  1019.727
 128  1000.041
 129  1030.702
 130  1053.673
 131  1070.88
 132  1053.94
 133  989.9799
 134  1015.981
 135  953.3472
 136  913.9543
 137  1016.315
 138  1071.309
 139  950.5089
 140  980.8679
 141  985.3706
 142  1001.829
 143  998.6127
 144  1014.993
 145  1019.514
 146  1017.351
 147  1016.083
 148  1087.881
 149  1030.948
 150  975.7167
 151  953.4388
 152  968.5131
 153  979.2505
 154  995.4324
 155  1084.488
 156  1090.254
 157  1036.075
 158  999.4149
 159  992.6996
 160  971.5094
 161  1016.263
 162  1087.832
 163  1059.243
 164  1081.337
 165  1070.675
 166  1046.828
 167  988.9196
 168  930.6309
 169  944.1374
 170  980.4815
 171  1055.907
 172  1086.937
 173  1045.903
 174  984.1351
 175  932.5395
 176  943.7352
 177  973.9525
 178  950.0455
 179  1019.822
 180  1086.608
 181  1155.706
 182  1078.131
 183  977.4006
 184  953.592
 185  949.4274
 186  1016.679
 187  1028.461
 188  964.7269
 189  841.61
 190  935.3548
 191  1062.565
 192  1047.626
 193  1076.912
 194  1041.44
 195  1000.737
 196  1006.044
 197  1000.831
 198  1099.888
 199  1093.735
 200  1049.346
 201  1038.847
 202  1024.833
 203  1029.557
 204  1002.141
 205  985.6042
 206  1032.116
 207  1004.53
 208  986.7979
 209  971.8925
 210  981.7151
 211  933.7303
 212  957.8681
 213  885.248
 214  1018.346
 215  965.0969
 216  1145.548
 217  1079.259
 218  1034.068
 219  1028.51
 220  1179.14
 221  1100.191
 222  1070.133
 223  1027.693
 224  1088.846
 225  1066.407
 226  1142.566
 227  1047.713
 228  1048.306
 229  1088.386
 230  1090.434
 231  1067.456
 232  1035.159
 233  1045.239
 234  1071.566
 235  1059.47
 236  1068.787
 237  1006.816
 238  999.3021
 239  1085.889
 240  1048.213
 241  1087.264
 242  1009.055
 243  1046.414
 244  1132.434
 245  1082.259
 246  994.8508
 247  1073.482
 248  1124.377
 249  1102.39
 250  1116.785
 251  1110.202
 252  980.0686
 253  1008.582
 254  984.4651
 255  1048.792
 256  1070.346
 257  1013.453
 258  984.272
 259  1028.219
 260  1045.08
 261  998.2521
 262  900.8297
 263  996.0837
 264  996.545
 265  990.6947
 266  981.9337
 267  1075.093
 268  973.7941
 269  981.7573
 270  952.8332
 271  988.2326
 272  1061.048
 273  1086.041
 274  1026.602
 275  1026.414
 276  1013.39
 277  1114.886
 278  1111.895
 279  970.9243
 280  1029.807
 281  982.6476
 282  982.4333
 283  997.9526
 284  1001.889
 285  909.9224
 286  973.6965
 287  1031.922
 288  974.1815
 289  950.2437
 290  882.825
 291  937.7123
 292  1024.392
 293  1046.745
 294  968.2933
 295  943.4689
 296  950.8498
 297  930.2864
 298  1001.492
 299  998.179
 300  992.4868
 301  980.4323
 302  1085.449
 303  992.9441
 304  1005.489
 305  1080.619
 306  1094.049
 307  1040.838
 308  1029.948
 309  1064.538
 310  949.935
 311  904.5358
 312  964.04
 313  955.1779
 314  968.4131
 315  1099.558
 316  1110.449
 317  1077.638
 318  933.9595
 319  992.3964
 320  1094.262
 321  1138.571
 322  1061.552
 323  1094.779
 324  1034.565
 325  1090.44
 326  1085.477
 327  1016.927
 328  967.0207
 329  1038.545
 330  1112.208
 331  1101.278
 332  1065.647
 333  1129.932
 334  1151.694
 335  1121.712
 336  1068.638
 337  982.3166
 338  987.6823
 339  1030.573
 340  1072.994
 341  1151.103
 342  1181.316
 343  1055.031
 344  1053.604
 345  1088.068
 346  942.8088
 347  929.0684
 348  948.8939
 349  955.338
 350  1021.992
 351  1022.204
 352  1017.462
 353  1035.312
 354  1043.336
 355  1083.915
 356  1106.272
 357  1035.669
 358  1034.132
 359  1104.99
 360  1092.371
 361  1092.405
 362  1112.695
 363  1182.008
 364  1113.747
 365  1127.062
 366  1120.708
 367  1053.084
 368  1063.868
 369  1160.154
 370  1133.925
 371  1043.938
 372  1046.766
 373  1070.209
 374  1056.332
 375  1097.239
 376  1068.818
 377  1122.274
 378  1079.083
 379  994.7778
 380  1043.775
 381  1017.601
 382  1033.385
 383  1011.552
 384  1058.94
 385  1043.188
 386  1055.974
 387  1066.426
 388  1081.557
 389  1058.61
 390  1109.991
 391  1149.629
 392  1145.079
 393  985.5967
 394  988.6096
 395  936.6686
 396  983.3301
 397  1096.224
 398  1059.305
 399  1013.456
 400  948.4625
 401  1068.484
 402  1053.609
 403  975.2162
 404  911.2559
 405  927.8995
 406  986.8522
 407  1046.352
 408  1021.761
 409  997.9479
 410  1035.833
 411  1004.951
 412  961.0802
 413  1044.503
 414  1029.752
 415  1033.054
 416  996.2972
 417  1066.215
 418  991.9758
 419  1014.685
 420  1047.601
 421  1074.548
 422  1023.872
 423  1003.042
 424  1021.71
 425  1052.083
 426  1012.173
 427  1090.863
 428  1119.917
 429  1098.988
 430  1019.366
 431  1003.94
 432  1065.278
 433  1107.663
 434  1023.644
 435  1108.317
 436  1093.316
 437  1068.853
 438  1013.926
 439  1017.206
 440  1082.827
 441  1094.01
 442  996.3209
 443  1061.159
 444  1100.784
 445  1068.323
 446  1093.066
 447  1098.171
 448  1117.429
 449  1074.637
 450  1051.518
 451  1034.75
 452  1036.458
 453  955.4448
 454  1041.777
 455  1023.306
 456  1058.922
 457  966.8391
 458  1064.363
 459  1094.714
 460  943.2159
 461  894.8839
 462  979.1735
 463  1004.606
 464  1030.025
 465  992.4614
 466  1025.729
 467  971.4931
 468  967.9305
 469  1052.975
 470  1126.938
 471  999.9883
 472  997.9487
 473  1075.712
 474  1147.152
 475  1050.851
 476  1109.902
 477  1049.855
 478  1039.092
 479  928.73
 480  958.2838
 481  957.2094
 482  847.0525
 483  959.704
 484  995.8235
 485  967.7643
 486  890.9911
 487  1037.478
 488  1132.824
 489  1050.981
 490  1048.271
 491  1050.837
 492  1077.779
 493  1118.812
 494  1070.83
 495  1037.694
 496  933.0612
 497  1052.534
 498  1034.684
 499  1066.26
 500  1038.202
 501  1108.372
 502  1095.906
 503  1051.319
 504  1059.389
 505  975.5154
 506  1054.391
 507  1130.884
 508  1141.861
 509  1166.242
 510  1242.917
 511  1361.992
