# Input file       =  1195243722.108974_cleaned.dat
# Candidate        =  PSR_0332+5434
# Telescope        =  AR
# Epoch_topo       =  58077.839596168684
# Epoch_bary       =  N/A
# T_sample         =  0.002
# Data Folded      =  7340032
# Data Avg         =  0.427947996948206
# Data StdDev      =  7.92427851145454 
# Profile Bins     =  512
# Profile Avg      =  6136.24967685161 
# Profile StdDev   =  948.797927271613 
# Reduced chi-sqr  =  0.536
# Prob(Noise)      <  1   (~0.0 sigma)
# P_topo (ms)      =  714.51517224722   +/- 6.81e-05
# P'_topo (s/s)    =  -0                +/- 3.59e-11
# P''_topo (s/s^2) =  0                 +/- 1.59e-14
# P_bary (ms)      =  N/A
# P'_bary (s/s)    =  N/A
# P''_bary (s/s^2) =  N/A
# P_orb (s)        =  N/A
# asin(i)/c (s)    =  N/A
# eccentricity     =  N/A
# w (rad)          =  N/A
# T_peri           =  N/A
######################################################
   0  7004.068
   1  6474.594
   2  6425.568
   3  6259.183
   4  6091.667
   5  6194.502
   6  6012.269
   7  5954.491
   8  6106.987
   9  6392.543
  10  5952.992
  11  5428.484
  12  6060.354
  13  6551.658
  14  5893.912
  15  6181.384
  16  6452.192
  17  6235.7
  18  6097.897
  19  5746.021
  20  5110.287
  21  5091.155
  22  5506.052
  23  6277.636
  24  6215.761
  25  6192.354
  26  6259.274
  27  6702.159
  28  6665.896
  29  6243.919
  30  6451.164
  31  6785.12
  32  6500.375
  33  6115.388
  34  6646.596
  35  6865.551
  36  6774.137
  37  6385.353
  38  6358.929
  39  5727.484
  40  5920.659
  41  6859.02
  42  7118.554
  43  6771.303
  44  6130.106
  45  5864.456
  46  5773.796
  47  5935.718
  48  6314.321
  49  6651.188
  50  6214.23
  51  6427.718
  52  6456.965
  53  5984.389
  54  5590.535
  55  5818.765
  56  6217.225
  57  6017.572
  58  5548.24
  59  6159.663
  60  6455.526
  61  6691.482
  62  6429.487
  63  7194.137
  64  7198.343
  65  5831.434
  66  5945.198
  67  6463.958
  68  5737.16
  69  5835.042
  70  5628.781
  71  5738.133
  72  6185.833
  73  6045.725
  74  6355.446
  75  6144.221
  76  6068.829
  77  6116.504
  78  6608.377
  79  6604.634
  80  6893.91
  81  7262.316
  82  6880.439
  83  6714.94
  84  6444.389
  85  6513.572
  86  5964.439
  87  5998.483
  88  6844.734
  89  7060.755
  90  6711.07
  91  6778.027
  92  6257.244
  93  5793.771
  94  5756.163
  95  6371.137
  96  6067.069
  97  5987.188
  98  5977.112
  99  6445.44
 100  6529.189
 101  6295.939
 102  5930.823
 103  6483.385
 104  6859.959
 105  6647.991
 106  6335.642
 107  6170.659
 108  6093.646
 109  5670.542
 110  5983.978
 111  5704.386
 112  5610.86
 113  5398.396
 114  5414.952
 115  5744.525
 116  5660.86
 117  5999.893
 118  5949.919
 119  5948.058
 120  6552.569
 121  6248.748
 122  5544.947
 123  5253.176
 124  5713.226
 125  5916.126
 126  5671.905
 127  5806.502
 128  5813.564
 129  6109.864
 130  5917.579
 131  5992.741
 132  6149.974
 133  5831.147
 134  6495.09
 135  6254.131
 136  5641.811
 137  5835.669
 138  5898.343
 139  6066.259
 140  5965.925
 141  6267.692
 142  6379.7
 143  5879.039
 144  5776.606
 145  6307.031
 146  6843.751
 147  6617.767
 148  6743.306
 149  6495.543
 150  5832.603
 151  5735.719
 152  6407.619
 153  6724.646
 154  6796.283
 155  6693.933
 156  6855.881
 157  5841.9
 158  5478.329
 159  5998.435
 160  6862.11
 161  7041.652
 162  6467.083
 163  6368.456
 164  6083.808
 165  5726.145
 166  5868.58
 167  6028.479
 168  6318.17
 169  6360.607
 170  6697.208
 171  6586.961
 172  6322.254
 173  6438.792
 174  6076.967
 175  6785.381
 176  6525.34
 177  6491.823
 178  6436.058
 179  6177.236
 180  6296.837
 181  6978.74
 182  7184.361
 183  6529.46
 184  6329.437
 185  5566.055
 186  5599.117
 187  6406.857
 188  6681.079
 189  6451.785
 190  6341.557
 191  6276.248
 192  6072.299
 193  6093.597
 194  6219.645
 195  6203.917
 196  6029.527
 197  6384.407
 198  6666.378
 199  6421.499
 200  6254.791
 201  6221.668
 202  6438.302
 203  6554.022
 204  6050.566
 205  5794.95
 206  5904.398
 207  5092.281
 208  5424.219
 209  5365.868
 210  5958.669
 211  6294.244
 212  6089.794
 213  6900.631
 214  7023.755
 215  6543.603
 216  6665.921
 217  6651.183
 218  5853.889
 219  5757.111
 220  5997.629
 221  6196.361
 222  6163.837
 223  6655.004
 224  6716.313
 225  6094.55
 226  5377.156
 227  5410.751
 228  6000.238
 229  6559.327
 230  6463.493
 231  6215.79
 232  6138.129
 233  5863.92
 234  6159.711
 235  6426.877
 236  6427.198
 237  5974.824
 238  6290.328
 239  7008.5
 240  6437.729
 241  6270.541
 242  6272.105
 243  6044.249
 244  5581.826
 245  6148.264
 246  6075.013
 247  6237.927
 248  5825.467
 249  6242.21
 250  6179.909
 251  5549.71
 252  5444.325
 253  5848.685
 254  5647.702
 255  5855.282
 256  6358.562
 257  6895.134
 258  7177.312
 259  6674.036
 260  6510.506
 261  6209.564
 262  6560.62
 263  6866.508
 264  6418.681
 265  6126.806
 266  6510.509
 267  5866.637
 268  5945.531
 269  5299.788
 270  5470.324
 271  5981.354
 272  5857.854
 273  5493.854
 274  6201.385
 275  6224.541
 276  5689.062
 277  5533.234
 278  5564.763
 279  5602.896
 280  5793.897
 281  6137.468
 282  6690
 283  6695.255
 284  6179.215
 285  5783.075
 286  5094.554
 287  5324.424
 288  5940.815
 289  5961.964
 290  4927.583
 291  4605.041
 292  5221.664
 293  5242.201
 294  5362.552
 295  6228.792
 296  5550.796
 297  5640.858
 298  5984.087
 299  5970.743
 300  6012.601
 301  5731.881
 302  6256.652
 303  6269.559
 304  5912.566
 305  5898.396
 306  6306.275
 307  6663.679
 308  6242.297
 309  5970.267
 310  6231.784
 311  6314.64
 312  6454.44
 313  7602.812
 314  8287.021
 315  8555.205
 316  8097.586
 317  7921.952
 318  6915.808
 319  6526.007
 320  6496.533
 321  6541.562
 322  6320.11
 323  6007.986
 324  6255.144
 325  6159.272
 326  6019.835
 327  6313.315
 328  6248.608
 329  6115.098
 330  5953.399
 331  6749.698
 332  6511.676
 333  5966.184
 334  6226.526
 335  5652.877
 336  5731.926
 337  5526.295
 338  5990.642
 339  5779.236
 340  5889.949
 341  5860.214
 342  6043.339
 343  5837.509
 344  6470.211
 345  6319.52
 346  6001.367
 347  5866.959
 348  5665.672
 349  5445.979
 350  5663.206
 351  6056.231
 352  6632.5
 353  6150.534
 354  5566.333
 355  5571.127
 356  5503.389
 357  6197.448
 358  6430.125
 359  7292.663
 360  7370.106
 361  6387.883
 362  6216.408
 363  6320.628
 364  6118.823
 365  6282.302
 366  6399.562
 367  6762.663
 368  6478.795
 369  5470.602
 370  5378.877
 371  5275.305
 372  5428.655
 373  5390.061
 374  5633.63
 375  6191.259
 376  5790.748
 377  5719.111
 378  6063.352
 379  5701.931
 380  5665.464
 381  5956.308
 382  6085.789
 383  5814.246
 384  6047.623
 385  6488.086
 386  6360.708
 387  6326.257
 388  6390.697
 389  6469.875
 390  6243.258
 391  6402.501
 392  5947.686
 393  5723.933
 394  5805.333
 395  6159.012
 396  6503.818
 397  6217.657
 398  6515.589
 399  6761.505
 400  6548.301
 401  6558.403
 402  6701.531
 403  6537.636
 404  6518.121
 405  6016.988
 406  6123.354
 407  6443.016
 408  6173.528
 409  6033.357
 410  6283.156
 411  6601.521
 412  6099.144
 413  6692.506
 414  6651.651
 415  5915.184
 416  5499.875
 417  6541.161
 418  7013.862
 419  6441.075
 420  6190.247
 421  5462.284
 422  5073.478
 423  5320.96
 424  5991.797
 425  6044.215
 426  5940.819
 427  5784.888
 428  5830.017
 429  5303.702
 430  5341.088
 431  5830.804
 432  5889.439
 433  5413.083
 434  5629.595
 435  6170.956
 436  6322.744
 437  6078.753
 438  6477.256
 439  6665.796
 440  6384.259
 441  6625.006
 442  6328.439
 443  6076.643
 444  6170.721
 445  6742.558
 446  6913.817
 447  6935.88
 448  6193.984
 449  5852.185
 450  6288.718
 451  5259.427
 452  5303.496
 453  5787.728
 454  5748.751
 455  5117.026
 456  5977.355
 457  6089.937
 458  6129.733
 459  5631.075
 460  5979.516
 461  5784.962
 462  5382.87
 463  5373.092
 464  5617.245
 465  5877.568
 466  5290.373
 467  5103.856
 468  5040.395
 469  5244.869
 470  5480.246
 471  5569.462
 472  5407.631
 473  5566.636
 474  5917.385
 475  5850.781
 476  5742.169
 477  5781.522
 478  5321.589
 479  5711.637
 480  6261.463
 481  5865.184
 482  5306.499
 483  4548.63
 484  4708.875
 485  5194.655
 486  5752.388
 487  5501.487
 488  5728.994
 489  6397.751
 490  6410.114
 491  6080.091
 492  6203.41
 493  6912.251
 494  6412.99
 495  6380.537
 496  6597.996
 497  6424.718
 498  5886.823
 499  6003.56
 500  6244.763
 501  6313.37
 502  5841.933
 503  6842.005
 504  6964.204
 505  5372.682
 506  5909.109
 507  6577.97
 508  6508.703
 509  5903.835
 510  6361.441
 511  6752.194
