# Input file       =  1195329842.107446_cleaned.dat
# Candidate        =  PSR_0332+5434
# Telescope        =  AR
# Epoch_topo       =  58078.836355410254
# Epoch_bary       =  N/A
# T_sample         =  0.002
# Data Folded      =  7340032
# Data Avg         =  0.450356132396596
# Data StdDev      =  6.28268457902384 
# Profile Bins     =  512
# Profile Avg      =  6454.62188782558 
# Profile StdDev   =  752.244901244009 
# Reduced chi-sqr  =  0.500
# Prob(Noise)      <  1   (~0.0 sigma)
# P_topo (ms)      =  714.516200810115  +/- 4.92e-05
# P'_topo (s/s)    =  -0                +/- 2.6e-11
# P''_topo (s/s^2) =  0                 +/- 1.15e-14
# P_bary (ms)      =  N/A
# P'_bary (s/s)    =  N/A
# P''_bary (s/s^2) =  N/A
# P_orb (s)        =  N/A
# asin(i)/c (s)    =  N/A
# eccentricity     =  N/A
# w (rad)          =  N/A
# T_peri           =  N/A
######################################################
   0  7053.459
   1  6169.295
   2  6561.622
   3  6251.498
   4  6048.504
   5  6086.155
   6  6292.534
   7  5739.869
   8  6064.209
   9  6271.995
  10  6169.147
  11  5753.966
  12  5591.761
  13  5788.367
  14  6177.933
  15  6152.424
  16  5902.937
  17  5873.985
  18  5812.08
  19  5611.313
  20  6116.17
  21  6140.913
  22  5971.757
  23  6084.515
  24  6891.512
  25  6185.475
  26  6288.056
  27  6785.714
  28  6823.049
  29  6570.028
  30  6397.935
  31  6775.532
  32  6030.635
  33  5543.292
  34  5945.071
  35  5709.134
  36  5865.23
  37  6690.775
  38  6765.899
  39  6488.164
  40  5850.548
  41  6292.185
  42  6839.048
  43  7066.45
  44  6476.444
  45  6660.928
  46  6464.165
  47  6698.646
  48  6705.332
  49  6539.23
  50  6151.417
  51  6479.815
  52  6887.767
  53  7294.354
  54  6481.189
  55  6842.604
  56  7177.618
  57  7163.521
  58  6615.14
  59  6113.704
  60  6309.384
  61  6599.45
  62  6669.134
  63  7206.173
  64  7285.603
  65  6755.744
  66  6737.499
  67  7376.173
  68  6133.075
  69  5853.803
  70  6113.604
  71  6262.387
  72  6490.831
  73  6363.132
  74  6549.018
  75  6518.854
  76  6263.954
  77  6754.144
  78  6812.111
  79  6502.742
  80  6436.74
  81  6886.486
  82  6682.504
  83  6454.539
  84  6700.505
  85  7195.221
  86  6740.603
  87  6708.309
  88  6979.843
  89  6452.654
  90  6465.842
  91  7149.326
  92  7333.98
  93  6611.413
  94  6611.749
  95  6863.437
  96  6792.36
  97  6905.11
  98  6949.945
  99  7099.007
 100  7062.87
 101  6263.34
 102  6416.38
 103  6297.106
 104  6163.447
 105  6188.812
 106  6385.11
 107  6284.538
 108  6468.042
 109  6645.537
 110  6848.362
 111  6452.792
 112  6567.534
 113  6980.615
 114  7108.756
 115  6442.973
 116  6333.459
 117  6374.977
 118  6387.357
 119  6823.193
 120  6824.807
 121  6672.372
 122  6202.751
 123  6369.683
 124  6548.519
 125  6057.866
 126  5644.362
 127  6014.941
 128  6489.468
 129  6525.277
 130  6251.553
 131  6059.795
 132  6337.768
 133  6168.126
 134  6132.736
 135  6803.626
 136  6454.259
 137  6463.185
 138  6250.179
 139  6663.194
 140  6073.771
 141  6373.578
 142  6674.212
 143  6802.837
 144  6404.712
 145  6216.887
 146  6386.499
 147  6470.183
 148  6210.536
 149  6863.635
 150  6717.172
 151  6543.768
 152  6164.417
 153  6171.347
 154  6339.581
 155  6382.562
 156  6213.286
 157  6960.777
 158  6895.546
 159  6769.79
 160  6420.384
 161  6314.545
 162  6674.235
 163  6935.701
 164  6174.756
 165  6537.737
 166  6957.693
 167  6829.738
 168  6885.699
 169  6624.835
 170  6899.472
 171  6486.5
 172  6544.96
 173  6540.328
 174  6661.999
 175  6097.445
 176  6355.976
 177  6419.553
 178  6545.891
 179  6000.903
 180  6523.627
 181  6863.054
 182  6349.386
 183  5580.247
 184  6228.278
 185  6711.082
 186  6744.475
 187  6179.5
 188  6343.372
 189  6192.885
 190  6188.314
 191  6628.149
 192  7249.19
 193  6355.604
 194  6280.717
 195  6879.148
 196  7308.474
 197  6589.155
 198  6741.613
 199  6704.518
 200  6564.915
 201  6068.526
 202  5997.811
 203  5916.913
 204  5489.231
 205  6120.192
 206  6325.396
 207  6238.428
 208  5805.842
 209  6498.86
 210  7223.529
 211  6664.995
 212  6322.713
 213  6520.095
 214  6601.671
 215  6770.62
 216  6453.476
 217  6494.547
 218  5743.373
 219  6098.331
 220  6183.603
 221  6608.475
 222  6253.637
 223  6818.138
 224  6835.202
 225  6796.427
 226  6258.446
 227  6025.1
 228  6535.329
 229  6932.408
 230  6751.617
 231  6927.179
 232  7425.217
 233  8028.832
 234  7967.023
 235  7985.593
 236  7103.822
 237  6902.943
 238  6835.76
 239  6824.098
 240  5902.865
 241  5515.757
 242  5915.929
 243  6491.846
 244  6316.938
 245  6467.202
 246  6757.097
 247  6733.642
 248  6583.494
 249  7032.127
 250  6993.305
 251  7005.196
 252  7341.489
 253  7194.651
 254  6739.806
 255  6178.542
 256  6664.638
 257  6628.905
 258  6721.576
 259  6328.703
 260  6716.975
 261  6954.15
 262  6520.279
 263  6292.274
 264  6646.955
 265  6074.787
 266  6703.04
 267  6478.938
 268  6448.732
 269  5720.418
 270  5681.358
 271  6276.857
 272  6618.554
 273  6138.959
 274  6228.529
 275  5914.868
 276  6140.617
 277  5739.813
 278  6261.689
 279  6252.474
 280  6676.905
 281  6900.047
 282  7096.086
 283  6510.02
 284  6073.289
 285  6435.317
 286  6791.933
 287  6692.136
 288  5969.923
 289  6000.281
 290  6246.406
 291  6470.319
 292  6731.23
 293  6620.894
 294  6533.143
 295  6619.907
 296  7062.945
 297  6766.003
 298  6013.001
 299  6322.57
 300  6121.922
 301  6475.504
 302  6545.119
 303  6049.423
 304  6126.264
 305  6492.096
 306  6818.958
 307  7380.401
 308  6505.039
 309  6454.885
 310  6767.198
 311  7043.902
 312  6154.629
 313  6193.576
 314  6238.851
 315  6483.263
 316  6420.638
 317  6868.369
 318  6406.963
 319  5703.481
 320  6068.416
 321  6780.66
 322  6493.852
 323  6324.804
 324  6535.209
 325  6820.113
 326  6153.947
 327  5936.344
 328  6207.312
 329  6619.769
 330  6849.436
 331  6569.05
 332  6258.616
 333  6327.376
 334  6355.962
 335  6605.309
 336  6059.971
 337  6252.729
 338  6960.625
 339  7171.164
 340  7288.104
 341  6824.455
 342  6771.895
 343  6424.415
 344  6435.314
 345  6678.257
 346  6812.56
 347  6160.677
 348  6537.631
 349  6541.387
 350  6585.038
 351  6039.618
 352  6438.918
 353  6706.657
 354  6817.593
 355  6540.084
 356  6064.855
 357  6385.13
 358  6233.09
 359  6573.26
 360  6862.109
 361  6487.698
 362  6259.115
 363  6360.63
 364  6657.257
 365  6546.877
 366  6544.886
 367  6347.307
 368  6489.659
 369  6130.614
 370  5927.059
 371  6487.756
 372  6815.148
 373  5964.043
 374  6156.468
 375  6200.896
 376  6363.515
 377  6336.787
 378  6447.076
 379  6145.06
 380  6088.467
 381  6265.167
 382  6642.361
 383  6400.387
 384  5774.673
 385  5944.389
 386  5907.556
 387  5910.43
 388  6055.016
 389  6722.817
 390  6691.1
 391  6424.325
 392  6335.119
 393  6461.366
 394  6123.742
 395  6344.102
 396  6784.682
 397  6815.777
 398  6617.721
 399  6655.694
 400  6689.189
 401  6114.621
 402  5763.942
 403  5921.977
 404  6099.149
 405  6466.536
 406  6534.856
 407  6491.137
 408  6203.877
 409  5872.213
 410  5948.056
 411  6193.042
 412  5956.597
 413  6316.708
 414  6993.269
 415  7134.043
 416  6766.184
 417  6060.673
 418  6056.756
 419  5859.689
 420  6212.898
 421  6794.478
 422  6179.014
 423  5278.12
 424  6002.791
 425  6612.884
 426  6264.212
 427  6371.661
 428  6604.55
 429  6440.231
 430  6219.892
 431  6303.602
 432  7159.936
 433  7043.269
 434  6840.983
 435  6730.914
 436  6877.394
 437  6443.229
 438  6264.276
 439  6259.094
 440  6536.471
 441  6133.973
 442  6239.051
 443  6419.955
 444  6200.631
 445  5664.03
 446  6126.422
 447  5695.86
 448  6214.596
 449  6174.902
 450  6947.287
 451  6349.403
 452  6180.108
 453  6160.016
 454  6934.254
 455  6647.914
 456  6552.398
 457  6268.063
 458  6390.246
 459  6424.985
 460  6990.831
 461  6405.703
 462  6246.918
 463  6515.102
 464  6900.985
 465  6603.252
 466  6197.079
 467  6365.838
 468  6510.663
 469  6317.896
 470  6300.153
 471  6368.916
 472  6105.092
 473  6457.186
 474  6221.221
 475  6807.912
 476  6312.906
 477  6522.561
 478  6990.114
 479  6877.675
 480  6105.727
 481  6568.833
 482  6978.609
 483  6929.964
 484  6599.274
 485  6592.042
 486  6183.451
 487  6178.237
 488  6056.696
 489  6284.424
 490  6495.93
 491  6156.784
 492  5990.35
 493  6352.151
 494  6170.251
 495  6069.51
 496  5664.062
 497  6211.523
 498  6299.672
 499  6124.299
 500  6175.871
 501  6649.328
 502  6031.571
 503  6012.084
 504  6047.001
 505  6277.864
 506  6539.795
 507  6519.744
 508  6142.742
 509  6212.85
 510  6427.938
 511  6931.44
