# Input file       =  1195416006.108325_cleaned.dat
# Candidate        =  PSR_0332+5434
# Telescope        =  AR
# Epoch_topo       =  58079.833623938946
# Epoch_bary       =  N/A
# T_sample         =  0.002
# Data Folded      =  7340032
# Data Avg         =  1.45828597964802 
# Data StdDev      =  13.9503499496083 
# Profile Bins     =  1024
# Profile Avg      =  10452.9516363128 
# Profile StdDev   =  1181.09301340755 
# Reduced chi-sqr  =  0.451
# Prob(Noise)      <  1   (~0.0 sigma)
# P_topo (ms)      =  714.517232279611  +/- 7.19e-05
# P'_topo (s/s)    =  -0                +/- 3.8e-11
# P''_topo (s/s^2) =  0                 +/- 1.68e-14
# P_bary (ms)      =  N/A
# P'_bary (s/s)    =  N/A
# P''_bary (s/s^2) =  N/A
# P_orb (s)        =  N/A
# asin(i)/c (s)    =  N/A
# eccentricity     =  N/A
# w (rad)          =  N/A
# T_peri           =  N/A
######################################################
   0  10155.43
   1  10156.63
   2  10173.21
   3  10248.38
   4  10567.1
   5  10780.61
   6  10749.37
   7  10674.47
   8  10351.28
   9  9985.678
  10  10062.45
  11  9915.732
  12  10290.07
  13  10843.01
  14  10764.62
  15  10487.61
  16  10369.17
  17  10312.38
  18  10681.09
  19  10245.29
  20  10222.22
  21  10187.28
  22  9442.64
  23  9584.683
  24  9675.596
  25  9798.648
  26  9926.121
  27  9509.122
  28  9802.326
  29  10066.9
  30  10207.11
  31  10308.89
  32  10475.83
  33  10549.15
  34  10979.35
  35  10258.96
  36  10084.15
  37  10229.14
  38  10034.1
  39  10154.46
  40  9982.816
  41  10154.43
  42  10815.82
  43  10632.16
  44  10663.83
  45  10447.49
  46  9963.604
  47  9840.167
  48  9311.707
  49  9149.921
  50  9330.649
  51  9212.632
  52  9741.167
  53  9878.884
  54  9458.556
  55  9012.001
  56  9423.394
  57  9723.031
  58  10274.47
  59  9968.269
  60  10428.73
  61  10834.1
  62  10839.26
  63  11219.65
  64  10847.75
  65  9977.702
  66  9496.795
  67  9313.632
  68  9581.16
  69  9540.612
  70  9819.984
  71  10495.62
  72  10411.07
  73  9575.607
  74  9662.164
  75  9810.327
  76  9699.289
  77  9556.291
  78  9925.979
  79  10316.84
  80  10416.82
  81  10264.81
  82  10496.01
  83  10183.42
  84  9710.4
  85  10065.31
  86  10124.13
  87  10487.56
  88  10578.53
  89  10587.68
  90  10410.74
  91  10442.63
  92  10432.29
  93  10532.99
  94  10358.42
  95  10130.12
  96  10259.68
  97  9740.57
  98  9852.338
  99  10156.56
 100  10334.78
 101  10323.66
 102  10171.13
 103  9968.986
 104  10259.69
 105  9685.2
 106  10372.3
 107  10820.22
 108  10600.03
 109  10535.36
 110  10190.72
 111  10198.67
 112  10160.16
 113  10129.06
 114  10385.99
 115  10132.03
 116  9529.897
 117  9631.079
 118  9907.993
 119  10286.43
 120  10623.92
 121  10957.37
 122  11197.2
 123  10993.05
 124  10132.28
 125  10627.11
 126  10202.88
 127  10162.97
 128  10407.73
 129  10823.61
 130  11104.38
 131  11172.13
 132  10948.05
 133  10932.63
 134  10863.96
 135  10979.16
 136  11332.58
 137  10710.68
 138  10714.04
 139  10916.81
 140  10702.96
 141  10235.69
 142  10171.06
 143  10514.44
 144  10851.2
 145  10594.64
 146  10733.06
 147  10916.96
 148  10549.37
 149  10828.94
 150  11222.81
 151  11439.12
 152  11020.54
 153  10612.38
 154  10593.07
 155  10736.47
 156  10578.16
 157  10829.09
 158  10741.94
 159  10711.42
 160  10371.16
 161  10107.79
 162  9545.366
 163  9450.105
 164  9864.154
 165  10121.71
 166  10603.58
 167  10420.97
 168  10631.6
 169  10602.68
 170  10344.94
 171  10690.53
 172  10530.23
 173  10473.17
 174  10641.58
 175  10679.92
 176  10883.7
 177  10442.04
 178  10248.09
 179  10533.75
 180  10355.96
 181  9792.349
 182  10008.96
 183  10057.82
 184  10701.79
 185  10850.36
 186  10312.9
 187  10077.61
 188  9719.714
 189  9565.489
 190  9833.353
 191  9571.217
 192  9693.429
 193  10206.71
 194  10447.56
 195  11002.08
 196  11192.32
 197  10986.94
 198  10748.81
 199  10032.35
 200  10550.36
 201  10449.61
 202  10233.36
 203  10267.5
 204  10543.23
 205  10385.82
 206  10908.32
 207  10445.81
 208  10347.33
 209  10318.61
 210  10253.61
 211  10347.9
 212  9818.823
 213  9581.068
 214  10259.79
 215  10007.93
 216  9885.916
 217  9999.579
 218  10388.38
 219  10809.44
 220  10521.23
 221  10655.39
 222  10789.31
 223  10571.26
 224  10535.44
 225  10871.91
 226  10436.48
 227  10394.9
 228  10342.62
 229  10531.22
 230  10489.71
 231  10338.81
 232  10744.56
 233  11162.13
 234  11055.84
 235  10953.73
 236  10600.76
 237  10165.15
 238  10238.39
 239  10104.65
 240  9940.735
 241  9754.093
 242  9652.775
 243  10236.24
 244  10152.03
 245  10124.69
 246  10020.02
 247  9801.203
 248  9778.691
 249  10019.75
 250  10580.23
 251  10730.85
 252  11047.57
 253  11210.29
 254  11619.34
 255  11405.25
 256  10671.37
 257  10804.32
 258  11241.26
 259  11246.1
 260  10957.94
 261  10605.35
 262  11044.14
 263  11453.63
 264  11334.13
 265  11525.88
 266  11050.43
 267  10708.22
 268  10718.58
 269  10545.1
 270  10727.71
 271  10812.42
 272  10846.5
 273  10961.98
 274  10491.63
 275  10250.45
 276  10503.19
 277  10011.74
 278  10463.21
 279  10567.05
 280  10455.62
 281  10713.91
 282  10814.3
 283  10926.67
 284  10561.39
 285  10050.06
 286  10168.07
 287  10273.97
 288  10383.6
 289  10925.64
 290  10847.15
 291  10689.33
 292  10667.14
 293  10745.96
 294  10658.77
 295  10571.3
 296  9896.63
 297  10397.33
 298  10221.83
 299  10071.73
 300  10390.38
 301  10038.14
 302  10127.26
 303  10015.1
 304  9860.91
 305  9933.177
 306  9752.878
 307  10061.57
 308  10609.34
 309  10315.88
 310  10299.05
 311  10429.03
 312  10194.44
 313  10380.11
 314  10233.55
 315  10342.32
 316  10270.98
 317  9716.695
 318  9759.639
 319  10286.62
 320  11055.29
 321  11701.66
 322  11344.11
 323  10563.58
 324  10106.66
 325  9893.525
 326  10129.29
 327  10483.44
 328  10714.83
 329  10782.38
 330  10416.9
 331  10327.24
 332  10543.15
 333  10314.71
 334  10216.5
 335  10503.86
 336  10538.69
 337  10058.94
 338  9818.684
 339  10007.76
 340  10540.7
 341  10284.1
 342  9749.632
 343  9897.549
 344  9762.295
 345  9703.114
 346  10001.05
 347  10308.45
 348  10589.83
 349  10500.91
 350  10485.28
 351  10381.06
 352  10083.27
 353  9682.467
 354  9842.432
 355  9934.793
 356  10202.6
 357  10477.61
 358  10491.92
 359  10441.19
 360  10445.56
 361  10219.59
 362  10306.88
 363  9969.545
 364  10185.42
 365  10722.76
 366  10268.26
 367  10541.18
 368  10638.44
 369  10834.57
 370  11020.87
 371  10786.29
 372  11126.66
 373  11275.82
 374  11036.91
 375  11249.78
 376  11271.03
 377  10955.2
 378  10924.06
 379  10493.19
 380  10466.18
 381  10581.44
 382  10131.33
 383  10303.7
 384  10059.82
 385  10267.64
 386  10844.93
 387  10554.2
 388  10631.65
 389  10546.22
 390  10198.07
 391  10194.78
 392  10102.07
 393  10286.36
 394  10473.08
 395  10314.69
 396  10549.67
 397  10732.51
 398  10486.64
 399  10437.54
 400  10445.65
 401  10020.79
 402  9981.925
 403  9918.107
 404  10393.77
 405  10640
 406  10560.36
 407  10884.47
 408  10785.63
 409  10647.97
 410  10737.8
 411  10414.47
 412  10163.33
 413  10492.74
 414  10633.26
 415  10726.22
 416  10459.61
 417  10491.47
 418  10459.26
 419  10023.41
 420  9499.289
 421  10073.67
 422  10631.85
 423  10693.58
 424  10460.27
 425  10392.76
 426  10778.29
 427  10703.45
 428  10011.61
 429  9710.299
 430  9070.669
 431  9227.28
 432  9504.99
 433  9624.159
 434  10143.21
 435  10391.87
 436  10298.98
 437  10114.43
 438  10233.73
 439  10252.3
 440  10511.92
 441  10128.44
 442  10456.77
 443  10877.19
 444  10505.74
 445  10347.54
 446  10188.17
 447  10297.33
 448  10703.82
 449  10480.29
 450  10628.65
 451  10749.13
 452  10622.61
 453  11152.83
 454  11425.58
 455  11055.74
 456  10861.28
 457  10285.16
 458  10750.92
 459  10776.41
 460  10423.09
 461  10467.74
 462  10256.65
 463  10053.1
 464  10540.67
 465  10850.68
 466  10938.34
 467  10919.52
 468  10261.75
 469  10386.98
 470  10218.69
 471  10625.81
 472  11051.6
 473  10673.16
 474  10696.45
 475  10731.79
 476  10569.05
 477  10376.65
 478  10111.81
 479  9865.663
 480  9887.548
 481  9642.354
 482  9899.008
 483  10248.15
 484  9788.063
 485  9740.438
 486  10026.55
 487  10355.88
 488  10405.94
 489  10188.78
 490  10338.99
 491  10713.47
 492  10523.85
 493  10511.42
 494  10495.24
 495  10243.41
 496  10535.4
 497  10313.19
 498  10657.37
 499  11017.11
 500  11125.7
 501  11115.22
 502  10358.77
 503  10100.8
 504  10115.66
 505  10591.03
 506  10425.81
 507  10735.41
 508  10845.8
 509  10817.95
 510  10659.22
 511  10338.73
 512  10428.85
 513  10134.79
 514  9830.95
 515  10112.87
 516  10165.79
 517  10197.75
 518  10447.36
 519  10627.19
 520  11210.04
 521  11463.1
 522  11075.33
 523  10601.44
 524  10269.11
 525  10046.5
 526  10139.25
 527  9830.816
 528  10410.69
 529  10938.96
 530  10575.91
 531  10241.58
 532  10277.35
 533  10536.34
 534  10914.08
 535  10370.63
 536  10533.64
 537  10422.6
 538  10128.3
 539  10640.66
 540  10354.55
 541  10184.49
 542  10085.62
 543  9953.841
 544  10333.32
 545  10262.45
 546  10213.15
 547  10341.03
 548  10620.71
 549  10788.54
 550  10971.33
 551  10610.64
 552  10572.68
 553  10692.97
 554  10552.87
 555  10609.39
 556  10579.05
 557  10435.37
 558  10647.69
 559  9917.908
 560  10070.59
 561  10334.54
 562  10268.69
 563  10341.32
 564  10349.48
 565  10619.96
 566  10724.79
 567  10097.21
 568  10143.14
 569  10584.94
 570  10764.78
 571  10819.26
 572  10737.5
 573  10627.37
 574  10862.43
 575  10542.02
 576  10703.93
 577  10949.08
 578  11161.17
 579  11462.68
 580  11065.57
 581  10504.17
 582  10170.55
 583  9860.527
 584  10024.2
 585  10172.99
 586  10057.84
 587  9992.892
 588  10072.18
 589  10233.45
 590  10279.38
 591  10133.19
 592  9803.185
 593  9750.87
 594  9989.29
 595  10259.18
 596  10223.7
 597  9901.519
 598  10150.35
 599  10312.09
 600  10345.67
 601  10731.3
 602  10907.06
 603  10660.19
 604  10410.07
 605  10102.53
 606  10249.47
 607  10652.28
 608  10651.22
 609  10626.61
 610  10261.5
 611  9923.703
 612  10020.42
 613  9836.019
 614  10600.11
 615  11197.77
 616  11068.23
 617  11006.87
 618  10611.48
 619  10103.51
 620  10207.54
 621  10064.3
 622  10521.62
 623  10793.25
 624  10588.52
 625  11124.1
 626  11169.7
 627  11183
 628  11333.68
 629  11231.75
 630  11375.53
 631  11229.85
 632  10825.92
 633  10732.21
 634  10438.48
 635  10094.3
 636  10531.28
 637  10433.01
 638  10802.65
 639  10622.09
 640  9710.262
 641  9592.633
 642  9562.381
 643  9829.043
 644  9962.677
 645  9781.256
 646  10221.79
 647  10257.13
 648  9808.917
 649  9729.128
 650  9808.288
 651  9921.582
 652  9992.912
 653  10061.61
 654  10199.57
 655  10339.41
 656  9941.275
 657  10364
 658  10685.22
 659  10672.64
 660  10819.04
 661  10564.9
 662  10813.89
 663  11096.15
 664  10802.06
 665  11268.9
 666  11065.66
 667  10640.42
 668  10342.91
 669  10466.15
 670  10156.68
 671  10029.71
 672  9814.485
 673  10256.48
 674  10120.83
 675  10029.89
 676  10409.07
 677  10372.23
 678  10242.96
 679  10337.17
 680  10412.52
 681  10579.52
 682  10521.89
 683  10733.64
 684  10745.91
 685  10797.51
 686  10697.91
 687  10967.17
 688  10976.9
 689  10756.59
 690  10803.6
 691  10754.1
 692  11079.28
 693  11045.15
 694  11114.87
 695  11479.26
 696  11543.7
 697  10968.96
 698  11018.01
 699  10501.16
 700  10476.83
 701  10487.33
 702  10576.49
 703  11089.48
 704  11305.5
 705  11303.72
 706  11617.16
 707  11066.84
 708  11417.58
 709  11229.88
 710  11108.38
 711  11069.92
 712  11058.64
 713  10847.74
 714  11377.08
 715  11359.93
 716  11484.7
 717  11525.5
 718  11369.53
 719  11516.05
 720  11353.17
 721  11255.82
 722  11746.86
 723  11296.31
 724  11061.36
 725  10969.88
 726  10410.45
 727  10425.08
 728  10184.81
 729  10544.67
 730  11104.18
 731  10575.09
 732  10373.88
 733  10144.51
 734  10122.15
 735  10199.32
 736  10034.62
 737  9996.146
 738  10420.67
 739  10324.18
 740  10470.44
 741  10518.27
 742  10491.06
 743  10900.9
 744  11126.51
 745  10710.88
 746  10509.29
 747  10016.12
 748  10286.34
 749  10259.99
 750  10521.64
 751  10754.14
 752  10268.88
 753  9978.349
 754  10051.47
 755  10377.53
 756  10085.06
 757  10306.84
 758  10400.74
 759  10779.02
 760  10799.57
 761  10937.78
 762  10982.49
 763  10793.27
 764  10634.49
 765  11116.58
 766  10919.34
 767  10502.66
 768  10354
 769  10285.89
 770  10359.83
 771  10446.64
 772  10550.61
 773  10679.64
 774  10477.34
 775  10503.75
 776  10671.12
 777  10655.82
 778  10514.03
 779  10490.61
 780  10143.41
 781  10515.89
 782  10460.45
 783  10405.61
 784  10481.13
 785  10047.85
 786  10141.45
 787  10403.18
 788  10047.23
 789  10053.58
 790  9932.756
 791  10099.95
 792  10082.6
 793  9878.486
 794  9962.761
 795  10107.57
 796  10179.5
 797  10657.56
 798  10824.04
 799  10368.94
 800  10505.47
 801  10371.19
 802  10438.24
 803  10490.23
 804  9901.635
 805  10102.46
 806  10329.44
 807  10508.4
 808  10602.21
 809  9976.625
 810  9453.773
 811  9648.207
 812  9663.446
 813  10529.05
 814  10305.12
 815  10426.02
 816  10414.66
 817  10154.25
 818  10059.8
 819  10139.95
 820  9785.388
 821  9727.444
 822  10078.83
 823  10508.86
 824  10840.45
 825  10360.08
 826  10299.67
 827  10952.64
 828  11206.6
 829  11553.39
 830  11569.89
 831  11632.84
 832  11758.27
 833  10975.54
 834  10702.64
 835  10832.16
 836  10699.05
 837  10822.83
 838  10405.96
 839  10124.07
 840  10463.94
 841  10576.45
 842  10495.11
 843  10285.48
 844  10440.67
 845  10448.51
 846  10387.35
 847  10430.29
 848  10356.64
 849  10038.12
 850  9509.274
 851  10138
 852  10759.77
 853  10994.28
 854  10675.53
 855  10399.81
 856  10428.79
 857  10492.17
 858  10179.87
 859  10522.2
 860  10433.27
 861  10481.2
 862  10706.23
 863  10395.94
 864  10628.45
 865  10937.12
 866  11414.82
 867  11698.76
 868  11571.73
 869  11174.72
 870  10866.19
 871  10038.58
 872  10309.88
 873  10415.38
 874  10395.77
 875  10133.21
 876  10287.19
 877  10239.9
 878  10109.44
 879  9629.97
 880  9861.78
 881  10042.53
 882  9960.952
 883  10032.41
 884  10305.89
 885  10313.37
 886  10561.05
 887  10492.06
 888  10740.77
 889  10673.4
 890  9994.298
 891  10009.2
 892  10235.31
 893  10275.7
 894  10804.4
 895  10460.52
 896  10349.64
 897  10317.93
 898  9944.725
 899  9840.846
 900  9662.814
 901  9999.99
 902  10894.33
 903  10565.53
 904  10408.24
 905  10253.63
 906  10182.35
 907  10483.92
 908  10215.67
 909  10099.32
 910  9988.275
 911  9901.358
 912  10211.12
 913  10739.3
 914  10509.46
 915  11025.28
 916  10720.14
 917  10537.59
 918  10354.79
 919  10193.05
 920  10285.01
 921  10326.6
 922  10446.28
 923  10712.34
 924  10482.46
 925  10260.27
 926  10169.47
 927  10194.08
 928  10184.41
 929  10237.96
 930  10294.58
 931  10495.94
 932  10364.58
 933  10428.58
 934  10732.89
 935  10243.54
 936  9949.315
 937  10103.58
 938  10559.27
 939  10510.62
 940  10632.08
 941  10622.92
 942  10854.18
 943  11018.17
 944  11029.24
 945  10892.73
 946  10471.19
 947  10613.98
 948  10696.86
 949  10673.15
 950  10741.99
 951  10763.9
 952  10664.25
 953  10825.12
 954  11116.68
 955  10715.56
 956  10842.11
 957  10408.11
 958  10519.23
 959  10410.63
 960  9998.935
 961  10053.03
 962  10261.66
 963  10393.25
 964  10578.93
 965  10390.21
 966  10776.88
 967  10497.91
 968  10102.31
 969  10797.97
 970  11383.74
 971  11232.75
 972  11243.76
 973  10685.13
 974  10868.36
 975  10519.6
 976  10182.74
 977  10294.8
 978  10564.5
 979  10684.45
 980  11008.79
 981  10500.69
 982  10525.5
 983  10327.33
 984  10447.85
 985  10768.85
 986  10664.21
 987  10489.35
 988  10796.83
 989  10203.92
 990  10282.38
 991  10745.09
 992  10693.15
 993  10587.36
 994  10155.05
 995  10546.05
 996  10845.99
 997  10592.16
 998  10638.63
 999  10846.02
1000  10845.69
1001  11183.25
1002  10977.4
1003  10631.69
1004  10527.69
1005  10249.38
1006  10305.35
1007  10313.74
1008  10429.65
1009  11073.33
1010  11225.39
1011  11340.15
1012  11071.24
1013  10791.49
1014  10408.45
1015  10862.99
1016  11305.62
1017  11128.65
1018  10831
1019  10645.52
1020  11261.89
1021  11132.93
1022  10840.85
1023  10653.8
