# Input file       =  1195674484.107206_cleaned.dat
# Candidate        =  PSR_0332+5434
# Telescope        =  AR
# Epoch_topo       =  58082.825267444518
# Epoch_bary       =  N/A
# T_sample         =  0.002
# Data Folded      =  7340032
# Data Avg         =  1.01865650442466 
# Data StdDev      =  8.43165345131965 
# Profile Bins     =  512
# Profile Avg      =  14603.4825010642 
# Profile StdDev   =  1009.54746940314 
# Reduced chi-sqr  =  0.684
# Prob(Noise)      <  1   (~0.0 sigma)
# P_topo (ms)      =  714.520332268371  +/- 0.000205
# P'_topo (s/s)    =  -0                +/- 1.08e-10
# P''_topo (s/s^2) =  0                 +/- 4.79e-14
# P_bary (ms)      =  N/A
# P'_bary (s/s)    =  N/A
# P''_bary (s/s^2) =  N/A
# P_orb (s)        =  N/A
# asin(i)/c (s)    =  N/A
# eccentricity     =  N/A
# w (rad)          =  N/A
# T_peri           =  N/A
######################################################
   0  15081.32
   1  14185.43
   2  14425.86
   3  14760.67
   4  15199
   5  14563.1
   6  14381.48
   7  14234.27
   8  15273.75
   9  15093.62
  10  15024.63
  11  14724.7
  12  14966.81
  13  14827.58
  14  14045.46
  15  14433.24
  16  15240.73
  17  14826.03
  18  14982.83
  19  15051.37
  20  14935.45
  21  14271.6
  22  14368.47
  23  15117.19
  24  14008.64
  25  13563.59
  26  14986.31
  27  15560.07
  28  15029.77
  29  14085.82
  30  14264.64
  31  14334.29
  32  14162.58
  33  15166.49
  34  14772.38
  35  14148.58
  36  14123.36
  37  15139.07
  38  15084.69
  39  14097.49
  40  14506.42
  41  14759.67
  42  16058.47
  43  15835.75
  44  15958.54
  45  15478.55
  46  14964.69
  47  15250.04
  48  13678.9
  49  14448
  50  15442.46
  51  14998.07
  52  14981.65
  53  14497.1
  54  14281
  55  14791.71
  56  15155.22
  57  14900.81
  58  14768.17
  59  14487.13
  60  13892.87
  61  14159.16
  62  14127.38
  63  14043.92
  64  14316.73
  65  14789.87
  66  15488.52
  67  14193.11
  68  13747.57
  69  14320.04
  70  14107.42
  71  14143.05
  72  14829.23
  73  14454.34
  74  14006.78
  75  13701.78
  76  13972.4
  77  13017.49
  78  13324.46
  79  13952.45
  80  14859.84
  81  13550.88
  82  13598.44
  83  14671.68
  84  14629.44
  85  13911.01
  86  13560.85
  87  13858.76
  88  14234.76
  89  14114.81
  90  13467.52
  91  13896.47
  92  14023.79
  93  13907.77
  94  13823.59
  95  14055.85
  96  13837.93
  97  13937.37
  98  14435.38
  99  13974.75
 100  14526.77
 101  14602.13
 102  14262.64
 103  13693.41
 104  13611.27
 105  13771.69
 106  13103.85
 107  13673.35
 108  14263.55
 109  14048.71
 110  14515.82
 111  14656.21
 112  14779.69
 113  14665.45
 114  14607.73
 115  14675.74
 116  14349.66
 117  13751.45
 118  13219.74
 119  14243.65
 120  14311.46
 121  14311.7
 122  14735.18
 123  14538.03
 124  15143.87
 125  14730.4
 126  14553.23
 127  14535.4
 128  15095.08
 129  14828.03
 130  13790.81
 131  13485.52
 132  13169.42
 133  13481.01
 134  13505.58
 135  13854.3
 136  13997.43
 137  14048.56
 138  14574.52
 139  14781.1
 140  14729.89
 141  14781.19
 142  14610.7
 143  14729.93
 144  15092.85
 145  14634.24
 146  14418.35
 147  14744.32
 148  14189.08
 149  13851.27
 150  14355.86
 151  14314.13
 152  14026.77
 153  13920.74
 154  13665.23
 155  14292.55
 156  14529.42
 157  14449.42
 158  14691.45
 159  14944.01
 160  15174.66
 161  15654.11
 162  15221.44
 163  14411.83
 164  14323
 165  13967.54
 166  14262.67
 167  14185.01
 168  13243.16
 169  13753.97
 170  13646.31
 171  14343.38
 172  14097.03
 173  13710.32
 174  13686.54
 175  13681.47
 176  14145.06
 177  14337.63
 178  14194.27
 179  15631.19
 180  15249.55
 181  14511
 182  13824.94
 183  14091.45
 184  14860.98
 185  14452.21
 186  13959.22
 187  14594.59
 188  14121.12
 189  14061.41
 190  14307.5
 191  14379.74
 192  13907.33
 193  13578.62
 194  14283.26
 195  14919.98
 196  15055.48
 197  14262.42
 198  14829.16
 199  15106.94
 200  14911.37
 201  14707.57
 202  14760.56
 203  14320.63
 204  14569.17
 205  14452.24
 206  13877.75
 207  14420.71
 208  14585.6
 209  14432.55
 210  14197.41
 211  14446.81
 212  14762.63
 213  14471.18
 214  14764.64
 215  15532.25
 216  15533.84
 217  15127.31
 218  14714.15
 219  14954.54
 220  14673.93
 221  14364.75
 222  14171.36
 223  14330.24
 224  15078.81
 225  14067.31
 226  14055.16
 227  14428.98
 228  15136.87
 229  15358.45
 230  14184.37
 231  13975.08
 232  14653.34
 233  14628.84
 234  14490.64
 235  14554.33
 236  14018.8
 237  13995.52
 238  14464.6
 239  14061.21
 240  14562.79
 241  15217.01
 242  14644.42
 243  15180.49
 244  15422.71
 245  14613.53
 246  14133.7
 247  14067.49
 248  14565.21
 249  14108.68
 250  15041.16
 251  14888.67
 252  15490.8
 253  15520.63
 254  15070.32
 255  14964.98
 256  15270.09
 257  14415.86
 258  14451.26
 259  14745.48
 260  15115.84
 261  14516.32
 262  13983.51
 263  14614.95
 264  14832.36
 265  14388.33
 266  14564.31
 267  13860.95
 268  13836.81
 269  13982.28
 270  15112.03
 271  15342.26
 272  15684.93
 273  14566.13
 274  13756.75
 275  13753.33
 276  14037.18
 277  14562.78
 278  13397.98
 279  14146.76
 280  14228.82
 281  14271.73
 282  14576.58
 283  13930.05
 284  14641.41
 285  14862.6
 286  14383.15
 287  14197.75
 288  14474.95
 289  14548.08
 290  14318.26
 291  15079.24
 292  15314.89
 293  15297.93
 294  14625.49
 295  14600.41
 296  14796.42
 297  14672.57
 298  14975.77
 299  15382.93
 300  15342
 301  14815.3
 302  15079.76
 303  14865.63
 304  14496.06
 305  14934.96
 306  14823.92
 307  14606.05
 308  14137.67
 309  14897.23
 310  15069.74
 311  14527.09
 312  14796.54
 313  14332.8
 314  14772.25
 315  14857.25
 316  14484.99
 317  13878.06
 318  14341.82
 319  15400.78
 320  15034.77
 321  15400.02
 322  15436.53
 323  15366.05
 324  14982.7
 325  15088.91
 326  15599.52
 327  15320.46
 328  15366.44
 329  14875.4
 330  14805.3
 331  14384.48
 332  14364.39
 333  14166.42
 334  14590.6
 335  14439.44
 336  14660.49
 337  15154.37
 338  15184.77
 339  14687.18
 340  13978.58
 341  14533.18
 342  14787.33
 343  14515.26
 344  15068.77
 345  15049.9
 346  14965.32
 347  15116.19
 348  15267.62
 349  14314.58
 350  13946.91
 351  14706.44
 352  14333.1
 353  14484.62
 354  13968.76
 355  14149.46
 356  14286.03
 357  14953.78
 358  14793.35
 359  14581.42
 360  14532.33
 361  14409.91
 362  14550.59
 363  14437.11
 364  13753.5
 365  14391.16
 366  15193.72
 367  15572.28
 368  15133.52
 369  14312.81
 370  14664.01
 371  14513.34
 372  13846.49
 373  13647.19
 374  13374.88
 375  13990.63
 376  14161.88
 377  13658.11
 378  13820.07
 379  14513.68
 380  14886.97
 381  15117.96
 382  14947.06
 383  14721.61
 384  15180.29
 385  14889.3
 386  14781.41
 387  15195.59
 388  14798.41
 389  14799.47
 390  14243.49
 391  14427.26
 392  14797.5
 393  14339.3
 394  14960.53
 395  15075.24
 396  14847.22
 397  15595.79
 398  15384.16
 399  14960.01
 400  14227.21
 401  14467.25
 402  14485.79
 403  14536.54
 404  14676.56
 405  15332.02
 406  15056.89
 407  14902.31
 408  14699.76
 409  15033.22
 410  15047.16
 411  15237.94
 412  15788.5
 413  16048.31
 414  15747.08
 415  15272.68
 416  15458.71
 417  14618.92
 418  13367.46
 419  14002.48
 420  15203.53
 421  14387.9
 422  13630.42
 423  14101.68
 424  14990.19
 425  15082.36
 426  14503.92
 427  15265
 428  15232.01
 429  14113.67
 430  14617.48
 431  14230.27
 432  13995.81
 433  14120.28
 434  14184.08
 435  15116.46
 436  15275.55
 437  15267.62
 438  15030.8
 439  15289.31
 440  15482.62
 441  16138.63
 442  15963.14
 443  15974.1
 444  15821.77
 445  15321.93
 446  14962.31
 447  14775.74
 448  15439.53
 449  16119.04
 450  15376
 451  15404.32
 452  15733.37
 453  15831.86
 454  15536.59
 455  15894.3
 456  16536.98
 457  16769.87
 458  16813.02
 459  16451.68
 460  15682.38
 461  15089.45
 462  14749.91
 463  15173.07
 464  14989.1
 465  14534.56
 466  14920.21
 467  14722.04
 468  14888.28
 469  15152.66
 470  14522.11
 471  14456.85
 472  13773.03
 473  14633.34
 474  13703.4
 475  14160.7
 476  14005
 477  14498.07
 478  13970
 479  13784.07
 480  14764.37
 481  15244.12
 482  15224.55
 483  15165.21
 484  15864.15
 485  14652.06
 486  13783.84
 487  14156.99
 488  14268.1
 489  13376.19
 490  12768.9
 491  14285.34
 492  14463.72
 493  13685.83
 494  13527.55
 495  14673.46
 496  15070.87
 497  14574.58
 498  15245.29
 499  15275.33
 500  15423.46
 501  15155.63
 502  15229.97
 503  14711.82
 504  15214.72
 505  14790.28
 506  14426.13
 507  14784.97
 508  14351.25
 509  14564.27
 510  14504.89
 511  14698.75
