# Input file       =  1195659868.110136_cleaned.dat
# Candidate        =  PSR_0332+5434
# Telescope        =  AR
# Epoch_topo       =  58082.656100811757
# Epoch_bary       =  N/A
# T_sample         =  0.002
# Data Folded      =  7143424
# Data Avg         =  0.988628438720906
# Data StdDev      =  18.8957968992687 
# Profile Bins     =  1024
# Profile Avg      =  6896.58621144444 
# Profile StdDev   =  1578.22329086789 
# Reduced chi-sqr  =  0.435
# Prob(Noise)      <  1   (~0.0 sigma)
# P_topo (ms)      =  714.520133921693  +/- 2.94e-05
# P'_topo (s/s)    =  -0                +/- 1.6e-11
# P''_topo (s/s^2) =  0                 +/- 7.24e-15
# P_bary (ms)      =  N/A
# P'_bary (s/s)    =  N/A
# P''_bary (s/s^2) =  N/A
# P_orb (s)        =  N/A
# asin(i)/c (s)    =  N/A
# eccentricity     =  N/A
# w (rad)          =  N/A
# T_peri           =  N/A
######################################################
   0  6651.12
   1  5923.972
   2  6329.616
   3  6104.533
   4  6916.845
   5  6622.762
   6  5847.749
   7  6164.117
   8  6381.571
   9  5828.054
  10  5832.804
  11  5094.768
  12  5498.628
  13  5690.525
  14  5466.676
  15  5475.135
  16  5380.938
  17  5130.119
  18  5667.609
  19  5377.313
  20  6122.647
  21  7086.683
  22  7079.288
  23  7698.983
  24  7145.203
  25  6396.104
  26  6913.019
  27  6524.953
  28  7318.089
  29  7095.436
  30  6684.882
  31  6760.864
  32  6419.363
  33  6436.265
  34  7009.808
  35  6640.557
  36  7163.021
  37  6914.504
  38  6593.379
  39  6876.3
  40  6887.323
  41  6974.267
  42  7201.664
  43  6988.376
  44  7264.458
  45  7243.603
  46  6597.606
  47  6800.948
  48  6883.36
  49  7306.208
  50  7353.311
  51  7247.217
  52  7065.475
  53  7131.73
  54  6353.031
  55  6610.045
  56  5782.896
  57  5725.479
  58  5718.053
  59  5669.328
  60  5624.561
  61  6070.609
  62  6125.754
  63  6542.717
  64  6286.58
  65  6375.766
  66  6654.988
  67  6583.947
  68  5740.605
  69  5845.135
  70  5347.257
  71  5778.859
  72  5681.974
  73  5689.589
  74  5802.936
  75  6054.569
  76  6515.166
  77  6970.764
  78  6707.091
  79  6889.613
  80  7270.124
  81  7274.579
  82  7714.518
  83  8183.171
  84  8616.518
  85  8853.582
  86  8319.902
  87  7316.225
  88  6844.975
  89  6308.318
  90  6620.49
  91  6587.826
  92  6458.871
  93  6463.961
  94  6227.968
  95  5927.812
  96  6587.059
  97  6284.124
  98  6916.461
  99  6942.518
 100  6710.588
 101  6793.435
 102  6886.214
 103  6832.584
 104  7174.447
 105  7141.51
 106  8252.849
 107  8758.188
 108  7951.752
 109  7379.15
 110  7084.839
 111  7142.23
 112  7928.652
 113  7650.26
 114  8553.726
 115  8441.804
 116  7359.553
 117  7198.513
 118  6414.508
 119  5976.58
 120  6057.61
 121  5540.479
 122  5767.307
 123  6100.977
 124  5791.697
 125  6373.107
 126  6046.504
 127  6481.952
 128  6918.69
 129  6732.174
 130  6598.894
 131  6795.878
 132  6903.355
 133  7134.678
 134  6639.767
 135  6447.057
 136  6698.535
 137  6558.09
 138  6827.425
 139  7149.418
 140  7149.513
 141  7740.491
 142  7438.275
 143  6949.543
 144  6736.495
 145  6592.876
 146  7132.154
 147  7217.599
 148  6552.001
 149  6443.472
 150  6722.381
 151  7149.758
 152  7048.154
 153  7142.851
 154  7238.916
 155  7425.286
 156  6499.223
 157  6281.874
 158  6308.01
 159  6687.464
 160  6924.514
 161  7021.489
 162  6990.258
 163  7528.895
 164  7685.772
 165  7753.904
 166  8091.369
 167  7938.258
 168  8304.728
 169  8281.364
 170  8303.568
 171  8509.278
 172  7794.165
 173  6651.493
 174  6787.629
 175  6669.413
 176  7262.985
 177  7674.315
 178  7727.455
 179  7613.012
 180  7157.577
 181  6686.717
 182  7006.691
 183  6034.398
 184  6285.475
 185  6724.874
 186  6666.857
 187  7192.173
 188  7036.855
 189  6913.569
 190  6953.131
 191  6412.7
 192  7217.849
 193  7679.498
 194  7536.708
 195  7607.538
 196  7289.51
 197  6899.486
 198  7571.43
 199  7374.78
 200  7794.765
 201  7340.564
 202  6206.766
 203  6724.919
 204  7196.908
 205  7421.593
 206  7617.911
 207  6852.008
 208  7331.045
 209  7378.699
 210  7176.433
 211  7171.072
 212  6573.107
 213  6609.755
 214  6882.079
 215  6518.243
 216  6077.817
 217  6495.926
 218  6090.747
 219  6814.959
 220  6752.347
 221  7569.77
 222  7633.589
 223  7259.234
 224  7123.592
 225  7632.54
 226  7299.15
 227  7651.766
 228  7401.819
 229  7306.747
 230  7011.799
 231  6570.014
 232  6887.776
 233  7392.115
 234  6910.904
 235  7437.763
 236  7647.159
 237  7708.219
 238  6974.636
 239  6767.634
 240  6522.448
 241  6984.272
 242  7220.866
 243  7863.896
 244  7626.364
 245  7073.024
 246  6842.101
 247  7167.356
 248  6869.089
 249  7074.779
 250  6649.804
 251  6915.311
 252  7048.688
 253  6784.296
 254  7198.026
 255  7306.59
 256  7277.667
 257  7374.713
 258  6973.82
 259  6267.493
 260  6455.061
 261  6307.799
 262  6807.71
 263  6705.204
 264  6460.472
 265  6487.353
 266  6187.775
 267  5900.089
 268  6435.463
 269  6126.094
 270  6839.498
 271  7173.164
 272  6827.61
 273  6976.628
 274  6597.718
 275  6548.163
 276  7140.991
 277  6699.385
 278  7114.7
 279  7298.931
 280  7051.907
 281  7221.798
 282  6757.021
 283  6113.061
 284  6082.719
 285  5638.015
 286  6773.548
 287  6532.662
 288  5561.589
 289  5585.345
 290  6054.92
 291  6044.764
 292  6464.433
 293  5839.836
 294  6393.164
 295  6203.24
 296  5845.189
 297  6593.738
 298  6164.495
 299  6341.492
 300  6879.348
 301  6951.171
 302  6766.266
 303  6653.637
 304  6364.218
 305  6531.303
 306  6090.982
 307  6563.736
 308  6901.651
 309  6840.479
 310  6702.566
 311  7164.662
 312  6915.711
 313  7991.072
 314  7926.962
 315  8137.825
 316  7144.632
 317  6741.646
 318  6432.25
 319  6895.204
 320  6438.177
 321  6965.876
 322  6873.829
 323  6710.106
 324  6462.301
 325  6696.1
 326  6453.97
 327  6551.963
 328  6516.42
 329  6705.77
 330  6638.61
 331  6292.614
 332  6520.847
 333  6602.67
 334  6882.562
 335  7910.621
 336  8003.039
 337  7733.052
 338  7346.528
 339  7214.213
 340  7239.91
 341  6857.685
 342  7129.103
 343  7763.3
 344  7514.115
 345  6608.384
 346  6636.202
 347  6557.437
 348  6651.056
 349  6497.397
 350  6326.133
 351  7294.843
 352  7496.156
 353  6929.148
 354  6877.618
 355  5864.408
 356  6539.697
 357  6601.024
 358  6149.675
 359  6260.492
 360  6520.022
 361  6869.818
 362  7391.827
 363  6873.316
 364  7413.269
 365  7723.255
 366  7452.259
 367  7241.835
 368  6514.298
 369  6421.055
 370  7575.796
 371  7727.334
 372  7995.732
 373  7466.924
 374  6401.235
 375  6288.243
 376  6103.653
 377  6327.684
 378  7424.707
 379  7367.132
 380  7814.488
 381  7687.421
 382  7203.951
 383  7642.291
 384  7373.901
 385  7357.157
 386  7047.302
 387  6340.312
 388  6580.117
 389  7018.896
 390  6500.92
 391  6841.489
 392  6854.196
 393  7310.876
 394  7525.116
 395  7062.685
 396  7236.135
 397  7272.998
 398  7293.55
 399  7757.001
 400  7618.287
 401  7507.886
 402  7378.554
 403  7427.372
 404  7050.581
 405  7025.077
 406  6785.018
 407  7331.911
 408  7167.787
 409  6994.779
 410  7118.807
 411  6970.489
 412  6474.095
 413  6307.993
 414  6082.596
 415  5883.868
 416  6239.346
 417  6076.031
 418  6492.433
 419  6372.707
 420  6351.111
 421  6818.428
 422  6447.092
 423  6629.869
 424  6702.736
 425  6834.787
 426  6709.754
 427  6658.826
 428  6999.209
 429  7659.454
 430  7228.663
 431  6250.398
 432  6644.143
 433  6560.731
 434  7210.757
 435  6898.298
 436  6694.909
 437  6502.194
 438  6744.804
 439  6502.7
 440  7382.473
 441  6813.557
 442  7142.031
 443  7077.873
 444  6561.546
 445  6388.551
 446  6160.598
 447  6048.322
 448  6897.875
 449  6586.257
 450  7237.223
 451  6699.707
 452  6472.53
 453  6909.571
 454  7258.498
 455  6974.787
 456  7072.235
 457  6320.161
 458  6733.147
 459  7005.548
 460  6899.086
 461  7395.802
 462  7441.729
 463  7562.545
 464  7800.645
 465  6870.697
 466  6407.479
 467  6418.479
 468  6244.525
 469  7017.797
 470  6540.385
 471  7002.81
 472  7073.975
 473  6663.88
 474  6359.163
 475  6835.247
 476  6823.49
 477  7130.887
 478  6836.488
 479  6940.902
 480  6812.536
 481  6243.084
 482  6174.521
 483  6540.449
 484  6244.601
 485  6814.741
 486  6369.237
 487  6520.999
 488  6264.511
 489  6100.426
 490  6232.712
 491  6416.034
 492  6472.345
 493  6640.523
 494  6421.347
 495  6544.262
 496  6573.875
 497  6822.374
 498  6765.061
 499  7235.514
 500  7050.886
 501  7147.604
 502  7532.879
 503  7317.109
 504  7055.521
 505  7139.351
 506  7913.02
 507  8442.788
 508  7857.833
 509  7272.971
 510  7523.643
 511  6861.281
 512  6967.834
 513  6820.626
 514  7211.191
 515  7456.575
 516  7645.864
 517  6750.364
 518  6608.266
 519  6240.102
 520  7179.824
 521  6888.571
 522  6462.21
 523  6674.563
 524  6938.757
 525  6701.006
 526  7785.635
 527  7248.213
 528  7345.637
 529  6935.658
 530  6885.685
 531  7189.922
 532  7025.6
 533  6802.586
 534  7771.325
 535  7513.79
 536  7582.589
 537  6884.903
 538  6622.898
 539  6646.45
 540  6449.902
 541  6144.159
 542  6626.071
 543  6061.529
 544  6571.832
 545  6874.248
 546  6280.96
 547  6287.267
 548  6394.651
 549  6769.898
 550  7589.133
 551  7105.644
 552  7043.885
 553  7319.994
 554  6774.157
 555  7166.48
 556  6595.667
 557  7071.711
 558  7294.921
 559  6805.516
 560  6674.757
 561  6860.975
 562  6583.964
 563  7248.986
 564  6952.136
 565  7118.266
 566  7172.729
 567  7085.698
 568  7268.387
 569  7222.351
 570  6830.471
 571  7408.626
 572  6857.71
 573  6659.505
 574  6050.209
 575  6129.166
 576  6304.84
 577  7066.597
 578  6856.994
 579  7328.212
 580  7238.739
 581  7527.876
 582  7315.03
 583  6768.844
 584  6615.271
 585  6922.65
 586  6648.621
 587  6412.542
 588  6238.679
 589  6314.561
 590  6121.631
 591  5454.548
 592  5764.456
 593  6680.041
 594  7275.324
 595  6635.711
 596  6861.634
 597  6784.198
 598  7619.284
 599  7694.058
 600  7643.347
 601  7475.368
 602  6959.281
 603  6232.027
 604  6153.641
 605  5742.215
 606  6663.256
 607  6801.736
 608  6564.354
 609  6392.723
 610  6682.848
 611  6568.108
 612  7410.269
 613  6549.877
 614  7232.958
 615  7272.428
 616  7287.233
 617  7472.989
 618  7368.641
 619  7142.712
 620  7285.217
 621  6709.109
 622  7217.401
 623  7369.89
 624  7214.322
 625  7486.856
 626  7327.835
 627  7093.473
 628  7885.042
 629  7712.602
 630  8068.99
 631  7887.083
 632  7310.981
 633  7438.1
 634  7049.352
 635  7283.132
 636  8214.334
 637  7793.022
 638  7280.593
 639  7229.656
 640  7008.093
 641  7446.387
 642  6588.123
 643  6708.681
 644  7043.417
 645  6737.799
 646  6683.932
 647  7212.831
 648  7136.243
 649  7918.368
 650  7650.695
 651  7753.034
 652  7445.27
 653  6989.533
 654  6771.545
 655  7357.234
 656  6786.478
 657  7144.932
 658  6520.062
 659  6767.491
 660  7280.72
 661  7483.314
 662  7419.774
 663  7691.485
 664  7512.573
 665  8010.595
 666  7738.364
 667  7639.356
 668  7296.433
 669  7091.704
 670  6769.283
 671  6699.27
 672  6114.445
 673  6367.047
 674  6634.608
 675  6653.848
 676  6740.698
 677  6788.794
 678  6984.81
 679  7094.43
 680  7012.23
 681  6414.048
 682  6268.073
 683  5985.73
 684  6682.103
 685  7102.609
 686  6813.596
 687  6206.534
 688  5819.982
 689  5560.065
 690  6059.699
 691  5850.805
 692  6836.832
 693  7029.852
 694  6970.143
 695  6960.343
 696  6994.93
 697  6243.035
 698  7063.206
 699  6865.27
 700  7440.966
 701  7107.107
 702  6555.784
 703  6539.579
 704  6159.058
 705  5518.508
 706  6385.47
 707  6460.41
 708  7383.578
 709  7168.833
 710  6433.12
 711  6759.052
 712  6319.81
 713  5986.628
 714  6687.375
 715  6532.063
 716  7514.04
 717  7378.137
 718  6880.578
 719  6527.891
 720  6158.108
 721  6790.631
 722  7866.128
 723  7691.26
 724  8025.971
 725  8182.913
 726  7881.886
 727  7846.4
 728  6989.778
 729  7351.787
 730  7569.391
 731  7661.448
 732  7256.277
 733  7474.492
 734  6874.567
 735  7649.836
 736  7627.344
 737  7636.889
 738  6993.682
 739  6456.531
 740  6345.864
 741  6855.889
 742  6402.44
 743  6964.603
 744  6907.63
 745  6983.245
 746  6756.291
 747  6848.895
 748  6833.763
 749  7397.641
 750  6919.896
 751  7201.686
 752  7060.504
 753  6721.93
 754  6735.491
 755  6806.77
 756  6832.076
 757  7096.374
 758  7147.982
 759  7289.315
 760  7393.286
 761  7194.75
 762  7013.791
 763  6571.265
 764  6171.7
 765  6979.221
 766  7171.126
 767  7171.433
 768  7445.366
 769  6782.166
 770  7082.595
 771  7001.672
 772  7262.055
 773  7313.92
 774  7446.478
 775  7034.759
 776  7555.866
 777  7279.301
 778  8021.657
 779  8146.165
 780  7937.071
 781  7931.677
 782  7584.715
 783  7164.662
 784  7730.295
 785  7406.026
 786  7629.405
 787  7598.026
 788  7630.042
 789  7860.293
 790  7531.602
 791  6998.279
 792  7137.405
 793  6519.258
 794  6963.63
 795  6854.75
 796  6274.942
 797  6356.858
 798  6458.689
 799  6539.872
 800  7099.365
 801  6772.035
 802  7225.415
 803  7018.889
 804  6264.502
 805  6642.663
 806  6542.666
 807  7001.711
 808  7658.042
 809  7606.253
 810  7337.516
 811  7337.024
 812  6852.849
 813  7413.44
 814  6512.909
 815  6819.086
 816  7532.961
 817  7866.512
 818  7508.378
 819  7050.558
 820  6241.591
 821  7032.97
 822  7141.269
 823  7686.49
 824  6929.704
 825  6267.242
 826  6305.573
 827  7027.827
 828  6502.901
 829  7097.569
 830  7038.756
 831  7034.683
 832  6649.808
 833  6608.753
 834  7017.747
 835  7224.498
 836  7038.524
 837  7130.205
 838  6901.17
 839  6042.111
 840  6093.885
 841  6138.187
 842  6718.369
 843  7153.721
 844  7060.635
 845  7289.47
 846  7550.011
 847  7364.499
 848  7565.756
 849  8037.07
 850  8572.299
 851  8709.61
 852  8025.498
 853  6970.455
 854  6982.48
 855  6285.875
 856  6656.848
 857  6508.55
 858  7098.681
 859  7731.604
 860  7936.78
 861  7338.849
 862  7739.582
 863  7617.978
 864  8045.34
 865  7852.471
 866  7325.31
 867  7189.242
 868  6686.905
 869  6050.035
 870  6905.658
 871  6624.188
 872  7450.732
 873  7251.115
 874  7274.118
 875  7363.621
 876  7034.5
 877  6552.159
 878  7039.515
 879  6942.223
 880  7510.677
 881  7506.222
 882  6715.806
 883  6294.346
 884  5977.173
 885  6080.336
 886  6750.753
 887  6042.734
 888  6236.999
 889  6606.339
 890  6046.888
 891  6788.356
 892  6890.803
 893  7593.312
 894  7569.511
 895  6776.505
 896  6676.671
 897  7272.161
 898  6721.112
 899  6910.758
 900  6768.182
 901  6845.571
 902  6682.788
 903  6482.48
 904  6797.347
 905  7057.248
 906  6479.321
 907  7338.717
 908  6722.25
 909  6837.275
 910  6931.517
 911  7002.581
 912  6772.405
 913  6708.971
 914  6201.614
 915  6807.998
 916  6697.257
 917  6484.327
 918  6476.524
 919  6240.244
 920  6134.884
 921  6391.893
 922  6411.959
 923  7208.43
 924  7119.273
 925  7010.506
 926  6410.574
 927  6190.181
 928  5866.912
 929  6101.038
 930  5962.901
 931  5934.389
 932  6482.482
 933  6645.049
 934  7117.028
 935  6953.663
 936  6977.612
 937  7861.017
 938  7993.928
 939  7376.91
 940  7300.026
 941  7011.78
 942  7137.513
 943  7083.374
 944  7119.373
 945  7517.884
 946  7401.18
 947  7252.686
 948  7802.093
 949  7057.079
 950  7390.37
 951  7317.579
 952  7127.246
 953  7251.823
 954  7605.672
 955  7514.881
 956  7825.795
 957  7067.581
 958  7382.683
 959  7376.558
 960  6753.857
 961  6835.629
 962  7107.791
 963  7325.693
 964  8134.563
 965  7408.132
 966  7608.209
 967  7045.568
 968  5795.715
 969  5513.587
 970  5497.358
 971  5710.725
 972  6279.031
 973  6053.217
 974  6441.49
 975  6387.744
 976  5578.918
 977  6456.506
 978  6481.22
 979  6903.325
 980  7137.593
 981  6410.376
 982  6142.309
 983  6402.186
 984  5980.062
 985  6362.257
 986  5655.708
 987  6304.043
 988  7169.131
 989  7330.064
 990  7310.207
 991  7112.904
 992  6559.257
 993  7215.199
 994  7054.668
 995  6936.429
 996  6374.757
 997  6051.131
 998  6105.048
 999  6300.221
1000  5997.679
1001  7073.369
1002  7329.775
1003  7172.567
1004  6342.638
1005  6152.236
1006  6345.392
1007  6803.36
1008  6939.407
1009  7176.619
1010  7248.56
1011  6769.798
1012  6750.933
1013  6518.271
1014  6249.945
1015  6334.304
1016  6316.676
1017  6099.853
1018  6512.07
1019  6882.371
1020  7575.844
1021  7492.615
1022  7144.846
1023  6959.598
