# Input file       =  1195861735.106926_cleaned.dat
# Candidate        =  PSR_0332+5434
# Telescope        =  AR
# Epoch_topo       =  58084.992524385714
# Epoch_bary       =  N/A
# T_sample         =  0.002
# Data Folded      =  7340032
# Data Avg         =  0.94353685261324 
# Data StdDev      =  9.22899509499065 
# Profile Bins     =  512
# Profile Avg      =  13526.285515943  
# Profile StdDev   =  1105.01560542951 
# Reduced chi-sqr  =  0.835
# Prob(Noise)      <  0.997   (~0.0 sigma)
# P_topo (ms)      =  714.522917634064  +/- 4.89e-05
# P'_topo (s/s)    =  -0                +/- 2.58e-11
# P''_topo (s/s^2) =  0                 +/- 1.14e-14
# P_bary (ms)      =  N/A
# P'_bary (s/s)    =  N/A
# P''_bary (s/s^2) =  N/A
# P_orb (s)        =  N/A
# asin(i)/c (s)    =  N/A
# eccentricity     =  N/A
# w (rad)          =  N/A
# T_peri           =  N/A
######################################################
   0  12966.3
   1  12341.83
   2  13400.6
   3  13222.02
   4  12585.51
   5  12939.52
   6  13578.26
   7  13083.87
   8  12743.68
   9  11794.9
  10  12489.47
  11  13131.85
  12  13130.79
  13  13612.38
  14  13445.91
  15  13115.72
  16  12776.25
  17  13535.98
  18  12922.83
  19  12399.09
  20  12783.7
  21  12760.04
  22  12954.32
  23  12344.29
  24  13408.52
  25  14042.19
  26  13202.34
  27  13422.65
  28  13223.1
  29  14084.5
  30  13965.17
  31  13747.9
  32  13937.64
  33  12947.3
  34  13692.46
  35  14862.56
  36  13704.67
  37  12459.04
  38  12246.3
  39  12784.88
  40  13249.12
  41  13164.34
  42  13732.45
  43  14421.01
  44  13812.99
  45  14526.99
  46  15287.11
  47  15959.6
  48  15566.55
  49  14687.39
  50  14463.82
  51  13031.73
  52  13555.05
  53  14260.01
  54  14009.04
  55  14144.72
  56  14356.37
  57  14201.91
  58  14472.72
  59  13671.74
  60  13557.9
  61  14059.77
  62  13671.19
  63  13637.18
  64  13583.24
  65  13186.78
  66  12888.67
  67  12921.08
  68  13353.54
  69  13009.35
  70  13243.5
  71  13014.65
  72  12509.75
  73  12587.81
  74  13982.64
  75  14102.78
  76  14105.42
  77  13884.09
  78  13492.66
  79  13973.42
  80  13466.21
  81  13220.6
  82  13572.17
  83  14252.08
  84  14376.13
  85  13642.3
  86  13059.12
  87  13255.8
  88  13701.99
  89  13877.92
  90  13853.23
  91  13500.19
  92  13821.76
  93  14307.74
  94  14018.27
  95  13283.23
  96  13358.39
  97  13198.83
  98  12790.16
  99  12751.69
 100  12932.85
 101  13398.3
 102  13534.31
 103  13572.25
 104  14357.31
 105  14435.4
 106  14117.66
 107  14519.17
 108  14115.72
 109  13779.34
 110  13498.29
 111  14545.09
 112  14143.94
 113  14033.13
 114  13522.67
 115  12494.24
 116  12814.99
 117  13834.47
 118  14362.23
 119  13796.22
 120  14077.66
 121  13925.31
 122  13507.13
 123  12469.31
 124  12604.42
 125  13180.28
 126  14439.67
 127  14410.46
 128  14062.92
 129  13469.72
 130  14292.97
 131  15070.67
 132  14689.85
 133  13962.69
 134  13877.55
 135  13569.49
 136  13961.15
 137  13307.84
 138  12812.37
 139  13329.6
 140  13980.67
 141  13507.81
 142  13912.53
 143  14017.51
 144  13503.22
 145  14113.03
 146  14612.09
 147  14027.69
 148  13656.05
 149  13618.1
 150  13172.88
 151  13487.47
 152  13815.22
 153  14319.62
 154  14843.82
 155  13747.43
 156  13087.34
 157  12793.93
 158  12855.58
 159  13341.1
 160  14587.9
 161  15343.46
 162  15207.77
 163  14649.07
 164  14400.57
 165  14316.73
 166  13116.3
 167  12998.61
 168  13780.08
 169  13599
 170  13195.11
 171  13406.83
 172  14205
 173  13439.79
 174  13495.81
 175  14900.96
 176  14513.45
 177  13293.8
 178  14128.08
 179  14070.65
 180  14437.15
 181  14829.33
 182  14900.11
 183  15169.18
 184  15115.71
 185  14911.16
 186  14324.05
 187  14628.5
 188  13920.45
 189  14013.8
 190  14742.67
 191  13515.93
 192  13851.51
 193  14350.82
 194  13885.81
 195  12987.42
 196  13850.04
 197  15064.19
 198  14204.13
 199  13630.06
 200  13701.74
 201  13328.43
 202  12672.34
 203  14487.27
 204  15205.19
 205  13755.09
 206  14337.23
 207  14837.89
 208  13629.76
 209  12741.57
 210  14025.42
 211  14750.71
 212  14818.51
 213  14631.5
 214  13694.35
 215  13777.14
 216  13152.23
 217  13164
 218  14183.32
 219  14908.41
 220  14774.98
 221  14572.51
 222  14116.24
 223  13719.32
 224  14098.21
 225  14525.17
 226  14518.6
 227  13377.96
 228  13675.06
 229  13200.1
 230  13303.92
 231  14434.78
 232  14613.32
 233  14478
 234  13036.66
 235  13844.76
 236  13981.86
 237  13956.93
 238  13306.33
 239  13026.88
 240  13589.86
 241  13323.24
 242  14002.19
 243  14140.88
 244  14092.13
 245  14176.38
 246  14491.95
 247  14871.23
 248  14129.57
 249  14046.36
 250  14228.23
 251  13919.68
 252  14261.34
 253  15052.33
 254  14486
 255  14635.57
 256  13827.39
 257  14315.33
 258  14747.52
 259  13782.38
 260  14689.47
 261  14417.79
 262  14482.79
 263  14489.51
 264  14460.47
 265  14012.14
 266  12957.22
 267  13218.45
 268  13424.62
 269  13797.52
 270  13793.18
 271  14086.14
 272  13353.61
 273  13647.98
 274  13971.19
 275  14033.62
 276  14094.59
 277  13920.38
 278  13095.51
 279  13484.96
 280  13426.68
 281  12863.96
 282  12789.28
 283  13359.06
 284  13106.24
 285  14941.96
 286  14516.4
 287  12229.49
 288  11861.92
 289  13006.95
 290  13782.68
 291  12818.81
 292  12979.26
 293  13490.8
 294  13586.08
 295  13063.24
 296  13304.73
 297  13458.19
 298  13544.31
 299  13531.71
 300  13029.21
 301  13286.12
 302  13586.8
 303  13753.7
 304  13401.02
 305  13599.99
 306  12585.68
 307  13552.99
 308  14215.02
 309  13638.84
 310  13634.31
 311  13858.91
 312  13744.65
 313  13164.44
 314  14018.51
 315  14662.01
 316  14656.27
 317  14515.63
 318  14169.36
 319  13465.79
 320  13765.41
 321  14110.5
 322  13731.33
 323  13753.48
 324  12972.84
 325  12573.69
 326  12656.14
 327  12173.04
 328  12550.16
 329  13787.08
 330  13997.97
 331  13337.06
 332  14916.52
 333  14209.3
 334  13385.8
 335  12772.02
 336  13906.91
 337  13817.19
 338  13729.69
 339  13952.16
 340  13861.75
 341  13666.23
 342  13230.33
 343  13664.39
 344  13242.42
 345  13811.78
 346  14044.9
 347  14147.21
 348  14362.59
 349  13632.75
 350  13639.36
 351  14291.24
 352  14044.41
 353  13833.42
 354  13881.62
 355  14123.71
 356  13774.01
 357  14042.05
 358  13874.97
 359  13549.71
 360  12834.27
 361  13876.36
 362  13538.53
 363  11120.06
 364  11416.04
 365  12672.19
 366  12615.18
 367  12684.73
 368  12132.02
 369  12398.07
 370  13291.03
 371  13775.99
 372  13216.65
 373  12517.08
 374  12171.58
 375  12706.2
 376  13077.46
 377  12994.98
 378  13678.28
 379  12837.64
 380  13147.37
 381  12496.2
 382  12776.92
 383  13167.47
 384  12520.25
 385  12513.46
 386  13478.5
 387  13065.55
 388  12754.98
 389  12679.62
 390  13660.34
 391  13002.81
 392  13001.95
 393  13522.69
 394  13601.17
 395  12898.16
 396  13221.78
 397  13425.84
 398  13779.56
 399  13681.92
 400  14234.13
 401  14348.16
 402  12648.06
 403  13289.11
 404  13733.94
 405  13619.48
 406  12707.79
 407  12831.37
 408  13431.45
 409  13165.17
 410  13020.16
 411  13007.41
 412  13029.5
 413  13193.06
 414  13302.53
 415  13238.4
 416  12555.52
 417  12282.4
 418  13074.34
 419  12971.79
 420  12357.31
 421  12373.72
 422  12800.82
 423  12936.37
 424  11821.35
 425  12345.21
 426  12848.05
 427  12728.27
 428  12811.27
 429  13135.88
 430  13447.23
 431  13245.18
 432  14461.07
 433  15028.04
 434  14408.75
 435  13279.62
 436  13038.2
 437  12712.53
 438  12429.63
 439  12406.81
 440  12177.22
 441  12241.04
 442  12325.37
 443  12588.06
 444  12588.83
 445  11800.52
 446  12059.35
 447  12742.48
 448  13148.04
 449  13156.87
 450  13107.16
 451  13220.66
 452  12164.86
 453  12096.05
 454  13187.95
 455  13162.92
 456  12551.62
 457  12504.34
 458  12829.38
 459  12843.91
 460  13535.81
 461  12912.5
 462  12901.5
 463  12830.07
 464  11964.29
 465  12982.87
 466  13008.34
 467  13192.84
 468  13559.62
 469  13672.9
 470  13532.96
 471  13474.05
 472  13838.64
 473  13115.78
 474  12366.57
 475  13262.48
 476  12861.04
 477  12584.7
 478  12428.41
 479  13043.9
 480  13063.77
 481  12091.94
 482  11963.4
 483  12106.31
 484  12328.19
 485  12779.03
 486  13438.39
 487  13641.3
 488  13240.19
 489  13295.53
 490  13842.55
 491  13338.66
 492  12912.94
 493  13778.54
 494  13418.01
 495  13390.02
 496  13339.82
 497  13052.06
 498  13524.92
 499  12272.49
 500  12806.74
 501  13212.09
 502  12914.78
 503  12977.37
 504  13500.59
 505  13785.35
 506  12981.32
 507  12915.38
 508  13976.66
 509  13855.07
 510  12828.99
 511  13476.42
