# Input file       =  1195603227.108312_cleaned.dat
# Candidate        =  PSR_0332+5434
# Telescope        =  AR
# Epoch_topo       =  58082.000533661019
# Epoch_bary       =  N/A
# T_sample         =  0.002
# Data Folded      =  7340032
# Data Avg         =  0.0873649678253105
# Data StdDev      =  1.00038443336647 
# Profile Bins     =  512
# Profile Avg      =  1252.48880326858 
# Profile StdDev   =  119.779065751018 
# Reduced chi-sqr  =  0.935
# Prob(Noise)      <  0.851   (~0.0 sigma)
# P_topo (ms)      =  714.519815916777  +/- 4.88e-05
# P'_topo (s/s)    =  -0                +/- 2.57e-11
# P''_topo (s/s^2) =  0                 +/- 1.14e-14
# P_bary (ms)      =  N/A
# P'_bary (s/s)    =  N/A
# P''_bary (s/s^2) =  N/A
# P_orb (s)        =  N/A
# asin(i)/c (s)    =  N/A
# eccentricity     =  N/A
# w (rad)          =  N/A
# T_peri           =  N/A
######################################################
   0  1304.271
   1  1271.778
   2  1265.068
   3  1287.142
   4  1257.702
   5  1214.312
   6  1263.344
   7  1373.814
   8  1332.997
   9  1326.898
  10  1342.307
  11  1319.398
  12  1263.682
  13  1311.346
  14  1264.536
  15  1234.022
  16  1292.179
  17  1361.443
  18  1257.13
  19  1304.438
  20  1190.483
  21  1134.401
  22  1297.787
  23  1297.818
  24  1367.582
  25  1302.658
  26  1196.135
  27  1179.8
  28  1277.333
  29  1255.351
  30  1215.982
  31  1367.897
  32  1379.955
  33  1278.466
  34  1276.669
  35  1222.745
  36  1292.877
  37  1412.632
  38  1400.419
  39  1247.191
  40  1198.425
  41  1182.368
  42  1216.456
  43  1137.335
  44  1246.872
  45  1301.095
  46  1270.336
  47  1196.286
  48  1267.096
  49  1269.171
  50  1221.73
  51  1100.453
  52  1234.19
  53  1310.425
  54  1376.655
  55  1190.876
  56  1156.889
  57  1263.224
  58  1349.354
  59  1338.304
  60  1196.553
  61  1193.97
  62  1140.192
  63  1202.686
  64  1177.007
  65  1206.351
  66  1198.686
  67  1226.768
  68  1343.872
  69  1219.927
  70  1264.258
  71  1219.609
  72  1172.442
  73  1215.186
  74  1225.251
  75  1201.375
  76  1180.967
  77  1145.041
  78  1181.684
  79  1101.535
  80  1194.4
  81  1274.569
  82  1231.634
  83  1209.453
  84  1173.477
  85  1188.202
  86  1146.934
  87  1041.739
  88  1133.176
  89  1199.394
  90  1066.976
  91  1148.283
  92  1223.119
  93  1168.318
  94  1153.349
  95  1247.081
  96  1296.412
  97  1344.361
  98  1224.423
  99  1270.651
 100  1252.414
 101  1296.538
 102  1230.831
 103  1229.058
 104  1303.506
 105  1268.006
 106  1314.137
 107  1307.623
 108  1326.88
 109  1304.701
 110  1251.385
 111  1287.699
 112  1368.839
 113  1319.137
 114  1314.327
 115  1253.041
 116  1143.253
 117  1265.329
 118  1349.145
 119  1220.834
 120  1189.28
 121  1310.863
 122  1220.898
 123  1194.707
 124  1350.864
 125  1335.329
 126  1185.11
 127  1216.652
 128  1289.574
 129  1106.227
 130  1228.11
 131  1315.897
 132  1246.778
 133  1214.039
 134  1171.259
 135  1177.509
 136  1202.215
 137  1187.673
 138  1291.896
 139  1220.44
 140  1118.699
 141  1034.126
 142  1198.046
 143  1272.464
 144  1280.633
 145  1247.758
 146  1288.002
 147  1255.965
 148  1166.294
 149  1118.313
 150  1261.368
 151  1302.34
 152  1311.846
 153  1300.762
 154  1338.591
 155  1216.34
 156  1265.234
 157  1205.443
 158  1241.589
 159  1166.602
 160  1174.846
 161  1196.232
 162  1148.497
 163  1083.475
 164  1367.204
 165  1343.279
 166  1305.819
 167  1300.305
 168  1205.393
 169  1213.206
 170  1176.502
 171  1222.403
 172  1192.088
 173  1199.854
 174  1267.921
 175  1355.623
 176  1295.754
 177  1343.378
 178  1306.52
 179  1319.098
 180  1248.126
 181  1204.455
 182  1204.143
 183  1173.031
 184  1139.174
 185  1228.976
 186  1197.251
 187  1152.646
 188  1130.234
 189  1251.243
 190  1193.125
 191  1169.478
 192  1198.863
 193  1276.438
 194  1279.577
 195  1242.908
 196  1316.898
 197  1354.707
 198  1288.918
 199  1185.679
 200  1197.906
 201  1196.383
 202  1205.77
 203  1144.078
 204  1156.855
 205  1237.124
 206  1223.673
 207  1304.754
 208  1276.604
 209  1261.56
 210  1205.974
 211  1011.646
 212  1133.508
 213  1274.191
 214  1192.744
 215  1088.893
 216  1261.038
 217  1250.871
 218  1315.856
 219  1251.336
 220  1244.271
 221  1181.758
 222  1202.029
 223  1243.381
 224  1247.509
 225  1243.453
 226  1200.815
 227  1225.813
 228  1182.733
 229  1223.791
 230  1273.751
 231  1264.173
 232  1314.039
 233  1278.526
 234  1204.948
 235  1387.941
 236  1361.985
 237  1180.445
 238  1203.741
 239  1289.38
 240  1290.469
 241  1224.097
 242  1247.383
 243  1218.141
 244  1101.758
 245  1159.76
 246  1260.697
 247  1209.692
 248  1067.305
 249  1121.878
 250  1293.416
 251  1147.353
 252  1139.742
 253  1216.242
 254  1331.786
 255  1299.176
 256  1149.585
 257  1188.779
 258  1228.275
 259  1171.783
 260  1195.099
 261  1232.024
 262  1122.932
 263  1223.006
 264  1336.378
 265  1303.529
 266  1245.153
 267  1284.245
 268  1254.999
 269  1204.852
 270  1163.896
 271  1248.366
 272  1203.631
 273  1158.26
 274  1270.009
 275  1267.476
 276  1318.619
 277  1218.62
 278  1236.994
 279  1274.09
 280  1220.13
 281  1303.232
 282  1307.46
 283  1320.384
 284  1127.123
 285  1193.652
 286  1160.412
 287  1150.436
 288  1241.981
 289  1207.501
 290  1302.96
 291  1309.212
 292  1377.023
 293  1295.405
 294  1335.645
 295  1297.58
 296  1365.777
 297  1339.18
 298  1382.682
 299  1345.011
 300  1320.418
 301  1205.077
 302  1169.629
 303  1293.866
 304  1325.285
 305  1339.477
 306  1321.324
 307  1257.761
 308  1302.055
 309  1161.51
 310  1272.753
 311  1363.187
 312  1287.354
 313  1114.477
 314  1214.874
 315  1262.979
 316  1260.669
 317  1295.824
 318  1408.838
 319  1387.641
 320  1362.601
 321  1266.821
 322  1296.692
 323  1248.458
 324  1295.599
 325  1351.439
 326  1311.312
 327  1377.958
 328  1327.376
 329  1260.39
 330  1309.775
 331  1226.535
 332  1297.275
 333  1231.787
 334  1184.083
 335  1309.305
 336  1405.782
 337  1277.975
 338  1372.067
 339  1364.622
 340  1223.964
 341  1152.163
 342  1227.445
 343  1318.608
 344  1208.123
 345  1276.304
 346  1403.453
 347  1237.678
 348  1263.539
 349  1209.987
 350  1244.415
 351  1206.211
 352  1233.923
 353  1183.728
 354  1150.094
 355  1107.665
 356  1138.153
 357  1214.436
 358  1239.817
 359  1271.541
 360  1307.484
 361  1261.752
 362  1166.628
 363  1152.911
 364  1315.937
 365  1334.882
 366  1191.212
 367  1282.985
 368  1202.397
 369  1113.227
 370  1133.991
 371  1158.899
 372  1244.973
 373  1179.917
 374  1174.954
 375  1252.954
 376  1192.871
 377  1172.949
 378  1301.748
 379  1280.286
 380  1218.55
 381  1246.645
 382  1244.625
 383  1247.844
 384  1270.02
 385  1246.12
 386  1213.072
 387  1086.34
 388  1223.34
 389  1160.539
 390  1165.139
 391  1100.165
 392  1185.714
 393  1189.293
 394  1235.341
 395  1154.342
 396  1177.599
 397  1262.042
 398  1174.512
 399  1113.867
 400  1163.389
 401  1251.87
 402  1195.721
 403  1160.819
 404  1224.749
 405  1199.513
 406  1180.061
 407  1176.653
 408  1243.527
 409  1168.978
 410  1184.094
 411  1120.864
 412  1171.656
 413  1149.607
 414  1252.522
 415  1288.05
 416  1179.412
 417  1248.672
 418  1329.317
 419  1283.816
 420  1171.078
 421  1158.234
 422  1223.959
 423  1270.398
 424  1162.508
 425  1239.729
 426  1222.35
 427  1276.332
 428  1354.397
 429  1288.869
 430  1279.498
 431  1301.742
 432  1148.693
 433  1139.139
 434  1130.909
 435  1197.405
 436  1231.375
 437  1185.264
 438  1108.444
 439  1290.093
 440  1282.202
 441  1228.276
 442  1228.634
 443  1406.478
 444  1315.548
 445  1190.941
 446  1257.869
 447  1293.496
 448  1211.313
 449  1254.83
 450  1255.31
 451  1312.241
 452  1214.294
 453  1200.177
 454  1303.771
 455  1324.287
 456  1326.573
 457  1382.746
 458  1331.772
 459  1204.233
 460  1282.959
 461  1305.744
 462  1238.746
 463  1308.868
 464  1310.612
 465  1283.507
 466  1204.751
 467  1292.719
 468  1279.824
 469  1282.751
 470  1200.066
 471  1293.512
 472  1442.821
 473  1372.503
 474  1339.042
 475  1345.822
 476  1336.33
 477  1292.792
 478  1400.775
 479  1464.173
 480  1319.23
 481  1337.902
 482  1438.108
 483  1415.042
 484  1493.172
 485  1685.623
 486  1731.107
 487  1612.925
 488  1503.908
 489  1497.968
 490  1470.18
 491  1385.877
 492  1321.035
 493  1292.495
 494  1254.713
 495  1288.595
 496  1292.603
 497  1390.585
 498  1306.133
 499  1217.803
 500  1335.624
 501  1425.871
 502  1336.888
 503  1347.304
 504  1354.782
 505  1307.578
 506  1295.384
 507  1469.551
 508  1371.352
 509  1218.539
 510  1249.189
 511  1375.975
