# Input file       =  1195056768.116008_cleaned.dat
# Candidate        =  PSR_0332+5434
# Telescope        =  AR
# Epoch_topo       =  58075.675776805649
# Epoch_bary       =  N/A
# T_sample         =  0.002
# Data Folded      =  7208960
# Data Avg         =  9.87665942669741 
# Data StdDev      =  72.7692850402687 
# Profile Bins     =  1024
# Profile Avg      =  69528.1511419554 
# Profile StdDev   =  6105.68560201997 
# Reduced chi-sqr  =  0.419
# Prob(Noise)      <  1   (~0.0 sigma)
# P_topo (ms)      =  714.512921823107  +/- 2.59e-05
# P'_topo (s/s)    =  -0                +/- 1.39e-11
# P''_topo (s/s^2) =  0                 +/- 6.25e-15
# P_bary (ms)      =  N/A
# P'_bary (s/s)    =  N/A
# P''_bary (s/s^2) =  N/A
# P_orb (s)        =  N/A
# asin(i)/c (s)    =  N/A
# eccentricity     =  N/A
# w (rad)          =  N/A
# T_peri           =  N/A
######################################################
   0  69542.6
   1  69214.05
   2  70322.34
   3  71526.35
   4  68594.52
   5  67727.32
   6  67123.49
   7  69222.44
   8  69823.12
   9  65161.44
  10  64491.66
  11  67547.37
  12  65414.27
  13  68004.65
  14  69101.92
  15  71668.83
  16  72588.35
  17  70367.18
  18  71431.98
  19  68738.7
  20  65690.45
  21  70019.55
  22  70477.51
  23  71330.98
  24  72327.47
  25  72096.76
  26  73528.03
  27  71359.91
  28  70940.35
  29  71909.97
  30  69745.46
  31  68118.89
  32  67652.41
  33  68209.77
  34  68415.98
  35  66527.78
  36  66175.95
  37  69863.92
  38  68899.94
  39  68402.09
  40  66739.75
  41  65180.42
  42  67538.64
  43  69582.55
  44  71698.52
  45  73528.23
  46  72432.47
  47  72253.73
  48  67944.55
  49  65023.99
  50  67679.17
  51  68316.51
  52  70822.3
  53  68206.45
  54  69891.96
  55  71538.68
  56  71308.64
  57  71145.23
  58  71216.44
  59  71885.5
  60  73291.89
  61  72372.59
  62  68593.18
  63  65848.78
  64  65043.21
  65  68833.73
  66  68878.89
  67  67805.23
  68  67910.95
  69  67237.83
  70  67231.13
  71  67802.75
  72  69952.45
  73  73455.94
  74  72439.66
  75  71342.53
  76  70709.48
  77  69267.59
  78  70318.75
  79  68423.27
  80  67807.86
  81  69925.14
  82  69753.84
  83  69580.12
  84  67633.31
  85  67129.13
  86  69878.02
  87  68774.58
  88  68649.56
  89  68496.43
  90  66711.33
  91  67182
  92  66070.79
  93  67915.37
  94  71917.31
  95  70704.35
  96  67923.74
  97  67444.53
  98  64469.58
  99  66654.81
 100  64573.45
 101  67666.57
 102  70298.34
 103  70570.38
 104  71070.64
 105  69263.26
 106  67178.54
 107  69058.6
 108  70250.71
 109  71386.16
 110  72868.05
 111  70343.27
 112  69488.8
 113  68334.76
 114  66764.95
 115  71775.39
 116  69363.45
 117  70466.25
 118  68298.14
 119  67810.08
 120  67891.1
 121  67555.2
 122  68346.62
 123  68348.01
 124  66975.09
 125  68508.85
 126  69030.36
 127  67529.28
 128  68402.46
 129  70201.7
 130  71742.9
 131  71795.61
 132  70172.15
 133  71445.38
 134  68484.81
 135  66116.41
 136  65860.85
 137  67204.54
 138  67690.89
 139  66726.71
 140  67667.11
 141  68996.18
 142  68560.09
 143  67853.79
 144  67767.23
 145  67831.91
 146  70638.13
 147  70779.36
 148  69901.27
 149  68076.89
 150  67217.68
 151  70689.66
 152  69617.03
 153  69515.02
 154  69021.23
 155  68312.42
 156  68563.05
 157  68514.98
 158  69693.46
 159  71306.4
 160  68615.66
 161  68998.1
 162  69490.87
 163  69852.78
 164  70283.88
 165  70103.84
 166  70522.07
 167  72372.1
 168  71866.83
 169  71912.68
 170  69717.11
 171  68264.56
 172  70551.59
 173  69868.69
 174  70643.56
 175  70855.93
 176  69426.26
 177  69827.32
 178  70014.7
 179  69863.16
 180  70411.91
 181  66646.67
 182  68157.99
 183  69690.13
 184  67806.27
 185  67699.58
 186  67411.52
 187  69624.69
 188  71289.77
 189  68951.26
 190  71589.49
 191  69664.33
 192  67581.93
 193  69987.19
 194  71653.59
 195  71917.13
 196  69850.74
 197  68175.62
 198  71357.17
 199  72202.6
 200  70097.04
 201  71249.39
 202  69837.27
 203  70563.85
 204  70779.66
 205  69447.76
 206  68888.49
 207  66791.01
 208  67348.3
 209  69140.1
 210  68095.34
 211  67101.34
 212  65928.23
 213  64372.41
 214  67616.74
 215  68308.67
 216  69124.81
 217  70099.27
 218  69626.53
 219  70806.27
 220  69156.59
 221  69023.77
 222  70906.82
 223  69472.48
 224  69497.46
 225  68070.69
 226  67761.85
 227  68448.98
 228  67707.82
 229  67299.27
 230  65087.49
 231  63163.9
 232  66349.23
 233  67677.3
 234  68263.69
 235  67204.83
 236  67913.41
 237  68764.23
 238  67948.84
 239  67735.15
 240  68027.76
 241  66347.19
 242  65142.76
 243  64212.39
 244  65456.94
 245  67461.98
 246  68640.22
 247  71395.45
 248  73157.55
 249  70508.87
 250  71341.19
 251  67966.64
 252  67297.48
 253  68737.43
 254  69657.15
 255  68006.75
 256  63296.26
 257  64053.7
 258  68476.06
 259  68348.6
 260  70460.13
 261  73889.55
 262  72949.9
 263  71966.15
 264  70432.8
 265  71108.83
 266  73437.05
 267  69383.93
 268  67239.94
 269  66315.7
 270  64649.82
 271  66627.51
 272  65055.95
 273  66375.13
 274  69169.06
 275  67880.18
 276  70928.96
 277  69584.66
 278  70414.65
 279  72900.52
 280  71699.94
 281  70132.17
 282  68612.38
 283  67687.01
 284  68300.33
 285  67913.3
 286  66435.88
 287  67238.9
 288  65891.8
 289  69836.04
 290  70309.61
 291  68294.6
 292  68301.2
 293  70065.67
 294  70961.41
 295  71461.05
 296  68917.23
 297  70653.29
 298  70540.83
 299  67553.04
 300  68483.4
 301  67136.92
 302  68862.63
 303  70884.41
 304  72067.25
 305  71334.07
 306  66411.59
 307  64446.53
 308  66701.59
 309  69322.37
 310  72150.44
 311  72572.11
 312  72078.27
 313  71481.09
 314  70836.22
 315  69591.72
 316  68388.24
 317  67127.38
 318  70764.29
 319  70566.93
 320  70674.62
 321  68524.62
 322  69425.09
 323  70583.5
 324  68551.66
 325  67472.21
 326  68547.34
 327  68378.73
 328  69465.75
 329  68146.06
 330  69025.7
 331  69769.4
 332  69769.26
 333  71083.77
 334  70995.25
 335  68262.92
 336  69685.21
 337  68703.25
 338  71239.98
 339  70244.52
 340  71012.29
 341  71846.16
 342  71206.7
 343  69198.1
 344  72330.85
 345  71885.86
 346  72037.66
 347  72292.02
 348  71099.68
 349  71354.36
 350  69524.48
 351  69276.52
 352  73101.7
 353  71557.44
 354  70688.11
 355  69742.94
 356  68072.34
 357  70377.96
 358  68288.88
 359  69488.01
 360  70920.08
 361  69622.36
 362  70562.7
 363  69043.56
 364  67580.47
 365  69180.51
 366  66491.49
 367  68245.24
 368  68779.36
 369  68575.84
 370  70484.83
 371  69512.33
 372  67963.76
 373  69238.07
 374  68833.39
 375  71103.69
 376  71242.02
 377  67722.26
 378  68281.97
 379  69159.43
 380  72226.88
 381  73315.23
 382  71960.06
 383  74062.27
 384  73756.5
 385  68955.94
 386  67685.27
 387  65966.87
 388  66256.34
 389  65350.3
 390  64593.75
 391  67735.86
 392  67396.52
 393  69198.45
 394  68149.73
 395  68634.74
 396  68035.43
 397  67800
 398  67423.73
 399  69402.54
 400  71663.44
 401  72787.55
 402  71485.42
 403  71201.88
 404  73400.69
 405  72863.96
 406  70452.62
 407  67819.85
 408  67822.07
 409  70939.95
 410  70788.32
 411  69017.24
 412  69421.62
 413  67837.16
 414  68908.95
 415  68293.15
 416  69669.95
 417  71193.11
 418  69572.65
 419  68935.27
 420  69108.9
 421  65594.71
 422  67877.73
 423  68366.16
 424  72159.57
 425  73834.74
 426  70929.47
 427  71639.3
 428  70341.69
 429  71580.15
 430  71600.7
 431  70592.47
 432  71132.89
 433  74391.24
 434  72297.44
 435  71554.36
 436  68921.34
 437  69614.12
 438  72997.42
 439  71271.18
 440  70282.65
 441  67649.66
 442  63436.67
 443  65600.97
 444  66420.51
 445  70514.96
 446  73217.14
 447  70643
 448  71084.23
 449  68387
 450  69615.21
 451  73906.12
 452  72540.44
 453  71166.03
 454  70861.95
 455  70435.77
 456  71879.03
 457  68974.62
 458  68587.9
 459  69606.04
 460  69089.74
 461  70484.55
 462  69290.56
 463  67726.26
 464  68351.85
 465  68902.09
 466  66586.54
 467  68022.24
 468  67251.39
 469  69770.05
 470  67957.94
 471  65994.97
 472  71520.01
 473  73245.73
 474  74314.1
 475  71249.21
 476  69354.54
 477  70485.61
 478  70077.77
 479  69588.33
 480  69773.48
 481  69320.74
 482  70545.48
 483  69301.86
 484  66591.54
 485  64883.87
 486  66898.75
 487  69722.1
 488  69092.41
 489  67662.77
 490  70333.81
 491  70598.14
 492  69641.05
 493  68237.97
 494  69017.12
 495  72043.24
 496  72544.84
 497  73566.24
 498  73786.83
 499  70500.12
 500  71013.61
 501  70270.04
 502  72645.57
 503  73552.8
 504  72213.2
 505  69903.24
 506  67768.8
 507  65758.57
 508  68452.87
 509  68790.85
 510  68727.17
 511  66753.83
 512  64109.17
 513  64315.41
 514  65611.34
 515  68496.23
 516  72876.14
 517  73068.4
 518  72488.89
 519  73432.11
 520  69933.42
 521  69497.67
 522  68531.23
 523  70480.15
 524  75598.74
 525  73403.27
 526  73978.17
 527  73801.09
 528  71342.83
 529  72767.59
 530  69250.75
 531  69957.98
 532  72554.23
 533  72133.26
 534  73632.46
 535  71064.49
 536  69055.47
 537  71759.98
 538  71831.73
 539  71012.59
 540  71084.47
 541  68442.46
 542  69097.47
 543  67287.39
 544  67571.1
 545  69932.16
 546  68969.07
 547  72211.96
 548  75184.61
 549  73053.81
 550  71349.2
 551  69080.33
 552  69476.56
 553  70704.84
 554  68087.36
 555  67715.16
 556  66236.11
 557  65229.45
 558  70050.75
 559  71918.85
 560  72492.38
 561  70150.79
 562  70185.92
 563  74646.66
 564  73999.38
 565  72876.03
 566  71524.18
 567  71063.34
 568  71131.9
 569  68599.22
 570  67213.87
 571  69123.62
 572  70208.5
 573  72904.02
 574  72133.92
 575  71146.38
 576  71174.15
 577  71105.8
 578  72772.5
 579  70955.91
 580  71131.83
 581  70284.09
 582  68839.75
 583  67214.33
 584  67468.22
 585  67909.38
 586  68079.65
 587  69423.82
 588  70360.62
 589  73747.04
 590  72474.46
 591  72697.95
 592  73944.05
 593  71055.59
 594  71397.57
 595  68499.86
 596  67987.84
 597  68478.31
 598  68955.9
 599  71287.33
 600  69628.9
 601  68571.22
 602  72490.28
 603  71264.43
 604  70434.49
 605  70568.48
 606  69333.2
 607  69756.8
 608  68738.71
 609  68518.41
 610  71158.36
 611  68125.85
 612  68984.44
 613  69458.43
 614  68015.37
 615  70068.22
 616  68042.11
 617  68646.78
 618  69200.57
 619  67073.51
 620  69954.8
 621  67725.58
 622  67966.3
 623  70180.52
 624  71429.12
 625  70552.25
 626  69098
 627  67168.71
 628  68899.42
 629  69618.59
 630  69123.19
 631  70062.74
 632  67035.1
 633  68872.38
 634  70162.05
 635  68586.96
 636  71563.98
 637  70747.15
 638  71996.49
 639  69925.79
 640  67701.69
 641  67884.95
 642  68161.05
 643  66798.02
 644  71369.4
 645  71248.2
 646  72024.32
 647  68745.55
 648  66616.15
 649  68757.38
 650  69215.78
 651  68819.22
 652  69354.48
 653  68908.95
 654  70273.3
 655  66681.62
 656  65428.12
 657  65709.67
 658  68223.08
 659  70102.01
 660  69292.94
 661  68330.45
 662  69069.35
 663  69907.96
 664  68445.57
 665  67224.18
 666  65485.79
 667  68143.78
 668  66234.91
 669  65133.15
 670  66557.26
 671  68391.1
 672  71400.72
 673  70181.97
 674  69840.41
 675  70895.76
 676  69177.66
 677  69747.85
 678  70826.27
 679  71025.24
 680  72185.86
 681  71398.95
 682  71679.32
 683  71826.67
 684  68589.08
 685  69526.3
 686  68777.55
 687  68262.05
 688  69014.59
 689  68682.1
 690  67528.94
 691  67924.62
 692  65271.52
 693  67196.18
 694  65996.88
 695  66583.91
 696  69996.04
 697  68304.33
 698  71876.26
 699  70129.03
 700  66743.63
 701  67743.12
 702  69027.48
 703  70093.27
 704  69871.39
 705  68600.7
 706  71058.34
 707  70388.09
 708  69066.7
 709  71501.92
 710  69748.38
 711  69469.53
 712  67755.72
 713  67281.45
 714  70756.84
 715  70837.48
 716  71118.94
 717  71380.24
 718  69546.48
 719  68684.41
 720  68660.09
 721  68138.24
 722  70178.7
 723  69556.64
 724  71059.8
 725  70805.3
 726  67901.73
 727  67859.16
 728  71140.39
 729  70949.55
 730  74991.09
 731  73333.22
 732  74345.96
 733  71540.13
 734  72047.24
 735  73864.86
 736  71808.73
 737  71358.88
 738  71360.79
 739  73746.57
 740  72214.07
 741  70767.9
 742  68281.06
 743  67799.77
 744  67012.47
 745  66220.23
 746  65343.23
 747  63034.3
 748  66029
 749  66180.63
 750  67112.74
 751  68589.62
 752  70546.09
 753  71737.66
 754  67333.11
 755  67044.52
 756  69182.66
 757  69404.97
 758  68265.52
 759  66680.26
 760  67756.16
 761  69633.17
 762  68250.04
 763  69715.34
 764  72193.4
 765  72368.08
 766  74117.43
 767  72653.77
 768  73364.94
 769  73230.49
 770  69691.63
 771  70553.45
 772  70265.88
 773  71180.47
 774  71789.7
 775  68505.72
 776  68072.97
 777  71132.6
 778  70393.64
 779  70997.5
 780  69899.7
 781  70139.62
 782  74343.32
 783  71541.64
 784  73424.18
 785  69794.51
 786  65874.16
 787  68495.25
 788  68946.81
 789  72481.09
 790  72943.16
 791  71885.21
 792  74780.57
 793  74701.63
 794  71943.8
 795  72211.69
 796  70508.59
 797  72066.39
 798  73643.17
 799  72505.36
 800  71790.42
 801  69881.76
 802  69935.04
 803  70527.06
 804  67110.91
 805  69354.01
 806  70983.14
 807  70085.9
 808  70332.88
 809  72101.48
 810  73001.13
 811  73905.74
 812  72454.74
 813  75193.45
 814  75753.75
 815  73393.16
 816  74612.12
 817  74238.03
 818  73848.53
 819  70584.64
 820  68938.86
 821  70904.95
 822  71322.18
 823  70850.9
 824  70830.38
 825  69692.25
 826  72056.21
 827  71814.31
 828  70782.52
 829  68859.97
 830  69307.2
 831  72479.41
 832  72777.63
 833  70510.34
 834  69804.64
 835  69618.38
 836  69698.89
 837  67826.33
 838  67929.16
 839  68461.87
 840  68599.05
 841  70883.62
 842  73443.46
 843  71374.73
 844  70467.58
 845  69830.53
 846  69551.93
 847  69623.89
 848  69080.95
 849  71257.61
 850  71544.23
 851  69143.5
 852  68853.24
 853  67741.74
 854  68499.69
 855  70402.35
 856  68733.12
 857  70229.83
 858  68674.09
 859  70227.05
 860  73106.85
 861  71299.88
 862  69548.73
 863  68831.53
 864  65393.71
 865  64501.2
 866  62479.71
 867  64439.3
 868  66856.02
 869  66872.19
 870  70308.58
 871  70696.2
 872  68054.55
 873  69450.52
 874  67741.78
 875  68148.06
 876  69786.12
 877  68879.55
 878  68203.68
 879  64906.59
 880  64362.05
 881  68429.38
 882  69461.67
 883  71386.73
 884  72945.5
 885  71315.21
 886  70678.2
 887  69512.53
 888  69530.25
 889  72302.77
 890  68282.07
 891  69178.27
 892  68258.01
 893  67206.7
 894  66004.42
 895  66438.33
 896  67331.21
 897  68927.21
 898  66908.6
 899  68243.72
 900  68815.12
 901  68163.88
 902  70140.35
 903  69313.16
 904  71479.78
 905  71638.59
 906  72023.36
 907  70197.95
 908  66681.38
 909  67801.44
 910  68837.28
 911  69064.94
 912  67511.74
 913  65689.39
 914  64554.32
 915  65956.3
 916  68838.2
 917  71077.34
 918  69743.34
 919  67371.84
 920  68212.35
 921  65611.12
 922  65851.48
 923  66501.44
 924  67946.27
 925  69904.41
 926  68371.18
 927  69999.76
 928  68307.93
 929  66744.2
 930  69347.8
 931  71745.73
 932  73735.6
 933  72592.09
 934  69608.05
 935  69333.26
 936  67992.69
 937  67006.34
 938  68231.81
 939  67605.7
 940  67026.01
 941  67589.56
 942  67065.49
 943  68808.09
 944  68355.41
 945  69129.74
 946  71491.74
 947  70244
 948  71463.73
 949  73237.73
 950  71730.8
 951  72365.42
 952  69792.64
 953  68767.27
 954  69962.33
 955  69706.97
 956  73552.22
 957  72662.84
 958  68847.65
 959  71267.2
 960  70267.05
 961  71343
 962  70042.36
 963  69118.84
 964  70062.05
 965  68265.8
 966  66945.97
 967  69608.13
 968  68793.39
 969  68856.72
 970  68951.47
 971  67939.7
 972  68065.34
 973  65577.88
 974  66530.55
 975  68732.11
 976  66178.05
 977  66104.38
 978  66859.72
 979  67301.47
 980  68947.09
 981  69802.77
 982  72087.98
 983  72450.08
 984  70366.59
 985  71741.77
 986  69127.12
 987  67619.89
 988  67635.14
 989  67575.73
 990  67243.37
 991  67445.48
 992  71139.24
 993  73787.12
 994  73436.71
 995  73221.69
 996  74047.61
 997  73412.47
 998  73475.79
 999  71971.37
1000  69590.24
1001  67077.41
1002  66365.63
1003  68824.16
1004  69990.8
1005  70503.45
1006  71717.68
1007  71612.44
1008  70156.59
1009  67732.86
1010  65933.3
1011  67261.1
1012  66811.56
1013  68315.97
1014  68851.88
1015  67254.22
1016  68993.94
1017  69193.71
1018  69973.16
1019  70903.42
1020  70148.8
1021  70129.85
1022  68144.96
1023  67513.03
