# Input file       =  1195861735.106926_cleaned.dat
# Candidate        =  PSR_0332+5434
# Telescope        =  AR
# Epoch_topo       =  58084.992524385714
# Epoch_bary       =  N/A
# T_sample         =  0.002
# Data Folded      =  7340032
# Data Avg         =  0.94353685261324 
# Data StdDev      =  9.22899509499065 
# Profile Bins     =  512
# Profile Avg      =  13526.2855163816 
# Profile StdDev   =  1105.01560542951 
# Reduced chi-sqr  =  0.835
# Prob(Noise)      <  0.997   (~0.0 sigma)
# P_topo (ms)      =  714.522917731002  +/- 4.85e-05
# P'_topo (s/s)    =  -0                +/- 2.56e-11
# P''_topo (s/s^2) =  0                 +/- 1.13e-14
# P_bary (ms)      =  N/A
# P'_bary (s/s)    =  N/A
# P''_bary (s/s^2) =  N/A
# P_orb (s)        =  N/A
# asin(i)/c (s)    =  N/A
# eccentricity     =  N/A
# w (rad)          =  N/A
# T_peri           =  N/A
######################################################
   0  14211.84
   1  14245.24
   2  14590.69
   3  14710.86
   4  14051.5
   5  14117.86
   6  14115.59
   7  13795.76
   8  14788.47
   9  14862.66
  10  14569.25
  11  14385.32
  12  13790.3
  13  14681.86
  14  14293.67
  15  14011.24
  16  14767.24
  17  14363.22
  18  14357.29
  19  14625.09
  20  14374.33
  21  13674.62
  22  12840.67
  23  13375.59
  24  13490.63
  25  13758.37
  26  14032.37
  27  13826.26
  28  13415.98
  29  13648.65
  30  14145.57
  31  13988.92
  32  14126.23
  33  13580.89
  34  13158.06
  35  13617.67
  36  13252.28
  37  12671.72
  38  13098.45
  39  13156.38
  40  13628.3
  41  15148.91
  42  13679.06
  43  11863.19
  44  12105.04
  45  13546.21
  46  13518.62
  47  12750.68
  48  13129.17
  49  13645.83
  50  13242.69
  51  13232.6
  52  13300.16
  53  13566.93
  54  13486.99
  55  13543.06
  56  12820.31
  57  13556.21
  58  13691.08
  59  13672.28
  60  13479.26
  61  13137.97
  62  12795.14
  63  13893.21
  64  14093.03
  65  13480.7
  66  13789.74
  67  13958.65
  68  13383.2
  69  13410.68
  70  14372.03
  71  14772.95
  72  14437.21
  73  14533.27
  74  13757.79
  75  13535.17
  76  13982.71
  77  13937.26
  78  13933.42
  79  13406.57
  80  12702.88
  81  12562.11
  82  12619.77
  83  12202.98
  84  12831.47
  85  14210.12
  86  13618.65
  87  13801.31
  88  14866.51
  89  13833.9
  90  13109.55
  91  13113.08
  92  14112.85
  93  13603.31
  94  13917.41
  95  13849.51
  96  13901.45
  97  13457.21
  98  13344.89
  99  13668.06
 100  13157.31
 101  14033.58
 102  13949.17
 103  14482.72
 104  13993.04
 105  13561.42
 106  13825.2
 107  14385.29
 108  14002.74
 109  13746.12
 110  14082.38
 111  13924.66
 112  13798.78
 113  14022.58
 114  13863.96
 115  13141.01
 116  13108.88
 117  14049.1
 118  12773.35
 119  10703.12
 120  12046.6
 121  12801.04
 122  12620.87
 123  12531.76
 124  12073.63
 125  12722.17
 126  13553.88
 127  13586.12
 128  12943.71
 129  12409.22
 130  12237.05
 131  12927.12
 132  12904.01
 133  13416.62
 134  13371.45
 135  12938.27
 136  12979.93
 137  12557.64
 138  12879.11
 139  12994.63
 140  12300.51
 141  12967.03
 142  13544.09
 143  12819.18
 144  12757.47
 145  12892.83
 146  13748.84
 147  12627.2
 148  13215.01
 149  13643.42
 150  13406.62
 151  12865.86
 152  13456.5
 153  13476.5
 154  13760.22
 155  13801.55
 156  14491.75
 157  13771.2
 158  12643.58
 159  13493.72
 160  13846.7
 161  13194.34
 162  12678.39
 163  13010.56
 164  13634.83
 165  12876.74
 166  13069.48
 167  13021.44
 168  13046
 169  13305.99
 170  13075.35
 171  13246.22
 172  12204.17
 173  12665.11
 174  13116.21
 175  12585.52
 176  12621.06
 177  12234.55
 178  13183.84
 179  12233.94
 180  12054.94
 181  12486.03
 182  12929.67
 183  12586.58
 184  13053.8
 185  13252.43
 186  13239.59
 187  13644.92
 188  14822.25
 189  15054.83
 190  13838.9
 191  13184.23
 192  12909
 193  12609.7
 194  12407.58
 195  12434.1
 196  12157.98
 197  12104.52
 198  12505.51
 199  12560.75
 200  12419.18
 201  11696.32
 202  12325.58
 203  13034.46
 204  13093.95
 205  13091.08
 206  13169.33
 207  13039.51
 208  11857.13
 209  12422.85
 210  13358.88
 211  13021.2
 212  12466.78
 213  12579.46
 214  12782.37
 215  13107.9
 216  13545.64
 217  12565.69
 218  13139.68
 219  12418.46
 220  12232.02
 221  13087.53
 222  12980.07
 223  13417.41
 224  13689.7
 225  13534.66
 226  13489.88
 227  13591.03
 228  13862.6
 229  12609.54
 230  12607.01
 231  13277.76
 232  12793.1
 233  12374.3
 234  12607.46
 235  13171.11
 236  12692.97
 237  12005.58
 238  11970.36
 239  12274.18
 240  12325.02
 241  13099.93
 242  13533.67
 243  13630.5
 244  13023.73
 245  13629.36
 246  13760.59
 247  13005.83
 248  13198.96
 249  13787.61
 250  13479.56
 251  13336.8
 252  13121.37
 253  13211.03
 254  13393.22
 255  12067.79
 256  13130.41
 257  13106.61
 258  12855.04
 259  13237.6
 260  13498.16
 261  13683.72
 262  12828.05
 263  13186.12
 264  14281.35
 265  13163.17
 266  13163.97
 267  13339.67
 268  12721.24
 269  12441.54
 270  13744.26
 271  12882.46
 272  12585.36
 273  13211.82
 274  13407.66
 275  13190.86
 276  12270.67
 277  11965.12
 278  12806.06
 279  13009.74
 280  13313.74
 281  13670.26
 282  13417.29
 283  12807.57
 284  13031.51
 285  13497.1
 286  12661.4
 287  12459.78
 288  12689.81
 289  13006.32
 290  12621.22
 291  12576.41
 292  13781.01
 293  13913.03
 294  13135.32
 295  13270.64
 296  13441.28
 297  14306.51
 298  13816.59
 299  13778.98
 300  13771.55
 301  12764.09
 302  14446.71
 303  14425.04
 304  13298.55
 305  12244.1
 306  12483.26
 307  12956.89
 308  13243.53
 309  13292.55
 310  14037.2
 311  14249.99
 312  13852.49
 313  14979.93
 314  15496.87
 315  16010.25
 316  15130.58
 317  14697.16
 318  13992.28
 319  12932.46
 320  13880.65
 321  14231.21
 322  13901.85
 323  14412.93
 324  14331.05
 325  14273.68
 326  14180.24
 327  13568.21
 328  13832.64
 329  13963.06
 330  13524.04
 331  13618.59
 332  13483.16
 333  13067.56
 334  12812.41
 335  13081.25
 336  13395.81
 337  12978.1
 338  13207.25
 339  12832.41
 340  12369.19
 341  13196.23
 342  14139.62
 343  13992.51
 344  14197.69
 345  13591.25
 346  13658.09
 347  13816.35
 348  13366.37
 349  13278.32
 350  13784.71
 351  14376.13
 352  14294.96
 353  13341.61
 354  13055.02
 355  13386.72
 356  13714.42
 357  14005.41
 358  13612.08
 359  13724.62
 360  13942.84
 361  14449.76
 362  13593.62
 363  13224.48
 364  13335.32
 365  12970.11
 366  12842.93
 367  12814.2
 368  13094.41
 369  13443.14
 370  13486.88
 371  13873.54
 372  14563.85
 373  14122.46
 374  14226.6
 375  14554.75
 376  13945.04
 377  13490.54
 378  13837.12
 379  14750.63
 380  13953.87
 381  13957.62
 382  13048.36
 383  12539.43
 384  13134.95
 385  14035.96
 386  14297.65
 387  13758.46
 388  14237.18
 389  13747.42
 390  13127.05
 391  12418.82
 392  12717.75
 393  13596.31
 394  14575.88
 395  14380.72
 396  13780.19
 397  13492.93
 398  14828.17
 399  14927.33
 400  14572.45
 401  13793.87
 402  13849.9
 403  13583.12
 404  13926.19
 405  13029.78
 406  12893.54
 407  13650.42
 408  13739.67
 409  13538.04
 410  14139.99
 411  13864.21
 412  13502.95
 413  14371.47
 414  14615.32
 415  13791.77
 416  13608.75
 417  13469.97
 418  13237.74
 419  13738.89
 420  13703.91
 421  14723.46
 422  14462.65
 423  13605.64
 424  12739.12
 425  12997.8
 426  12744.13
 427  13956.91
 428  14652.64
 429  15652.47
 430  14811.39
 431  14667.04
 432  14300.04
 433  14061.28
 434  12929.32
 435  13200.83
 436  13885.67
 437  13336.46
 438  13251.14
 439  13657.11
 440  14113.42
 441  13292.28
 442  13927.4
 443  15169.83
 444  13807.25
 445  13499.74
 446  14267.16
 447  14095.64
 448  14582.1
 449  14865.91
 450  14998.84
 451  15127.59
 452  15217.89
 453  14584.35
 454  14517.23
 455  14353.83
 456  13795.84
 457  14310.84
 458  14469.47
 459  13275.63
 460  14258.63
 461  14234.19
 462  13619.57
 463  12928.67
 464  14496.28
 465  15034.69
 466  13777.89
 467  13608.93
 468  13662.02
 469  12922.3
 470  13223.45
 471  15008.79
 472  14760.85
 473  13705.11
 474  14674.24
 475  14585.85
 476  13051.62
 477  13098.5
 478  14459.46
 479  14708.86
 480  14925.14
 481  14278.9
 482  13693.44
 483  13548.98
 484  13081.18
 485  13417.16
 486  14632.39
 487  14720.51
 488  14772.05
 489  14537.16
 490  13817.28
 491  13942.4
 492  14114.81
 493  14733.24
 494  14017.41
 495  13448.11
 496  13661.53
 497  13062.02
 498  13568.15
 499  14679.82
 500  14608.76
 501  13974.29
 502  13115.98
 503  14073.73
 504  14023.7
 505  13757.92
 506  12965.86
 507  13290.64
 508  13581.53
 509  13527.12
 510  14053.89
 511  14084.78
