# Input file       =  1195487547.307883_cleaned.dat
# Candidate        =  PSR_0332+5434
# Telescope        =  AR
# Epoch_topo       =  58080.661647081979
# Epoch_bary       =  N/A
# T_sample         =  0.002
# Data Folded      =  7143424
# Data Avg         =  0.0987667432944225
# Data StdDev      =  1.00032249224849 
# Profile Bins     =  512
# Profile Avg      =  1377.98804321765 
# Profile StdDev   =  118.156676809765 
# Reduced chi-sqr  =  0.666
# Prob(Noise)      <  1   (~0.0 sigma)
# P_topo (ms)      =  714.518066395547  +/- 8.78e-05
# P'_topo (s/s)    =  -0                +/- 4.76e-11
# P''_topo (s/s^2) =  0                 +/- 2.16e-14
# P_bary (ms)      =  N/A
# P'_bary (s/s)    =  N/A
# P''_bary (s/s^2) =  N/A
# P_orb (s)        =  N/A
# asin(i)/c (s)    =  N/A
# eccentricity     =  N/A
# w (rad)          =  N/A
# T_peri           =  N/A
######################################################
   0  1379.455
   1  1404.487
   2  1319.032
   3  1226.323
   4  1295.865
   5  1337.315
   6  1330.855
   7  1345.489
   8  1390.097
   9  1408.307
  10  1347.729
  11  1312.258
  12  1334.07
  13  1293.946
  14  1292.917
  15  1337.263
  16  1359.802
  17  1423.124
  18  1435.306
  19  1470.294
  20  1439.506
  21  1371.656
  22  1283.931
  23  1334.204
  24  1396.67
  25  1296.039
  26  1257.905
  27  1356.591
  28  1418.939
  29  1391.778
  30  1394.889
  31  1347.065
  32  1313.063
  33  1378.668
  34  1365.753
  35  1349.002
  36  1434.234
  37  1499.458
  38  1404.261
  39  1248.627
  40  1311.945
  41  1334.63
  42  1392.916
  43  1411.306
  44  1426.669
  45  1439.57
  46  1376.988
  47  1291.197
  48  1347.547
  49  1299.627
  50  1371.727
  51  1296.776
  52  1344.973
  53  1448.167
  54  1316.198
  55  1265.507
  56  1263.331
  57  1359.869
  58  1453.927
  59  1483.969
  60  1447.657
  61  1377.227
  62  1311.221
  63  1332.574
  64  1266.235
  65  1303.724
  66  1350.222
  67  1340.193
  68  1334.437
  69  1292.966
  70  1347.328
  71  1333.596
  72  1392.813
  73  1376.642
  74  1416.474
  75  1363.258
  76  1374.909
  77  1416.964
  78  1428.346
  79  1394.207
  80  1398.053
  81  1393.486
  82  1308.916
  83  1290.954
  84  1306.968
  85  1333.744
  86  1341.062
  87  1360.307
  88  1427.719
  89  1344.736
  90  1291.825
  91  1371.439
  92  1420.082
  93  1394.182
  94  1411.442
  95  1406.378
  96  1305.984
  97  1270.662
  98  1327.864
  99  1321.01
 100  1308.718
 101  1382.006
 102  1406.025
 103  1252.508
 104  1339.45
 105  1445.297
 106  1447.347
 107  1366.977
 108  1253.799
 109  1320.213
 110  1269.869
 111  1234.688
 112  1340.857
 113  1306.65
 114  1382.92
 115  1366
 116  1357.4
 117  1355.358
 118  1317.682
 119  1350.56
 120  1401.496
 121  1323.345
 122  1283.277
 123  1343.088
 124  1343.769
 125  1324.059
 126  1298.181
 127  1346.741
 128  1312.181
 129  1316.565
 130  1359.833
 131  1420.09
 132  1299.768
 133  1259.649
 134  1350.508
 135  1428.225
 136  1399.594
 137  1436.501
 138  1415.183
 139  1375.827
 140  1326.294
 141  1270.139
 142  1266.684
 143  1323.349
 144  1426.693
 145  1476.197
 146  1326.813
 147  1301.078
 148  1360.117
 149  1357.139
 150  1345.397
 151  1398.993
 152  1481.975
 153  1413.685
 154  1310.471
 155  1341.73
 156  1377.614
 157  1344.998
 158  1435.065
 159  1422.777
 160  1385.703
 161  1314.754
 162  1287.202
 163  1340.049
 164  1269.746
 165  1313.927
 166  1402.6
 167  1504.452
 168  1482.744
 169  1417.041
 170  1457.567
 171  1410.671
 172  1387.176
 173  1364.451
 174  1399.03
 175  1345.537
 176  1429.38
 177  1481.923
 178  1478.776
 179  1442.093
 180  1326.941
 181  1468.842
 182  1486.42
 183  1409.946
 184  1382.336
 185  1474.507
 186  1460.26
 187  1474.784
 188  1464.289
 189  1368.786
 190  1288.307
 191  1344.955
 192  1337.89
 193  1308.402
 194  1333.003
 195  1409.092
 196  1395.375
 197  1331.696
 198  1310.055
 199  1323.218
 200  1344.368
 201  1368.01
 202  1298.219
 203  1349.149
 204  1220.187
 205  1297.973
 206  1393.781
 207  1386.992
 208  1379.581
 209  1410.114
 210  1434.641
 211  1304.567
 212  1337.292
 213  1401.575
 214  1453.707
 215  1432.463
 216  1460.332
 217  1449.57
 218  1297.792
 219  1206.71
 220  1321.23
 221  1320.824
 222  1301.469
 223  1291.418
 224  1308.252
 225  1359.622
 226  1295.039
 227  1275.03
 228  1320.438
 229  1267.511
 230  1405.058
 231  1421.922
 232  1313.812
 233  1247.295
 234  1296.776
 235  1359.982
 236  1375.14
 237  1422.35
 238  1427.65
 239  1476.544
 240  1350.393
 241  1379.23
 242  1404.846
 243  1317.616
 244  1289.934
 245  1291.016
 246  1313.623
 247  1297.178
 248  1409.428
 249  1442.699
 250  1445.391
 251  1421.219
 252  1411.114
 253  1458.456
 254  1459.728
 255  1437.703
 256  1404.342
 257  1413.803
 258  1376.621
 259  1338.21
 260  1404.234
 261  1468.713
 262  1382.934
 263  1409.15
 264  1418.589
 265  1281.509
 266  1337.767
 267  1415.849
 268  1445.929
 269  1363.601
 270  1398.592
 271  1455.626
 272  1359.324
 273  1328.777
 274  1441.743
 275  1460.205
 276  1486.199
 277  1450.968
 278  1412.333
 279  1326.993
 280  1335.346
 281  1394.391
 282  1431.808
 283  1377.702
 284  1432.549
 285  1389.087
 286  1434.234
 287  1533.336
 288  1480.871
 289  1372.937
 290  1391.178
 291  1432.749
 292  1421.548
 293  1375.586
 294  1313.673
 295  1270.664
 296  1376.033
 297  1390.714
 298  1420.805
 299  1471.038
 300  1471.986
 301  1410.268
 302  1335.838
 303  1371.967
 304  1306.245
 305  1312.912
 306  1463.178
 307  1408.675
 308  1377.281
 309  1353.787
 310  1399.924
 311  1374.975
 312  1382.395
 313  1503.216
 314  1600.343
 315  1473.194
 316  1385.574
 317  1443.21
 318  1491.043
 319  1481.367
 320  1462.954
 321  1559.773
 322  1415.443
 323  1454.584
 324  1493.624
 325  1441.213
 326  1419.135
 327  1390.592
 328  1440.93
 329  1389.359
 330  1452.13
 331  1435.534
 332  1401.475
 333  1376.558
 334  1380.507
 335  1409.961
 336  1355.893
 337  1343.241
 338  1324.509
 339  1379.961
 340  1391.562
 341  1437.893
 342  1520.767
 343  1464.615
 344  1411.723
 345  1424.887
 346  1410.35
 347  1350.097
 348  1413.574
 349  1477.927
 350  1426.408
 351  1345.202
 352  1284.255
 353  1298.936
 354  1347.006
 355  1322.248
 356  1208.943
 357  1229.755
 358  1285.512
 359  1281.795
 360  1300.147
 361  1301.239
 362  1372.775
 363  1370.321
 364  1454.104
 365  1422.019
 366  1400.539
 367  1382.837
 368  1350.063
 369  1340.984
 370  1359.686
 371  1329.166
 372  1367.256
 373  1374.499
 374  1328.071
 375  1320.672
 376  1359.045
 377  1366.995
 378  1439.187
 379  1385.246
 380  1339.873
 381  1317.412
 382  1309.292
 383  1375.447
 384  1357.817
 385  1423.512
 386  1336.017
 387  1333.122
 388  1443.011
 389  1424.459
 390  1486.26
 391  1545.832
 392  1485.577
 393  1512.53
 394  1501.431
 395  1436.836
 396  1421.337
 397  1472.402
 398  1460.988
 399  1442.159
 400  1477.789
 401  1418.438
 402  1483.163
 403  1613.717
 404  1640.351
 405  1633.451
 406  1597.338
 407  1614.68
 408  1468.006
 409  1384.043
 410  1308.825
 411  1388.927
 412  1413.528
 413  1417.109
 414  1462.201
 415  1456.013
 416  1424.401
 417  1302.104
 418  1342.537
 419  1326.646
 420  1394.498
 421  1514.06
 422  1507.958
 423  1408.248
 424  1347.402
 425  1327.015
 426  1270.452
 427  1348.78
 428  1308.707
 429  1393.046
 430  1445.18
 431  1468.993
 432  1453.822
 433  1302.805
 434  1392.417
 435  1490.005
 436  1450.409
 437  1436.669
 438  1389.812
 439  1370.251
 440  1378.887
 441  1446.659
 442  1485.606
 443  1388.181
 444  1329.382
 445  1360.361
 446  1419.542
 447  1374.707
 448  1399.961
 449  1431.36
 450  1474.147
 451  1383.686
 452  1325.906
 453  1295.145
 454  1371.67
 455  1475.755
 456  1413.978
 457  1464.626
 458  1427.227
 459  1460.611
 460  1401.215
 461  1304.545
 462  1234.267
 463  1385.944
 464  1524.242
 465  1413.824
 466  1480.325
 467  1362.892
 468  1422.532
 469  1366.752
 470  1244.504
 471  1343.324
 472  1332.536
 473  1290.262
 474  1294.422
 475  1308.809
 476  1272.825
 477  1161.025
 478  1269.779
 479  1403.163
 480  1394.448
 481  1318.998
 482  1338.164
 483  1316.01
 484  1361.426
 485  1318.618
 486  1307.392
 487  1406.476
 488  1376.425
 489  1360.091
 490  1322.416
 491  1414.661
 492  1325.686
 493  1274.623
 494  1287.318
 495  1319.081
 496  1372.514
 497  1441.269
 498  1424.411
 499  1475.766
 500  1381.767
 501  1276.605
 502  1269.179
 503  1322.666
 504  1341.042
 505  1365.962
 506  1385.839
 507  1426.546
 508  1323.617
 509  1323.402
 510  1360.809
 511  1373.537
