# Input file       =  1195775573.11255_cleaned.dat
# Candidate        =  PSR_0332+5434
# Telescope        =  AR
# Epoch_topo       =  58083.995279080438
# Epoch_bary       =  N/A
# T_sample         =  0.002
# Data Folded      =  7340032
# Data Avg         =  0.105169691871933
# Data StdDev      =  1.00061276285663 
# Profile Bins     =  512
# Profile Avg      =  1507.64802850711 
# Profile StdDev   =  119.80640433417  
# Reduced chi-sqr  =  0.793
# Prob(Noise)      <  1   (~0.0 sigma)
# P_topo (ms)      =  714.521883093104  +/- 0.000491
# P'_topo (s/s)    =  -0                +/- 2.59e-10
# P''_topo (s/s^2) =  0                 +/- 1.14e-13
# P_bary (ms)      =  N/A
# P'_bary (s/s)    =  N/A
# P''_bary (s/s^2) =  N/A
# P_orb (s)        =  N/A
# asin(i)/c (s)    =  N/A
# eccentricity     =  N/A
# w (rad)          =  N/A
# T_peri           =  N/A
######################################################
   0  1837.631
   1  1834.727
   2  1711.388
   3  1542.183
   4  1442.186
   5  1563.75
   6  1604.556
   7  1587.409
   8  1516.405
   9  1490.662
  10  1384.799
  11  1426.653
  12  1505.585
  13  1469.283
  14  1528.748
  15  1478.445
  16  1488.267
  17  1511.37
  18  1582.748
  19  1623.622
  20  1506.974
  21  1601.239
  22  1647.478
  23  1610.78
  24  1629.501
  25  1625.1
  26  1548.255
  27  1443.419
  28  1551.003
  29  1596.07
  30  1539.766
  31  1559.935
  32  1577.177
  33  1459.317
  34  1524.026
  35  1508.543
  36  1455.248
  37  1517.731
  38  1532.224
  39  1460.622
  40  1456.694
  41  1496.986
  42  1485.286
  43  1489.244
  44  1546.337
  45  1483.4
  46  1491.973
  47  1528.397
  48  1533.203
  49  1499.599
  50  1515.916
  51  1476.191
  52  1438.027
  53  1494.689
  54  1535.842
  55  1506.864
  56  1549.638
  57  1581.332
  58  1667.601
  59  1545.203
  60  1529.935
  61  1553.127
  62  1519.747
  63  1535.6
  64  1590.811
  65  1493.476
  66  1511.047
  67  1471.731
  68  1532.28
  69  1559.997
  70  1469.684
  71  1400.541
  72  1504.54
  73  1574.257
  74  1479.874
  75  1441.106
  76  1514.325
  77  1538.83
  78  1579.664
  79  1555.301
  80  1478.287
  81  1493.147
  82  1413.62
  83  1452.576
  84  1394.864
  85  1462.989
  86  1550.903
  87  1517.58
  88  1509.754
  89  1414.68
  90  1335.391
  91  1493.234
  92  1524.47
  93  1568.305
  94  1446.248
  95  1445.107
  96  1488.042
  97  1567.388
  98  1502.869
  99  1486.419
 100  1625.902
 101  1590.218
 102  1509.98
 103  1511.939
 104  1430.501
 105  1403.209
 106  1460.438
 107  1435.124
 108  1480.344
 109  1492.98
 110  1440.11
 111  1437.47
 112  1368.443
 113  1468.251
 114  1564.688
 115  1485.698
 116  1289.248
 117  1372.488
 118  1413.643
 119  1445.966
 120  1456.925
 121  1562.608
 122  1524.323
 123  1436.06
 124  1407.881
 125  1441.297
 126  1402.995
 127  1349.002
 128  1329.221
 129  1474.697
 130  1589.782
 131  1484.997
 132  1420.661
 133  1416.936
 134  1522.865
 135  1504.288
 136  1518.077
 137  1565.227
 138  1581.183
 139  1509.914
 140  1542.224
 141  1473.71
 142  1417.367
 143  1422.197
 144  1457.397
 145  1405.236
 146  1492.657
 147  1524.045
 148  1655.963
 149  1565.188
 150  1514.783
 151  1450.896
 152  1493.411
 153  1516.318
 154  1462.247
 155  1387.963
 156  1362.168
 157  1438.823
 158  1479.938
 159  1492.472
 160  1418.148
 161  1499.392
 162  1478.139
 163  1520.522
 164  1469.358
 165  1452.432
 166  1459.95
 167  1410.556
 168  1406.656
 169  1429.21
 170  1386.041
 171  1401.457
 172  1475.075
 173  1435.421
 174  1527.06
 175  1566.461
 176  1513.525
 177  1494.75
 178  1520.352
 179  1559.955
 180  1578.916
 181  1550.678
 182  1551.097
 183  1481.889
 184  1491.651
 185  1533.129
 186  1517.307
 187  1530.76
 188  1517.625
 189  1551.595
 190  1483.823
 191  1509.966
 192  1480.981
 193  1541.52
 194  1587.36
 195  1582.564
 196  1537.983
 197  1479.198
 198  1398.54
 199  1410.963
 200  1511.78
 201  1563.804
 202  1499.125
 203  1514.662
 204  1533.095
 205  1464.268
 206  1446.369
 207  1407.276
 208  1455.405
 209  1536.255
 210  1539.361
 211  1429.718
 212  1423.592
 213  1440.569
 214  1415.055
 215  1376.958
 216  1375.225
 217  1351.921
 218  1383.438
 219  1395.911
 220  1443.691
 221  1382.511
 222  1236.201
 223  1314.316
 224  1377.688
 225  1473.163
 226  1575.136
 227  1559.74
 228  1464.861
 229  1493.382
 230  1562.756
 231  1499.921
 232  1560.768
 233  1661.74
 234  1716.331
 235  1595.555
 236  1578.512
 237  1641.558
 238  1481.691
 239  1329.525
 240  1542.196
 241  1636.672
 242  1546.722
 243  1488.811
 244  1514.738
 245  1511.936
 246  1536.182
 247  1551.012
 248  1535.613
 249  1537.793
 250  1543.853
 251  1598.566
 252  1470.863
 253  1560.711
 254  1654.529
 255  1604.637
 256  1551.386
 257  1596.343
 258  1597.964
 259  1543.96
 260  1565.366
 261  1598.262
 262  1546.304
 263  1552.289
 264  1552.91
 265  1622.081
 266  1590.109
 267  1537.873
 268  1474.502
 269  1546.342
 270  1592.718
 271  1579.89
 272  1463.406
 273  1523.81
 274  1580.748
 275  1523.323
 276  1434.46
 277  1486.641
 278  1398.799
 279  1485.72
 280  1506.797
 281  1526.707
 282  1492.112
 283  1498.979
 284  1404.849
 285  1408.855
 286  1452.771
 287  1528.245
 288  1486.687
 289  1478.523
 290  1442.013
 291  1433.052
 292  1390.325
 293  1429.254
 294  1487.903
 295  1370.098
 296  1395.485
 297  1468.796
 298  1555.828
 299  1464.188
 300  1508.333
 301  1529.385
 302  1473.439
 303  1443.942
 304  1581.392
 305  1509.441
 306  1459.026
 307  1550.993
 308  1606.183
 309  1606.391
 310  1525.263
 311  1465.988
 312  1515.646
 313  1574.588
 314  1640.32
 315  1521.059
 316  1474.398
 317  1486.674
 318  1463.694
 319  1394.384
 320  1464.587
 321  1518.72
 322  1625.914
 323  1535.507
 324  1483.339
 325  1623.704
 326  1541.511
 327  1465.987
 328  1479.73
 329  1575.183
 330  1493.557
 331  1374.463
 332  1425.619
 333  1443.95
 334  1478.801
 335  1484.808
 336  1482.289
 337  1575.419
 338  1669.161
 339  1607.656
 340  1544.391
 341  1583.737
 342  1661.185
 343  1591.181
 344  1567.365
 345  1591.113
 346  1515.569
 347  1588.689
 348  1515.052
 349  1465.994
 350  1543.403
 351  1481.557
 352  1441.99
 353  1514.159
 354  1514.63
 355  1592.099
 356  1580.663
 357  1535.229
 358  1452.782
 359  1464.433
 360  1672.831
 361  1658.405
 362  1541.259
 363  1639.468
 364  1537.501
 365  1638.899
 366  1550.317
 367  1440.715
 368  1472.064
 369  1519.003
 370  1540.695
 371  1402.431
 372  1432.569
 373  1510.741
 374  1564.429
 375  1543.404
 376  1586.637
 377  1525.927
 378  1477.442
 379  1576.296
 380  1592.799
 381  1507.954
 382  1464.09
 383  1521.729
 384  1497.901
 385  1492.562
 386  1507.629
 387  1490.149
 388  1542.199
 389  1553.548
 390  1565.748
 391  1456.282
 392  1456.22
 393  1444.03
 394  1505.648
 395  1504.684
 396  1568.775
 397  1556.292
 398  1411.535
 399  1534.558
 400  1645.274
 401  1583.515
 402  1573.275
 403  1522.946
 404  1607.623
 405  1516.133
 406  1587.807
 407  1492.059
 408  1543.302
 409  1468.073
 410  1444.898
 411  1478.348
 412  1479.187
 413  1464.024
 414  1484.744
 415  1532.753
 416  1522.137
 417  1497.257
 418  1420.464
 419  1402.042
 420  1503.421
 421  1588.823
 422  1572.109
 423  1475.517
 424  1564.013
 425  1551.923
 426  1452.067
 427  1458.274
 428  1464.211
 429  1498.197
 430  1476.033
 431  1528.255
 432  1406.555
 433  1466.445
 434  1532.309
 435  1505.025
 436  1566.511
 437  1642.638
 438  1571.991
 439  1471.835
 440  1505.529
 441  1559.547
 442  1456.013
 443  1401.651
 444  1485.457
 445  1521.036
 446  1504.065
 447  1500.013
 448  1496.278
 449  1452.256
 450  1479.309
 451  1533.262
 452  1480.373
 453  1339.407
 454  1417.291
 455  1472.518
 456  1463.142
 457  1446.271
 458  1454.207
 459  1513.523
 460  1533.813
 461  1496.445
 462  1453.323
 463  1381.956
 464  1468.534
 465  1562.557
 466  1576.075
 467  1550.585
 468  1640.319
 469  1589.363
 470  1466.598
 471  1306.099
 472  1409.98
 473  1534.375
 474  1532.519
 475  1450.602
 476  1541.205
 477  1513.216
 478  1368.508
 479  1355.302
 480  1344.017
 481  1412.485
 482  1529.383
 483  1598.672
 484  1432.567
 485  1379.158
 486  1437.704
 487  1424.584
 488  1492.897
 489  1502.282
 490  1521.579
 491  1484.895
 492  1417.422
 493  1509.722
 494  1537.238
 495  1488.746
 496  1491.755
 497  1533.769
 498  1559.418
 499  1501.231
 500  1588.792
 501  1642.359
 502  1675.456
 503  1608.283
 504  1595.64
 505  1642.539
 506  1591.147
 507  1510.089
 508  1559.832
 509  1712.331
 510  1831.837
 511  1866.479
