# Input file       =  1195846833.110793_cleaned.dat
# Candidate        =  PSR_0332+5434
# Telescope        =  AR
# Epoch_topo       =  58084.820047578622
# Epoch_bary       =  N/A
# T_sample         =  0.002
# Data Folded      =  7340032
# Data Avg         =  0.676072763522304
# Data StdDev      =  6.52504351914176 
# Profile Bins     =  512
# Profile Avg      =  9692.35596756478 
# Profile StdDev   =  781.263273037382 
# Reduced chi-sqr  =  0.561
# Prob(Noise)      <  1   (~0.0 sigma)
# P_topo (ms)      =  714.522400230062  +/- 0.00022
# P'_topo (s/s)    =  -0                +/- 1.16e-10
# P''_topo (s/s^2) =  0                 +/- 5.12e-14
# P_bary (ms)      =  N/A
# P'_bary (s/s)    =  N/A
# P''_bary (s/s^2) =  N/A
# P_orb (s)        =  N/A
# asin(i)/c (s)    =  N/A
# eccentricity     =  N/A
# w (rad)          =  N/A
# T_peri           =  N/A
######################################################
   0  10337.97
   1  9915.809
   2  9797.315
   3  10157.66
   4  10396.7
   5  10259.46
   6  10099.47
   7  10039.72
   8  9705.758
   9  9469.295
  10  9462.496
  11  9463.485
  12  9192.349
  13  9576.633
  14  9916.528
  15  9899.828
  16  9642.669
  17  9630.537
  18  10070.56
  19  9927.428
  20  9342.494
  21  9661.421
  22  10004.77
  23  10381.93
  24  9855.444
  25  9686.468
  26  10042.78
  27  9880.008
  28  9889.645
  29  9634.936
  30  10258.6
  31  10421.8
  32  10235.42
  33  10285.79
  34  9849.819
  35  9910.045
  36  10105.66
  37  10257.48
  38  9862.103
  39  10226.56
  40  10181.81
  41  10493.04
  42  10253.95
  43  10331.8
  44  9850.67
  45  10003.11
  46  9577.892
  47  9066.616
  48  8941.312
  49  9525.964
  50  9910.691
  51  9695.164
  52  9353.699
  53  9162.604
  54  9841.739
  55  9697.315
  56  9694.947
  57  9666.732
  58  10171.84
  59  10149.87
  60  9971.658
  61  10078.47
  62  9676.53
  63  9372.263
  64  9953.018
  65  10203.53
  66  9799.732
  67  9434.887
  68  9953.843
  69  10598.23
  70  10478.61
  71  10497.43
  72  11032.65
  73  10514.9
  74  10382.39
  75  10457.62
  76  9649.444
  77  9075.744
  78  10230.39
  79  10320.13
  80  10487.73
  81  9698.572
  82  9574.485
  83  9663.793
  84  9609.493
  85  9473.244
  86  9591.527
  87  9034.891
  88  8866.4
  89  9357.114
  90  9476.831
  91  9574.521
  92  9448.824
  93  9979.74
  94  10157.37
  95  9916.31
  96  9716.363
  97  10274.59
  98  10091.52
  99  9680.007
 100  9861.741
 101  9827.5
 102  10190.35
 103  10453.39
 104  10237.34
 105  9282.349
 106  9325.069
 107  9878.324
 108  9555.471
 109  9875.24
 110  9711.562
 111  10106.68
 112  10143.38
 113  10452.14
 114  10425.03
 115  10393.11
 116  10321.52
 117  9937.469
 118  9784.662
 119  10336.45
 120  9644.093
 121  10160.98
 122  10051.82
 123  9921.657
 124  8643.302
 125  8927.292
 126  9642.358
 127  9974.13
 128  10237.66
 129  9690.102
 130  9408.858
 131  9731.919
 132  9470.044
 133  9886.4
 134  9999.226
 135  10091.23
 136  9980.559
 137  9577.174
 138  9310.6
 139  9149.68
 140  9468.015
 141  9512.961
 142  9237.192
 143  9836.599
 144  9990.88
 145  10018.56
 146  9539.434
 147  9748.154
 148  9574.959
 149  9126.725
 150  9500.066
 151  9760.382
 152  10017.47
 153  10219.2
 154  10494.57
 155  10196.28
 156  9787.011
 157  9689.052
 158  9748.544
 159  9562.598
 160  9423.585
 161  9496.445
 162  9692.581
 163  8887.771
 164  9325.454
 165  9196.943
 166  9242.495
 167  9433.201
 168  9500.84
 169  9648.465
 170  9749.288
 171  10063.31
 172  10010.83
 173  10025.09
 174  10173.12
 175  9919.104
 176  9889.314
 177  9273.548
 178  9490.314
 179  9877.494
 180  10054.08
 181  9890.551
 182  9371.255
 183  9518.948
 184  9409.946
 185  9910.652
 186  9872.108
 187  9843.056
 188  9515.731
 189  9840.379
 190  9892.046
 191  9235.191
 192  9094.459
 193  9242.242
 194  9471.312
 195  10038.9
 196  9222.18
 197  8866.766
 198  9175.031
 199  9265.101
 200  9224.605
 201  9217.99
 202  9772.809
 203  9801.515
 204  9016.497
 205  9573.449
 206  9294.116
 207  9651.693
 208  9598.575
 209  9340.972
 210  9347.38
 211  9305.821
 212  9332.427
 213  9243.187
 214  9033.181
 215  9090.579
 216  8720.785
 217  9714.215
 218  9501.727
 219  9217.11
 220  8881.056
 221  9026.179
 222  9698.312
 223  9760.052
 224  9249.581
 225  9392.119
 226  10166.93
 227  9703.279
 228  9489.059
 229  9549.957
 230  9226.057
 231  9955.603
 232  10432.74
 233  10317.64
 234  9225.417
 235  8784.355
 236  9246.22
 237  9771.29
 238  9662.838
 239  9320.82
 240  9383.578
 241  9456.455
 242  8961.845
 243  9297.421
 244  9967.802
 245  9942.561
 246  10296.51
 247  10586.49
 248  10418.78
 249  9828.274
 250  10056.31
 251  10266.19
 252  9890.205
 253  9949.633
 254  9826.348
 255  10019.39
 256  9986.045
 257  9810.334
 258  9668.252
 259  9461.043
 260  9698.097
 261  9667.138
 262  10320.49
 263  9935.476
 264  9168.364
 265  9763.509
 266  10044.3
 267  9650.8
 268  9594.54
 269  9787.055
 270  9462.712
 271  9349.939
 272  9636.442
 273  9607.767
 274  9543.979
 275  9889.451
 276  10479.11
 277  10200.61
 278  9787.818
 279  9913.666
 280  9921.388
 281  10004.35
 282  9872.215
 283  9927.004
 284  9890.678
 285  10225.55
 286  10071.56
 287  9712.258
 288  9444.236
 289  9618.055
 290  9558.534
 291  9568.648
 292  8750.099
 293  8953.281
 294  9035.854
 295  9223.496
 296  8997.477
 297  9015.953
 298  8879.954
 299  8839.209
 300  9033.5
 301  9578.172
 302  9913.493
 303  9565.3
 304  9592.048
 305  9845.201
 306  9420.273
 307  9921.424
 308  10434.96
 309  10089.27
 310  10012.26
 311  9621.868
 312  10162.12
 313  10285.16
 314  10596.78
 315  10817.07
 316  10410.65
 317  9670.976
 318  9509.069
 319  9474.352
 320  9981.075
 321  10058.57
 322  10383.38
 323  10217.03
 324  10107.85
 325  10153.38
 326  10230.21
 327  9335.623
 328  8852.786
 329  9304.987
 330  9415.895
 331  9269.746
 332  9064.434
 333  8969.199
 334  9553.063
 335  8589.284
 336  8732.174
 337  9072.683
 338  9472.428
 339  9409.873
 340  9148.132
 341  9613.286
 342  9337.474
 343  9149.398
 344  9309.132
 345  9274.353
 346  9189.786
 347  9090.703
 348  9020.395
 349  8448.51
 350  8622.362
 351  9176.102
 352  9360.437
 353  9087.976
 354  8848.232
 355  9362.873
 356  9447.979
 357  9333.917
 358  9189.12
 359  9144.536
 360  9432.52
 361  9237.626
 362  9539.977
 363  9635.636
 364  9112.934
 365  9576.292
 366  9445.523
 367  9252.565
 368  9106.493
 369  8953.287
 370  9422.728
 371  9080.873
 372  9309.687
 373  9755.189
 374  9361.384
 375  9371.332
 376  9061.067
 377  9314.018
 378  9344.963
 379  10148.08
 380  10035.98
 381  10177.35
 382  9925.714
 383  9934.904
 384  9875.368
 385  9454.007
 386  9666.329
 387  9851.353
 388  9624.501
 389  9466.168
 390  9654.818
 391  9925.649
 392  9782.194
 393  9595.05
 394  10189.34
 395  9717.243
 396  9751.037
 397  9677.554
 398  9756.209
 399  9521.069
 400  9972.191
 401  10106.47
 402  10190.77
 403  10198.68
 404  9816.806
 405  9959.102
 406  10071.05
 407  8856.442
 408  8755.963
 409  9247.22
 410  9389.338
 411  9205.186
 412  8992.504
 413  9692.001
 414  9426.119
 415  9684.58
 416  9718.405
 417  9568.956
 418  9953.201
 419  10111.87
 420  10123.1
 421  9347.707
 422  9637.658
 423  9700.561
 424  9291.314
 425  9532.787
 426  9698.093
 427  9760.361
 428  9458.526
 429  9439.868
 430  9734.582
 431  9740.951
 432  9777.623
 433  10162.38
 434  10368.4
 435  10103.64
 436  9438.857
 437  9966.53
 438  9700.721
 439  9607.585
 440  9573.768
 441  9434.306
 442  10047.25
 443  9669.315
 444  9537.135
 445  9374.93
 446  9557.893
 447  9626.109
 448  9515.172
 449  9245.456
 450  9151.161
 451  9392.295
 452  9751.671
 453  10000.72
 454  10545.32
 455  10087.43
 456  10111.29
 457  9573.717
 458  9514.865
 459  9624.363
 460  9699.146
 461  9902.053
 462  9792.038
 463  9684.822
 464  8903.125
 465  9101.161
 466  9248.498
 467  9507.673
 468  9507.899
 469  9387.25
 470  9711.605
 471  9596.714
 472  9581.7
 473  9810.907
 474  10023.49
 475  9714.065
 476  9733.323
 477  10040.56
 478  9898.592
 479  9285.856
 480  9502.237
 481  10205.64
 482  10542.26
 483  10291.73
 484  10297.95
 485  10064.99
 486  9871.218
 487  9975.668
 488  10254.62
 489  10359.08
 490  10603.78
 491  10213.06
 492  9874.633
 493  9240.885
 494  9743.764
 495  9992.865
 496  9902.472
 497  10195.91
 498  9716.349
 499  9414.702
 500  9058.61
 501  9372.644
 502  10077.9
 503  9687.206
 504  9719.394
 505  9567.136
 506  9567.391
 507  9395.069
 508  9155.917
 509  9393.853
 510  10220.23
 511  10409.29
