# Input file       =  1195918367.104826_cleaned.dat
# Candidate        =  PSR_0332+5434
# Telescope        =  AR
# Epoch_topo       =  58085.647987324373
# Epoch_bary       =  N/A
# T_sample         =  0.002
# Data Folded      =  7208960
# Data Avg         =  0.317652445012408
# Data StdDev      =  9.63099028065193 
# Profile Bins     =  1024
# Profile Avg      =  2235.94280025197 
# Profile StdDev   =  808.085425839078 
# Reduced chi-sqr  =  0.486
# Prob(Noise)      <  1   (~0.0 sigma)
# P_topo (ms)      =  714.523234227733  +/- 2.73e-05
# P'_topo (s/s)    =  -0                +/- 1.46e-11
# P''_topo (s/s^2) =  0                 +/- 6.58e-15
# P_bary (ms)      =  N/A
# P'_bary (s/s)    =  N/A
# P''_bary (s/s^2) =  N/A
# P_orb (s)        =  N/A
# asin(i)/c (s)    =  N/A
# eccentricity     =  N/A
# w (rad)          =  N/A
# T_peri           =  N/A
######################################################
   0  1971.384
   1  2368.284
   2  2368.042
   3  1996.362
   4  1682.536
   5  1762.338
   6  2081.606
   7  2149.022
   8  2008.356
   9  2170.039
  10  2279.067
  11  2105.303
  12  2195.972
  13  2167.615
  14  2089.013
  15  2270.008
  16  2276.279
  17  2122.255
  18  1767.516
  19  1851.186
  20  2287.056
  21  2318.615
  22  2493.983
  23  2529.505
  24  2251.557
  25  2123.192
  26  2201.454
  27  2385.771
  28  2529.045
  29  2467.148
  30  2799.845
  31  2616.255
  32  2313.579
  33  2047.639
  34  2069.47
  35  2209.567
  36  2354.624
  37  2170.778
  38  2268.398
  39  2302.721
  40  2108.965
  41  2137.609
  42  1989.29
  43  2114.475
  44  2095.107
  45  1901.135
  46  1701.994
  47  1508.018
  48  1835.782
  49  1821.942
  50  1839.122
  51  1920.466
  52  1951.938
  53  1760.865
  54  1786.774
  55  2024.831
  56  2015.213
  57  1906.468
  58  1958.025
  59  2248.937
  60  2162.885
  61  1857.02
  62  1692.058
  63  2123.451
  64  2491.374
  65  2534.226
  66  2295.641
  67  2082.59
  68  1895.63
  69  1870.275
  70  1758.834
  71  1792.278
  72  1945.364
  73  1945.954
  74  2065.078
  75  1775.554
  76  1806.261
  77  2034.829
  78  2402.594
  79  2553.19
  80  2349.89
  81  2216.315
  82  2054.009
  83  1967.017
  84  1980.7
  85  2041.876
  86  2041.165
  87  2408.61
  88  2537.472
  89  2405.894
  90  2320.97
  91  2233.017
  92  2549.79
  93  2575.262
  94  2207.38
  95  1862.626
  96  1708.548
  97  1820.384
  98  1828.989
  99  1713.52
 100  1932.892
 101  2144.074
 102  2018.91
 103  1994.53
 104  1989.401
 105  1961.547
 106  1937.744
 107  1908.12
 108  2291.408
 109  2213.765
 110  2034.572
 111  1904.009
 112  1695.022
 113  1574.078
 114  1692.041
 115  1887.768
 116  2341.159
 117  2431.568
 118  2104.741
 119  1864.852
 120  2032.897
 121  2098.69
 122  2328.306
 123  2149.728
 124  2097.56
 125  1930.427
 126  1759.818
 127  1587.922
 128  1710.877
 129  2216.38
 130  2457.14
 131  2220.589
 132  2121.822
 133  2234.128
 134  2275.194
 135  2228.081
 136  2221.6
 137  2217.062
 138  2160.432
 139  1917.351
 140  1777.899
 141  1859.405
 142  2055.208
 143  2244.516
 144  2251.962
 145  2107.713
 146  2049.474
 147  1938.844
 148  1980.402
 149  2381.675
 150  2590.173
 151  2705.822
 152  2458.096
 153  2161.801
 154  2121.405
 155  2014.527
 156  1900.836
 157  1966.604
 158  2076.881
 159  2160.174
 160  2078.27
 161  2100.304
 162  2033.159
 163  2070.466
 164  2019.378
 165  2349.394
 166  2417.374
 167  2083.64
 168  2104.241
 169  2109.096
 170  2196.885
 171  2126.478
 172  1956.887
 173  2444.594
 174  2430.099
 175  2086.062
 176  1900.823
 177  1761.581
 178  1972.307
 179  2057.531
 180  2096.983
 181  2229.352
 182  2105.372
 183  2093.065
 184  2221.342
 185  2162.878
 186  2162.4
 187  2299.48
 188  2049.531
 189  2029.449
 190  1750.757
 191  1691.998
 192  1900.8
 193  2054.552
 194  2495.188
 195  2528.338
 196  2222.901
 197  1936.06
 198  1808.486
 199  1995.233
 200  1961.794
 201  1814.933
 202  2118.147
 203  2315.901
 204  1991.93
 205  1752.008
 206  1905.288
 207  2217.12
 208  2519.717
 209  2469.238
 210  2351.101
 211  2276.651
 212  2287.553
 213  2537.846
 214  2568.575
 215  2723.3
 216  2892.574
 217  2598.185
 218  2100.074
 219  1801.612
 220  1564.56
 221  1823.44
 222  2079.803
 223  2381.132
 224  2267.126
 225  2096.425
 226  2231.091
 227  2527.644
 228  2598.142
 229  2623.472
 230  2609.311
 231  2597.802
 232  2223.815
 233  1952.77
 234  1893.127
 235  2184.353
 236  2449.407
 237  2479.04
 238  2375.917
 239  2168.437
 240  2182.456
 241  2285.707
 242  2002.294
 243  2172.4
 244  2267.901
 245  2575.912
 246  2415.75
 247  1996.298
 248  1805.223
 249  2167.801
 250  2412.087
 251  2702.906
 252  2493.868
 253  2276.82
 254  2135.868
 255  2062.496
 256  2028.248
 257  2121.889
 258  2143.377
 259  2516.494
 260  2405.554
 261  2164.552
 262  2036.6
 263  1857.105
 264  2020.568
 265  2152.803
 266  2142.159
 267  2043.466
 268  1948.8
 269  1997.843
 270  1901.194
 271  1701.958
 272  1972.18
 273  2181.708
 274  1875.982
 275  1696.889
 276  1599.374
 277  1663.683
 278  1572.726
 279  1674.259
 280  1887.979
 281  2026.279
 282  1817.149
 283  2017.523
 284  2185.731
 285  2142.324
 286  2361.682
 287  2434.18
 288  2632.521
 289  2398.41
 290  2114.571
 291  2046.865
 292  2001.774
 293  2097.477
 294  2189.396
 295  2112.992
 296  1976.145
 297  2146.719
 298  2136.004
 299  1978.325
 300  1842.031
 301  1941.156
 302  2262.767
 303  2131.753
 304  2195.559
 305  1893.425
 306  1721.995
 307  1874.163
 308  2274.142
 309  2191.737
 310  1977.492
 311  1908.774
 312  2133.874
 313  2237.637
 314  2282.311
 315  2414.402
 316  2506.333
 317  2406.222
 318  2397.292
 319  2184.852
 320  1815.842
 321  1884.939
 322  2299.896
 323  2526.406
 324  2313.74
 325  1843.873
 326  1837.566
 327  1775.954
 328  1788.061
 329  1979.463
 330  2141.969
 331  2133.371
 332  2062.891
 333  1786.192
 334  1704.297
 335  1729.172
 336  1921.66
 337  2266.288
 338  2348.908
 339  2303.469
 340  2372.858
 341  2384.926
 342  2349.255
 343  2359.641
 344  2247.553
 345  2466.03
 346  2333.348
 347  1922.489
 348  1695.878
 349  1670.002
 350  2156.948
 351  2532.193
 352  2612.395
 353  2440.154
 354  2210.903
 355  2225.804
 356  2164.342
 357  1809.142
 358  1774.265
 359  2010.612
 360  2130.954
 361  2181.207
 362  2001.312
 363  1894.106
 364  2115.101
 365  2283.837
 366  2463.215
 367  2181.052
 368  1663.027
 369  1819.405
 370  1913.882
 371  2078.936
 372  1973.419
 373  1909.618
 374  2226.618
 375  2217.633
 376  2189.382
 377  2007.385
 378  2130.094
 379  2598.663
 380  2727.955
 381  2537.107
 382  2259.108
 383  2503.839
 384  2492.537
 385  2272.29
 386  2087.591
 387  2321.792
 388  2628.964
 389  2556.547
 390  2223.646
 391  2155.579
 392  2242.755
 393  2436.666
 394  2596.808
 395  2561.129
 396  2340.067
 397  2035.378
 398  1966.181
 399  2302.275
 400  2444.833
 401  2586.371
 402  2570.006
 403  2448.749
 404  2083.114
 405  1977.882
 406  1905.906
 407  2279.011
 408  2381.188
 409  2633.926
 410  2585.999
 411  2391.112
 412  2494.082
 413  2518.119
 414  2505.133
 415  2626.811
 416  2664.504
 417  2662.993
 418  2425.951
 419  2262.15
 420  2189.521
 421  2101.622
 422  2218.296
 423  2612.819
 424  2485.42
 425  2163.467
 426  1816.835
 427  1767.298
 428  1885.655
 429  2019.525
 430  2193.741
 431  2334.118
 432  2250.06
 433  2006.608
 434  2029.293
 435  1949.62
 436  2011.053
 437  2324.92
 438  2348.536
 439  2321.957
 440  1989.848
 441  1867.465
 442  2097.224
 443  2044.924
 444  2437.95
 445  2547.455
 446  2276.173
 447  2129.106
 448  1964.706
 449  1964.105
 450  2123.389
 451  2252.452
 452  2574.031
 453  2619.15
 454  2222.527
 455  2143.822
 456  2285.973
 457  2380.229
 458  2352.535
 459  2271.834
 460  2570.453
 461  2473.862
 462  2111.707
 463  1922.169
 464  1931.324
 465  2273.427
 466  2568.398
 467  2579.913
 468  2294.285
 469  2084.096
 470  2173.302
 471  2225.824
 472  2170.477
 473  2373.773
 474  2448.757
 475  2180.163
 476  1831.349
 477  1763.645
 478  1985.828
 479  2078.818
 480  2279.313
 481  2392.133
 482  2485.039
 483  2289.354
 484  2235.476
 485  2340.338
 486  2290.717
 487  2150.385
 488  2206.21
 489  2103.936
 490  2275.977
 491  2083.807
 492  2063.283
 493  2034.673
 494  2227.657
 495  2442.317
 496  2364.222
 497  2474.084
 498  2571.734
 499  2544.085
 500  2320.852
 501  2176.103
 502  2398.598
 503  2462.281
 504  2555.9
 505  2296.218
 506  2152.115
 507  2242.717
 508  2329.016
 509  2712.159
 510  2749.178
 511  2372.255
 512  2328.633
 513  2151.39
 514  2426.594
 515  2414.175
 516  2418.574
 517  2692.918
 518  2465.272
 519  2201.472
 520  2083.027
 521  1996.89
 522  2495.788
 523  2659.775
 524  2674.591
 525  2481.823
 526  2337.945
 527  2449.606
 528  2530.27
 529  2529.41
 530  2902.604
 531  3094.629
 532  2800.732
 533  2463.172
 534  2363.843
 535  2378.799
 536  2653.733
 537  2716.735
 538  3061.335
 539  2693.097
 540  2295.156
 541  1982.147
 542  2067.361
 543  2539.644
 544  2869.636
 545  2956.976
 546  3010.869
 547  2855.627
 548  2656.014
 549  2432.429
 550  2539.906
 551  2540.616
 552  2731.91
 553  2757.274
 554  2465.881
 555  2413.318
 556  2433.222
 557  2550.271
 558  2497.748
 559  2754.802
 560  3300.913
 561  3040.075
 562  2809.015
 563  2711.582
 564  2818.65
 565  3029.853
 566  3239.244
 567  3416.976
 568  3044.599
 569  2450.974
 570  2373.253
 571  2621.663
 572  2621.021
 573  2532.538
 574  2566.062
 575  2493.723
 576  2246.634
 577  2093.284
 578  1923.748
 579  2289.064
 580  2491.189
 581  2999.529
 582  3003.384
 583  2520.472
 584  2438.244
 585  2515.171
 586  2440.441
 587  2144.694
 588  1980.559
 589  1942.853
 590  2025.412
 591  2098.528
 592  2135.791
 593  2273.117
 594  2405.677
 595  2866.696
 596  2699.883
 597  2319.592
 598  2185.132
 599  2145.6
 600  2353.092
 601  2522.809
 602  2481.203
 603  2839.625
 604  2732.303
 605  2555.892
 606  2478.159
 607  2338.863
 608  2473.475
 609  2888.629
 610  3060.745
 611  3055.383
 612  2574.627
 613  2649.206
 614  2839.651
 615  2843.611
 616  2835.078
 617  3028.016
 618  2898.054
 619  2939.846
 620  2822.074
 621  2941.216
 622  3136.957
 623  3462.242
 624  3909.466
 625  3629.616
 626  3142.687
 627  2922.471
 628  2885.067
 629  2740.397
 630  2880.341
 631  2862.586
 632  2836.537
 633  2433.756
 634  2224.528
 635  2181.863
 636  2248.294
 637  2190.042
 638  2374.031
 639  2199.299
 640  2205.097
 641  2196.627
 642  2268.538
 643  2246.791
 644  2303.326
 645  2652.754
 646  2935.872
 647  2611.933
 648  2267.354
 649  2248.352
 650  2275.153
 651  2365.377
 652  2465.387
 653  2592.802
 654  2480.435
 655  2141.805
 656  2046.161
 657  2233.97
 658  2134.242
 659  2020.26
 660  2097.436
 661  2126.491
 662  1998.465
 663  2013.268
 664  1921.998
 665  2010.794
 666  1963.573
 667  2136.302
 668  2124.721
 669  1705.307
 670  1890.02
 671  2163.233
 672  2104.777
 673  2225.617
 674  2305.133
 675  2445.939
 676  2292.377
 677  2121
 678  2184.646
 679  2252.436
 680  2472.24
 681  2649.636
 682  2499.62
 683  2052.781
 684  1999.051
 685  2015.81
 686  2199.882
 687  2148.171
 688  2065.495
 689  2390.012
 690  2353.884
 691  2184.099
 692  1973.104
 693  1824.998
 694  2029.321
 695  2300.026
 696  2585.08
 697  2559.218
 698  2342.45
 699  2219.051
 700  2389.842
 701  2471.296
 702  2658.602
 703  2746.221
 704  2522.398
 705  2395.626
 706  2102.429
 707  1927.945
 708  2183.126
 709  2411.888
 710  2673.097
 711  2451.436
 712  1930.009
 713  1846.368
 714  1972.206
 715  2280.1
 716  2399.564
 717  2362.804
 718  2513.375
 719  2540.013
 720  2475.415
 721  2379.217
 722  2264.366
 723  2396.438
 724  2748.373
 725  2603.912
 726  2131.873
 727  1962.894
 728  2112.305
 729  2243.673
 730  2218.926
 731  2331.81
 732  2392.393
 733  2109.667
 734  1914.59
 735  1975.35
 736  1931.44
 737  1875.348
 738  2011.366
 739  2147.76
 740  2051.479
 741  1822.115
 742  1896.809
 743  2145.725
 744  2249.996
 745  2173.114
 746  2373.476
 747  2350.786
 748  2380.605
 749  2394.589
 750  2114.084
 751  2053.274
 752  2163.954
 753  2637.344
 754  2551.444
 755  2112.098
 756  2077.563
 757  2326.16
 758  2406.249
 759  2567.528
 760  2683.115
 761  2631.199
 762  2756.881
 763  2814.809
 764  2680.908
 765  2382.569
 766  2305.86
 767  2475.736
 768  2293.597
 769  1974.527
 770  1741.921
 771  1940.213
 772  2236.702
 773  2366.111
 774  2283.884
 775  2390.734
 776  2289.182
 777  1914.607
 778  2176.337
 779  2164.703
 780  2410.734
 781  2497.672
 782  2407.128
 783  2318.108
 784  2050.054
 785  2176.376
 786  2455.6
 787  2412.209
 788  2529.871
 789  2483.473
 790  2149.372
 791  1963.712
 792  1951.375
 793  1956.894
 794  2057.628
 795  2090.574
 796  2449.041
 797  2376.587
 798  1861.529
 799  1726.987
 800  1876.588
 801  2126.55
 802  2312.958
 803  2172.653
 804  2223.415
 805  2158.966
 806  2138.832
 807  2019.112
 808  2224.765
 809  2304.447
 810  2488.896
 811  2241.469
 812  1965.786
 813  1822.883
 814  1705.44
 815  1820.045
 816  2041.415
 817  2276.562
 818  2280.783
 819  2018.324
 820  2127.705
 821  2496.344
 822  2467.747
 823  2275.27
 824  2240.555
 825  2404.536
 826  2242.669
 827  2089.206
 828  2075.021
 829  2592.5
 830  2662.835
 831  2727.655
 832  2541.295
 833  2477.489
 834  2342.196
 835  2336.231
 836  2004.566
 837  1992.29
 838  1984.638
 839  2366.207
 840  2236.492
 841  2076.037
 842  1988.333
 843  2376.61
 844  2505.017
 845  2810.154
 846  2845.872
 847  2659.332
 848  2482.825
 849  2242.13
 850  2376.924
 851  2282.081
 852  2394.573
 853  2660.048
 854  2413.808
 855  2131.096
 856  2278.479
 857  2493.997
 858  2556.084
 859  2545.874
 860  2500.638
 861  2622.84
 862  2557.992
 863  2325.223
 864  2169.022
 865  1765.198
 866  1958.869
 867  2323.755
 868  2211.518
 869  2144.814
 870  2222.775
 871  2471.533
 872  2660.584
 873  2452.654
 874  2602.557
 875  2331.771
 876  1953.175
 877  2146.713
 878  2350.632
 879  2418.777
 880  2423.339
 881  2752.073
 882  3125.002
 883  3015.231
 884  2557.761
 885  2581.061
 886  2634.047
 887  2648.981
 888  2563.563
 889  2420.47
 890  2296.484
 891  2080.507
 892  1884.47
 893  2071.023
 894  1912.505
 895  2090.643
 896  2436.493
 897  2566.133
 898  2291.592
 899  2126.068
 900  2132.417
 901  2182.683
 902  2174.933
 903  2040.532
 904  2104.685
 905  1733.271
 906  1732.937
 907  1747.465
 908  1799.759
 909  2014.576
 910  2364.08
 911  2671.38
 912  2510.365
 913  2134.542
 914  1870.349
 915  1929.979
 916  1815.52
 917  1920.108
 918  1886.503
 919  1977.109
 920  2090.808
 921  1949.382
 922  1969.581
 923  1873.032
 924  2258.796
 925  2545.972
 926  2663.831
 927  2359.156
 928  2331.604
 929  2724.992
 930  2536.728
 931  2583.301
 932  2451.247
 933  2273.204
 934  2062.878
 935  2053.462
 936  2178.597
 937  2106.394
 938  2007.898
 939  2516.663
 940  2486.092
 941  2201.445
 942  2110.97
 943  2157.538
 944  2401.625
 945  2412.999
 946  2259.238
 947  2355.401
 948  2213.846
 949  2142.58
 950  2237.459
 951  2211.787
 952  2207.106
 953  2315.67
 954  2352.77
 955  2259.895
 956  1885.979
 957  1670.657
 958  1774.033
 959  1890.891
 960  2186.543
 961  2286.122
 962  2011.078
 963  1857.382
 964  1826.862
 965  1765.688
 966  1871.251
 967  2048.387
 968  2381.718
 969  2349.231
 970  1856.143
 971  1827.87
 972  2015.163
 973  2168.587
 974  2208.328
 975  2081.823
 976  2138.371
 977  1900.059
 978  1706.313
 979  1736.129
 980  1666.369
 981  1764.225
 982  2136.973
 983  2033.836
 984  1638.084
 985  1354.052
 986  1626.171
 987  2001.414
 988  1866.043
 989  1905.964
 990  1881.889
 991  1961.819
 992  1816.793
 993  1861.542
 994  1966.131
 995  1982.736
 996  2191.093
 997  2442.277
 998  2407.073
 999  2069.845
1000  1856.261
1001  2189.652
1002  2407.565
1003  2497.13
1004  2586.01
1005  2368.429
1006  2171.406
1007  1994.405
1008  1932.642
1009  2034.749
1010  2227.35
1011  2374.099
1012  2314.053
1013  1683.661
1014  1541.413
1015  1715.636
1016  1710.755
1017  1780.835
1018  1830.312
1019  1988.827
1020  1838.469
1021  1709.484
1022  1799.687
1023  1842.85
