# Input file       =  1195832188.113894_cleaned.dat
# Candidate        =  PSR_0332+5434
# Telescope        =  AR
# Epoch_topo       =  58084.650545299701
# Epoch_bary       =  N/A
# T_sample         =  0.002
# Data Folded      =  7208960
# Data Avg         =  0.269733371867119
# Data StdDev      =  10.8381336525375 
# Profile Bins     =  256
# Profile Avg      =  7595.52513746196 
# Profile StdDev   =  1818.74087558912 
# Reduced chi-sqr  =  0.386
# Prob(Noise)      <  1   (~0.0 sigma)
# P_topo (ms)      =  714.522201345416  +/- 0.0177
# P'_topo (s/s)    =  -0                +/- 1.92e-08
# P''_topo (s/s^2) =  0                 +/- 8.55e-12
# P_bary (ms)      =  N/A
# P'_bary (s/s)    =  N/A
# P''_bary (s/s^2) =  N/A
# P_orb (s)        =  N/A
# asin(i)/c (s)    =  N/A
# eccentricity     =  N/A
# w (rad)          =  N/A
# T_peri           =  N/A
######################################################
   0  8537.853
   1  7037.836
   2  7774.398
   3  6198.43
   4  6371.631
   5  7416.86
   6  6871.635
   7  8868.573
   8  8979.989
   9  7887.246
  10  6711.792
  11  7898.766
  12  7435.374
  13  8244.553
  14  8218.926
  15  7621.634
  16  7569.154
  17  8570.188
  18  7613.197
  19  6853.542
  20  7197.319
  21  7336.343
  22  7793.064
  23  8735.482
  24  7874.44
  25  7379.521
  26  8097.743
  27  7149.044
  28  9906.387
  29  8713.553
  30  7620.018
  31  7579.118
  32  8714.698
  33  6961.408
  34  7957.294
  35  8075.636
  36  8382.119
  37  7768.294
  38  7855.732
  39  7813.221
  40  9160.739
  41  6137.722
  42  7011.686
  43  9501.545
  44  7426.126
  45  5711.865
  46  6444.556
  47  7493.169
  48  6475.42
  49  5258.418
  50  7597.772
  51  7064.87
  52  6509.251
  53  6221.327
  54  7359.845
  55  7868.376
  56  6895.423
  57  7500.047
  58  7493.845
  59  7442.281
  60  6664.166
  61  7856.337
  62  7728.155
  63  8832.146
  64  7405.887
  65  6480.845
  66  6326.794
  67  6889.505
  68  6177.729
  69  6045.596
  70  7565.627
  71  8241.408
  72  8491.161
  73  8819.169
  74  8995.656
  75  6692.051
  76  6855.448
  77  8132.079
  78  7549.638
  79  8520.001
  80  8021.711
  81  8841.36
  82  7850.209
  83  6728.895
  84  7940.034
  85  8717.952
  86  8362.104
  87  7018.445
  88  7393.334
  89  7995.727
  90  6912.386
  91  8037.011
  92  8401.499
  93  6662.11
  94  6445.527
  95  7384.355
  96  7626.747
  97  8422.127
  98  9939.911
  99  9456.448
 100  8600.85
 101  7083.122
 102  7592.93
 103  7869.991
 104  7934.494
 105  7467.645
 106  8455.246
 107  7614.817
 108  6488.139
 109  6268.246
 110  6777.481
 111  7597.539
 112  8299.688
 113  8250.967
 114  6698.668
 115  7391.539
 116  7863.194
 117  7267.175
 118  7440.959
 119  7550.514
 120  7428.211
 121  6297.088
 122  6450.245
 123  7629.504
 124  7119.714
 125  6076.458
 126  6102.892
 127  6930.955
 128  7859.699
 129  7736.542
 130  7002.566
 131  7823.129
 132  8914.904
 133  8314.544
 134  7843.109
 135  6133.071
 136  8384.88
 137  8028.575
 138  8167.019
 139  9547.167
 140  8757.728
 141  7958.12
 142  8149.61
 143  7699.175
 144  7807.662
 145  7020.91
 146  6991.932
 147  6868.443
 148  6509.025
 149  6592.592
 150  7149.505
 151  6727.061
 152  5288.215
 153  6338.746
 154  8410.954
 155  7867.045
 156  8881.966
 157  9135.201
 158  9552.319
 159  6810.002
 160  4959.785
 161  5975.107
 162  6056.277
 163  6804.75
 164  7560.534
 165  7741.84
 166  6814.755
 167  7104.115
 168  8128.032
 169  7968.396
 170  8935.908
 171  10107.35
 172  11417.49
 173  8737.008
 174  7211.517
 175  7989.904
 176  8408.506
 177  9180.492
 178  8924.397
 179  8099.636
 180  7161.321
 181  7405.41
 182  7773.068
 183  6575.486
 184  7973.273
 185  9922.982
 186  9011.139
 187  7233.707
 188  6947.238
 189  8923.034
 190  8528.863
 191  8735.212
 192  7419.314
 193  6144.036
 194  7137.054
 195  7340.251
 196  6817.117
 197  6397.35
 198  7248.356
 199  6933.132
 200  5825.209
 201  7823.153
 202  6956.862
 203  6379.801
 204  6676.843
 205  6184.548
 206  6627.113
 207  6382.663
 208  6499.992
 209  5502.774
 210  7397.914
 211  7245.828
 212  5823.807
 213  8060.02
 214  8700.451
 215  8326.842
 216  6584.314
 217  6559.47
 218  7568.828
 219  8764.05
 220  8469.164
 221  7692.383
 222  7622.174
 223  7967.306
 224  6604.022
 225  8242.333
 226  7776.927
 227  8683.005
 228  8741.67
 229  9091.249
 230  8317.366
 231  6826.107
 232  7842.456
 233  6982.81
 234  7525.279
 235  7205.823
 236  7498.411
 237  7661.672
 238  6636.475
 239  5928.996
 240  7170.04
 241  6879.173
 242  6361.633
 243  6706.955
 244  8013.875
 245  7740.453
 246  7941.399
 247  7483.11
 248  8143.537
 249  8734.003
 250  8832.128
 251  9152.671
 252  8729.378
 253  8151.485
 254  9261.361
 255  8780.708
