# Input file       =  1195142387.113752_cleaned.dat
# Candidate        =  PSR_0332+5434
# Telescope        =  AR
# Epoch_topo       =  58076.666737427680
# Epoch_bary       =  N/A
# T_sample         =  0.002
# Data Folded      =  7143424
# Data Avg         =  0.0649630166856422
# Data StdDev      =  1.00026028951031 
# Profile Bins     =  512
# Profile Avg      =  906.355121113321 
# Profile StdDev   =  118.149329510381 
# Reduced chi-sqr  =  0.534
# Prob(Noise)      <  1   (~0.0 sigma)
# P_topo (ms)      =  714.513945076963  +/- 0.000132
# P'_topo (s/s)    =  -0                +/- 7.17e-11
# P''_topo (s/s^2) =  0                 +/- 3.25e-14
# P_bary (ms)      =  N/A
# P'_bary (s/s)    =  N/A
# P''_bary (s/s^2) =  N/A
# P_orb (s)        =  N/A
# asin(i)/c (s)    =  N/A
# eccentricity     =  N/A
# w (rad)          =  N/A
# T_peri           =  N/A
######################################################
   0  1033.71
   1  1051.031
   2  1054.782
   3  1047.424
   4  982.243
   5  940.7356
   6  910.5043
   7  912.3769
   8  889.6779
   9  907.026
  10  945.5477
  11  935.7968
  12  964.8286
  13  849.7323
  14  875.3183
  15  933.6075
  16  929.2589
  17  933.5541
  18  903.0895
  19  874.306
  20  856.2565
  21  911.8929
  22  910.9421
  23  957.1717
  24  861.8945
  25  907.1526
  26  856.6454
  27  903.1409
  28  904.7512
  29  943.1995
  30  975.7294
  31  880.5392
  32  828.1818
  33  867.8063
  34  853.6347
  35  923.088
  36  963.1002
  37  989.3934
  38  904.0165
  39  907.8833
  40  781.3531
  41  834.242
  42  815.1924
  43  859.887
  44  918.8271
  45  934.1273
  46  906.9311
  47  827.7907
  48  920.9984
  49  900.7515
  50  996.5511
  51  944.4963
  52  923.2056
  53  986.5602
  54  973.951
  55  1004.228
  56  956.4042
  57  978.821
  58  984.2561
  59  907.3306
  60  925.728
  61  925.2416
  62  931.9655
  63  929.7639
  64  872.2513
  65  758.2464
  66  804.3234
  67  837.6868
  68  943.2419
  69  921.5263
  70  952.2866
  71  985.2474
  72  918.3074
  73  940.0019
  74  940.3632
  75  935.2014
  76  886.1544
  77  872.1684
  78  881.2362
  79  906.053
  80  874.1645
  81  759.3726
  82  751.2334
  83  842.1487
  84  931.8947
  85  971.1269
  86  943.2738
  87  959.0312
  88  934.7899
  89  871.6117
  90  857.2602
  91  834.6592
  92  906.905
  93  964.8157
  94  932.9429
  95  942.1156
  96  958.6412
  97  967.707
  98  907.1672
  99  916.7332
 100  1005.237
 101  971.8676
 102  971.3937
 103  1048.392
 104  976.8063
 105  970.0881
 106  937.1931
 107  941.8043
 108  989.4072
 109  1053.731
 110  942.2716
 111  916.9064
 112  858.6345
 113  836.3262
 114  835.7863
 115  873.4271
 116  937.2293
 117  942.8827
 118  1009.508
 119  951.4855
 120  948.4749
 121  965.6724
 122  1007.838
 123  945.1625
 124  883.1251
 125  909.497
 126  946.0635
 127  895.2111
 128  877.3683
 129  967.9676
 130  956.2939
 131  898.5759
 132  907.1524
 133  972.5677
 134  942.3453
 135  892.3765
 136  863.4195
 137  920.6969
 138  929.7199
 139  853.9779
 140  847.6571
 141  829.9622
 142  841.4122
 143  893.0577
 144  882.724
 145  941.9601
 146  906.1836
 147  908.4011
 148  842.7104
 149  826.8791
 150  924.428
 151  920.6036
 152  1011.301
 153  989.7979
 154  959.3505
 155  945.9805
 156  959.8711
 157  912.8924
 158  871.5497
 159  882.5539
 160  857.6158
 161  835.6949
 162  861.8373
 163  869.2795
 164  762.7401
 165  914.7941
 166  990.4357
 167  951.6922
 168  897.9069
 169  922.011
 170  905.1566
 171  804.036
 172  812.7968
 173  807.8146
 174  847.814
 175  864.3943
 176  884.1885
 177  960.7448
 178  889.0234
 179  868.2723
 180  904.7968
 181  942.8429
 182  903.5353
 183  822.2854
 184  836.8606
 185  874.5422
 186  932.6106
 187  949.054
 188  892.2928
 189  839.405
 190  788.8403
 191  832.6382
 192  854.547
 193  961.4225
 194  943.261
 195  999.1846
 196  990.5157
 197  971.2808
 198  914.0176
 199  872.4209
 200  1016.474
 201  889.2028
 202  886.4252
 203  884.791
 204  895.1036
 205  880.8326
 206  939.1918
 207  976.9574
 208  859.7782
 209  908.3988
 210  915.3566
 211  1022.04
 212  1039.656
 213  1032.47
 214  1012.597
 215  959.5108
 216  915.4645
 217  861.6365
 218  824.8025
 219  829.7678
 220  922.1546
 221  920.5573
 222  868.0295
 223  913.3254
 224  895.1281
 225  924.6721
 226  916.1556
 227  917.671
 228  944.0582
 229  955.7643
 230  871.8356
 231  827.1753
 232  811.8127
 233  808.9396
 234  923.418
 235  877.9512
 236  950.1257
 237  915.7791
 238  941.5329
 239  916.9065
 240  876.7722
 241  862.6751
 242  860.7289
 243  959.596
 244  927.3344
 245  953.5422
 246  969.1555
 247  951.9595
 248  906.2231
 249  900.0621
 250  929.3909
 251  945.7627
 252  1002.227
 253  1019.606
 254  917.966
 255  917.2359
 256  905.2819
 257  840.3335
 258  847.5663
 259  897.569
 260  926.5367
 261  903.3875
 262  1025.53
 263  999.49
 264  928.2061
 265  1001.609
 266  963.8165
 267  1010.819
 268  937.3151
 269  990.7136
 270  993.3144
 271  857.5512
 272  940.873
 273  955.7121
 274  942.9017
 275  1012.017
 276  995.2444
 277  923.4852
 278  810.6335
 279  884.0768
 280  905.8591
 281  971.1777
 282  1016.109
 283  1012.079
 284  933.3424
 285  893.5361
 286  933.5247
 287  926.0322
 288  923.1231
 289  888.099
 290  837.2244
 291  850.9769
 292  911.8226
 293  909.7266
 294  838.9473
 295  878.2124
 296  878.2298
 297  963.1556
 298  851.4633
 299  835.5633
 300  929.9833
 301  923.3199
 302  914.7908
 303  801.8217
 304  855.7723
 305  831.4056
 306  828.5854
 307  786.5388
 308  772.389
 309  843.3683
 310  853.4589
 311  899.2334
 312  954.0227
 313  947.6143
 314  967.1876
 315  1015.746
 316  983.5419
 317  977.1313
 318  996.0126
 319  895.2487
 320  865.9749
 321  804.1199
 322  899.3373
 323  877.9126
 324  860.5042
 325  907.7267
 326  931.9405
 327  960.1082
 328  798.8859
 329  776.9453
 330  765.4043
 331  867.5547
 332  930.2661
 333  958.8353
 334  935.0556
 335  906.2472
 336  905.1138
 337  889.5056
 338  943.3889
 339  1012.032
 340  1027.34
 341  972.27
 342  905.73
 343  863.8274
 344  835.9191
 345  874.9446
 346  869.6652
 347  1019.797
 348  1055.791
 349  977.8278
 350  856.7393
 351  851.0175
 352  881.2536
 353  899.1673
 354  1008.728
 355  947.9296
 356  852.5706
 357  792.0441
 358  906.0361
 359  851.8078
 360  792.5967
 361  899.5732
 362  838.5371
 363  888.5486
 364  853.4639
 365  872.8999
 366  851.7292
 367  912.0584
 368  905.8258
 369  886.7163
 370  870.4791
 371  788.8826
 372  879.7704
 373  910.8436
 374  842.4147
 375  848.7637
 376  920.4664
 377  894.0912
 378  811.8897
 379  845.1561
 380  882.8235
 381  894.8019
 382  894.8558
 383  939.94
 384  973.4462
 385  946.3613
 386  1019.019
 387  943.804
 388  887.5089
 389  978.3468
 390  955.0535
 391  964.0416
 392  961.4133
 393  920.4785
 394  842.488
 395  873.705
 396  917.2206
 397  971.4161
 398  931.3658
 399  867.4797
 400  857.1381
 401  921.5589
 402  990.5962
 403  917.219
 404  896.0008
 405  911.7692
 406  894.599
 407  758.2785
 408  759.55
 409  840.7622
 410  934.7321
 411  871.1127
 412  832.8276
 413  903.4243
 414  822.7109
 415  924.4665
 416  857.3135
 417  896.3732
 418  908.2521
 419  880.4497
 420  885.4797
 421  887.6278
 422  886.7863
 423  870.2416
 424  907.1577
 425  881.1729
 426  824.6652
 427  861.6211
 428  810.4262
 429  901.5408
 430  999.0922
 431  1038.906
 432  1019.899
 433  971.7879
 434  925.5288
 435  950.2234
 436  942.5467
 437  926.9467
 438  908.6481
 439  910.7998
 440  910.9947
 441  907.0142
 442  884.7039
 443  879.0105
 444  925.6581
 445  882.316
 446  795.3586
 447  915.2202
 448  871.1698
 449  941.6216
 450  853.2826
 451  832.731
 452  851.8925
 453  865.295
 454  829.5806
 455  803.3552
 456  871.6422
 457  860.3544
 458  792.1877
 459  748.7441
 460  808.4365
 461  823.2903
 462  880.7328
 463  881.653
 464  828.4715
 465  851.8348
 466  842.5056
 467  879.7524
 468  885.7152
 469  914.6897
 470  932.5583
 471  871.3781
 472  854.9739
 473  880.1002
 474  923.2903
 475  862.6788
 476  951.9268
 477  901.8072
 478  732.2812
 479  785.2389
 480  772.1384
 481  845.337
 482  847.8601
 483  979.3893
 484  961.3296
 485  864.4625
 486  927.9089
 487  862.9347
 488  835.8614
 489  857.4303
 490  868.319
 491  779.1682
 492  828.2568
 493  771.0786
 494  782.3727
 495  817.057
 496  825.5404
 497  898.1096
 498  961.9022
 499  988.5458
 500  893.4753
 501  930.3846
 502  887.7304
 503  924.9058
 504  966.2453
 505  946.4693
 506  996.9669
 507  1016.277
 508  1034.885
 509  1103.525
 510  1060.767
 511  1061.69
