# Input file       =  1195933010.124426_cleaned.dat
# Candidate        =  PSR_0332+5434
# Telescope        =  AR
# Epoch_topo       =  58085.817466717890
# Epoch_bary       =  N/A
# T_sample         =  0.002
# Data Folded      =  7340032
# Data Avg         =  0.309877354168358
# Data StdDev      =  4.74017642076172 
# Profile Bins     =  256
# Profile Avg      =  8884.71408496141 
# Profile StdDev   =  802.644990714099 
# Reduced chi-sqr  =  1.080
# Prob(Noise)      <  0.181   (~0.9 sigma)
# P_topo (ms)      =  714.523433115648  +/- 8.26e-05
# P'_topo (s/s)    =  -0                +/- 4.36e-11
# P''_topo (s/s^2) =  0                 +/- 1.92e-14
# P_bary (ms)      =  N/A
# P'_bary (s/s)    =  N/A
# P''_bary (s/s^2) =  N/A
# P_orb (s)        =  N/A
# asin(i)/c (s)    =  N/A
# eccentricity     =  N/A
# w (rad)          =  N/A
# T_peri           =  N/A
######################################################
   0  8658.692
   1  7564.302
   2  7796.894
   3  8280.549
   4  8405.976
   5  7832.269
   6  8027.592
   7  8775.648
   8  8193.156
   9  8925.788
  10  8953.679
  11  9562.556
  12  7743.732
  13  8193.852
  14  8613.204
  15  7586.418
  16  8185.3
  17  8343.005
  18  7790.862
  19  7933.59
  20  8888.517
  21  9164.68
  22  7772.371
  23  8096.847
  24  8621.077
  25  8448.792
  26  9368.943
  27  9213.307
  28  9287.088
  29  8313.231
  30  8305.316
  31  8414.378
  32  8004.658
  33  8680.048
  34  8913.958
  35  9911.607
  36  9400.117
  37  8653.288
  38  8878.932
  39  8893.72
  40  9346.122
  41  8370.242
  42  8087.18
  43  8414.465
  44  8778.797
  45  8763.776
  46  9437.277
  47  8203.558
  48  7983.163
  49  8423.065
  50  8222.601
  51  7714.765
  52  7934.585
  53  8776.724
  54  8823.415
  55  8752.093
  56  9651.922
  57  9597.554
  58  8150.74
  59  9117.017
  60  9818.393
  61  8684.233
  62  8467.962
  63  8529.878
  64  9629.925
  65  8777.567
  66  8884.729
  67  8796.79
  68  9176.499
  69  8600.947
  70  8008.029
  71  9459.468
  72  9690.74
  73  8712.675
  74  9388.558
  75  9259.446
  76  8576.053
  77  7366.785
  78  7653.632
  79  8113.201
  80  7402.002
  81  7935.83
  82  8521.173
  83  9316.552
  84  8051.635
  85  8118.23
  86  8843.608
  87  8727.753
  88  9071.991
  89  8557.516
  90  9041.376
  91  8207.254
  92  8855.603
  93  9640.355
  94  8087.061
  95  8663.893
  96  10778.13
  97  9166.674
  98  8270.844
  99  8416.386
 100  9653.61
 101  10005.72
 102  8962.613
 103  9813.786
 104  9709.91
 105  9442.592
 106  7491.668
 107  10110.71
 108  9475.104
 109  9045.988
 110  9767.957
 111  10157.85
 112  10432.32
 113  9325.056
 114  10264.49
 115  9419.342
 116  8356.52
 117  8166.466
 118  8856.163
 119  9341.499
 120  9237.041
 121  9696.733
 122  9129.898
 123  10285.09
 124  9549.646
 125  8977.706
 126  9438.884
 127  8850.872
 128  9009.527
 129  10190.4
 130  9953.564
 131  9421.587
 132  9150.821
 133  9579.631
 134  9838.513
 135  9199.164
 136  9281.946
 137  9181.432
 138  10214.71
 139  9897.656
 140  10528.14
 141  9548.01
 142  9697.041
 143  10063.37
 144  9537.114
 145  9065.32
 146  9205.216
 147  9823.376
 148  10284.38
 149  9527.672
 150  8778.633
 151  8683.8
 152  8701.779
 153  9125.801
 154  9465.126
 155  9896.943
 156  10491.62
 157  11710
 158  10970.47
 159  8883.484
 160  9348.327
 161  9716.196
 162  10226.53
 163  8855.035
 164  8478.303
 165  9068.327
 166  9042.606
 167  9121.704
 168  9493.561
 169  9340.812
 170  8896.509
 171  9763.534
 172  9871.993
 173  8304.634
 174  8251.213
 175  8743.614
 176  9457.175
 177  9432.315
 178  8559.948
 179  8917.089
 180  9257.762
 181  8633.736
 182  8334.422
 183  8783.37
 184  8495.589
 185  8233.921
 186  8516.58
 187  8660.333
 188  9344.673
 189  10002.82
 190  9374.913
 191  9359.267
 192  8802.605
 193  8502.75
 194  9242.209
 195  9576.275
 196  8089.792
 197  9152.622
 198  9496.103
 199  7966.055
 200  8265.649
 201  8881.465
 202  8263.004
 203  7940.991
 204  8369.617
 205  9344.887
 206  9427.335
 207  9049.544
 208  9164.995
 209  9279.259
 210  8360.784
 211  8675.272
 212  8570.278
 213  8448.069
 214  8108.295
 215  9096.102
 216  8583.266
 217  9083.986
 218  9197.721
 219  9146.907
 220  8692.548
 221  7841.66
 222  8911.954
 223  8906.65
 224  8829.061
 225  9146.863
 226  9005.215
 227  8834.95
 228  8799.346
 229  8546.589
 230  8490.884
 231  7683.144
 232  8484.339
 233  8572.954
 234  8932.886
 235  7102.251
 236  7754.061
 237  8196.717
 238  8006.592
 239  7289.109
 240  7490.707
 241  9260.14
 242  8039.484
 243  8215.635
 244  8872.999
 245  8654.929
 246  8648.641
 247  8653.544
 248  8824.311
 249  7220.567
 250  8148.229
 251  8310.943
 252  9066.192
 253  9227.234
 254  8658.842
 255  8906.145
