# Input file       =  1195258620.102966_cleaned.dat
# Candidate        =  PSR_0332+5434
# Telescope        =  AR
# Epoch_topo       =  58078.012026654702
# Epoch_bary       =  N/A
# T_sample         =  0.002
# Data Folded      =  7340032
# Data Avg         =  0.253929056712617
# Data StdDev      =  14.3385925744931 
# Profile Bins     =  1024
# Profile Avg      =  1820.22636925838 
# Profile StdDev   =  1213.96320328915 
# Reduced chi-sqr  =  0.386
# Prob(Noise)      <  1   (~0.0 sigma)
# P_topo (ms)      =  714.515689247302  +/- 4.52e-05
# P'_topo (s/s)    =  -0                +/- 2.39e-11
# P''_topo (s/s^2) =  0                 +/- 1.05e-14
# P_bary (ms)      =  N/A
# P'_bary (s/s)    =  N/A
# P''_bary (s/s^2) =  N/A
# P_orb (s)        =  N/A
# asin(i)/c (s)    =  N/A
# eccentricity     =  N/A
# w (rad)          =  N/A
# T_peri           =  N/A
######################################################
   0  1663.602
   1  2128.706
   2  2320.015
   3  2576.246
   4  2322.942
   5  2133.45
   6  1912.911
   7  2080.954
   8  2199.105
   9  2187.295
  10  1941.571
  11  1964.355
  12  1827.819
  13  1415.664
  14  1779.158
  15  1963.107
  16  2343.171
  17  2196.343
  18  2247.195
  19  2421.871
  20  2356.793
  21  2335.866
  22  2472.707
  23  2061.324
  24  1857.869
  25  1885.445
  26  1804.191
  27  1886.905
  28  1827.469
  29  2099.369
  30  2200.875
  31  2089.452
  32  2078.902
  33  2090.384
  34  2007.024
  35  1919.255
  36  1781.627
  37  1529.851
  38  1441.724
  39  1328.62
  40  1589.73
  41  1910.679
  42  1959.996
  43  1531.719
  44  1373.696
  45  1343.107
  46  1411.501
  47  1477.981
  48  1410.184
  49  1618.669
  50  1520.756
  51  1622.485
  52  1611.459
  53  1855.966
  54  2160.696
  55  2055.24
  56  1529.861
  57  1664.265
  58  1962.556
  59  2179.983
  60  1993.523
  61  1539.235
  62  1094.424
  63  1169.99
  64  905.5649
  65  1437.129
  66  1329.355
  67  1263.907
  68  914.8226
  69  877.786
  70  677.4956
  71  942.2775
  72  1086.785
  73  1997.812
  74  2078.977
  75  1756.29
  76  1386.749
  77  1135.212
  78  1281.519
  79  1938.824
  80  1764.092
  81  2090.814
  82  1959.146
  83  2066.883
  84  2023.151
  85  1880.915
  86  2180.478
  87  2690.163
  88  2722.582
  89  2485.132
  90  1886.661
  91  1439.915
  92  1540.91
  93  1695.198
  94  1893.904
  95  1982.027
  96  1683.514
  97  1825.316
  98  1784.027
  99  1695.579
 100  1974.997
 101  2184.149
 102  2738.94
 103  2669.198
 104  2311.523
 105  2218.39
 106  2213.016
 107  2440.117
 108  2263.835
 109  1912.061
 110  1893.051
 111  1845.312
 112  1797.56
 113  1551.613
 114  1907.435
 115  2186.989
 116  2445.614
 117  2277.187
 118  2122.601
 119  1724.233
 120  1470.542
 121  1424.463
 122  1926.246
 123  1940.634
 124  2143.645
 125  1998.349
 126  1959.859
 127  1645.536
 128  1392.865
 129  1065.426
 130  1588.386
 131  1791.66
 132  1601.971
 133  1152.693
 134  951.8297
 135  1401.695
 136  1788.52
 137  1838.062
 138  2145.869
 139  2031.6
 140  2072.645
 141  1601.639
 142  1303.019
 143  1660.996
 144  1846.255
 145  1858.871
 146  1505.462
 147  935.3864
 148  1007.725
 149  1239.475
 150  1904.027
 151  2216.565
 152  1954.613
 153  1368.966
 154  1564.465
 155  1571.454
 156  1815.91
 157  1727.512
 158  1633.256
 159  1960.05
 160  1836.253
 161  1415.257
 162  1185.917
 163  866.246
 164  1126.306
 165  1324.148
 166  1258.666
 167  1387.195
 168  1122.392
 169  1199.278
 170  1181.522
 171  1064.481
 172  1344.009
 173  1623.018
 174  1517.12
 175  1627.903
 176  1356.388
 177  1295.411
 178  1674.965
 179  1687.898
 180  1811.808
 181  1845.901
 182  1882.547
 183  1822.716
 184  1392.786
 185  1445.149
 186  1803.579
 187  1920.677
 188  2330.482
 189  2533.133
 190  2122.727
 191  1781.303
 192  1453.409
 193  1671.489
 194  1772.143
 195  1973.463
 196  2255.431
 197  1910.772
 198  1439.817
 199  1478.397
 200  1783.886
 201  1787.533
 202  1784.269
 203  1920.781
 204  1840.493
 205  1635.388
 206  1400.207
 207  1250.108
 208  1895.151
 209  1807.975
 210  1978.854
 211  1277.215
 212  1678.169
 213  1603.04
 214  1720.059
 215  1689.072
 216  1865.161
 217  1719.036
 218  1448.317
 219  1461.385
 220  1245.347
 221  1365.869
 222  1694.668
 223  1696.207
 224  1874.235
 225  1538.357
 226  1922.331
 227  2206.865
 228  2027.185
 229  1990.107
 230  2277.853
 231  2658.973
 232  2610.813
 233  1931.804
 234  1814.242
 235  1706.685
 236  1757.389
 237  2145.456
 238  2550.886
 239  2571.59
 240  2397.64
 241  2207.942
 242  2170.18
 243  2083.536
 244  1992.901
 245  2574.41
 246  2583.437
 247  2308.745
 248  2285.883
 249  2217.406
 250  2102.38
 251  2417.604
 252  2341.624
 253  2645.359
 254  2034.957
 255  1870.257
 256  1669.758
 257  1410.875
 258  1663.286
 259  1828.295
 260  1701.228
 261  1980.738
 262  1809.537
 263  1722.855
 264  1294.974
 265  1333.135
 266  1610.558
 267  1648.89
 268  1642.495
 269  1308.66
 270  1455.077
 271  1672.154
 272  2120.654
 273  1942.163
 274  2248.874
 275  2353.19
 276  2521.436
 277  2441.704
 278  2798.239
 279  3120.827
 280  3185.82
 281  2746.525
 282  2453.465
 283  2556.269
 284  2485.562
 285  2687.208
 286  2603.78
 287  2432.034
 288  2252.814
 289  2304.582
 290  2309.558
 291  2157.073
 292  1772.338
 293  1967.551
 294  2224.703
 295  2189.011
 296  1772.512
 297  1482.723
 298  1658.572
 299  1989.933
 300  1937.355
 301  1895.107
 302  1881.553
 303  1780.692
 304  1980.017
 305  1776.341
 306  1268.379
 307  1344.224
 308  1670.774
 309  1712.54
 310  1385.215
 311  1123.61
 312  1110.066
 313  1081.366
 314  978.4549
 315  1600.245
 316  1622.041
 317  1584.097
 318  1356.913
 319  1129.423
 320  1356.437
 321  1633.959
 322  1685.664
 323  2194.044
 324  2174.713
 325  1916.85
 326  1494.481
 327  1284.576
 328  1204.246
 329  1292.572
 330  1409.441
 331  1978.914
 332  2200.805
 333  1881.194
 334  1563.87
 335  1549.912
 336  1682.559
 337  2137.401
 338  2069.128
 339  2293.656
 340  1970.206
 341  1707.467
 342  1782.212
 343  1576.135
 344  1609.283
 345  1617.702
 346  1818.017
 347  1763.589
 348  1267.313
 349  1227.661
 350  1483.986
 351  1686.852
 352  1736.737
 353  1811.806
 354  1455.431
 355  1381.569
 356  1290.367
 357  1439.684
 358  1683.229
 359  1946.897
 360  2283.808
 361  2083.989
 362  1968.818
 363  1637.897
 364  1425.94
 365  1374.732
 366  1693.618
 367  1761.182
 368  1899.018
 369  1780.048
 370  1376.619
 371  1165.806
 372  1078.927
 373  1300.132
 374  1435.82
 375  1451.497
 376  1482.07
 377  1268.929
 378  1014.981
 379  1048.546
 380  1239.47
 381  1405.297
 382  1436.937
 383  1461.709
 384  1476.925
 385  1497.066
 386  1668.526
 387  1446.455
 388  1657.042
 389  1974.259
 390  2115.065
 391  1709.939
 392  1225.221
 393  1458.782
 394  1567.944
 395  1682.811
 396  1908.08
 397  1699.826
 398  1711.745
 399  1928.769
 400  2126.165
 401  2467.661
 402  2553.126
 403  2588.539
 404  2750.695
 405  2438.881
 406  2139.846
 407  2207.799
 408  2023.823
 409  2470.22
 410  2014.549
 411  1858.24
 412  1892.001
 413  1606.978
 414  1918.404
 415  2208.307
 416  2455.434
 417  2488.175
 418  2273.838
 419  2439.523
 420  2299.108
 421  1995.955
 422  1988.317
 423  2488.396
 424  2315.848
 425  2730.399
 426  2755.222
 427  2678.99
 428  2619.284
 429  2261.729
 430  2046.153
 431  1776.752
 432  1568.154
 433  1786.892
 434  1857.85
 435  2048.249
 436  2507.725
 437  2576.985
 438  2630.234
 439  2388.902
 440  1943.406
 441  2187.808
 442  2035.43
 443  1690.262
 444  1552.586
 445  1583.216
 446  1876.979
 447  1767.843
 448  1741.153
 449  1880.169
 450  1777.876
 451  1605.372
 452  1818.817
 453  2135.062
 454  2693.276
 455  2779.906
 456  2448.624
 457  2060.948
 458  2018.109
 459  2197.06
 460  2236.921
 461  2539.451
 462  2739.368
 463  2598.451
 464  2436.691
 465  2247.705
 466  2757.56
 467  2500.27
 468  2366.329
 469  2260.166
 470  2261.213
 471  2635.827
 472  2411.807
 473  2295.61
 474  2554.885
 475  2785.466
 476  2523.945
 477  1809.328
 478  1395.877
 479  1679.014
 480  1778.809
 481  1801.608
 482  1660.955
 483  1629.688
 484  1494.303
 485  1610.565
 486  1231.525
 487  1201.586
 488  1222.797
 489  1453.52
 490  1682.175
 491  1308.544
 492  1298.828
 493  1415.497
 494  1481.274
 495  2036.068
 496  1945.352
 497  1963.415
 498  1576.641
 499  1838.829
 500  2011.797
 501  2048.985
 502  1781.376
 503  1848.621
 504  1850.564
 505  1824.22
 506  1970.308
 507  1726.439
 508  1603.102
 509  1744.671
 510  1894.563
 511  1846.918
 512  1187.979
 513  1024.074
 514  1429.248
 515  1845.69
 516  1911.059
 517  1865.298
 518  1842.814
 519  2103.903
 520  1679.828
 521  1045.4
 522  894.7457
 523  1436.421
 524  2076.606
 525  1862.777
 526  1258.94
 527  1335.474
 528  1437.587
 529  1331.888
 530  1461.667
 531  1555.772
 532  2020.84
 533  2031.036
 534  1935.895
 535  1155.278
 536  1397.877
 537  1855.112
 538  2592.962
 539  2316.679
 540  2182.803
 541  1941.119
 542  1508.276
 543  1480.78
 544  1695.155
 545  1906.679
 546  2236.108
 547  2451.848
 548  2169.282
 549  1954.644
 550  1473.876
 551  1262.957
 552  1451.236
 553  1710.509
 554  1940.769
 555  1655.842
 556  1729.818
 557  2065.74
 558  1848.924
 559  1683.948
 560  1843.732
 561  2053.9
 562  1907.01
 563  1570.977
 564  1371.601
 565  1440.398
 566  1228.391
 567  1114.044
 568  1147.772
 569  1209.831
 570  1018.606
 571  1082.42
 572  1302.653
 573  1725.501
 574  1873.582
 575  1733.605
 576  2131.295
 577  1982.957
 578  2008.201
 579  1926.319
 580  1805.344
 581  2096.24
 582  2216.933
 583  2245.929
 584  2301.226
 585  1900.503
 586  1840.315
 587  1814.264
 588  1814.912
 589  2119.545
 590  2243.13
 591  1885.411
 592  1648.178
 593  1477.527
 594  1451.5
 595  1948.334
 596  1957.43
 597  2182.666
 598  1870.644
 599  1767.067
 600  1536.273
 601  1109.079
 602  797.0258
 603  939.8415
 604  971.7175
 605  1378.344
 606  1380.085
 607  1495.212
 608  1864.338
 609  1944.531
 610  2005.837
 611  1886.166
 612  1655.953
 613  1725.011
 614  1811.169
 615  1874.188
 616  1720.021
 617  1462.325
 618  1532.869
 619  1661.613
 620  1677.545
 621  1685.813
 622  1849.838
 623  2116.892
 624  2377.329
 625  2409.413
 626  2627.354
 627  2708.737
 628  2201.384
 629  1621.877
 630  1597.411
 631  1826.594
 632  1931.59
 633  2080.558
 634  2134.875
 635  2256.521
 636  1776.619
 637  1204.279
 638  1328.213
 639  1358.99
 640  1600.117
 641  1522.195
 642  1036.376
 643  1139.049
 644  1110.942
 645  1247.36
 646  1236.174
 647  1493.791
 648  1781.457
 649  1434.331
 650  1196.509
 651  1298.988
 652  1738.93
 653  1768.09
 654  2020.164
 655  1937.062
 656  1764.642
 657  1474.98
 658  1087.683
 659  1242.368
 660  1439.862
 661  1436.193
 662  1425.512
 663  765.6895
 664  478.2078
 665  642.401
 666  1291.786
 667  2124.338
 668  2039.873
 669  1644.193
 670  1381.44
 671  1540.75
 672  1550.515
 673  1621.425
 674  1093.993
 675  1544.987
 676  1536.761
 677  1628.113
 678  1497.639
 679  1798.709
 680  1856.488
 681  2122.423
 682  2073.488
 683  1923.45
 684  1733.435
 685  1449.932
 686  1644.827
 687  1543.29
 688  1616.981
 689  1779.687
 690  1704.029
 691  2072.878
 692  2144.747
 693  1998.951
 694  1861.183
 695  1940.914
 696  2330.831
 697  2204.914
 698  1471.72
 699  1192.409
 700  1520.026
 701  1736.793
 702  1734.322
 703  1865.97
 704  1924.24
 705  2075.397
 706  1928.771
 707  2086.465
 708  2116.376
 709  2454.18
 710  2494.719
 711  2296.387
 712  2170.042
 713  2175.528
 714  2087.271
 715  2318.298
 716  2494.242
 717  2228.764
 718  1935.891
 719  2285.97
 720  2612.562
 721  2435.909
 722  2020.613
 723  1813.135
 724  2278.246
 725  2454.931
 726  2541.497
 727  2364.931
 728  1929.611
 729  1709.999
 730  1741.758
 731  1948.95
 732  1829.454
 733  1638.75
 734  1880.433
 735  1930.396
 736  1608.229
 737  1601.456
 738  2062.566
 739  2515.745
 740  2701.456
 741  2662.693
 742  2182.55
 743  1895.512
 744  1540.666
 745  2231.725
 746  2473.465
 747  2544.868
 748  2450.152
 749  1879.535
 750  1903.087
 751  2068.104
 752  2038.529
 753  2109.977
 754  2015.087
 755  2042.811
 756  2028.238
 757  1433.224
 758  1266.872
 759  1611.15
 760  1878.908
 761  2014.734
 762  1478.462
 763  958.8787
 764  837.0162
 765  792.1409
 766  1134.105
 767  1619.707
 768  1539.982
 769  1604.496
 770  1315.248
 771  1258.155
 772  1510.978
 773  1615.395
 774  1743.985
 775  1606.419
 776  1286.948
 777  1349.743
 778  1376.144
 779  1587.443
 780  2183.615
 781  2000.045
 782  2042.971
 783  2121.865
 784  2356.782
 785  2445.39
 786  2069.332
 787  2025.268
 788  1903.76
 789  1544.415
 790  1753.933
 791  1735.402
 792  1660.44
 793  1337.766
 794  1180.417
 795  1270.227
 796  1335.291
 797  1583.837
 798  1780.222
 799  1769.348
 800  1482.443
 801  1304.076
 802  915.2596
 803  900.2192
 804  884.7165
 805  1240.459
 806  1153.286
 807  1136.813
 808  818.0342
 809  813.6207
 810  1465.545
 811  1559.668
 812  1164.1
 813  868.7932
 814  1016.988
 815  1589.02
 816  1780.834
 817  1731.172
 818  1562.787
 819  1491.201
 820  1660.947
 821  1916.426
 822  1508.131
 823  1622.939
 824  1600.393
 825  1793.635
 826  2090.275
 827  1885.284
 828  1605.215
 829  1715.015
 830  1918.118
 831  2317.928
 832  2274.235
 833  2423.01
 834  2739.336
 835  2754.676
 836  2328.547
 837  1965.257
 838  1572.264
 839  2087.229
 840  1949.337
 841  2047.397
 842  2027.729
 843  2045.421
 844  2065.79
 845  2229.424
 846  2035.512
 847  2275.717
 848  1985.462
 849  2048.342
 850  2139.927
 851  2299.336
 852  2445.951
 853  2704.521
 854  2461.786
 855  2392.032
 856  1723.513
 857  1515.197
 858  1409.245
 859  1306.19
 860  1485.54
 861  1805.364
 862  2078.836
 863  2280.057
 864  2145.355
 865  2074.166
 866  2022.799
 867  1834.652
 868  2163.557
 869  2227.442
 870  1930.67
 871  1641.244
 872  1681.289
 873  1729.63
 874  2008.774
 875  1956.99
 876  2096.42
 877  2227.755
 878  2136.708
 879  1672.445
 880  1197.726
 881  1574.198
 882  1935.764
 883  2148.162
 884  2215.688
 885  2161.522
 886  1918.639
 887  1824.956
 888  1939.726
 889  1812.192
 890  1858.291
 891  1550.545
 892  1482.703
 893  1494.75
 894  1488.759
 895  1610.19
 896  1997.326
 897  2102.715
 898  2007.541
 899  1784.351
 900  1388.998
 901  1473.374
 902  1545.947
 903  1574.635
 904  1562.812
 905  1654.067
 906  1906.338
 907  1740.258
 908  1461.84
 909  1663.077
 910  2030.985
 911  2194.905
 912  2406.386
 913  1961.26
 914  1556.857
 915  1277.583
 916  1393.919
 917  1952.658
 918  2052.44
 919  2198.234
 920  2210.022
 921  2113.642
 922  1662.091
 923  1813.992
 924  1652.136
 925  1865.768
 926  1782.812
 927  1619.453
 928  1810.953
 929  1624.132
 930  1657.009
 931  1953.365
 932  1784.487
 933  1654.867
 934  1584.362
 935  1608.239
 936  2002.585
 937  1525.631
 938  1704.957
 939  1975.728
 940  2051.422
 941  2003.366
 942  1475.813
 943  1362.669
 944  1241.432
 945  1624.651
 946  2129.614
 947  2340.027
 948  2325.312
 949  2794.91
 950  2908.181
 951  2322.905
 952  2115.581
 953  2416.143
 954  2753.711
 955  2399.609
 956  2057.186
 957  2050.182
 958  1951.634
 959  1962.968
 960  2151.6
 961  2072.556
 962  2023.396
 963  1834.602
 964  1633.948
 965  1546.4
 966  1666.106
 967  1653.556
 968  1445.979
 969  1241.879
 970  1538.154
 971  1558.3
 972  1645.425
 973  1584.783
 974  1435.374
 975  1411.101
 976  1489.364
 977  1810.43
 978  1947.993
 979  1887.854
 980  1659.151
 981  1637.894
 982  1800.884
 983  1844.749
 984  1868.322
 985  1870.507
 986  1703.501
 987  1815.522
 988  1845.192
 989  2189.563
 990  2284.341
 991  2538.57
 992  2571.063
 993  2503.799
 994  2087.355
 995  2116.48
 996  2281.064
 997  2456.999
 998  2523.192
 999  1946.271
1000  1804.975
1001  1731.065
1002  1739.314
1003  1674.012
1004  1615.341
1005  1843.385
1006  2342.014
1007  2240.195
1008  2405.538
1009  2300.46
1010  2302.13
1011  2543.217
1012  2658.156
1013  2618.872
1014  2228.104
1015  1742.039
1016  1454.594
1017  1457.511
1018  1369.382
1019  1643.052
1020  1650.825
1021  1644.263
1022  1583.704
1023  1354.186
