# Input file       =  1195933010.124426_cleaned.dat
# Candidate        =  PSR_0332+5434
# Telescope        =  AR
# Epoch_topo       =  58085.817466717890
# Epoch_bary       =  N/A
# T_sample         =  0.002
# Data Folded      =  7340032
# Data Avg         =  0.309877354168358
# Data StdDev      =  4.74017642076172 
# Profile Bins     =  1024
# Profile Avg      =  2221.17852113594 
# Profile StdDev   =  401.322495357049 
# Reduced chi-sqr  =  0.810
# Prob(Noise)      <  1   (~0.0 sigma)
# P_topo (ms)      =  714.52343327107   +/- 7.27e-05
# P'_topo (s/s)    =  -0                +/- 3.84e-11
# P''_topo (s/s^2) =  0                 +/- 1.69e-14
# P_bary (ms)      =  N/A
# P'_bary (s/s)    =  N/A
# P''_bary (s/s^2) =  N/A
# P_orb (s)        =  N/A
# asin(i)/c (s)    =  N/A
# eccentricity     =  N/A
# w (rad)          =  N/A
# T_peri           =  N/A
######################################################
   0  2339.972
   1  2137.393
   2  2081.107
   3  1878.944
   4  1837.386
   5  1859.845
   6  1949.347
   7  1955.318
   8  1859.29
   9  1956.452
  10  1990.715
  11  2076.957
  12  2035.861
  13  2032.397
  14  2140.56
  15  2061.188
  16  2177.89
  17  2048.743
  18  2077.639
  19  2070.912
  20  2066.004
  21  1997.979
  22  1842.253
  23  1801.894
  24  1889.677
  25  2048.717
  26  2071.768
  27  2293.937
  28  2321.854
  29  2263.058
  30  2096.4
  31  1838.531
  32  1935.926
  33  1985.888
  34  2195.004
  35  2372.854
  36  2285.486
  37  2241.465
  38  2120.545
  39  2224.116
  40  2242.027
  41  2233.725
  42  2216.233
  43  2270.962
  44  2450.053
  45  2441.071
  46  2394.534
  47  2216.337
  48  2146.617
  49  1909.352
  50  1701.066
  51  1804.167
  52  1837.795
  53  2108.434
  54  2200.762
  55  2298.56
  56  2258.451
  57  2163.279
  58  2114.984
  59  1829.451
  60  1919.182
  61  1898.075
  62  1914.513
  63  1837.841
  64  1957.231
  65  2080.734
  66  2130.092
  67  2202.6
  68  2146.539
  69  2144.728
  70  1983.464
  71  1997.2
  72  1939.729
  73  1929.606
  74  1962.289
  75  1861.082
  76  1909.022
  77  1980.573
  78  2048.081
  79  2128.988
  80  2111.503
  81  2329.382
  82  2254.516
  83  2346.285
  84  2366.27
  85  2316.72
  86  2241.261
  87  2089.415
  88  2047.074
  89  1886.877
  90  1884.053
  91  1837.227
  92  2017.004
  93  2050.665
  94  2043.209
  95  2112.683
  96  2094.984
  97  2268.656
  98  2135.489
  99  2162.983
 100  2173.386
 101  2114.507
 102  2071.529
 103  2033.921
 104  2229.276
 105  2376.166
 106  2480.406
 107  2447.793
 108  2383.903
 109  2289.522
 110  2219.5
 111  2219.113
 112  2204.388
 113  2421.625
 114  2360.463
 115  2319.672
 116  2117.119
 117  2016.58
 118  2053.624
 119  2003.119
 120  2101.146
 121  2104.861
 122  2023.192
 123  2097.376
 124  2170.274
 125  2173.59
 126  2045.96
 127  1992.659
 128  1916.83
 129  2040.034
 130  1989.824
 131  2134.854
 132  2153.872
 133  2164.533
 134  2185.353
 135  2176.983
 136  2160.715
 137  2169.053
 138  2269.893
 139  2475.305
 140  2516.788
 141  2471.43
 142  2464.878
 143  2482.703
 144  2485.037
 145  2355.969
 146  2242.086
 147  2089.914
 148  2149.471
 149  2165.206
 150  2208.831
 151  2188.198
 152  2175.584
 153  2211.797
 154  2234.817
 155  2310.302
 156  2207.773
 157  2191.757
 158  2219.707
 159  2339.229
 160  2341.666
 161  2391.455
 162  2337.27
 163  2119.316
 164  2079.307
 165  2058.219
 166  2137.949
 167  2043.018
 168  2030.225
 169  1976.487
 170  2000.917
 171  2170.458
 172  2232.294
 173  2156.026
 174  1952.495
 175  2076.472
 176  2159.936
 177  2245.303
 178  2207.403
 179  2092.991
 180  2137.59
 181  2170.447
 182  2272.271
 183  2272.088
 184  2259.925
 185  2379.366
 186  2455.734
 187  2401.666
 188  2115.249
 189  1928.152
 190  1924.683
 191  2126.614
 192  2108.63
 193  1947.91
 194  1900.099
 195  1880.692
 196  2065.938
 197  2206.747
 198  2152.938
 199  2125.892
 200  2020.439
 201  2144.583
 202  2051.841
 203  1934.135
 204  1909.033
 205  1971.591
 206  1901.835
 207  1900.603
 208  1813.975
 209  1990.354
 210  2147.154
 211  2103.591
 212  2140.467
 213  2168.86
 214  2248.586
 215  2309.574
 216  2188.593
 217  2167.929
 218  2199.183
 219  2295.038
 220  2320.847
 221  2145.267
 222  2064.035
 223  2143.017
 224  2331.329
 225  2540.938
 226  2494.622
 227  2372.096
 228  2332.501
 229  2480.757
 230  2414.125
 231  2345.512
 232  2058.844
 233  1985.995
 234  1976.868
 235  2015.216
 236  2200.357
 237  2235.444
 238  2420.053
 239  2412.265
 240  2613.805
 241  2534.414
 242  2345.286
 243  2228.592
 244  2150.804
 245  2219.576
 246  2122.342
 247  2165.607
 248  2077.659
 249  2094.039
 250  2166.51
 251  2092.448
 252  2108.782
 253  2063.957
 254  2188.126
 255  2250.077
 256  2426.927
 257  2505.151
 258  2389.337
 259  2342.511
 260  2189.968
 261  2239.734
 262  2107.384
 263  2243.677
 264  2270.274
 265  2198.762
 266  2174.045
 267  2202.444
 268  2230.549
 269  2206.387
 270  2137.449
 271  2187.386
 272  2248.794
 273  2334.68
 274  2352.977
 275  2320.746
 276  2134.461
 277  2142.262
 278  2094.306
 279  2146.657
 280  2037.132
 281  1934.864
 282  1932.032
 283  2132.615
 284  2329.183
 285  2458.341
 286  2360.323
 287  2390.104
 288  2372.393
 289  2461.82
 290  2468.559
 291  2401.612
 292  2178.446
 293  2111.764
 294  2094.809
 295  2278.717
 296  2309.982
 297  2301.537
 298  2443.637
 299  2333.482
 300  2279.732
 301  2286.625
 302  2337.032
 303  2359.136
 304  2214.519
 305  2184.476
 306  2038.485
 307  1957.348
 308  1954.115
 309  1837.667
 310  1736.089
 311  1716.887
 312  1988.622
 313  1885.938
 314  1964.353
 315  1941.751
 316  2123.681
 317  2128.59
 318  1927.315
 319  1881.282
 320  1818.757
 321  1872.002
 322  1853.115
 323  1933.517
 324  2031.426
 325  1968.842
 326  1985.578
 327  1948.777
 328  2043.174
 329  2082.68
 330  2230.758
 331  2297.452
 332  2377.905
 333  2376.712
 334  2336.848
 335  2142.077
 336  1996.309
 337  1931.609
 338  2059.387
 339  2077.25
 340  2105.262
 341  1909.364
 342  2042.59
 343  2029.815
 344  2204.379
 345  2265.311
 346  2230.575
 347  2156.867
 348  2044.237
 349  2155.26
 350  2330.704
 351  2303.682
 352  2319.468
 353  2260.316
 354  2241.483
 355  2188.486
 356  2236.257
 357  2043.718
 358  2122.148
 359  2149.467
 360  2355.257
 361  2315.213
 362  2138.533
 363  2241.221
 364  2065.819
 365  2099.764
 366  1945.681
 367  2007.963
 368  2158.291
 369  2216.902
 370  2305.364
 371  2404.954
 372  2588.038
 373  2474.115
 374  2297.696
 375  2033.874
 376  2032.324
 377  1954.992
 378  2053.686
 379  2096.004
 380  2060.479
 381  2097.487
 382  2254.365
 383  2506.667
 384  2693.06
 385  2737.469
 386  2742.712
 387  2584.532
 388  2464.79
 389  2285.215
 390  2115.257
 391  2029.568
 392  2007.453
 393  2112.116
 394  2070.003
 395  2112.699
 396  1905.727
 397  2075.571
 398  2256.555
 399  2355.51
 400  2440.517
 401  2340.668
 402  2481
 403  2350.531
 404  2519.562
 405  2542.446
 406  2528.523
 407  2442.687
 408  2217.854
 409  2263.073
 410  2171.719
 411  2226.035
 412  2403.221
 413  2460.914
 414  2585.92
 415  2450.554
 416  2490.131
 417  2422.125
 418  2377.951
 419  2405.916
 420  2459.722
 421  2458.16
 422  2283.431
 423  1984.099
 424  1710.171
 425  1772.313
 426  1937.842
 427  2311.301
 428  2495.195
 429  2552.08
 430  2628.451
 431  2509.086
 432  2385.154
 433  2303.71
 434  2311.72
 435  2390.944
 436  2314.197
 437  2288.313
 438  2170.382
 439  2281.979
 440  2327.738
 441  2557.337
 442  2498.604
 443  2463.813
 444  2524.871
 445  2447.245
 446  2648.966
 447  2593.068
 448  2653.889
 449  2613.715
 450  2568.46
 451  2561.94
 452  2363.316
 453  2292.291
 454  2219.969
 455  2385.588
 456  2447.447
 457  2636.079
 458  2658.249
 459  2616.856
 460  2546.474
 461  2271.572
 462  2208.47
 463  2150.89
 464  2128.598
 465  2123.47
 466  1998.388
 467  2062.702
 468  1958.46
 469  2066.126
 470  2063.357
 471  2114.438
 472  2065.853
 473  2211.796
 474  2350.8
 475  2306.87
 476  2286.798
 477  2250.913
 478  2423.986
 479  2419.097
 480  2398.249
 481  2336.745
 482  2152.218
 483  2379.828
 484  2319.181
 485  2513.68
 486  2460.538
 487  2451.77
 488  2395.255
 489  2157.737
 490  2239.627
 491  2196.338
 492  2356.877
 493  2577.33
 494  2836.245
 495  2714.069
 496  2434.826
 497  2298.608
 498  2323.904
 499  2399.512
 500  2292.788
 501  2229.442
 502  2178.413
 503  2218.832
 504  2381.404
 505  2336.571
 506  2399.096
 507  2287.302
 508  2235.184
 509  2196.293
 510  2158.349
 511  2283.686
 512  2230.719
 513  2306.35
 514  2210.403
 515  2271.735
 516  2464.012
 517  2584.447
 518  2695.118
 519  2562.925
 520  2463.824
 521  2396.553
 522  2552.183
 523  2488.982
 524  2415.157
 525  2342.493
 526  2294.014
 527  2319.227
 528  2202.753
 529  2273.689
 530  2317.399
 531  2415.995
 532  2492.024
 533  2340.336
 534  2360.458
 535  2352.532
 536  2475.419
 537  2480.409
 538  2460.471
 539  2416.09
 540  2433.992
 541  2399.396
 542  2126.462
 543  2120.84
 544  2244.194
 545  2465.067
 546  2367.059
 547  2287.633
 548  2350.29
 549  2247.831
 550  2289.867
 551  2339.217
 552  2496.362
 553  2628.545
 554  2599.635
 555  2560.914
 556  2406.398
 557  2415.272
 558  2489.44
 559  2720.728
 560  2683.198
 561  2658.37
 562  2564.57
 563  2440.753
 564  2470.518
 565  2322.561
 566  2380.113
 567  2291.913
 568  2273.82
 569  2503.65
 570  2522.422
 571  2546.214
 572  2415.563
 573  2593.229
 574  2513.696
 575  2456.818
 576  2288.879
 577  2413.235
 578  2443.013
 579  2311.542
 580  2160.526
 581  2241.107
 582  2317.574
 583  2368.858
 584  2223.666
 585  2328.843
 586  2286.542
 587  2520.744
 588  2467.785
 589  2477.755
 590  2388.455
 591  2398.889
 592  2505.706
 593  2530.542
 594  2709.847
 595  2598.306
 596  2408.942
 597  2306.372
 598  2309.253
 599  2374.42
 600  2256.893
 601  2168.786
 602  2109.127
 603  2210.724
 604  2133.452
 605  2202.472
 606  2151.223
 607  2204.398
 608  2244.384
 609  2071.089
 610  2163.657
 611  2214.247
 612  2355.98
 613  2344.682
 614  2217.479
 615  2218.203
 616  2276.062
 617  2385.814
 618  2438.22
 619  2510.206
 620  2408.757
 621  2470.172
 622  2505.514
 623  2552.658
 624  2619.945
 625  2461.361
 626  2727.384
 627  2786.512
 628  2895.515
 629  2961.005
 630  2890.234
 631  3112.463
 632  2960.954
 633  2770.79
 634  2545.784
 635  2271.698
 636  2330.503
 637  2200.894
 638  2194.44
 639  2042.937
 640  2144.113
 641  2363.23
 642  2528.484
 643  2519.934
 644  2435.036
 645  2431.184
 646  2386.158
 647  2484.121
 648  2464.448
 649  2627.575
 650  2631.111
 651  2483.695
 652  2365.901
 653  2099.378
 654  2103.359
 655  2092.759
 656  2180.422
 657  2125.402
 658  2058.5
 659  2161.197
 660  2173.545
 661  2284.051
 662  2366.778
 663  2362.446
 664  2258.911
 665  2200.618
 666  2286.291
 667  2215.482
 668  2210.232
 669  2167.357
 670  2425.071
 671  2396.912
 672  2389.167
 673  2353.964
 674  2374.176
 675  2395.882
 676  2284.657
 677  2332.757
 678  2310.178
 679  2392.334
 680  2325.603
 681  2228.101
 682  2128.464
 683  2094.634
 684  2341.168
 685  2500.63
 686  2596.874
 687  2470.868
 688  2549.841
 689  2554.395
 690  2423.419
 691  2203.522
 692  2024.656
 693  2023.92
 694  2140.982
 695  2072.497
 696  2050.147
 697  1989.673
 698  2094.365
 699  2141.042
 700  2102.664
 701  2189.875
 702  2222.477
 703  2341.835
 704  2362.262
 705  2436.928
 706  2292.964
 707  2420.04
 708  2417.236
 709  2419.089
 710  2304.048
 711  2079.163
 712  2154.81
 713  2074.506
 714  2215.745
 715  2157.57
 716  2260.52
 717  2304.078
 718  2224.746
 719  2178.444
 720  2259.97
 721  2383.062
 722  2346.022
 723  2343.805
 724  2229.17
 725  2100.779
 726  2113.113
 727  2086.88
 728  2103.781
 729  2007.887
 730  2070.182
 731  2140.506
 732  2078.688
 733  2195.542
 734  2273.09
 735  2360.47
 736  2164.036
 737  2126.371
 738  2074.01
 739  1927.887
 740  1988.664
 741  2050.487
 742  2211.433
 743  2022.117
 744  2089.932
 745  2032.39
 746  2221.8
 747  2235.133
 748  2124.856
 749  2154.031
 750  2148.06
 751  2316.085
 752  2174.673
 753  2341.906
 754  2419.69
 755  2537.808
 756  2698.103
 757  2460.743
 758  2392.396
 759  2299.451
 760  2303.38
 761  2353.343
 762  2341.969
 763  2408.773
 764  2278.419
 765  2325.725
 766  2368.553
 767  2402.533
 768  2262.335
 769  2153.762
 770  2171.437
 771  2041.561
 772  2094.763
 773  2012.948
 774  2249.601
 775  2242.783
 776  2273.695
 777  2333.314
 778  2311.071
 779  2442.366
 780  2433.43
 781  2495.296
 782  2308.562
 783  2174.723
 784  2108.822
 785  1994.308
 786  1986.98
 787  1914.26
 788  2164.498
 789  2319.784
 790  2419.467
 791  2480.772
 792  2437.703
 793  2443.525
 794  2237.503
 795  2289.99
 796  2009.503
 797  1875.162
 798  1934.861
 799  2063.378
 800  2142.266
 801  2014.938
 802  2042.382
 803  2027.068
 804  2185.955
 805  2289.713
 806  2275.617
 807  2170.421
 808  2027.568
 809  2149.754
 810  1986.808
 811  2009.111
 812  1818.057
 813  1976.917
 814  2118.547
 815  2087.543
 816  2064.792
 817  2033.95
 818  2115.788
 819  2248.896
 820  2305.487
 821  2345.702
 822  2356.272
 823  2430.093
 824  2386.333
 825  2360.642
 826  2307.898
 827  2344.165
 828  2314.821
 829  2233.088
 830  2241.325
 831  2200.104
 832  2245.906
 833  2264.4
 834  2340.5
 835  2338.566
 836  2317.847
 837  2390.945
 838  2297.839
 839  2248.122
 840  2064.439
 841  2079.01
 842  2087.465
 843  2059.214
 844  2125.749
 845  2186.218
 846  2241.432
 847  2169.599
 848  2154.705
 849  2131.025
 850  2102.404
 851  2153.961
 852  2137.314
 853  2180.252
 854  2028.416
 855  2079.017
 856  2015.781
 857  2064.89
 858  2031.367
 859  1946.854
 860  2139.933
 861  2352.795
 862  2431.99
 863  2282.872
 864  2105.593
 865  2068.577
 866  2184.195
 867  2234.172
 868  2254.662
 869  2281.324
 870  2230.035
 871  2404.399
 872  2331.499
 873  2329.608
 874  2262.393
 875  2160.189
 876  2340.156
 877  2298.417
 878  2276.988
 879  2218.534
 880  2240.669
 881  2301.542
 882  2079.189
 883  1967.167
 884  1859.906
 885  1985.701
 886  1960.91
 887  2118.447
 888  2098.368
 889  2291.947
 890  2338.118
 891  2242.421
 892  2196.842
 893  2153.416
 894  2318.652
 895  2182.269
 896  2107.827
 897  2191.061
 898  2268.137
 899  2439.605
 900  2278.434
 901  2372.389
 902  2179.555
 903  2216.15
 904  2265.073
 905  2240.882
 906  2298.337
 907  2141.754
 908  2332.289
 909  2211.383
 910  2145.178
 911  2116.373
 912  2199.076
 913  2240.485
 914  2183.798
 915  2269.411
 916  2188.933
 917  2081.498
 918  2083.416
 919  2113.865
 920  2164.77
 921  2073.197
 922  2141.512
 923  2043.723
 924  1993.354
 925  1899.25
 926  1854.452
 927  1844.27
 928  1992.167
 929  2189.526
 930  2250.416
 931  2278.788
 932  2175.119
 933  2110.27
 934  2070.365
 935  2164.069
 936  2388.562
 937  2306.547
 938  2124.819
 939  1961.727
 940  1748.667
 941  1724
 942  1756.16
 943  1898.98
 944  1914.551
 945  1998.812
 946  1926.719
 947  1940.353
 948  1912.833
 949  2089.25
 950  2173.054
 951  2085.006
 952  2095.57
 953  1956.326
 954  1963.56
 955  1888.953
 956  1873.523
 957  1904.455
 958  1752.371
 959  1679.084
 960  1702.062
 961  1864.743
 962  2033.371
 963  2132.858
 964  2333.793
 965  2337.025
 966  2360.986
 967  2249.061
 968  2150
 969  1925.427
 970  1873.664
 971  1928.748
 972  1910.411
 973  2108.927
 974  2126.781
 975  2248.742
 976  2246.173
 977  2293.568
 978  2206.798
 979  1985.311
 980  2153.375
 981  2202.928
 982  2207.411
 983  2153.341
 984  2198.111
 985  2292.323
 986  2052.994
 987  2079.311
 988  2006.098
 989  2224.406
 990  2236.117
 991  2351.444
 992  2349.882
 993  2180.076
 994  2142.097
 995  1867.685
 996  1847.086
 997  1707.73
 998  1800.021
 999  1893.251
1000  2038.043
1001  2104.891
1002  2056.702
1003  2038.186
1004  1962.705
1005  2064.666
1006  2162.911
1007  2207.496
1008  2278.731
1009  2260.083
1010  2300.627
1011  2247.976
1012  2283.193
1013  2348.232
1014  2275.536
1015  2285.779
1016  2083.042
1017  2194.603
1018  2173.073
1019  2264.768
1020  2172.13
1021  2223.602
1022  2258.945
1023  2235.37
