# Input file       =  1195071474.114979_cleaned.dat
# Candidate        =  PSR_0332+5434
# Telescope        =  AR
# Epoch_topo       =  58075.845985127075
# Epoch_bary       =  N/A
# T_sample         =  0.002
# Data Folded      =  7340032
# Data Avg         =  1.62399742508777 
# Data StdDev      =  10.5667872550697 
# Profile Bins     =  1024
# Profile Avg      =  11640.9779588741 
# Profile StdDev   =  894.626919482922 
# Reduced chi-sqr  =  0.367
# Prob(Noise)      <  1   (~0.0 sigma)
# P_topo (ms)      =  714.513122147189  +/- 5.6e-05
# P'_topo (s/s)    =  -0                +/- 2.95e-11
# P''_topo (s/s^2) =  0                 +/- 1.3e-14
# P_bary (ms)      =  N/A
# P'_bary (s/s)    =  N/A
# P''_bary (s/s^2) =  N/A
# P_orb (s)        =  N/A
# asin(i)/c (s)    =  N/A
# eccentricity     =  N/A
# w (rad)          =  N/A
# T_peri           =  N/A
######################################################
   0  11705.52
   1  11856.29
   2  11805.65
   3  11510.7
   4  11472.73
   5  11850.72
   6  11693.72
   7  11732.09
   8  11893.04
   9  11743.65
  10  11607.95
  11  11485.42
  12  11285.71
  13  11460.32
  14  11492.34
  15  11563.1
  16  11751.95
  17  11967.27
  18  12163.3
  19  11997.09
  20  11631.49
  21  11792.87
  22  11570.1
  23  11780.07
  24  11638.52
  25  11793.37
  26  11807.51
  27  11730.96
  28  11607.31
  29  11754.77
  30  11553.45
  31  11538.86
  32  11213.99
  33  11015.29
  34  11012.38
  35  10838.83
  36  11145.67
  37  11359.44
  38  11587.87
  39  11662.26
  40  11268.64
  41  11285.61
  42  11290.42
  43  11322
  44  11362.74
  45  11412.29
  46  11432.84
  47  11649.01
  48  11600.03
  49  11652.68
  50  11695.1
  51  11540.44
  52  11649.02
  53  11422.71
  54  11475.45
  55  11445.58
  56  11331.38
  57  11799.62
  58  12012.17
  59  12091.42
  60  11702.16
  61  11180.2
  62  11128.71
  63  11450.64
  64  11620.02
  65  11689.36
  66  11578.42
  67  11746.68
  68  11750.54
  69  11431.5
  70  11329.95
  71  11439.34
  72  11696.25
  73  11996.1
  74  11822.11
  75  11940.27
  76  11994.51
  77  11777.56
  78  11670.24
  79  11654.89
  80  11634.04
  81  11577.61
  82  11346.87
  83  11537.94
  84  11718.27
  85  11695.1
  86  12133.9
  87  12040.07
  88  12231.19
  89  12221.13
  90  11854.73
  91  11827.6
  92  11582.38
  93  11467.25
  94  11642.7
  95  11523.15
  96  12034.18
  97  11985.08
  98  11554.32
  99  11553.27
 100  11465.9
 101  11890.1
 102  12001.34
 103  11865.67
 104  11873.46
 105  11692.92
 106  11613.74
 107  11598.59
 108  11473.57
 109  11475
 110  11581.76
 111  11690.83
 112  11683.4
 113  11774.05
 114  11752.55
 115  12385.82
 116  12176.19
 117  12216.63
 118  11743.73
 119  11522.83
 120  11439.03
 121  11231.86
 122  11467.75
 123  11505.03
 124  11507.93
 125  11456.4
 126  11154.33
 127  11102.89
 128  11471.13
 129  11553.02
 130  11737.65
 131  11197.65
 132  11247.17
 133  11413.92
 134  11401.46
 135  11427.68
 136  11456.3
 137  11447.89
 138  11746.9
 139  11586.71
 140  11618.16
 141  11584.45
 142  11653.15
 143  11834.15
 144  11980.86
 145  11929.69
 146  11882.93
 147  11342.65
 148  11597.92
 149  11884.57
 150  11879.82
 151  11652.51
 152  11496.92
 153  11927.04
 154  12254.9
 155  11650.14
 156  11580.13
 157  11690.23
 158  11792.74
 159  11710.05
 160  11309.41
 161  11281.35
 162  11251.69
 163  11131.2
 164  11611.1
 165  11744.97
 166  11964.29
 167  11979.81
 168  11602.47
 169  11718.97
 170  11415.9
 171  11382.21
 172  11833.11
 173  12136.29
 174  12277.15
 175  11929.83
 176  11307.88
 177  11136.74
 178  10907.13
 179  11217.12
 180  11459.29
 181  11361.83
 182  11408.67
 183  11398.95
 184  11223.09
 185  11169.22
 186  11158.45
 187  11277.92
 188  11384.1
 189  11155.31
 190  11175.41
 191  11238.28
 192  11210.69
 193  11409.12
 194  11326.65
 195  11545.45
 196  11341.41
 197  11087.44
 198  11432.64
 199  11746.59
 200  11858.87
 201  11593.72
 202  11464.02
 203  11599.84
 204  11357.9
 205  11358.88
 206  11371.92
 207  11128.68
 208  11446.22
 209  11631.47
 210  11608.55
 211  11512.82
 212  11451.08
 213  11765.84
 214  11755.43
 215  11529.8
 216  11220.71
 217  11014.24
 218  11166.55
 219  11468.9
 220  11244.75
 221  11287.38
 222  11369.32
 223  11136.55
 224  11152.94
 225  11185.91
 226  11616.43
 227  11583.48
 228  11124.53
 229  11368
 230  11747.52
 231  11989.45
 232  11877.42
 233  11291.68
 234  11316.15
 235  11355.68
 236  11459.07
 237  11745.11
 238  11808.45
 239  11748.76
 240  12022.21
 241  11903.73
 242  12242.88
 243  12251.96
 244  12338.13
 245  12234.44
 246  11680.76
 247  12027.23
 248  11977.78
 249  11890.51
 250  11867.62
 251  11896.04
 252  11660.31
 253  11778.61
 254  11571.59
 255  12068.48
 256  11589.08
 257  11326.79
 258  11522.77
 259  11694.75
 260  11953.54
 261  11818.9
 262  11347.48
 263  11324.56
 264  11202.31
 265  11489.49
 266  11474.28
 267  11464.2
 268  11701.99
 269  11814.91
 270  11583.34
 271  11909.33
 272  11780.16
 273  11768.09
 274  11571.91
 275  11486.83
 276  11464.5
 277  11344.38
 278  11413.55
 279  11848.64
 280  11913.25
 281  12083.67
 282  11882.77
 283  11820.03
 284  11925.03
 285  11771.75
 286  11581.83
 287  11604.69
 288  11797.69
 289  11972.6
 290  11800.44
 291  11666.27
 292  11617.67
 293  11365.46
 294  11514.63
 295  11687.08
 296  11899.64
 297  11817.6
 298  11422.54
 299  11195.42
 300  11340
 301  11262.37
 302  11501.64
 303  11522.69
 304  11765.65
 305  11754.18
 306  11456.18
 307  11451.49
 308  11691.41
 309  11965.69
 310  12227.5
 311  11814.08
 312  11781.44
 313  11645.24
 314  11525.34
 315  11763.59
 316  12033.22
 317  12060.13
 318  12171.94
 319  11789.67
 320  11829.39
 321  11588.05
 322  11662.16
 323  11906.82
 324  11840.29
 325  11778.93
 326  11853.94
 327  11770.07
 328  11739.11
 329  11662.35
 330  11562.17
 331  11953.06
 332  11703.17
 333  11650.06
 334  11428.66
 335  11199.27
 336  11592.62
 337  11617.39
 338  11575.38
 339  11440.2
 340  11267.56
 341  11636.29
 342  11656.97
 343  11464.36
 344  11574.27
 345  11597.07
 346  11933.84
 347  11853.59
 348  11286.86
 349  11359.35
 350  11362.47
 351  11286.31
 352  11241.58
 353  11137.44
 354  11552.94
 355  11368.81
 356  11200.79
 357  11366.81
 358  11360.86
 359  11322.23
 360  11314.2
 361  11579.35
 362  11885.68
 363  11764.23
 364  11575.24
 365  11946.71
 366  12014.44
 367  12144.5
 368  12087.68
 369  11937.06
 370  11920.14
 371  11762.58
 372  11907.48
 373  11886.55
 374  11634.54
 375  12069.6
 376  12187.88
 377  12223.84
 378  11908.53
 379  11676.8
 380  11690.89
 381  11504.25
 382  11345.34
 383  11454.92
 384  11251.83
 385  11344.83
 386  11398.39
 387  11396.47
 388  11259.31
 389  11102.39
 390  11170.2
 391  11623.56
 392  11471.77
 393  11576.07
 394  11543.83
 395  11601.62
 396  11559.84
 397  11366.65
 398  11486.37
 399  11633.15
 400  11301.83
 401  11462.24
 402  11419.67
 403  11319.63
 404  11521.18
 405  11362.36
 406  11713.46
 407  11338.84
 408  11091.59
 409  11468.1
 410  11606.24
 411  11551.12
 412  11182
 413  11041.65
 414  11539.34
 415  11607.41
 416  11818.24
 417  12075.81
 418  12159.68
 419  12277.53
 420  12171.28
 421  11688.04
 422  11637.28
 423  11488.32
 424  11679.28
 425  11555.5
 426  11166.71
 427  11349.38
 428  11332.16
 429  11457.08
 430  11773.75
 431  11838.34
 432  11999.05
 433  11929.02
 434  11661.51
 435  11659.15
 436  11479.78
 437  11556.18
 438  11631.62
 439  11201.44
 440  11550.53
 441  11639.75
 442  11805.79
 443  12015.35
 444  11794.79
 445  11731.63
 446  11590.69
 447  11629.16
 448  12017.4
 449  12083.36
 450  12177.9
 451  12002.95
 452  11819.31
 453  12130.4
 454  12003.86
 455  11662.81
 456  11391.76
 457  11267.93
 458  11317.39
 459  11383.2
 460  11571.74
 461  12117.01
 462  11843.7
 463  11479.09
 464  11384.02
 465  11735.51
 466  12095.3
 467  11846.41
 468  11605.85
 469  11512.96
 470  11388.95
 471  11370.29
 472  11723.04
 473  12169.95
 474  12730.38
 475  12554.95
 476  12302.35
 477  12032.95
 478  11693.83
 479  11789.13
 480  11645.9
 481  11679.06
 482  11740.68
 483  11604.38
 484  11507.98
 485  11400.55
 486  11403.57
 487  11940.12
 488  12184.28
 489  12284.65
 490  12300.19
 491  12068.75
 492  12034.14
 493  11824.91
 494  11447.84
 495  11322.71
 496  11297.63
 497  11614.65
 498  11605.09
 499  11304.26
 500  11303.33
 501  11428.08
 502  11483.95
 503  11523.34
 504  11569.27
 505  11876.59
 506  11983.7
 507  11611.72
 508  11980.12
 509  12235.23
 510  12090.77
 511  11774.96
 512  11437.75
 513  11824.62
 514  11694.67
 515  11502.36
 516  11512.93
 517  11420.98
 518  11431.37
 519  11776.52
 520  11835.2
 521  12043.05
 522  11929.57
 523  11948.44
 524  11953.06
 525  11700.24
 526  11790.01
 527  11767.89
 528  11645.64
 529  11543.76
 530  11539.29
 531  11677.92
 532  11720.26
 533  11656.39
 534  11664.16
 535  11710.34
 536  11533.85
 537  11974.37
 538  12007.72
 539  11959.5
 540  11613.61
 541  11260.69
 542  11433.79
 543  11335.56
 544  11562.38
 545  11561.27
 546  11326.59
 547  11527.71
 548  11589.4
 549  11777.2
 550  11925.75
 551  11936.55
 552  11711.62
 553  11677.25
 554  11650.31
 555  12052.03
 556  11628.9
 557  11637.59
 558  11654.61
 559  11658.2
 560  11785.78
 561  11599.44
 562  11617.64
 563  11761
 564  11803.68
 565  11962.53
 566  11896.51
 567  11676.4
 568  11704.07
 569  11400.55
 570  11378.78
 571  11333.65
 572  11366.79
 573  12062.7
 574  12400.48
 575  12276.43
 576  11989.72
 577  11534.59
 578  11856.03
 579  11865.69
 580  11791.01
 581  11798.93
 582  11782.62
 583  11842.42
 584  11527.94
 585  11277.89
 586  11624.51
 587  11939.27
 588  11733.12
 589  11774.8
 590  11695.25
 591  12150.24
 592  12080.92
 593  11596.43
 594  11799.06
 595  11740.04
 596  12039.43
 597  11806.32
 598  11283.54
 599  11278.97
 600  11599.44
 601  11651.59
 602  11761.17
 603  11429.77
 604  11765.93
 605  11787.96
 606  11443.37
 607  11413.51
 608  11362.69
 609  11454.3
 610  11573.78
 611  11622.85
 612  11843.9
 613  11595.75
 614  11209.52
 615  11324.11
 616  11610.81
 617  11649.12
 618  11779.95
 619  11522.18
 620  11810.47
 621  11760.25
 622  11669.26
 623  11958.6
 624  11740.12
 625  11826.25
 626  11744.86
 627  12111.68
 628  12374.07
 629  12352.73
 630  12472.66
 631  13006.58
 632  13120.54
 633  13029.36
 634  12293.55
 635  11896.83
 636  11782.14
 637  11473.69
 638  11367.73
 639  11418.26
 640  11711.21
 641  11555.82
 642  11401.78
 643  11577.24
 644  12236.83
 645  12019.64
 646  11915.09
 647  11721.14
 648  11817.31
 649  12053.51
 650  11846.52
 651  12010.58
 652  11877.73
 653  11793.44
 654  11854.51
 655  11435.67
 656  11308.19
 657  11208.5
 658  11117.03
 659  11503.24
 660  11756.38
 661  11984.86
 662  11831.86
 663  11229
 664  11822.5
 665  11952.51
 666  11857.34
 667  11697.97
 668  11745.59
 669  11800.86
 670  11414.23
 671  11103.78
 672  11292.9
 673  11712.61
 674  11748.42
 675  11977.68
 676  11643.84
 677  11681.2
 678  11649.37
 679  11365.17
 680  11710.09
 681  11482
 682  11438.16
 683  11068.72
 684  10713.16
 685  11177.16
 686  11609.9
 687  11844.43
 688  12127.88
 689  11909.95
 690  12120.2
 691  11956.95
 692  11793.08
 693  11792.58
 694  11759.57
 695  11686.24
 696  11671.41
 697  11490.03
 698  11800.45
 699  11882.15
 700  11737.85
 701  11992.24
 702  12152.49
 703  12283.61
 704  12223.25
 705  11937.02
 706  11946.75
 707  11832.77
 708  11743.28
 709  11986.97
 710  11836.79
 711  11874.71
 712  11638.06
 713  11454.12
 714  11769.14
 715  11646.47
 716  11751.6
 717  11898.24
 718  11889.83
 719  11953.38
 720  11705.67
 721  11721.79
 722  11837.53
 723  11583.62
 724  11696.95
 725  11945.26
 726  12266.51
 727  12319.74
 728  11659.22
 729  11346.75
 730  11540
 731  11522.67
 732  11747.37
 733  11578.06
 734  12011.65
 735  12039.39
 736  11905.93
 737  11817.04
 738  11797.54
 739  11832.12
 740  12056.68
 741  11849.45
 742  11774.16
 743  11726.36
 744  11657.27
 745  12170.97
 746  12126.57
 747  12001.12
 748  11790.98
 749  11527.6
 750  11772.73
 751  11637.11
 752  11522.74
 753  11550.31
 754  11631.06
 755  11889.06
 756  11979.89
 757  11478.65
 758  11565
 759  11620.2
 760  11708.94
 761  11698.91
 762  11420.17
 763  11406.31
 764  11295.84
 765  11091.82
 766  11540.33
 767  11774.55
 768  11964.15
 769  11700
 770  11101.16
 771  11214.2
 772  11535.01
 773  11598.21
 774  11967.73
 775  11783.93
 776  12149.88
 777  11736.66
 778  11406.36
 779  11340.5
 780  11555.03
 781  11645.72
 782  12018.08
 783  11782.77
 784  11898.86
 785  11490.24
 786  11207.48
 787  11234.86
 788  11102.68
 789  11398.12
 790  11284.24
 791  11045.54
 792  11207.95
 793  11273.56
 794  11303.24
 795  11483.67
 796  11695.14
 797  11863.5
 798  11634.48
 799  11328.06
 800  11568.18
 801  11469.44
 802  11586.31
 803  11530.17
 804  11614.42
 805  11914.75
 806  11681.65
 807  11737.07
 808  11636.18
 809  11841.72
 810  11889.6
 811  12013.46
 812  11924.14
 813  12253.3
 814  12233.96
 815  12202.36
 816  11892.99
 817  11599.65
 818  11326.39
 819  10979.25
 820  11007.93
 821  11283.81
 822  11040.14
 823  11312.33
 824  11316.38
 825  11454.65
 826  11261.14
 827  10782.42
 828  11012.51
 829  11421.19
 830  11595.55
 831  11738.79
 832  11535.19
 833  11376.42
 834  11406.55
 835  11259.09
 836  11437.56
 837  11418.95
 838  11379.22
 839  11480.34
 840  11232.37
 841  11376.3
 842  11717.18
 843  11628.9
 844  12016.19
 845  11917.33
 846  12098.08
 847  11962.71
 848  11678.45
 849  11689.1
 850  11474.43
 851  11124.39
 852  11298.76
 853  11247.43
 854  11407.59
 855  11344.27
 856  11088.01
 857  11445.66
 858  11669.13
 859  11820.57
 860  11610.77
 861  11558.47
 862  11799.62
 863  11871.65
 864  11618.93
 865  11794.79
 866  11458.82
 867  11251.54
 868  11032.84
 869  11081.18
 870  11438.06
 871  11542.89
 872  11665.62
 873  11928.29
 874  12135.44
 875  11993.14
 876  11754.62
 877  11385.79
 878  11728.18
 879  11627.31
 880  11807.97
 881  11831.71
 882  11741.22
 883  11566.94
 884  11459.47
 885  11334.6
 886  11466.41
 887  11370.49
 888  11312.11
 889  11460.98
 890  11375.16
 891  11481.49
 892  11246.48
 893  11278.42
 894  11521.89
 895  11433.46
 896  11434.39
 897  11678.28
 898  11711.61
 899  12024.37
 900  11446.6
 901  11627.14
 902  11800.87
 903  11841.49
 904  11929.51
 905  11686.47
 906  11910.12
 907  11707.21
 908  11602.75
 909  11838.07
 910  12170.89
 911  12123.65
 912  12402.17
 913  11954.08
 914  11778.33
 915  11451.88
 916  11344.87
 917  11605.97
 918  11688.27
 919  11846.01
 920  11964.41
 921  11590.62
 922  11884.98
 923  12068.36
 924  12048.88
 925  11972.17
 926  11610.82
 927  11721.4
 928  11475.98
 929  11195.27
 930  11684.23
 931  11847.42
 932  11816.17
 933  11692.73
 934  11337.67
 935  11787.25
 936  11870.85
 937  11742.54
 938  11835.41
 939  11590.41
 940  11621.37
 941  11384.3
 942  11300.84
 943  11555.68
 944  11211.52
 945  11188.42
 946  11305.99
 947  11629.72
 948  11833.26
 949  11550.89
 950  11280.05
 951  11356.45
 952  11477.25
 953  11584.05
 954  11708.34
 955  11447.76
 956  11454.68
 957  11120.84
 958  10831.59
 959  10900.75
 960  11080.3
 961  11415.67
 962  11259.44
 963  11265.69
 964  11400.46
 965  11147.8
 966  11430.19
 967  12005.17
 968  12325.47
 969  12362.62
 970  12074.12
 971  11640.83
 972  11424.17
 973  11084.03
 974  11499.83
 975  11597.23
 976  11633.86
 977  11648.75
 978  11472.15
 979  11479.9
 980  11466.51
 981  11466.02
 982  11545.92
 983  11658.52
 984  11702.56
 985  11752.12
 986  11277.57
 987  11533.12
 988  11690.01
 989  11600.83
 990  11388.56
 991  11135.47
 992  11364.37
 993  11338.28
 994  11358.87
 995  11574.47
 996  11753.3
 997  11500.64
 998  11561.53
 999  11201.17
1000  11260.89
1001  11318.9
1002  11458.45
1003  11997.44
1004  12028.07
1005  12232.29
1006  12074.7
1007  11469.05
1008  11279.44
1009  11247.88
1010  11297.71
1011  11313.18
1012  11286.82
1013  11649.41
1014  11523.12
1015  11327.29
1016  11771.03
1017  11835.33
1018  11641.38
1019  11511.08
1020  11288
1021  11737.72
1022  11686.53
1023  11605.17
