# Input file       =  1195000152.117789_cleaned.dat
# Candidate        =  PSR_0332+5434
# Telescope        =  AR
# Epoch_topo       =  58075.020499048485
# Epoch_bary       =  N/A
# T_sample         =  0.002
# Data Folded      =  7340032
# Data Avg         =  0.0904007039255173
# Data StdDev      =  1.00033941487739 
# Profile Bins     =  512
# Profile Avg      =  1295.74021562634 
# Profile StdDev   =  119.773675550628 
# Reduced chi-sqr  =  0.736
# Prob(Noise)      <  1   (~0.0 sigma)
# P_topo (ms)      =  714.512614704518  +/- 4.04e-05
# P'_topo (s/s)    =  -0                +/- 2.13e-11
# P''_topo (s/s^2) =  0                 +/- 9.4e-15
# P_bary (ms)      =  N/A
# P'_bary (s/s)    =  N/A
# P''_bary (s/s^2) =  N/A
# P_orb (s)        =  N/A
# asin(i)/c (s)    =  N/A
# eccentricity     =  N/A
# w (rad)          =  N/A
# T_peri           =  N/A
######################################################
   0  1281.234
   1  1348.241
   2  1370.146
   3  1336.557
   4  1360.943
   5  1281.672
   6  1283.467
   7  1329.37
   8  1359.6
   9  1332.537
  10  1276.178
  11  1292.252
  12  1329.226
  13  1308.393
  14  1244.706
  15  1309.323
  16  1199.418
  17  1143.964
  18  1281.856
  19  1289.476
  20  1349.23
  21  1362.226
  22  1429.296
  23  1346.32
  24  1266.415
  25  1234.921
  26  1326.33
  27  1329.028
  28  1348.733
  29  1332.422
  30  1351.555
  31  1284.595
  32  1238.509
  33  1260.798
  34  1265.915
  35  1290.788
  36  1313.822
  37  1362.479
  38  1373.602
  39  1258.63
  40  1251.014
  41  1226.035
  42  1276.224
  43  1308.405
  44  1287.924
  45  1247.954
  46  1261.252
  47  1242.409
  48  1162.06
  49  1130.285
  50  1252.311
  51  1323.869
  52  1254.859
  53  1170.793
  54  1207.74
  55  1123.456
  56  1144.06
  57  1282.741
  58  1271.417
  59  1196.165
  60  1178.311
  61  1294.696
  62  1353.955
  63  1180.525
  64  1104.913
  65  1138.219
  66  1115.268
  67  1106.86
  68  1127.553
  69  1233.284
  70  1264.896
  71  1285.323
  72  1397.865
  73  1296.797
  74  1265.243
  75  1322.965
  76  1365.913
  77  1276.797
  78  1296.096
  79  1357.627
  80  1339.323
  81  1314.333
  82  1384.82
  83  1378.899
  84  1287.833
  85  1285.256
  86  1393.371
  87  1281.909
  88  1187.957
  89  1251.442
  90  1282.03
  91  1226.229
  92  1267.842
  93  1368.424
  94  1275.18
  95  1225.055
  96  1287.345
  97  1207.987
  98  1192.031
  99  1230.48
 100  1254.882
 101  1195.052
 102  1205.573
 103  1369.144
 104  1356.126
 105  1169.682
 106  1214.143
 107  1248.966
 108  1194.142
 109  1186.623
 110  1151.299
 111  1241.67
 112  1360.413
 113  1381.188
 114  1254.711
 115  1198.379
 116  1137.042
 117  1143.051
 118  1291.097
 119  1345.057
 120  1205.517
 121  1211.802
 122  1237.292
 123  1278.051
 124  1189.775
 125  1229.696
 126  1261.511
 127  1120.861
 128  1104.749
 129  1274.997
 130  1353.107
 131  1276.336
 132  1210.638
 133  1280.559
 134  1235.19
 135  1210.518
 136  1297.363
 137  1351.846
 138  1253.743
 139  1229.185
 140  1248.651
 141  1176.43
 142  1135.481
 143  1217.221
 144  1286.712
 145  1342.241
 146  1242.216
 147  1266.535
 148  1288.564
 149  1298.22
 150  1350.263
 151  1290.371
 152  1293.155
 153  1283.356
 154  1309.987
 155  1308.839
 156  1167.437
 157  1221.189
 158  1237.693
 159  1162.39
 160  1204.071
 161  1326.241
 162  1375.969
 163  1370.881
 164  1401.868
 165  1296.637
 166  1276.199
 167  1307.298
 168  1381.68
 169  1300.226
 170  1245.306
 171  1274.246
 172  1292.921
 173  1287.683
 174  1365.592
 175  1355.023
 176  1399.202
 177  1322.092
 178  1288.38
 179  1289.983
 180  1320.937
 181  1326.443
 182  1350.209
 183  1365.021
 184  1344.02
 185  1295.528
 186  1288.597
 187  1261.757
 188  1285.054
 189  1221.831
 190  1316.089
 191  1352.917
 192  1333.866
 193  1254.716
 194  1234.21
 195  1233.819
 196  1331.275
 197  1307.393
 198  1231.821
 199  1187.942
 200  1218.638
 201  1233.58
 202  1239.917
 203  1243.732
 204  1289.682
 205  1260.516
 206  1161.198
 207  1233.923
 208  1246.204
 209  1212.314
 210  1187.08
 211  1310.229
 212  1292.791
 213  1248.97
 214  1129.949
 215  1293.721
 216  1326.811
 217  1374.766
 218  1271.272
 219  1287.932
 220  1225.026
 221  1235.666
 222  1250
 223  1196.965
 224  1299.525
 225  1295.071
 226  1401.887
 227  1315.307
 228  1235.158
 229  1351.968
 230  1284.505
 231  1184.974
 232  1288.589
 233  1402.342
 234  1377.49
 235  1264.908
 236  1236.259
 237  1386.085
 238  1270.573
 239  1311.832
 240  1279.205
 241  1250.431
 242  1234.121
 243  1301.954
 244  1339.859
 245  1380.268
 246  1373.508
 247  1370.978
 248  1385.981
 249  1358.158
 250  1381.134
 251  1324.563
 252  1269.553
 253  1265.843
 254  1320.356
 255  1318.489
 256  1322.951
 257  1224.474
 258  1201.233
 259  1177.667
 260  1173.661
 261  1310.079
 262  1302.313
 263  1233.845
 264  1277.391
 265  1317.341
 266  1228.898
 267  1218.731
 268  1328.024
 269  1373.357
 270  1180.047
 271  1071.899
 272  1239.42
 273  1252.926
 274  1115.532
 275  1162.426
 276  1262.778
 277  1218.532
 278  1184.676
 279  1214.315
 280  1345.561
 281  1350.881
 282  1280.21
 283  1352.634
 284  1324.609
 285  1274
 286  1182.206
 287  1208.759
 288  1285.875
 289  1390.214
 290  1341.467
 291  1321.879
 292  1264.85
 293  1249.451
 294  1266.112
 295  1287.244
 296  1249.017
 297  1390.526
 298  1314.175
 299  1246.827
 300  1167.952
 301  1251.456
 302  1235.203
 303  1177.312
 304  1239.413
 305  1469.664
 306  1384.571
 307  1310.474
 308  1339.426
 309  1311.576
 310  1286.039
 311  1265.826
 312  1349.691
 313  1433.097
 314  1400.941
 315  1335.2
 316  1298.289
 317  1305.28
 318  1425.696
 319  1494.897
 320  1507.858
 321  1558.361
 322  1415.393
 323  1388.621
 324  1321.661
 325  1283.221
 326  1337.585
 327  1307.6
 328  1257.65
 329  1228.72
 330  1252.52
 331  1298.371
 332  1291.096
 333  1245.298
 334  1338.412
 335  1332.74
 336  1422.748
 337  1361.29
 338  1356.677
 339  1367.699
 340  1323.052
 341  1255.92
 342  1181.893
 343  1201.331
 344  1344.344
 345  1322.158
 346  1254.42
 347  1273.946
 348  1395.029
 349  1327.35
 350  1325.873
 351  1296.999
 352  1237.575
 353  1284.217
 354  1319.815
 355  1401.747
 356  1288.634
 357  1231.598
 358  1410.979
 359  1285.225
 360  1273.117
 361  1283.452
 362  1352.698
 363  1361.238
 364  1284.955
 365  1345.374
 366  1325.543
 367  1229.959
 368  1270.297
 369  1343.952
 370  1308.005
 371  1267.58
 372  1236.286
 373  1377.442
 374  1376.979
 375  1364.763
 376  1398.996
 377  1345.757
 378  1270.616
 379  1350.269
 380  1308.6
 381  1348.243
 382  1328.2
 383  1414.96
 384  1347.53
 385  1277.365
 386  1314.467
 387  1402.694
 388  1283.523
 389  1220.942
 390  1287.423
 391  1226.892
 392  1263.265
 393  1215.745
 394  1282.766
 395  1285.282
 396  1279.195
 397  1270.007
 398  1340.434
 399  1270.634
 400  1314.769
 401  1363.907
 402  1330.136
 403  1375.321
 404  1327.319
 405  1410.95
 406  1454.163
 407  1403.026
 408  1412.545
 409  1374.308
 410  1329.613
 411  1304.435
 412  1336.461
 413  1324.04
 414  1204.802
 415  1240.693
 416  1362.941
 417  1392.441
 418  1408.534
 419  1457.807
 420  1382.081
 421  1322.106
 422  1334.902
 423  1419.173
 424  1424.123
 425  1312.677
 426  1383.506
 427  1395.145
 428  1305.835
 429  1292.917
 430  1339.808
 431  1367.943
 432  1326.272
 433  1421.072
 434  1391.649
 435  1293.544
 436  1316.585
 437  1406.074
 438  1379.654
 439  1296.942
 440  1438.462
 441  1507.252
 442  1426.079
 443  1329.779
 444  1278.331
 445  1321.646
 446  1300.419
 447  1270.574
 448  1333.736
 449  1313.694
 450  1291.448
 451  1239.107
 452  1326.353
 453  1272.87
 454  1280.881
 455  1399.885
 456  1424.742
 457  1339.912
 458  1456.004
 459  1437.869
 460  1353.286
 461  1426.301
 462  1476.176
 463  1487.061
 464  1396.364
 465  1300.229
 466  1287.2
 467  1285.921
 468  1289.468
 469  1423.438
 470  1357.845
 471  1311.45
 472  1326.298
 473  1327.043
 474  1276.523
 475  1205.098
 476  1271.169
 477  1230.17
 478  1173.924
 479  1228.364
 480  1270.012
 481  1217.9
 482  1151.931
 483  1326.022
 484  1425.843
 485  1287.554
 486  1278.864
 487  1296.232
 488  1261.147
 489  1357.481
 490  1410.778
 491  1447.87
 492  1387.799
 493  1234.38
 494  1234.135
 495  1291.778
 496  1267.31
 497  1314.32
 498  1293.181
 499  1296.054
 500  1322.668
 501  1431.256
 502  1375.986
 503  1353.741
 504  1343.969
 505  1290.949
 506  1280.858
 507  1215.072
 508  1304.793
 509  1362.566
 510  1353.318
 511  1287.922
