# Input file       =  1195933010.124426_cleaned.dat
# Candidate        =  PSR_0332+5434
# Telescope        =  AR
# Epoch_topo       =  58085.817466717890
# Epoch_bary       =  N/A
# T_sample         =  0.002
# Data Folded      =  7340032
# Data Avg         =  0.0628604553297839
# Data StdDev      =  1.00007101163321 
# Profile Bins     =  512
# Profile Avg      =  901.154745004683 
# Profile StdDev   =  119.741538815228 
# Reduced chi-sqr  =  0.943
# Prob(Noise)      <  0.817   (~0.0 sigma)
# P_topo (ms)      =  714.52343327107   +/- 8.6e-05
# P'_topo (s/s)    =  -0                +/- 4.54e-11
# P''_topo (s/s^2) =  0                 +/- 2e-14
# P_bary (ms)      =  N/A
# P'_bary (s/s)    =  N/A
# P''_bary (s/s^2) =  N/A
# P_orb (s)        =  N/A
# asin(i)/c (s)    =  N/A
# eccentricity     =  N/A
# w (rad)          =  N/A
# T_peri           =  N/A
######################################################
   0  1044.654
   1  946.1223
   2  807.9332
   3  836.9313
   4  857.3994
   5  881.9203
   6  1082.278
   7  1146.63
   8  1007.327
   9  862.7902
  10  855.0703
  11  892.59
  12  802.7546
  13  858.4703
  14  956.8416
  15  976.3884
  16  1030.556
  17  1066.505
  18  976.2611
  19  946.5129
  20  982.0296
  21  1070.933
  22  1005.889
  23  999.2527
  24  1033.984
  25  958.9901
  26  650.5854
  27  737.282
  28  989.6592
  29  1043.155
  30  982.3977
  31  940.8084
  32  947.8666
  33  890.515
  34  939.8138
  35  992.2219
  36  1011.55
  37  999.7267
  38  1033.673
  39  1018.923
  40  979.8648
  41  882.066
  42  975.7485
  43  1075.689
  44  1018.655
  45  884.1303
  46  856.4547
  47  847.2823
  48  811.0339
  49  800.0107
  50  830.7178
  51  954.3217
  52  923.4595
  53  957.3543
  54  952.7253
  55  891.5546
  56  898.8644
  57  998.9636
  58  976.3545
  59  882.766
  60  991.4374
  61  1152.578
  62  994.7405
  63  922.9047
  64  970.8104
  65  914.2259
  66  973.5238
  67  1019.344
  68  940.4203
  69  892.7325
  70  925.0912
  71  954.1396
  72  976.7411
  73  1024.234
  74  957.4765
  75  988.104
  76  991.916
  77  928.1357
  78  901.2767
  79  911.8937
  80  933.6688
  81  880.3785
  82  946.8442
  83  974.4739
  84  970.5613
  85  896.5993
  86  905.5266
  87  921.3934
  88  878.1862
  89  916.015
  90  1029.899
  91  1085.452
  92  1002.816
  93  989.6711
  94  1097.268
  95  1045.429
  96  1003.444
  97  946.698
  98  917.8249
  99  992.9971
 100  990.7889
 101  1008.427
 102  888.9719
 103  954.8563
 104  890.9804
 105  961.9023
 106  943.6136
 107  984.7928
 108  1051.672
 109  970.6177
 110  995.5483
 111  1108.878
 112  986.2231
 113  904.9138
 114  890.835
 115  821.8945
 116  863.9105
 117  873.103
 118  870.8566
 119  819.5611
 120  913.9569
 121  899.963
 122  918.6231
 123  996.0562
 124  964.5341
 125  994.6381
 126  1063.876
 127  1130.545
 128  1226.372
 129  1252.808
 130  1278.628
 131  1028.523
 132  898.5001
 133  880.7405
 134  825.2492
 135  1012.718
 136  1006.052
 137  944.3539
 138  978.6634
 139  1072.148
 140  964.5743
 141  859.3281
 142  919.976
 143  903.0311
 144  901.6417
 145  952.1588
 146  923.6929
 147  927.8812
 148  894.6604
 149  937.7639
 150  980.7656
 151  964.0865
 152  936.1104
 153  940.0005
 154  956.4612
 155  861.1197
 156  937.5149
 157  1021.444
 158  1032.936
 159  1006.921
 160  811.8023
 161  849.5631
 162  855.6976
 163  870.2854
 164  865.5895
 165  900.8371
 166  946.9498
 167  933.7553
 168  972.127
 169  929.1229
 170  845.4293
 171  866.9266
 172  918.1877
 173  893.7945
 174  890.0001
 175  957.9208
 176  915.371
 177  852.4808
 178  835.5851
 179  828.9998
 180  836.8384
 181  900.3904
 182  924.5349
 183  822.4044
 184  771.0443
 185  857.2355
 186  813.9092
 187  861.912
 188  829.8827
 189  843.1672
 190  891.5589
 191  968.5797
 192  1074.827
 193  984.6766
 194  951.4889
 195  937.7413
 196  916.5354
 197  968.735
 198  942.4062
 199  888.1512
 200  853.5507
 201  894.856
 202  904.4865
 203  914.8477
 204  991.7332
 205  943.9583
 206  821.5779
 207  796.7904
 208  897.5103
 209  994.5822
 210  1037.122
 211  975.457
 212  870.7006
 213  761.2371
 214  852.0777
 215  826.3402
 216  870.038
 217  894.6472
 218  790.196
 219  804.8779
 220  749.947
 221  837.3807
 222  872.2785
 223  862.3691
 224  884.9526
 225  948.0927
 226  1008.969
 227  982.5274
 228  946.3697
 229  926.9584
 230  898.415
 231  940.4277
 232  976.6418
 233  956.1594
 234  871.0135
 235  842.8058
 236  907.2555
 237  952.0511
 238  912.2925
 239  858.9171
 240  854.6475
 241  806.8108
 242  787.0202
 243  795.6016
 244  857.5009
 245  972.1509
 246  837.2987
 247  842.6896
 248  903.7869
 249  926.9338
 250  958.7485
 251  907.0235
 252  902.5777
 253  902.8521
 254  880.2657
 255  853.7549
 256  761.545
 257  804.687
 258  882.8189
 259  977.0557
 260  922.3575
 261  945.6266
 262  857.4705
 263  906.5476
 264  948.2949
 265  919.5598
 266  899.3657
 267  912.1644
 268  909.9296
 269  852.1625
 270  875.113
 271  884.7585
 272  905.2155
 273  863.3675
 274  881.7233
 275  883.9252
 276  821.7263
 277  777.4333
 278  813.7825
 279  928.4362
 280  908.8433
 281  889.6916
 282  953.4619
 283  892.3066
 284  711.0731
 285  695.4142
 286  775.3663
 287  799.0615
 288  800.1149
 289  853.9813
 290  816.4244
 291  771.7701
 292  768.0167
 293  709.1553
 294  695.4465
 295  799.5359
 296  917.0009
 297  946.9058
 298  870.4335
 299  740.2108
 300  782.8199
 301  876.9579
 302  889.7587
 303  896.5208
 304  844.5856
 305  850.2065
 306  860.6834
 307  874.6973
 308  851.5648
 309  942.8973
 310  934.6359
 311  870.6037
 312  696.0186
 313  680.0326
 314  801.5937
 315  907.1365
 316  828.0685
 317  859.7598
 318  920.5648
 319  919.5662
 320  908.3047
 321  876.5549
 322  840.3536
 323  889.8243
 324  883.0686
 325  896.6528
 326  883.1095
 327  807.9624
 328  732.1439
 329  783.2062
 330  794.6663
 331  791.1908
 332  826.466
 333  821.6437
 334  806.8215
 335  838.4108
 336  842.9429
 337  758.0248
 338  723.1918
 339  801.2241
 340  924.2811
 341  825.4781
 342  731.6029
 343  900.3942
 344  1009.999
 345  915.8571
 346  945.9698
 347  892.2395
 348  965.0203
 349  959.2495
 350  911.9707
 351  766.3108
 352  776.3857
 353  921.4615
 354  962.5546
 355  856.2657
 356  779.2094
 357  790.3425
 358  768.7673
 359  832.7094
 360  838.9941
 361  825.286
 362  769.5829
 363  792.6185
 364  776.3661
 365  867.5306
 366  880.4507
 367  931.9285
 368  969.5204
 369  928.7681
 370  812.2747
 371  749.7642
 372  813.7422
 373  867.9492
 374  875.3438
 375  912.5903
 376  907.2601
 377  848.8965
 378  904.6935
 379  1018.055
 380  992.4089
 381  903.3462
 382  903.1426
 383  987.6554
 384  865.5823
 385  817.5854
 386  862.3824
 387  882.6364
 388  915.3709
 389  866.5198
 390  801.1992
 391  815.0509
 392  890.9861
 393  892.989
 394  920.6251
 395  925.0248
 396  1000.482
 397  944.256
 398  957.1266
 399  895.4406
 400  863.9394
 401  935.1835
 402  923.3631
 403  890.2341
 404  890.9759
 405  887.2987
 406  960.8389
 407  940.3234
 408  910.3438
 409  885.6288
 410  832.1617
 411  823.3029
 412  913.4313
 413  814.0304
 414  883.1564
 415  925.916
 416  872.2454
 417  953.9022
 418  966.6797
 419  998.1149
 420  862.9246
 421  788.0422
 422  854.3564
 423  790.1107
 424  829.8929
 425  898.8874
 426  838.5519
 427  826.2454
 428  764.6331
 429  784.3154
 430  756.8038
 431  850.4191
 432  837.6782
 433  899.0427
 434  929.1661
 435  890.7794
 436  959.9501
 437  866.1248
 438  948.9354
 439  993.9302
 440  962.6129
 441  1017.789
 442  871.5334
 443  795.6997
 444  886.7619
 445  1014.65
 446  1080.306
 447  973.711
 448  873.067
 449  897.2474
 450  843.7798
 451  869.0079
 452  854.8568
 453  887.4884
 454  983.3002
 455  1013.062
 456  911.8788
 457  891.7983
 458  928.3057
 459  899.877
 460  906.976
 461  880.9991
 462  938.4203
 463  960.0577
 464  884.964
 465  839.7247
 466  830.2501
 467  786.8291
 468  955.2475
 469  1006.48
 470  976.3413
 471  1012.307
 472  916.4143
 473  839.7394
 474  929.3527
 475  994.7382
 476  941.8373
 477  965.0157
 478  915.4304
 479  847.2288
 480  818.5695
 481  694.7623
 482  747.1011
 483  757.3824
 484  825.5164
 485  796.1519
 486  709.2662
 487  750.7065
 488  833.1289
 489  802.6296
 490  836.0411
 491  892.5687
 492  950.5362
 493  920.5149
 494  814.1699
 495  850.6859
 496  852.5268
 497  809.5726
 498  855.289
 499  888.3711
 500  851.3982
 501  930.6817
 502  970.9642
 503  954.3109
 504  920.4222
 505  833.4963
 506  905.0184
 507  890.1928
 508  838.5156
 509  779.5802
 510  804.0923
 511  898.9441
