# Input file       =  1195329842.107446_cleaned.dat
# Candidate        =  PSR_0332+5434
# Telescope        =  AR
# Epoch_topo       =  58078.836355410254
# Epoch_bary       =  N/A
# T_sample         =  0.002
# Data Folded      =  7340032
# Data Avg         =  0.450356132396596
# Data StdDev      =  6.28268457902384 
# Profile Bins     =  512
# Profile Avg      =  6454.62188785225 
# Profile StdDev   =  752.244901244009 
# Reduced chi-sqr  =  0.499
# Prob(Noise)      <  1   (~0.0 sigma)
# P_topo (ms)      =  714.516200702796  +/- 4.92e-05
# P'_topo (s/s)    =  -0                +/- 2.6e-11
# P''_topo (s/s^2) =  0                 +/- 1.15e-14
# P_bary (ms)      =  N/A
# P'_bary (s/s)    =  N/A
# P''_bary (s/s^2) =  N/A
# P_orb (s)        =  N/A
# asin(i)/c (s)    =  N/A
# eccentricity     =  N/A
# w (rad)          =  N/A
# T_peri           =  N/A
######################################################
   0  6264.217
   1  7144.46
   2  7050.765
   3  6864.818
   4  6711.418
   5  6891.889
   6  6451.612
   7  6274.215
   8  6241.275
   9  6547.943
  10  6137.617
  11  6230.413
  12  6407.91
  13  6227.536
  14  5668.892
  15  6117.297
  16  5703.086
  17  6193.774
  18  6177.053
  19  6933.975
  20  6373.178
  21  6176.836
  22  6155.123
  23  6911.365
  24  6671.266
  25  6536.77
  26  6290.291
  27  6370.974
  28  6427.757
  29  6971.154
  30  6443.827
  31  6234.252
  32  6504.966
  33  6900.052
  34  6619.53
  35  6202.824
  36  6350.854
  37  6514.708
  38  6323.771
  39  6297.039
  40  6379.623
  41  6090.346
  42  6461.917
  43  6216.026
  44  6802.608
  45  6321.164
  46  6514.419
  47  6968.997
  48  6910.281
  49  6098.92
  50  6564.708
  51  6958.016
  52  6952.975
  53  6593.275
  54  6599.096
  55  6192.896
  56  6173.949
  57  6078.791
  58  6251.038
  59  6511.467
  60  6156.418
  61  5992.271
  62  6351.229
  63  6170.24
  64  6075.5
  65  5677.474
  66  6175.961
  67  6319.403
  68  6118.497
  69  6171.447
  70  6641.767
  71  6061.417
  72  5991.32
  73  6069.564
  74  6249.508
  75  6540.765
  76  6526.912
  77  6153.436
  78  6198.806
  79  6424.637
  80  6906.482
  81  7074.815
  82  6174.356
  83  6560.047
  84  6257.172
  85  6057.674
  86  6074.142
  87  6306.791
  88  5740.468
  89  6059.493
  90  6252.761
  91  6199.195
  92  5750.826
  93  5611.777
  94  5755.579
  95  6175.96
  96  6156.613
  97  5915.05
  98  5871.755
  99  5815.392
 100  5614.157
 101  6099.779
 102  6152.093
 103  5971.814
 104  6069.075
 105  6872.201
 106  6221.039
 107  6255.884
 108  6794.83
 109  6810.127
 110  6590.78
 111  6378.228
 112  6785.327
 113  6058.485
 114  5547.293
 115  5926.583
 116  5727.824
 117  5845.625
 118  6670.213
 119  6770.188
 120  6511.448
 121  5851.249
 122  6272.191
 123  6828.729
 124  7069.135
 125  6491.951
 126  6647.023
 127  6472.718
 128  6695.78
 129  6702.503
 130  6553.462
 131  6148.491
 132  6489.252
 133  6844.621
 134  7314.484
 135  6478.806
 136  6839.862
 137  7160.139
 138  7177.278
 139  6636.514
 140  6121.624
 141  6291.909
 142  6600.743
 143  6665.389
 144  7184.488
 145  7292.064
 146  6771.111
 147  6722.288
 148  7383.509
 149  6172.16
 150  5834.958
 151  6121.443
 152  6254.274
 153  6488.281
 154  6362.32
 155  6543.356
 156  6526.373
 157  6264.206
 158  6729.677
 159  6835.475
 160  6501.243
 161  6431.208
 162  6879.051
 163  6694.315
 164  6456.316
 165  6684.999
 166  7193.614
 167  6754.457
 168  6701.202
 169  6979.958
 170  6470.03
 171  6452.747
 172  7125.343
 173  7350.42
 174  6617.142
 175  6615.826
 176  6844.502
 177  6809.911
 178  6887.613
 179  6964.492
 180  7076.612
 181  7091.259
 182  6274.949
 183  6405.232
 184  6302.14
 185  6163.1
 186  6197.409
 187  6375.787
 188  6286.325
 189  6451.717
 190  6652.289
 191  6839.208
 192  6474.583
 193  6539.293
 194  6986.137
 195  7104.037
 196  6473.278
 197  6321.17
 198  6391.64
 199  6365.921
 200  6816.085
 201  6822.075
 202  6694.74
 203  6208.233
 204  6355.363
 205  6559.918
 206  6075.838
 207  5644.296
 208  5987.687
 209  6489.498
 210  6528.717
 211  6270.535
 212  6048.979
 213  6327.23
 214  6188.1
 215  6103.494
 216  6807.436
 217  6462.424
 218  6465.289
 219  6242.7
 220  6665.67
 221  6086.181
 222  6358.383
 223  6666.662
 224  6800.696
 225  6424.982
 226  6222.953
 227  6368.046
 228  6480.375
 229  6206.041
 230  6848.181
 231  6715.695
 232  6563.461
 233  6177.073
 234  6166.215
 235  6328.328
 236  6382.389
 237  6208.922
 238  6943.229
 239  6905.444
 240  6767.214
 241  6454.035
 242  6294.124
 243  6663.479
 244  6939.955
 245  6198.396
 246  6512.837
 247  6952.754
 248  6826.465
 249  6896.996
 250  6620.092
 251  6895.022
 252  6502.778
 253  6546.848
 254  6530.52
 255  6671.629
 256  6104.771
 257  6349.831
 258  6407.887
 259  6563.665
 260  5998.656
 261  6502.369
 262  6859.607
 263  6385.234
 264  5583.988
 265  6205.442
 266  6695.989
 267  6752.048
 268  6197.473
 269  6331.533
 270  6198.417
 271  6188.902
 272  6609.467
 273  7250.014
 274  6380.584
 275  6266.082
 276  6858.067
 277  7314.239
 278  6602.915
 279  6724.448
 280  6729.607
 281  6558.992
 282  6087.527
 283  5988.066
 284  5942.65
 285  5483.81
 286  6096.277
 287  6322.085
 288  6260.443
 289  5803.616
 290  6457.365
 291  7222.536
 292  6693.389
 293  6321.702
 294  6510.163
 295  6601.106
 296  6769.67
 297  6456.281
 298  6508.806
 299  5752.353
 300  6090.393
 301  6167.686
 302  6614.928
 303  6242.277
 304  6817.589
 305  6825.359
 306  6818.417
 307  6270.284
 308  6024.95
 309  6511.988
 310  6917.237
 311  6770.103
 312  6912.977
 313  7401.955
 314  8023.051
 315  7972.518
 316  7990.718
 317  7136.269
 318  6890.482
 319  6853.102
 320  6819.434
 321  5943.507
 322  5502.554
 323  5912.824
 324  6470.027
 325  6335.058
 326  6439.241
 327  6765.555
 328  6728.137
 329  6591.489
 330  7003.827
 331  7020.803
 332  6986.579
 333  7329.174
 334  7209.931
 335  6759.068
 336  6184.393
 337  6646.853
 338  6641.254
 339  6714.883
 340  6338.518
 341  6691.667
 342  6962.229
 343  6541.441
 344  6276.055
 345  6666.413
 346  6065.906
 347  6695.384
 348  6478.446
 349  6470.644
 350  5732.28
 351  5680.964
 352  6232.804
 353  6636.596
 354  6151.098
 355  6226.348
 356  5914.714
 357  6140.462
 358  5755.873
 359  6232.938
 360  6256.161
 361  6659.913
 362  6909.109
 363  7087.115
 364  6531.571
 365  6065.292
 366  6435.227
 367  6773.961
 368  6716.649
 369  5976.792
 370  6000.29
 371  6238.488
 372  6463.23
 373  6727.189
 374  6634.002
 375  6528.323
 376  6613.015
 377  7041.31
 378  6810.521
 379  6005
 380  6328.73
 381  6114.643
 382  6464.399
 383  6549.796
 384  6069.794
 385  6098.444
 386  6507.509
 387  6782.421
 388  7391.573
 389  6519.058
 390  6451.143
 391  6749.106
 392  7072.177
 393  6164
 394  6189.266
 395  6228.596
 396  6481.336
 397  6422.473
 398  6861.537
 399  6428.949
 400  5708.409
 401  6041.798
 402  6776.716
 403  6506.067
 404  6317.684
 405  6534.276
 406  6823.149
 407  6174.405
 408  5919.288
 409  6218.743
 410  6590.812
 411  6861.582
 412  6566.004
 413  6277.805
 414  6322.852
 415  6345.984
 416  6613.144
 417  6082.771
 418  6220.188
 419  6948.085
 420  7165.47
 421  7293.237
 422  6840.795
 423  6766.873
 424  6434.973
 425  6437.364
 426  6654.83
 427  6831.034
 428  6161.8
 429  6541.711
 430  6521.469
 431  6607.25
 432  6040.669
 433  6423.367
 434  6701.188
 435  6824.966
 436  6545.739
 437  6078.286
 438  6365.447
 439  6244.915
 440  6562.064
 441  6857.107
 442  6509.186
 443  6246.053
 444  6371.549
 445  6644.021
 446  6554.097
 447  6541.541
 448  6356.619
 449  6484.997
 450  6140.168
 451  5916.921
 452  6474.35
 453  6828.848
 454  5980.325
 455  6146.849
 456  6202.876
 457  6354.97
 458  6341.063
 459  6441.535
 460  6160.414
 461  6077.396
 462  6262.585
 463  6635.011
 464  6422.979
 465  5773.52
 466  5948.417
 467  5897.411
 468  5923.749
 469  6030.441
 470  6704.546
 471  6707.362
 472  6431.081
 473  6331.812
 474  6465.07
 475  6121.572
 476  6334.405
 477  6773.778
 478  6826.511
 479  6620.232
 480  6658.511
 481  6685.108
 482  6131.655
 483  5778.086
 484  5909.774
 485  6091.486
 486  6451.151
 487  6538.184
 488  6499.529
 489  6219.284
 490  5877.383
 491  5940.637
 492  6182.226
 493  5963.224
 494  6292.03
 495  6987.042
 496  7134.807
 497  6794.468
 498  6058.141
 499  6072.578
 500  5850.286
 501  6194.48
 502  6788.719
 503  6218.986
 504  5282.917
 505  5968.825
 506  6617.49
 507  6272.126
 508  6354.102
 509  6605.378
 510  6446.384
 511  6242.863
