# Input file       =  1195430911.110719_cleaned.dat
# Candidate        =  PSR_0332+5434
# Telescope        =  AR
# Epoch_topo       =  58080.006135540731
# Epoch_bary       =  N/A
# T_sample         =  0.002
# Data Folded      =  7340032
# Data Avg         =  0.107136683683226
# Data StdDev      =  1.0001067169442  
# Profile Bins     =  512
# Profile Avg      =  1535.88675459616 
# Profile StdDev   =  119.745813920528 
# Reduced chi-sqr  =  0.667
# Prob(Noise)      <  1   (~0.0 sigma)
# P_topo (ms)      =  714.517749752996  +/- 2.38e-05
# P'_topo (s/s)    =  -0                +/- 1.26e-11
# P''_topo (s/s^2) =  0                 +/- 5.55e-15
# P_bary (ms)      =  N/A
# P'_bary (s/s)    =  N/A
# P''_bary (s/s^2) =  N/A
# P_orb (s)        =  N/A
# asin(i)/c (s)    =  N/A
# eccentricity     =  N/A
# w (rad)          =  N/A
# T_peri           =  N/A
######################################################
   0  1599.359
   1  1630.326
   2  1476.215
   3  1515.651
   4  1587.064
   5  1606.941
   6  1536.378
   7  1621.279
   8  1672.479
   9  1518.522
  10  1441.938
  11  1468.034
  12  1495.775
  13  1422.385
  14  1484.334
  15  1621.158
  16  1474.44
  17  1458.686
  18  1506.154
  19  1626.215
  20  1605.364
  21  1483.966
  22  1570.97
  23  1472.665
  24  1425.296
  25  1537.255
  26  1570.561
  27  1469.861
  28  1497.682
  29  1484.643
  30  1470.285
  31  1477.258
  32  1524.12
  33  1565.996
  34  1573.634
  35  1606.126
  36  1590.733
  37  1554.483
  38  1411.799
  39  1421.415
  40  1510.612
  41  1476.262
  42  1534.874
  43  1531.819
  44  1550.86
  45  1399.563
  46  1402.286
  47  1493.811
  48  1461.55
  49  1423.861
  50  1481.307
  51  1543.763
  52  1475.653
  53  1495.253
  54  1569.375
  55  1536.118
  56  1461.552
  57  1446.779
  58  1530.657
  59  1521.974
  60  1399.136
  61  1405.203
  62  1471.573
  63  1515.12
  64  1452.994
  65  1560.957
  66  1508.245
  67  1465.955
  68  1540.789
  69  1632.525
  70  1487.49
  71  1506.743
  72  1605.864
  73  1551.755
  74  1514.556
  75  1643.21
  76  1649.225
  77  1599.593
  78  1524.134
  79  1501.269
  80  1562.708
  81  1461.724
  82  1594.361
  83  1763.582
  84  1593.086
  85  1429.596
  86  1512.621
  87  1521.692
  88  1466.875
  89  1491.69
  90  1671.858
  91  1571.479
  92  1476.69
  93  1577.92
  94  1641.852
  95  1514.988
  96  1406.298
  97  1455.729
  98  1499.317
  99  1469.588
 100  1540.498
 101  1589.244
 102  1492.533
 103  1449.156
 104  1465.457
 105  1459.772
 106  1458.74
 107  1501.417
 108  1555.683
 109  1471.083
 110  1484.817
 111  1484.328
 112  1485.001
 113  1454.653
 114  1444.69
 115  1484.669
 116  1464.152
 117  1445.614
 118  1484.286
 119  1467.352
 120  1453.061
 121  1482.733
 122  1546.186
 123  1588.286
 124  1479.005
 125  1449.947
 126  1546.177
 127  1437.206
 128  1404.603
 129  1584.766
 130  1630.603
 131  1597.432
 132  1608.152
 133  1571.296
 134  1569.165
 135  1484.391
 136  1616.197
 137  1625.204
 138  1473.985
 139  1498.181
 140  1570.054
 141  1491.148
 142  1501.312
 143  1628.199
 144  1590.832
 145  1488.93
 146  1419.075
 147  1505.154
 148  1502.234
 149  1589.821
 150  1563.513
 151  1570.442
 152  1543.821
 153  1546.471
 154  1491.491
 155  1566.736
 156  1520.219
 157  1504.975
 158  1584.8
 159  1502.234
 160  1515.2
 161  1502.245
 162  1515.204
 163  1516.091
 164  1548.919
 165  1613.417
 166  1613.298
 167  1515.691
 168  1536.871
 169  1625.991
 170  1656.268
 171  1583.308
 172  1613.691
 173  1632.448
 174  1534.122
 175  1640.529
 176  1650.975
 177  1650.717
 178  1641.341
 179  1728.173
 180  1748.656
 181  1537.488
 182  1529.411
 183  1617.682
 184  1507.894
 185  1531.919
 186  1583.142
 187  1582.863
 188  1618.007
 189  1597.605
 190  1528.307
 191  1568.941
 192  1514.019
 193  1557.736
 194  1680.06
 195  1574.24
 196  1378.221
 197  1459.401
 198  1509.532
 199  1530.284
 200  1597.664
 201  1677.278
 202  1632.503
 203  1498.562
 204  1562.368
 205  1556.837
 206  1472.656
 207  1472.691
 208  1517.616
 209  1543.116
 210  1472.934
 211  1488.438
 212  1591.116
 213  1613.52
 214  1473.607
 215  1439.019
 216  1474.986
 217  1452.89
 218  1607.559
 219  1551.866
 220  1445.412
 221  1370.128
 222  1455.304
 223  1481.073
 224  1405.531
 225  1441.717
 226  1565.182
 227  1538.094
 228  1464.814
 229  1513.121
 230  1525.19
 231  1421.636
 232  1417.102
 233  1590.083
 234  1550.94
 235  1479.723
 236  1494.625
 237  1588.357
 238  1610.521
 239  1510.044
 240  1555.219
 241  1623.723
 242  1566.955
 243  1525.469
 244  1643.775
 245  1593.771
 246  1575.703
 247  1545.332
 248  1573.782
 249  1484.518
 250  1489.393
 251  1627.501
 252  1544.907
 253  1440.812
 254  1502.902
 255  1492.925
 256  1530.073
 257  1542.853
 258  1629.031
 259  1679.875
 260  1518.717
 261  1633.842
 262  1591.691
 263  1468.119
 264  1487.347
 265  1606.848
 266  1635.246
 267  1598.821
 268  1419.879
 269  1559.47
 270  1590.602
 271  1576.825
 272  1637.262
 273  1537.781
 274  1508.019
 275  1569.563
 276  1671.953
 277  1639.931
 278  1447.603
 279  1522.91
 280  1584.581
 281  1446.172
 282  1383.129
 283  1483.674
 284  1605.802
 285  1591.211
 286  1513.125
 287  1510.69
 288  1486.434
 289  1474.771
 290  1554.322
 291  1575.941
 292  1536.959
 293  1513.785
 294  1517.867
 295  1514.041
 296  1409.201
 297  1383.287
 298  1533.787
 299  1495.048
 300  1495.266
 301  1521.133
 302  1559.371
 303  1531.23
 304  1593.937
 305  1605.538
 306  1510.985
 307  1404.45
 308  1407.072
 309  1502.727
 310  1508.445
 311  1613.075
 312  1659.442
 313  1609.509
 314  1535.488
 315  1521.649
 316  1596.102
 317  1559.46
 318  1590.562
 319  1650.192
 320  1597.79
 321  1563.383
 322  1427.824
 323  1533.008
 324  1526.453
 325  1477.164
 326  1439.245
 327  1526.552
 328  1476.824
 329  1478.442
 330  1509.418
 331  1508.16
 332  1572.664
 333  1635.128
 334  1681.016
 335  1646.564
 336  1566.888
 337  1570.069
 338  1401.813
 339  1458.755
 340  1590.489
 341  1698.036
 342  1725.055
 343  1718.145
 344  1726.491
 345  1606.536
 346  1506.212
 347  1569.335
 348  1689.43
 349  1632.772
 350  1509.346
 351  1492.276
 352  1485.264
 353  1478.546
 354  1474.271
 355  1602.629
 356  1575.959
 357  1468.931
 358  1537.042
 359  1640.051
 360  1537.285
 361  1467.916
 362  1592.122
 363  1596.491
 364  1509.063
 365  1586.903
 366  1588.389
 367  1510.862
 368  1513.46
 369  1553.472
 370  1608.333
 371  1661.723
 372  1610.421
 373  1657.12
 374  1567.109
 375  1489.188
 376  1571.86
 377  1596.425
 378  1602.256
 379  1582.274
 380  1596.473
 381  1562.544
 382  1494.989
 383  1483
 384  1551.573
 385  1592.559
 386  1533.755
 387  1614.341
 388  1563.924
 389  1495.347
 390  1574.32
 391  1585.334
 392  1591.008
 393  1618.656
 394  1669.439
 395  1664.048
 396  1480.783
 397  1413.394
 398  1524.949
 399  1432.657
 400  1531.903
 401  1609.78
 402  1570.939
 403  1514.689
 404  1448.959
 405  1572.45
 406  1481.425
 407  1514.48
 408  1550.415
 409  1560.497
 410  1547.72
 411  1481.173
 412  1485.826
 413  1532.238
 414  1466.105
 415  1471.144
 416  1489.138
 417  1431.513
 418  1372.211
 419  1444.099
 420  1555.542
 421  1519.79
 422  1508.344
 423  1662.347
 424  1550.212
 425  1538.136
 426  1583.36
 427  1586.569
 428  1526.85
 429  1519.962
 430  1620.877
 431  1641.803
 432  1663.567
 433  1698.562
 434  1572.661
 435  1574.895
 436  1492.081
 437  1502.758
 438  1591.744
 439  1514.944
 440  1549.003
 441  1614.566
 442  1549.695
 443  1555.703
 444  1634.958
 445  1609.683
 446  1453.317
 447  1510.791
 448  1638.261
 449  1599.722
 450  1585.708
 451  1480.759
 452  1563.109
 453  1459.505
 454  1526.12
 455  1700.164
 456  1626.824
 457  1557.456
 458  1489.408
 459  1522.549
 460  1468.561
 461  1502.666
 462  1568.539
 463  1599.003
 464  1546.757
 465  1531.515
 466  1569.332
 467  1519.071
 468  1495.403
 469  1518.125
 470  1460.386
 471  1421.657
 472  1449.438
 473  1469.517
 474  1464.49
 475  1377.927
 476  1415.676
 477  1545.554
 478  1497.216
 479  1418.678
 480  1467.312
 481  1461.429
 482  1399.412
 483  1410.67
 484  1580.866
 485  1538.447
 486  1498.005
 487  1529.698
 488  1606.896
 489  1564.192
 490  1486.327
 491  1628.915
 492  1523.445
 493  1440.098
 494  1492.654
 495  1554.484
 496  1454.617
 497  1445.463
 498  1536.558
 499  1521.028
 500  1489.153
 501  1475.02
 502  1619.883
 503  1590.983
 504  1595.757
 505  1625.116
 506  1593.149
 507  1544.932
 508  1532.472
 509  1606.888
 510  1547.967
 511  1481.232
