# Input file       =  1195573752.099748_cleaned.dat
# Candidate        =  PSR_0332+5434
# Telescope        =  AR
# Epoch_topo       =  58081.659387728563
# Epoch_bary       =  N/A
# T_sample         =  0.002
# Data Folded      =  7143424
# Data Avg         =  0.051912043459774
# Data StdDev      =  1.00021519998701 
# Profile Bins     =  512
# Profile Avg      =  724.291865443769 
# Profile StdDev   =  118.144003599713 
# Reduced chi-sqr  =  0.571
# Prob(Noise)      <  1   (~0.0 sigma)
# P_topo (ms)      =  714.519099983143  +/- 6.66e-05
# P'_topo (s/s)    =  -0                +/- 3.61e-11
# P''_topo (s/s^2) =  0                 +/- 1.64e-14
# P_bary (ms)      =  N/A
# P'_bary (s/s)    =  N/A
# P''_bary (s/s^2) =  N/A
# P_orb (s)        =  N/A
# asin(i)/c (s)    =  N/A
# eccentricity     =  N/A
# w (rad)          =  N/A
# T_peri           =  N/A
######################################################
   0  742.4401
   1  770.2296
   2  708.6889
   3  699.7294
   4  670.4746
   5  683.2886
   6  723.6807
   7  648.6549
   8  803.8088
   9  794.6151
  10  757.4905
  11  563.345
  12  609.204
  13  740.5596
  14  726.5322
  15  666.1149
  16  682.6837
  17  629.0256
  18  648.5333
  19  750.7335
  20  711.3596
  21  703.394
  22  751.7098
  23  646.8485
  24  631.8871
  25  627.0112
  26  679.0411
  27  734.7864
  28  727.8954
  29  751.6609
  30  668.3284
  31  619.5173
  32  672.5547
  33  704.0305
  34  710.4135
  35  684.9094
  36  726.9025
  37  786.0355
  38  825.0303
  39  793.4861
  40  683.6615
  41  678.366
  42  764.6929
  43  804.7501
  44  770.1035
  45  673.4883
  46  682.7384
  47  666.9608
  48  713.0431
  49  766.8365
  50  740.7087
  51  792.5708
  52  837.6279
  53  835.0878
  54  793.7582
  55  738.4326
  56  700.0938
  57  673.2244
  58  695.1246
  59  666.5679
  60  628.1096
  61  705.4182
  62  643.682
  63  614.7872
  64  622.1698
  65  744.0217
  66  761.3075
  67  726.3018
  68  727.5017
  69  743.7617
  70  782.1849
  71  771.3907
  72  753.4124
  73  746.7436
  74  715.1622
  75  753.972
  76  779.3748
  77  810.1245
  78  753.0804
  79  718.1202
  80  681.9133
  81  676.0967
  82  682.5438
  83  684.0021
  84  708.5043
  85  686.9886
  86  739.4935
  87  751.6589
  88  752.5328
  89  749.2119
  90  747.4468
  91  746.208
  92  688.7244
  93  702.5316
  94  779.38
  95  819.9491
  96  799.0832
  97  729.7528
  98  661.7906
  99  730.8544
 100  704.5398
 101  625.3405
 102  655.7484
 103  716.4351
 104  814.5635
 105  739.5585
 106  651.1818
 107  629.7946
 108  641.6393
 109  713.7782
 110  776.4167
 111  727.512
 112  711.2645
 113  717.3081
 114  685.8953
 115  618.1488
 116  604.9191
 117  581.7491
 118  610.1564
 119  725.7963
 120  760.9327
 121  740.1964
 122  777.0276
 123  808.3889
 124  783.5785
 125  747.4465
 126  772.2071
 127  776.4881
 128  790.6927
 129  681.2394
 130  748.3244
 131  758.7831
 132  753.3133
 133  779.0673
 134  752.4293
 135  772.9991
 136  725.4828
 137  766.2722
 138  798.0424
 139  718.797
 140  644.0605
 141  586.3716
 142  719.7672
 143  723.0656
 144  755.6392
 145  754.1467
 146  804.5334
 147  819.4679
 148  793.652
 149  790.0071
 150  593.8793
 151  658.9474
 152  782.6865
 153  826.9149
 154  731.5984
 155  639.4744
 156  698.2188
 157  695.0613
 158  811.3817
 159  785.9116
 160  672.4274
 161  649.6958
 162  645.2787
 163  617.4048
 164  675.4344
 165  643.2935
 166  744.5715
 167  785.4529
 168  793.6268
 169  746.9739
 170  745.1503
 171  778.9769
 172  739.6849
 173  700.3774
 174  705.9301
 175  676.1589
 176  778.087
 177  884.0584
 178  883.5375
 179  673.763
 180  654.2122
 181  688.3241
 182  766.9407
 183  749.5542
 184  682.7758
 185  723.6725
 186  657.6334
 187  689.9653
 188  620.2194
 189  609.6211
 190  682.3591
 191  618.3145
 192  635.7147
 193  661.3373
 194  682.5793
 195  758.3624
 196  734.8799
 197  712.3585
 198  562.4287
 199  629.614
 200  695.196
 201  637.5022
 202  687.9534
 203  712.9409
 204  768.1127
 205  728.5743
 206  729.4647
 207  735.7433
 208  686.7379
 209  652.835
 210  733.5729
 211  735.8326
 212  649.9979
 213  665.4891
 214  649.3577
 215  543.2176
 216  646.8405
 217  646.6334
 218  760.2562
 219  827.2926
 220  751.2164
 221  787.8441
 222  711.5762
 223  715.2632
 224  731.2845
 225  748.463
 226  712.6518
 227  680.42
 228  728.1112
 229  757.374
 230  874.1788
 231  792.4254
 232  613.6866
 233  692.7862
 234  817.1475
 235  894.5419
 236  832.7985
 237  856.2958
 238  867.946
 239  997.0428
 240  959.4344
 241  936.9487
 242  873.4105
 243  770.1288
 244  689.9784
 245  690.3219
 246  723.8405
 247  713.2415
 248  670.4337
 249  758.346
 250  807.0786
 251  730.6354
 252  704.0121
 253  741.3241
 254  677.9016
 255  713.2186
 256  788.2526
 257  802.9745
 258  710.0361
 259  715.401
 260  680.6961
 261  731.8215
 262  771.485
 263  757.9476
 264  815.9077
 265  811.5333
 266  741.6486
 267  661.0014
 268  713.7136
 269  664.7776
 270  678.4854
 271  750.7836
 272  707.1665
 273  779.8071
 274  749.8527
 275  748.8286
 276  738.3195
 277  758.9759
 278  805.6077
 279  638.0491
 280  632.876
 281  682.2804
 282  715.9401
 283  629.1558
 284  657.2401
 285  749.6284
 286  792.491
 287  757.5355
 288  742.6351
 289  728.8584
 290  743.2069
 291  693.8345
 292  778.5105
 293  783.8188
 294  748.1325
 295  806.0472
 296  829.9085
 297  778.7757
 298  681.9576
 299  717.8662
 300  712.6708
 301  785.2547
 302  858.9628
 303  870.5856
 304  764.7236
 305  738.8157
 306  796.7778
 307  771.752
 308  696.8307
 309  659.2468
 310  736.1282
 311  769.8754
 312  767.0966
 313  701.6036
 314  720.5421
 315  694.2764
 316  661.9124
 317  747.3213
 318  692.7462
 319  648.0147
 320  684.9733
 321  767.7653
 322  769.3986
 323  629.0807
 324  674.3885
 325  641.5221
 326  597.236
 327  614.6536
 328  686.19
 329  799.0612
 330  768.595
 331  728.7778
 332  628.1328
 333  676.6644
 334  677.8829
 335  752.8176
 336  727.7921
 337  698.1823
 338  803.1069
 339  745.7533
 340  691.1292
 341  654.1329
 342  685.7715
 343  726.8114
 344  710.6519
 345  741.0609
 346  861.9587
 347  874.1934
 348  826.391
 349  773.5754
 350  746.6866
 351  755.3336
 352  748.2907
 353  740.1162
 354  788.4335
 355  620.9943
 356  559.0117
 357  623.0922
 358  638.687
 359  751.8434
 360  733.5057
 361  728.1158
 362  711.3072
 363  696.7766
 364  800.6523
 365  695.0797
 366  671.4874
 367  709.8486
 368  680.0605
 369  703.7781
 370  786.2545
 371  708.5172
 372  686.4092
 373  692.7457
 374  706.002
 375  614.5236
 376  697.1548
 377  717.9432
 378  696.8119
 379  765.0397
 380  719.084
 381  712.8426
 382  655.3745
 383  692.5872
 384  700.9386
 385  677.6205
 386  757.5898
 387  780.0589
 388  819.3663
 389  690.4811
 390  574.5004
 391  667.3259
 392  759.3275
 393  793.5819
 394  760.2174
 395  772.1652
 396  792.2489
 397  712.5363
 398  719.5284
 399  726.749
 400  788.4327
 401  734.9849
 402  783.6884
 403  696.1333
 404  703.4769
 405  693.2998
 406  773.914
 407  878.2678
 408  759.1142
 409  638.6597
 410  632.425
 411  649.6808
 412  694.693
 413  672.5789
 414  642.5189
 415  643.7278
 416  647.8689
 417  699.2527
 418  678.701
 419  690.6954
 420  731.1245
 421  785.0099
 422  676.4444
 423  542.1331
 424  573.0334
 425  650.5935
 426  698.5359
 427  699.4381
 428  656.6721
 429  692.7617
 430  719.6776
 431  688.3007
 432  648.5197
 433  741.0241
 434  792.6633
 435  782.5654
 436  803.2958
 437  713.1469
 438  704.974
 439  730.8806
 440  672.2465
 441  746.508
 442  714.0818
 443  744.6106
 444  820.084
 445  732.5345
 446  825.4783
 447  701.3046
 448  794.5845
 449  817.0909
 450  846.002
 451  803.3058
 452  792.9692
 453  761.1503
 454  706.0443
 455  769.282
 456  741.4739
 457  741.4476
 458  782.7701
 459  841.5082
 460  752.5637
 461  669.2412
 462  653.0367
 463  654.5504
 464  712.8221
 465  701.3945
 466  652.9738
 467  746.8269
 468  741.6085
 469  660.4373
 470  608.8688
 471  672.9301
 472  739.8085
 473  736.3727
 474  761.9453
 475  782.9689
 476  719.0283
 477  756.9521
 478  725.1775
 479  733.2656
 480  706.2585
 481  664.3694
 482  759.0458
 483  815.9099
 484  728.6609
 485  625.9856
 486  727.614
 487  832.7614
 488  881.5396
 489  860.7175
 490  769.765
 491  679.4308
 492  676.6865
 493  710.7505
 494  688.6811
 495  691.9349
 496  799.1937
 497  813.0897
 498  730.8336
 499  758.5881
 500  764.2501
 501  732.1885
 502  701.5233
 503  750.2887
 504  793.923
 505  731.9532
 506  704.1388
 507  761.4136
 508  714.4852
 509  700.4208
 510  656.7801
 511  759.2896
