# Input file       =  1195243722.108974_cleaned.dat
# Candidate        =  PSR_0332+5434
# Telescope        =  AR
# Epoch_topo       =  58077.839596168684
# Epoch_bary       =  N/A
# T_sample         =  0.002
# Data Folded      =  7340032
# Data Avg         =  0.0524157933180441
# Data StdDev      =  1.000103262193   
# Profile Bins     =  512
# Profile Avg      =  751.701429606281 
# Profile StdDev   =  119.745400272677 
# Reduced chi-sqr  =  0.842
# Prob(Noise)      <  0.996   (~0.0 sigma)
# P_topo (ms)      =  714.515170960217  +/- 4.61e-05
# P'_topo (s/s)    =  -0                +/- 2.43e-11
# P''_topo (s/s^2) =  0                 +/- 1.07e-14
# P_bary (ms)      =  N/A
# P'_bary (s/s)    =  N/A
# P''_bary (s/s^2) =  N/A
# P_orb (s)        =  N/A
# asin(i)/c (s)    =  N/A
# eccentricity     =  N/A
# w (rad)          =  N/A
# T_peri           =  N/A
######################################################
   0  1155.504
   1  1151.587
   2  1052.981
   3  855.3934
   4  799.9451
   5  738.4943
   6  827.0834
   7  777.926
   8  739.7751
   9  756.4671
  10  772.8681
  11  740.2717
  12  711.3569
  13  769.5446
  14  683.7603
  15  650.0413
  16  799.0628
  17  756.9626
  18  688.6329
  19  734.3557
  20  693.4349
  21  714.0148
  22  662.7377
  23  726.959
  24  711.5132
  25  718.1002
  26  754.3575
  27  811.129
  28  774.6961
  29  789.3687
  30  755.9501
  31  776.3553
  32  796.0301
  33  727.4965
  34  738.4056
  35  756.0809
  36  806.3146
  37  805.413
  38  664.2157
  39  652.7157
  40  682.1319
  41  692.6227
  42  771.624
  43  752.9274
  44  830.1505
  45  819.5662
  46  698.8178
  47  785.2908
  48  782.8713
  49  783.1614
  50  840.4026
  51  818.9233
  52  910.9429
  53  839.4979
  54  632.5386
  55  646.8311
  56  684.5496
  57  703.1433
  58  728.4128
  59  810.6946
  60  864.7833
  61  778.3119
  62  746.8483
  63  774.3768
  64  668.454
  65  762.5334
  66  855.3006
  67  868.1027
  68  719.189
  69  719.9681
  70  805.4682
  71  820.3435
  72  803.884
  73  750.7598
  74  756.2472
  75  787.5673
  76  865.3459
  77  794.326
  78  748.2006
  79  744.8431
  80  774.7565
  81  824.2206
  82  795.3551
  83  885.9952
  84  871.1287
  85  800.6548
  86  829.605
  87  843.5582
  88  881.9509
  89  800.826
  90  754.8898
  91  790.3157
  92  803.8459
  93  717.5994
  94  746.4139
  95  796.5815
  96  860.8015
  97  763.0377
  98  804.2844
  99  794.3113
 100  642.6515
 101  676.8287
 102  876.0941
 103  916.9482
 104  829.2113
 105  745.4583
 106  658.7766
 107  602.1044
 108  671.4023
 109  798.5574
 110  790.1457
 111  760.6649
 112  674.4648
 113  709.5356
 114  683.0245
 115  642.137
 116  695.006
 117  679.6948
 118  651.1537
 119  652.2844
 120  824.3864
 121  847.8591
 122  761.4744
 123  809.1202
 124  841.8206
 125  810.9871
 126  846.152
 127  780.6169
 128  745.0073
 129  748.8732
 130  831.4607
 131  838.3583
 132  752.6098
 133  635.8932
 134  704.7791
 135  774.9454
 136  644.3896
 137  711.4514
 138  728.9847
 139  688.9977
 140  656.6666
 141  733.7086
 142  736.7731
 143  715.0493
 144  682.4821
 145  782.024
 146  651.3661
 147  597.0936
 148  607.4536
 149  789.6871
 150  793.9557
 151  645.7759
 152  653.5753
 153  652.4408
 154  617.2203
 155  689.9457
 156  713.7054
 157  723.8405
 158  660.5224
 159  701.6761
 160  712.1491
 161  733.3927
 162  673.1428
 163  699.8907
 164  812.2604
 165  817.2887
 166  673.5948
 167  628.5612
 168  554.173
 169  591.3894
 170  656.207
 171  745.3879
 172  641.0135
 173  710.8224
 174  851.4617
 175  807.4517
 176  756.3544
 177  765.066
 178  803.8817
 179  716.0051
 180  722.532
 181  798.877
 182  751.9287
 183  654.0031
 184  638.0789
 185  750.9307
 186  746.3558
 187  728.7229
 188  872.2996
 189  812.5035
 190  663.4969
 191  743.8797
 192  808.6594
 193  692.2475
 194  695.7868
 195  801.8838
 196  857.6754
 197  830.0178
 198  744.6037
 199  787.9521
 200  722.742
 201  700.1431
 202  733.0657
 203  687.9171
 204  668.1423
 205  755.941
 206  810.9835
 207  720.1547
 208  598.5554
 209  766.7141
 210  799.4684
 211  680.6102
 212  716.6541
 213  817.2744
 214  860.6495
 215  740.3762
 216  697.4056
 217  632.5415
 218  631.563
 219  665.8848
 220  809.37
 221  853.4921
 222  785.8252
 223  768.8291
 224  805.5898
 225  760.1468
 226  698.444
 227  766.8145
 228  861.7878
 229  771.6451
 230  739.0483
 231  857.83
 232  767.5737
 233  688.6524
 234  688.9324
 235  729.6958
 236  625.4417
 237  652.4904
 238  797.5564
 239  834.3013
 240  734.5373
 241  660.5128
 242  627.8881
 243  692.5402
 244  704.8264
 245  758.1617
 246  785.7483
 247  793.9401
 248  745.2166
 249  778.256
 250  704.5651
 251  674.687
 252  765.8226
 253  799.7336
 254  686.8311
 255  664.0369
 256  782.019
 257  804.4353
 258  817.4961
 259  782.3698
 260  976.2266
 261  893.0336
 262  662.9272
 263  689.0683
 264  722.6772
 265  674.1266
 266  705.5516
 267  653.9619
 268  690.9772
 269  787.5425
 270  742.2839
 271  825.2115
 272  747.7152
 273  726.4247
 274  674.8257
 275  733.5199
 276  731.8572
 277  786.0128
 278  881.7737
 279  846.7839
 280  840.0521
 281  813.274
 282  891.4448
 283  750.2748
 284  710.761
 285  816.1279
 286  832.9507
 287  813.7385
 288  841.9254
 289  792.5851
 290  757.2625
 291  773.5157
 292  823.2606
 293  807.7769
 294  749.4
 295  723.5876
 296  799.4993
 297  835.5176
 298  818.6755
 299  778.62
 300  874.3002
 301  852.7799
 302  773.1589
 303  735.8826
 304  730.6699
 305  683.2881
 306  667.7357
 307  804.9195
 308  736.691
 309  646.1982
 310  638.7859
 311  680.5643
 312  738.0984
 313  707.9553
 314  789.0562
 315  686.3356
 316  747.4973
 317  792.0678
 318  811.6404
 319  691.1888
 320  652.1346
 321  707.1166
 322  693.0458
 323  711.2745
 324  703.9877
 325  718.1018
 326  750.8881
 327  696.794
 328  720.3646
 329  682.4381
 330  669.4036
 331  757.1933
 332  767.4716
 333  721.6875
 334  693.8826
 335  773.198
 336  834.1823
 337  841.7362
 338  809.5762
 339  765.1003
 340  663.0201
 341  633.5577
 342  774.1087
 343  866.9366
 344  821.2069
 345  847.3118
 346  817.3957
 347  722.7917
 348  753.2059
 349  755.7278
 350  801.1767
 351  835.6028
 352  785.1281
 353  735.3271
 354  653.4464
 355  544.5034
 356  626.0254
 357  828.0898
 358  805.4111
 359  758.434
 360  799.1071
 361  739.8469
 362  607.2087
 363  678.867
 364  768.8154
 365  707.3416
 366  737.355
 367  823.3007
 368  798.5126
 369  785.6345
 370  766.3836
 371  672.2797
 372  746.1586
 373  766.0096
 374  833.328
 375  832.7484
 376  720.861
 377  731.9371
 378  865.8085
 379  877.6357
 380  842.5256
 381  769.1946
 382  699.064
 383  704.1432
 384  784.9595
 385  819.439
 386  799.9162
 387  803.3317
 388  829.1455
 389  759.1249
 390  729.2254
 391  812.5627
 392  764.2615
 393  674.9022
 394  759.5991
 395  842.0082
 396  804.7726
 397  764.2366
 398  739.0131
 399  765.7032
 400  782.2255
 401  758.4136
 402  775.864
 403  748.6337
 404  637.9935
 405  672.9536
 406  681.9518
 407  794.6919
 408  751.4461
 409  700.0129
 410  790.2393
 411  750.7552
 412  747.8084
 413  833.8333
 414  799.7315
 415  648.4661
 416  673.8124
 417  714.8748
 418  740.1057
 419  717.8421
 420  776.8776
 421  804.004
 422  674.2466
 423  574.1649
 424  606.6476
 425  650.7804
 426  732.9111
 427  686.8993
 428  751.2733
 429  729.7524
 430  671.9758
 431  687.0948
 432  760.4337
 433  752.0367
 434  664.0519
 435  800.2434
 436  902.2395
 437  765.4936
 438  829.0466
 439  867.4155
 440  785.7677
 441  668.8909
 442  804.2943
 443  782.9527
 444  795.0344
 445  729.21
 446  820.0053
 447  712.3118
 448  615.2786
 449  667.8881
 450  711.969
 451  631.1798
 452  677.5992
 453  745.5973
 454  840.5919
 455  810.568
 456  754.9952
 457  806.946
 458  783.058
 459  904.6426
 460  936.4111
 461  777.1443
 462  801.9921
 463  805.2125
 464  784.6268
 465  753.895
 466  625.6049
 467  670.5341
 468  699.4337
 469  640.7595
 470  622.2996
 471  699.7982
 472  679.0728
 473  704.7112
 474  637.354
 475  577.1045
 476  590.3519
 477  753.7807
 478  823.3508
 479  848.4908
 480  784.2686
 481  732.8929
 482  726.9919
 483  546.1652
 484  613.345
 485  700.316
 486  721.6257
 487  536.4203
 488  517.5308
 489  652.5078
 490  690.5895
 491  722.2436
 492  770.992
 493  700.9335
 494  787.8262
 495  797.093
 496  741.2618
 497  796.8754
 498  727.312
 499  758.3275
 500  791.3318
 501  774.6837
 502  716.8506
 503  791.1884
 504  890.2171
 505  804.9139
 506  778.1331
 507  873.2258
 508  826.3065
 509  901.0021
 510  972.4791
 511  1137.039
