# Input file       =  1195344761.110509_cleaned.dat
# Candidate        =  PSR_0332+5434
# Telescope        =  AR
# Epoch_topo       =  58079.009029056819
# Epoch_bary       =  N/A
# T_sample         =  0.002
# Data Folded      =  7340032
# Data Avg         =  0.071478935622096
# Data StdDev      =  1.00008615325966 
# Profile Bins     =  512
# Profile Avg      =  1024.84954624023 
# Profile StdDev   =  119.743351768139 
# Reduced chi-sqr  =  0.819
# Prob(Noise)      <  0.999   (~0.0 sigma)
# P_topo (ms)      =  714.516718407991  +/- 0.000441
# P'_topo (s/s)    =  -0                +/- 2.32e-10
# P''_topo (s/s^2) =  0                 +/- 1.03e-13
# P_bary (ms)      =  N/A
# P'_bary (s/s)    =  N/A
# P''_bary (s/s^2) =  N/A
# P_orb (s)        =  N/A
# asin(i)/c (s)    =  N/A
# eccentricity     =  N/A
# w (rad)          =  N/A
# T_peri           =  N/A
######################################################
   0  1009.565
   1  994.9151
   2  970.7007
   3  1057.686
   4  1060.885
   5  1047.004
   6  1118.775
   7  1068.046
   8  1079.899
   9  1088.544
  10  1129.073
  11  1086.415
  12  1170.735
  13  1146.213
  14  1093.598
  15  1036.299
  16  1037.392
  17  1004.119
  18  1058.524
  19  1075.045
  20  1086.847
  21  1099.474
  22  1040.788
  23  969.2814
  24  983.9134
  25  1072.912
  26  1122.704
  27  1085.029
  28  1028.333
  29  1042.27
  30  1067.773
  31  999.6981
  32  958.6476
  33  971.8663
  34  959.7437
  35  994.9443
  36  1047.998
  37  1068.444
  38  859.9677
  39  904.2985
  40  1037.89
  41  906.7356
  42  947.4751
  43  1026.625
  44  1021.218
  45  998.6757
  46  989.7185
  47  961.0441
  48  965.9897
  49  1054.066
  50  1027.616
  51  1049.108
  52  1019.634
  53  992.9122
  54  1011.203
  55  977.3445
  56  886.698
  57  870.8228
  58  922.9083
  59  1032.245
  60  1071.831
  61  1059.939
  62  1042.322
  63  1073.83
  64  1084.615
  65  996.441
  66  951.5042
  67  997.305
  68  1008.518
  69  1009.68
  70  976.8434
  71  1017.938
  72  926.2742
  73  930.9907
  74  907.2218
  75  855.8873
  76  993.4028
  77  1095.033
  78  1103.974
  79  1074.424
  80  991.1104
  81  807.7571
  82  813.6543
  83  879.9727
  84  832.9864
  85  892.5553
  86  978.5471
  87  979.2876
  88  986.1707
  89  942.2285
  90  926.1896
  91  986.3623
  92  1082.521
  93  1033.197
  94  1065.617
  95  1071.805
  96  1058.172
  97  1046.247
  98  1077.121
  99  1097.769
 100  1076.47
 101  1023.454
 102  998.2444
 103  940.3307
 104  899.6688
 105  995.4225
 106  1011.024
 107  1019.017
 108  880.2317
 109  945.5144
 110  1016.308
 111  930.2274
 112  942.6764
 113  1003.38
 114  1053.299
 115  990.1689
 116  1021.771
 117  1094.349
 118  1123.886
 119  1158.297
 120  1103.098
 121  1190.658
 122  1129.155
 123  1051.408
 124  1067.746
 125  1032.767
 126  1036.237
 127  1005.854
 128  1075.971
 129  1113.154
 130  984.5896
 131  964.1606
 132  1049.602
 133  1062.469
 134  1007.63
 135  1009.812
 136  989.1676
 137  943.1147
 138  936.6352
 139  963.1542
 140  1089.555
 141  1050.755
 142  975.4354
 143  1059.433
 144  1044.248
 145  987.6973
 146  979.282
 147  933.0971
 148  1004.409
 149  1007.621
 150  995.8041
 151  1027.917
 152  1001.84
 153  1007.777
 154  942.8959
 155  1062.446
 156  1041.599
 157  977.8522
 158  939.9111
 159  1027.194
 160  1052.107
 161  960.584
 162  1005.876
 163  966.5955
 164  983.3876
 165  991.431
 166  949.1282
 167  876.8832
 168  975.3738
 169  980.6675
 170  944.7305
 171  953.9294
 172  1031.361
 173  1012.174
 174  1074.159
 175  1033.283
 176  933.3391
 177  829.9296
 178  868.0818
 179  912.7249
 180  960.9629
 181  973.1594
 182  975.4075
 183  990.2142
 184  961.037
 185  965.3862
 186  914.9814
 187  934.6451
 188  1022.448
 189  1061.89
 190  1120.762
 191  1144.765
 192  1066.797
 193  984.3098
 194  994.1394
 195  1063.805
 196  1139.382
 197  1119.369
 198  1059.718
 199  1024.81
 200  961.9449
 201  1009.167
 202  895.085
 203  929.7197
 204  873.1322
 205  1004.403
 206  1032.46
 207  1041.4
 208  1030.842
 209  979.7617
 210  1026.268
 211  1008.817
 212  1094.485
 213  1022.831
 214  1120.427
 215  1121.004
 216  1086.176
 217  1018.178
 218  1039.292
 219  1097.703
 220  1037.828
 221  988.7656
 222  898.8615
 223  967.4852
 224  1089.885
 225  1103.289
 226  1117.811
 227  984.0175
 228  937.7637
 229  938.0541
 230  1013.807
 231  1099.364
 232  1092.809
 233  1129.289
 234  1099.94
 235  974.974
 236  948.8149
 237  928.2971
 238  939.9377
 239  967.092
 240  1018.509
 241  1003.755
 242  1028.635
 243  1034.03
 244  989.9612
 245  991.4056
 246  1102.928
 247  1036.017
 248  1064.05
 249  1002.038
 250  1071.225
 251  1069.951
 252  1023.65
 253  1047.459
 254  1004.424
 255  1044.368
 256  934.9745
 257  929.1411
 258  944.2296
 259  1040.66
 260  1069.484
 261  1067.838
 262  991.4385
 263  935.7781
 264  1031.438
 265  1025.365
 266  1170.821
 267  1076.034
 268  1111.996
 269  1175.68
 270  1063.818
 271  1061.986
 272  1050.669
 273  988.3162
 274  924.3815
 275  1013.273
 276  991.1328
 277  907.009
 278  1078.643
 279  1173.039
 280  1079.069
 281  1053.272
 282  1086.421
 283  1056.204
 284  1066.435
 285  1000.529
 286  964.1596
 287  957.6088
 288  1017.651
 289  1023.262
 290  995.753
 291  866.7058
 292  927.6597
 293  995.5849
 294  1060.028
 295  1079.596
 296  1128.944
 297  1093.702
 298  1057.283
 299  1039.798
 300  1122.995
 301  1081.402
 302  1160.285
 303  1249.285
 304  1273.011
 305  1411.473
 306  1423.716
 307  1322.341
 308  1300.97
 309  1190.755
 310  1067.664
 311  1050.992
 312  1093.837
 313  1015.559
 314  1033.945
 315  1029.918
 316  1013.56
 317  1007.426
 318  979.7377
 319  1155.114
 320  1090.526
 321  1101.23
 322  1036.701
 323  1093.941
 324  1033.963
 325  963.5332
 326  930.8877
 327  976.1521
 328  1029.422
 329  1073.531
 330  1091.448
 331  1049.106
 332  1065.536
 333  1073.366
 334  978.303
 335  991.3532
 336  1113.008
 337  1133.591
 338  1117.79
 339  1098.32
 340  1015.129
 341  932.6628
 342  956.6403
 343  1032.42
 344  894.5192
 345  930.7456
 346  967.7427
 347  1005.476
 348  998.1064
 349  897.8627
 350  1023.411
 351  1055.238
 352  1039.142
 353  986.8972
 354  974.0441
 355  949.4818
 356  901.041
 357  842.154
 358  850.9277
 359  902.2065
 360  878.3386
 361  983.5365
 362  1000.392
 363  928.0253
 364  969.7477
 365  1024.962
 366  1072.407
 367  1054.75
 368  1065.204
 369  1041.739
 370  884.2725
 371  964.8437
 372  948.5281
 373  937.8785
 374  968.3697
 375  963.9998
 376  952.1461
 377  984.9078
 378  1005.636
 379  1036.699
 380  1133.538
 381  1038.196
 382  1067.063
 383  1051.89
 384  1067.578
 385  1166.894
 386  1128.845
 387  1042.719
 388  1070.188
 389  1051.497
 390  1087.284
 391  1102.85
 392  1065.164
 393  1053.789
 394  1009.845
 395  1060.029
 396  1008.318
 397  1033.915
 398  1049.009
 399  1034.027
 400  986.4768
 401  983.0562
 402  931.9193
 403  927.2837
 404  1026.441
 405  1024.537
 406  942.3882
 407  1026.842
 408  1077.374
 409  1073.113
 410  940.2982
 411  987.7248
 412  1058.598
 413  1054.975
 414  1075.158
 415  1102.604
 416  1105.64
 417  1011.496
 418  961.9581
 419  971.8188
 420  1108.019
 421  1161.88
 422  1079.918
 423  965.9558
 424  968.1017
 425  1081.968
 426  995.7015
 427  1054.396
 428  988.3222
 429  981.1838
 430  1053.813
 431  1061.734
 432  1087.935
 433  1132.126
 434  1077.048
 435  987.0913
 436  920.5852
 437  1051.375
 438  1071.417
 439  1013.684
 440  988.4893
 441  955.3621
 442  956.1915
 443  1174.052
 444  1155.537
 445  1081.055
 446  1056.155
 447  1100.669
 448  1133.116
 449  1125.047
 450  1153.781
 451  1131.039
 452  1249.458
 453  1221.07
 454  1070.724
 455  1039.249
 456  1042.742
 457  1032.438
 458  1079.44
 459  1039.587
 460  977.5173
 461  1066.533
 462  1048.406
 463  1084.635
 464  1094.566
 465  1166.075
 466  1158.664
 467  996.071
 468  990.8135
 469  1003.202
 470  1123.22
 471  1086.582
 472  985.2332
 473  975.2525
 474  998.9084
 475  993.1301
 476  967.7885
 477  936.1135
 478  841.358
 479  1058.143
 480  1128.581
 481  1101.226
 482  1034.729
 483  999.7347
 484  1050.651
 485  954.9799
 486  904.6856
 487  892.431
 488  963.3178
 489  1053.974
 490  1076.351
 491  1041.287
 492  918.0435
 493  924.9459
 494  1042.28
 495  1056.402
 496  1099.166
 497  1038.392
 498  976.8895
 499  987.6655
 500  924.767
 501  929.9183
 502  924.6174
 503  922.2057
 504  1070.655
 505  1087.397
 506  1147.177
 507  1114.829
 508  1097.8
 509  1062.317
 510  1086.602
 511  1062.447
