# Input file       =  1195487547.307883_cleaned.dat
# Candidate        =  PSR_0332+5434
# Telescope        =  AR
# Epoch_topo       =  58080.661647081979
# Epoch_bary       =  N/A
# T_sample         =  0.002
# Data Folded      =  7143424
# Data Avg         =  1.24686652703591 
# Data StdDev      =  13.4620483052502 
# Profile Bins     =  1024
# Profile Avg      =  8698.10701315662 
# Profile StdDev   =  1124.38328435657 
# Reduced chi-sqr  =  0.535
# Prob(Noise)      <  1   (~0.0 sigma)
# P_topo (ms)      =  714.518066395547  +/- 6.78e-05
# P'_topo (s/s)    =  -0                +/- 3.67e-11
# P''_topo (s/s^2) =  0                 +/- 1.67e-14
# P_bary (ms)      =  N/A
# P'_bary (s/s)    =  N/A
# P''_bary (s/s^2) =  N/A
# P_orb (s)        =  N/A
# asin(i)/c (s)    =  N/A
# eccentricity     =  N/A
# w (rad)          =  N/A
# T_peri           =  N/A
######################################################
   0  8038.497
   1  8448.669
   2  8840.947
   3  9062.517
   4  8952.669
   5  8782.724
   6  8751.242
   7  8615.282
   8  8642.411
   9  9196.854
  10  9298.772
  11  8863.364
  12  8786.957
  13  8411.532
  14  8435.407
  15  8415.668
  16  8210.464
  17  8479.773
  18  8411.458
  19  8494.215
  20  8543.26
  21  8607.541
  22  8698.286
  23  8775.971
  24  8861.095
  25  8801.793
  26  8156.65
  27  7759.351
  28  7847.543
  29  8338.733
  30  8587.285
  31  8998.218
  32  8748.846
  33  8840.224
  34  8667.161
  35  8370.052
  36  7968.774
  37  8063.786
  38  8185.474
  39  8445.08
  40  8191.843
  41  8158.382
  42  8105.95
  43  8136.184
  44  8416.112
  45  8460.717
  46  8214.938
  47  8071.366
  48  7990.923
  49  7968.991
  50  8187.961
  51  8326.379
  52  8581.491
  53  8495.36
  54  8335.532
  55  8360.088
  56  8443.609
  57  8440.79
  58  8727.463
  59  8929.042
  60  9523.212
  61  9415.987
  62  8883.578
  63  8613.561
  64  8527.495
  65  8700.639
  66  9030.8
  67  8898.089
  68  8664.567
  69  8725.066
  70  8713.845
  71  8758.95
  72  8344.851
  73  8268.691
  74  8582.965
  75  8468.969
  76  8420.972
  77  8205.812
  78  8283.048
  79  8185.381
  80  8175.117
  81  8287.487
  82  8384.736
  83  8186.54
  84  7972.41
  85  7948.384
  86  7841.717
  87  7831.899
  88  8367.646
  89  8517.78
  90  8562.27
  91  8294.682
  92  8236.412
  93  8573.482
  94  8565.94
  95  8935.247
  96  9157.291
  97  9169.12
  98  9034.496
  99  8657.337
 100  8410.464
 101  8322.105
 102  8176.184
 103  8335.735
 104  8007.696
 105  7771.867
 106  7984.001
 107  8241.688
 108  8370.912
 109  8397.566
 110  8667.319
 111  8834.188
 112  8399.747
 113  8176.836
 114  8533.465
 115  8980.307
 116  9124.899
 117  8927.389
 118  8566.798
 119  8460.632
 120  8549.995
 121  8669.69
 122  8637.764
 123  8966.771
 124  9078.824
 125  9351.937
 126  8535.092
 127  8255.68
 128  8147.487
 129  8365.733
 130  8585.82
 131  8400.291
 132  8700.574
 133  8650.567
 134  8410.513
 135  8448.934
 136  8582.182
 137  8668.332
 138  8722.555
 139  8842.247
 140  8671.234
 141  8449.369
 142  8164.285
 143  7589.09
 144  7639.527
 145  7731.302
 146  8539.277
 147  8291.699
 148  8086.25
 149  7888.227
 150  8012.083
 151  8307.062
 152  8890.799
 153  9491.221
 154  9609.743
 155  9623.45
 156  9460.517
 157  9599.733
 158  9199.613
 159  8894.498
 160  9276.615
 161  9265.336
 162  9154.292
 163  9020.76
 164  8977.434
 165  8501.319
 166  8205.281
 167  8523.154
 168  8915.509
 169  8750.712
 170  8476.906
 171  8446.743
 172  8465.36
 173  8828.112
 174  9147.835
 175  9274.051
 176  9174.216
 177  9051.206
 178  9014.687
 179  8748.655
 180  8278.962
 181  8667.93
 182  9060.736
 183  9277.964
 184  9038.276
 185  8970.929
 186  8989.928
 187  8837.009
 188  8790.965
 189  8977.829
 190  9366.618
 191  9184.757
 192  9093.934
 193  9099.147
 194  8961.616
 195  9130.806
 196  9109.79
 197  9280.809
 198  8906.09
 199  8488.752
 200  8451.183
 201  8532.641
 202  8954.321
 203  9182.468
 204  8742.611
 205  8414.133
 206  8395.257
 207  8479.53
 208  8202.755
 209  8240.506
 210  8294.343
 211  8582.7
 212  8383.015
 213  8657.14
 214  8572.511
 215  8155.47
 216  8161.108
 217  8445.726
 218  8727.322
 219  8621.818
 220  8503.589
 221  8753.982
 222  8607.777
 223  8061.808
 224  7873.842
 225  8374.845
 226  8601.853
 227  8750.25
 228  8374.958
 229  8193.041
 230  8621.613
 231  8905.682
 232  9245.063
 233  8971.193
 234  8844.453
 235  8849.347
 236  8627.806
 237  8213.373
 238  8750.438
 239  9242.373
 240  9341.869
 241  9060.034
 242  8532.013
 243  8732.311
 244  8607.534
 245  8803.126
 246  9152.406
 247  9077.013
 248  8870.151
 249  8666.729
 250  8604.889
 251  8806.673
 252  8588.98
 253  9035.927
 254  9225.588
 255  9121.1
 256  8631.135
 257  8379.933
 258  7977.928
 259  7822.42
 260  8141.398
 261  7997.291
 262  7899.513
 263  7837.677
 264  7992.374
 265  8039.236
 266  8087.213
 267  8513.21
 268  8734.38
 269  8931.845
 270  9040.861
 271  8848.829
 272  8361.544
 273  8030.583
 274  7837.812
 275  8438.456
 276  8480.299
 277  8493.806
 278  8268.701
 279  8365.925
 280  8540.464
 281  8626.27
 282  8536.701
 283  8546.749
 284  8342.923
 285  8046.517
 286  7739.261
 287  7882.723
 288  8168.057
 289  8901.617
 290  8970.686
 291  9074.201
 292  9001.674
 293  9053.996
 294  8839.378
 295  8838.9
 296  8971.58
 297  9150.074
 298  9166.867
 299  9087.667
 300  8685.925
 301  8419.148
 302  8498.304
 303  9075.889
 304  9068.872
 305  8851.695
 306  8836.572
 307  8842.942
 308  8651.141
 309  8213.639
 310  8386.036
 311  8428.06
 312  8257.837
 313  8238.573
 314  8280.605
 315  8291.062
 316  8639.474
 317  8796.204
 318  9087.783
 319  8957.298
 320  8967.374
 321  8823.74
 322  8857.268
 323  8837.583
 324  8898.834
 325  8974.592
 326  8930.758
 327  9251.947
 328  9166.64
 329  8947.123
 330  8793.304
 331  8934.354
 332  9143.169
 333  9216.109
 334  9130.229
 335  9479.454
 336  9171.039
 337  9156.549
 338  9119.639
 339  9068.26
 340  9526.094
 341  9610.196
 342  9441.878
 343  9213.333
 344  8856.116
 345  8972.995
 346  9273.184
 347  9252.252
 348  9513.575
 349  9261.559
 350  9097.043
 351  8800.376
 352  8572.024
 353  8739.818
 354  8934.108
 355  9211.5
 356  9361.513
 357  8860.726
 358  8331.091
 359  8231.172
 360  8171.968
 361  8794.928
 362  9110.794
 363  9412.09
 364  9508.058
 365  9018.458
 366  8868.224
 367  8745.16
 368  8904.191
 369  9087.972
 370  9019.919
 371  9395.026
 372  9345.203
 373  9366.654
 374  9189.34
 375  9130.419
 376  8704.291
 377  8654.709
 378  8758.508
 379  8462.26
 380  8311.094
 381  8270.409
 382  8694.343
 383  9026.474
 384  9157.763
 385  8993.97
 386  8872.866
 387  9185.607
 388  9713.922
 389  9629.933
 390  9227.942
 391  8985.888
 392  9046.351
 393  9206.958
 394  9292.585
 395  8973.179
 396  9021.575
 397  8666.26
 398  8584.599
 399  8677.665
 400  8849.836
 401  8790.643
 402  8895.332
 403  8904.646
 404  9190.469
 405  9220.913
 406  9038.947
 407  8866.083
 408  8670.879
 409  8222.486
 410  7963.553
 411  7879.015
 412  8061.981
 413  8450.101
 414  8584.763
 415  8839.959
 416  8922.091
 417  9052.829
 418  9583.635
 419  9686.566
 420  9826.718
 421  9823.015
 422  9283.812
 423  8848.131
 424  8275.572
 425  8365.621
 426  8535.199
 427  8499.983
 428  8402.705
 429  8200.573
 430  8189.856
 431  8561.393
 432  9256.328
 433  9467.945
 434  9014.972
 435  8710.626
 436  8658.531
 437  8700.489
 438  8283.803
 439  8610.505
 440  8954.837
 441  8821.134
 442  8899.461
 443  8699.94
 444  8526.818
 445  8449.614
 446  9253.33
 447  10265.44
 448  10145.22
 449  9904.902
 450  9453.646
 451  9230.098
 452  9132.416
 453  9138.079
 454  9146.352
 455  8724.863
 456  8718.148
 457  8725.44
 458  8773.523
 459  8549.281
 460  8622.44
 461  9509.174
 462  9582.754
 463  9220.789
 464  8577.941
 465  8997.702
 466  9206.007
 467  9357.5
 468  9448.57
 469  9919.425
 470  9656.588
 471  9517.085
 472  9201.084
 473  9157.147
 474  8840.792
 475  9139.067
 476  9070.066
 477  8579.648
 478  8389.394
 479  8563.905
 480  8589.586
 481  8382.841
 482  8558.33
 483  8811.223
 484  8589.183
 485  8635.137
 486  8700.25
 487  8744.408
 488  8879.347
 489  9031.528
 490  9125.675
 491  8836.67
 492  8475.086
 493  8629.944
 494  8698.147
 495  8586.375
 496  8501.4
 497  8485.609
 498  8353.445
 499  8430.077
 500  8563.833
 501  8932.196
 502  8994.311
 503  9057.36
 504  9429.768
 505  9327.861
 506  9448.591
 507  9479.44
 508  9401.802
 509  9432.651
 510  8984.035
 511  9036.189
 512  8841.569
 513  8402.417
 514  8379.092
 515  8407.775
 516  8462.9
 517  8481.885
 518  8928.203
 519  9196.646
 520  9019.188
 521  8788.231
 522  8653.987
 523  8899.887
 524  8576.5
 525  8396.393
 526  8066.34
 527  7909.712
 528  8168.535
 529  8249.952
 530  8024.37
 531  7659.955
 532  7323.497
 533  7973.076
 534  7842.812
 535  8198.871
 536  8162.805
 537  8429.162
 538  8563.798
 539  8460.467
 540  8332.1
 541  7913.773
 542  8136.392
 543  8152.652
 544  8299.812
 545  8104.358
 546  8232.705
 547  8937.616
 548  9255.516
 549  9599.586
 550  9428.082
 551  9189.842
 552  9466.596
 553  8992.464
 554  9079.18
 555  9010.194
 556  9126.149
 557  9305.023
 558  9053.901
 559  9050.327
 560  8770.241
 561  9079.698
 562  9219.444
 563  9059.348
 564  9127.354
 565  8866.32
 566  8985.462
 567  8825.104
 568  8963.135
 569  8752.213
 570  8570.467
 571  8606.534
 572  8982.565
 573  8606.14
 574  8840.24
 575  8874.294
 576  9159.913
 577  8670.146
 578  8478.62
 579  8433.622
 580  8311.911
 581  7930.306
 582  7999.001
 583  8069.746
 584  8370.154
 585  8738.304
 586  8680.998
 587  8174.614
 588  7911.799
 589  7956.555
 590  8437.151
 591  8563.305
 592  8440.015
 593  8285.471
 594  8090.297
 595  8266.645
 596  8704.724
 597  8988.719
 598  9196.635
 599  9173.234
 600  9018.759
 601  9060.207
 602  8911.361
 603  8964.031
 604  9234.277
 605  9277.042
 606  9125.78
 607  8955.598
 608  8870.336
 609  9244.411
 610  8981.844
 611  9387.547
 612  9253.045
 613  9199.833
 614  9008.492
 615  8879.277
 616  8600.515
 617  8366.177
 618  8258.452
 619  8674.61
 620  9114.953
 621  9380.76
 622  9227.072
 623  8898.654
 624  8923.159
 625  9273.256
 626  9502.492
 627  9351.573
 628  9351.599
 629  9771.807
 630  9811.2
 631  9622.986
 632  9454.148
 633  9613.973
 634  9273.172
 635  8938.296
 636  8754.525
 637  8676.494
 638  8514.244
 639  8209.277
 640  8367.374
 641  8624.627
 642  8976.999
 643  8940.631
 644  8960.621
 645  9136.406
 646  8919.799
 647  9412.927
 648  9125.23
 649  9319.097
 650  9324.211
 651  9328.267
 652  9226.287
 653  8884.213
 654  8778.141
 655  8585.346
 656  8607.838
 657  8586.786
 658  8470.614
 659  8588.602
 660  8864.515
 661  8947.104
 662  8928.208
 663  8936.237
 664  9112.239
 665  9183.284
 666  8814.93
 667  8569.547
 668  8699.022
 669  8769.002
 670  8661.793
 671  8613.997
 672  8275.337
 673  8197.262
 674  8164
 675  8436.186
 676  8672.026
 677  8871.666
 678  8777.169
 679  9022.806
 680  9049.132
 681  9536.678
 682  9587.753
 683  9537.398
 684  9196.115
 685  8551.303
 686  8561.97
 687  8416.684
 688  8414.41
 689  8801.288
 690  9220.004
 691  9175.668
 692  9122.345
 693  8900.458
 694  8896.594
 695  8688.185
 696  8593.895
 697  8583.547
 698  8818.919
 699  8961.734
 700  9083.215
 701  9010.259
 702  9303.884
 703  9723.133
 704  9621.316
 705  9636.475
 706  9244.645
 707  9090.258
 708  8938.892
 709  8823.285
 710  8644.995
 711  9057.021
 712  9066.258
 713  9034.951
 714  8971.682
 715  8776.124
 716  8982.15
 717  8692.134
 718  9155.691
 719  9779.95
 720  9501.63
 721  9311.932
 722  8998.247
 723  9161.42
 724  9203.604
 725  8830.863
 726  8743.571
 727  8777.289
 728  9019.279
 729  9215.36
 730  9413.132
 731  9064.641
 732  9287.896
 733  9289.013
 734  9424.412
 735  9366.934
 736  8978.766
 737  8817.048
 738  8892.163
 739  9001.31
 740  9228.411
 741  8971.867
 742  8632.172
 743  8129.393
 744  7818.018
 745  7686.175
 746  8043.54
 747  8583.91
 748  8996.249
 749  8777.572
 750  8579.848
 751  8773.72
 752  9234.958
 753  9025.557
 754  8949.003
 755  8876.716
 756  9203.023
 757  9162.874
 758  8616.554
 759  8137.772
 760  7454.83
 761  7815.074
 762  8201.208
 763  7972.886
 764  7960.335
 765  8339.499
 766  8226.391
 767  8206.638
 768  8020.602
 769  8241.294
 770  8010.546
 771  7951.49
 772  7734.591
 773  7578.812
 774  7094.554
 775  7365.604
 776  8038.065
 777  8345.667
 778  8635.589
 779  8675.09
 780  8679.062
 781  8207.941
 782  7685.711
 783  7913.753
 784  8023.909
 785  8279.191
 786  8339.882
 787  8325.079
 788  8200.124
 789  8203.505
 790  8389.833
 791  8656.049
 792  8788.875
 793  8743.034
 794  9025.199
 795  8863.407
 796  8494.762
 797  8580.129
 798  8345.367
 799  8289.61
 800  8371.039
 801  8875.482
 802  9144.257
 803  8762.489
 804  8678.711
 805  8672.593
 806  8407.185
 807  8255.148
 808  8232.655
 809  8058.354
 810  7935.299
 811  7992.229
 812  8495.494
 813  8769.14
 814  9188.022
 815  9290.739
 816  9251.904
 817  9176.84
 818  9570.489
 819  9848.994
 820  9537.137
 821  9007.761
 822  8971.938
 823  8627.793
 824  8396.635
 825  8340.714
 826  8888.45
 827  8580.856
 828  8705.915
 829  8887.278
 830  9094.921
 831  8560.761
 832  9036.93
 833  9150.177
 834  9222.013
 835  8676.219
 836  8468.817
 837  8442.531
 838  8340.406
 839  8079.818
 840  8578.475
 841  8932.532
 842  9108.179
 843  9057.453
 844  8790.184
 845  9010.756
 846  8883.406
 847  9072.34
 848  9206.282
 849  8918.009
 850  8701.582
 851  8308.395
 852  8493.685
 853  8908.42
 854  8726.703
 855  8471.747
 856  8301.299
 857  8403.308
 858  8219.676
 859  8450.678
 860  8650.75
 861  9081.503
 862  9231.198
 863  8943.321
 864  8740.814
 865  8181.027
 866  7964.949
 867  7831.045
 868  7873.824
 869  7918.294
 870  7523.925
 871  7559.294
 872  7528.818
 873  7896.05
 874  7750.513
 875  8140.624
 876  8106.628
 877  8564.552
 878  8447.81
 879  8371.475
 880  8505.412
 881  8723.793
 882  8882.715
 883  8784.446
 884  8452.067
 885  8598.189
 886  8686.445
 887  8553.704
 888  8037.896
 889  7712.554
 890  7747.96
 891  8087.621
 892  8155.469
 893  8115.047
 894  7968.534
 895  7848.03
 896  8051.794
 897  8343.904
 898  8836.264
 899  9039.766
 900  9039.356
 901  8661.069
 902  8672.764
 903  8360.912
 904  8591.56
 905  8419.604
 906  8155.243
 907  7952.251
 908  7892.546
 909  8076.009
 910  8292.436
 911  8261.304
 912  8629.517
 913  8467.463
 914  8366.704
 915  8102.327
 916  8390.15
 917  8812.932
 918  9438.69
 919  9285.595
 920  9073.574
 921  8554.461
 922  8115.104
 923  7871.796
 924  8209.687
 925  8073.659
 926  8257.962
 927  8216.023
 928  8514.216
 929  8831.62
 930  8806.023
 931  8876.953
 932  8581.67
 933  8501.031
 934  8450.759
 935  8112.503
 936  8093.155
 937  8003.85
 938  7753.113
 939  8102.14
 940  8354.703
 941  8456.955
 942  8074.539
 943  8321.511
 944  8686.829
 945  8660.524
 946  8296.073
 947  8219.576
 948  8412.856
 949  8585.033
 950  8763.997
 951  8470.882
 952  7884.263
 953  7844.984
 954  7919.833
 955  8293.933
 956  8266.453
 957  8113.222
 958  8563.854
 959  8912.988
 960  8921.784
 961  8929.45
 962  8802.123
 963  8944.419
 964  8875.262
 965  8827.816
 966  8543.979
 967  8007.15
 968  8092.928
 969  8793.524
 970  8728.189
 971  8551.087
 972  8413.328
 973  8534.255
 974  8614.146
 975  8627.599
 976  8686.038
 977  8714.501
 978  8378.857
 979  8492.958
 980  8560.701
 981  8270.023
 982  8414.849
 983  8725.902
 984  8900.351
 985  8950.42
 986  8798.338
 987  8844.804
 988  8957.56
 989  8833.782
 990  8938.79
 991  8955.414
 992  9033.276
 993  8854.309
 994  8783.047
 995  8560.987
 996  8779.115
 997  8665.741
 998  9005.098
 999  8949.687
1000  8874.489
1001  8653.497
1002  8671.313
1003  8589.513
1004  8984.628
1005  8934.625
1006  9182.835
1007  9093.648
1008  8771.143
1009  8743.897
1010  8628.688
1011  8739.859
1012  8983.354
1013  8844.111
1014  9022.31
1015  9295.315
1016  9295.021
1017  9095.924
1018  8695.298
1019  8772.902
1020  8936.294
1021  8397.897
1022  8037.533
1023  8180.804
