# Input file       =  1195947911.114979_cleaned.dat
# Candidate        =  PSR_0332+5434
# Telescope        =  AR
# Epoch_topo       =  58085.989931886332
# Epoch_bary       =  N/A
# T_sample         =  0.002
# Data Folded      =  7340032
# Data Avg         =  0.192872377568814
# Data StdDev      =  6.89188237775365 
# Profile Bins     =  1024
# Profile Avg      =  1382.51179246339 
# Profile StdDev   =  583.494618772629 
# Reduced chi-sqr  =  0.587
# Prob(Noise)      <  1   (~0.0 sigma)
# P_topo (ms)      =  714.523950388071  +/- 3.57e-05
# P'_topo (s/s)    =  -0                +/- 1.88e-11
# P''_topo (s/s^2) =  0                 +/- 8.31e-15
# P_bary (ms)      =  N/A
# P'_bary (s/s)    =  N/A
# P''_bary (s/s^2) =  N/A
# P_orb (s)        =  N/A
# asin(i)/c (s)    =  N/A
# eccentricity     =  N/A
# w (rad)          =  N/A
# T_peri           =  N/A
######################################################
   0  1262.103
   1  1246.242
   2  1572.017
   3  1695.822
   4  1690.088
   5  1833.858
   6  1962.033
   7  2145.98
   8  2244.753
   9  2193.634
  10  1732.072
  11  1416.781
  12  1398.186
  13  1652.1
  14  1528.688
  15  1569.302
  16  1613.422
  17  1739.26
  18  1591.77
  19  1504.266
  20  1374.089
  21  1508.113
  22  1508.348
  23  1516.813
  24  1404.757
  25  1148.158
  26  1140.124
  27  1351.224
  28  1396.609
  29  1235.799
  30  1199.704
  31  1328.063
  32  1388.043
  33  1349.853
  34  1460.209
  35  1536.627
  36  1549.207
  37  1638.425
  38  1701.196
  39  1580.094
  40  1550.324
  41  1715.936
  42  1675.807
  43  1572.03
  44  1453.936
  45  1635.618
  46  1646.175
  47  1361.79
  48  1448.463
  49  1461.754
  50  1601.544
  51  1664.256
  52  1622.663
  53  1461.045
  54  1390.939
  55  1500.638
  56  1629.32
  57  1588.8
  58  1728.636
  59  1798.307
  60  1803.207
  61  1770.719
  62  1709.573
  63  1523.113
  64  1587.596
  65  1615.724
  66  1730.466
  67  1706.623
  68  1639.206
  69  1551.569
  70  1553.563
  71  1568.226
  72  1506.641
  73  1484.557
  74  1452.823
  75  1522.259
  76  1509.478
  77  1458.503
  78  1745.211
  79  1981.144
  80  2200.124
  81  1917.467
  82  1580.075
  83  1515.357
  84  1679.935
  85  1711.302
  86  1695.514
  87  1519.656
  88  1520.831
  89  1476.325
  90  1437.19
  91  1442.51
  92  1354.833
  93  1332.933
  94  1466.46
  95  1306.262
  96  1267.603
  97  1243.271
  98  1418.263
  99  1624.613
 100  1700.468
 101  1681.812
 102  1580.133
 103  1304.547
 104  1127.409
 105  1040.984
 106  1154.633
 107  1442.301
 108  1664.801
 109  1582.062
 110  1371.103
 111  1213.466
 112  1302.703
 113  1658.215
 114  1627.29
 115  1486.121
 116  1526.244
 117  1491.736
 118  1471.867
 119  1180.323
 120  1218.227
 121  1364.008
 122  1537.329
 123  1569.397
 124  1330.607
 125  1165.38
 126  1269.228
 127  1331.734
 128  1232.841
 129  1410.935
 130  1581.12
 131  1562.933
 132  1362.665
 133  1278.71
 134  1314.709
 135  1321.307
 136  1461.563
 137  1661.851
 138  1631.867
 139  1294.863
 140  1196.433
 141  1321.5
 142  1373.26
 143  1347.315
 144  1173.138
 145  1383.942
 146  1347.601
 147  1424.022
 148  1503.097
 149  1691.787
 150  1917.793
 151  1880.419
 152  1717.863
 153  1480.637
 154  1389.926
 155  1483.886
 156  1743.191
 157  1723.063
 158  1682.836
 159  1646.393
 160  1508.495
 161  1689.138
 162  1594.739
 163  1423.18
 164  1250.893
 165  1298.13
 166  1512.812
 167  1605.595
 168  1620.162
 169  1764.065
 170  1758.43
 171  1638.209
 172  1317.477
 173  1160.146
 174  1247.946
 175  1515.147
 176  1384.308
 177  1499.77
 178  1487.735
 179  1627.356
 180  1778.598
 181  1660.094
 182  1439.706
 183  1514.161
 184  1695.302
 185  1912.31
 186  1606.693
 187  1421.437
 188  1333.351
 189  1411.506
 190  1333.27
 191  1556.028
 192  1449.634
 193  1766.164
 194  1757.18
 195  1673.396
 196  1427.418
 197  1054.044
 198  1225.304
 199  1382.135
 200  1474.119
 201  1296.018
 202  1375.84
 203  1489.36
 204  1727.027
 205  1635.416
 206  1554.226
 207  1314.622
 208  1380.848
 209  1548.559
 210  1512.29
 211  1198.958
 212  1158.024
 213  1278.357
 214  1420.785
 215  1350.251
 216  1309.887
 217  1442.174
 218  1557.844
 219  1594.953
 220  1476.233
 221  1216.691
 222  1208.265
 223  1411.839
 224  1551.887
 225  1583.869
 226  1647.706
 227  1778.303
 228  1849.071
 229  1733.855
 230  1666.187
 231  1793.402
 232  1931.396
 233  1989.531
 234  1904.191
 235  1557.507
 236  1409.64
 237  1480.366
 238  1509.574
 239  1411.203
 240  1174.875
 241  1289.083
 242  1503.664
 243  1556.655
 244  1441.509
 245  1356.063
 246  1203.818
 247  1152.346
 248  1074.541
 249  1179.888
 250  1250.518
 251  1367.351
 252  1449.757
 253  1404.119
 254  1174.057
 255  1083.633
 256  1337.417
 257  1480.987
 258  1528.782
 259  1388.526
 260  1347.326
 261  1465.181
 262  1493.501
 263  1737.826
 264  1737.219
 265  1854.968
 266  1906.765
 267  1965.558
 268  1943.085
 269  1942.253
 270  1889.285
 271  1935.743
 272  1800.52
 273  1554.529
 274  1421.914
 275  1320.642
 276  1322.703
 277  1327.389
 278  1316.62
 279  1321.871
 280  1424.038
 281  1411.857
 282  1317.068
 283  1010.024
 284  962.7546
 285  1142.07
 286  1060.483
 287  941.9127
 288  870.9341
 289  990.0436
 290  1123.889
 291  1151.239
 292  1260.896
 293  1450.085
 294  1602.303
 295  1691.558
 296  1568.287
 297  1320.532
 298  1391.306
 299  1391.759
 300  1548.697
 301  1656.242
 302  1384.576
 303  1135.596
 304  969.3261
 305  1232.429
 306  1424.401
 307  1591.517
 308  1521.332
 309  1668.568
 310  1585.381
 311  1365.498
 312  1330.186
 313  1416.202
 314  1717.832
 315  1780.078
 316  1724.185
 317  1621.818
 318  1343.813
 319  1257.876
 320  1449.374
 321  1597.882
 322  1621.324
 323  1503.077
 324  1371.893
 325  1328.897
 326  1305.55
 327  1263.034
 328  1438.933
 329  1432.101
 330  1459.625
 331  1180.162
 332  949.1157
 333  896.5596
 334  932.7382
 335  895.2029
 336  971.525
 337  1018.987
 338  1154.066
 339  1194.975
 340  913.4285
 341  914.3177
 342  985.3499
 343  1285.241
 344  1323.197
 345  1224.423
 346  1288.489
 347  1334.556
 348  1261.03
 349  1371.519
 350  1463.524
 351  1499.676
 352  1451.358
 353  1241.916
 354  968.1692
 355  918.2422
 356  1003.074
 357  1112.206
 358  996.1926
 359  1004.415
 360  1172.146
 361  1289.9
 362  1403.197
 363  1434.87
 364  1314.665
 365  1239.782
 366  1296.834
 367  1356.551
 368  1465.324
 369  1375.641
 370  1363.988
 371  1372.898
 372  1314.21
 373  1356.169
 374  1282.974
 375  1381.472
 376  1596.96
 377  1745.031
 378  1619.399
 379  1588.649
 380  1606.673
 381  1639.689
 382  1562.764
 383  1313.685
 384  1358.969
 385  1420.33
 386  1524.374
 387  1501.181
 388  1463.415
 389  1283.739
 390  1362.101
 391  1440.374
 392  1486.145
 393  1487.896
 394  1435.516
 395  1803.486
 396  1582.217
 397  1382.939
 398  1499.861
 399  1615.38
 400  1758.324
 401  1634.229
 402  1402.801
 403  1319.38
 404  1255.49
 405  1555.783
 406  1636.155
 407  1429.302
 408  1506.624
 409  1775.821
 410  1826.195
 411  1785.197
 412  1673.889
 413  1600.666
 414  1685.705
 415  1676.173
 416  1888.647
 417  1766.192
 418  1741.375
 419  1803.065
 420  1898.695
 421  1767.476
 422  1712.247
 423  1608.246
 424  1733.286
 425  1753.388
 426  1534.451
 427  1575.935
 428  1790.335
 429  1801.848
 430  1724.254
 431  1507.955
 432  1613.574
 433  1734.879
 434  1794.679
 435  1688.527
 436  1382.1
 437  1339.274
 438  1583.024
 439  1531.594
 440  1391.708
 441  1334.33
 442  1319.849
 443  1339.778
 444  1219.105
 445  1243.715
 446  1315.088
 447  1198.325
 448  1381.983
 449  1657.795
 450  1892.295
 451  2128.181
 452  2033.394
 453  1872.063
 454  1636.59
 455  1382.782
 456  1391.536
 457  1626.885
 458  1659.79
 459  1653.093
 460  1470.96
 461  1424.693
 462  1238.42
 463  1212.029
 464  1367.326
 465  1564.645
 466  1592.161
 467  1661.336
 468  1457.165
 469  1128.631
 470  984.618
 471  1105.396
 472  1113.911
 473  1040.044
 474  970.967
 475  1128.457
 476  1334.175
 477  1295.236
 478  1267.141
 479  1153.952
 480  1270.385
 481  1546.799
 482  1624.831
 483  1493.882
 484  1421.008
 485  1411.339
 486  1631.975
 487  1615.658
 488  1668.829
 489  1551.724
 490  1615.692
 491  1617.089
 492  1844.572
 493  1545.113
 494  1489.272
 495  1508.34
 496  1489.206
 497  1576.394
 498  1529.121
 499  1666.587
 500  1668.832
 501  1494.254
 502  1535.746
 503  1611.025
 504  1465.949
 505  1287.169
 506  1180.361
 507  1104.154
 508  1290.978
 509  1286.063
 510  1490.469
 511  1346.406
 512  1068.303
 513  1173.532
 514  1403.804
 515  1497.597
 516  1592.241
 517  1359.051
 518  1242.198
 519  1200.157
 520  1300.59
 521  1466.266
 522  1351.501
 523  1349.03
 524  1406.396
 525  1144.37
 526  939.431
 527  924.7657
 528  1332.937
 529  1620.862
 530  1415.105
 531  1193.992
 532  1058.801
 533  1071.581
 534  1139.102
 535  1194.487
 536  1008.285
 537  1153.983
 538  1270.755
 539  1330.355
 540  1101.51
 541  1085.224
 542  990.9353
 543  1110.362
 544  1217.295
 545  1420.706
 546  1355.259
 547  1380.297
 548  1627.929
 549  1548.526
 550  1300.935
 551  1206.868
 552  1422.402
 553  1454.786
 554  1445.242
 555  1267.422
 556  1300.803
 557  1324.337
 558  1424.801
 559  1611.138
 560  1405.453
 561  1178.864
 562  1119.04
 563  1256.72
 564  1288.546
 565  1428.482
 566  1496.058
 567  1472.421
 568  1171.912
 569  956.6436
 570  1050.911
 571  1262.619
 572  1480.48
 573  1360.163
 574  1059.479
 575  1064.716
 576  1079.162
 577  1024.212
 578  1172.474
 579  1131.026
 580  1146.886
 581  1104.702
 582  1181.443
 583  1427.729
 584  1326.077
 585  1250.324
 586  1270.014
 587  1247.948
 588  1277.714
 589  1125.076
 590  1044.94
 591  1024.862
 592  1007.886
 593  981.8948
 594  925.4403
 595  914.28
 596  1074.276
 597  1077.686
 598  908.1301
 599  1018.273
 600  1197.01
 601  1297.816
 602  1377.343
 603  1418.108
 604  1316.841
 605  1306.666
 606  1424.417
 607  1538.215
 608  1201.219
 609  1088.635
 610  1352.367
 611  1498.954
 612  1228.359
 613  1132.597
 614  1136.07
 615  1360.96
 616  1412.926
 617  1493.185
 618  1426.616
 619  1234.469
 620  1251.204
 621  1142.889
 622  1068.166
 623  1105.905
 624  1546.771
 625  1425.074
 626  1452.426
 627  1328.143
 628  1462.71
 629  1624.657
 630  1742.365
 631  1867.738
 632  1400.01
 633  1322.785
 634  1351.136
 635  1491.377
 636  1166.872
 637  955.7155
 638  1002.628
 639  1032.04
 640  1040.168
 641  851.4628
 642  851.0322
 643  931.5737
 644  1232.586
 645  1397.891
 646  1150.906
 647  966.597
 648  1123.446
 649  1384.338
 650  1491.708
 651  1408.35
 652  1437.123
 653  1573.402
 654  1583.48
 655  1482.006
 656  1441.324
 657  1443.64
 658  1530.688
 659  1508.899
 660  1387.405
 661  1464.153
 662  1432.506
 663  1483.268
 664  1624.834
 665  1441.503
 666  1304.447
 667  1175.885
 668  1240.795
 669  1260.498
 670  1015.234
 671  1063.801
 672  1179.637
 673  1202.211
 674  1236.454
 675  1164.543
 676  1050.817
 677  1225.299
 678  1260.123
 679  1337.014
 680  1199.151
 681  1391.823
 682  1535.846
 683  1516.049
 684  1100.659
 685  916.6664
 686  946.7158
 687  1123.657
 688  1296.434
 689  1155.995
 690  1183.501
 691  1273.686
 692  1391.381
 693  1538.466
 694  1450.567
 695  1331.423
 696  1434.012
 697  1438.5
 698  1270.246
 699  1057.246
 700  1087.424
 701  1376.936
 702  1348.139
 703  1401.918
 704  1216.394
 705  1212.051
 706  1332.803
 707  1327.882
 708  1172.811
 709  1175.81
 710  1425.946
 711  1481.766
 712  1445.021
 713  1425.458
 714  1338.314
 715  1422.837
 716  1492.432
 717  1540.736
 718  1311.047
 719  1296.434
 720  1497.267
 721  1682.919
 722  1595.633
 723  1610.094
 724  1644.49
 725  1506.824
 726  1357.99
 727  1132.961
 728  1346.985
 729  1570.958
 730  1815.965
 731  1851.124
 732  1574.83
 733  1107.427
 734  921.6232
 735  1097.744
 736  1267.043
 737  1069.387
 738  1023.026
 739  1325.609
 740  1268.837
 741  1072.353
 742  1022.356
 743  1160.581
 744  1407.614
 745  1351.594
 746  1283.314
 747  1220.835
 748  1300.774
 749  1303.145
 750  1409.797
 751  1368.724
 752  1502.494
 753  1554.493
 754  1556.847
 755  1402.141
 756  1149.694
 757  965.8049
 758  1096.045
 759  1187.884
 760  1212.675
 761  1071.426
 762  895.8862
 763  1139.094
 764  1377.531
 765  1492.155
 766  1497.883
 767  1397.477
 768  1428.725
 769  1389.618
 770  1262.302
 771  1394.459
 772  1425.069
 773  1411.482
 774  1476.078
 775  1236.023
 776  1205.394
 777  1245.788
 778  1479.898
 779  1547.718
 780  1312.942
 781  1180.501
 782  1364.431
 783  1472.66
 784  1670.352
 785  1657.799
 786  1548.724
 787  1582.469
 788  1492.181
 789  1381.68
 790  1191.378
 791  1185.895
 792  1393.524
 793  1451.272
 794  1182.664
 795  1052.559
 796  1187.129
 797  1272.488
 798  1277.679
 799  1141.514
 800  1057.333
 801  1197.418
 802  1523.619
 803  1598.895
 804  1434.695
 805  1274.145
 806  1401.176
 807  1469.026
 808  1286.579
 809  1228.81
 810  1184.747
 811  1394.392
 812  1509.657
 813  1204.922
 814  1134.892
 815  1059.747
 816  1263.632
 817  1303.175
 818  1257.572
 819  1032.369
 820  1107.286
 821  1304.914
 822  1489.946
 823  1357.35
 824  1209.248
 825  1303.651
 826  1201.172
 827  1140.292
 828  1160.343
 829  1220.414
 830  1415.038
 831  1465.056
 832  1499.373
 833  1417.278
 834  1408.114
 835  1517.117
 836  1569.631
 837  1328.774
 838  1364.492
 839  1652.95
 840  1717.857
 841  1653.956
 842  1525.718
 843  1627.179
 844  1478.305
 845  1350.967
 846  1450.381
 847  1617.088
 848  1445.411
 849  1629.648
 850  1625.296
 851  1592.938
 852  1492.145
 853  1615.049
 854  1897.74
 855  1838.647
 856  1493.036
 857  1435.084
 858  1355.097
 859  1435.657
 860  1535.518
 861  1378.316
 862  1273.582
 863  1307.047
 864  1553.885
 865  1718.909
 866  1600.42
 867  1512.94
 868  1475.521
 869  1434.757
 870  1335.842
 871  1110.114
 872  1082.195
 873  1245.499
 874  1486.96
 875  1413.704
 876  1319.057
 877  1156.493
 878  1179.876
 879  1326.631
 880  1284.071
 881  1214.728
 882  1276.804
 883  1026.578
 884  1140.63
 885  851.1004
 886  918.5479
 887  890.1017
 888  973.7996
 889  1101.81
 890  1019.885
 891  853.8891
 892  986.7023
 893  1121.677
 894  1293.125
 895  1134.917
 896  1146.232
 897  1187.298
 898  1063.716
 899  818.164
 900  705.0416
 901  917.4374
 902  1155.837
 903  1449.516
 904  1390.688
 905  1101.146
 906  1065.618
 907  967.4701
 908  974.705
 909  877.6649
 910  1086.106
 911  1552.705
 912  1536.3
 913  1382.6
 914  1161.1
 915  1177.311
 916  1221.952
 917  1190.72
 918  1122.654
 919  1053.669
 920  986.2516
 921  1056.792
 922  1270.04
 923  1036.544
 924  836.0626
 925  783.6158
 926  764.7534
 927  963.4124
 928  789.6936
 929  823.0215
 930  958.9465
 931  1049.263
 932  1085.241
 933  723.1983
 934  448.9184
 935  468.1316
 936  754.374
 937  823.2313
 938  852.2888
 939  871.6506
 940  1144.383
 941  1082.433
 942  1034.248
 943  1237.113
 944  1517.486
 945  1622.829
 946  1782.48
 947  1751.255
 948  1581.892
 949  1420.27
 950  1444.688
 951  1642.68
 952  1398.277
 953  1286.546
 954  1277.06
 955  1220.513
 956  1203.024
 957  1317.461
 958  1476.344
 959  1529.226
 960  1626.94
 961  1421.656
 962  1430.243
 963  1111.011
 964  939.574
 965  980.0658
 966  861.7087
 967  980.9745
 968  1154.561
 969  1502.895
 970  1810.387
 971  1591.182
 972  1439.323
 973  1414.479
 974  1541.697
 975  1675.892
 976  1484.735
 977  1231.215
 978  1104.683
 979  1120.202
 980  1110.841
 981  1113.95
 982  1141.512
 983  1246.71
 984  1274.761
 985  1235.05
 986  1275.634
 987  1304.844
 988  1301.609
 989  1494.984
 990  1361.259
 991  1250.8
 992  1184.234
 993  1049.868
 994  1104.615
 995  990.0244
 996  1165.132
 997  1355.386
 998  1438.755
 999  1334.212
1000  1482.462
1001  1523.144
1002  1619.839
1003  1481.381
1004  1438.452
1005  1483.24
1006  1351.736
1007  1264.968
1008  1202.008
1009  1283.247
1010  1427.766
1011  1681.77
1012  1773.261
1013  1891.624
1014  1672.958
1015  1748.832
1016  1945.909
1017  2018.301
1018  1730.877
1019  1409.908
1020  1182.046
1021  1287.248
1022  1257.845
1023  1261.448
