# Input file       =  1195832188.113894_cleaned.dat
# Candidate        =  PSR_0332+5434
# Telescope        =  AR
# Epoch_topo       =  58084.650545299701
# Epoch_bary       =  N/A
# T_sample         =  0.002
# Data Folded      =  7208960
# Data Avg         =  0.042615808125844
# Data StdDev      =  1.00024512718123 
# Profile Bins     =  512
# Profile Avg      =  600.021443582774 
# Profile StdDev   =  118.68826238282  
# Reduced chi-sqr  =  0.652
# Prob(Noise)      <  1   (~0.0 sigma)
# P_topo (ms)      =  714.522201499049  +/- 0.000288
# P'_topo (s/s)    =  -0                +/- 1.55e-10
# P''_topo (s/s^2) =  0                 +/- 6.95e-14
# P_bary (ms)      =  N/A
# P'_bary (s/s)    =  N/A
# P''_bary (s/s^2) =  N/A
# P_orb (s)        =  N/A
# asin(i)/c (s)    =  N/A
# eccentricity     =  N/A
# w (rad)          =  N/A
# T_peri           =  N/A
######################################################
   0  637.0644
   1  676.8309
   2  723.5418
   3  582.1932
   4  500.1782
   5  473.9838
   6  544.1438
   7  624.8677
   8  633.3273
   9  558.1737
  10  527.4855
  11  640.3111
  12  570.5555
  13  531.6775
  14  619.7305
  15  660.1951
  16  557.4599
  17  549.4828
  18  483.5839
  19  472.9704
  20  555.756
  21  660.2508
  22  743.5864
  23  657.5373
  24  625.6821
  25  596.2076
  26  561.7985
  27  568.3769
  28  498.6453
  29  523.4477
  30  546.8887
  31  587.4009
  32  658.3895
  33  627.7983
  34  686.0494
  35  663.9202
  36  631.843
  37  560.8696
  38  538.4977
  39  666.6028
  40  692.2842
  41  670.139
  42  615.9709
  43  550.2717
  44  538.6478
  45  585.7131
  46  489.1638
  47  549.436
  48  553.1617
  49  613.7676
  50  578.2988
  51  547.2182
  52  543.1901
  53  656.9846
  54  705.6664
  55  644.5256
  56  641.4105
  57  606.098
  58  565.4569
  59  544.2859
  60  605.1135
  61  647.1929
  62  584.4572
  63  671.6092
  64  667.7118
  65  615.6794
  66  604.6011
  67  589.7789
  68  597.3109
  69  583.6104
  70  548.4219
  71  589.2888
  72  510.9901
  73  529.4618
  74  542.9874
  75  600.7831
  76  563.6396
  77  560.5862
  78  613.9351
  79  525.7288
  80  549.4484
  81  616.326
  82  611.2699
  83  676.3735
  84  667.3357
  85  633.3922
  86  637.1301
  87  780.6996
  88  877.7083
  89  821.3706
  90  910.7087
  91  872.4922
  92  852.1108
  93  698.7271
  94  697.0953
  95  577.2332
  96  543.9683
  97  516.3092
  98  480.5344
  99  638.488
 100  616.0013
 101  660.3582
 102  587.1721
 103  615.4227
 104  720.5979
 105  755.7985
 106  696.9316
 107  625.0043
 108  536.5438
 109  566.7986
 110  614.2977
 111  682.7033
 112  594.4049
 113  568.1779
 114  580.1982
 115  588.3555
 116  615.8758
 117  621.2504
 118  697.5171
 119  654.5916
 120  656.377
 121  697.2524
 122  617.4178
 123  606.4949
 124  557.0667
 125  443.2145
 126  607.3571
 127  541.4966
 128  610.2522
 129  618.2573
 130  607.0098
 131  665.9825
 132  666.5469
 133  600.0565
 134  578.3929
 135  659.1401
 136  623.0825
 137  497.9687
 138  534.6591
 139  558.5027
 140  656.5282
 141  589.4415
 142  593.8231
 143  608.6273
 144  629.1395
 145  609.7808
 146  614.09
 147  661.5128
 148  662.6177
 149  639.7016
 150  553.3994
 151  537.7554
 152  510.8923
 153  612.8659
 154  683.9268
 155  638.9402
 156  581.0317
 157  687.965
 158  662.3959
 159  660.8946
 160  642.3147
 161  534.7073
 162  497.9151
 163  553.2404
 164  649.7403
 165  631.5855
 166  594.9128
 167  581.0941
 168  550.3011
 169  520.8157
 170  522.9911
 171  557.1261
 172  592.9886
 173  498.6496
 174  505.3927
 175  474.3914
 176  490.6328
 177  590.6758
 178  618.5774
 179  708.4753
 180  676.9967
 181  588.2602
 182  566.0725
 183  488.5692
 184  541.2715
 185  533.9764
 186  446.9684
 187  558.3993
 188  650.6956
 189  527.1194
 190  567.1796
 191  587.4487
 192  592.1428
 193  563.8082
 194  535.0532
 195  577.4724
 196  589.7783
 197  668.8156
 198  600.6759
 199  482.3818
 200  455.8513
 201  452.0493
 202  525.3791
 203  659.2418
 204  724.5248
 205  662.8694
 206  612.1708
 207  637.3975
 208  560.1146
 209  481.2323
 210  521.5713
 211  623.463
 212  599.3663
 213  568.0353
 214  662.2158
 215  728.4231
 216  661.3912
 217  662.4124
 218  678.0752
 219  631.8301
 220  546.6966
 221  624.9977
 222  697.4836
 223  580.4786
 224  577.5546
 225  545.1665
 226  685.2054
 227  661.5222
 228  636.8896
 229  612.6625
 230  664.6472
 231  755.8178
 232  728.7601
 233  728.8541
 234  684.0888
 235  654.0923
 236  673.4785
 237  633.257
 238  602.9276
 239  602.8838
 240  717.1205
 241  629.0257
 242  596.0694
 243  611.3984
 244  604.4142
 245  595.8564
 246  590.6068
 247  585.0793
 248  598.9493
 249  631.6094
 250  629.8277
 251  610.1922
 252  546.0028
 253  643.0208
 254  645.6255
 255  588.5095
 256  610.2123
 257  582.9101
 258  602.6545
 259  556.6247
 260  567.0413
 261  594.8304
 262  570.9259
 263  548.4539
 264  641.8975
 265  599.7845
 266  584.012
 267  567.44
 268  621.5593
 269  628.0792
 270  571.5372
 271  632.2283
 272  586.1892
 273  606.7463
 274  632.5631
 275  637.6769
 276  719.0392
 277  673.6014
 278  596.2664
 279  630.4727
 280  700.2878
 281  570.5836
 282  522.4193
 283  615.1938
 284  544.4853
 285  645.1293
 286  594.5381
 287  461.1928
 288  565.6893
 289  499.8363
 290  534.1404
 291  547.2531
 292  672.5911
 293  595.0692
 294  439.107
 295  431.7906
 296  439.5473
 297  470.3873
 298  540.4645
 299  627.0645
 300  540.57
 301  631.4472
 302  503.4312
 303  543.5044
 304  659.5817
 305  609.7629
 306  540.825
 307  532.4534
 308  492.1397
 309  514.6775
 310  534.6868
 311  568.4965
 312  579.6966
 313  478.4768
 314  602.5484
 315  632.3973
 316  565.6943
 317  603.0515
 318  552.9518
 319  514.763
 320  491.6003
 321  586.0499
 322  625.1251
 323  604.4984
 324  589.0206
 325  536.0896
 326  543.733
 327  504.5468
 328  506.0187
 329  566.9766
 330  556.6126
 331  558.3177
 332  497.2084
 333  641.5005
 334  615.6587
 335  598.754
 336  560.063
 337  508.6201
 338  460.2595
 339  540.2654
 340  649.5325
 341  495.9222
 342  521.5482
 343  641.4615
 344  807.2498
 345  701.9836
 346  669.1282
 347  666.0029
 348  562.8201
 349  543.9625
 350  593.5292
 351  642.1463
 352  595.7972
 353  613.5911
 354  481.5716
 355  508.5706
 356  592.769
 357  682.1825
 358  599.9493
 359  551.8427
 360  616.9827
 361  651.4491
 362  651.0359
 363  589.6069
 364  582.4327
 365  608.848
 366  567.9703
 367  638.3758
 368  710.7809
 369  579.2159
 370  528.8447
 371  566.6019
 372  569.1426
 373  639.9501
 374  672.7444
 375  649.4669
 376  609.4986
 377  601.3273
 378  524.8242
 379  503.4669
 380  551.3635
 381  545.4295
 382  598.5566
 383  645.5529
 384  611.4511
 385  451.1753
 386  398.4308
 387  563.7106
 388  635.4257
 389  602.3713
 390  590.1823
 391  570.567
 392  508.8218
 393  551.2719
 394  556.0752
 395  665.9817
 396  619.2402
 397  604.5602
 398  625.893
 399  620.2467
 400  556.9341
 401  534.5339
 402  563.5323
 403  659.1088
 404  602.5309
 405  624.2098
 406  624.4077
 407  569.9484
 408  651.0957
 409  669.3863
 410  641.5718
 411  596.5556
 412  581.6033
 413  564.0598
 414  667.3212
 415  675.0156
 416  599.3127
 417  582.0782
 418  567.0682
 419  502.6104
 420  471.6125
 421  625.5205
 422  570.4238
 423  545.2225
 424  560.0483
 425  596.1181
 426  536.6196
 427  541.9508
 428  493.9445
 429  584.4464
 430  670.52
 431  600.7604
 432  638.3439
 433  625.4878
 434  624.3266
 435  633.6965
 436  608.2361
 437  643.7652
 438  541.3099
 439  484.3937
 440  538.7542
 441  592.0289
 442  612.2433
 443  602.3698
 444  540.7411
 445  577.292
 446  682.1307
 447  715.4352
 448  708.3948
 449  632.6347
 450  585.4692
 451  713.4645
 452  581.9276
 453  526.8244
 454  592.8411
 455  565.7802
 456  670.9322
 457  727.7807
 458  706.9126
 459  654.4371
 460  635.1533
 461  594.1885
 462  543.7067
 463  553.4695
 464  599.9483
 465  708.1412
 466  602.6639
 467  642.4454
 468  583.5078
 469  571.8027
 470  672.0749
 471  696.1395
 472  729.3049
 473  614.5401
 474  559.5501
 475  626.1931
 476  653.7184
 477  713.096
 478  653.4895
 479  705.7281
 480  635.6718
 481  518.1401
 482  624.0264
 483  772.05
 484  714.6189
 485  630.0955
 486  688.8355
 487  720.5121
 488  709.1293
 489  657.6259
 490  641.2665
 491  600.5729
 492  621.8093
 493  615.6982
 494  602.6926
 495  576.6693
 496  626.8193
 497  617.5158
 498  587.2057
 499  595.775
 500  592.9754
 501  632.4083
 502  514.2261
 503  516.1494
 504  519.22
 505  528.2311
 506  582.3568
 507  517.3806
 508  471.3707
 509  503.9597
 510  564.4305
 511  664.1604
