# Input file       =  1195674484.107206_cleaned.dat
# Candidate        =  PSR_0332+5434
# Telescope        =  AR
# Epoch_topo       =  58082.825267444518
# Epoch_bary       =  N/A
# T_sample         =  0.002
# Data Folded      =  7340032
# Data Avg         =  1.01865650442466 
# Data StdDev      =  8.43165345131965 
# Profile Bins     =  1024
# Profile Avg      =  7301.74125053207 
# Profile StdDev   =  713.85786154468  
# Reduced chi-sqr  =  0.640
# Prob(Noise)      <  1   (~0.0 sigma)
# P_topo (ms)      =  714.520332268371  +/- 0.000205
# P'_topo (s/s)    =  -0                +/- 1.08e-10
# P''_topo (s/s^2) =  0                 +/- 4.78e-14
# P_bary (ms)      =  N/A
# P'_bary (s/s)    =  N/A
# P''_bary (s/s^2) =  N/A
# P_orb (s)        =  N/A
# asin(i)/c (s)    =  N/A
# eccentricity     =  N/A
# w (rad)          =  N/A
# T_peri           =  N/A
######################################################
   0  7504.916
   1  7607.993
   2  7399.575
   3  7379.017
   4  7159.244
   5  7261.82
   6  7216.835
   7  7415.955
   8  7366.433
   9  7051.677
  10  6889.852
  11  6918.957
  12  7165.468
  13  7140.734
  14  7101.669
  15  7197.575
  16  7131.622
  17  6992.649
  18  6881.421
  19  6975.311
  20  7029.18
  21  6811.574
  22  6864.333
  23  7130.718
  24  7325.705
  25  7223.64
  26  7197.63
  27  7248.666
  28  7240.481
  29  7440.427
  30  7381.115
  31  7531.144
  32  7428.384
  33  7560.556
  34  7648.984
  35  7821.894
  36  7990.905
  37  7629.754
  38  7295.265
  39  7213.421
  40  7163.828
  41  7274.535
  42  6877.825
  43  7026.526
  44  7026.44
  45  7062.942
  46  7366.179
  47  7043.569
  48  6850.234
  49  6512.239
  50  6767.771
  51  6881.685
  52  6773.52
  53  6783.196
  54  7111.378
  55  7136.835
  56  7201.55
  57  7067.254
  58  6916.298
  59  6850.296
  60  6768.874
  61  6852.458
  62  6873.396
  63  6834.399
  64  6956.185
  65  6942.033
  66  7288.508
  67  7132.692
  68  7086.648
  69  7012.63
  70  7442.341
  71  7866.521
  72  7964.684
  73  7589.448
  74  7338.954
  75  7300.879
  76  7142.794
  77  6875.426
  78  6824.622
  79  7044.202
  80  7276.431
  81  7419.071
  82  7467.515
  83  7279.093
  84  6868.006
  85  6971.522
  86  7166.921
  87  7355.567
  88  7250.182
  89  7004.902
  90  7080.875
  91  7027.893
  92  7068.325
  93  7158.718
  94  7242.31
  95  7167.761
  96  7052.12
  97  6899.036
  98  6960.325
  99  6682.402
 100  6933.52
 101  7107.039
 102  7391.823
 103  7362.14
 104  7649.052
 105  7545.026
 106  7277.187
 107  7116.414
 108  7252.987
 109  7403.279
 110  7489.642
 111  7528.536
 112  7564.12
 113  7503.88
 114  7369.564
 115  7341.5
 116  7394.964
 117  7429.857
 118  7178.758
 119  7207.498
 120  7118.77
 121  7310.205
 122  7389.025
 123  7279.68
 124  6966.536
 125  6858.195
 126  7055.494
 127  7279.95
 128  7190.934
 129  7327.179
 130  7300.338
 131  7241.826
 132  7205.759
 133  7058.242
 134  7067.919
 135  7193.96
 136  7333.496
 137  7450.142
 138  7236.853
 139  7266.75
 140  7316.788
 141  7385.321
 142  7469.227
 143  7795.378
 144  7825.912
 145  7845.203
 146  7581.935
 147  7609.73
 148  7512.084
 149  7279.405
 150  7365.577
 151  7479.039
 152  7531.883
 153  7366.5
 154  7185.279
 155  7182.519
 156  7139.609
 157  7055.36
 158  7043.826
 159  7127.177
 160  7398.702
 161  7729.654
 162  7256.375
 163  7036.026
 164  6884.326
 165  7024.564
 166  7192.229
 167  7106.109
 168  7410.774
 169  7566.854
 170  7684.361
 171  7702.071
 172  7498.665
 173  7041.366
 174  6907.316
 175  6911.583
 176  7313.719
 177  7343.821
 178  7268.329
 179  7309.966
 180  7286.014
 181  7216.423
 182  7266.609
 183  7292.769
 184  7280.675
 185  6955.495
 186  6879.026
 187  7047.775
 188  7081.054
 189  7261.318
 190  7187.532
 191  7036.283
 192  6991.921
 193  7255.035
 194  7605.141
 195  7673.334
 196  7410.608
 197  7280.095
 198  7405.444
 199  7566.077
 200  7813.913
 201  7690.265
 202  7535.991
 203  7266.926
 204  7181.674
 205  7082.432
 206  6939.938
 207  6970.802
 208  7377.315
 209  7251.485
 210  7155.47
 211  6916.012
 212  7364.275
 213  7546.684
 214  7500.431
 215  7350.167
 216  7579.95
 217  7785.397
 218  7836.321
 219  7806.326
 220  7626.901
 221  7503.389
 222  7406.558
 223  7493.507
 224  7627.272
 225  7677.96
 226  7491.34
 227  7223.275
 228  7049.46
 229  7216.176
 230  7284.072
 231  7427.792
 232  7400.743
 233  7547.757
 234  7573.038
 235  7216.079
 236  7054.636
 237  6967.055
 238  7106.796
 239  7355.997
 240  7441.047
 241  7427.881
 242  7195.068
 243  7138.033
 244  7492.357
 245  7283.232
 246  7006.983
 247  6897.271
 248  6947.798
 249  6929.749
 250  6848.978
 251  6921.893
 252  7368.208
 253  7521.461
 254  7650.481
 255  7663.827
 256  7727.625
 257  7945.411
 258  7632.163
 259  7325.43
 260  6958.665
 261  6851.716
 262  6925.286
 263  6961.347
 264  6686.647
 265  7058.521
 266  7299.316
 267  7328.753
 268  6956.963
 269  6569.187
 270  6911.435
 271  7077.323
 272  7192.482
 273  7137.499
 274  7023.732
 275  7044.932
 276  7328.809
 277  7311.877
 278  7134.147
 279  6892.662
 280  7067.8
 281  7359.426
 282  7441.096
 283  7420.354
 284  7310.853
 285  7237.845
 286  7069.853
 287  7134.39
 288  7108.901
 289  7273.658
 290  7278.472
 291  7365.914
 292  7102.759
 293  7106.378
 294  7371.571
 295  7547.44
 296  7658.621
 297  7648.559
 298  7710.292
 299  7659.234
 300  7439.474
 301  7307.683
 302  7262.975
 303  7297.579
 304  7471.32
 305  7345.501
 306  7359.037
 307  7287.657
 308  7347.2
 309  7483.208
 310  7605.031
 311  7658.746
 312  7852.194
 313  7607.441
 314  7611.93
 315  7374.288
 316  7388.208
 317  7568.229
 318  7553.284
 319  7407.562
 320  7317.686
 321  7128.948
 322  7465.845
 323  7446.098
 324  7459.218
 325  7414.849
 326  7399.652
 327  7305.97
 328  7059.291
 329  6999.232
 330  7372.414
 331  7396.006
 332  7560.596
 333  7632.99
 334  7337.488
 335  7279.841
 336  7231.389
 337  7427.577
 338  7434.594
 339  7102.756
 340  7128.209
 341  7478.239
 342  7404.967
 343  7486.154
 344  7317.238
 345  7241.952
 346  7102.681
 347  6917.833
 348  6967.779
 349  7115.945
 350  7520.394
 351  7746.841
 352  7576.562
 353  7441.594
 354  7656.744
 355  7750.631
 356  7675.645
 357  7723.638
 358  7681.364
 359  7721.267
 360  7620.848
 361  7473.247
 362  7441.693
 363  7504.622
 364  7763.564
 365  7855.962
 366  7706.631
 367  7669.392
 368  7600.023
 369  7711.788
 370  7620.366
 371  7335.027
 372  7483.505
 373  7373.943
 374  7409.919
 375  7093.303
 376  7220.21
 377  7173.566
 378  7101.375
 379  7029.273
 380  7202.004
 381  7319.744
 382  7384.318
 383  7158.198
 384  7157.358
 385  7374.599
 386  7446.419
 387  7567.772
 388  7609.437
 389  7598.075
 390  7651.679
 391  7335.958
 392  7073.45
 393  6930.735
 394  7016.029
 395  7330.349
 396  7306.703
 397  7436.14
 398  7416.907
 399  7166.977
 400  7403.675
 401  7499.726
 402  7635.215
 403  7570.475
 404  7439.341
 405  7431.157
 406  7529.317
 407  7470.164
 408  7767.967
 409  7588.892
 410  7482.829
 411  7176.554
 412  6948.54
 413  6923.522
 414  7130.116
 415  7335.495
 416  7416.456
 417  7105.156
 418  7165.855
 419  7318.445
 420  7121.076
 421  6903.11
 422  7080.199
 423  7092.185
 424  7041.006
 425  7025.305
 426  7517.974
 427  7438.492
 428  7357.268
 429  7334.369
 430  7500.691
 431  7218.321
 432  7245.344
 433  7254.432
 434  7386.172
 435  7251.228
 436  7022.368
 437  7348.749
 438  7332.416
 439  7243.024
 440  6970.158
 441  6814.892
 442  7012.595
 443  7112.054
 444  7539.023
 445  7570.022
 446  7665.61
 447  7739.664
 448  7865.671
 449  7599.327
 450  7235.777
 451  7196.228
 452  7223.721
 453  7368.088
 454  7293.916
 455  7233.267
 456  7169.52
 457  6800.09
 458  6952.817
 459  6745.186
 460  6858.47
 461  6627.31
 462  6829.041
 463  6957.714
 464  7135.853
 465  7036.182
 466  6989.807
 467  6847.954
 468  6793.853
 469  6881.261
 470  7088.517
 471  7313.502
 472  7267.046
 473  7404.625
 474  7587.835
 475  7555.389
 476  7643.542
 477  7368.396
 478  7487.924
 479  7263.968
 480  7480.35
 481  7616.632
 482  7506.037
 483  7443.104
 484  7398.008
 485  7391.205
 486  7437.946
 487  7648.932
 488  7618.355
 489  7431.753
 490  7221.705
 491  7436.476
 492  7407.812
 493  7112.051
 494  7019.964
 495  7166.901
 496  7375.926
 497  7483.109
 498  7244.465
 499  7132.349
 500  7221.745
 501  7426.017
 502  7729.865
 503  7492.863
 504  7405.84
 505  7396.564
 506  7652.586
 507  7792.199
 508  7797.17
 509  7639.015
 510  7718.786
 511  7455.896
 512  7232.991
 513  7121.57
 514  7097.038
 515  7314.527
 516  7222.842
 517  7239.081
 518  7235.38
 519  7311.096
 520  7266.598
 521  7329.698
 522  7459.923
 523  7741.927
 524  7606.187
 525  7472.019
 526  7558.565
 527  7444.008
 528  7374.976
 529  7363.907
 530  7399.715
 531  7645.151
 532  7409.276
 533  7478.45
 534  7529.685
 535  7573.312
 536  7864.885
 537  7852.961
 538  8003.188
 539  7993.558
 540  8129.907
 541  7842.357
 542  7617.792
 543  7555.987
 544  7794.694
 545  7788.206
 546  7601.637
 547  7280.538
 548  7005.61
 549  6636.84
 550  6573.997
 551  6941.277
 552  7554.213
 553  7592.463
 554  7571.81
 555  7096.693
 556  7043.994
 557  6779.363
 558  6807.731
 559  7031.999
 560  7207.736
 561  7585.542
 562  7666.917
 563  7537.018
 564  7316.854
 565  7159.02
 566  7418.693
 567  7634.436
 568  7763.045
 569  7704.584
 570  7310.565
 571  7015.232
 572  7051.103
 573  7364.025
 574  7282.777
 575  7147.997
 576  6918.772
 577  6996.374
 578  7165.264
 579  7028.803
 580  7080.363
 581  6988.55
 582  7295.56
 583  7653.988
 584  7554.653
 585  7676.704
 586  7618.403
 587  7626.262
 588  7663.743
 589  7419.514
 590  7527.377
 591  7648.083
 592  7718.996
 593  7703.605
 594  7897.911
 595  8101.008
 596  8070.877
 597  7949.282
 598  8010.259
 599  8103.144
 600  7768.054
 601  7979.136
 602  7832.56
 603  7636.991
 604  7545.824
 605  7521.556
 606  7456.777
 607  7313.638
 608  7515.1
 609  7718.919
 610  7929.656
 611  8056.346
 612  8062.684
 613  7632.331
 614  7569.122
 615  7664.628
 616  7822.177
 617  7891
 618  7854.978
 619  7918.202
 620  7874.567
 621  7683.491
 622  7853.056
 623  7895.9
 624  8203.171
 625  8243.213
 626  8386.052
 627  8334.801
 628  8396.535
 629  8350.352
 630  8507.895
 631  8255.433
 632  8047.389
 633  7757.32
 634  7741.845
 635  7544.67
 636  7322.041
 637  7388.059
 638  7462.278
 639  7655.013
 640  7591.64
 641  7530.342
 642  7274.562
 643  7351.451
 644  7204.716
 645  7505.785
 646  7487.884
 647  7396.465
 648  7324.239
 649  7328.508
 650  7696.847
 651  7572.52
 652  7384
 653  7240.32
 654  7273.978
 655  7269.152
 656  7017.715
 657  6798.565
 658  7158.669
 659  7323.553
 660  7159.639
 661  6827.409
 662  6864.222
 663  7103.043
 664  7075.997
 665  6948.681
 666  7162.127
 667  7184.229
 668  7251.487
 669  7037.725
 670  6774.508
 671  6861.054
 672  7085.291
 673  7417.904
 674  7602.728
 675  7628.43
 676  7586.666
 677  7698.441
 678  7486.92
 679  7574.202
 680  7804.125
 681  7917.776
 682  7864.291
 683  7235.844
 684  7024.393
 685  6913.059
 686  6824.147
 687  7100.149
 688  7228.522
 689  7091.79
 690  7019.638
 691  6672.964
 692  6442.042
 693  6347.878
 694  6620.101
 695  7253.354
 696  7291.522
 697  7193.898
 698  7060.856
 699  6830.769
 700  6801.732
 701  6722.724
 702  6982.001
 703  7398.228
 704  7501.958
 705  7555.315
 706  7320.477
 707  7274.39
 708  7418.243
 709  7647.663
 710  7668.294
 711  7542.482
 712  7816.161
 713  7677.726
 714  7561.627
 715  7541.899
 716  7794.129
 717  7671.331
 718  7354.214
 719  7336.113
 720  7485.168
 721  7694.057
 722  7443.319
 723  7409.023
 724  7259.605
 725  7191.413
 726  7388.57
 727  7384.567
 728  7295.745
 729  7095.472
 730  7221.993
 731  7287.517
 732  7261.833
 733  7294.351
 734  7298.918
 735  7367.042
 736  7425.134
 737  7666.591
 738  7286.638
 739  7123.656
 740  6874.332
 741  7265.822
 742  7445.843
 743  7392.373
 744  7410.629
 745  7584.155
 746  7563.806
 747  7315.331
 748  7091.223
 749  7205.228
 750  7189.872
 751  7028.596
 752  7357.068
 753  7636.819
 754  7740.855
 755  7583.459
 756  7421.069
 757  7536.804
 758  7455.896
 759  7282.936
 760  7492.533
 761  7373.283
 762  7585.192
 763  7472.624
 764  7185.372
 765  7010.303
 766  6991.417
 767  7153.299
 768  7563.986
 769  7560.417
 770  7645.377
 771  7409.172
 772  7231.915
 773  7560.226
 774  7614.014
 775  7484.296
 776  7439.217
 777  7495.706
 778  7477.33
 779  7168.542
 780  6928.971
 781  7202.246
 782  7405.585
 783  7547.07
 784  7471.304
 785  7004.531
 786  6674.688
 787  6737.606
 788  7144.874
 789  7549.03
 790  7646.675
 791  7784.23
 792  7753.209
 793  7516.046
 794  7235.859
 795  7025.574
 796  7006.009
 797  7102.761
 798  7287.727
 799  7088.594
 800  7087.29
 801  6952.025
 802  7488.516
 803  7603.114
 804  7558.544
 805  7389.706
 806  7226.879
 807  7096.261
 808  6884.838
 809  7006.387
 810  7381.968
 811  7600.216
 812  7738.783
 813  7538.203
 814  7321.806
 815  7011.102
 816  6886.583
 817  7323.846
 818  7354.775
 819  7344.184
 820  7711.628
 821  8006.478
 822  8167.488
 823  7832.408
 824  7900.095
 825  8019.625
 826  7894.686
 827  7729.903
 828  7580.534
 829  7410.751
 830  7622.25
 831  7686.722
 832  7295.896
 833  6867.604
 834  6672.448
 835  7219.928
 836  7646.827
 837  7767.666
 838  7657.421
 839  7513.301
 840  7274.29
 841  7624.901
 842  7414.053
 843  7353.736
 844  7011.882
 845  7076.986
 846  7391.284
 847  7345.533
 848  7488.349
 849  7635.761
 850  7510.219
 851  7407.442
 852  7417.876
 853  7422.146
 854  7334.511
 855  7209.131
 856  7186.959
 857  6918.014
 858  6871.04
 859  7119.714
 860  7138.175
 861  7012.23
 862  7082.547
 863  6990.193
 864  7078.502
 865  7103.636
 866  7275.303
 867  7381.772
 868  7644.303
 869  7761.582
 870  7583.634
 871  7027.055
 872  6876.622
 873  6781.278
 874  7127.551
 875  7197.374
 876  7097.424
 877  7005.894
 878  7049.148
 879  7066.821
 880  7287.811
 881  7446.783
 882  7366.639
 883  7238.935
 884  7122.83
 885  7011.093
 886  6787.795
 887  6785.651
 888  7062.878
 889  7039.977
 890  6717.863
 891  6393.945
 892  6613.961
 893  6662.837
 894  6702.271
 895  6902.576
 896  7432.972
 897  7464.908
 898  7243.629
 899  6674.646
 900  6586.155
 901  6789.237
 902  7081.202
 903  7414.508
 904  7288.419
 905  7405.302
 906  7205.86
 907  6984.417
 908  6774.548
 909  6729.892
 910  6851.524
 911  6926.273
 912  6937.578
 913  7113.28
 914  7279.294
 915  7066.614
 916  6869.085
 917  6656.715
 918  6805.216
 919  6985.559
 920  6992.312
 921  6973.611
 922  6991.364
 923  6924.617
 924  7081.861
 925  6832.72
 926  6829.866
 927  7093.9
 928  7136.032
 929  6925.693
 930  6748.921
 931  6901.927
 932  7313.562
 933  7176.655
 934  7118.986
 935  6969.916
 936  7068.281
 937  7267.796
 938  7310.676
 939  7326.305
 940  7229.825
 941  7127.546
 942  7014.801
 943  6887.159
 944  6630.262
 945  6844.891
 946  6932.81
 947  6960.866
 948  6599.573
 949  6580.061
 950  6596.153
 951  6851.009
 952  7047.608
 953  7179.244
 954  7052.881
 955  6955.216
 956  7154.901
 957  7230.904
 958  7368.5
 959  7306.529
 960  7399.82
 961  7441.721
 962  7244.684
 963  7331.467
 964  7334.436
 965  7355.674
 966  7206.295
 967  7387.863
 968  7352.849
 969  7230.562
 970  6959.231
 971  6896.468
 972  6702.626
 973  6529.569
 974  6830.979
 975  7048.061
 976  7390.042
 977  7080.48
 978  7091.576
 979  7089.238
 980  7348.672
 981  7373.363
 982  7378.788
 983  7230.501
 984  7413.319
 985  7585.572
 986  7523.952
 987  7412.966
 988  7129.27
 989  7353.034
 990  7190.147
 991  7337.173
 992  7379.583
 993  7565.39
 994  7603.319
 995  7409.978
 996  7188.383
 997  6928.718
 998  6603.364
 999  6796.594
1000  6678.404
1001  6611.117
1002  6583.626
1003  6801.248
1004  6646.564
1005  6818.058
1006  6792.059
1007  7011.446
1008  6908.215
1009  7003.535
1010  7058.083
1011  7005.491
1012  7001.803
1013  7384.62
1014  7375.989
1015  7450.728
1016  7320.69
1017  7345.727
1018  7408.72
1019  7334.571
1020  7472.227
1021  7301.601
1022  7201.863
1023  7367.035
