# Input file       =  1195760658.106143_cleaned.dat
# Candidate        =  PSR_0332+5434
# Telescope        =  AR
# Epoch_topo       =  58083.822651691473
# Epoch_bary       =  N/A
# T_sample         =  0.002
# Data Folded      =  7340032
# Data Avg         =  1.78458953180234 
# Data StdDev      =  14.470606810375  
# Profile Bins     =  1024
# Profile Avg      =  12791.9398774009 
# Profile StdDev   =  1225.1400620944  
# Reduced chi-sqr  =  0.569
# Prob(Noise)      <  1   (~0.0 sigma)
# P_topo (ms)      =  714.521366475041  +/- 0.000221
# P'_topo (s/s)    =  -0                +/- 1.16e-10
# P''_topo (s/s^2) =  0                 +/- 5.14e-14
# P_bary (ms)      =  N/A
# P'_bary (s/s)    =  N/A
# P''_bary (s/s^2) =  N/A
# P_orb (s)        =  N/A
# asin(i)/c (s)    =  N/A
# eccentricity     =  N/A
# w (rad)          =  N/A
# T_peri           =  N/A
######################################################
   0  12173.92
   1  12560.73
   2  12441.8
   3  12222.3
   4  11445.43
   5  11441.94
   6  11511.41
   7  12207.11
   8  12523.84
   9  12619.87
  10  12029.72
  11  12090.68
  12  12444.53
  13  13023.33
  14  12928.85
  15  13523.3
  16  13394.42
  17  12874.69
  18  12687.71
  19  12649.58
  20  12581.57
  21  12370.25
  22  12302.96
  23  12471.86
  24  12446.2
  25  12449.79
  26  12547.22
  27  12587.99
  28  12892.51
  29  13141.92
  30  12695.59
  31  12444.64
  32  12427.91
  33  12677.46
  34  12862.4
  35  13166.75
  36  13265.09
  37  12856.17
  38  12519.98
  39  12782.33
  40  12970.34
  41  12462.23
  42  12571.3
  43  12762.16
  44  12435.74
  45  12468.65
  46  12097.16
  47  12235.77
  48  12073.68
  49  12131.31
  50  12138.1
  51  11628.12
  52  11250.43
  53  11654.06
  54  12141.66
  55  12651.71
  56  13109.47
  57  13003.31
  58  13056.64
  59  12498.11
  60  12781.27
  61  13000.52
  62  13096.37
  63  12989.15
  64  13062.23
  65  12650.21
  66  12247.14
  67  11990.5
  68  11657.36
  69  12197.16
  70  12026.03
  71  12558.36
  72  12972.48
  73  12986.2
  74  12929.09
  75  13079.66
  76  12996.11
  77  12784.55
  78  12133.58
  79  12240.75
  80  12383.88
  81  11950.28
  82  12133.86
  83  12286.21
  84  12947.09
  85  13138.85
  86  12998.08
  87  13005.56
  88  13021.88
  89  13284.04
  90  13247.12
  91  13607.9
  92  12982.93
  93  12873.98
  94  12348.49
  95  12379.08
  96  12516.95
  97  12604.63
  98  12756.26
  99  12939.42
 100  13068.51
 101  13402.3
 102  12991.48
 103  12826.72
 104  13267.31
 105  13466.51
 106  13499.27
 107  13403.82
 108  13223.64
 109  12972.03
 110  12651.74
 111  12511.4
 112  12524.23
 113  12508
 114  12765.13
 115  12627.26
 116  12638.87
 117  12916.21
 118  13036.29
 119  12865.32
 120  13060.31
 121  12834.81
 122  12963.16
 123  12968.11
 124  12822.53
 125  12872.73
 126  12972.77
 127  13152.43
 128  12866.68
 129  12608.92
 130  12231.12
 131  12069.13
 132  11882.95
 133  12132.85
 134  12798.7
 135  12686.41
 136  12797.36
 137  12647.25
 138  12411.35
 139  12495.99
 140  12304.7
 141  12818.02
 142  12974.77
 143  12643.71
 144  12729.49
 145  12809.87
 146  13123.18
 147  13239.08
 148  13110.1
 149  13070
 150  12866.61
 151  12559.04
 152  12794.91
 153  12582.72
 154  12746.52
 155  13062.19
 156  13018.38
 157  12496.22
 158  12085.12
 159  11767.46
 160  12415
 161  12701.54
 162  12788.27
 163  12405.57
 164  11906.87
 165  11688.4
 166  11769.58
 167  11804.14
 168  11947.51
 169  12104.12
 170  12276.99
 171  12302.57
 172  12231.42
 173  12306.16
 174  12586.23
 175  12864.47
 176  13151.5
 177  13285
 178  13125.05
 179  13464.79
 180  12999.58
 181  12910.38
 182  12799.16
 183  12917.27
 184  12878.06
 185  12564.45
 186  12372.35
 187  12066.82
 188  11771.51
 189  11488.19
 190  11492.26
 191  11774.44
 192  12207.53
 193  12411.43
 194  12259.62
 195  12395.47
 196  12712.61
 197  12865.43
 198  12924.09
 199  12655.47
 200  12425.1
 201  12473.44
 202  12509.51
 203  12789.26
 204  12762.83
 205  12613.78
 206  12725.42
 207  12854.13
 208  13176.08
 209  13684.02
 210  13341.42
 211  12854.57
 212  12207.2
 213  12587.36
 214  12815.43
 215  12687.16
 216  12743.24
 217  13383.53
 218  13698.08
 219  13763.12
 220  13688.08
 221  13606.79
 222  13678.6
 223  13816.58
 224  13346.77
 225  13404.99
 226  13140.13
 227  12815.45
 228  12362.27
 229  12243.33
 230  12909.08
 231  13060.24
 232  13123.43
 233  13593.24
 234  13658.82
 235  13454.29
 236  12919.81
 237  12485.99
 238  12864.42
 239  12792.11
 240  12631.98
 241  12551.84
 242  12548.98
 243  12568.61
 244  12549.49
 245  12359.93
 246  12904.4
 247  12939.13
 248  13059.07
 249  12731.68
 250  12539.88
 251  12378.94
 252  12235.44
 253  11972.64
 254  12284.1
 255  12786.92
 256  13111.56
 257  13517.68
 258  13253.27
 259  13432.5
 260  13635.06
 261  13473.07
 262  13377.22
 263  13451.76
 264  13952.52
 265  13845.03
 266  13372.66
 267  13036.94
 268  13273.27
 269  12907.15
 270  12362.21
 271  12271.65
 272  12263.63
 273  12606.48
 274  12722.29
 275  12869.23
 276  13450.87
 277  13515.85
 278  13829.48
 279  13329.04
 280  12479.75
 281  12101.96
 282  12289.35
 283  12917.79
 284  13069.64
 285  12918.78
 286  12769.05
 287  13325.46
 288  13683.65
 289  14033.66
 290  14130.31
 291  13528.33
 292  13062.15
 293  12655.2
 294  13124.9
 295  13161.62
 296  12859.17
 297  12577.02
 298  12846.72
 299  12918.21
 300  12652.87
 301  12272.07
 302  12483.71
 303  13171.64
 304  12898.6
 305  12743.3
 306  13154.84
 307  13400.04
 308  13580.98
 309  13111.13
 310  12797.93
 311  13247.33
 312  13195.5
 313  13438.29
 314  13102.98
 315  13339.97
 316  13196.7
 317  13186.62
 318  12783.88
 319  13407.59
 320  13558.03
 321  13417.4
 322  13321.6
 323  13034.53
 324  13454.99
 325  13376.69
 326  12821.17
 327  12584.47
 328  12270.81
 329  12417.35
 330  12626.09
 331  12558.42
 332  13118.94
 333  13350.24
 334  13415.82
 335  13280.25
 336  13248.94
 337  13562.31
 338  13758.15
 339  13431.69
 340  13529.68
 341  13871.03
 342  14288.69
 343  14545.98
 344  14105.11
 345  14161.11
 346  14113.04
 347  14067.47
 348  13777.11
 349  13274.87
 350  12872.44
 351  13115.41
 352  13211.92
 353  12898.88
 354  12585.78
 355  12521.25
 356  12665.97
 357  12523.56
 358  12158.04
 359  12355.41
 360  12630.04
 361  12926.38
 362  13021.72
 363  13396.06
 364  13488
 365  13402.36
 366  12915.48
 367  12973.26
 368  12846.46
 369  12715.6
 370  12558.85
 371  12788.76
 372  12585.71
 373  12831.44
 374  12545.02
 375  12973.34
 376  13370.62
 377  13276.51
 378  12924.03
 379  12656.47
 380  12916.78
 381  13182.13
 382  12695.77
 383  12073.78
 384  12263.16
 385  12234.97
 386  12379.32
 387  12417.1
 388  12408.15
 389  12850.71
 390  12558.25
 391  12592.06
 392  12600.46
 393  12912.13
 394  13178.34
 395  13072.36
 396  12634.9
 397  12815.28
 398  12817.72
 399  13082.63
 400  13078.87
 401  12858.13
 402  13339.08
 403  13598.87
 404  13733.99
 405  12936.42
 406  12544.24
 407  12683.21
 408  13133.2
 409  13032.98
 410  12818.55
 411  12871.47
 412  12420.17
 413  12253.75
 414  11651.92
 415  11923.72
 416  12488.71
 417  12413.75
 418  12593.85
 419  12988.29
 420  12942.08
 421  12989.81
 422  12667.05
 423  12911.04
 424  12779.34
 425  12530.36
 426  12504.89
 427  12557.46
 428  12395
 429  12738.29
 430  12544.65
 431  12560.66
 432  12512.58
 433  12809.38
 434  13108.89
 435  13612.47
 436  13596.87
 437  13524.92
 438  12803.12
 439  12436.62
 440  12918.83
 441  12927.32
 442  13051.11
 443  12676.96
 444  12437.64
 445  12226.82
 446  12523.85
 447  12882.23
 448  13093.97
 449  13285.12
 450  13431.81
 451  13751.22
 452  13429
 453  12848.18
 454  12305.56
 455  12012.91
 456  12366.65
 457  12052.27
 458  12202.24
 459  12356.27
 460  12941.34
 461  13059.1
 462  12935.55
 463  12578.88
 464  12749.19
 465  12735.13
 466  12732.47
 467  12937.9
 468  12931.27
 469  13083.19
 470  13102.14
 471  12900.85
 472  12646.35
 473  12456.99
 474  12731.94
 475  13256.85
 476  12619.61
 477  12474.95
 478  12677.93
 479  12880.91
 480  13195.68
 481  13232.57
 482  12928.79
 483  12967.11
 484  13126.7
 485  13494.13
 486  13371.13
 487  12938.45
 488  13171.35
 489  13698.16
 490  13490.13
 491  13345.51
 492  13210.34
 493  13549.55
 494  13458.8
 495  13000.39
 496  12943.53
 497  12444.18
 498  11853.41
 499  12106.25
 500  12570.91
 501  12859.65
 502  13015.76
 503  12523.48
 504  12486.9
 505  12634.04
 506  12450.37
 507  12857.02
 508  12599.82
 509  12849
 510  12915.41
 511  12986.44
 512  12994.38
 513  13334.78
 514  13627.93
 515  13808.17
 516  13652.34
 517  13697.8
 518  14116.92
 519  14276.53
 520  14298.1
 521  14075.01
 522  13580.14
 523  13375.55
 524  12784.46
 525  13160.87
 526  13217
 527  13187.32
 528  13132.49
 529  12923.8
 530  12892.97
 531  13068
 532  13606.44
 533  13516.35
 534  13161.83
 535  13237.34
 536  13310.45
 537  13531.26
 538  13097.1
 539  12954.3
 540  13004.08
 541  12915.03
 542  12820.08
 543  13001.99
 544  13624.9
 545  13896.3
 546  13427.14
 547  12898.03
 548  13009.39
 549  12745.05
 550  12633.42
 551  12255.84
 552  12663.04
 553  13268.5
 554  13057.45
 555  12943.21
 556  12685.54
 557  12423.72
 558  12378.25
 559  12480.89
 560  12699.82
 561  13118.11
 562  12898.71
 563  12678.85
 564  12414.32
 565  12148.57
 566  12405.95
 567  12652.23
 568  13170.09
 569  13077.07
 570  12772.59
 571  13038.94
 572  13353.12
 573  12925.87
 574  12580.33
 575  12194.85
 576  12258.06
 577  12405.43
 578  12704.65
 579  12667.17
 580  12575.91
 581  11912.46
 582  12185.92
 583  12214.75
 584  12071.55
 585  12136.31
 586  12419.3
 587  12783.76
 588  13109.46
 589  12644.79
 590  12648.85
 591  12794.31
 592  12970.36
 593  12566.23
 594  11743.17
 595  11462.55
 596  11777.65
 597  11783.09
 598  11803.71
 599  11970.03
 600  12729.44
 601  13469.03
 602  13375
 603  13333.87
 604  13101.34
 605  12859.32
 606  12844.07
 607  13037.89
 608  13141.81
 609  13257.52
 610  12867.58
 611  12754.96
 612  13016.72
 613  13323.45
 614  12952.15
 615  12455.01
 616  11929.56
 617  11952.67
 618  12047.14
 619  11806.25
 620  11454.39
 621  11021.3
 622  11582.93
 623  12268.49
 624  12769
 625  13111.31
 626  13114.87
 627  12572.36
 628  12431.23
 629  12311.24
 630  12698.77
 631  13196.59
 632  13318.77
 633  12713.72
 634  12090
 635  12087.27
 636  12858.9
 637  13047.96
 638  13437.91
 639  13836.86
 640  13706.24
 641  13029.56
 642  12839.01
 643  12794.14
 644  13291.49
 645  13217.15
 646  12841.07
 647  12556.57
 648  12070.33
 649  11973.88
 650  12394.52
 651  12375.56
 652  12776.62
 653  12842.17
 654  12830.79
 655  12810.79
 656  12355.29
 657  12473.18
 658  12507.34
 659  12294.99
 660  12811.52
 661  12775.34
 662  12812.25
 663  12784.14
 664  12698.87
 665  13026.49
 666  13260.04
 667  13320.78
 668  13334.16
 669  12768.3
 670  12653.75
 671  13068.79
 672  13175.09
 673  13370.41
 674  12875.67
 675  12194.12
 676  12348.65
 677  12474.49
 678  12836.97
 679  12596.97
 680  12477.29
 681  12255.31
 682  12256.29
 683  12082.9
 684  11850.97
 685  11892.14
 686  12319.81
 687  12702.09
 688  12669.92
 689  12341.59
 690  12464.77
 691  12725.44
 692  12918.84
 693  12735.43
 694  12303.25
 695  12400.87
 696  12615.81
 697  12401.53
 698  12330.22
 699  12665.6
 700  12959.88
 701  13137.28
 702  12955.47
 703  13204.62
 704  13212.21
 705  12888.55
 706  12832.03
 707  12508
 708  12584.51
 709  12721.68
 710  12963.91
 711  12733.83
 712  12463.8
 713  12380.6
 714  12805.62
 715  12862.44
 716  12585.59
 717  12373.95
 718  12408.79
 719  12540.06
 720  12820.25
 721  13164.97
 722  13318.8
 723  13206.41
 724  13193.75
 725  13124.25
 726  12684.21
 727  12022.78
 728  12178.23
 729  11983.67
 730  12271.37
 731  11735.23
 732  11905.38
 733  12116.43
 734  12577.77
 735  12462.07
 736  12529.96
 737  12124.33
 738  12344.99
 739  12393.07
 740  12096.22
 741  12135.19
 742  12171.63
 743  12946.11
 744  12852.22
 745  12415.85
 746  12299.39
 747  12072.84
 748  11788.29
 749  11633
 750  11668.96
 751  12066.7
 752  12586.23
 753  13053.59
 754  13598.09
 755  13454.13
 756  13181.51
 757  13036.88
 758  12520.86
 759  12485.05
 760  12465.33
 761  12470.32
 762  12675.07
 763  12518.64
 764  12484.61
 765  12302.6
 766  12034.98
 767  12347.15
 768  12809.93
 769  12552.21
 770  12297.31
 771  12321.04
 772  12919.2
 773  13304.81
 774  13427.53
 775  13785.37
 776  13800.25
 777  13662.42
 778  13882.83
 779  13913.71
 780  13785.89
 781  13998.24
 782  13868.8
 783  13769.22
 784  13656.08
 785  13532.1
 786  13331.65
 787  13191.03
 788  12940.64
 789  12950.54
 790  12706.01
 791  12568.26
 792  12994.41
 793  13676.2
 794  13822.4
 795  13276.93
 796  13029.54
 797  12903.66
 798  13134.15
 799  12853.19
 800  12924.01
 801  12802.3
 802  13076.74
 803  13231.03
 804  13206.78
 805  13013.56
 806  12929.36
 807  12976.42
 808  13256.31
 809  13149.59
 810  13231.24
 811  13756.74
 812  12922.12
 813  12097.99
 814  12142.44
 815  12885.92
 816  13448.91
 817  12853.42
 818  12296.37
 819  12213.33
 820  12291.93
 821  12651.01
 822  13295.1
 823  13291.51
 824  13531.3
 825  13008.29
 826  12688.62
 827  12387.99
 828  12316.09
 829  12400.65
 830  12583.04
 831  12638.56
 832  13061.88
 833  13014.19
 834  12769.18
 835  12699.17
 836  12358.32
 837  12196.03
 838  12467
 839  12565.55
 840  12848.06
 841  12544.58
 842  12017.74
 843  12324.62
 844  12409.63
 845  12763.85
 846  12527.72
 847  12003.11
 848  11909
 849  12226.24
 850  12143.17
 851  12060.42
 852  11638.05
 853  11820.93
 854  12268.66
 855  11861.07
 856  12092.1
 857  12353.13
 858  12836.82
 859  12841.92
 860  12195.22
 861  12094.09
 862  11919.22
 863  12147.92
 864  12013.74
 865  12442.27
 866  12191.7
 867  12504.2
 868  12411.76
 869  12650.63
 870  12846.5
 871  13021.6
 872  13051.76
 873  12340.71
 874  11763.11
 875  11494.3
 876  12136.62
 877  12161.11
 878  12499.7
 879  13074.2
 880  13911.74
 881  13872.06
 882  13151.69
 883  12762.35
 884  13154.37
 885  13127.12
 886  13314.48
 887  13115.27
 888  13201.72
 889  13066.21
 890  12856.44
 891  12793.71
 892  12547.7
 893  12820.63
 894  12726.08
 895  12759.46
 896  12693.76
 897  13361.26
 898  13359.59
 899  12636.78
 900  12482.12
 901  12322.38
 902  12752
 903  12842.64
 904  12715.48
 905  12924.68
 906  12759.08
 907  12992.46
 908  12832.81
 909  12807.62
 910  13246.84
 911  13520.46
 912  13194.77
 913  13142.03
 914  13190.19
 915  13627.57
 916  13723.31
 917  13733.8
 918  13802.72
 919  13554.77
 920  12887.88
 921  13030.42
 922  13016.77
 923  13356.65
 924  13547.69
 925  13329.23
 926  13424.6
 927  13165.2
 928  12815.08
 929  12812.13
 930  12490.16
 931  12324.01
 932  12223.7
 933  12169.79
 934  12735.77
 935  13010.43
 936  13075.76
 937  13045.14
 938  12981.97
 939  13440.17
 940  13580.83
 941  13327.49
 942  12760.43
 943  12694.92
 944  12796.07
 945  13536.2
 946  13452.75
 947  13215.6
 948  12903.76
 949  12724.02
 950  12672.24
 951  12457.27
 952  12428.63
 953  13037.93
 954  13003.19
 955  12821.06
 956  12233.04
 957  11742.08
 958  12028.41
 959  12350.94
 960  12234.62
 961  12139.56
 962  12416.22
 963  12784.51
 964  12873.39
 965  12888.28
 966  12513.21
 967  12515.9
 968  12544.59
 969  12967.81
 970  12911.7
 971  12050.7
 972  12155.88
 973  12621.5
 974  13000.95
 975  13049.77
 976  13071.75
 977  13116.17
 978  13092.64
 979  12143.89
 980  11952.17
 981  11675.48
 982  11940.56
 983  12402.19
 984  12877.48
 985  12788.01
 986  12650.16
 987  11884.33
 988  12588.82
 989  12596.72
 990  12875.37
 991  13666.48
 992  13726.81
 993  13824.96
 994  13282.41
 995  13031.06
 996  12805.82
 997  12643.37
 998  12239.83
 999  12541.71
1000  12786.04
1001  13286.21
1002  13349.33
1003  12886.95
1004  13395.12
1005  13600.36
1006  12990.3
1007  12635.79
1008  12180.02
1009  12369.48
1010  12510.15
1011  12780.38
1012  13318.27
1013  12698.86
1014  12212.65
1015  12266.01
1016  12920.4
1017  12915.95
1018  13043.25
1019  12308.41
1020  12229.69
1021  12371.67
1022  12503.65
1023  12649.62
