# Input file       =  1195142387.113752_cleaned.dat
# Candidate        =  PSR_0332+5434
# Telescope        =  AR
# Epoch_topo       =  58076.666737427680
# Epoch_bary       =  N/A
# T_sample         =  0.002
# Data Folded      =  7143424
# Data Avg         =  1.94922925494803 
# Data StdDev      =  48.1222003329993 
# Profile Bins     =  1024
# Profile Avg      =  13597.6059611365 
# Profile StdDev   =  4019.28417087768 
# Reduced chi-sqr  =  0.444
# Prob(Noise)      <  1   (~0.0 sigma)
# P_topo (ms)      =  714.513946223085  +/- 5.68e-05
# P'_topo (s/s)    =  -0                +/- 3.08e-11
# P''_topo (s/s^2) =  0                 +/- 1.4e-14
# P_bary (ms)      =  N/A
# P'_bary (s/s)    =  N/A
# P''_bary (s/s^2) =  N/A
# P_orb (s)        =  N/A
# asin(i)/c (s)    =  N/A
# eccentricity     =  N/A
# w (rad)          =  N/A
# T_peri           =  N/A
######################################################
   0  15517.65
   1  14972.51
   2  14903.13
   3  13492.46
   4  13100.56
   5  12861.71
   6  14543.89
   7  14844.69
   8  13416.43
   9  12932.97
  10  13437.04
  11  14468.3
  12  13692.99
  13  13047.34
  14  13501.54
  15  11985.66
  16  12352.57
  17  12179.56
  18  12554.93
  19  12104.72
  20  13537.4
  21  14041.12
  22  13492.35
  23  13814.69
  24  13510.42
  25  12592.24
  26  11313.84
  27  12253.02
  28  13959.69
  29  14049.9
  30  15017.7
  31  14085.5
  32  14342.52
  33  14996.83
  34  15465.34
  35  15909.91
  36  14828.87
  37  14474.58
  38  14161.07
  39  13619.65
  40  13894.49
  41  13312.46
  42  12901.55
  43  13540.85
  44  14179.68
  45  15464.85
  46  15275.83
  47  14782.72
  48  14576.49
  49  14664.96
  50  14343.5
  51  14172.06
  52  14981.31
  53  15666.83
  54  15284.19
  55  13671.53
  56  13735.38
  57  15842.95
  58  16080.55
  59  15881.54
  60  13991.95
  61  14106.45
  62  14497.5
  63  15218.56
  64  15053.09
  65  13748.13
  66  13705.25
  67  13158.16
  68  12583.96
  69  11882.19
  70  13009.26
  71  12332.04
  72  12503.88
  73  12661.29
  74  13527.74
  75  13665.64
  76  12724.72
  77  12891.87
  78  15124.13
  79  16310.92
  80  15636.46
  81  15588.08
  82  15993.58
  83  16337.59
  84  15664.37
  85  14178.8
  86  13869.54
  87  14427.61
  88  14834.32
  89  13913.62
  90  12934.17
  91  13481.52
  92  14473.02
  93  14596.45
  94  14022.38
  95  13744.17
  96  14045.93
  97  14595.63
  98  14935.39
  99  15373.69
 100  16285.96
 101  16324.94
 102  15758.68
 103  15206.95
 104  13852.74
 105  12484.47
 106  12483.04
 107  14422.53
 108  15526.77
 109  15454.36
 110  14812.51
 111  16071.46
 112  16766.02
 113  16659.48
 114  15583.88
 115  14891.71
 116  15166.11
 117  14857.82
 118  13300.11
 119  11940.67
 120  10316.02
 121  11341.78
 122  11770.74
 123  12248.81
 124  13218.97
 125  12959.97
 126  12828.34
 127  12706.19
 128  12156.12
 129  12821.68
 130  13119.43
 131  15167.24
 132  14679.23
 133  12483
 134  11734.5
 135  13778.51
 136  15628.62
 137  15580.71
 138  14456.96
 139  14934.16
 140  15772.56
 141  15720.27
 142  14266.27
 143  14009.41
 144  14735.79
 145  15858.24
 146  15737.33
 147  13616.32
 148  12452.61
 149  11489.01
 150  12397.28
 151  12430.24
 152  13207.17
 153  13800.04
 154  13611.98
 155  13771.42
 156  15325.91
 157  15949.76
 158  15164.78
 159  13474.81
 160  14012.81
 161  12563.39
 162  10981.58
 163  11056.44
 164  12774.54
 165  14006.61
 166  13857.92
 167  14743.69
 168  14714.89
 169  13734.13
 170  14526.83
 171  15658.6
 172  15968.59
 173  13958.34
 174  12707.11
 175  11986.64
 176  12035.07
 177  11571.88
 178  13110.69
 179  14132.02
 180  15067.8
 181  15254.94
 182  14557.18
 183  14026.59
 184  13218.29
 185  12645.5
 186  12001.53
 187  11369.81
 188  11872.59
 189  12502.6
 190  11979.27
 191  11337.01
 192  12413.86
 193  12748.36
 194  12996.12
 195  12628.25
 196  13111.63
 197  12446.5
 198  11550.96
 199  13328.36
 200  13993.59
 201  14181.86
 202  14485.18
 203  14293.62
 204  13322.8
 205  11218.25
 206  12011.48
 207  13919.17
 208  15026.65
 209  14090.97
 210  13443.54
 211  11842.36
 212  11554.01
 213  11322.89
 214  11739.69
 215  13046.68
 216  13855.56
 217  14087.8
 218  13389.38
 219  12534.29
 220  12237.55
 221  12813.34
 222  12077.75
 223  12728.5
 224  12757.98
 225  14876.21
 226  14999.3
 227  14313.76
 228  13431.71
 229  14057.75
 230  15182.57
 231  14890.05
 232  14976.11
 233  14179.01
 234  14028.18
 235  14233.5
 236  15285.23
 237  16498.48
 238  15378.71
 239  15101.13
 240  14340.16
 241  14314.7
 242  14451.22
 243  13497.43
 244  12420.65
 245  12611.04
 246  12832.32
 247  12955.15
 248  11699.64
 249  11913.09
 250  12643.43
 251  14529.83
 252  14421.9
 253  15052.09
 254  14553.71
 255  13979.15
 256  13971.66
 257  13370.87
 258  14018.5
 259  14078.37
 260  14392.66
 261  12953.79
 262  10463.71
 263  9526.891
 264  9687.283
 265  8767.149
 266  8686.049
 267  9543.294
 268  11189.83
 269  11193
 270  11351.2
 271  12072.11
 272  13148.43
 273  13472.98
 274  13052.6
 275  13223.06
 276  12534.8
 277  12352.53
 278  12870.66
 279  13575.06
 280  14427.8
 281  14069.45
 282  13969.11
 283  14088.3
 284  14416.91
 285  15691.75
 286  15595.18
 287  14762.57
 288  15152.14
 289  16053.13
 290  14833.51
 291  12256.45
 292  11194.16
 293  12676
 294  13753.78
 295  13628.73
 296  13583.09
 297  12548.01
 298  13049.62
 299  13934.19
 300  14767
 301  15955.23
 302  16938.65
 303  17276.08
 304  15989.26
 305  13277.45
 306  12134.81
 307  12420.26
 308  13037.11
 309  13945.41
 310  13626.56
 311  12666.87
 312  12333.1
 313  12503.85
 314  14023.28
 315  15855.7
 316  16431.75
 317  16243.44
 318  14864.21
 319  12394.27
 320  11158.34
 321  10837.21
 322  12098.74
 323  12196.92
 324  13630.54
 325  13645.27
 326  13077.82
 327  11834.67
 328  12970.34
 329  12441.76
 330  12809.04
 331  12830.16
 332  13782.87
 333  13168.5
 334  13107.7
 335  13417.91
 336  13263.6
 337  11641.31
 338  11838.73
 339  12192.55
 340  12510.45
 341  10779.87
 342  11405.28
 343  12363.96
 344  12698.59
 345  12487.2
 346  12715.35
 347  11714.39
 348  10119.87
 349  10382.89
 350  12140.59
 351  11857.29
 352  11890.11
 353  11897.25
 354  12139.55
 355  10308.75
 356  10511.93
 357  13302.08
 358  15146.65
 359  14966.21
 360  13099.38
 361  13211.48
 362  11787.5
 363  11360.45
 364  11118.44
 365  12679.76
 366  14067.3
 367  13507.07
 368  13235.71
 369  13439.38
 370  13663.94
 371  13981.55
 372  14078.53
 373  15089.23
 374  16668.22
 375  15582.8
 376  14876.83
 377  15151.75
 378  16119.86
 379  16637.76
 380  15433.81
 381  15030.05
 382  13811.52
 383  13330.75
 384  13912.02
 385  15619.75
 386  15685.3
 387  15530.94
 388  15442.63
 389  16371.01
 390  15546.44
 391  14007.24
 392  13096.9
 393  13552.65
 394  13279.26
 395  13916.31
 396  14401.73
 397  14578.13
 398  14967.71
 399  13148.57
 400  13067.55
 401  13421.67
 402  13929.29
 403  13607.19
 404  11808.34
 405  11239.92
 406  11603.08
 407  11390.33
 408  12010.05
 409  12347.11
 410  13751.26
 411  13897.32
 412  13681.39
 413  13312.76
 414  14874.75
 415  13634.72
 416  13167.34
 417  12209.39
 418  12354.42
 419  12046.1
 420  10903.2
 421  10289.03
 422  10667.75
 423  11600.51
 424  12563.65
 425  13271.51
 426  13624.63
 427  14563.03
 428  14206.3
 429  13264.54
 430  13087.38
 431  13900.87
 432  14802.13
 433  14252.75
 434  13425.02
 435  13005.17
 436  13629.36
 437  13506.82
 438  12805.27
 439  12944
 440  12933.41
 441  13321.87
 442  13601.08
 443  14870.08
 444  15890.8
 445  15641.48
 446  16077.32
 447  14324.2
 448  13480.31
 449  12814.35
 450  12819.64
 451  12994.11
 452  13495.64
 453  14960.98
 454  14605.6
 455  13134.38
 456  12310.19
 457  12706.7
 458  13296.96
 459  13434.37
 460  14214.15
 461  14286.87
 462  13930.97
 463  13631.78
 464  13827.45
 465  14740.79
 466  15122.01
 467  15743.75
 468  14975.49
 469  14130.75
 470  13111.72
 471  13527.51
 472  13809.36
 473  13877.91
 474  13972.23
 475  14723.02
 476  13852.39
 477  13209.17
 478  13312.14
 479  14898.61
 480  13855.31
 481  14296.21
 482  14019.57
 483  14780.99
 484  14051.82
 485  13183.22
 486  12677.06
 487  12706.01
 488  13826.17
 489  14620.57
 490  13726.68
 491  13648.59
 492  14470.31
 493  14973.85
 494  15850.66
 495  15418.33
 496  14448.5
 497  11495.11
 498  10681.23
 499  11272.33
 500  12494.94
 501  12695.46
 502  12788.52
 503  13849.98
 504  13724.52
 505  14290.43
 506  13291.64
 507  12208.96
 508  11677.48
 509  11939.18
 510  13231.26
 511  12737.75
 512  12854.09
 513  14007.75
 514  14146.06
 515  12920.39
 516  11589.29
 517  11973.27
 518  12009.64
 519  11726.29
 520  11393.08
 521  11612.46
 522  12058.65
 523  11257.72
 524  11549.96
 525  11818.28
 526  11165.21
 527  10929.17
 528  10774.87
 529  11185.76
 530  11051.85
 531  11331.93
 532  12854.98
 533  12984.72
 534  11993.16
 535  12087.55
 536  11212.58
 537  11440.12
 538  11107.13
 539  11480.98
 540  11300.88
 541  11124.02
 542  11673.02
 543  13132.99
 544  13543.16
 545  13244.97
 546  14335.22
 547  15479.88
 548  14200.86
 549  11558.19
 550  10758.92
 551  12464.7
 552  13926.45
 553  13469.43
 554  13617.46
 555  11744.54
 556  12142.6
 557  12605.38
 558  12378.88
 559  13097.43
 560  13949.73
 561  13585.07
 562  11649.11
 563  9642.923
 564  10949.24
 565  12577.13
 566  12173.59
 567  11597.22
 568  11487.99
 569  11974.54
 570  11416.85
 571  11108.58
 572  12686.02
 573  12782.43
 574  12852.67
 575  12312.95
 576  11768.23
 577  11625.1
 578  12330.46
 579  13712.19
 580  13166.22
 581  11718.37
 582  10513.31
 583  9950.314
 584  10245.88
 585  10608.09
 586  12254.65
 587  12792.03
 588  13073.56
 589  12761.69
 590  12602.57
 591  12220.61
 592  11712.13
 593  12266.92
 594  12971.61
 595  13188.73
 596  12230.62
 597  11622.17
 598  11521.15
 599  11709.67
 600  12951.8
 601  14535.35
 602  15616.07
 603  15792.6
 604  15727.9
 605  16649.06
 606  15603.37
 607  15909.62
 608  16158.46
 609  16833.85
 610  16205.27
 611  13985.13
 612  12559.31
 613  12013.57
 614  13009.25
 615  14460.25
 616  15380.73
 617  16335.59
 618  15703.45
 619  15840.2
 620  16203.49
 621  15388.91
 622  14990.78
 623  15105.17
 624  16567.84
 625  17104.85
 626  15095.54
 627  14317.43
 628  14150.74
 629  15495.22
 630  14721.88
 631  15149.14
 632  15547.15
 633  15738.75
 634  15031.21
 635  15346.36
 636  14603.23
 637  14830.19
 638  14768.91
 639  14919.02
 640  14164.37
 641  13550.08
 642  14073.82
 643  14075.42
 644  14122.2
 645  14868.79
 646  16043.89
 647  16046.77
 648  15204.02
 649  14264.51
 650  14916.84
 651  14855.11
 652  15694.48
 653  16057.09
 654  15969.3
 655  14693.1
 656  13574.18
 657  12363.04
 658  13080.97
 659  13599.69
 660  14554.74
 661  14813.23
 662  14538.66
 663  14438.98
 664  14341.14
 665  14088.98
 666  14505.33
 667  14370.11
 668  13983.4
 669  12952.96
 670  11928.94
 671  11061.7
 672  12837.5
 673  14167.62
 674  15062.75
 675  15558.48
 676  15775.32
 677  15515.89
 678  14061.8
 679  13228.89
 680  13437.81
 681  13261.83
 682  13576.92
 683  12674.59
 684  12600.24
 685  12917.5
 686  13345.22
 687  13756.15
 688  13723.71
 689  14414.63
 690  13704.35
 691  13440.9
 692  12817
 693  12895.51
 694  12754.64
 695  14320.32
 696  14583.99
 697  13957
 698  12069.61
 699  11538.96
 700  13451.55
 701  14625.32
 702  14661.36
 703  14628.76
 704  14762.96
 705  15531.32
 706  15240.98
 707  14797.27
 708  14787.41
 709  14024.52
 710  14755.88
 711  13548.64
 712  13342.59
 713  11712.21
 714  11609.79
 715  12086.24
 716  13013.78
 717  14169
 718  14403.17
 719  14557.64
 720  14657.14
 721  14982.24
 722  15105.73
 723  14435.41
 724  13408.21
 725  13985.92
 726  15487.86
 727  15114.28
 728  14542.2
 729  15085.99
 730  16539.95
 731  16478.38
 732  15112.02
 733  13483.09
 734  12724.12
 735  13118.49
 736  14752.19
 737  15412.93
 738  15693.93
 739  15205.14
 740  14695.17
 741  14273.86
 742  14037.05
 743  13574.99
 744  14278.89
 745  14452.63
 746  14369.24
 747  14055.04
 748  13423.87
 749  12903.59
 750  12922.76
 751  13124.27
 752  12730.43
 753  12786.75
 754  12735.06
 755  11851.05
 756  11450.46
 757  11082.96
 758  11528.36
 759  11888.63
 760  11851.47
 761  11423.48
 762  10308.33
 763  10178.74
 764  11019.92
 765  12771.05
 766  14346.62
 767  13990.2
 768  12736.54
 769  11789.12
 770  10557.86
 771  11513.2
 772  13640.58
 773  13866.2
 774  13996.43
 775  14125.15
 776  15027.99
 777  14581.25
 778  13841.88
 779  14338.94
 780  14658.18
 781  14750.44
 782  14657.46
 783  13964.43
 784  13126.85
 785  12664.2
 786  13980.42
 787  14664.69
 788  14978.22
 789  14756.25
 790  15335.16
 791  15243.39
 792  13159.95
 793  12689.81
 794  12750.95
 795  12999.19
 796  13818.67
 797  14235.46
 798  14615.04
 799  14140.13
 800  14803.3
 801  15631.32
 802  14496.12
 803  13873.2
 804  13945.54
 805  14490.91
 806  14274.86
 807  14098.05
 808  13848.08
 809  14826.97
 810  16145.21
 811  17215.82
 812  15710.31
 813  14632.78
 814  15389.33
 815  16730.99
 816  16184.13
 817  14537.39
 818  14321.18
 819  14069.23
 820  14965.67
 821  14273.04
 822  14218.66
 823  15505.41
 824  16403.81
 825  16262.19
 826  14628.72
 827  13109.44
 828  13123.1
 829  14027.46
 830  16172.87
 831  15690.05
 832  15796.31
 833  15974.94
 834  15644.47
 835  13695.85
 836  14762.39
 837  15792.81
 838  16872.84
 839  17092.56
 840  16584.5
 841  15296
 842  13301.93
 843  12538.94
 844  13275.7
 845  13150.56
 846  13753.16
 847  14673.18
 848  16583.5
 849  16507.99
 850  15967.3
 851  14511.07
 852  14962.33
 853  14688.49
 854  14651.25
 855  12933.47
 856  11795.12
 857  11666.09
 858  11170.18
 859  11479.26
 860  11559.37
 861  13255.84
 862  14757.74
 863  15127.94
 864  15424.8
 865  15278.14
 866  15243.06
 867  14241.06
 868  13093.48
 869  12355.77
 870  11584.37
 871  12173.25
 872  13080.64
 873  14675.38
 874  15615.11
 875  15951.48
 876  14788.58
 877  13295.72
 878  12817.39
 879  13080.78
 880  14234.11
 881  14898.89
 882  15605
 883  14266.8
 884  12980.73
 885  11563.65
 886  11522.59
 887  12309.27
 888  13753.35
 889  15197.68
 890  15146.76
 891  14372.45
 892  13313.39
 893  12597.47
 894  12881.07
 895  14499.88
 896  15203.64
 897  14994.49
 898  14930.74
 899  14272.37
 900  14279.56
 901  13891.14
 902  13371.4
 903  12308.85
 904  12892.45
 905  15481.19
 906  15540.98
 907  14312.41
 908  12520.73
 909  13474.3
 910  14231.64
 911  14999.25
 912  13936.29
 913  12694.31
 914  13142.3
 915  13466.89
 916  13547.8
 917  13071.31
 918  12279.59
 919  12566.78
 920  13589.98
 921  13573.15
 922  13892.17
 923  14486.49
 924  15371.76
 925  14388.2
 926  13170.21
 927  12286.11
 928  11100.1
 929  10300.03
 930  10809.22
 931  12328.25
 932  12028.06
 933  12769.49
 934  13537.67
 935  13631.93
 936  13491.66
 937  13852.29
 938  14787.88
 939  14482.51
 940  13775.41
 941  14257.14
 942  13932.03
 943  13503.72
 944  13354.77
 945  14320.22
 946  14286.99
 947  14499.91
 948  14337.86
 949  14088.94
 950  12971.67
 951  12592.32
 952  12655.87
 953  13180.29
 954  13376.61
 955  13052.42
 956  11272.77
 957  10499.27
 958  9542.733
 959  10518.99
 960  12605.3
 961  14712.45
 962  16104.39
 963  15524.19
 964  15265.65
 965  14417.2
 966  13476.21
 967  12063.49
 968  13246.47
 969  13940.74
 970  12590.27
 971  10763.55
 972  10831.11
 973  11810.43
 974  11600.73
 975  11247.24
 976  11785.12
 977  11430.24
 978  12105.91
 979  13341.68
 980  13067.75
 981  13244.33
 982  14233.71
 983  14359.44
 984  13923.89
 985  12368.42
 986  12661.61
 987  12066.54
 988  11812.71
 989  12246.32
 990  14220.51
 991  14323.18
 992  14597.6
 993  13656.8
 994  13622.53
 995  13140.11
 996  13340.06
 997  13111.73
 998  12626.61
 999  11260.47
1000  11631.75
1001  12483.15
1002  12522.41
1003  13561.52
1004  13594.05
1005  14163.83
1006  13248.96
1007  12886.52
1008  13000.08
1009  11230.57
1010  10323.99
1011  9887.812
1012  10673.83
1013  10728.16
1014  11049.3
1015  11614.55
1016  13346.92
1017  14810
1018  14772.38
1019  14471.61
1020  14107.67
1021  15552.28
1022  16439.57
1023  15753.6
