# Input file       =  1195000152.117789_cleaned.dat
# Candidate        =  PSR_0332+5434
# Telescope        =  AR
# Epoch_topo       =  58075.020499048485
# Epoch_bary       =  N/A
# T_sample         =  0.002
# Data Folded      =  7340032
# Data Avg         =  0.0904007039255173
# Data StdDev      =  1.00033941487739 
# Profile Bins     =  512
# Profile Avg      =  1295.74015373024 
# Profile StdDev   =  119.773675550628 
# Reduced chi-sqr  =  0.746
# Prob(Noise)      <  1   (~0.0 sigma)
# P_topo (ms)      =  714.512613504518  +/- 3.98e-05
# P'_topo (s/s)    =  -0                +/- 2.1e-11
# P''_topo (s/s^2) =  0                 +/- 9.28e-15
# P_bary (ms)      =  N/A
# P'_bary (s/s)    =  N/A
# P''_bary (s/s^2) =  N/A
# P_orb (s)        =  N/A
# asin(i)/c (s)    =  N/A
# eccentricity     =  N/A
# w (rad)          =  N/A
# T_peri           =  N/A
######################################################
   0  1557.103
   1  1513.589
   2  1386.675
   3  1354.224
   4  1277.274
   5  1330.569
   6  1327.451
   7  1267.717
   8  1240.148
   9  1241.726
  10  1262.162
  11  1314.441
  12  1238.56
  13  1329.094
  14  1312.952
  15  1393.967
  16  1402.188
  17  1353.656
  18  1353.607
  19  1355.083
  20  1290.071
  21  1210.533
  22  1169.09
  23  1280.755
  24  1373.031
  25  1266.075
  26  1247.849
  27  1345.09
  28  1398.322
  29  1282.672
  30  1322.575
  31  1256.901
  32  1266.004
  33  1302.171
  34  1345.637
  35  1388.454
  36  1214.529
  37  1357.165
  38  1336.03
  39  1270.018
  40  1297.976
  41  1304.609
  42  1357.245
  43  1331.604
  44  1308.799
  45  1361.698
  46  1240.603
  47  1228.663
  48  1358.648
  49  1316.266
  50  1294.306
  51  1218.263
  52  1318.749
  53  1402.924
  54  1339.207
  55  1394.344
  56  1388.143
  57  1288.905
  58  1311.328
  59  1330.462
  60  1337.347
  61  1318.32
  62  1387.898
  63  1386.03
  64  1306.876
  65  1266.245
  66  1387.869
  67  1369.825
  68  1207.66
  69  1265.731
  70  1248.615
  71  1264.847
  72  1233.74
  73  1220.242
  74  1314.084
  75  1281.483
  76  1268.059
  77  1299.587
  78  1314.814
  79  1292.011
  80  1351.632
  81  1329.785
  82  1355.208
  83  1370.78
  84  1345.642
  85  1438.271
  86  1431.7
  87  1424.417
  88  1385.38
  89  1332.913
  90  1308.619
  91  1340.804
  92  1347.412
  93  1247.535
  94  1186.673
  95  1344.594
  96  1375.687
  97  1394.424
  98  1416.625
  99  1459.446
 100  1322.739
 101  1331.218
 102  1372.397
 103  1450.464
 104  1342.549
 105  1340.208
 106  1413.115
 107  1347.179
 108  1290.708
 109  1304.957
 110  1379.166
 111  1319.845
 112  1359.816
 113  1440.069
 114  1341.556
 115  1281.076
 116  1362.569
 117  1430.171
 118  1317.5
 119  1349.982
 120  1487.655
 121  1482.411
 122  1389.311
 123  1281.515
 124  1284.967
 125  1326.886
 126  1290.157
 127  1308.975
 128  1288.784
 129  1317.72
 130  1257.065
 131  1297.327
 132  1286.56
 133  1266.225
 134  1347.927
 135  1446.513
 136  1353.547
 137  1383.897
 138  1497.849
 139  1370.621
 140  1379.41
 141  1451.28
 142  1513.064
 143  1433.263
 144  1339.559
 145  1278.473
 146  1301.589
 147  1259.885
 148  1369.09
 149  1420.5
 150  1305.387
 151  1332.289
 152  1313.277
 153  1333.277
 154  1199.002
 155  1246.441
 156  1268.27
 157  1203.139
 158  1186.246
 159  1229.733
 160  1274.66
 161  1165.762
 162  1229.367
 163  1395.444
 164  1370.444
 165  1264.713
 166  1312.469
 167  1238.454
 168  1309.183
 169  1429.208
 170  1405.69
 171  1434.9
 172  1285.049
 173  1234.414
 174  1284.802
 175  1253.071
 176  1306.375
 177  1296.651
 178  1306.132
 179  1279.39
 180  1404.094
 181  1422.321
 182  1347.222
 183  1356.263
 184  1296.21
 185  1309.666
 186  1219.152
 187  1259.924
 188  1348.008
 189  1361.145
 190  1310.339
 191  1271.985
 192  1319.084
 193  1381.256
 194  1345.613
 195  1359.347
 196  1330.596
 197  1253.075
 198  1307.288
 199  1355.598
 200  1368.604
 201  1288.526
 202  1262.082
 203  1316.46
 204  1349.962
 205  1246.526
 206  1273.44
 207  1276.126
 208  1154.204
 209  1222.48
 210  1272.458
 211  1320.002
 212  1373.786
 213  1406.202
 214  1380.8
 215  1296.064
 216  1246.066
 217  1290.068
 218  1318.763
 219  1335.916
 220  1347.216
 221  1353.493
 222  1307.816
 223  1256.376
 224  1246.407
 225  1271.838
 226  1264.321
 227  1302.034
 228  1354.449
 229  1370.509
 230  1314.018
 231  1237.174
 232  1246.988
 233  1239.121
 234  1313.894
 235  1294.231
 236  1265.051
 237  1242.31
 238  1269.529
 239  1217.897
 240  1118.135
 241  1180.796
 242  1317.47
 243  1302.373
 244  1189.937
 245  1162.415
 246  1206.56
 247  1099.241
 248  1233.266
 249  1265.487
 250  1236.967
 251  1190.191
 252  1229.969
 253  1350.538
 254  1265.846
 255  1139.633
 256  1103.75
 257  1124.206
 258  1098.29
 259  1143.517
 260  1166.526
 261  1261.917
 262  1251.014
 263  1379.556
 264  1358.165
 265  1248.985
 266  1282.865
 267  1383.404
 268  1301.458
 269  1269.081
 270  1338.768
 271  1371.148
 272  1303.08
 273  1344.846
 274  1393.606
 275  1346.133
 276  1247.852
 277  1358.864
 278  1359.775
 279  1203.935
 280  1223.958
 281  1268.094
 282  1275.186
 283  1216.461
 284  1329.234
 285  1344.871
 286  1215.249
 287  1286.825
 288  1227.872
 289  1203.982
 290  1215.187
 291  1245.781
 292  1226.521
 293  1160.587
 294  1321.815
 295  1389.538
 296  1234.93
 297  1162.765
 298  1275.694
 299  1206.33
 300  1188.25
 301  1154.977
 302  1216.393
 303  1292.125
 304  1385.046
 305  1316.296
 306  1235.006
 307  1163.551
 308  1109.142
 309  1206.957
 310  1373.844
 311  1253.914
 312  1197.083
 313  1213.983
 314  1289.183
 315  1217.309
 316  1198.121
 317  1263.411
 318  1198.922
 319  1071.209
 320  1194.11
 321  1347.152
 322  1323.547
 323  1221.488
 324  1247.418
 325  1282.034
 326  1199.875
 327  1239.593
 328  1341.514
 329  1318.689
 330  1220.128
 331  1232.758
 332  1235.895
 333  1139.93
 334  1172.88
 335  1240.368
 336  1326.64
 337  1335.122
 338  1200.61
 339  1298.478
 340  1260.269
 341  1370.029
 342  1317.442
 343  1249.931
 344  1307.261
 345  1305.52
 346  1329.439
 347  1217.013
 348  1168.745
 349  1272.049
 350  1184.539
 351  1164.081
 352  1264.992
 353  1391.5
 354  1349.755
 355  1401.267
 356  1346.512
 357  1268.134
 358  1287.568
 359  1349.568
 360  1381.159
 361  1233.745
 362  1263.786
 363  1280.26
 364  1298.031
 365  1321.796
 366  1353.592
 367  1388.039
 368  1375.56
 369  1295.429
 370  1273.333
 371  1316.805
 372  1331.151
 373  1338.343
 374  1332.743
 375  1385.367
 376  1306.92
 377  1304.148
 378  1244.216
 379  1299.775
 380  1259.199
 381  1252.257
 382  1326.937
 383  1354.838
 384  1302.039
 385  1250.41
 386  1193.018
 387  1307.49
 388  1336.154
 389  1265.568
 390  1195.31
 391  1190.352
 392  1255.556
 393  1218.779
 394  1237.214
 395  1255.866
 396  1319.606
 397  1182.548
 398  1183.856
 399  1259.226
 400  1234.012
 401  1185.698
 402  1247.343
 403  1323.867
 404  1263.566
 405  1177.069
 406  1184.317
 407  1360.442
 408  1333.552
 409  1332.286
 410  1260.009
 411  1285.585
 412  1201.406
 413  1261.967
 414  1197.838
 415  1286.911
 416  1269.802
 417  1353.076
 418  1372.951
 419  1263.797
 420  1276.404
 421  1343.881
 422  1199.043
 423  1258.585
 424  1354.574
 425  1384.452
 426  1333.414
 427  1223.555
 428  1350.214
 429  1305.236
 430  1279.779
 431  1312.531
 432  1270.46
 433  1213.925
 434  1269.075
 435  1339.181
 436  1364.017
 437  1373.815
 438  1360.293
 439  1404.636
 440  1368.103
 441  1362.089
 442  1357.038
 443  1294.026
 444  1256.177
 445  1290.327
 446  1331.738
 447  1319.853
 448  1282.681
 449  1191.194
 450  1212.033
 451  1143.512
 452  1244.321
 453  1329.174
 454  1259.422
 455  1243.539
 456  1296.035
 457  1294.692
 458  1204.453
 459  1279.161
 460  1353.886
 461  1308.726
 462  1088.118
 463  1146.758
 464  1266.548
 465  1176.382
 466  1129.357
 467  1235.764
 468  1223.045
 469  1214.281
 470  1190.803
 471  1296.653
 472  1335.34
 473  1309.963
 474  1320.188
 475  1365.425
 476  1289.477
 477  1226.729
 478  1188.232
 479  1221.554
 480  1360.007
 481  1362.719
 482  1346.471
 483  1276.088
 484  1255.274
 485  1246.277
 486  1304.846
 487  1232.021
 488  1341.679
 489  1376.327
 490  1276.579
 491  1185.171
 492  1196.319
 493  1274.11
 494  1191.859
 495  1171.902
 496  1386.922
 497  1471.086
 498  1306.703
 499  1312.246
 500  1335.852
 501  1315.142
 502  1273.445
 503  1278.119
 504  1422.67
 505  1427.631
 506  1364.16
 507  1288.164
 508  1299.191
 509  1377.457
 510  1475.349
 511  1467.706
