# Input file       =  1195243722.108974_cleaned.dat
# Candidate        =  PSR_0332+5434
# Telescope        =  AR
# Epoch_topo       =  58077.839596168684
# Epoch_bary       =  N/A
# T_sample         =  0.002
# Data Folded      =  7340032
# Data Avg         =  0.427947996948206
# Data StdDev      =  7.92427851145454 
# Profile Bins     =  512
# Profile Avg      =  6136.24967652975 
# Profile StdDev   =  948.797927271613 
# Reduced chi-sqr  =  0.537
# Prob(Noise)      <  1   (~0.0 sigma)
# P_topo (ms)      =  714.515172248248  +/- 6.82e-05
# P'_topo (s/s)    =  -0                +/- 3.6e-11
# P''_topo (s/s^2) =  0                 +/- 1.59e-14
# P_bary (ms)      =  N/A
# P'_bary (s/s)    =  N/A
# P''_bary (s/s^2) =  N/A
# P_orb (s)        =  N/A
# asin(i)/c (s)    =  N/A
# eccentricity     =  N/A
# w (rad)          =  N/A
# T_peri           =  N/A
######################################################
   0  6206.751
   1  6329.029
   2  5680.712
   3  5524.355
   4  6462.143
   5  6236.132
   6  5929.826
   7  6376.102
   8  6364
   9  6231.984
  10  5950.148
  11  5579.409
  12  4975.901
  13  5169.885
  14  5841.555
  15  6316.712
  16  6171.364
  17  6183.42
  18  6389.484
  19  6809.807
  20  6382.768
  21  6308.388
  22  6668.886
  23  6725.759
  24  6265.106
  25  6223.499
  26  6872.513
  27  6858.706
  28  6542.844
  29  6427.415
  30  6223.732
  31  5547.322
  32  6250.154
  33  7101.848
  34  7084.531
  35  6512.733
  36  5938.023
  37  5741.811
  38  5999.274
  39  5899.823
  40  6598.263
  41  6451.105
  42  6331.012
  43  6465.358
  44  6277.234
  45  5778.748
  46  5655.347
  47  6033.295
  48  6219.279
  49  5726.475
  50  5766.294
  51  6252.771
  52  6581.139
  53  6575.465
  54  6563.288
  55  7464.296
  56  6662.147
  57  5658.834
  58  6309.293
  59  6195.065
  60  5760.683
  61  5820.889
  62  5523.193
  63  5905.914
  64  6257.292
  65  6046.478
  66  6419.915
  67  5952.551
  68  6043.526
  69  6395.54
  70  6552.164
  71  6703.162
  72  7029.645
  73  7327.057
  74  6728.085
  75  6600.154
  76  6434.854
  77  6397.142
  78  5836.011
  79  6214.069
  80  7127.712
  81  6925.49
  82  6763.565
  83  6599.416
  84  6009.058
  85  5777.942
  86  5962.319
  87  6315.119
  88  6027.955
  89  5998.771
  90  6146.628
  91  6481.084
  92  6429.696
  93  6117.604
  94  6118.219
  95  6657.072
  96  6843.681
  97  6515.961
  98  6195.052
  99  6188.084
 100  5937.993
 101  5748.754
 102  5975.767
 103  5581.557
 104  5587.682
 105  5328.422
 106  5509.092
 107  5748.962
 108  5758.251
 109  6063.868
 110  5802.924
 111  6232.872
 112  6583.145
 113  5968.653
 114  5316.728
 115  5323.49
 116  6019.786
 117  5691.991
 118  5823.501
 119  5658.485
 120  6090.025
 121  5995.79
 122  5920.339
 123  6097.092
 124  6002.776
 125  6009.331
 126  6528.739
 127  5996.229
 128  5684.918
 129  5849.566
 130  5981.875
 131  6013.953
 132  6057.149
 133  6375.919
 134  6171.688
 135  5829.863
 136  5882.162
 137  6603.207
 138  6720.802
 139  6663.033
 140  6713.134
 141  6287.896
 142  5623.844
 143  6031.917
 144  6608.463
 145  6765.972
 146  6711.141
 147  6838.785
 148  6457.391
 149  5569.068
 150  5601.757
 151  6393.015
 152  7078.881
 153  6707.36
 154  6460.046
 155  6302.017
 156  5984.14
 157  5622.689
 158  5974.599
 159  6227.977
 160  6211.126
 161  6554.975
 162  6654.793
 163  6646.847
 164  6270.019
 165  6259.255
 166  6209.981
 167  6885.604
 168  6485.597
 169  6408.779
 170  6435.38
 171  6071.559
 172  6643.199
 173  7046.126
 174  7036.053
 175  6414.851
 176  6121.259
 177  5395.551
 178  5829.023
 179  6709.764
 180  6610.068
 181  6355.397
 182  6294.035
 183  6183.297
 184  6082.168
 185  6123.694
 186  6288.327
 187  6060.659
 188  6154.025
 189  6504.595
 190  6607.804
 191  6385.481
 192  6086.38
 193  6378.982
 194  6493.246
 195  6419.89
 196  5822.763
 197  5941.511
 198  5681.582
 199  5074.927
 200  5427.969
 201  5487.224
 202  6221.558
 203  6197.807
 204  6237.723
 205  7167.302
 206  6876.833
 207  6435.321
 208  6777.561
 209  6311.257
 210  5818.131
 211  5774.349
 212  6090.46
 213  6206.358
 214  6342.827
 215  6810.758
 216  6462.342
 217  5799.735
 218  5304.103
 219  5638.011
 220  6198.186
 221  6541.042
 222  6374.712
 223  6201.65
 224  6034.195
 225  5916.697
 226  6350.517
 227  6453.328
 228  6227.643
 229  5880.875
 230  6736.488
 231  6940.54
 232  6314.763
 233  6209.074
 234  6265.27
 235  5744.561
 236  5726.727
 237  6247.082
 238  6087.218
 239  6136.057
 240  5848.56
 241  6411.449
 242  5922.532
 243  5324.901
 244  5656.997
 245  5828.011
 246  5658.83
 247  5946.189
 248  6617.763
 249  7099.781
 250  7080.041
 251  6450.143
 252  6440.061
 253  6337.677
 254  6804.375
 255  6679.339
 256  6265.782
 257  6295.739
 258  6355.052
 259  5697.706
 260  5858.674
 261  5192.186
 262  5748.516
 263  5967.909
 264  5619.842
 265  5743.335
 266  6289.528
 267  6022.057
 268  5673.004
 269  5490.829
 270  5596.405
 271  5569.687
 272  5954.081
 273  6332.555
 274  6831.506
 275  6476.16
 276  6040.033
 277  5491.535
 278  5041.393
 279  5563.6
 280  6087.251
 281  5655.596
 282  4561.205
 283  4809.54
 284  5355.378
 285  5167.994
 286  5710.723
 287  6103.875
 288  5529.599
 289  5814.231
 290  5962.649
 291  5943.103
 292  6031.479
 293  5809.44
 294  6366.404
 295  6108.971
 296  5915.151
 297  6026.075
 298  6404.054
 299  6621.279
 300  6063.349
 301  6093.164
 302  6245.573
 303  6278.677
 304  6900.271
 305  7850.835
 306  8544.633
 307  8317.491
 308  8122.691
 309  7573.523
 310  6557.832
 311  6603.582
 312  6463.77
 313  6577.16
 314  6040.303
 315  6174.947
 316  6251.764
 317  6016.224
 318  6174.639
 319  6216.191
 320  6405.561
 321  5867.261
 322  6280.276
 323  6765.583
 324  6236.702
 325  6058.601
 326  6051.296
 327  5647.479
 328  5721.89
 329  5552.716
 330  6002.871
 331  5818.771
 332  5844.229
 333  5964.257
 334  5812.197
 335  6240.292
 336  6429.843
 337  6230.861
 338  5868.565
 339  5922.107
 340  5491.12
 341  5491.12
 342  5757.789
 343  6378.395
 344  6542.112
 345  5767.7
 346  5579.831
 347  5548.691
 348  5798.93
 349  6279.907
 350  6686.522
 351  7469.17
 352  7056.458
 353  6110.754
 354  6372.192
 355  6191.826
 356  6194.345
 357  6233.518
 358  6544.896
 359  6838.54
 360  6068.872
 361  5409.786
 362  5277.721
 363  5327.4
 364  5429.432
 365  5380.538
 366  5975.412
 367  6082.58
 368  5637.29
 369  5886.481
 370  6015.41
 371  5596.29
 372  5671.316
 373  6129.178
 374  6028.344
 375  5815.276
 376  6223.148
 377  6493.471
 378  6415.313
 379  6323.382
 380  6333.995
 381  6423.55
 382  6312.431
 383  6298.93
 384  5734.713
 385  5721.107
 386  5995.99
 387  6279.981
 388  6426.992
 389  6300.395
 390  6681.822
 391  6750.575
 392  6377.082
 393  6706.82
 394  6581.12
 395  6631.378
 396  6254.999
 397  6016.572
 398  6258.854
 399  6418.921
 400  5989.434
 401  6099.981
 402  6474.938
 403  6435.512
 404  6260.423
 405  6883.543
 406  6370.181
 407  5578.173
 408  5722.378
 409  6984.2
 410  6774.548
 411  6300.664
 412  5937.994
 413  5349.899
 414  5043.366
 415  5527.143
 416  6119.51
 417  6052.178
 418  5884.641
 419  5765.814
 420  5672.329
 421  5305.213
 422  5522.358
 423  5896.196
 424  5690.824
 425  5414.176
 426  5813.396
 427  6250.945
 428  6259.3
 429  6197.938
 430  6696.914
 431  6430.431
 432  6449.959
 433  6625.618
 434  6178.34
 435  6084.022
 436  6367.334
 437  6830.256
 438  7003.307
 439  6678.983
 440  5936.199
 441  6061.233
 442  6033.539
 443  5070.098
 444  5550.628
 445  5865.54
 446  5409.435
 447  5335.387
 448  6085.173
 449  6139.62
 450  5893.14
 451  5724.048
 452  6123.501
 453  5467.797
 454  5382.67
 455  5430.128
 456  5818.61
 457  5766.84
 458  5026.454
 459  5108.976
 460  5148.806
 461  5260.378
 462  5604.618
 463  5440.837
 464  5618
 465  5583.708
 466  5946.727
 467  5713.164
 468  5863.762
 469  5686.009
 470  5206.157
 471  6105.345
 472  6196.05
 473  5659.475
 474  4920.508
 475  4500.604
 476  4943.894
 477  5440.217
 478  5714.127
 479  5451.635
 480  6027.616
 481  6393.26
 482  6346.011
 483  6028.506
 484  6571.469
 485  6721.235
 486  6310.356
 487  6474.663
 488  6729.865
 489  6085.258
 490  5930.41
 491  6004.127
 492  6419.913
 493  6043.79
 494  6051.738
 495  7252.121
 496  6269.344
 497  5330.732
 498  6220.679
 499  6787.31
 500  6165.38
 501  5932.797
 502  6541.645
 503  6982.196
 504  6825.041
 505  6389.147
 506  6353.776
 507  6282.311
 508  6087.743
 509  6163.243
 510  5872.658
 511  6061.07
