# Input file       =  1196779532.114438_cleaned.dat
# Candidate        =  PSR_0332+5434
# Telescope        =  AR
# Epoch_topo       =  58095.615174935629
# Epoch_bary       =  N/A
# T_sample         =  0.002
# Data Folded      =  7208960
# Data Avg         =  0.203705832326192
# Data StdDev      =  4.59258707068581 
# Profile Bins     =  1024
# Profile Avg      =  1434.07910927373 
# Profile StdDev   =  385.339676458169 
# Reduced chi-sqr  =  1.423
# Prob(Noise)      <  1.09e-17   (~8.5 sigma)
# P_topo (ms)      =  714.533477455941  +/- 1.81e-05
# P'_topo (s/s)    =  -0                +/- 9.7e-12
# P''_topo (s/s^2) =  0                 +/- 4.36e-15
# P_bary (ms)      =  N/A
# P'_bary (s/s)    =  N/A
# P''_bary (s/s^2) =  N/A
# P_orb (s)        =  N/A
# asin(i)/c (s)    =  N/A
# eccentricity     =  N/A
# w (rad)          =  N/A
# T_peri           =  N/A
######################################################
   0  1382.54
   1  1586.265
   2  1821.88
   3  1888.867
   4  1736.4
   5  1613.33
   6  1527.822
   7  1392.783
   8  1243.406
   9  1089.941
  10  1165.396
  11  1239.629
  12  1295.44
  13  1211.432
  14  1131.847
  15  1231.608
  16  1458.348
  17  1562.076
  18  1583.08
  19  1556.953
  20  1795.178
  21  1909.099
  22  1816.562
  23  1716.334
  24  1618.372
  25  1461.739
  26  1375.564
  27  1281.927
  28  1367.193
  29  1390.993
  30  1400.147
  31  1293.786
  32  1230.548
  33  1303.042
  34  1514.055
  35  1706.644
  36  1812.552
  37  1772.879
  38  1680.312
  39  1505.777
  40  1323.95
  41  1195.698
  42  1174.959
  43  1166.308
  44  1119.4
  45  952.4908
  46  1054.104
  47  999.0736
  48  1228.72
  49  1378.003
  50  1555.048
  51  1598.765
  52  1676.424
  53  1955.381
  54  1798.069
  55  1511.147
  56  1414.149
  57  1368.214
  58  1386.177
  59  1271.231
  60  1289.138
  61  1321.938
  62  1340.605
  63  1401.162
  64  1487.894
  65  1478.453
  66  1494.377
  67  1693.407
  68  1745.298
  69  1566.374
  70  1396.415
  71  1602.813
  72  1575.344
  73  1479.295
  74  1128.427
  75  1154.369
  76  1001.82
  77  928.6894
  78  1000.724
  79  1048.259
  80  1184.52
  81  1270.437
  82  1271.375
  83  1458.48
  84  1541.905
  85  1791.2
  86  1726.236
  87  1465.76
  88  1517.991
  89  1471.114
  90  1181.438
  91  964.7646
  92  931.6053
  93  1274.434
  94  1381.807
  95  1412.89
  96  1474.779
  97  1484.795
  98  1780.583
  99  1848.31
 100  1774.313
 101  1640.349
 102  1611.171
 103  1650.764
 104  1554.307
 105  1379.225
 106  1366.69
 107  1344.923
 108  1390.673
 109  1236.327
 110  1201.9
 111  1090.24
 112  1097.919
 113  1423.853
 114  1594.77
 115  1652.377
 116  1641.784
 117  1874.783
 118  2107.78
 119  1927.841
 120  1818.934
 121  1701.773
 122  1479.651
 123  1347.792
 124  1270.256
 125  1292.176
 126  1178.239
 127  1217.716
 128  1233.865
 129  1349.568
 130  1406.523
 131  1473.552
 132  1550.796
 133  1587.833
 134  1733.286
 135  1825.303
 136  1717.575
 137  1455.098
 138  1331.114
 139  1227.742
 140  1309.164
 141  1285.677
 142  1256.679
 143  1270.374
 144  1328.704
 145  1399.717
 146  1435.634
 147  1418.898
 148  1512.9
 149  1681.292
 150  1901.608
 151  1896.407
 152  1684.727
 153  1772.579
 154  1809.351
 155  1779.469
 156  1430.497
 157  1142.194
 158  1097.952
 159  1104.617
 160  1231.161
 161  1382.719
 162  1389.5
 163  1498.768
 164  1409.097
 165  1474.603
 166  1620.037
 167  1807.419
 168  1841.503
 169  1778.599
 170  1750.092
 171  1583.778
 172  1510.809
 173  1309.952
 174  1276.641
 175  1147.094
 176  1067.428
 177  1246.347
 178  1176.438
 179  1207.397
 180  1218.315
 181  1378.088
 182  1730.313
 183  1739.3
 184  1664.946
 185  1554.867
 186  1694.112
 187  1809.529
 188  1624.884
 189  1518.362
 190  1331.627
 191  1212.207
 192  1144.078
 193  1100.627
 194  1176.994
 195  1163.704
 196  1317.709
 197  1489.879
 198  1616.798
 199  1761.786
 200  1877.886
 201  1942.798
 202  1706.285
 203  1365.421
 204  1313.922
 205  1380.798
 206  1260.984
 207  1070.237
 208  1050.944
 209  1194.456
 210  1184.191
 211  1304.918
 212  1383.613
 213  1456.822
 214  1659.697
 215  1855.255
 216  1836.299
 217  1604.774
 218  1545.391
 219  1810.219
 220  1700.737
 221  1531.144
 222  1284.131
 223  1282.915
 224  1256.716
 225  1148.454
 226  1190.844
 227  1303.367
 228  1567.002
 229  1664.587
 230  1566.528
 231  1561.065
 232  1547.508
 233  1573.141
 234  1487.926
 235  1434.867
 236  1554.917
 237  1490.953
 238  1107.82
 239  862.1313
 240  718.9137
 241  996.3879
 242  995.7842
 243  1073.713
 244  1248.291
 245  1374.884
 246  1466.904
 247  1548.585
 248  1522.785
 249  1533.048
 250  1496.799
 251  1801.254
 252  1797.319
 253  1566.746
 254  1300.422
 255  1215.222
 256  1234.237
 257  1281.702
 258  1339.139
 259  1321.732
 260  1284.199
 261  1379.622
 262  1366.697
 263  1302.861
 264  1444.873
 265  1688.615
 266  1915.136
 267  1733.168
 268  1602.754
 269  1594.697
 270  1481.604
 271  1335.805
 272  1249.87
 273  1422.724
 274  1347.197
 275  1118.178
 276  1101.334
 277  1201.14
 278  1280.886
 279  1510.607
 280  1620.012
 281  1724.062
 282  1709.508
 283  1938.922
 284  2014.128
 285  1767.152
 286  1700.492
 287  1591.722
 288  1527.033
 289  1232.553
 290  1041.202
 291  885.0988
 292  944.0438
 293  1148.034
 294  1300.244
 295  1295.854
 296  1457.244
 297  1609.647
 298  1669.013
 299  1601.84
 300  1558.44
 301  1666.4
 302  1574.025
 303  1286.13
 304  1049.234
 305  802.5457
 306  1002.845
 307  984.8232
 308  1001.783
 309  874.1277
 310  986.314
 311  1216.046
 312  1383.535
 313  1361.887
 314  1528.483
 315  1683.111
 316  1847.352
 317  1848.415
 318  1683.881
 319  1731.822
 320  1618.524
 321  1610.806
 322  1329.408
 323  1089.153
 324  984.9174
 325  1167.378
 326  1332.952
 327  1333.28
 328  1290.43
 329  1298.652
 330  1419.678
 331  1472.483
 332  1593.424
 333  1728.031
 334  1821.101
 335  1832.102
 336  1680.806
 337  1476.332
 338  1277.671
 339  1121.281
 340  887.6776
 341  899.2119
 342  963.5145
 343  1194.427
 344  1252.641
 345  1354.468
 346  1363.302
 347  1353.643
 348  1561.661
 349  1824.761
 350  1909.771
 351  1744.044
 352  1694.217
 353  1619.981
 354  1530.479
 355  1363.627
 356  1274.611
 357  1235.828
 358  1159.939
 359  1236.386
 360  1362.585
 361  1405.472
 362  1510.429
 363  1582.192
 364  1697.032
 365  1843.017
 366  1885.252
 367  1890.804
 368  1605.984
 369  1327.276
 370  1218.216
 371  1170.733
 372  1107.469
 373  961.9346
 374  1027.165
 375  1183.933
 376  1403.506
 377  1417.689
 378  1326.981
 379  1301.108
 380  1562.446
 381  1863.869
 382  1922.902
 383  1684.067
 384  1605.147
 385  1684.444
 386  1529.2
 387  1432.573
 388  1058.829
 389  1085.431
 390  1115.021
 391  1199.151
 392  1165.394
 393  1062.718
 394  1240.993
 395  1572.93
 396  1691.758
 397  1858.817
 398  1877.77
 399  1931.273
 400  1843.835
 401  1673.987
 402  1435.785
 403  1221.809
 404  1039.203
 405  1020.672
 406  1009.416
 407  1162.433
 408  1204.088
 409  1257.296
 410  1250.095
 411  1213.993
 412  1278.988
 413  1510.04
 414  1771.186
 415  1817.962
 416  1849.103
 417  1942.878
 418  1705.319
 419  1620.448
 420  1545.559
 421  1621.887
 422  1467.074
 423  1309.52
 424  1314.044
 425  1333.285
 426  1252.239
 427  1312.513
 428  1374.975
 429  1564.015
 430  1652.054
 431  1687.457
 432  1792.396
 433  1562.629
 434  1608.137
 435  1587.602
 436  1449.431
 437  1340.543
 438  1124.937
 439  1251.34
 440  1190.711
 441  1215.17
 442  1286.285
 443  1320.263
 444  1299.723
 445  1444.206
 446  1502.967
 447  1610.417
 448  1575.843
 449  1920.909
 450  1918.674
 451  1681.767
 452  1447.287
 453  1251.035
 454  1232.167
 455  1104.409
 456  1152.782
 457  1039.25
 458  935.9304
 459  1105.196
 460  1198.74
 461  1240.646
 462  1592.507
 463  1897.831
 464  2057.069
 465  1897.315
 466  1751.19
 467  1676.554
 468  1507.886
 469  1467.839
 470  1292.777
 471  1166.242
 472  1213.323
 473  1205.438
 474  1139.799
 475  1017.484
 476  1163.992
 477  1424.092
 478  1571.992
 479  1442.407
 480  1462.16
 481  1773.322
 482  1839.069
 483  1754.857
 484  1687.704
 485  1748.454
 486  1620.929
 487  1355.671
 488  1108.791
 489  1021.916
 490  1020.012
 491  1207.432
 492  1250.29
 493  1270.944
 494  1278.206
 495  1333.01
 496  1380.288
 497  1519.83
 498  1619.449
 499  1634.839
 500  1517.784
 501  1303.445
 502  1222.435
 503  1009.122
 504  1002.114
 505  1041.025
 506  938.2359
 507  1016.004
 508  1103.231
 509  1301.29
 510  1348.514
 511  1438.75
 512  1372.377
 513  1269.445
 514  1516.336
 515  1717.262
 516  1773.427
 517  1465.902
 518  1419.538
 519  1440.409
 520  1470.758
 521  1302.06
 522  1139.239
 523  1305.123
 524  1420.507
 525  1436.806
 526  1372.716
 527  1487.913
 528  1589.69
 529  1680.819
 530  1809.894
 531  1775.153
 532  1707.083
 533  1690.178
 534  1511.154
 535  1343.134
 536  1223.432
 537  1087.591
 538  1029.218
 539  933.071
 540  1087.149
 541  1222.378
 542  1303.944
 543  1471.639
 544  1389.617
 545  1361.648
 546  1427.54
 547  1670.558
 548  1732.005
 549  1530.235
 550  1610.551
 551  1747.083
 552  1699.366
 553  1359.044
 554  1085.288
 555  1116.791
 556  1247.688
 557  1299.638
 558  1351.5
 559  1351.297
 560  1384.958
 561  1332.107
 562  1394.946
 563  1511.395
 564  1741.364
 565  1785.757
 566  1633.74
 567  1402.401
 568  1366.039
 569  1256.688
 570  1139.763
 571  919.5567
 572  1054.474
 573  1155.08
 574  1251.609
 575  1399.067
 576  1637.599
 577  1695.851
 578  1813.999
 579  1878.837
 580  1994.315
 581  1764.059
 582  1778.261
 583  1802.243
 584  1485.244
 585  1348.656
 586  1200.037
 587  1274.948
 588  1283.927
 589  1294.624
 590  1335.273
 591  1316.012
 592  1459.868
 593  1566.126
 594  1540.775
 595  1581.311
 596  1727.236
 597  1841.241
 598  1781.211
 599  1615.968
 600  1534.398
 601  1398.179
 602  1369.159
 603  1312.37
 604  1156.486
 605  1032.987
 606  927.6476
 607  1155.545
 608  1428.221
 609  1619.899
 610  1830.07
 611  1806.954
 612  1835.405
 613  1729.936
 614  1783.326
 615  1914.172
 616  1860.266
 617  1728.63
 618  1672.316
 619  1581.326
 620  1533.316
 621  1526.702
 622  1649.81
 623  1585.065
 624  1525.219
 625  1596.859
 626  1649.153
 627  1748.229
 628  1928.923
 629  2076.808
 630  1996.404
 631  1688.769
 632  1619.049
 633  1415.114
 634  1288.613
 635  1260.602
 636  1286.802
 637  1286.182
 638  1118.586
 639  1193.482
 640  1322.977
 641  1258.054
 642  1287.452
 643  1415.935
 644  1560.59
 645  1511.993
 646  1384.01
 647  1517.439
 648  1576.719
 649  1501.863
 650  1587.476
 651  1374.264
 652  1163.404
 653  1039.589
 654  1050.863
 655  1073.255
 656  965.0206
 657  1110.229
 658  1375.391
 659  1429.52
 660  1593.734
 661  1736.605
 662  1836.946
 663  1758.529
 664  1715.306
 665  1634.91
 666  1473.037
 667  1306.99
 668  1090.09
 669  973.7577
 670  901.3216
 671  1047.403
 672  1086.278
 673  1091.011
 674  1232.809
 675  1440.015
 676  1532.105
 677  1525.919
 678  1506.109
 679  1696.439
 680  1825.793
 681  1813.62
 682  1543.359
 683  1379.25
 684  1162.059
 685  1262.649
 686  1324.424
 687  1346.369
 688  1163.781
 689  1234.195
 690  1326.002
 691  1374.303
 692  1280.396
 693  1478.668
 694  1538.834
 695  1601.087
 696  1628.386
 697  1643.558
 698  1574.01
 699  1487.406
 700  1335.476
 701  1279.793
 702  1115.985
 703  1175.709
 704  1116.483
 705  1049.91
 706  1007.601
 707  1125.595
 708  1216.437
 709  1484.734
 710  1496.665
 711  1590.816
 712  1550.779
 713  1662.976
 714  1608.35
 715  1537.327
 716  1549.334
 717  1510.668
 718  1476.74
 719  1309.356
 720  1340.644
 721  1293.667
 722  1265.929
 723  1286.9
 724  1277.782
 725  1231.49
 726  1215.841
 727  1392.513
 728  1636.066
 729  1754.715
 730  1676.972
 731  1649.905
 732  1462.273
 733  1363.172
 734  1355.304
 735  1329.131
 736  1251.124
 737  932.7189
 738  940.5413
 739  992.4371
 740  1195.779
 741  1509.112
 742  1593.459
 743  1639.673
 744  1661.602
 745  1930.217
 746  1975.903
 747  1764.589
 748  1786.049
 749  1731.537
 750  1544.946
 751  1386.057
 752  1317.834
 753  1279.673
 754  1114.247
 755  1220.332
 756  1301.298
 757  1228.686
 758  1366.28
 759  1435.303
 760  1574.318
 761  1595.66
 762  1628.973
 763  1672.167
 764  1581.449
 765  1540.164
 766  1474.971
 767  1273.107
 768  1138.451
 769  1109.374
 770  1121.758
 771  1064.24
 772  1017.88
 773  1312.106
 774  1461.078
 775  1434.987
 776  1466.383
 777  1630.421
 778  1875.596
 779  1698.109
 780  1654.71
 781  1560.315
 782  1444.992
 783  1415.716
 784  1359.634
 785  1446.741
 786  1297.52
 787  1257.775
 788  1381.858
 789  1432.021
 790  1480.944
 791  1495.99
 792  1520.821
 793  1515.689
 794  1531.074
 795  1691.687
 796  1793.265
 797  1506.338
 798  1491.593
 799  1414.165
 800  1457.462
 801  1301.747
 802  1121.008
 803  1263.266
 804  1246.446
 805  1270.78
 806  1361.021
 807  1498.174
 808  1641.379
 809  1751.293
 810  1755.761
 811  1731.566
 812  1675.358
 813  1881.632
 814  1822.806
 815  1526.992
 816  1254.464
 817  1071.053
 818  1121.785
 819  1146.535
 820  1143.095
 821  1023.596
 822  986.6451
 823  1227.439
 824  1524.514
 825  1599.482
 826  1695.127
 827  1809.927
 828  1758.65
 829  1545.189
 830  1584.67
 831  1582.765
 832  1534.787
 833  1357.983
 834  1220.6
 835  1107.775
 836  1060.227
 837  1201.276
 838  1218.537
 839  1141.955
 840  1193.185
 841  1439.853
 842  1685.675
 843  1705.74
 844  1667.118
 845  1812.189
 846  2032.315
 847  1911.842
 848  1642.129
 849  1417.853
 850  1444.105
 851  1453.905
 852  1403.229
 853  1235.738
 854  1208.285
 855  1317.854
 856  1217.439
 857  1184.387
 858  1059.478
 859  1328.728
 860  1521.677
 861  1637.196
 862  1742.433
 863  1759.227
 864  1835.509
 865  1702.647
 866  1469.557
 867  1250.57
 868  1187.372
 869  1042.604
 870  1008.328
 871  1084.278
 872  1288.236
 873  1296.578
 874  1340.638
 875  1368.234
 876  1455.577
 877  1532.045
 878  1699.299
 879  1740.238
 880  1514.608
 881  1342.729
 882  1326.642
 883  1345.242
 884  1376.985
 885  1210.047
 886  1237.316
 887  1306.264
 888  1388.824
 889  1464.381
 890  1460.644
 891  1495.341
 892  1445.09
 893  1435.918
 894  1643.266
 895  1728.685
 896  1763.823
 897  1603.588
 898  1338.774
 899  1170.955
 900  1087.774
 901  1138.604
 902  1056.043
 903  987.1455
 904  1038.696
 905  1172.568
 906  1387.791
 907  1578.807
 908  1497.29
 909  1513.805
 910  1660.361
 911  2043.225
 912  2002.532
 913  1837.957
 914  1800.105
 915  1684.556
 916  1530.226
 917  1408.638
 918  1195.225
 919  1229.218
 920  1212.244
 921  1398.521
 922  1415.572
 923  1290.219
 924  1413.494
 925  1522.596
 926  1757.89
 927  1696.22
 928  1684.351
 929  1816.064
 930  1667.128
 931  1409.275
 932  1165.363
 933  1056.278
 934  1082.187
 935  1085.893
 936  1200.282
 937  1242.987
 938  1269.985
 939  1343.958
 940  1521.41
 941  1465.803
 942  1530.84
 943  1690.542
 944  1930.918
 945  1787.791
 946  1757.864
 947  1733.631
 948  1630.483
 949  1488.044
 950  1337.913
 951  1280.433
 952  1083.786
 953  1163.003
 954  1351.483
 955  1395.635
 956  1564.503
 957  1666.38
 958  1696.496
 959  1679.98
 960  1691.124
 961  1826.13
 962  1762.621
 963  1460.162
 964  1364.881
 965  1248.024
 966  1314.199
 967  1225.63
 968  1009.863
 969  903.0762
 970  978.804
 971  1339.468
 972  1471.013
 973  1391.382
 974  1428.732
 975  1660.821
 976  1856.617
 977  1877.123
 978  1800.118
 979  1866.214
 980  1689.765
 981  1506.684
 982  1271.693
 983  1089.823
 984  1081.024
 985  989.3037
 986  1035.014
 987  989.8338
 988  1128.809
 989  1285.834
 990  1429.222
 991  1577.069
 992  1651.925
 993  1795.941
 994  1730.273
 995  1553.21
 996  1417.726
 997  1378.155
 998  1496.854
 999  1429.103
1000  1316.58
1001  1084.554
1002  1048.522
1003  1190.472
1004  1424.606
1005  1427.64
1006  1490.612
1007  1462.855
1008  1733.866
1009  1848.606
1010  1908.636
1011  1885.835
1012  1802.486
1013  1659.878
1014  1522.915
1015  1375.231
1016  1375.874
1017  1234.295
1018  1268.1
1019  1265.966
1020  1202.139
1021  1179.858
1022  1212.582
1023  1346.678
