# Input file       =  1196794206.116471_cleaned.dat
# Candidate        =  PSR_0332+5434
# Telescope        =  AR
# Epoch_topo       =  58095.785012922119
# Epoch_bary       =  N/A
# T_sample         =  0.002
# Data Folded      =  7340032
# Data Avg         =  0.108090333871327
# Data StdDev      =  3.48601991865441 
# Profile Bins     =  512
# Profile Avg      =  1549.61441092569 
# Profile StdDev   =  417.391749730379 
# Reduced chi-sqr  =  0.741
# Prob(Noise)      <  1   (~0.0 sigma)
# P_topo (ms)      =  714.53366202306   +/- 9.73e-05
# P'_topo (s/s)    =  -0                +/- 5.14e-11
# P''_topo (s/s^2) =  0                 +/- 2.27e-14
# P_bary (ms)      =  N/A
# P'_bary (s/s)    =  N/A
# P''_bary (s/s^2) =  N/A
# P_orb (s)        =  N/A
# asin(i)/c (s)    =  N/A
# eccentricity     =  N/A
# w (rad)          =  N/A
# T_peri           =  N/A
######################################################
   0  1429.079
   1  1298.711
   2  1162.76
   3  1308.102
   4  1595.307
   5  1414.513
   6  1210.445
   7  1310.603
   8  1471.406
   9  1702.963
  10  1578.409
  11  1572.621
  12  1659.999
  13  1702.502
  14  1892.992
  15  1635.779
  16  1568.246
  17  1393.09
  18  1349.379
  19  1431.941
  20  1167.418
  21  1413.493
  22  1515.96
  23  1697.157
  24  1674.794
  25  1309.262
  26  1195.565
  27  1389.222
  28  1637.957
  29  1516.137
  30  1385.067
  31  1097.829
  32  1314.876
  33  1499.427
  34  1839.114
  35  1764.4
  36  1919.773
  37  1667.737
  38  1396.118
  39  1360.443
  40  1354.977
  41  1427.86
  42  1561.722
  43  1580.511
  44  1594.63
  45  1756.025
  46  1814.541
  47  1210.902
  48  1191.815
  49  1947.421
  50  1874.961
  51  1759.808
  52  1581.195
  53  1609.88
  54  1255.678
  55  1661.859
  56  1938.086
  57  1897.797
  58  1777.289
  59  1300.443
  60  1080.986
  61  1355.508
  62  1295.529
  63  1660.256
  64  1648.974
  65  1624.68
  66  1481.621
  67  1551.989
  68  1428.166
  69  1568.075
  70  1710.918
  71  1675.105
  72  1679.54
  73  1829.865
  74  1649.759
  75  1464.672
  76  1278.396
  77  1354.995
  78  1203.967
  79  1182.085
  80  1616.416
  81  1775.561
  82  1721.861
  83  1657.27
  84  1688.111
  85  1492.004
  86  1534.801
  87  1557.617
  88  1837.161
  89  1597.54
  90  1502.703
  91  1466.505
  92  1255.805
  93  1294.002
  94  1578.984
  95  1717.328
  96  1440.542
  97  1622.472
  98  1564.441
  99  1575.51
 100  1669.125
 101  1882.773
 102  1961.676
 103  1474.325
 104  1211.285
 105  1496.574
 106  1449.083
 107  1512.475
 108  1643.712
 109  1822.569
 110  1249.592
 111  1001.31
 112  1199.439
 113  1565.639
 114  1649.16
 115  1866.084
 116  1835.041
 117  1619.044
 118  1547.12
 119  1632.139
 120  1599.122
 121  2242.805
 122  1992.698
 123  1779.379
 124  1763.167
 125  1734.903
 126  2089.113
 127  2027.497
 128  1945.762
 129  1896.417
 130  1681.102
 131  1551.816
 132  1589.27
 133  1379.886
 134  1508.952
 135  1910.466
 136  2073.335
 137  1527.431
 138  1405.857
 139  1583.107
 140  1239.861
 141  1407.107
 142  1707.006
 143  1568.987
 144  1184.353
 145  1443.98
 146  1785.647
 147  1654.429
 148  1383.119
 149  1394.801
 150  1494.235
 151  1318.286
 152  1340.303
 153  1439.201
 154  1358.475
 155  1389.927
 156  1216.255
 157  1811.015
 158  1754.598
 159  1639.418
 160  1284.402
 161  1151.461
 162  1487.693
 163  2009.816
 164  2104.113
 165  2022.099
 166  1889.132
 167  1724.446
 168  1622.252
 169  1840.897
 170  1765.979
 171  1625.177
 172  1580.201
 173  1778.773
 174  1739.742
 175  1495.391
 176  1217.558
 177  1153.081
 178  1495.057
 179  1680.047
 180  1955.453
 181  1537.802
 182  1289.666
 183  1192.566
 184  1272.209
 185  1453.231
 186  1533.512
 187  1569.506
 188  1603.814
 189  1527.187
 190  1459.027
 191  1305.626
 192  1344.804
 193  1336.361
 194  1516.808
 195  1582.967
 196  1581.088
 197  1312.329
 198  1512.973
 199  1646.108
 200  1566.45
 201  1670.607
 202  1757.468
 203  1552.836
 204  1330.991
 205  1237.804
 206  1333.42
 207  1404.341
 208  1618.49
 209  1531.992
 210  1162.188
 211  1040.917
 212  1030.583
 213  1139.674
 214  1232.878
 215  1384.734
 216  1327.562
 217  1516.122
 218  1531.781
 219  1358.183
 220  1599.048
 221  1797.811
 222  1915.574
 223  1956.321
 224  1825.489
 225  1741.442
 226  1625.912
 227  1055.395
 228  1499.031
 229  1837.446
 230  1628.086
 231  1764.155
 232  1529.619
 233  1766.305
 234  1994.519
 235  1936.82
 236  1765.161
 237  1642.219
 238  1557.033
 239  1397.101
 240  1342.526
 241  1352.173
 242  1504.067
 243  1453.365
 244  1238.274
 245  1324.104
 246  1451.779
 247  1410.336
 248  1279.71
 249  1326.148
 250  1386.72
 251  1397.525
 252  1549.323
 253  1586.054
 254  1648.816
 255  1764.149
 256  1816.988
 257  1581.183
 258  1292.324
 259  1197.752
 260  1129.576
 261  1236.086
 262  1247.561
 263  1318.907
 264  1402.604
 265  1151.214
 266  1233.386
 267  1382.53
 268  1113.059
 269  1330.592
 270  1441.15
 271  1275.429
 272  1180.314
 273  1435.747
 274  1291.674
 275  1286.873
 276  1729.313
 277  1506.116
 278  1298.918
 279  1431.878
 280  1446.592
 281  1646.495
 282  1810.234
 283  1523.145
 284  1597.964
 285  1484.269
 286  1503.906
 287  1544.768
 288  1818.357
 289  1582.094
 290  1209.796
 291  981.28
 292  1022.267
 293  1620.698
 294  1884.816
 295  1763.283
 296  1696.996
 297  1643.197
 298  1705.922
 299  1651.473
 300  1814.256
 301  1896.785
 302  1702.872
 303  1714.401
 304  1619.283
 305  1660.009
 306  1536.488
 307  1958.099
 308  1956.485
 309  1690.661
 310  2193.686
 311  2340.514
 312  2769.31
 313  2978.948
 314  2751.151
 315  2113.599
 316  1858.132
 317  1795.262
 318  1936.515
 319  1611.814
 320  1177.618
 321  1215.879
 322  1819.686
 323  1967.757
 324  1638.796
 325  1495.18
 326  1665.63
 327  1877.027
 328  1971.295
 329  1505.082
 330  1520.815
 331  1540.117
 332  1433.226
 333  1260.812
 334  1296.099
 335  1377.156
 336  1472.992
 337  1375.322
 338  1291.918
 339  1498.105
 340  1410.801
 341  1339.919
 342  1424.537
 343  1258.495
 344  1129.718
 345  1483.494
 346  1454.695
 347  1436.147
 348  1294.21
 349  1331.784
 350  1852.829
 351  1689.893
 352  1752.613
 353  1763.176
 354  1604.704
 355  1196.653
 356  1115.986
 357  1326.288
 358  1670.666
 359  2023.463
 360  1942.208
 361  1781.994
 362  1597.701
 363  1585.261
 364  1680.85
 365  1960.259
 366  1918.572
 367  1926.592
 368  1810.279
 369  1555.162
 370  1446.368
 371  1777.317
 372  1945.397
 373  1830.123
 374  1476.617
 375  1364.882
 376  1367.011
 377  1296.381
 378  1503.941
 379  1433.914
 380  1649.899
 381  1841.186
 382  1602.833
 383  1425.364
 384  1635.537
 385  1734.734
 386  1402.617
 387  1464.398
 388  1461.502
 389  1748.761
 390  1808.606
 391  1732.298
 392  1194.41
 393  1196.038
 394  1300.649
 395  1863.058
 396  1557.302
 397  1578.834
 398  1497.21
 399  1146.27
 400  1336.172
 401  1180.13
 402  1050.162
 403  1278.324
 404  1681.302
 405  1665.644
 406  1517.982
 407  1520.925
 408  1610.959
 409  1439.022
 410  1368.387
 411  1485.474
 412  1608.142
 413  1594.69
 414  1612.236
 415  1651.025
 416  1557.632
 417  1478.334
 418  1729.899
 419  2082.778
 420  1976.784
 421  1787.784
 422  1619.634
 423  1735.077
 424  1804.402
 425  1863.348
 426  1823.51
 427  1508.189
 428  1297.641
 429  1100.332
 430  1495.602
 431  1724.281
 432  2060.591
 433  2114.173
 434  1685.226
 435  1676.774
 436  1774.567
 437  1615.185
 438  1659.687
 439  1448.219
 440  1678.322
 441  1503.975
 442  1578.129
 443  1437.537
 444  1638.474
 445  1629.431
 446  1821.37
 447  1645.069
 448  1192.737
 449  1600.337
 450  1712.264
 451  1492.796
 452  1429.331
 453  1633.324
 454  1728.933
 455  1087.651
 456  956.7096
 457  1134.693
 458  1234.862
 459  1478.955
 460  1669.431
 461  1589.419
 462  1618.008
 463  1787.758
 464  1404.774
 465  1334.42
 466  1589.093
 467  1565.461
 468  1667.247
 469  1475.454
 470  1444.382
 471  998.6361
 472  1108.525
 473  1492.957
 474  1606.693
 475  1405.655
 476  1520.693
 477  1648.381
 478  1488.317
 479  1137.754
 480  1314.078
 481  1501.915
 482  1463.946
 483  1735.291
 484  1991.386
 485  1842.145
 486  1513.108
 487  1365.757
 488  1339.335
 489  1511.25
 490  1364.723
 491  960.3781
 492  1020.671
 493  1249.283
 494  1619.836
 495  1499.563
 496  1355.831
 497  1604.729
 498  1533.153
 499  1472.424
 500  1350.863
 501  1105.485
 502  1521.163
 503  1944.585
 504  1876.231
 505  1520.886
 506  1498.388
 507  1522.443
 508  1580.357
 509  1290.708
 510  1352.173
 511  1192.496
