# Input file       =  1196636713.121882_cleaned.dat
# Candidate        =  PSR_0332+5434
# Telescope        =  AR
# Epoch_topo       =  58093.962177336594
# Epoch_bary       =  N/A
# T_sample         =  0.002
# Data Folded      =  7340032
# Data Avg         =  0.211411754837692
# Data StdDev      =  4.76195413837314 
# Profile Bins     =  1024
# Profile Avg      =  1515.1945289251  
# Profile StdDev   =  403.166284954566 
# Reduced chi-sqr  =  0.495
# Prob(Noise)      <  1   (~0.0 sigma)
# P_topo (ms)      =  714.532133539633  +/- 0.00017
# P'_topo (s/s)    =  -0                +/- 8.98e-11
# P''_topo (s/s^2) =  0                 +/- 3.97e-14
# P_bary (ms)      =  N/A
# P'_bary (s/s)    =  N/A
# P''_bary (s/s^2) =  N/A
# P_orb (s)        =  N/A
# asin(i)/c (s)    =  N/A
# eccentricity     =  N/A
# w (rad)          =  N/A
# T_peri           =  N/A
######################################################
   0  1496.569
   1  1515.443
   2  1437.223
   3  1383.348
   4  1188.202
   5  1102.665
   6  1061.894
   7  1298.833
   8  1370.463
   9  1341.858
  10  1224.237
  11  1204.843
  12  1359.334
  13  1390.905
  14  1403.469
  15  1407.858
  16  1447.198
  17  1550.341
  18  1497.332
  19  1543.575
  20  1565.67
  21  1570.846
  22  1457.164
  23  1345.741
  24  1402.134
  25  1438.065
  26  1512.674
  27  1453.418
  28  1426.601
  29  1397.501
  30  1539.566
  31  1597.654
  32  1699.687
  33  1641.74
  34  1654.741
  35  1550.434
  36  1512.753
  37  1539.258
  38  1589.442
  39  1648.78
  40  1458.623
  41  1379.026
  42  1290.299
  43  1308.806
  44  1371.505
  45  1424.575
  46  1445.229
  47  1319.698
  48  1354.279
  49  1391.633
  50  1422.618
  51  1536.556
  52  1564.764
  53  1633.274
  54  1654.041
  55  1726.172
  56  1687.516
  57  1499.965
  58  1422.406
  59  1464.322
  60  1585.535
  61  1542.654
  62  1482.482
  63  1462.264
  64  1529.347
  65  1600.75
  66  1570.689
  67  1589.92
  68  1576.792
  69  1492.787
  70  1377.61
  71  1357.532
  72  1514.966
  73  1458.219
  74  1551.543
  75  1425.628
  76  1454.081
  77  1364.627
  78  1367.588
  79  1324.781
  80  1375.15
  81  1479.729
  82  1513.233
  83  1527.601
  84  1504.261
  85  1433.397
  86  1354.627
  87  1494.961
  88  1455.475
  89  1480.466
  90  1356.234
  91  1430.181
  92  1414.897
  93  1444.632
  94  1488.517
  95  1408.961
  96  1514.783
  97  1516.795
  98  1634.805
  99  1571.94
 100  1535.147
 101  1452.411
 102  1496.316
 103  1498.847
 104  1435.387
 105  1458.899
 106  1449.176
 107  1587.302
 108  1578.315
 109  1496.807
 110  1464.032
 111  1464.795
 112  1566.43
 113  1714.865
 114  1851.389
 115  1881.727
 116  1801.861
 117  1694.334
 118  1609.764
 119  1633.184
 120  1662.677
 121  1771.719
 122  1770.492
 123  1652.757
 124  1523.389
 125  1472.287
 126  1596.898
 127  1660.819
 128  1777.693
 129  1764.229
 130  1863.393
 131  1927.214
 132  1941.951
 133  1700.393
 134  1647.892
 135  1718.815
 136  1883.436
 137  1730.807
 138  1622.333
 139  1512.27
 140  1571.246
 141  1638.06
 142  1723.613
 143  1641.384
 144  1567.01
 145  1533.8
 146  1644.321
 147  1618.216
 148  1574.67
 149  1682.319
 150  1821.954
 151  1846.373
 152  1838.441
 153  1739.918
 154  1595.934
 155  1487.528
 156  1453.803
 157  1412.723
 158  1314.103
 159  1250.286
 160  1309.517
 161  1433.507
 162  1452.147
 163  1382.228
 164  1385.291
 165  1496.823
 166  1559.26
 167  1563.579
 168  1611.088
 169  1685.665
 170  1770.187
 171  1596.078
 172  1436.508
 173  1420.547
 174  1372.962
 175  1347.127
 176  1196.515
 177  1309.421
 178  1319.375
 179  1413.416
 180  1518.938
 181  1507.05
 182  1486.157
 183  1382.492
 184  1480.99
 185  1625.062
 186  1568.333
 187  1538.549
 188  1473.83
 189  1485.573
 190  1503.219
 191  1565.75
 192  1508.878
 193  1390.865
 194  1508.344
 195  1635.775
 196  1659.157
 197  1630.235
 198  1670.244
 199  1618.182
 200  1537.27
 201  1540.404
 202  1549.299
 203  1519.659
 204  1519.209
 205  1369.688
 206  1272.847
 207  1300.759
 208  1430.964
 209  1519.11
 210  1572.45
 211  1495.895
 212  1386.466
 213  1343.102
 214  1387.488
 215  1500.75
 216  1490.344
 217  1498.398
 218  1559.56
 219  1550.499
 220  1462.147
 221  1234.784
 222  1341.84
 223  1443.852
 224  1624.213
 225  1592.093
 226  1566.605
 227  1531.22
 228  1497.109
 229  1574.399
 230  1545.746
 231  1675.814
 232  1654.297
 233  1705.537
 234  1656.627
 235  1632.674
 236  1505.988
 237  1323.839
 238  1289.737
 239  1452.927
 240  1541.797
 241  1551.671
 242  1693.476
 243  1804.92
 244  1705.118
 245  1564.254
 246  1703.983
 247  1876.006
 248  1895.068
 249  1697.234
 250  1600.782
 251  1584.102
 252  1530.547
 253  1613.919
 254  1632.61
 255  1775.692
 256  1691.806
 257  1639.816
 258  1614.891
 259  1634.75
 260  1601.31
 261  1526.548
 262  1554.206
 263  1553.345
 264  1731.02
 265  1783.98
 266  1753.348
 267  1564.55
 268  1435.685
 269  1477.757
 270  1372.987
 271  1320.963
 272  1298.04
 273  1376.309
 274  1585.055
 275  1612.046
 276  1700.309
 277  1681.898
 278  1592.055
 279  1392.504
 280  1399.547
 281  1571.055
 282  1635.701
 283  1612.465
 284  1607.351
 285  1639.848
 286  1624.249
 287  1634.798
 288  1713.324
 289  1649.867
 290  1577.687
 291  1534.674
 292  1440.341
 293  1449.342
 294  1413.456
 295  1611.652
 296  1752.058
 297  1566.427
 298  1482.173
 299  1420.9
 300  1502.618
 301  1449.168
 302  1536.927
 303  1589.03
 304  1585.214
 305  1433.019
 306  1390.515
 307  1392.047
 308  1448.743
 309  1535.986
 310  1380.068
 311  1279.981
 312  1350.491
 313  1469.055
 314  1654.754
 315  1741.918
 316  1726.387
 317  1743.741
 318  1618.994
 319  1711.916
 320  1718.514
 321  1710.714
 322  1540.801
 323  1362.836
 324  1396.839
 325  1499.491
 326  1697.917
 327  1766.913
 328  1865.567
 329  1912.721
 330  1922.224
 331  1777.612
 332  1650.675
 333  1606.112
 334  1589.437
 335  1470.053
 336  1417.028
 337  1366.428
 338  1439.339
 339  1493.507
 340  1589.275
 341  1641.081
 342  1609.674
 343  1532.235
 344  1556.041
 345  1650.48
 346  1841.37
 347  1820.544
 348  1689.942
 349  1460.286
 350  1537.829
 351  1494.71
 352  1407.119
 353  1225.506
 354  1378.687
 355  1590.328
 356  1566.109
 357  1478.263
 358  1430.1
 359  1509.906
 360  1477.891
 361  1544.799
 362  1453.03
 363  1369.719
 364  1282.122
 365  1294.001
 366  1367.471
 367  1384.42
 368  1428.357
 369  1271.254
 370  1198.059
 371  1198.39
 372  1272.957
 373  1343.933
 374  1388.414
 375  1440.397
 376  1379.997
 377  1394.305
 378  1479.513
 379  1548.04
 380  1423.969
 381  1481.959
 382  1587.073
 383  1615.299
 384  1525.911
 385  1517.468
 386  1532.503
 387  1526.546
 388  1535.63
 389  1555.884
 390  1364.629
 391  1270.127
 392  1254.147
 393  1412.103
 394  1563.359
 395  1599.799
 396  1568.662
 397  1534.856
 398  1458.835
 399  1352.259
 400  1431.654
 401  1429.893
 402  1428.378
 403  1346.349
 404  1475.508
 405  1533.99
 406  1429.985
 407  1455.229
 408  1486.052
 409  1698.758
 410  1666.248
 411  1619.824
 412  1580.664
 413  1467.729
 414  1451.963
 415  1549.902
 416  1530.841
 417  1519.519
 418  1372.591
 419  1370.746
 420  1375.845
 421  1380.151
 422  1372.687
 423  1419.707
 424  1459.392
 425  1502.149
 426  1527.527
 427  1623.057
 428  1679.687
 429  1625.909
 430  1426.959
 431  1363.501
 432  1396.227
 433  1717.945
 434  1739.21
 435  1533.948
 436  1298.134
 437  1303.772
 438  1393.333
 439  1595.461
 440  1612.027
 441  1619.898
 442  1671.818
 443  1764.132
 444  1847.462
 445  1673.389
 446  1498.297
 447  1416.502
 448  1391.216
 449  1604.752
 450  1552.544
 451  1654.892
 452  1418.842
 453  1445.155
 454  1472.202
 455  1506.888
 456  1479.591
 457  1455.511
 458  1430.701
 459  1452.739
 460  1542.776
 461  1636.445
 462  1653.125
 463  1629.391
 464  1719.644
 465  1904.402
 466  2047.212
 467  1973.058
 468  1769.283
 469  1564.396
 470  1578.345
 471  1714.098
 472  1791.161
 473  1680.426
 474  1554.429
 475  1523.541
 476  1683.888
 477  1732.254
 478  1704.844
 479  1714.366
 480  1797.1
 481  1838.868
 482  1692.202
 483  1547.307
 484  1671.995
 485  1711.567
 486  1903.188
 487  1758.942
 488  1656.239
 489  1665.046
 490  1722.508
 491  1673.012
 492  1530.313
 493  1633.558
 494  1638.804
 495  1601.421
 496  1535.226
 497  1640.6
 498  1645.409
 499  1591.454
 500  1505.909
 501  1428.8
 502  1514.29
 503  1571.788
 504  1702.132
 505  1747.764
 506  1776.35
 507  1800.841
 508  1791.027
 509  1828.998
 510  1907.157
 511  1912.079
 512  1778.959
 513  1524.679
 514  1419.196
 515  1329.055
 516  1191.722
 517  1111.59
 518  1213.738
 519  1438.744
 520  1397.629
 521  1448.646
 522  1531.308
 523  1743.858
 524  1721.847
 525  1576.863
 526  1602.398
 527  1692.723
 528  1707.326
 529  1636.36
 530  1556.503
 531  1654.412
 532  1666.722
 533  1547.62
 534  1448.963
 535  1447.054
 536  1570.445
 537  1628.358
 538  1614.582
 539  1513.435
 540  1502.809
 541  1490.454
 542  1536.527
 543  1556.45
 544  1570.363
 545  1512.24
 546  1614.958
 547  1668.619
 548  1617.321
 549  1411.658
 550  1351.102
 551  1523.042
 552  1600.464
 553  1531.891
 554  1459.85
 555  1539.09
 556  1639.113
 557  1594.748
 558  1516.743
 559  1527.331
 560  1586.637
 561  1602.92
 562  1620.183
 563  1415.485
 564  1360.998
 565  1299.088
 566  1489.775
 567  1487.704
 568  1444.874
 569  1422.425
 570  1548.457
 571  1546.42
 572  1495.332
 573  1439.54
 574  1578.505
 575  1552.272
 576  1595.994
 577  1590.633
 578  1684.821
 579  1652.115
 580  1590.895
 581  1363.617
 582  1230.183
 583  1205.99
 584  1318.125
 585  1405.181
 586  1550.793
 587  1638.411
 588  1598.933
 589  1451.509
 590  1451
 591  1511.51
 592  1528.961
 593  1348.615
 594  1353.086
 595  1316.887
 596  1415.333
 597  1431.553
 598  1418.592
 599  1479.155
 600  1379.995
 601  1286.855
 602  1260.734
 603  1317.192
 604  1393.251
 605  1271.661
 606  1188.048
 607  1162.4
 608  1240.748
 609  1401.907
 610  1558.722
 611  1486.868
 612  1298.98
 613  1291.598
 614  1364.478
 615  1453.03
 616  1540.146
 617  1504.916
 618  1586.011
 619  1656.4
 620  1756.872
 621  1788.064
 622  1759.835
 623  1791.249
 624  1783.796
 625  1819.985
 626  1817.843
 627  1838.297
 628  1860.679
 629  1859.196
 630  1853.705
 631  1920.9
 632  1847.052
 633  1724.541
 634  1674.666
 635  1693.247
 636  1658.748
 637  1629.608
 638  1569.164
 639  1572.563
 640  1608.709
 641  1598.948
 642  1593.577
 643  1506.31
 644  1504.166
 645  1600.592
 646  1548.104
 647  1628.674
 648  1663.781
 649  1689.681
 650  1825.77
 651  1874.918
 652  1851.601
 653  1624.092
 654  1639.857
 655  1664.719
 656  1685.744
 657  1606.264
 658  1675.265
 659  1637.215
 660  1645.134
 661  1574.234
 662  1456.179
 663  1476.51
 664  1560.868
 665  1720.354
 666  1700.409
 667  1653.89
 668  1502.512
 669  1452.556
 670  1364.243
 671  1345.952
 672  1351.214
 673  1393.711
 674  1440.533
 675  1400.628
 676  1378.118
 677  1350.354
 678  1516.804
 679  1488.976
 680  1458.683
 681  1457.723
 682  1479.264
 683  1652.31
 684  1640.977
 685  1555.371
 686  1478.219
 687  1355.975
 688  1311.216
 689  1265.684
 690  1412.41
 691  1423.116
 692  1379.993
 693  1590.747
 694  1665.798
 695  1661.093
 696  1542.424
 697  1579.515
 698  1501.798
 699  1503.352
 700  1392.83
 701  1425.089
 702  1493.096
 703  1569.785
 704  1699.098
 705  1576.241
 706  1556.391
 707  1646.392
 708  1780.081
 709  1775.382
 710  1532.107
 711  1415.392
 712  1408.465
 713  1669.885
 714  1837.788
 715  1901.857
 716  1840.785
 717  1851.457
 718  1793.457
 719  1672.937
 720  1698.938
 721  1740.139
 722  1792.157
 723  1781.739
 724  1801.226
 725  1768.951
 726  1766.375
 727  1603.295
 728  1574.856
 729  1617.658
 730  1612.96
 731  1662.61
 732  1603.048
 733  1691.285
 734  1631.941
 735  1726.096
 736  1646.153
 737  1554.685
 738  1535.793
 739  1659.632
 740  1681.852
 741  1610.9
 742  1504.545
 743  1412.627
 744  1514.667
 745  1573.635
 746  1685.064
 747  1640.192
 748  1614.916
 749  1491.334
 750  1570.621
 751  1634.274
 752  1658.788
 753  1530.797
 754  1493.933
 755  1505.053
 756  1421.422
 757  1307.792
 758  1218.325
 759  1148.904
 760  1261.488
 761  1269.607
 762  1278.033
 763  1167.306
 764  1276.015
 765  1285.157
 766  1310.577
 767  1396.073
 768  1438.067
 769  1363.06
 770  1299.857
 771  1225.937
 772  1115.939
 773  1084.893
 774  1166.302
 775  1371.779
 776  1364.96
 777  1371.652
 778  1235.819
 779  1340.166
 780  1406.444
 781  1518.605
 782  1555.53
 783  1513.448
 784  1409.261
 785  1437.973
 786  1454.073
 787  1415.737
 788  1299.757
 789  1325.917
 790  1474.821
 791  1637.981
 792  1714.927
 793  1660.179
 794  1504.708
 795  1464.216
 796  1634.698
 797  1835.883
 798  1800.311
 799  1665.008
 800  1564.672
 801  1694.071
 802  1557.62
 803  1506.694
 804  1352.884
 805  1365.495
 806  1468.092
 807  1352.807
 808  1300.13
 809  1367.896
 810  1598.417
 811  1847.181
 812  1828.243
 813  1794.99
 814  1635.34
 815  1605.622
 816  1561.146
 817  1519.519
 818  1528.293
 819  1600.841
 820  1645.743
 821  1476.51
 822  1444.47
 823  1334.524
 824  1312.164
 825  1391.11
 826  1376.812
 827  1396.893
 828  1399.994
 829  1376.572
 830  1356.291
 831  1294.922
 832  1391.873
 833  1529.318
 834  1480.491
 835  1384.932
 836  1304.479
 837  1365.896
 838  1495.105
 839  1526.98
 840  1479.857
 841  1350.442
 842  1296.797
 843  1287.243
 844  1317.836
 845  1329.734
 846  1380.287
 847  1453.324
 848  1436.896
 849  1507.489
 850  1498.303
 851  1516.739
 852  1469.345
 853  1425.226
 854  1344.455
 855  1292.009
 856  1345.762
 857  1468.91
 858  1494.456
 859  1480.013
 860  1523.865
 861  1534.353
 862  1523.279
 863  1484.335
 864  1503.197
 865  1447.879
 866  1388.119
 867  1322.148
 868  1380.596
 869  1434.324
 870  1302.59
 871  1281.642
 872  1258.67
 873  1286.021
 874  1336.631
 875  1460.629
 876  1589.007
 877  1611.481
 878  1632.663
 879  1584.4
 880  1446.335
 881  1527.922
 882  1635.739
 883  1589.924
 884  1554.48
 885  1410.736
 886  1467.296
 887  1413.167
 888  1510.761
 889  1583.732
 890  1644.785
 891  1470.441
 892  1440.282
 893  1402.229
 894  1377.685
 895  1389.2
 896  1484.861
 897  1592.093
 898  1497.193
 899  1341.054
 900  1368.43
 901  1411.039
 902  1488.233
 903  1378.362
 904  1398.103
 905  1308.677
 906  1348.434
 907  1304.962
 908  1392.531
 909  1389.827
 910  1492.093
 911  1709.079
 912  1779.14
 913  1703.375
 914  1601.069
 915  1332.396
 916  1195.137
 917  1132.851
 918  1297.74
 919  1381.199
 920  1334.55
 921  1431.114
 922  1511.565
 923  1496.892
 924  1462.37
 925  1488.091
 926  1537.304
 927  1625.966
 928  1588.682
 929  1494.902
 930  1346.3
 931  1347.171
 932  1356.842
 933  1304.397
 934  1242.799
 935  1340.999
 936  1321.709
 937  1365.569
 938  1364.49
 939  1549.937
 940  1637.707
 941  1622.444
 942  1536.786
 943  1569.419
 944  1581.376
 945  1512.356
 946  1508.062
 947  1549.719
 948  1534.053
 949  1452.26
 950  1413.123
 951  1373.837
 952  1415.843
 953  1455.469
 954  1424.097
 955  1377.842
 956  1262.212
 957  1365.21
 958  1339.005
 959  1377.833
 960  1365.871
 961  1523.996
 962  1470.824
 963  1388.557
 964  1282.943
 965  1361.832
 966  1335.672
 967  1399.564
 968  1536.625
 969  1538.44
 970  1488.29
 971  1298.57
 972  1231.311
 973  1264.234
 974  1396.931
 975  1509.939
 976  1443.154
 977  1242.865
 978  1274.135
 979  1421.78
 980  1506.618
 981  1417.12
 982  1438.162
 983  1584.349
 984  1537.357
 985  1444.663
 986  1267.326
 987  1149.631
 988  1171.083
 989  1366.143
 990  1431.466
 991  1387.648
 992  1406.002
 993  1419.138
 994  1472.201
 995  1351.095
 996  1390.587
 997  1367.132
 998  1379.723
 999  1334.145
1000  1307.973
1001  1251.053
1002  1249.878
1003  1298.562
1004  1479.967
1005  1811.825
1006  1757.843
1007  1721.431
1008  1492.768
1009  1344.213
1010  1328.69
1011  1378.313
1012  1496.252
1013  1533.639
1014  1481.902
1015  1352.566
1016  1176.803
1017  1159.952
1018  1263.814
1019  1380.845
1020  1451.591
1021  1437.279
1022  1386.599
1023  1424.857
