# Input file       =  1196981508.116393_cleaned.dat
# Candidate        =  PSR_0332+5434
# Telescope        =  AR
# Epoch_topo       =  58097.952860143436
# Epoch_bary       =  N/A
# T_sample         =  0.002
# Data Folded      =  7340032
# Data Avg         =  1.0096679929359  
# Data StdDev      =  9.22400161658685 
# Profile Bins     =  512
# Profile Avg      =  14474.1811404998 
# Profile StdDev   =  1104.41772109814 
# Reduced chi-sqr  =  0.649
# Prob(Noise)      <  1   (~0.0 sigma)
# P_topo (ms)      =  714.536201105265  +/- 0.000124
# P'_topo (s/s)    =  -0                +/- 6.52e-11
# P''_topo (s/s^2) =  0                 +/- 2.88e-14
# P_bary (ms)      =  N/A
# P'_bary (s/s)    =  N/A
# P''_bary (s/s^2) =  N/A
# P_orb (s)        =  N/A
# asin(i)/c (s)    =  N/A
# eccentricity     =  N/A
# w (rad)          =  N/A
# T_peri           =  N/A
######################################################
   0  14082.43
   1  14577.08
   2  14468.5
   3  14486.28
   4  13701.17
   5  14051.93
   6  14452.08
   7  13558.12
   8  13633.51
   9  14378.38
  10  15093.4
  11  14761.18
  12  15405.14
  13  14962.44
  14  14112.51
  15  13741.48
  16  14018.8
  17  15072.16
  18  15438.26
  19  15914.82
  20  16209.46
  21  16231.91
  22  16042.54
  23  15187.39
  24  15165.7
  25  14800.39
  26  14724.83
  27  14735.86
  28  15540.21
  29  15525.58
  30  15722.87
  31  14783.8
  32  13873.3
  33  14029.23
  34  13871.46
  35  14391.04
  36  14164.02
  37  13468.3
  38  14142.9
  39  14613.65
  40  13476.06
  41  14106.64
  42  14516.12
  43  13769.64
  44  13938.14
  45  13463.91
  46  13215.51
  47  13424.18
  48  13694.89
  49  13982.99
  50  14345.16
  51  14511.21
  52  13956.63
  53  13937.29
  54  14067.08
  55  14086.04
  56  13440.48
  57  13842.2
  58  14290.11
  59  14311.61
  60  14207.01
  61  14268.42
  62  13664.19
  63  13722.3
  64  13471.15
  65  13050.98
  66  12858.8
  67  13954.11
  68  14314.68
  69  15017.08
  70  15277.04
  71  15337.23
  72  14851.18
  73  14598.86
  74  14422.14
  75  14614.32
  76  14206.05
  77  14543.06
  78  15344.86
  79  14692.85
  80  15392.45
  81  14565.31
  82  14338.23
  83  14510.63
  84  14606.41
  85  15040.45
  86  15329.43
  87  15431.96
  88  14745.42
  89  14005.89
  90  13479.15
  91  13639.43
  92  13706.02
  93  14108.86
  94  14408.75
  95  15736.73
  96  16465.36
  97  16000.43
  98  14956.38
  99  14064.53
 100  12983.52
 101  12961.38
 102  14101.33
 103  14941.99
 104  14930.48
 105  15272.49
 106  14900.58
 107  14669.88
 108  14632.47
 109  14281.6
 110  14144.02
 111  14261.47
 112  14547
 113  14577.64
 114  13968.29
 115  12891.86
 116  13981.34
 117  13989.78
 118  13745.23
 119  13486.69
 120  14061.73
 121  14696.98
 122  15566.79
 123  14842.77
 124  14204.34
 125  14389.3
 126  14973.31
 127  16137.95
 128  15180.44
 129  14737.34
 130  14316.53
 131  15114.43
 132  15769.33
 133  15153.65
 134  15241.46
 135  14949.22
 136  15180.31
 137  15676.57
 138  15205.4
 139  15066.63
 140  14981.07
 141  14307.58
 142  14376.59
 143  14327.91
 144  14164.99
 145  14478.92
 146  14321.6
 147  14465.79
 148  14033.22
 149  13548.34
 150  13566.86
 151  13656.72
 152  14289.39
 153  14864.34
 154  14563.06
 155  13684.74
 156  13323.82
 157  13647.53
 158  14206.5
 159  13909.96
 160  14087.54
 161  14697.89
 162  15040.51
 163  15013.76
 164  14221.37
 165  14321.8
 166  13942.03
 167  14053.05
 168  15226.86
 169  15375.99
 170  15424.96
 171  15094.84
 172  14918.67
 173  14473.67
 174  14759.05
 175  14694.14
 176  14695.91
 177  14657.76
 178  14625.4
 179  14533.51
 180  14596.7
 181  14270.37
 182  14268.57
 183  14079.8
 184  13983.5
 185  14683.58
 186  15267.72
 187  14859.75
 188  14191.55
 189  13382.52
 190  13992.45
 191  14559.78
 192  14271.24
 193  14543.25
 194  14805.66
 195  14317.68
 196  13929.54
 197  14502.57
 198  14239.9
 199  14176.85
 200  14233.29
 201  13259.93
 202  13337.72
 203  13818.19
 204  14236.6
 205  14509.62
 206  13863.31
 207  14738.49
 208  14634.51
 209  14017.29
 210  13891.12
 211  14025.2
 212  14502.56
 213  14015.42
 214  14432.94
 215  14750.57
 216  14123.22
 217  13875.94
 218  13566.36
 219  13541.38
 220  14034.69
 221  14997.59
 222  15189.06
 223  14633.27
 224  14835.53
 225  14457.41
 226  14035.25
 227  14074.48
 228  14265.7
 229  14824.14
 230  14143.97
 231  13838.54
 232  13515.6
 233  14164.47
 234  14189.95
 235  14126.26
 236  13347.62
 237  13721.47
 238  13839.49
 239  14189.94
 240  14470.96
 241  14411.63
 242  14537.7
 243  15092.39
 244  15062.42
 245  15042
 246  15482.96
 247  16017.94
 248  15089.44
 249  14871.43
 250  15185.54
 251  15357.71
 252  15382.64
 253  15055.69
 254  14901.01
 255  14787.3
 256  14544.04
 257  15042.29
 258  14618.1
 259  14670.52
 260  14005.49
 261  14130.91
 262  13823.73
 263  13780.51
 264  14288.32
 265  14209.24
 266  14166.98
 267  14275.4
 268  14430.98
 269  14322.76
 270  14286.51
 271  13430.55
 272  13069.81
 273  13816.18
 274  14050.77
 275  14117.6
 276  14720.39
 277  14226.11
 278  13465.21
 279  12891.82
 280  14285.14
 281  15176.96
 282  14577.98
 283  13872.35
 284  13950.63
 285  13996.25
 286  14443.61
 287  14750.24
 288  14857.87
 289  14374.25
 290  13808.64
 291  13441.53
 292  13078.3
 293  13611.74
 294  14282.64
 295  15187.14
 296  15519.35
 297  15412.87
 298  14285.13
 299  13522.43
 300  13481.39
 301  14355.01
 302  14716.93
 303  14755.4
 304  14088.2
 305  14569.4
 306  14616.95
 307  14455.4
 308  14614.76
 309  15290.67
 310  15388.78
 311  16293.56
 312  16296.43
 313  15575.71
 314  15787.92
 315  15825.23
 316  15079.39
 317  14303.32
 318  14087.95
 319  14381.3
 320  14757.35
 321  14753.68
 322  14452.65
 323  14718.03
 324  14751.84
 325  14760.97
 326  14766.52
 327  15095.88
 328  14355.53
 329  14351.29
 330  15619.9
 331  15128.44
 332  14858.83
 333  14643.1
 334  14770.54
 335  15318.49
 336  14507.63
 337  15755.19
 338  15706.95
 339  15732.89
 340  14992.73
 341  15034.2
 342  15284.1
 343  14800.07
 344  14980.79
 345  14746.86
 346  14438.3
 347  14554.24
 348  14722.91
 349  14782.32
 350  15535.98
 351  14863.44
 352  15060.48
 353  14715.65
 354  15432.53
 355  15750.49
 356  14852.25
 357  14876.45
 358  14663.19
 359  15346.96
 360  14681.9
 361  14789.45
 362  15521.12
 363  15164.52
 364  14343.93
 365  13607.74
 366  13897.51
 367  14014.61
 368  14261.87
 369  15095.27
 370  15337.43
 371  15195.99
 372  15098.35
 373  14658.34
 374  15047.82
 375  14736.67
 376  14514.32
 377  14561.67
 378  14584.22
 379  15341.68
 380  15117.73
 381  14765.08
 382  14901.74
 383  15036.83
 384  15021.07
 385  14712.44
 386  14745.61
 387  14449.29
 388  15036.18
 389  14758.11
 390  14323.5
 391  13817.06
 392  13255.13
 393  13531.03
 394  13789.81
 395  14108.78
 396  14116.81
 397  13762.41
 398  14165.86
 399  14176.78
 400  13395.44
 401  13459.02
 402  13833.83
 403  13380.72
 404  13698.33
 405  14608.23
 406  15442.23
 407  15117.02
 408  14693
 409  14275.94
 410  14002.08
 411  13676.42
 412  13957.25
 413  14537.06
 414  15277.24
 415  15211.15
 416  14635.99
 417  13925.98
 418  14193.46
 419  14252.07
 420  14620.62
 421  15008.84
 422  14436.23
 423  14404.52
 424  14936.8
 425  14586.23
 426  13659.21
 427  14232.12
 428  15342.63
 429  13717.49
 430  13856.8
 431  14333.09
 432  14122.26
 433  13720.04
 434  14386.43
 435  14117.11
 436  13869.49
 437  13244.25
 438  12985.38
 439  14176.98
 440  14024.72
 441  13833.87
 442  14383.2
 443  14905.36
 444  14249.28
 445  13465.78
 446  13881.79
 447  13783.11
 448  13798.5
 449  14383.21
 450  14232.41
 451  14238.02
 452  14445.73
 453  14405.73
 454  14553.11
 455  14523.59
 456  14393.69
 457  14574.87
 458  15413.54
 459  15375.59
 460  14597.48
 461  14681.24
 462  15138.45
 463  15456.64
 464  15424.73
 465  15303.59
 466  15031.53
 467  15186.94
 468  15339.39
 469  14902.03
 470  14643.1
 471  15370.98
 472  15253.13
 473  14677.12
 474  14197.1
 475  14239.84
 476  14562.07
 477  14196.35
 478  14619.35
 479  15168.72
 480  14698.68
 481  14617.82
 482  14802.56
 483  14775.16
 484  14406.6
 485  14215.82
 486  14232.83
 487  14009.9
 488  14146.21
 489  13829.94
 490  14025.6
 491  13746.2
 492  13562.39
 493  13801.22
 494  13986.85
 495  14445.58
 496  14273.6
 497  14204.41
 498  14149.27
 499  14173.09
 500  14321.5
 501  13546.36
 502  13489.95
 503  13730
 504  13799.27
 505  14117.82
 506  14820.08
 507  15787.25
 508  14695.71
 509  13631.47
 510  13204.83
 511  14041.46
