# Input file       =  1196708008.118209_cleaned.dat
# Candidate        =  PSR_0332+5434
# Telescope        =  AR
# Epoch_topo       =  58094.787350905193
# Epoch_bary       =  N/A
# T_sample         =  0.002
# Data Folded      =  7340032
# Data Avg         =  0.0523864044060718
# Data StdDev      =  1.00041736669069 
# Profile Bins     =  512
# Profile Avg      =  750.76113047682  
# Profile StdDev   =  119.783008957924 
# Reduced chi-sqr  =  0.791
# Prob(Noise)      <  1   (~0.0 sigma)
# P_topo (ms)      =  714.532643933181  +/- 0.000165
# P'_topo (s/s)    =  -0                +/- 8.71e-11
# P''_topo (s/s^2) =  0                 +/- 3.84e-14
# P_bary (ms)      =  N/A
# P'_bary (s/s)    =  N/A
# P''_bary (s/s^2) =  N/A
# P_orb (s)        =  N/A
# asin(i)/c (s)    =  N/A
# eccentricity     =  N/A
# w (rad)          =  N/A
# T_peri           =  N/A
######################################################
   0  800.146
   1  805.1678
   2  677.2398
   3  629.4703
   4  802.8002
   5  802.6269
   6  733.2763
   7  833.806
   8  726.1288
   9  696.0092
  10  774.57
  11  784.5935
  12  735.313
  13  824.6757
  14  815.5517
  15  729.6445
  16  733.2557
  17  852.5829
  18  801.7185
  19  781.8046
  20  639.1353
  21  723.4695
  22  796.2202
  23  756.0972
  24  800.0643
  25  765.1635
  26  830.1724
  27  921.1266
  28  792.5602
  29  674.6589
  30  654.8644
  31  709.8855
  32  719.3369
  33  647.7238
  34  611.3101
  35  795.2053
  36  785.334
  37  706.8123
  38  727.6301
  39  731.452
  40  672.7343
  41  646.079
  42  799.7978
  43  802.7873
  44  710.0829
  45  757.6768
  46  737.1352
  47  795.9139
  48  711.8188
  49  708.4488
  50  707.3051
  51  695.1785
  52  626.4988
  53  709.8567
  54  844.0623
  55  795.4402
  56  817.6149
  57  923.0602
  58  844.639
  59  739.4882
  60  886.563
  61  843.4214
  62  785.1978
  63  651.6883
  64  751.0156
  65  779.3822
  66  786.2844
  67  863.4088
  68  903.4524
  69  882.2798
  70  821.9755
  71  890.418
  72  845.7908
  73  686.8531
  74  682.0198
  75  739.3671
  76  710.2047
  77  749.9503
  78  761.2499
  79  755.1471
  80  696.2375
  81  679.8895
  82  744.8961
  83  841.3728
  84  760.2884
  85  664.1268
  86  592.0425
  87  667.2317
  88  761.9888
  89  697.5767
  90  763.5441
  91  680.5068
  92  688.2808
  93  715.6946
  94  767.6263
  95  727.832
  96  643.967
  97  769.1707
  98  762.27
  99  620.8351
 100  716.2559
 101  788.4632
 102  703.218
 103  786.7557
 104  813.8672
 105  729.5942
 106  828.8471
 107  893.2624
 108  846.9199
 109  793.5525
 110  897.7201
 111  920.8109
 112  784.8059
 113  752.6031
 114  808.7242
 115  741.8872
 116  626.7823
 117  702.0934
 118  731.6029
 119  740.6107
 120  766.1735
 121  760.6288
 122  803.8109
 123  735.085
 124  812.3813
 125  865.5775
 126  722.8612
 127  746.7003
 128  805.4115
 129  876.6344
 130  769.6365
 131  757.1713
 132  726.6097
 133  751.9024
 134  735.1742
 135  746.3759
 136  752.409
 137  729.436
 138  714.16
 139  851.577
 140  852.6947
 141  721.2145
 142  687.3258
 143  813.0726
 144  697.1317
 145  712.1115
 146  802.282
 147  804.5649
 148  714.7463
 149  708.0667
 150  674.5521
 151  676.2117
 152  681.9127
 153  700.7249
 154  731.5051
 155  851.1041
 156  866.1001
 157  767.7922
 158  693.6593
 159  677.8121
 160  758.0465
 161  772.511
 162  773.3871
 163  872.0049
 164  821.527
 165  809.4431
 166  818.853
 167  817.9902
 168  769.7046
 169  836.657
 170  768.415
 171  749.1155
 172  781.09
 173  717.2509
 174  687.2828
 175  702.662
 176  753.4263
 177  803.9433
 178  833.8909
 179  834.0814
 180  800.9603
 181  837.9894
 182  801.2123
 183  699.6666
 184  693.96
 185  685.7082
 186  747.3475
 187  734.2842
 188  780.3516
 189  851.6644
 190  846.9547
 191  837.7764
 192  775.5692
 193  747.7957
 194  741.2916
 195  704.3887
 196  709.2879
 197  825.1871
 198  867.4623
 199  824.0779
 200  805.6544
 201  787.8573
 202  758.3546
 203  728.8042
 204  856.705
 205  830.488
 206  760.7255
 207  699.626
 208  770.0198
 209  755.3824
 210  709.0441
 211  782.6608
 212  640.8917
 213  645.3372
 214  652.2417
 215  591.334
 216  630.3398
 217  707.1049
 218  640.2718
 219  564.3097
 220  621.8621
 221  681.2463
 222  666.6072
 223  636.5011
 224  723.1637
 225  695.5092
 226  728.8558
 227  617.256
 228  677.8621
 229  747.3703
 230  689.6229
 231  643.6012
 232  713.9777
 233  726.9877
 234  744.683
 235  797.0906
 236  827.6223
 237  751.7921
 238  670.6705
 239  656.1918
 240  790.3804
 241  769.8531
 242  729.525
 243  775.765
 244  817.2364
 245  817.4678
 246  801.9355
 247  728.1874
 248  826.4038
 249  878.8806
 250  840.3009
 251  908.4448
 252  967.021
 253  1101.992
 254  1071.248
 255  1082.851
 256  993.5496
 257  758.0985
 258  740.6658
 259  704.9078
 260  693.851
 261  673.8537
 262  642.8254
 263  684.7393
 264  751.9931
 265  726.4536
 266  768.953
 267  678.9628
 268  790.4003
 269  783.8057
 270  714.7875
 271  695.5869
 272  726.6569
 273  722.0097
 274  740.2389
 275  803.078
 276  859.02
 277  804.4878
 278  745.2665
 279  779.8461
 280  855.8557
 281  848.5789
 282  800.3178
 283  779.5738
 284  692.8633
 285  748.0795
 286  690.9266
 287  821.4407
 288  734.8538
 289  833.4952
 290  863.1516
 291  728.4058
 292  654.3781
 293  712.3267
 294  648.8704
 295  607.8165
 296  610.9325
 297  683.295
 298  758.7891
 299  589.5066
 300  551.6129
 301  754.7768
 302  761.9197
 303  799.2535
 304  761.8983
 305  723.042
 306  774.6889
 307  823.0593
 308  660.637
 309  636.2275
 310  697.4408
 311  709.777
 312  701.8297
 313  684.4675
 314  677.8134
 315  631.0004
 316  653.7018
 317  687.694
 318  771.7368
 319  887.2449
 320  831.0981
 321  711.2139
 322  692.0182
 323  674.0446
 324  760.0623
 325  780.0405
 326  752.925
 327  756.7665
 328  717.596
 329  840.1425
 330  741.975
 331  754.165
 332  746.3818
 333  830.627
 334  723.0615
 335  710.2997
 336  611.4123
 337  617.4868
 338  589.4312
 339  714.2808
 340  824.0068
 341  799.6599
 342  753.3322
 343  667.2245
 344  728.5461
 345  677.7399
 346  742.603
 347  801.124
 348  799.2087
 349  772.1426
 350  823.1948
 351  817.2012
 352  684.2339
 353  720.5335
 354  798.0572
 355  833.3464
 356  846.6472
 357  813.4144
 358  627.4496
 359  567.6588
 360  630.6126
 361  738.0452
 362  757.181
 363  706.6785
 364  641.4329
 365  604.5109
 366  645.653
 367  765.3506
 368  831.0148
 369  959.1654
 370  869.2876
 371  613.4674
 372  725.5355
 373  754.5323
 374  672.5745
 375  688.5455
 376  718.6708
 377  769.6401
 378  705.5629
 379  706.595
 380  772.985
 381  743.7155
 382  756.5771
 383  773.3779
 384  815.323
 385  867.2357
 386  779.3367
 387  809.7273
 388  721.9788
 389  727.9078
 390  749.1796
 391  774.3521
 392  742.1614
 393  678.4387
 394  740.8443
 395  828.0553
 396  796.5691
 397  820.1752
 398  749.1512
 399  752.981
 400  693.231
 401  635.4991
 402  683.3843
 403  725.5163
 404  823.6243
 405  867.6558
 406  793.9938
 407  821.9841
 408  834.0737
 409  705.3519
 410  709.2527
 411  737.0854
 412  759.8363
 413  757.2123
 414  742.3724
 415  756.9398
 416  741.1674
 417  743.4529
 418  748.1976
 419  730.0432
 420  596.4112
 421  708.7908
 422  789.1038
 423  745.2626
 424  606.6746
 425  530.5815
 426  522.5658
 427  671.6608
 428  787.4062
 429  724.8953
 430  743.2679
 431  684.7917
 432  593.2283
 433  657.8418
 434  659.5184
 435  754.8536
 436  822.0532
 437  735.182
 438  752.4055
 439  773.0041
 440  775.6031
 441  612.0455
 442  655.5852
 443  790.2149
 444  766.2944
 445  792.615
 446  776.355
 447  698.2157
 448  673.4429
 449  752.675
 450  773.2957
 451  766.0861
 452  789.4287
 453  806.4601
 454  733.9545
 455  693.7041
 456  576.0168
 457  630.7604
 458  655.3685
 459  633.3212
 460  677.9435
 461  786.0447
 462  756.55
 463  633.7775
 464  697.9597
 465  744.6939
 466  801.6796
 467  773.4651
 468  885.5301
 469  810.267
 470  677.3741
 471  805.3276
 472  890.7145
 473  796.7701
 474  723.2726
 475  819.1179
 476  873.7524
 477  743.246
 478  731.9638
 479  805.7622
 480  760.6738
 481  779.5692
 482  910.1942
 483  847.3162
 484  684.3085
 485  666.5011
 486  768.8725
 487  739.9689
 488  837.8485
 489  752.9681
 490  675.178
 491  705.2296
 492  735.4821
 493  789.1656
 494  783.0627
 495  775.147
 496  829.9304
 497  837.8635
 498  835.4642
 499  828.2712
 500  745.7784
 501  798.4575
 502  673.0089
 503  767.5862
 504  865.1164
 505  812.8348
 506  826.6406
 507  802.3237
 508  693.2095
 509  752.9045
 510  716.7894
 511  676.9176
