# Input file       =  1196951893.114437_cleaned.dat
# Candidate        =  PSR_0332+5434
# Telescope        =  AR
# Epoch_topo       =  58097.610093917094
# Epoch_bary       =  N/A
# T_sample         =  0.002
# Data Folded      =  7208960
# Data Avg         =  0.703012117586861
# Data StdDev      =  7.28825099465994 
# Profile Bins     =  512
# Profile Avg      =  9898.3735060375  
# Profile StdDev   =  864.817856002729 
# Reduced chi-sqr  =  0.553
# Prob(Noise)      <  1   (~0.0 sigma)
# P_topo (ms)      =  714.53550623258   +/- 0.00112
# P'_topo (s/s)    =  -0                +/- 6e-10
# P''_topo (s/s^2) =  0                 +/- 2.7e-13
# P_bary (ms)      =  N/A
# P'_bary (s/s)    =  N/A
# P''_bary (s/s^2) =  N/A
# P_orb (s)        =  N/A
# asin(i)/c (s)    =  N/A
# eccentricity     =  N/A
# w (rad)          =  N/A
# T_peri           =  N/A
######################################################
   0  10054.24
   1  9795.673
   2  10165.82
   3  10332.71
   4  10806.07
   5  9696.345
   6  9787.507
   7  10389.33
   8  9748.21
   9  9211.168
  10  10046.18
  11  9878.802
  12  9198.937
  13  9402.131
  14  9522.026
  15  9309.618
  16  9442.459
  17  9441.648
  18  9837.421
  19  9783.412
  20  9693.838
  21  9370.25
  22  9319.58
  23  9577.028
  24  10324.28
  25  10049.11
  26  10526.46
  27  10964.25
  28  10043.19
  29  10090.55
  30  9140.833
  31  9545.992
  32  9757.347
  33  10008.44
  34  10047.7
  35  9744.628
  36  10457.45
  37  10209.77
  38  10406.45
  39  10480.72
  40  10779.13
  41  10121.45
  42  9679.384
  43  10389.82
  44  10965.84
  45  10625.25
  46  10604.68
  47  10688.97
  48  9795.289
  49  9503.617
  50  9440.363
  51  9978.76
  52  10106.68
  53  9749.572
  54  10332.13
  55  9646.446
  56  9849.673
  57  9655.219
  58  9404.684
  59  9866.359
  60  10204.79
  61  10302.12
  62  10059.34
  63  10422.59
  64  10460.51
  65  10628.26
  66  10072.73
  67  9348.292
  68  9058.285
  69  9791.92
  70  10350.88
  71  10211.54
  72  10255.21
  73  10232.22
  74  10091.28
  75  9580.235
  76  9079.023
  77  9369.809
  78  9614.499
  79  10172.69
  80  10856.1
  81  10609.45
  82  9828.725
  83  9926.408
  84  9639.121
  85  9679.819
  86  9944.677
  87  10103.95
  88  9851.947
  89  9803.133
  90  9631.362
  91  9123.327
  92  9791.792
  93  9652.923
  94  10193.14
  95  9808.154
  96  9859.971
  97  10195.14
  98  9905.871
  99  9466.517
 100  8876.9
 101  9602.557
 102  9842.792
 103  10148.82
 104  9512.806
 105  9690.34
 106  9799.181
 107  10270.66
 108  9505.605
 109  9495.245
 110  9196.35
 111  8678.196
 112  9459.723
 113  9722.526
 114  10077.38
 115  9244.191
 116  9432.147
 117  9331.189
 118  9970.831
 119  10032.25
 120  9461.45
 121  9933.562
 122  9305.805
 123  9885.266
 124  10106.03
 125  10628.91
 126  10307.33
 127  9958.849
 128  9999.387
 129  9138.091
 130  9850.7
 131  9705.719
 132  9885.812
 133  9860.536
 134  9596.785
 135  10326.35
 136  10439.11
 137  10152.6
 138  9735.13
 139  9961.163
 140  9882.023
 141  9693.39
 142  9628.275
 143  9425.987
 144  9418.914
 145  9566.964
 146  9768.445
 147  9203.078
 148  9857.775
 149  9743.963
 150  9521.626
 151  9215.901
 152  9634.867
 153  10136.91
 154  9722.734
 155  10228.06
 156  9937.937
 157  9370.163
 158  9152.516
 159  9367.727
 160  9485.538
 161  9451.584
 162  9815.816
 163  9563.688
 164  9577.217
 165  9599.222
 166  9780.687
 167  9651.496
 168  9818.356
 169  9705.231
 170  9650.541
 171  9574.306
 172  9243.099
 173  9387.495
 174  9177.216
 175  9650.587
 176  9332.246
 177  9541.955
 178  9731.3
 179  10309.04
 180  9960.521
 181  9917.178
 182  9473.863
 183  9405.077
 184  9455.718
 185  9799.006
 186  10409.56
 187  10359.22
 188  10830.64
 189  10809.05
 190  10498.02
 191  10539.49
 192  11060.98
 193  10897.5
 194  10223.84
 195  9849.401
 196  9694.063
 197  10183.94
 198  10199.39
 199  10419.6
 200  9903.834
 201  9080.058
 202  9354.225
 203  9115.905
 204  9554.037
 205  10096.06
 206  10640.32
 207  10610.02
 208  9669.892
 209  8587.155
 210  8825.104
 211  9417.265
 212  9505.95
 213  10160.7
 214  10247.34
 215  9813.251
 216  9692.104
 217  9481.245
 218  9706.78
 219  9778.775
 220  9933.929
 221  9718.091
 222  10019.79
 223  9629.114
 224  9346.2
 225  9559.078
 226  9560.585
 227  10061.54
 228  9748.301
 229  10016.49
 230  9316.829
 231  9996.725
 232  10042.67
 233  9524.689
 234  9814.025
 235  10292.41
 236  10567.9
 237  10192.04
 238  10259.38
 239  10412.66
 240  9876.441
 241  9312.628
 242  9630.683
 243  9131.012
 244  9094.918
 245  9187.482
 246  10085.52
 247  10509.05
 248  9328.457
 249  8825.102
 250  9902.009
 251  10356.99
 252  10400.67
 253  10352.42
 254  10160.03
 255  10049.16
 256  9792.954
 257  9379.574
 258  9599.469
 259  9307.964
 260  9711.141
 261  9845.775
 262  10037.17
 263  9339.963
 264  8987.875
 265  8875.206
 266  8884.549
 267  9811.299
 268  10164.33
 269  10422.91
 270  9965.672
 271  10404.58
 272  10090.23
 273  9406.925
 274  9654.423
 275  9900.085
 276  9893.14
 277  9632.155
 278  9953.839
 279  10055.25
 280  9509.706
 281  9554.246
 282  9575.325
 283  9383.793
 284  9080.137
 285  9761.217
 286  10113.43
 287  10192.96
 288  9851.937
 289  10480.03
 290  10324.21
 291  9820.395
 292  10173.71
 293  10062.57
 294  10106.89
 295  8558.642
 296  9018.646
 297  9894.683
 298  10108.28
 299  10535.57
 300  10710.9
 301  10654.35
 302  9587.1
 303  9419.44
 304  9826.236
 305  10396.45
 306  10393.87
 307  10531.49
 308  10295.63
 309  9815.817
 310  10007.44
 311  10329.82
 312  10463.46
 313  9835.064
 314  9870.749
 315  10219.74
 316  9567.404
 317  9312.146
 318  9394.831
 319  9878.075
 320  9906.132
 321  9760.364
 322  9676.446
 323  9633.009
 324  9988.095
 325  9607.651
 326  9582.119
 327  9901.008
 328  9834.79
 329  9587.912
 330  9543.438
 331  9510.914
 332  10013.13
 333  9844.651
 334  10111.17
 335  10870.17
 336  10769.76
 337  10381.95
 338  9760.389
 339  10055.85
 340  10399.08
 341  10231.48
 342  10105.26
 343  9928.664
 344  9628.779
 345  9996.381
 346  10812.06
 347  10690.95
 348  10124.77
 349  9326.051
 350  9705.782
 351  10115.39
 352  10253.58
 353  10419.74
 354  10373.14
 355  10413.26
 356  10134.79
 357  10175.43
 358  10185.66
 359  10142.82
 360  9821.241
 361  10246.35
 362  10106.26
 363  10048.9
 364  9965.166
 365  9212.941
 366  9191
 367  9474.928
 368  9854.588
 369  10324.8
 370  10713.47
 371  10497.82
 372  10309.31
 373  9905.049
 374  9460.277
 375  10301.63
 376  9645.21
 377  9804.606
 378  10344.29
 379  10220.36
 380  9575.612
 381  9225.472
 382  9655.376
 383  10125.53
 384  9717.166
 385  9644.284
 386  9130.019
 387  8869.479
 388  9757.04
 389  9990.439
 390  9896.533
 391  9708.271
 392  9640.144
 393  9518.562
 394  8998.667
 395  9552.195
 396  9180.882
 397  9294.104
 398  9501.393
 399  10048.18
 400  9828.146
 401  9737.633
 402  10313.3
 403  9970.321
 404  9686.21
 405  9492.578
 406  9421.583
 407  9908.894
 408  9866.678
 409  9607.469
 410  9455.303
 411  9371.875
 412  9622.403
 413  9890.003
 414  10372.7
 415  9690.509
 416  9260.848
 417  9504.487
 418  10296.51
 419  10370.3
 420  10838.48
 421  10698.54
 422  10231.24
 423  10079.16
 424  10277.25
 425  10223.22
 426  10198.77
 427  10222.68
 428  9567.251
 429  9635.967
 430  9391.26
 431  9225.399
 432  9760.009
 433  10180.7
 434  9665.305
 435  9243.953
 436  9601.876
 437  9302.852
 438  9479.823
 439  9218.131
 440  9220.373
 441  9021.896
 442  9409.696
 443  9402.432
 444  9734.773
 445  9417.579
 446  9585.229
 447  10506.98
 448  9857.742
 449  9384.769
 450  9623.448
 451  10223.28
 452  9910.622
 453  10293.32
 454  10406.02
 455  10522.16
 456  9901.843
 457  10016.56
 458  10162.07
 459  10471.33
 460  10956.66
 461  10485.5
 462  10411.26
 463  10490.54
 464  10093.82
 465  10108.13
 466  10250.15
 467  10641.96
 468  10641.82
 469  10622.76
 470  10430.51
 471  10432.91
 472  10552.46
 473  10441.38
 474  10981.83
 475  11482.79
 476  11411.75
 477  10146.45
 478  10349.39
 479  9927.91
 480  9846.121
 481  9867.562
 482  10354.94
 483  10930.28
 484  10766.74
 485  10433.91
 486  9928.676
 487  10057.32
 488  9501.329
 489  10417.64
 490  10112.43
 491  9577.126
 492  9545.396
 493  9672.711
 494  10121.01
 495  9757.175
 496  10363.39
 497  10184.7
 498  10015.19
 499  10138.15
 500  10291.09
 501  10489.01
 502  10749.5
 503  10623.79
 504  10783.57
 505  10376.93
 506  10234
 507  10443.92
 508  9782.689
 509  9707.053
 510  10444.87
 511  10033
