# Input file       =  1196865738.117129_cleaned.dat
# Candidate        =  PSR_0332+5434
# Telescope        =  AR
# Epoch_topo       =  58096.612929596398
# Epoch_bary       =  N/A
# T_sample         =  0.002
# Data Folded      =  7143424
# Data Avg         =  0.0498928123322494
# Data StdDev      =  1.00024947073633 
# Profile Bins     =  512
# Profile Avg      =  696.144173036207 
# Profile StdDev   =  118.148051612112 
# Reduced chi-sqr  =  0.865
# Prob(Noise)      <  0.988   (~0.0 sigma)
# P_topo (ms)      =  714.534493004472  +/- 0.000104
# P'_topo (s/s)    =  -0                +/- 5.63e-11
# P''_topo (s/s^2) =  0                 +/- 2.55e-14
# P_bary (ms)      =  N/A
# P'_bary (s/s)    =  N/A
# P''_bary (s/s^2) =  N/A
# P_orb (s)        =  N/A
# asin(i)/c (s)    =  N/A
# eccentricity     =  N/A
# w (rad)          =  N/A
# T_peri           =  N/A
######################################################
   0  657.2969
   1  859.9382
   2  774.6296
   3  758.2021
   4  755.9879
   5  795.3096
   6  848.3174
   7  719.5782
   8  628.2237
   9  693.3641
  10  778.4737
  11  752.5563
  12  526.3348
  13  615.7904
  14  564.0299
  15  648.1904
  16  688.4475
  17  777.056
  18  736.6913
  19  719.4062
  20  625.1133
  21  671.3913
  22  795.0687
  23  750.0642
  24  793.4044
  25  655.0381
  26  647.6713
  27  674.8198
  28  715.8095
  29  547.9203
  30  713.2228
  31  617.8163
  32  460.2557
  33  654.6533
  34  722.4569
  35  588.8076
  36  636.0975
  37  654.6592
  38  719.053
  39  668.2166
  40  732.692
  41  780.9301
  42  755.9797
  43  617.3682
  44  619.2212
  45  560.7542
  46  647.7272
  47  712.0217
  48  644.4161
  49  717.3247
  50  789.8456
  51  703.6858
  52  686.9942
  53  556.2567
  54  536.8025
  55  669.392
  56  716.8241
  57  738.9365
  58  799.9351
  59  708.0394
  60  703.7109
  61  614.6658
  62  614.9464
  63  659.9689
  64  665.5797
  65  682.3755
  66  787.1967
  67  857.2361
  68  731.2697
  69  612.987
  70  714.3053
  71  751.1263
  72  701.4137
  73  621.387
  74  652.9268
  75  646.877
  76  638.0504
  77  668.6443
  78  775.5361
  79  832.6151
  80  740.6867
  81  725.3065
  82  714.0112
  83  684.9337
  84  695.9739
  85  767.8781
  86  803.4773
  87  874.9165
  88  768.1588
  89  728.6755
  90  681.955
  91  667.3442
  92  699.0229
  93  710.1283
  94  699.5222
  95  690.8013
  96  749.6134
  97  716.373
  98  738.9752
  99  884.0272
 100  983.0868
 101  1026.869
 102  960.3301
 103  985.0207
 104  995.3112
 105  864.397
 106  675.2841
 107  586.4142
 108  638.0854
 109  706.2347
 110  668.3325
 111  636.2133
 112  645.4248
 113  654.3789
 114  813.9886
 115  729.2877
 116  758.2172
 117  737.1113
 118  713.6845
 119  634.1633
 120  624.3054
 121  644.305
 122  613.7926
 123  605.3643
 124  660.0356
 125  688.9528
 126  735.6551
 127  692.1047
 128  655.3891
 129  717.1447
 130  659.6934
 131  623.8393
 132  657.353
 133  738.8411
 134  686.752
 135  615.7234
 136  687.3134
 137  796.4473
 138  753.6535
 139  662.3124
 140  765.1782
 141  817.6332
 142  726.1049
 143  707.8452
 144  693.5685
 145  723.0005
 146  715.2575
 147  663.1904
 148  698.3566
 149  715.7402
 150  702.7304
 151  774.852
 152  668.0012
 153  626.0513
 154  639.7937
 155  690.2709
 156  803.7491
 157  646.6157
 158  538.4072
 159  627.6201
 160  652.4479
 161  567.6196
 162  570.2577
 163  640.2262
 164  594.5836
 165  711.6524
 166  763.3072
 167  846.0616
 168  770.9093
 169  631.0498
 170  573.2062
 171  650.1253
 172  681.408
 173  695.945
 174  818.9877
 175  695.3117
 176  670.6862
 177  629.55
 178  727.4796
 179  623.7204
 180  599.4485
 181  762.1711
 182  754.7326
 183  762.5535
 184  627.653
 185  665.2949
 186  813.3038
 187  800.4352
 188  737.136
 189  776.8555
 190  785.8707
 191  640.6664
 192  633.2789
 193  663.2564
 194  766.4742
 195  594.8873
 196  524.0481
 197  603.7373
 198  723.4254
 199  647.4149
 200  640.4812
 201  709.152
 202  684.5923
 203  567.5697
 204  681.7762
 205  734.131
 206  608.8844
 207  520.3191
 208  644.5275
 209  700.2729
 210  712.8643
 211  631.6923
 212  640.3032
 213  685.6087
 214  677.4299
 215  751.7247
 216  837.0917
 217  764.2039
 218  678.4906
 219  619.8767
 220  729.5397
 221  732.6777
 222  700.963
 223  705.7988
 224  627.0487
 225  711.093
 226  774.5768
 227  712.7601
 228  663.9706
 229  600.4769
 230  575.5754
 231  614.7045
 232  659.2094
 233  703.6777
 234  710.1278
 235  740.0872
 236  690.5676
 237  633.9485
 238  671.5527
 239  684.1031
 240  664.7466
 241  770.8593
 242  715.0582
 243  610.6369
 244  684.6943
 245  636.1487
 246  758.0594
 247  805.4367
 248  723.89
 249  653.8973
 250  692.5975
 251  743.5804
 252  754.635
 253  659.8726
 254  628.8229
 255  634.57
 256  555.5576
 257  667.2885
 258  748.0988
 259  700.2194
 260  670.7311
 261  745.6881
 262  692.1142
 263  696.1232
 264  779.7667
 265  740.2843
 266  641.16
 267  608.0899
 268  646.708
 269  646.3565
 270  586.9969
 271  692.1236
 272  702.6528
 273  829.5513
 274  783.0928
 275  656.2519
 276  674.6734
 277  658.0723
 278  642.0584
 279  707.9485
 280  901.2139
 281  980.8093
 282  883.4345
 283  764.4515
 284  602.3699
 285  624.4677
 286  601.5721
 287  614.1104
 288  656.4659
 289  700.4155
 290  788.8224
 291  719.6046
 292  641.4191
 293  706.2732
 294  671.1168
 295  740.1208
 296  816.6133
 297  880.5713
 298  752.2874
 299  677.2784
 300  701.7035
 301  662.309
 302  625.8065
 303  571.7846
 304  595.3647
 305  651.4506
 306  681.4553
 307  707.8052
 308  723.2471
 309  749.5259
 310  654.1321
 311  528.2271
 312  629.7421
 313  698.8868
 314  820.3052
 315  730.4533
 316  670.6296
 317  668.8456
 318  755.871
 319  703.3427
 320  709.9215
 321  721.8975
 322  744.9665
 323  773.1688
 324  773.9161
 325  802.4163
 326  727.0684
 327  727.8163
 328  591.5057
 329  609.2332
 330  647.4918
 331  761.1451
 332  734.2208
 333  690.7383
 334  691.6326
 335  481.5972
 336  613.4504
 337  723.0287
 338  654.1163
 339  716.5604
 340  905.697
 341  900.524
 342  734.6931
 343  649.6014
 344  680.0562
 345  665.4733
 346  640.23
 347  732.9726
 348  757.5892
 349  643.3505
 350  590.2784
 351  598.4465
 352  749.5704
 353  710.8301
 354  693.8929
 355  784.2524
 356  747.9573
 357  836.0797
 358  719.7614
 359  791.6009
 360  824.3088
 361  683.3292
 362  655.6866
 363  651.6561
 364  703.6818
 365  652.5709
 366  541.768
 367  668.1159
 368  607.2808
 369  621.1852
 370  647.9378
 371  672.2346
 372  700.1975
 373  754.1583
 374  732.1926
 375  679.9891
 376  627.8167
 377  716.4261
 378  574.9463
 379  548.6865
 380  630.8766
 381  705.488
 382  647.2797
 383  600.4359
 384  663.1898
 385  706.1728
 386  766.2658
 387  671.8657
 388  698.9556
 389  721.4608
 390  714.8746
 391  668.1637
 392  690.568
 393  667.8748
 394  631.0043
 395  634.5861
 396  663.2281
 397  745.7801
 398  751.1293
 399  631.3547
 400  579.7878
 401  708.8149
 402  755.3355
 403  737.0967
 404  792.3609
 405  806.6175
 406  765.5715
 407  664.6415
 408  569.0629
 409  638.021
 410  564.4401
 411  563.8511
 412  590.5395
 413  634.2344
 414  738.2215
 415  702.3942
 416  772.7123
 417  738.5267
 418  645.4777
 419  627.3843
 420  646.7955
 421  803.9155
 422  856.7964
 423  775.4499
 424  745.07
 425  696.2415
 426  609.3811
 427  666.7836
 428  637.2861
 429  489.2614
 430  539.8611
 431  671.4907
 432  703.7436
 433  683.9667
 434  819.3246
 435  755.6378
 436  780.2195
 437  695.2572
 438  738.8749
 439  686.617
 440  698.0378
 441  828.4095
 442  709.9789
 443  691.9514
 444  630.1941
 445  632.4612
 446  731.6385
 447  685.5124
 448  615.2343
 449  626.0302
 450  592.1733
 451  654.366
 452  683.0867
 453  813.2029
 454  806.3304
 455  815.3652
 456  741.2234
 457  636.8566
 458  594.473
 459  702.1714
 460  747.2573
 461  666.8063
 462  693.6055
 463  680.1012
 464  743.6682
 465  726.0419
 466  753.0132
 467  673.9576
 468  601.4829
 469  736.6421
 470  767.0164
 471  819.3291
 472  866.7351
 473  724.6391
 474  562.9765
 475  635.9307
 476  635.8624
 477  648.5193
 478  778.2355
 479  716.1182
 480  618.5952
 481  618.8992
 482  716.2299
 483  750.4051
 484  653.3224
 485  726.0593
 486  763.3793
 487  786.1609
 488  840.9517
 489  794.3474
 490  710.5718
 491  633.9988
 492  621.8853
 493  630.804
 494  628.428
 495  628.1603
 496  707.3616
 497  668.4915
 498  733.9622
 499  679.6267
 500  524.8367
 501  610.3746
 502  726.2845
 503  795.1508
 504  691.3978
 505  771.129
 506  821.38
 507  704.2347
 508  688.8733
 509  647.653
 510  631.3344
 511  686.4128
