# Input file       =  1196378798.121901_cleaned.dat
# Candidate        =  PSR_0332+5434
# Telescope        =  AR
# Epoch_topo       =  58090.977050022004
# Epoch_bary       =  N/A
# T_sample         =  0.002
# Data Folded      =  7340032
# Data Avg         =  0.132777390277104
# Data StdDev      =  4.92943722806543 
# Profile Bins     =  1024
# Profile Avg      =  951.733518875748 
# Profile StdDev   =  417.34608028687  
# Reduced chi-sqr  =  0.511
# Prob(Noise)      <  1   (~0.0 sigma)
# P_topo (ms)      =  714.529091480522  +/- 0.000871
# P'_topo (s/s)    =  -0                +/- 4.6e-10
# P''_topo (s/s^2) =  0                 +/- 2.03e-13
# P_bary (ms)      =  N/A
# P'_bary (s/s)    =  N/A
# P''_bary (s/s^2) =  N/A
# P_orb (s)        =  N/A
# asin(i)/c (s)    =  N/A
# eccentricity     =  N/A
# w (rad)          =  N/A
# T_peri           =  N/A
######################################################
   0  782.1564
   1  646.9507
   2  667.6961
   3  633.4996
   4  651.5332
   5  705.2738
   6  847.3353
   7  881.6219
   8  795.234
   9  733.3129
  10  773.6773
  11  789.5278
  12  864.7494
  13  981.9924
  14  1020.467
  15  915.7065
  16  838.3492
  17  729.9481
  18  628.3331
  19  548.9061
  20  588.0325
  21  668.046
  22  678.023
  23  813.6091
  24  874.4016
  25  885.6041
  26  902.4167
  27  815.8997
  28  638.4542
  29  641.5066
  30  712.2042
  31  815.2126
  32  777.1591
  33  754.1417
  34  660.8859
  35  571.8729
  36  475.7717
  37  596.929
  38  746.908
  39  815.0283
  40  716.1339
  41  701.0649
  42  665.1697
  43  699.3013
  44  621.3881
  45  677.1091
  46  788.0962
  47  913.4505
  48  981.1611
  49  903.7015
  50  833.5899
  51  898.8905
  52  980.5052
  53  951.2881
  54  845.1824
  55  742.7543
  56  718.4816
  57  733.2167
  58  782.9086
  59  965.5544
  60  1044.496
  61  1043.077
  62  828.2289
  63  767.3198
  64  893.9758
  65  931.9003
  66  846.4755
  67  667.5441
  68  771.9472
  69  932.2742
  70  1033.216
  71  832.7867
  72  807.696
  73  731.1686
  74  783.97
  75  1002.076
  76  946.4247
  77  947.6686
  78  841.0348
  79  933.7615
  80  1077.577
  81  1045.085
  82  1048.975
  83  1014.776
  84  1014.419
  85  1045.333
  86  923.9269
  87  813.6223
  88  860.0366
  89  946.6031
  90  1000.852
  91  986.6306
  92  948.8779
  93  941.0936
  94  813.681
  95  795.1792
  96  841.9123
  97  944.4565
  98  970.8675
  99  931.467
 100  820.1898
 101  730.0248
 102  815.0717
 103  893.7145
 104  986.4443
 105  864.9414
 106  729.5624
 107  577.4777
 108  561.6027
 109  747.0187
 110  901.8795
 111  1008.835
 112  1079.116
 113  1107.388
 114  1031.953
 115  1034.003
 116  1074.8
 117  1168.727
 118  954.9573
 119  730.5752
 120  655.3185
 121  703.5914
 122  829.5499
 123  882.799
 124  1001.605
 125  1073.203
 126  964.9425
 127  686.5239
 128  588.0263
 129  757.4907
 130  934.3716
 131  898.6104
 132  819.2692
 133  758.7607
 134  751.9913
 135  733.8038
 136  747.5337
 137  822.8382
 138  751.4379
 139  662.717
 140  593.53
 141  626.5349
 142  620.4725
 143  659.4461
 144  774.0942
 145  950.0892
 146  947.5516
 147  830.8367
 148  715.2105
 149  693.7117
 150  818.2673
 151  822.6232
 152  829.7699
 153  659.1874
 154  705.9944
 155  735.6902
 156  878.9838
 157  1031.787
 158  1225.962
 159  1195.413
 160  977.6457
 161  963.1096
 162  1031.086
 163  1104.494
 164  1051.089
 165  1023.483
 166  994.858
 167  788.2854
 168  752.5321
 169  781.4218
 170  993.5588
 171  1080.771
 172  1033.617
 173  930.2667
 174  1037.14
 175  1041.799
 176  995.9104
 177  889.6873
 178  894.0842
 179  967.4145
 180  938.2474
 181  922.9183
 182  879.347
 183  833.3813
 184  875.8724
 185  1073.957
 186  1187.408
 187  1197.905
 188  1132.185
 189  1085.06
 190  1170.616
 191  1060.402
 192  1023.428
 193  1003.442
 194  1237.463
 195  1360.202
 196  1231.656
 197  980.3953
 198  770.1188
 199  802.5807
 200  702.8337
 201  719.4257
 202  864.3434
 203  980.2085
 204  960.1946
 205  828.2457
 206  708.3566
 207  659.7755
 208  651.9171
 209  702.7952
 210  690.4197
 211  789.999
 212  861.7569
 213  924.3858
 214  898.336
 215  973.5883
 216  958.1659
 217  930.3646
 218  874.4371
 219  933.5064
 220  763.5407
 221  775.0284
 222  815.1847
 223  1087.365
 224  1052.682
 225  1067.906
 226  1138.309
 227  1237.533
 228  1234.971
 229  1106.852
 230  1305.894
 231  1337.589
 232  1279.387
 233  1055.152
 234  895.1209
 235  787.7297
 236  665.9738
 237  922.4872
 238  1027.549
 239  1042.472
 240  731.5985
 241  767.8749
 242  939.9751
 243  1070.758
 244  1071.147
 245  1009.923
 246  999.2173
 247  975.0194
 248  848.2946
 249  757.4907
 250  655.3583
 251  731.0262
 252  900.4482
 253  933.7665
 254  971.9867
 255  902.7709
 256  962.7585
 257  956.5593
 258  1130.369
 259  1171.245
 260  1185.249
 261  1013.764
 262  866.6348
 263  793.9151
 264  931.5739
 265  1083.114
 266  1069.475
 267  1000.073
 268  1090.213
 269  1217.649
 270  1167.151
 271  1143.671
 272  995.8479
 273  1173.07
 274  1162.867
 275  1163.039
 276  1149.909
 277  1103.245
 278  1145.077
 279  1108.914
 280  1031.474
 281  1028.687
 282  1114.751
 283  1188.421
 284  989.5532
 285  825.1842
 286  980.8298
 287  1148.169
 288  1227.158
 289  1149.261
 290  1101.433
 291  1077.717
 292  1121.855
 293  1250.064
 294  1171.719
 295  1143.965
 296  1113.397
 297  1212.327
 298  1098.408
 299  1044.251
 300  967.8672
 301  889.4401
 302  924.6949
 303  1044.751
 304  1133.371
 305  1103.864
 306  1086.596
 307  1114.978
 308  1082.045
 309  1116.86
 310  1115.686
 311  1153.121
 312  1035.226
 313  1034.416
 314  1084.734
 315  1156.012
 316  1222.411
 317  1241.039
 318  1165.411
 319  1146.213
 320  1128.511
 321  1144.854
 322  1129.321
 323  1098.107
 324  1101.294
 325  947.3988
 326  900.9874
 327  958.3727
 328  1059.07
 329  1132.99
 330  1205.903
 331  1134.646
 332  1072.352
 333  1092.132
 334  1101.628
 335  1181.581
 336  1144.651
 337  1133.558
 338  1048.942
 339  1119.415
 340  1187.869
 341  1353.022
 342  1393.63
 343  1254.515
 344  1179.324
 345  1089.369
 346  1057.467
 347  1093.032
 348  1030.036
 349  1074.542
 350  1006.787
 351  1080.932
 352  1057.886
 353  939.541
 354  994.7637
 355  1025.72
 356  1125.752
 357  948.0165
 358  815.29
 359  782.1042
 360  937.767
 361  1012.054
 362  1036.822
 363  841.9612
 364  932.0699
 365  1027.87
 366  1059.276
 367  864.7998
 368  730.4985
 369  647.39
 370  798.1671
 371  950.9666
 372  1025.28
 373  1071.049
 374  1053.059
 375  1167.016
 376  1045.936
 377  818.0435
 378  701.7558
 379  923.7151
 380  1097.306
 381  1077.783
 382  942.9159
 383  928.8135
 384  855.166
 385  848.048
 386  840.2719
 387  921.7737
 388  844.8369
 389  877.6873
 390  841.4995
 391  797.8136
 392  868.0466
 393  1001.58
 394  1017.322
 395  983.716
 396  1011.079
 397  1070.954
 398  953.4805
 399  775.4517
 400  800.0059
 401  775.0434
 402  904.6323
 403  1067.03
 404  1251.479
 405  1150.17
 406  891.6869
 407  842.835
 408  908.9843
 409  897.7461
 410  956.8732
 411  842.1526
 412  858.5663
 413  817.361
 414  988.0704
 415  917.3853
 416  845.6077
 417  820.0734
 418  880.233
 419  838.7507
 420  793.127
 421  820.4536
 422  1082.498
 423  1199.025
 424  1306.856
 425  1167.128
 426  1081.496
 427  996.3337
 428  1001.821
 429  1069.812
 430  1089.408
 431  1038.611
 432  1049.595
 433  1033.342
 434  935.8118
 435  965.5242
 436  1018.383
 437  1091.459
 438  1067.368
 439  930.1284
 440  1009.4
 441  993.5662
 442  1050.933
 443  1062.349
 444  1195.753
 445  1138.315
 446  945.8302
 447  778.6731
 448  689.199
 449  769.78
 450  943.0065
 451  1133.997
 452  1119.605
 453  1114.172
 454  1207.199
 455  1146.957
 456  932.6616
 457  895.6038
 458  1095.048
 459  1260.251
 460  1230.377
 461  1086.366
 462  1005.647
 463  912.9216
 464  826.5413
 465  768.1915
 466  804.1606
 467  973.059
 468  1169.811
 469  1223.197
 470  1148.36
 471  940.8474
 472  1005.572
 473  1157.584
 474  1200.418
 475  1266.205
 476  1171.216
 477  1157.52
 478  997.1094
 479  959.6124
 480  999.6946
 481  1102.585
 482  1159.229
 483  1194.655
 484  1075.016
 485  1077.667
 486  1061.161
 487  959.3575
 488  1034.979
 489  1058.556
 490  1111.588
 491  928.3076
 492  884.063
 493  919.5152
 494  1005.352
 495  1032.684
 496  988.1761
 497  946.8361
 498  947.3131
 499  1066.518
 500  1082.337
 501  1089.496
 502  1016.048
 503  986.9849
 504  1037.598
 505  987.7577
 506  876.8125
 507  798.435
 508  803.5566
 509  812.7507
 510  796.897
 511  768.5298
 512  898.5046
 513  907.197
 514  964.5857
 515  925.2312
 516  997.8075
 517  740.3096
 518  786.4467
 519  823.5876
 520  857.5616
 521  650.6537
 522  599.5275
 523  845.5672
 524  1008.142
 525  948.0377
 526  889.1089
 527  946.4474
 528  1076.67
 529  1091.116
 530  1034.373
 531  934.8923
 532  868.6176
 533  829.2851
 534  908.0253
 535  817.8776
 536  741.4948
 537  779.3655
 538  940.0182
 539  1036.055
 540  1040.863
 541  994.0105
 542  988.575
 543  992.6801
 544  1037.865
 545  1072.587
 546  1106.599
 547  1142.11
 548  1100.407
 549  1102.94
 550  1043.144
 551  1086.103
 552  1118.048
 553  1105.963
 554  955.2906
 555  861.0999
 556  755.46
 557  805.9327
 558  779.1656
 559  840.9144
 560  764.1665
 561  742.9803
 562  687.1583
 563  712.463
 564  677.4297
 565  784.8171
 566  841.573
 567  993.1986
 568  1067.764
 569  1179.18
 570  1189.058
 571  1098.628
 572  1129.5
 573  1231.38
 574  1245.987
 575  1137.618
 576  1065.859
 577  1015.68
 578  897.3173
 579  899.0708
 580  1032.812
 581  1083.025
 582  1011.968
 583  973.0888
 584  1083.188
 585  1252.688
 586  1189.56
 587  1158.703
 588  1092.433
 589  1026.539
 590  1016.419
 591  993.1432
 592  1108.956
 593  1241.651
 594  1273.815
 595  1122.783
 596  1089.841
 597  1061.205
 598  1142.961
 599  1136.015
 600  1170.952
 601  1186.882
 602  1226.189
 603  1139.914
 604  1087.224
 605  1053.433
 606  1060.754
 607  959.7353
 608  913.2957
 609  943.2338
 610  1019.617
 611  1057.334
 612  1213.49
 613  1088.877
 614  1017.668
 615  882.584
 616  830.5209
 617  915.1435
 618  1055.836
 619  1171.677
 620  1115.239
 621  1141.494
 622  1112.325
 623  1190.581
 624  1283.053
 625  1475.488
 626  1500.909
 627  1576.985
 628  1488.354
 629  1458.773
 630  1221.713
 631  1188.976
 632  1082.822
 633  1047.819
 634  957.8721
 635  882.3983
 636  889.585
 637  935.3727
 638  814.9966
 639  946.8799
 640  884.0456
 641  1041.609
 642  1052.082
 643  1147.841
 644  1184.713
 645  1121.593
 646  1041.76
 647  830.1558
 648  629.4732
 649  592.2874
 650  691.3756
 651  884.9629
 652  1026.578
 653  1017.357
 654  732.5899
 655  658.2578
 656  709.9307
 657  987.0774
 658  1123.865
 659  1088.506
 660  1028.478
 661  1114.603
 662  1107.378
 663  983.0747
 664  860.4789
 665  850.1689
 666  858.0735
 667  835.3952
 668  744.9257
 669  752.2562
 670  588.0798
 671  546.4375
 672  532.8124
 673  489.7607
 674  649.6694
 675  782.838
 676  1056.638
 677  1103.985
 678  837.5848
 679  666.7698
 680  557.8376
 681  720.5965
 682  860.5347
 683  849.486
 684  824.4827
 685  818.6623
 686  860.886
 687  815.3717
 688  717.5718
 689  652.8923
 690  741.8755
 691  832.2144
 692  964.0919
 693  900.9413
 694  841.4495
 695  782.27
 696  888.0061
 697  855.1263
 698  887.0143
 699  884.2093
 700  839.1611
 701  850.9905
 702  739.4923
 703  900.7427
 704  998.6863
 705  989.6162
 706  911.5396
 707  906.3389
 708  971.899
 709  1045.972
 710  1009.526
 711  1092.118
 712  1045.25
 713  998.9794
 714  968.2379
 715  978.1751
 716  931.7189
 717  940.5449
 718  933.359
 719  1039.832
 720  980.7628
 721  953.6782
 722  945.3409
 723  1060.888
 724  1146.795
 725  1235.048
 726  1111.916
 727  1104.332
 728  964.5161
 729  1112.975
 730  1111.103
 731  1157.018
 732  1135.792
 733  1093.039
 734  1015.279
 735  968.0511
 736  947.1203
 737  973.4594
 738  945.8094
 739  937.3124
 740  903.5977
 741  877.9651
 742  907.2477
 743  983.3553
 744  1002.993
 745  947.9723
 746  961.4424
 747  1002.838
 748  924.4249
 749  885.4114
 750  795.1063
 751  802.0449
 752  726.0793
 753  688.8804
 754  667.4331
 755  728.3253
 756  731.6533
 757  665.7164
 758  606.993
 759  649.095
 760  786.4337
 761  902.6349
 762  990.3686
 763  1014.517
 764  1093.513
 765  1157.19
 766  1051.08
 767  726.0388
 768  548.1033
 769  502.0908
 770  677.7358
 771  763.7413
 772  790.0914
 773  741.4542
 774  763.9109
 775  755.2629
 776  828.0775
 777  964.581
 778  1010.876
 779  1073.678
 780  994.178
 781  932.129
 782  791.9818
 783  681.4951
 784  788.3448
 785  782.4164
 786  729.5758
 787  660.1929
 788  669.7318
 789  816.6334
 790  788.2017
 791  772.7319
 792  909.9124
 793  950.4738
 794  1030.085
 795  868.5161
 796  923.5135
 797  967.3876
 798  973.0686
 799  918.7918
 800  892.1755
 801  1038.764
 802  1059.903
 803  1091.652
 804  1061.075
 805  1040.719
 806  925.1699
 807  919.7013
 808  876.9929
 809  933.8652
 810  885.1474
 811  1055.216
 812  1118.004
 813  1119.911
 814  987.2449
 815  988.6726
 816  799.724
 817  859.6702
 818  887.1987
 819  1135.689
 820  1102.559
 821  1083.024
 822  1035.29
 823  1101.343
 824  1199.927
 825  1263.721
 826  1290.726
 827  1303.457
 828  1203.117
 829  1246.773
 830  1302.528
 831  1257.865
 832  1197.923
 833  1252.73
 834  1281.278
 835  1144.006
 836  1066.541
 837  1035.173
 838  917.9464
 839  952.286
 840  1048.2
 841  1013.981
 842  963.6156
 843  975.6652
 844  1039.236
 845  1016.175
 846  1013.437
 847  1058.659
 848  1173.768
 849  1121.83
 850  1105.449
 851  953.212
 852  1040.309
 853  848.6603
 854  851.1905
 855  694.4306
 856  774.4812
 857  765.335
 858  789.084
 859  796.8756
 860  776.8909
 861  760.1923
 862  793.5292
 863  951.898
 864  975.712
 865  955.5318
 866  933.8909
 867  955.8099
 868  870.8971
 869  870.6562
 870  946.9381
 871  928.1658
 872  962.6645
 873  966.9578
 874  911.8078
 875  953.5753
 876  1039.786
 877  1104.407
 878  1123.792
 879  1138.2
 880  1157.091
 881  994.5974
 882  968.0658
 883  1123.897
 884  1293.47
 885  1268.838
 886  1100.92
 887  986.8732
 888  1006.532
 889  1000.851
 890  887.3177
 891  845.1424
 892  945.2108
 893  1005.173
 894  944.5912
 895  853.3926
 896  754.4623
 897  757.0873
 898  720.9995
 899  732.3029
 900  697.1154
 901  731.6277
 902  905.709
 903  1045.927
 904  937.6966
 905  858.2458
 906  865.939
 907  882.1944
 908  1001.684
 909  1044.73
 910  1122.358
 911  1050.749
 912  1159.086
 913  1121.063
 914  1067.64
 915  972.6808
 916  984.8877
 917  948.9883
 918  890.5721
 919  986.8459
 920  1005.938
 921  982.4538
 922  878.382
 923  888.2815
 924  1078.699
 925  1033.852
 926  924.3072
 927  807.1732
 928  862.55
 929  835.0985
 930  809.1946
 931  899.6611
 932  1109.118
 933  1105.253
 934  993.3777
 935  890.3127
 936  953.3412
 937  849.2171
 938  800.8832
 939  853.7921
 940  1022.474
 941  1036.349
 942  998.3518
 943  863.2655
 944  885.5947
 945  872.6697
 946  977.9005
 947  991.9387
 948  1183.878
 949  1235.532
 950  1232.88
 951  1109.478
 952  1056.227
 953  1151.924
 954  1108.932
 955  1065.151
 956  1000.765
 957  1027.819
 958  975.4139
 959  863.0739
 960  770.6411
 961  704.1379
 962  698.1473
 963  785.7021
 964  953.3766
 965  909.1516
 966  906.7133
 967  821.8007
 968  926.1082
 969  961.6561
 970  1062.06
 971  961.387
 972  841.5895
 973  857.8138
 974  867.9874
 975  832.5186
 976  767.1348
 977  691.0706
 978  574.2159
 979  530.9282
 980  626.1292
 981  769.2975
 982  809.4247
 983  825.1652
 984  848.3151
 985  833.8746
 986  942.3191
 987  956.1157
 988  1075.001
 989  1077.096
 990  1033.31
 991  1000.521
 992  933.5577
 993  1008.869
 994  956.0947
 995  981.397
 996  1042.557
 997  1087.848
 998  933.0926
 999  834.0635
1000  875.8026
1001  1104.563
1002  1067.886
1003  1050.655
1004  1004.293
1005  1087.777
1006  972.8372
1007  815.0864
1008  844.6047
1009  873.5165
1010  1013.66
1011  1052.343
1012  918.4296
1013  874.171
1014  774.6542
1015  798.6812
1016  821.6857
1017  888.1204
1018  946.6641
1019  897.8882
1020  844.4023
1021  861.2739
1022  880.6738
1023  903.7302
