# Input file       =  1196880352.139073_cleaned.dat
# Candidate        =  PSR_0332+5434
# Telescope        =  AR
# Epoch_topo       =  58096.782073368900
# Epoch_bary       =  N/A
# T_sample         =  0.002
# Data Folded      =  7340032
# Data Avg         =  0.130538880473718
# Data StdDev      =  3.80878955009476 
# Profile Bins     =  1024
# Profile Avg      =  936.176587861431 
# Profile StdDev   =  322.467518263434 
# Reduced chi-sqr  =  0.500
# Prob(Noise)      <  1   (~0.0 sigma)
# P_topo (ms)      =  714.534676649354  +/- 0.00128
# P'_topo (s/s)    =  -0                +/- 6.74e-10
# P''_topo (s/s^2) =  0                 +/- 2.98e-13
# P_bary (ms)      =  N/A
# P'_bary (s/s)    =  N/A
# P''_bary (s/s^2) =  N/A
# P_orb (s)        =  N/A
# asin(i)/c (s)    =  N/A
# eccentricity     =  N/A
# w (rad)          =  N/A
# T_peri           =  N/A
######################################################
   0  962.7292
   1  909.91
   2  894.8639
   3  820.7286
   4  822.5797
   5  750.274
   6  878.5997
   7  1045.213
   8  1100.476
   9  851.8028
  10  762.5614
  11  839.5729
  12  949.8035
  13  973.7276
  14  1020.957
  15  994.9596
  16  905.5905
  17  787.0444
  18  874.9244
  19  920.8553
  20  895.5413
  21  891.7432
  22  819.8779
  23  850.2111
  24  840.8858
  25  902.6042
  26  904.5623
  27  970.8536
  28  925.2245
  29  877.6276
  30  815.7185
  31  854.5585
  32  829.5591
  33  780.7194
  34  718.4363
  35  707.7598
  36  711.6307
  37  751.8608
  38  786.9994
  39  759.6475
  40  773.0248
  41  804.6201
  42  866.6557
  43  945.011
  44  957.8295
  45  1024.66
  46  999.2029
  47  1026.813
  48  837.782
  49  800.597
  50  686.2023
  51  653.4081
  52  655.6887
  53  609.6058
  54  704.1633
  55  730.0287
  56  888.6061
  57  1021.452
  58  1001.121
  59  902.2289
  60  889.5078
  61  864.1743
  62  911.8355
  63  915.2296
  64  959.7332
  65  902.9854
  66  990.0779
  67  1011.763
  68  946.307
  69  852.8204
  70  845.3111
  71  819.7388
  72  834.0414
  73  742.45
  74  799.4444
  75  876.0784
  76  907.7872
  77  849.3955
  78  824.3625
  79  799.8116
  80  796.2117
  81  811.7853
  82  857.0952
  83  822.5549
  84  859.2735
  85  843.8571
  86  935.4407
  87  948.1554
  88  1020.652
  89  890.3035
  90  860.5731
  91  806.9313
  92  815.0861
  93  769.8114
  94  741.424
  95  720.4105
  96  693.6172
  97  717.1911
  98  599.2038
  99  615.7814
 100  754.5414
 101  955.299
 102  871.9761
 103  757.063
 104  769.1369
 105  912.0247
 106  1034.074
 107  1044.412
 108  1028.129
 109  963.8735
 110  949.4835
 111  1022.82
 112  1020.771
 113  929.2411
 114  823.1979
 115  806.7617
 116  848.3455
 117  928.515
 118  801.3661
 119  767.2376
 120  1014.797
 121  1210.572
 122  1253.325
 123  1075.554
 124  1079.73
 125  1005.37
 126  1068.502
 127  1064.405
 128  1105.01
 129  1047.79
 130  1013.628
 131  1000.811
 132  1019.402
 133  1038.71
 134  1119.618
 135  1182.578
 136  1121.147
 137  1034.974
 138  979.7367
 139  1008.882
 140  965.545
 141  926.4758
 142  895.8618
 143  974.4473
 144  1008.327
 145  1115.562
 146  1069.425
 147  1015.249
 148  830.802
 149  827.4202
 150  812.0953
 151  942.6808
 152  1008.567
 153  1075.94
 154  1111.245
 155  1039.027
 156  906.2076
 157  817.6496
 158  870.9026
 159  919.462
 160  932.9385
 161  958.1402
 162  903.7003
 163  916.0388
 164  914.9858
 165  887.3923
 166  875.2005
 167  804.8006
 168  916.8131
 169  928.2822
 170  919.1243
 171  827.1904
 172  922.1575
 173  1008.338
 174  1046.44
 175  931.7551
 176  906.204
 177  1026.749
 178  979.1368
 179  955.07
 180  697.6215
 181  643.5311
 182  672.0507
 183  827.7313
 184  810.0949
 185  859.8694
 186  888.3151
 187  839.8907
 188  775.6339
 189  719.3692
 190  875.4388
 191  847.3608
 192  836.0544
 193  841.4842
 194  961.8538
 195  962.7255
 196  821.1418
 197  667.9216
 198  665.3619
 199  691.1442
 200  760.7173
 201  870.8952
 202  892.8972
 203  811.2302
 204  688.1764
 205  753.7151
 206  903.2032
 207  936.3737
 208  909.0642
 209  900.8025
 210  946.0701
 211  838.982
 212  715.7716
 213  588.7488
 214  693.0824
 215  758.9815
 216  823.447
 217  849.0903
 218  840.0105
 219  870.4698
 220  923.8282
 221  944.243
 222  903.8765
 223  857.7736
 224  847.9803
 225  850.6024
 226  789.3812
 227  705.6465
 228  699.2076
 229  707.1176
 230  655.9429
 231  788.8514
 232  821.5733
 233  869.5466
 234  835.3671
 235  826.9402
 236  793.0427
 237  858.7053
 238  903.2509
 239  940.283
 240  944.5459
 241  926.4295
 242  1002.059
 243  966.0165
 244  952.7354
 245  914.6356
 246  934.114
 247  862.9391
 248  879.1702
 249  788.7258
 250  859.0839
 251  870.5802
 252  897.2827
 253  879.6152
 254  825.4457
 255  912.5817
 256  928.7341
 257  1015.302
 258  1035.642
 259  1058.23
 260  1120.521
 261  1052.408
 262  938.5902
 263  915.069
 264  971.0736
 265  1014.398
 266  950.1254
 267  932.2783
 268  876.159
 269  793.9335
 270  719.0368
 271  672.98
 272  718.3241
 273  799.5651
 274  861.3752
 275  843.584
 276  905.7099
 277  855.4514
 278  840.5206
 279  805.0154
 280  840.4563
 281  797.0209
 282  720.2476
 283  815.8239
 284  936.873
 285  1038.467
 286  1061.928
 287  1047.064
 288  1013.213
 289  973.9174
 290  852.8431
 291  784.679
 292  855.8624
 293  961.2455
 294  892.9604
 295  746.6302
 296  764.9328
 297  882.7905
 298  923.5665
 299  912.443
 300  862.2107
 301  949.7349
 302  851.9184
 303  880.03
 304  728.4625
 305  727.47
 306  767.5985
 307  866.0125
 308  933.35
 309  853.6776
 310  746.7127
 311  615.0711
 312  648.4983
 313  771.689
 314  1062.096
 315  1129.208
 316  953.763
 317  815.3535
 318  724.4501
 319  656.6656
 320  679.5652
 321  692.6041
 322  781.9522
 323  805.0961
 324  923.27
 325  1033.532
 326  906.6152
 327  831.0033
 328  864.8625
 329  881.1177
 330  776.1443
 331  705.6996
 332  776.1882
 333  965.4323
 334  1111.624
 335  1056.255
 336  909.546
 337  808.6569
 338  786.2087
 339  810.634
 340  755.9662
 341  712.3047
 342  705.6887
 343  822.0709
 344  954.1025
 345  954.6131
 346  998.677
 347  978.4153
 348  1023.84
 349  1023.297
 350  999.4459
 351  889.5948
 352  818.5143
 353  766.8342
 354  802.0385
 355  779.0131
 356  842.8435
 357  899.4947
 358  861.2086
 359  785.7247
 360  784.7183
 361  814.0704
 362  999.7662
 363  1086.246
 364  1231.376
 365  1263.046
 366  1252.483
 367  1196.297
 368  1124.232
 369  1046.89
 370  953.3088
 371  1030.764
 372  1140.509
 373  1100.61
 374  994.1511
 375  947.2083
 376  971.1064
 377  911.1557
 378  843.1249
 379  873.54
 380  1039.571
 381  1114.839
 382  1114.407
 383  1188.645
 384  1135.618
 385  1030.584
 386  1001.066
 387  1063.238
 388  963.8369
 389  765.3774
 390  711.6559
 391  829.7606
 392  768.3143
 393  759.2624
 394  812.1025
 395  892.0588
 396  863.5217
 397  815.2639
 398  921.5912
 399  1037.244
 400  1099.34
 401  1016.26
 402  925.6104
 403  869.1848
 404  780.9893
 405  869.5815
 406  934.0526
 407  916.1923
 408  947.2556
 409  990.4456
 410  1024.53
 411  1121.653
 412  1067.293
 413  1035.834
 414  952.8359
 415  958.5828
 416  930.0496
 417  914.3804
 418  981.7217
 419  1078.582
 420  1001.29
 421  1004.388
 422  1062.839
 423  1065.541
 424  877.6518
 425  816.1887
 426  910.7133
 427  978.4136
 428  976.2945
 429  865.9441
 430  792.4525
 431  829.2227
 432  959.4449
 433  1016.583
 434  1049.496
 435  975.9598
 436  1018.043
 437  1004.586
 438  942.1249
 439  883.6838
 440  808.0267
 441  793.6026
 442  821.8409
 443  892.2875
 444  854.3405
 445  847.1263
 446  835.9762
 447  1001.705
 448  1116.939
 449  1103.314
 450  1053.003
 451  1019.315
 452  927.4114
 453  794.0081
 454  788.788
 455  897.4366
 456  930.1337
 457  1025.933
 458  1079.844
 459  966.5938
 460  982.5485
 461  1074.34
 462  1188.701
 463  1062.145
 464  1019.851
 465  984.672
 466  942.8865
 467  811.978
 468  807.7541
 469  842.1121
 470  935.1813
 471  1004.652
 472  1164.915
 473  1207.615
 474  1089.987
 475  961.5176
 476  974.1141
 477  1093.317
 478  1119.126
 479  1072.381
 480  997.7115
 481  910.1204
 482  930.9401
 483  983.7332
 484  1112.867
 485  1116.731
 486  1053.486
 487  924.6907
 488  895.116
 489  798.6426
 490  732.5675
 491  703.7693
 492  697.3775
 493  722.3586
 494  681.3671
 495  812.2711
 496  966.0106
 497  1167.047
 498  1113.632
 499  1134.963
 500  991.6589
 501  844.7844
 502  836.7676
 503  910.1016
 504  1033.604
 505  1056.241
 506  1025.149
 507  835.1249
 508  850.6155
 509  965.0272
 510  1140.631
 511  1133.426
 512  1134.547
 513  1031.185
 514  1030.592
 515  946.4329
 516  915.4493
 517  893.3335
 518  992.5043
 519  914.3612
 520  839.1375
 521  755.1188
 522  852.8832
 523  902.0515
 524  978.3753
 525  981.4955
 526  976.896
 527  1008.792
 528  1026.058
 529  1019.627
 530  942.9974
 531  956.1867
 532  928.0835
 533  949.5192
 534  945.6543
 535  994.0551
 536  1046.574
 537  1116.297
 538  1118.065
 539  1026.524
 540  898.0014
 541  848.1122
 542  867.4786
 543  897.551
 544  999.707
 545  1057.261
 546  1084.796
 547  1078.391
 548  1017.253
 549  1007.575
 550  875.7132
 551  866.5888
 552  818.9639
 553  823.0931
 554  847.7405
 555  786.8266
 556  850.9083
 557  912.4146
 558  893.1178
 559  867.2991
 560  893.7485
 561  901.9894
 562  965.2098
 563  1026.529
 564  1053.381
 565  1000.402
 566  854.8582
 567  804.9933
 568  815.1279
 569  775.0672
 570  679.7039
 571  734.0527
 572  764.3552
 573  835.6647
 574  931.7145
 575  1036.466
 576  1009.023
 577  891.8819
 578  794.1459
 579  803.3867
 580  796.5126
 581  822.1351
 582  920.8683
 583  894.9005
 584  856.0427
 585  775.3834
 586  801.0419
 587  861.873
 588  910.0586
 589  892.8738
 590  843.8035
 591  805.4139
 592  878.0648
 593  899.4582
 594  1038.56
 595  956.7838
 596  1025.209
 597  975.4879
 598  998.0535
 599  940.5479
 600  860.9922
 601  864.522
 602  899.5718
 603  945.3849
 604  945.1813
 605  1034.828
 606  1148.051
 607  1026.501
 608  988.2778
 609  1012.554
 610  1081.001
 611  1021.34
 612  899.9836
 613  892.5314
 614  863.9682
 615  881.017
 616  991.0874
 617  1086.852
 618  1144.18
 619  1190.867
 620  1229.045
 621  1303.076
 622  1426.121
 623  1393.88
 624  1365.1
 625  1439.474
 626  1504.949
 627  1522.195
 628  1367.787
 629  1433.757
 630  1343.279
 631  1226.783
 632  986.825
 633  853.9899
 634  916.9243
 635  934.5698
 636  911.4928
 637  811.6085
 638  885.4526
 639  930.0074
 640  993.8309
 641  961.8458
 642  1005.877
 643  955.1637
 644  944.2913
 645  892.5494
 646  934.5702
 647  1012.976
 648  1041.224
 649  1018.599
 650  942.3166
 651  933.5733
 652  945.1734
 653  977.1142
 654  882.4261
 655  798.1387
 656  831.5237
 657  934.9032
 658  950.2648
 659  845.1684
 660  727.4709
 661  820.6753
 662  878.941
 663  914.2111
 664  833.6718
 665  902.3207
 666  909.7009
 667  940.0305
 668  1036.5
 669  1099.291
 670  1074.936
 671  999.8217
 672  952.7393
 673  910.3113
 674  879.0264
 675  955.6078
 676  989.2733
 677  1098.757
 678  1097.809
 679  1120.866
 680  970.8431
 681  902.8196
 682  1020.565
 683  1045.212
 684  876.1892
 685  832.3378
 686  1022.16
 687  1138.496
 688  1079.62
 689  966.3583
 690  996.9598
 691  1021.91
 692  1051.7
 693  1060.719
 694  1024.507
 695  1017.443
 696  1021.79
 697  1180.229
 698  1165.668
 699  1068.161
 700  981.8004
 701  949.3969
 702  938.898
 703  934.1539
 704  977.8239
 705  1062.763
 706  981.1077
 707  866.1586
 708  836.5948
 709  855.9706
 710  936.4528
 711  1011.344
 712  1109.886
 713  1163.298
 714  1074.215
 715  945.67
 716  918.261
 717  842.8757
 718  855.6649
 719  831.9894
 720  839.8571
 721  964.0488
 722  1118.813
 723  1206.198
 724  1133.107
 725  1196.555
 726  1191.64
 727  1140.637
 728  1169.409
 729  1133.967
 730  1118.998
 731  970.6866
 732  903.629
 733  895.2297
 734  978.1747
 735  1124.07
 736  1140.062
 737  1101.328
 738  929.1056
 739  849.2394
 740  829.1497
 741  1040.722
 742  1092.476
 743  1112.474
 744  1034.357
 745  1110.394
 746  1028.011
 747  924.8597
 748  827.6152
 749  896.782
 750  960.9626
 751  927.623
 752  899.444
 753  950.7071
 754  946.7931
 755  767.9125
 756  686.9011
 757  748.6008
 758  950.2881
 759  1121.353
 760  1135.82
 761  1072.467
 762  1044.524
 763  1046.587
 764  925.926
 765  811.1363
 766  830.403
 767  862.3944
 768  942.7417
 769  989.8013
 770  1102.476
 771  960.5831
 772  791.2794
 773  748.9915
 774  879.9931
 775  944.4406
 776  950.5099
 777  974.3227
 778  1122.522
 779  1163.33
 780  1204.884
 781  1143.082
 782  1064.949
 783  998.8641
 784  936.5284
 785  1031.477
 786  950.6379
 787  939.7552
 788  929.152
 789  953.8398
 790  1032.654
 791  977.7417
 792  973.1538
 793  912.9949
 794  855.3336
 795  834.7162
 796  877.8969
 797  920.7235
 798  828.371
 799  821.234
 800  832.2167
 801  931.4981
 802  899.2662
 803  871.6259
 804  902.1136
 805  1052.348
 806  1014.321
 807  1062.341
 808  1045.036
 809  1034.617
 810  995.3963
 811  995.0978
 812  1126.965
 813  1187.206
 814  1231.788
 815  1081.12
 816  1051.409
 817  1053.456
 818  1069.718
 819  1113.942
 820  1105.062
 821  1142.893
 822  1070.342
 823  1018.145
 824  1017.497
 825  1016.786
 826  1002.68
 827  1034.133
 828  1116.786
 829  1141.473
 830  949.5384
 831  944.1606
 832  950.4001
 833  1140.651
 834  1061.498
 835  1036.271
 836  1034.979
 837  975.396
 838  985.406
 839  841.4471
 840  817.1654
 841  758.3071
 842  767.2958
 843  793.4616
 844  777.5167
 845  795.8558
 846  951.7607
 847  996.3721
 848  903.5552
 849  734.6785
 850  727.8492
 851  907.0952
 852  1022.346
 853  980.6763
 854  877.027
 855  761.2324
 856  805.501
 857  875.7292
 858  898.8898
 859  891.6569
 860  963.8248
 861  1029.896
 862  1074.815
 863  1059.335
 864  964.2104
 865  991.2698
 866  871.2513
 867  870.7904
 868  854.916
 869  892.5203
 870  975.1599
 871  876.0154
 872  851.3442
 873  894.2906
 874  948.6774
 875  1033.141
 876  1003.637
 877  979.001
 878  926.0572
 879  931.0788
 880  964.5695
 881  1036.906
 882  1034.807
 883  1084.518
 884  939.0349
 885  905.8745
 886  811.8361
 887  903.6249
 888  924.5269
 889  873.32
 890  820.3511
 891  858.0516
 892  900.4597
 893  949.4406
 894  923.0177
 895  805.259
 896  798.8035
 897  927.5132
 898  1073.612
 899  1097.763
 900  1039.63
 901  978.1828
 902  1004.762
 903  990.1046
 904  1015.627
 905  984.5104
 906  998.7109
 907  1027.88
 908  1050.043
 909  1018.002
 910  1011.922
 911  1004.03
 912  960.8776
 913  1070.516
 914  1107.41
 915  1045.107
 916  1055.362
 917  1097.632
 918  1027.897
 919  877.5482
 920  878.8154
 921  1031.003
 922  1052.292
 923  986.2231
 924  1054.777
 925  1019.926
 926  1034.995
 927  963.888
 928  929.6431
 929  987.5414
 930  950.1977
 931  913.9854
 932  850.1383
 933  874.129
 934  904.6785
 935  981.5955
 936  1012.907
 937  989.8475
 938  897.3127
 939  901.6769
 940  882.7219
 941  935.8568
 942  944.4675
 943  948.751
 944  970.3275
 945  1143.562
 946  1142.901
 947  1055.84
 948  990.3727
 949  1070.878
 950  1073.698
 951  975.6569
 952  876.0513
 953  971.9724
 954  1104.459
 955  1081.838
 956  1007.531
 957  838.2269
 958  948.3394
 959  1127.93
 960  1274.464
 961  1070.79
 962  974.9171
 963  988.587
 964  1127.837
 965  1020.571
 966  929.7496
 967  885.556
 968  899.9827
 969  843.894
 970  840.4189
 971  862.6403
 972  901.9073
 973  954.9283
 974  977.1796
 975  1006.036
 976  942.3109
 977  976.9202
 978  931.4681
 979  961.6201
 980  938.3287
 981  1029.43
 982  1035.371
 983  965.158
 984  954.7907
 985  981.9793
 986  1001.765
 987  919.1335
 988  831.9054
 989  909.7553
 990  964.1597
 991  1017.516
 992  951.4885
 993  1003.58
 994  910.1061
 995  922.8883
 996  881.3649
 997  993.8632
 998  961.4612
 999  969.9666
1000  914.0825
1001  925.3665
1002  917.0931
1003  888.8629
1004  873.9218
1005  826.9205
1006  829.16
1007  899.1327
1008  922.7043
1009  881.0073
1010  913.5295
1011  917.0685
1012  885.4884
1013  929.2966
1014  944.5123
1015  952.2317
1016  821.0657
1017  864.3431
1018  935.2303
1019  973.3184
1020  869.5925
1021  793.9508
1022  804.289
1023  859.2309
