# Input file       =  1196621800.117551_cleaned.dat
# Candidate        =  PSR_0332+5434
# Telescope        =  AR
# Epoch_topo       =  58093.789573119808
# Epoch_bary       =  N/A
# T_sample         =  0.002
# Data Folded      =  7340032
# Data Avg         =  0.158899631090338
# Data StdDev      =  3.91370618080456 
# Profile Bins     =  1024
# Profile Avg      =  1138.9708183743  
# Profile StdDev   =  331.350184287528 
# Reduced chi-sqr  =  0.453
# Prob(Noise)      <  1   (~0.0 sigma)
# P_topo (ms)      =  714.531624104782  +/- 0.000713
# P'_topo (s/s)    =  -0                +/- 3.76e-10
# P''_topo (s/s^2) =  0                 +/- 1.66e-13
# P_bary (ms)      =  N/A
# P'_bary (s/s)    =  N/A
# P''_bary (s/s^2) =  N/A
# P_orb (s)        =  N/A
# asin(i)/c (s)    =  N/A
# eccentricity     =  N/A
# w (rad)          =  N/A
# T_peri           =  N/A
######################################################
   0  975.3113
   1  922.113
   2  929.6531
   3  1006.737
   4  1065.528
   5  1108.752
   6  1142.968
   7  1165.624
   8  1110.321
   9  1013.148
  10  947.0955
  11  934.4614
  12  1091.217
  13  1118.914
  14  1212.95
  15  1102.901
  16  1021.458
  17  961.4379
  18  1067.943
  19  1123.731
  20  1102.868
  21  1140.158
  22  1134.847
  23  1230.262
  24  1197.057
  25  1254.841
  26  1267.272
  27  1145.445
  28  1124.265
  29  1124.777
  30  1277.876
  31  1291.608
  32  1261.089
  33  1254.402
  34  1311.984
  35  1375.505
  36  1275.656
  37  1225.256
  38  1202.665
  39  1190.623
  40  1200.57
  41  1250.795
  42  1256.525
  43  1240.488
  44  1248.383
  45  1327.237
  46  1299.359
  47  1279.139
  48  1253.947
  49  1231.191
  50  1220.048
  51  1175.419
  52  1212.878
  53  1264.591
  54  1194.722
  55  1120.568
  56  1088.325
  57  1120.351
  58  1082.911
  59  1024.712
  60  1077.192
  61  1101.232
  62  1148.606
  63  1169.83
  64  1243.514
  65  1294.351
  66  1179.96
  67  1111.123
  68  1106.881
  69  1163.28
  70  1147.653
  71  1213.519
  72  1272.216
  73  1381.029
  74  1382.823
  75  1339.873
  76  1268.382
  77  1205.627
  78  1225.527
  79  1252.442
  80  1252.177
  81  1189.008
  82  1162.344
  83  1179.721
  84  1223.152
  85  1237.382
  86  1265.958
  87  1239.365
  88  1259.966
  89  1216.362
  90  1223.161
  91  1155.18
  92  1179.883
  93  1124.922
  94  1171.784
  95  1149.707
  96  1246.799
  97  1260.627
  98  1268.062
  99  1214.199
 100  1095.751
 101  1062.726
 102  1059.363
 103  1109.852
 104  1087.542
 105  1041.324
 106  1178.972
 107  1168.271
 108  1155.363
 109  1139.754
 110  1018.199
 111  977.1625
 112  961.8832
 113  1059.922
 114  1131.171
 115  1160.961
 116  1248.72
 117  1254.344
 118  1290.571
 119  1229.925
 120  1237.689
 121  1183.74
 122  1157.799
 123  1150.555
 124  1115.688
 125  1153.915
 126  1040.367
 127  1101.882
 128  1125.676
 129  1228.998
 130  1252.299
 131  1360.656
 132  1397.071
 133  1300.825
 134  1235.057
 135  1230.414
 136  1246.524
 137  1305.779
 138  1305.738
 139  1398.189
 140  1291.16
 141  1290.498
 142  1201.591
 143  1190.141
 144  1171.611
 145  1264.958
 146  1277.051
 147  1340.441
 148  1335.24
 149  1377.057
 150  1345.667
 151  1324.502
 152  1273.471
 153  1343.139
 154  1402.951
 155  1390.562
 156  1310.603
 157  1239.608
 158  1294.596
 159  1336.437
 160  1411.797
 161  1384.447
 162  1347.909
 163  1285.293
 164  1254.918
 165  1218.197
 166  1129.759
 167  1117.378
 168  1167.608
 169  1224.836
 170  1188.596
 171  1170.158
 172  1195.376
 173  1162.3
 174  1102.551
 175  1082.479
 176  1219.237
 177  1211.493
 178  1107.39
 179  1149.141
 180  1190.302
 181  1256.922
 182  1062.877
 183  1017.936
 184  1104.422
 185  1152.634
 186  1111.09
 187  1073.559
 188  1106.499
 189  1100.568
 190  1061.412
 191  1040.978
 192  1143.673
 193  1164.397
 194  1225.653
 195  1206.249
 196  1162.522
 197  1078.766
 198  1071.065
 199  1087.844
 200  1199.403
 201  1235.357
 202  1250.965
 203  1180.573
 204  1162.875
 205  1135.745
 206  1190.482
 207  1130.384
 208  1087.051
 209  908.7299
 210  903.586
 211  989.3007
 212  1090.594
 213  1055.467
 214  1126.466
 215  1102.788
 216  1118.221
 217  1145.702
 218  1156.493
 219  1199.96
 220  1149.027
 221  1207.109
 222  1250.304
 223  1173.311
 224  1173.112
 225  1191.38
 226  1158.751
 227  1169.5
 228  1147.481
 229  1220.461
 230  1174.692
 231  1129.638
 232  1241.528
 233  1311.334
 234  1410.37
 235  1429.647
 236  1424.655
 237  1247.851
 238  1108.875
 239  1073.787
 240  1059.065
 241  1106.115
 242  1095.598
 243  1149.995
 244  1115.388
 245  1112.239
 246  1076.244
 247  1002.769
 248  1023.112
 249  984.7538
 250  993.8965
 251  994.0295
 252  1091.958
 253  1018.939
 254  1007.05
 255  1028.552
 256  1137.703
 257  1021.239
 258  1006.453
 259  963.6008
 260  1079.455
 261  1106.745
 262  1029.901
 263  973.2515
 264  961.1895
 265  1034.437
 266  970.724
 267  1023.867
 268  1122.158
 269  1203.493
 270  1165.344
 271  1103.423
 272  1069.293
 273  1010.304
 274  1011.222
 275  1022.366
 276  1119.392
 277  1159.181
 278  1214.809
 279  1165.662
 280  1033.831
 281  987.4329
 282  988.5515
 283  1015.579
 284  1106.167
 285  1210.286
 286  1298.561
 287  1063.301
 288  888.14
 289  1000.898
 290  1168.254
 291  1240.864
 292  1258.424
 293  1289.645
 294  1273.745
 295  1167.863
 296  1157.935
 297  1134.146
 298  1141.614
 299  1140.164
 300  1149.744
 301  1178.762
 302  1251.375
 303  1286.559
 304  1260.866
 305  1250.606
 306  1321.118
 307  1378.247
 308  1306.736
 309  1127.63
 310  1112.018
 311  1169.509
 312  1144.037
 313  1253.872
 314  1342.968
 315  1359.67
 316  1263.2
 317  1151.787
 318  1171.127
 319  1023.385
 320  969.0187
 321  1024.478
 322  1099.779
 323  1087.093
 324  1059.699
 325  1114.114
 326  1123.85
 327  1134.013
 328  1214.941
 329  1336.207
 330  1262.684
 331  1260.283
 332  1381.771
 333  1387.713
 334  1369.475
 335  1297.902
 336  1277.418
 337  1180.89
 338  1170.698
 339  1154.963
 340  1165.457
 341  1206.992
 342  1348.355
 343  1339.609
 344  1224.237
 345  1105.462
 346  1166.826
 347  1068.634
 348  1135.235
 349  1215.534
 350  1217.513
 351  1187.273
 352  1169.541
 353  1210.041
 354  1182.775
 355  1056.415
 356  1022.871
 357  1074.385
 358  1176.09
 359  1156.002
 360  1071.049
 361  1072.35
 362  1077.495
 363  1001.474
 364  1011.804
 365  981.8937
 366  897.3816
 367  938.3209
 368  1003.713
 369  1077.354
 370  1103.691
 371  1069.193
 372  1216.065
 373  1121.689
 374  1061.166
 375  948.8013
 376  1053.821
 377  1085.744
 378  1171.423
 379  1228.265
 380  1281.056
 381  1244.618
 382  1151.786
 383  1086.94
 384  1116.081
 385  1143.507
 386  1128.715
 387  1002.664
 388  957.1053
 389  939.1516
 390  1047.573
 391  1081.265
 392  1064.492
 393  1085.927
 394  999.6997
 395  1046.747
 396  1182.625
 397  1297.142
 398  1223.792
 399  1072.573
 400  1058.32
 401  1113.368
 402  1136.973
 403  1045.184
 404  927.4777
 405  711.3012
 406  711.2781
 407  793.1648
 408  863.7023
 409  936.4966
 410  996.226
 411  1031.476
 412  1018.241
 413  900.7338
 414  967.5041
 415  1042.339
 416  1067.818
 417  1140.602
 418  1166.349
 419  1147.155
 420  1023.407
 421  991.974
 422  961.612
 423  991.2095
 424  1034.3
 425  1160.151
 426  1257.167
 427  1312.728
 428  1309.263
 429  1303.183
 430  1250.419
 431  1195.703
 432  1141.97
 433  1107.928
 434  1106.949
 435  1119.078
 436  1150.12
 437  1281.131
 438  1250.592
 439  1255.425
 440  1251.507
 441  1290.671
 442  1313.928
 443  1357.987
 444  1329.97
 445  1259.539
 446  1203.721
 447  1265.651
 448  1343.973
 449  1378.589
 450  1346.779
 451  1271.551
 452  1263.464
 453  1412.374
 454  1517.344
 455  1428.647
 456  1353.953
 457  1313.232
 458  1323.44
 459  1210.701
 460  1086.378
 461  1063.764
 462  1185.32
 463  1227.425
 464  1252.506
 465  1269.836
 466  1412.35
 467  1459.266
 468  1378.513
 469  1372.016
 470  1275.048
 471  1281.372
 472  1184.367
 473  1188.022
 474  1178.156
 475  1309.713
 476  1391.877
 477  1412.233
 478  1254.379
 479  1223.048
 480  1306.765
 481  1227.794
 482  1204.089
 483  1166.719
 484  1213.217
 485  1192.015
 486  1092.612
 487  1086.892
 488  1101.951
 489  1166.154
 490  1203.958
 491  1253.707
 492  1152.339
 493  1065.161
 494  1102.448
 495  1032.59
 496  908.6796
 497  900.6949
 498  1012.63
 499  1094.657
 500  1088.67
 501  1085.449
 502  1133.712
 503  1103.849
 504  1226.325
 505  1213.133
 506  1266.65
 507  1300.269
 508  1244.74
 509  1112.065
 510  1004.698
 511  966.6275
 512  933.3251
 513  937.1125
 514  947.4387
 515  1042.669
 516  1055.589
 517  1183.224
 518  1261.046
 519  1319.988
 520  1274.891
 521  1222.91
 522  1204.188
 523  1194.845
 524  1183.858
 525  1159.258
 526  1115.921
 527  1203.247
 528  1211.449
 529  1258.295
 530  1181.37
 531  1030.733
 532  963.2753
 533  1008.238
 534  1150.423
 535  1078.789
 536  1073.292
 537  1122.05
 538  1052.551
 539  962.579
 540  879.951
 541  812.2971
 542  784.5848
 543  837.9149
 544  962.0386
 545  987.229
 546  949.2012
 547  995.8312
 548  1086.04
 549  1096.934
 550  999.637
 551  950.3584
 552  1061.392
 553  1113.327
 554  1008.286
 555  962.7891
 556  1064.28
 557  1127.539
 558  1167.491
 559  1100.152
 560  1225.638
 561  1326.279
 562  1314.639
 563  1237.54
 564  1145.18
 565  1195.098
 566  1243.613
 567  1283.868
 568  1261.696
 569  1261.43
 570  1286.619
 571  1272.493
 572  1119.906
 573  1160.667
 574  1216.397
 575  1202.721
 576  1159.921
 577  1163.557
 578  1208.373
 579  1148.469
 580  1110.349
 581  1111.846
 582  1106.554
 583  1162.516
 584  1276.962
 585  1271.495
 586  1261.15
 587  1163.734
 588  1131.323
 589  1075.692
 590  1035.054
 591  1002.94
 592  1100.675
 593  1171.505
 594  1249.011
 595  1146.61
 596  1202.271
 597  1144.026
 598  1134.036
 599  1070.971
 600  1058.545
 601  1090.249
 602  1039.666
 603  970.1558
 604  951.5635
 605  984.5361
 606  1072.965
 607  1221.209
 608  1302.447
 609  1323.731
 610  1224.283
 611  1089.643
 612  1156.08
 613  1175.295
 614  1264.006
 615  1207.749
 616  1220.832
 617  1187.864
 618  1160.838
 619  1122.615
 620  1176.813
 621  1249.908
 622  1269.585
 623  1429.778
 624  1461.767
 625  1422.414
 626  1288.282
 627  1393.125
 628  1514.566
 629  1517.578
 630  1449.499
 631  1405.951
 632  1283.712
 633  1193.674
 634  1094.846
 635  1014.994
 636  944.248
 637  909.5645
 638  990.1946
 639  1028.644
 640  1057.403
 641  1138.362
 642  1192.794
 643  1244.83
 644  1112.469
 645  1000.056
 646  1111.338
 647  1185.592
 648  1288.069
 649  1336.98
 650  1329.038
 651  1262.912
 652  1151.868
 653  1267.047
 654  1283.682
 655  1250.135
 656  1218.657
 657  1228.747
 658  1266.871
 659  1277.119
 660  1170.246
 661  1123.218
 662  1131.545
 663  1243.291
 664  1206.285
 665  1223.721
 666  1158.42
 667  1169.021
 668  1239.848
 669  1259.454
 670  1152.182
 671  1092.234
 672  1062.748
 673  1083.275
 674  984.6854
 675  891.605
 676  890.3471
 677  765.312
 678  939.2249
 679  1036.087
 680  1266.967
 681  1174.225
 682  1116.193
 683  1199.547
 684  1147.492
 685  1206.429
 686  1237.78
 687  1235.349
 688  1192.089
 689  1150.535
 690  1190.617
 691  1152.642
 692  1200.798
 693  1232.489
 694  1264.749
 695  1274.355
 696  1278.748
 697  1183.665
 698  1119.631
 699  1053.253
 700  1039.628
 701  1010.769
 702  977.8372
 703  1002.308
 704  1118.506
 705  1155.088
 706  1119.452
 707  1144.159
 708  1251.239
 709  1319.237
 710  1258.197
 711  1203.123
 712  1156.256
 713  1174.464
 714  1188.455
 715  1088.022
 716  1142.297
 717  1131.952
 718  1138.711
 719  1080.095
 720  1105.924
 721  1169.056
 722  1290.788
 723  1303.365
 724  1248.611
 725  1134.257
 726  1047.6
 727  1017.655
 728  888.64
 729  1002.059
 730  1150.834
 731  1322.967
 732  1271.324
 733  1203.597
 734  1196.337
 735  1224.36
 736  1192.116
 737  1132.755
 738  1163.324
 739  1203.492
 740  1210.166
 741  1111.934
 742  999.4606
 743  1080.795
 744  1240.084
 745  1303.271
 746  1194.876
 747  1116.246
 748  1125.576
 749  1204.573
 750  1166.05
 751  1182.127
 752  1197.155
 753  1258.499
 754  1293.413
 755  1185.817
 756  1174.114
 757  1112.555
 758  1212.946
 759  1285.829
 760  1331.281
 761  1233.078
 762  1235.559
 763  1264.479
 764  1262.877
 765  1167.953
 766  993.0538
 767  933.3134
 768  956.0012
 769  1121.047
 770  1116.666
 771  1066.123
 772  1070.929
 773  1085.319
 774  1083.373
 775  1026.817
 776  1074.042
 777  988.8159
 778  1125.349
 779  1193.243
 780  1246.071
 781  1048.964
 782  915.8834
 783  861.2153
 784  941.5381
 785  935.6682
 786  1072.325
 787  1146.776
 788  1220.501
 789  1207.216
 790  1182.064
 791  1184.939
 792  1098.687
 793  919.554
 794  999.4788
 795  1116.005
 796  1142.339
 797  1068.97
 798  912.4808
 799  1020.44
 800  1057.335
 801  1137.162
 802  1109.201
 803  1046.673
 804  996.5135
 805  982.431
 806  1011.123
 807  1042.721
 808  1063.899
 809  1030.287
 810  1084.186
 811  1138.371
 812  1033.671
 813  1038.032
 814  965.7257
 815  1024.484
 816  1083.909
 817  1045.597
 818  997.2656
 819  871.7682
 820  1011.635
 821  1082.955
 822  955.6765
 823  890.4575
 824  862.486
 825  898.3519
 826  1013.998
 827  1065.622
 828  1068.318
 829  935.8206
 830  894.7963
 831  885.8625
 832  921.2957
 833  864.2679
 834  865.8184
 835  850.292
 836  801.2431
 837  917.7496
 838  922.9161
 839  895.7678
 840  778.1349
 841  865.8722
 842  1019.312
 843  1048.258
 844  1198.152
 845  1189.798
 846  1208.856
 847  1201.396
 848  1256.042
 849  1114.749
 850  958.2018
 851  979.5316
 852  993.4584
 853  1016.503
 854  968.4333
 855  995.6205
 856  1052.6
 857  1047.359
 858  1063.371
 859  1039.022
 860  1019.188
 861  901.5313
 862  922.095
 863  869.4207
 864  1021.392
 865  1155.406
 866  1185.456
 867  1097.754
 868  980.7834
 869  899.7252
 870  955.6461
 871  1042.41
 872  1134.519
 873  1139.865
 874  1091.485
 875  1134.277
 876  1105.14
 877  1115.951
 878  1122.82
 879  1108.468
 880  1190.436
 881  1215.687
 882  1243.164
 883  1240.439
 884  1291.979
 885  1240.905
 886  1205.036
 887  1214.257
 888  1248.123
 889  1270.011
 890  1235.757
 891  1182.941
 892  1118.759
 893  1114.15
 894  1067.783
 895  991.4669
 896  1064.425
 897  1070.044
 898  1122.607
 899  1163.331
 900  1228.079
 901  1224.501
 902  1186.116
 903  1071.177
 904  1063.102
 905  1094.334
 906  1172.74
 907  1271.773
 908  1266.278
 909  1321.174
 910  1191.706
 911  1134.434
 912  1185.016
 913  1169.84
 914  1225.599
 915  1117.999
 916  1119.03
 917  1178.201
 918  1241.703
 919  1256.384
 920  1141.235
 921  1155.048
 922  1143.728
 923  1175.971
 924  1053.323
 925  1001.486
 926  1009.632
 927  1138.161
 928  1114.657
 929  1082.121
 930  1082.417
 931  1135.787
 932  1083.957
 933  1100.528
 934  1016.682
 935  1129.896
 936  1107.882
 937  1132.286
 938  1057.955
 939  1029.985
 940  1026.053
 941  1131.408
 942  1198.446
 943  1256.666
 944  1162.766
 945  1150.474
 946  1082.529
 947  1125.314
 948  1161.37
 949  1132.64
 950  1020.079
 951  918.9651
 952  962.3681
 953  1046.019
 954  1105.868
 955  1035.198
 956  1069.759
 957  1050.328
 958  1112.732
 959  1176.701
 960  1174.583
 961  1214.442
 962  1085.838
 963  1174.094
 964  1122.89
 965  1171.2
 966  1140.985
 967  1087.231
 968  1128.334
 969  1220.407
 970  1256.439
 971  1204.427
 972  1106.612
 973  1015.359
 974  1069.974
 975  1156.271
 976  1127.057
 977  1126.713
 978  1152.99
 979  1307.487
 980  1278.341
 981  1128.884
 982  990.5833
 983  938.2842
 984  1016.292
 985  927.5479
 986  908.3149
 987  967.6175
 988  1004.506
 989  1083.246
 990  1169.136
 991  1184.255
 992  1172.802
 993  1103.626
 994  1131.421
 995  1034.488
 996  1044.777
 997  969.5781
 998  1042.784
 999  1061.552
1000  1091.359
1001  1062.569
1002  1031.335
1003  999.3558
1004  928.4441
1005  890.209
1006  840.2957
1007  873.9622
1008  924.9997
1009  1091.196
1010  1015.372
1011  1022.651
1012  997.7412
1013  1007.072
1014  1023.595
1015  1034.676
1016  1022.869
1017  1049.224
1018  1093.708
1019  1114.994
1020  1119.41
1021  1109.184
1022  1084.845
1023  1055.338
