# Input file       =  1196363886.122779_cleaned.dat
# Candidate        =  PSR_0332+5434
# Telescope        =  AR
# Epoch_topo       =  58090.804457439568
# Epoch_bary       =  N/A
# T_sample         =  0.002
# Data Folded      =  7340032
# Data Avg         =  0.157171387144315
# Data StdDev      =  4.33509736883639 
# Profile Bins     =  1024
# Profile Avg      =  1126.54411418596 
# Profile StdDev   =  367.026865510129 
# Reduced chi-sqr  =  0.666
# Prob(Noise)      <  1   (~0.0 sigma)
# P_topo (ms)      =  714.528574643304  +/- 0.000169
# P'_topo (s/s)    =  -0                +/- 8.9e-11
# P''_topo (s/s^2) =  0                 +/- 3.93e-14
# P_bary (ms)      =  N/A
# P'_bary (s/s)    =  N/A
# P''_bary (s/s^2) =  N/A
# P_orb (s)        =  N/A
# asin(i)/c (s)    =  N/A
# eccentricity     =  N/A
# w (rad)          =  N/A
# T_peri           =  N/A
######################################################
   0  1103.454
   1  1083.511
   2  1080.757
   3  1132.972
   4  1088.643
   5  1042.735
   6  946.0715
   7  997.7615
   8  1064.229
   9  1188.918
  10  1079.544
  11  1081.822
  12  1107.927
  13  1041.923
  14  908.564
  15  867.5491
  16  975.9772
  17  1065.268
  18  1072.879
  19  1000.647
  20  947.0442
  21  954.557
  22  1075.838
  23  1225.107
  24  1304.759
  25  1215.412
  26  1070.67
  27  1041.287
  28  997.4751
  29  1004.889
  30  1079.147
  31  1126.139
  32  1147.927
  33  1141.096
  34  1152.136
  35  962.9893
  36  878.0709
  37  917.9931
  38  954.1797
  39  911.3272
  40  872.6095
  41  994.1364
  42  1036.359
  43  1073.963
  44  936.5211
  45  855.3648
  46  735.0139
  47  785.1325
  48  764.807
  49  708.8908
  50  743.7047
  51  918.2656
  52  1090.44
  53  1081.895
  54  1102.066
  55  1161.16
  56  1248.721
  57  1214.997
  58  1211.145
  59  1162.251
  60  1135.469
  61  1153.22
  62  1240.743
  63  1361.58
  64  1351.688
  65  1370.99
  66  1401.355
  67  1449.732
  68  1480.836
  69  1445.435
  70  1479.889
  71  1429.082
  72  1283.464
  73  1238.371
  74  1301.721
  75  1330.14
  76  1163.962
  77  1103.412
  78  1077.797
  79  1183.689
  80  1320.007
  81  1390.898
  82  1342.299
  83  1277.082
  84  1318.502
  85  1276.635
  86  1234.539
  87  1222.231
  88  1340.477
  89  1318.976
  90  1177.274
  91  1077.836
  92  1033.441
  93  1196.085
  94  1333.21
  95  1518.907
  96  1553.874
  97  1500.494
  98  1546.183
  99  1562.909
 100  1575.032
 101  1582.189
 102  1498.198
 103  1430.323
 104  1279.693
 105  1174.041
 106  1061.483
 107  1091.629
 108  1095.434
 109  1152.437
 110  1165.021
 111  1157.602
 112  1102.501
 113  1014.388
 114  1093.53
 115  1190.977
 116  1099.158
 117  976.5787
 118  1033.269
 119  1155.912
 120  1175.233
 121  1069.222
 122  1101.298
 123  1131.96
 124  1094.388
 125  1033.5
 126  1058.602
 127  1136.029
 128  1068.201
 129  1040.586
 130  1029.224
 131  1138.155
 132  1195.99
 133  1282.812
 134  1384.253
 135  1377.194
 136  1297.963
 137  1206.998
 138  1250.626
 139  1291.342
 140  1266.884
 141  1172.036
 142  1139.414
 143  1108.147
 144  1134.543
 145  1198.29
 146  1264.201
 147  1341.166
 148  1390.324
 149  1290.012
 150  1302.337
 151  1258.178
 152  1246.199
 153  1184.351
 154  1138.532
 155  1239.067
 156  1126.486
 157  1026.991
 158  983.6301
 159  1148.9
 160  1161.112
 161  1119.523
 162  987.5935
 163  943.415
 164  950.1328
 165  887.9374
 166  953.2115
 167  1036.103
 168  1185.569
 169  1245.469
 170  1253.486
 171  1219.291
 172  1210.07
 173  1107.244
 174  1068.204
 175  1078.695
 176  1058.523
 177  1140.317
 178  1203.8
 179  1204.04
 180  1197.227
 181  1051.345
 182  1089.937
 183  1143.023
 184  1171.04
 185  1068.151
 186  958.5176
 187  937.9041
 188  938.1485
 189  969.3321
 190  1004.694
 191  1090.246
 192  931.9255
 193  733.2626
 194  705.0422
 195  834.5841
 196  913.7683
 197  889.4683
 198  837.668
 199  931.5061
 200  944.903
 201  1089.554
 202  1195.757
 203  1171.571
 204  1119.48
 205  1061.828
 206  1117.539
 207  1211.804
 208  1353.246
 209  1363.44
 210  1363.651
 211  1322.905
 212  1325.402
 213  1329.148
 214  1311.829
 215  1246.065
 216  1269.176
 217  1258.445
 218  1291.073
 219  1211.984
 220  1169.235
 221  1187.149
 222  1223.301
 223  1186.433
 224  1088.638
 225  1106.21
 226  1141.358
 227  1068.809
 228  1084.748
 229  1121.61
 230  1143.297
 231  1075.195
 232  1121.507
 233  1088.535
 234  1028.733
 235  1059.583
 236  1080.983
 237  1078.56
 238  962.5367
 239  1029.362
 240  1132.107
 241  1073.414
 242  1079.651
 243  1181.498
 244  1270.751
 245  1266.789
 246  1226.435
 247  1351.004
 248  1354.19
 249  1373.859
 250  1336.164
 251  1364.763
 252  1297.672
 253  1257.671
 254  1282.162
 255  1350.428
 256  1427.2
 257  1428.652
 258  1283.392
 259  1202.771
 260  1059.315
 261  1191.744
 262  1165.784
 263  1106.97
 264  1060.731
 265  1104.517
 266  1230.353
 267  1180.29
 268  912.5847
 269  913.1951
 270  1011.412
 271  1251.179
 272  1277.084
 273  1281.678
 274  1205.926
 275  1214.292
 276  1145.219
 277  1156.558
 278  1070.479
 279  1075.765
 280  1006.229
 281  1017.758
 282  1050.464
 283  1058.135
 284  1072.065
 285  1198.423
 286  1251.326
 287  1290.214
 288  1190.467
 289  1275.574
 290  1329.652
 291  1333.353
 292  1147.636
 293  1160.545
 294  1271.612
 295  1247.303
 296  1153.833
 297  1135.149
 298  1122.49
 299  1084.579
 300  1158.902
 301  1143.905
 302  1119.534
 303  1070.15
 304  1163.942
 305  1245.676
 306  1253.681
 307  1203.589
 308  1100.253
 309  1165.265
 310  1122.31
 311  1125.992
 312  1080.717
 313  1155.098
 314  1339.417
 315  1354.81
 316  1386.473
 317  1142.249
 318  1099.53
 319  1048.207
 320  1224.956
 321  1253.25
 322  1291.988
 323  1276.349
 324  1247.241
 325  1234.974
 326  1140.079
 327  1239.479
 328  1346.476
 329  1365.013
 330  1218.991
 331  1130.561
 332  1119.449
 333  1201.204
 334  1249.15
 335  1228.456
 336  1138.55
 337  1080.329
 338  1164.663
 339  1203.295
 340  1123.174
 341  1009.935
 342  1016.436
 343  1067.948
 344  1147.806
 345  1147.192
 346  1080.677
 347  1064.169
 348  1075.99
 349  1127.228
 350  1168.373
 351  1176.476
 352  1146.807
 353  1134.225
 354  1025.391
 355  1014.539
 356  987.9962
 357  1053.619
 358  1181.536
 359  1245.192
 360  1221.715
 361  1136.757
 362  1259.331
 363  1439.2
 364  1479.815
 365  1428.471
 366  1418.492
 367  1460.861
 368  1407.006
 369  1369.947
 370  1243.706
 371  1271.379
 372  1242.823
 373  1217.56
 374  1056.672
 375  986.7513
 376  1008.031
 377  1029.128
 378  1148.387
 379  1187.134
 380  1329.187
 381  1288.67
 382  1271.507
 383  1308.392
 384  1397.265
 385  1450.498
 386  1426.905
 387  1453.046
 388  1388.474
 389  1145.524
 390  1053.336
 391  1148.919
 392  1240.543
 393  1155.117
 394  1074.562
 395  1122.371
 396  1206.365
 397  1201.739
 398  1271.333
 399  1336.071
 400  1465.927
 401  1471.507
 402  1435.006
 403  1298.141
 404  1329.247
 405  1417.552
 406  1459.106
 407  1374.242
 408  1335.304
 409  1350.683
 410  1389.035
 411  1290.822
 412  1160.805
 413  1087.375
 414  1116.356
 415  1132.313
 416  1208.692
 417  1239.598
 418  1267.154
 419  1189.927
 420  1146.868
 421  1096.575
 422  1124.135
 423  1151.054
 424  1184.258
 425  1120.342
 426  1023.84
 427  899.6996
 428  950.5891
 429  979.0164
 430  1080.474
 431  1146.062
 432  1180.833
 433  1256.561
 434  1240.054
 435  1395.825
 436  1318.271
 437  1226.763
 438  1165.324
 439  1101.25
 440  1141.974
 441  1122.39
 442  1135.869
 443  1011.534
 444  1028.731
 445  1121.617
 446  1128.993
 447  1077.981
 448  1082.157
 449  1082.267
 450  1148.054
 451  1072.48
 452  1097.102
 453  934.9983
 454  780.4244
 455  748.2115
 456  640.4326
 457  643.4456
 458  708.0529
 459  835.4133
 460  981.1237
 461  927.9795
 462  810.9611
 463  608.0524
 464  683.2516
 465  764.881
 466  938.8553
 467  996.244
 468  1024.98
 469  951.8703
 470  919.5084
 471  932.785
 472  864.6119
 473  939.4446
 474  943.9977
 475  905.3903
 476  800.1442
 477  986.668
 478  1043.472
 479  973.6393
 480  906.114
 481  953.9015
 482  1091.545
 483  1111.249
 484  1091.504
 485  1021.16
 486  871.4969
 487  961.104
 488  1056.991
 489  1217.218
 490  1206.564
 491  1154.615
 492  1062.263
 493  953.6943
 494  888.5096
 495  858.5724
 496  780.8643
 497  740.3859
 498  806.2
 499  831.4178
 500  928.1725
 501  880.0633
 502  915.4914
 503  890.085
 504  876.4944
 505  876.0228
 506  1075.212
 507  1147.323
 508  1074.91
 509  1028.167
 510  1066.212
 511  1165.522
 512  1264.72
 513  1424.521
 514  1496.63
 515  1342.031
 516  1293.093
 517  1143.714
 518  1139.783
 519  1121.756
 520  1291.996
 521  1294.82
 522  1242.763
 523  1249.063
 524  1240.338
 525  1209.231
 526  1059.528
 527  998.1395
 528  1037.693
 529  1131.197
 530  1196.212
 531  1029.495
 532  985.7861
 533  1007.395
 534  1105.102
 535  1050.648
 536  996.5135
 537  1011.905
 538  1050.656
 539  1125.144
 540  1214.463
 541  1198.52
 542  1067.974
 543  1020.319
 544  1166.291
 545  1240.58
 546  1332.189
 547  1337.646
 548  1409.451
 549  1482.648
 550  1498.671
 551  1510.033
 552  1466.325
 553  1480.434
 554  1383.269
 555  1323.467
 556  1303.103
 557  1308.615
 558  1298.735
 559  1196.426
 560  1231.013
 561  1189.458
 562  1182.042
 563  1124.733
 564  1203.994
 565  1167.849
 566  1102.72
 567  1010.381
 568  1102.686
 569  1199.209
 570  1183.389
 571  1180.313
 572  1131.601
 573  1125.503
 574  1169.699
 575  1203.196
 576  1291.701
 577  1224.226
 578  1215.912
 579  1116.458
 580  1071.978
 581  1097.864
 582  1129.486
 583  1152.435
 584  1114.569
 585  1193.002
 586  1271.371
 587  1289.845
 588  1228.139
 589  1178.193
 590  1037.297
 591  1088.439
 592  1187.709
 593  1175.48
 594  1154.648
 595  1053.188
 596  1121.964
 597  994.6879
 598  916.408
 599  907.301
 600  1034.488
 601  1293.698
 602  1341.085
 603  1254.172
 604  1112.264
 605  1110.36
 606  1064.14
 607  931.1566
 608  828.5909
 609  883.1693
 610  1046.577
 611  1179.689
 612  1215.902
 613  1146.735
 614  976.7046
 615  976.4117
 616  1106.604
 617  1256.806
 618  1236.058
 619  1263.806
 620  1234.515
 621  1283.688
 622  1303.055
 623  1473.558
 624  1574.283
 625  1493.148
 626  1384.562
 627  1343.414
 628  1431.262
 629  1590.108
 630  1764.119
 631  1759.059
 632  1553.561
 633  1388.827
 634  1326.975
 635  1301.205
 636  1194.501
 637  1157.246
 638  1036.558
 639  970.0934
 640  849.2751
 641  848.4642
 642  848.4579
 643  1018.193
 644  1162.854
 645  1190.956
 646  1135.297
 647  969.9714
 648  860.9749
 649  895.2457
 650  1002.525
 651  1120.628
 652  1082.889
 653  1007.887
 654  886.5988
 655  835.5762
 656  761.7654
 657  842.84
 658  888.8647
 659  956.6962
 660  921.0494
 661  930.4423
 662  995.0423
 663  1074.586
 664  1098.053
 665  1077.911
 666  1177.368
 667  1212.794
 668  1046.67
 669  887.2753
 670  812.3614
 671  871.605
 672  864.149
 673  837.4138
 674  984.3389
 675  1038.445
 676  996.0988
 677  886.2335
 678  811.8907
 679  864.7244
 680  869.8847
 681  923.7314
 682  919.3139
 683  993.2222
 684  964.8207
 685  959.0829
 686  973.9006
 687  980.8564
 688  983.4662
 689  903.3574
 690  945.3466
 691  954.3123
 692  1039.078
 693  1132.309
 694  1150.142
 695  1117.54
 696  1040.935
 697  965.4955
 698  966.4197
 699  1021.728
 700  1097.223
 701  1104.36
 702  1058.375
 703  1061.631
 704  1038.197
 705  1046.889
 706  1033.244
 707  1107.969
 708  1021.282
 709  989.0851
 710  942.9304
 711  1006.126
 712  925.1727
 713  906.6223
 714  885.4683
 715  901.8083
 716  869.8577
 717  885.0839
 718  936.2236
 719  911.8608
 720  1004.045
 721  1011.767
 722  1085.354
 723  1054.695
 724  925.1526
 725  873.4943
 726  838.8302
 727  952.2019
 728  955.9653
 729  882.3185
 730  820.9288
 731  865.821
 732  952.2027
 733  1036.006
 734  1071.592
 735  1219.157
 736  1246.636
 737  1185.897
 738  1179.292
 739  1069.04
 740  1120.187
 741  1020.348
 742  1087.995
 743  1074.747
 744  1087.03
 745  1161.707
 746  1146.589
 747  1031.311
 748  985.5334
 749  1046.093
 750  1120.279
 751  1000.765
 752  1009.056
 753  1018.982
 754  1081.181
 755  926.2725
 756  777.0292
 757  653.76
 758  695.4518
 759  843.3859
 760  1066.287
 761  1145.912
 762  1086.008
 763  1030.69
 764  1070.287
 765  1116.779
 766  1086.905
 767  1111.968
 768  1079.721
 769  970.6226
 770  901.5787
 771  933.1662
 772  1000.611
 773  960.9255
 774  1005.508
 775  1034.102
 776  1169.07
 777  1238.69
 778  1235.616
 779  1098.726
 780  938.3038
 781  984.8856
 782  1013.391
 783  1031.379
 784  843.9949
 785  807.3793
 786  838.9694
 787  948.679
 788  1016.401
 789  1026.972
 790  1020.169
 791  990.2438
 792  995.8
 793  1150.352
 794  1257.021
 795  1197.086
 796  1105.761
 797  1133.791
 798  1060.855
 799  917.9705
 800  775.9883
 801  783.1027
 802  879.1103
 803  894.9335
 804  855.5474
 805  874.2005
 806  927.5167
 807  959.2192
 808  950.4569
 809  905.2962
 810  1024.73
 811  1088.055
 812  1095.703
 813  1074.815
 814  969.4927
 815  935.4626
 816  899.5738
 817  997.9647
 818  1061.765
 819  1024.394
 820  989.1187
 821  1039.972
 822  1092.564
 823  1063.813
 824  1117.702
 825  1157.231
 826  1163.284
 827  1073.166
 828  1000.292
 829  985.2457
 830  998.5372
 831  1099.032
 832  1194.039
 833  1237.316
 834  1187.822
 835  1081.468
 836  1090.328
 837  1199.836
 838  1203.557
 839  1159.837
 840  1175.597
 841  1213.308
 842  1254.823
 843  1247.606
 844  1250.674
 845  1266.269
 846  1298.74
 847  1157.955
 848  1069.978
 849  1050.278
 850  1232.266
 851  1315.089
 852  1272.2
 853  1193.502
 854  1181.638
 855  1178.004
 856  1066.802
 857  1092.673
 858  1169.57
 859  1338.974
 860  1402.904
 861  1380.049
 862  1285.935
 863  1344.288
 864  1367.963
 865  1416.289
 866  1291.06
 867  1247.745
 868  1107.176
 869  982.1453
 870  927.4587
 871  1003.198
 872  1121.889
 873  1177.243
 874  1154.138
 875  1127.99
 876  1216.956
 877  1206.037
 878  1116.925
 879  930.1851
 880  821.3156
 881  895.1913
 882  1051.176
 883  1150.964
 884  1173.688
 885  1164.174
 886  1152.04
 887  1035.097
 888  1038.315
 889  1095.757
 890  1092.495
 891  1040.457
 892  1086.67
 893  1077.579
 894  1066.852
 895  1010.5
 896  1110.854
 897  1185.205
 898  1224.232
 899  1190.101
 900  1193.501
 901  1046.571
 902  956.1346
 903  956.3828
 904  994.6066
 905  954.4067
 906  1031.263
 907  1108.106
 908  1157.882
 909  1067.003
 910  1140.101
 911  1116.208
 912  1149.691
 913  1166.523
 914  1174.727
 915  1036.404
 916  1026.933
 917  1044.811
 918  1181.605
 919  1228.935
 920  1210.939
 921  1146.175
 922  1096.004
 923  1035.725
 924  1116.729
 925  1165.296
 926  1250.722
 927  1260.925
 928  1381.147
 929  1257.237
 930  1135.859
 931  1043.599
 932  1151.26
 933  1142.91
 934  1240.735
 935  1311.03
 936  1416.852
 937  1351.458
 938  1334.689
 939  1225.326
 940  1139.979
 941  1091.688
 942  1051.717
 943  1082.619
 944  1080.184
 945  1076.169
 946  1002.428
 947  931.7903
 948  918.9884
 949  867.7659
 950  1008.475
 951  1007.502
 952  1128.328
 953  1166.12
 954  1288.513
 955  1239.36
 956  1080.374
 957  1103.093
 958  1106.488
 959  1190.388
 960  1208.361
 961  1159.84
 962  1066.277
 963  1186.729
 964  1310.092
 965  1373.801
 966  1274.425
 967  1301.915
 968  1361.056
 969  1321.519
 970  1270.7
 971  1356.068
 972  1566.145
 973  1569.398
 974  1429.445
 975  1351.396
 976  1403.908
 977  1373.241
 978  1300.812
 979  1275.828
 980  1295.588
 981  1392.638
 982  1381.995
 983  1385.716
 984  1382.923
 985  1280.077
 986  1338.778
 987  1272.989
 988  1208.92
 989  1096.786
 990  1165.13
 991  1127.807
 992  1063.616
 993  1001.875
 994  1098.487
 995  1173.684
 996  1247.617
 997  1239.468
 998  1154.964
 999  1107.088
1000  1018.058
1001  991.9244
1002  909.1371
1003  1022.962
1004  988.7212
1005  951.6907
1006  918.0967
1007  1093.465
1008  1302.52
1009  1284.865
1010  1418.494
1011  1496.368
1012  1379.651
1013  1091.085
1014  1027.878
1015  1039.126
1016  1083.287
1017  1083.062
1018  1156.719
1019  1271.048
1020  1233.416
1021  1242.124
1022  1183.385
1023  1161.443
