# Input file       =  1196551142.114409_cleaned.dat
# Candidate        =  PSR_0332+5434
# Telescope        =  AR
# Epoch_topo       =  58092.971772157514
# Epoch_bary       =  N/A
# T_sample         =  0.002
# Data Folded      =  7340032
# Data Avg         =  0.114089569818004
# Data StdDev      =  4.02101894843161 
# Profile Bins     =  1024
# Profile Avg      =  817.800739648438 
# Profile StdDev   =  340.435716948112 
# Reduced chi-sqr  =  0.483
# Prob(Noise)      <  1   (~0.0 sigma)
# P_topo (ms)      =  714.531136282808  +/- 0.000679
# P'_topo (s/s)    =  -0                +/- 3.58e-10
# P''_topo (s/s^2) =  0                 +/- 1.58e-13
# P_bary (ms)      =  N/A
# P'_bary (s/s)    =  N/A
# P''_bary (s/s^2) =  N/A
# P_orb (s)        =  N/A
# asin(i)/c (s)    =  N/A
# eccentricity     =  N/A
# w (rad)          =  N/A
# T_peri           =  N/A
######################################################
   0  842.2808
   1  729.5667
   2  661.9413
   3  716.865
   4  636.6707
   5  619.06
   6  685.8923
   7  892.8385
   8  970.1247
   9  888.5092
  10  791.9211
  11  827.5616
  12  849.3184
  13  785.2384
  14  769.3124
  15  705.5406
  16  767.3815
  17  621.197
  18  657.0833
  19  791.2328
  20  919.5337
  21  1007.123
  22  927.377
  23  886.9415
  24  777.4127
  25  676.8417
  26  741.4161
  27  856.1425
  28  978.1077
  29  1054.253
  30  1006.217
  31  926.346
  32  942.0005
  33  863.1842
  34  831.0956
  35  749.3314
  36  815.9218
  37  728.1246
  38  698.3253
  39  673.6311
  40  749.3488
  41  788.9462
  42  740.3359
  43  772.2357
  44  845.6365
  45  871.4512
  46  845.6555
  47  789.5394
  48  758.6013
  49  826.4932
  50  838.4541
  51  800.4278
  52  616.3488
  53  548.2469
  54  584.5577
  55  565.9736
  56  567.2188
  57  624.0958
  58  616.8049
  59  638.3796
  60  667.2472
  61  612.407
  62  538.1591
  63  532.3273
  64  653.8793
  65  780.0544
  66  744.1216
  67  751.8964
  68  732.7069
  69  787.0065
  70  727.1393
  71  862.4979
  72  812.5186
  73  924.1198
  74  735.2861
  75  783.0915
  76  730.2121
  77  805.4141
  78  799.9432
  79  999.0859
  80  948.4717
  81  885.7332
  82  666.1949
  83  617.4571
  84  709.5682
  85  852.9867
  86  900.3878
  87  922.837
  88  930.236
  89  996.7516
  90  836.0454
  91  783.7396
  92  780.3198
  93  871.3861
  94  785.5844
  95  736.8701
  96  679.4974
  97  859.4615
  98  937.2828
  99  1016.418
 100  1047.573
 101  1126.975
 102  1055.854
 103  802.7966
 104  683.3589
 105  644.6734
 106  640.2128
 107  580.0311
 108  706.5855
 109  734.7573
 110  787.3781
 111  667.3149
 112  727.5298
 113  690.3519
 114  771.527
 115  681.9448
 116  699.8574
 117  615.847
 118  693.7606
 119  658.9861
 120  682.7909
 121  758.8272
 122  854.7321
 123  821.2825
 124  762.2576
 125  888.4802
 126  1042.239
 127  968.4891
 128  861.2833
 129  736.6873
 130  726.4719
 131  634.2447
 132  758.5208
 133  855.4332
 134  978.2515
 135  949.6129
 136  893.9547
 137  852.8084
 138  800.2866
 139  776.5048
 140  836.867
 141  898.5182
 142  761.1146
 143  860.7818
 144  861.83
 145  878.6342
 146  731.265
 147  786.8018
 148  960.3384
 149  1045.686
 150  890.1916
 151  745.7324
 152  753.2883
 153  810.8503
 154  868.8078
 155  828.2248
 156  936.7661
 157  1052.303
 158  1031.126
 159  906.1115
 160  851.1131
 161  915.7462
 162  991.9832
 163  822.2801
 164  810.6462
 165  875.0309
 166  789.1247
 167  715.1946
 168  683.5573
 169  920.0268
 170  1066.559
 171  931.2757
 172  804.5964
 173  685.6521
 174  641.3646
 175  642.1234
 176  766.7454
 177  817.5428
 178  800.0269
 179  938.6017
 180  1025.525
 181  947.2354
 182  863.9731
 183  897.5109
 184  924.4833
 185  867.293
 186  853.4187
 187  841.6404
 188  855.134
 189  896.2768
 190  910.6315
 191  930.7911
 192  858.6436
 193  911.7914
 194  868.2216
 195  885.7914
 196  709.6075
 197  690.6558
 198  823.642
 199  1083.859
 200  1132.665
 201  1001.428
 202  915.039
 203  895.9666
 204  757.6247
 205  723.7325
 206  605.5995
 207  638.5816
 208  740.4081
 209  993.0783
 210  1024.792
 211  936.6819
 212  845.437
 213  881.1291
 214  825.495
 215  722.926
 216  657.1699
 217  711.6644
 218  847.7037
 219  921.4506
 220  967.9566
 221  935.1529
 222  988.4506
 223  997.0018
 224  934.928
 225  932.1144
 226  886.5106
 227  901.7823
 228  733.4409
 229  595.803
 230  585.0511
 231  610.3254
 232  615.0909
 233  639.0359
 234  787.2977
 235  922.6963
 236  1045.287
 237  1105.461
 238  976.0851
 239  808.0327
 240  775.5366
 241  841.0573
 242  746.1985
 243  679.548
 244  620.2307
 245  655.3358
 246  660.3863
 247  683.3469
 248  688.0129
 249  665.1971
 250  684.7465
 251  586.5396
 252  609.8504
 253  605.4364
 254  694.3192
 255  784.9202
 256  739.9038
 257  587.7187
 258  636.9495
 259  795.1657
 260  855.1508
 261  893.8383
 262  939.4441
 263  968.5547
 264  959.6083
 265  922.6718
 266  832.3885
 267  770.2371
 268  769.8881
 269  744.5601
 270  730.5062
 271  706.477
 272  832.903
 273  892.4695
 274  894.7177
 275  849.6329
 276  784.7011
 277  838.8777
 278  895.0829
 279  902.4345
 280  801.3024
 281  840.607
 282  916.8067
 283  1009.786
 284  902.0549
 285  885.0544
 286  823.8448
 287  789.1366
 288  631.0958
 289  505.881
 290  461.3904
 291  601.5971
 292  504.1989
 293  511.8293
 294  606.8679
 295  816.3757
 296  827.5949
 297  714.7398
 298  718.4944
 299  704.2565
 300  604.3275
 301  508.4767
 302  567.8408
 303  697.8406
 304  650.8975
 305  463.4859
 306  516.6588
 307  703.4225
 308  966.6459
 309  860.9839
 310  856.8383
 311  765.2238
 312  759.7327
 313  703.3943
 314  664.3618
 315  713.0994
 316  714.7607
 317  703.3767
 318  637.2471
 319  676.9454
 320  870.1218
 321  1047.489
 322  1076.623
 323  1071.542
 324  1033.913
 325  969.2672
 326  965.6787
 327  906.0569
 328  879.384
 329  926.4545
 330  1013.396
 331  1091.379
 332  941.2878
 333  932.9779
 334  962.3638
 335  1068.676
 336  1076.903
 337  1072.046
 338  990.1237
 339  976.3358
 340  893.8179
 341  926.6747
 342  940.3262
 343  903.2899
 344  799.3509
 345  713.9763
 346  673.6918
 347  738.28
 348  685.8101
 349  671.5754
 350  778.6467
 351  881.4913
 352  948.2383
 353  917.5179
 354  919.5253
 355  1039.31
 356  930.6887
 357  873.2148
 358  880.9822
 359  917.2721
 360  979.3238
 361  896.468
 362  773.5969
 363  736.8703
 364  773.9374
 365  872.2786
 366  878.2723
 367  890.2138
 368  897.2625
 369  896.207
 370  935.8791
 371  879.0041
 372  724.6529
 373  703.2576
 374  893.7012
 375  933.5222
 376  943.89
 377  901.3823
 378  845.7927
 379  794.2283
 380  835.8097
 381  838.9951
 382  786.3156
 383  747.9819
 384  898.0085
 385  996.0999
 386  988.9427
 387  886.3295
 388  833.1705
 389  776.2607
 390  817.0759
 391  868.6149
 392  775.3982
 393  787.0959
 394  800.6951
 395  898.7979
 396  762.6577
 397  706.6921
 398  757.712
 399  893.864
 400  929.8358
 401  825.3873
 402  678.4655
 403  532.0438
 404  520.7056
 405  594.4379
 406  764.5705
 407  794.2936
 408  754.4136
 409  620.9247
 410  523.4219
 411  521.9481
 412  642.5501
 413  554.0627
 414  434.7924
 415  531.4477
 416  730.7419
 417  743.6884
 418  706.9181
 419  827.2725
 420  947.7594
 421  915.8802
 422  756.5066
 423  682.1278
 424  666.0815
 425  666.7977
 426  697.5242
 427  781.2853
 428  908.9091
 429  947.6082
 430  930.1175
 431  841.6402
 432  813.4805
 433  812.3275
 434  714.359
 435  818.4025
 436  807.5146
 437  764.6544
 438  590.4896
 439  581.3909
 440  700.8079
 441  806.9511
 442  780.7431
 443  771.9285
 444  804.5414
 445  903.6835
 446  927.0587
 447  980.3895
 448  834.4581
 449  755.7946
 450  766.2399
 451  781.1792
 452  771.6884
 453  727.0267
 454  819.5266
 455  851.966
 456  809.6086
 457  791.6833
 458  830.1298
 459  902.0679
 460  985.6407
 461  973.8502
 462  900.645
 463  786.8914
 464  736.4615
 465  724.5839
 466  890.591
 467  987.4471
 468  1086.393
 469  949.2146
 470  975.2994
 471  939.9617
 472  858.6038
 473  726.1456
 474  722.8559
 475  623.3694
 476  702.0142
 477  669.5258
 478  721.9909
 479  618.1968
 480  735.0287
 481  819.0613
 482  971.9332
 483  1003.197
 484  1141.406
 485  1104.591
 486  1003.164
 487  944.2042
 488  923.7497
 489  917.7405
 490  841.5045
 491  837.287
 492  826.6852
 493  755.6287
 494  752.3002
 495  862.5732
 496  845.5715
 497  804.3353
 498  775.4192
 499  868.3342
 500  935.16
 501  1003.517
 502  1025.218
 503  1027.084
 504  969.2141
 505  830.7293
 506  791.273
 507  812.9791
 508  876.6112
 509  959.6478
 510  939.5827
 511  923.3224
 512  937.6989
 513  1026.943
 514  1067.723
 515  902.7191
 516  741.0109
 517  735.4814
 518  753.444
 519  746.6163
 520  761.0071
 521  799.6513
 522  799.9024
 523  771.7061
 524  934.2841
 525  973.4486
 526  899.7064
 527  949.0511
 528  981.7532
 529  922.4392
 530  755.0007
 531  780.8605
 532  794.2713
 533  715.8528
 534  702.901
 535  786.7108
 536  850.4398
 537  883.9033
 538  882.2325
 539  932.1446
 540  790.8693
 541  738.7675
 542  638.613
 543  678.5112
 544  778.8953
 545  714.3683
 546  754.8353
 547  708.6594
 548  808.7372
 549  885.6602
 550  972.4244
 551  950.6127
 552  800.4313
 553  734.6364
 554  814.4825
 555  951.3748
 556  940.1419
 557  883.0281
 558  795.5389
 559  846.7532
 560  910.1285
 561  865.3021
 562  836.5435
 563  859.601
 564  931.8591
 565  997.4807
 566  921.8287
 567  839.385
 568  727.4891
 569  834.1524
 570  911.5916
 571  922.7581
 572  888.5897
 573  822.998
 574  892.2652
 575  881.6239
 576  1015.745
 577  985.022
 578  1038.489
 579  1000.401
 580  1009.826
 581  1008.587
 582  994.3198
 583  989.9729
 584  1036.135
 585  968.0318
 586  873.3197
 587  777.5854
 588  759.7729
 589  672.6858
 590  576.3893
 591  701.239
 592  663.3835
 593  682.9202
 594  665.1314
 595  763.4464
 596  740.4982
 597  729.7562
 598  636.0201
 599  655.3235
 600  671.6953
 601  643.2232
 602  603.7991
 603  450.5698
 604  601.374
 605  754.0255
 606  876.7037
 607  815.9283
 608  740.9412
 609  826.4582
 610  911.7059
 611  804.9883
 612  795.6727
 613  895.7246
 614  994.3929
 615  984.9068
 616  912.3567
 617  872.554
 618  813.6926
 619  740.4315
 620  880.8713
 621  989.6295
 622  1155.115
 623  1073.438
 624  1033.654
 625  1027.103
 626  1103.883
 627  1137.378
 628  1112.361
 629  1010.656
 630  981.319
 631  923.7922
 632  974.0654
 633  823.2285
 634  793.6891
 635  821.8234
 636  954.3613
 637  929.6044
 638  888.9554
 639  812.1393
 640  764.3651
 641  715.8938
 642  713.7143
 643  690.1765
 644  706.7767
 645  583.0385
 646  607.7138
 647  590.0294
 648  679.3831
 649  627.1805
 650  675.1113
 651  889.6578
 652  1014.743
 653  1030.891
 654  1028.446
 655  1029.235
 656  1026.917
 657  951.8561
 658  802.8663
 659  731.9134
 660  703.1246
 661  646.8389
 662  654.5797
 663  614.257
 664  659.5988
 665  762.9513
 666  761.8173
 667  829.3029
 668  799.6336
 669  881.822
 670  857.6614
 671  839.1386
 672  785.1539
 673  811.32
 674  820.4548
 675  858.9056
 676  811.5397
 677  858.8031
 678  763.7367
 679  733.2551
 680  742.4329
 681  773.2878
 682  715.6129
 683  564.2863
 684  658.6289
 685  869.0421
 686  940.4645
 687  852.9848
 688  696.7739
 689  730.7416
 690  685.3372
 691  681.9781
 692  640.395
 693  701.5537
 694  727.4847
 695  655.1006
 696  803.9595
 697  845.6747
 698  886.9438
 699  812.0626
 700  905.5825
 701  939.4733
 702  819.2603
 703  716.2524
 704  688.0475
 705  793.0007
 706  952.5638
 707  1066.838
 708  1085.944
 709  992.805
 710  1012.35
 711  1078.232
 712  1060.557
 713  993.6887
 714  894.8403
 715  928.5228
 716  1112.316
 717  1184.975
 718  1067.032
 719  948.2047
 720  1015.669
 721  1137.225
 722  1003.739
 723  843.5747
 724  827.6956
 725  898.842
 726  1001.846
 727  927.308
 728  890.0406
 729  908.2286
 730  929.1713
 731  934.7595
 732  881.096
 733  890.8044
 734  911.2053
 735  805.5065
 736  770.1036
 737  803.8164
 738  891.5753
 739  982.0939
 740  1033.21
 741  964.1339
 742  856.953
 743  815.4377
 744  761.0475
 745  766.3479
 746  815.9421
 747  803.6878
 748  811.2355
 749  710.0331
 750  819.8307
 751  908.2542
 752  975.3322
 753  981.1611
 754  952.1726
 755  1001.868
 756  1077.415
 757  1109.765
 758  984.8232
 759  899.9753
 760  716.0233
 761  693.5499
 762  677.3433
 763  848.7539
 764  935.035
 765  936.3798
 766  955.7447
 767  1066.165
 768  1055.955
 769  1050.387
 770  985.9507
 771  1082.069
 772  1052.611
 773  1112.675
 774  1053.608
 775  1036.03
 776  977.7878
 777  840.9656
 778  746.4432
 779  622.7795
 780  722.1805
 781  912.8643
 782  940.4756
 783  867.3139
 784  780.7911
 785  744.6319
 786  707.2502
 787  819.0767
 788  877.5198
 789  895.2236
 790  817.6301
 791  819.4122
 792  860.0528
 793  784.7548
 794  834.982
 795  913.4819
 796  991.4821
 797  873.2712
 798  748.3275
 799  714.165
 800  701.6948
 801  683.2759
 802  774.1236
 803  825.4401
 804  842.9
 805  733.8448
 806  793.4067
 807  816.1143
 808  884.9648
 809  826.8328
 810  799.7238
 811  636.7469
 812  642.1509
 813  636.3041
 814  750.7786
 815  695.0164
 816  719.5244
 817  636.3541
 818  593.5019
 819  505.9796
 820  552.1255
 821  612.593
 822  714.633
 823  812.5489
 824  804.651
 825  658.6415
 826  579.4556
 827  702.1299
 828  800.7703
 829  912.6322
 830  851.2941
 831  884.876
 832  782.2778
 833  749.4303
 834  691.9434
 835  753.3065
 836  717.6127
 837  800.5422
 838  810.229
 839  878.6196
 840  771.9612
 841  633.0062
 842  679.3879
 843  650.2698
 844  702.7126
 845  754.243
 846  798.6827
 847  790.5688
 848  749.5012
 849  720.1712
 850  709.3018
 851  701.1251
 852  860.9586
 853  947.1124
 854  891.2308
 855  806.328
 856  656.942
 857  663.5896
 858  667.0959
 859  724.8621
 860  731.3512
 861  750.2821
 862  790.8775
 863  809.7374
 864  837.6616
 865  748.4145
 866  687.9493
 867  625.4063
 868  629.1974
 869  582.6501
 870  690.4127
 871  790.5441
 872  859.184
 873  679.2028
 874  686.9416
 875  677.5789
 876  810.9488
 877  719.4139
 878  793.9069
 879  789.1932
 880  788.2028
 881  723.5347
 882  739.3756
 883  837.8106
 884  921.0446
 885  943.7221
 886  958.6582
 887  879.5203
 888  912.566
 889  901.5296
 890  1032.677
 891  934.2205
 892  970.6546
 893  965.8775
 894  931.2394
 895  797.8231
 896  789.011
 897  728.9178
 898  716.2961
 899  804.4465
 900  1035.485
 901  1006.946
 902  950.3222
 903  845.0484
 904  821.3184
 905  717.0016
 906  767.1387
 907  809.8475
 908  829.7086
 909  777.0587
 910  793.5296
 911  763.0597
 912  774.3865
 913  846.2716
 914  932.476
 915  883.9897
 916  716.6346
 917  737.5853
 918  862.7817
 919  968.7675
 920  974.7932
 921  981.08
 922  978.8772
 923  883.535
 924  914.7118
 925  1004.314
 926  881.6459
 927  701.2379
 928  649.556
 929  714.1041
 930  777.9776
 931  870.6222
 932  951.1766
 933  1041.481
 934  971.6274
 935  1023.461
 936  1050.462
 937  951.433
 938  780.3182
 939  765.0239
 940  850.6802
 941  897.3122
 942  762.811
 943  807.1646
 944  842.2137
 945  849.1144
 946  755.1971
 947  734.3032
 948  730.4865
 949  796.73
 950  906.0349
 951  876.4326
 952  845.3101
 953  797.3344
 954  834.8727
 955  752.9595
 956  718.3842
 957  790.3969
 958  870.3529
 959  869.246
 960  818.3666
 961  669.8697
 962  657.9562
 963  655.4739
 964  795.261
 965  870.5125
 966  782.3821
 967  751.7336
 968  650.0858
 969  638.1124
 970  555.7407
 971  682.4476
 972  875.8951
 973  952.1503
 974  902.2077
 975  732.2289
 976  709.3632
 977  689.8412
 978  888.4572
 979  1039.537
 980  1001.269
 981  857.7321
 982  855.2643
 983  835.2317
 984  786.5547
 985  744.4675
 986  797.6323
 987  914.2628
 988  979.8041
 989  1002.896
 990  881.2941
 991  822.4156
 992  856.3863
 993  822.9058
 994  633.9273
 995  661.3013
 996  667.7889
 997  785.067
 998  655.6543
 999  716.7783
1000  775.6868
1001  892.148
1002  719.0736
1003  608.7773
1004  583.3629
1005  684.2553
1006  692.1356
1007  595.9088
1008  618.9224
1009  713.9268
1010  705.1676
1011  609.2049
1012  558.9499
1013  547.6195
1014  673.8175
1015  722.4289
1016  823.3276
1017  695.4197
1018  695.0019
1019  700.4013
1020  699.292
1021  712.0458
1022  814.5547
1023  936.9304
