# Input file       =  1196966586.130779_cleaned.dat
# Candidate        =  PSR_0332+5434
# Telescope        =  AR
# Epoch_topo       =  58097.780151976607
# Epoch_bary       =  N/A
# T_sample         =  0.002
# Data Folded      =  7340032
# Data Avg         =  0.40710038404255 
# Data StdDev      =  5.67735116923216 
# Profile Bins     =  512
# Profile Avg      =  5838.18979542692 
# Profile StdDev   =  679.76649406935  
# Reduced chi-sqr  =  0.496
# Prob(Noise)      <  1   (~0.0 sigma)
# P_topo (ms)      =  714.535691126685  +/- 0.000818
# P'_topo (s/s)    =  -0                +/- 4.31e-10
# P''_topo (s/s^2) =  0                 +/- 1.9e-13
# P_bary (ms)      =  N/A
# P'_bary (s/s)    =  N/A
# P''_bary (s/s^2) =  N/A
# P_orb (s)        =  N/A
# asin(i)/c (s)    =  N/A
# eccentricity     =  N/A
# w (rad)          =  N/A
# T_peri           =  N/A
######################################################
   0  5234.88
   1  5301.315
   2  5935.369
   3  5622.012
   4  5770.321
   5  6061.15
   6  5844.697
   7  5482.056
   8  5626.508
   9  5704.607
  10  5782.669
  11  5434.392
  12  5591.222
  13  5709.357
  14  6029.213
  15  6146.882
  16  5845.759
  17  5657.847
  18  5571.484
  19  5424.491
  20  5813.542
  21  5487.228
  22  5283.924
  23  5131.671
  24  5155.536
  25  4983.476
  26  5182.275
  27  5548.707
  28  5452.577
  29  5184.841
  30  5348.024
  31  5562.372
  32  5755.82
  33  5685.098
  34  5821.872
  35  5513.78
  36  4992.502
  37  5134.268
  38  5616.441
  39  5614.003
  40  5611.822
  41  5823.296
  42  5629.489
  43  5355.743
  44  5227.735
  45  5680.59
  46  5895.304
  47  5959.48
  48  5934.451
  49  5862.188
  50  5718.799
  51  5885.591
  52  6078.883
  53  6129.255
  54  5890.563
  55  6198.813
  56  6611.701
  57  6389.132
  58  6291.173
  59  5981.131
  60  5788.576
  61  6422.839
  62  6701.516
  63  6381.03
  64  6041.132
  65  5969.187
  66  5704.359
  67  5880.166
  68  5726.07
  69  6033.138
  70  6562.782
  71  6524.056
  72  6011.809
  73  5815.292
  74  6041.081
  75  5838.666
  76  5790.483
  77  6081.299
  78  5699.681
  79  5786.827
  80  5921.417
  81  6305.153
  82  6509.736
  83  6315.619
  84  6268.345
  85  6551.327
  86  6410.151
  87  6565.655
  88  6662.322
  89  6725.555
  90  6648.572
  91  6449.855
  92  6251.322
  93  6049.572
  94  6003.707
  95  6361.616
  96  6296.452
  97  5909.796
  98  6073.308
  99  5984.726
 100  5487.08
 101  5504.991
 102  5543.894
 103  5888.683
 104  5956.082
 105  6107.069
 106  6264.417
 107  5844.566
 108  5837.055
 109  5438.511
 110  5720.628
 111  6108.42
 112  6108.488
 113  6019.309
 114  5809.235
 115  6001.84
 116  6035.194
 117  5769.888
 118  5608.656
 119  5936.385
 120  5919.285
 121  5672.935
 122  5319.123
 123  5888.921
 124  5861.955
 125  5631.188
 126  5826.549
 127  5720.768
 128  5776.696
 129  5772.495
 130  5628.164
 131  5898.594
 132  5807.439
 133  5758.193
 134  6012.748
 135  6512.438
 136  6434.004
 137  6248.855
 138  6042.481
 139  5551.532
 140  5356.306
 141  5909.391
 142  6001.725
 143  6128.82
 144  5651.177
 145  6052.296
 146  6535.125
 147  5994.99
 148  6320.414
 149  6445.736
 150  6066.914
 151  5655.804
 152  5912.192
 153  6057.99
 154  5984.682
 155  6235.333
 156  6552.133
 157  7170.011
 158  7550.803
 159  7020.839
 160  6834.72
 161  6496.999
 162  6008.822
 163  5905.715
 164  6284.929
 165  5817.166
 166  5591.107
 167  5810.212
 168  5787.192
 169  5636.654
 170  5591.325
 171  5615.63
 172  5375.829
 173  5499.083
 174  5825.116
 175  6024.269
 176  5861.699
 177  6068.32
 178  6104.441
 179  6002.099
 180  6185.454
 181  6096.384
 182  5793.267
 183  5827.099
 184  5820.769
 185  6285.412
 186  6596.193
 187  6126.386
 188  5694.219
 189  5682.467
 190  5891.459
 191  6307.395
 192  6536.984
 193  6114.998
 194  5792.709
 195  6063.072
 196  6124.165
 197  6149.524
 198  6010.467
 199  5733.95
 200  5068.38
 201  5363.453
 202  5587.807
 203  5773.211
 204  5887.112
 205  5724.629
 206  6112.55
 207  5900.104
 208  5460.224
 209  5457.157
 210  6098.95
 211  5871.47
 212  5967.075
 213  6383.029
 214  5993.268
 215  6027.79
 216  5611.897
 217  5513.669
 218  5390.526
 219  5725.178
 220  5889.62
 221  5801.124
 222  5869.962
 223  6135.973
 224  5744.959
 225  5287.851
 226  5247.938
 227  5449.439
 228  5654.584
 229  5460.259
 230  5593.761
 231  5492.967
 232  5546.76
 233  5685.404
 234  5444.414
 235  5512.701
 236  5057.078
 237  5422.399
 238  5426.68
 239  5387.639
 240  5417.992
 241  5388.597
 242  5556.66
 243  5909.427
 244  5775.262
 245  5830.146
 246  5834.361
 247  5838.125
 248  6137.06
 249  6585.729
 250  6440.62
 251  5875.039
 252  5574.663
 253  5622.559
 254  5980.524
 255  5854.266
 256  5617.033
 257  5458.646
 258  5987.443
 259  6336.318
 260  6074.747
 261  5878.85
 262  6079.805
 263  6112.006
 264  5863.175
 265  5795.334
 266  5592.956
 267  5974.966
 268  5787.267
 269  5901.208
 270  6089.928
 271  5847.057
 272  6011.3
 273  5981.743
 274  6006.31
 275  5775.327
 276  5288.674
 277  5658.739
 278  5699.947
 279  5603.046
 280  5791.879
 281  5933.384
 282  5766.855
 283  5569.715
 284  5754.833
 285  5791.775
 286  5653.978
 287  5480.102
 288  5488.307
 289  5659.232
 290  6076.926
 291  5926.918
 292  6249.268
 293  6161.592
 294  5785.86
 295  5208.066
 296  5445.027
 297  5405.978
 298  5515.284
 299  5494.637
 300  5383.038
 301  5685.709
 302  5897.732
 303  5688.688
 304  5600.149
 305  5709.458
 306  5556.25
 307  5485.415
 308  5225.817
 309  5217.573
 310  5668.668
 311  6061.64
 312  5774.51
 313  6109.791
 314  6428.75
 315  6118.984
 316  5908.457
 317  5761.465
 318  6216.463
 319  6165.604
 320  6267.715
 321  5860.016
 322  5436.128
 323  5168.059
 324  5357.566
 325  5132.485
 326  5662.326
 327  5880.902
 328  6158.439
 329  6171.435
 330  5512.832
 331  5641.065
 332  6163.293
 333  6077.803
 334  6322.267
 335  6039.881
 336  5885.841
 337  5862.879
 338  5912.21
 339  6001.241
 340  5879.399
 341  5814.4
 342  6082.9
 343  6437.131
 344  6170.899
 345  6338.11
 346  6060.331
 347  5938.236
 348  6073.435
 349  6041.079
 350  5903.424
 351  5740.473
 352  5424.549
 353  5800.109
 354  6196.163
 355  6309.219
 356  6512.22
 357  6242.094
 358  5772.354
 359  6094.627
 360  6100.659
 361  6144.162
 362  6088.261
 363  6237.402
 364  6170.936
 365  6161.676
 366  6366.377
 367  6096.48
 368  5752.523
 369  5465.686
 370  5247.207
 371  5531.664
 372  5519.584
 373  5636.581
 374  5957.464
 375  5930.883
 376  5543.931
 377  5157.463
 378  5670.409
 379  5887.862
 380  5572.037
 381  5960.785
 382  5513.183
 383  5057.674
 384  5418.114
 385  5637.139
 386  5708.368
 387  5477.693
 388  5200.196
 389  5569.565
 390  6044.89
 391  6352.812
 392  6291.702
 393  6364.714
 394  5837.764
 395  5736.654
 396  6137.98
 397  6301.979
 398  6151.552
 399  6342.666
 400  5805.724
 401  5893.877
 402  5842.12
 403  6044.352
 404  6030.022
 405  5599.312
 406  5671.061
 407  5723.299
 408  5548.896
 409  5604.455
 410  5574.95
 411  5290.32
 412  5319.589
 413  5229.45
 414  5642.337
 415  5777.953
 416  5860.896
 417  5811.924
 418  5452.356
 419  5419.226
 420  5556.66
 421  5822.719
 422  6297.619
 423  5607.66
 424  5794.422
 425  5764.45
 426  5708.3
 427  5518.935
 428  5600.945
 429  5844.707
 430  6178.488
 431  6296.921
 432  6089.948
 433  5678.546
 434  5930.7
 435  6063.745
 436  6045.063
 437  5833.52
 438  5796.727
 439  6046.752
 440  5677.365
 441  5773.228
 442  5838.791
 443  5665.748
 444  5791.706
 445  5719.318
 446  5856.03
 447  5421.979
 448  5578.44
 449  5502.377
 450  6126.492
 451  6132.984
 452  5731.885
 453  5592.262
 454  5134.202
 455  5040.382
 456  5321.653
 457  5769.903
 458  6358.863
 459  6047.439
 460  5940.599
 461  5748.709
 462  5865.8
 463  5983.627
 464  6027.751
 465  6372.439
 466  5972.839
 467  5326.701
 468  5372.067
 469  5586.505
 470  5531.456
 471  5726.256
 472  5896.998
 473  5663.889
 474  5640.605
 475  5748.317
 476  5793.183
 477  5969.59
 478  5730.44
 479  5924.112
 480  5897.575
 481  5902.651
 482  5981.783
 483  6210.458
 484  5683.845
 485  5912.077
 486  5980.136
 487  5666.698
 488  5661.716
 489  5810.936
 490  5726.378
 491  5413.297
 492  5789.013
 493  5926.24
 494  5708.438
 495  5669.167
 496  5545.912
 497  5599.034
 498  5710.442
 499  5478.192
 500  5488.533
 501  5546.368
 502  5651.676
 503  5768.656
 504  5673.068
 505  5519.449
 506  5570.771
 507  5927.969
 508  5723.851
 509  5672.99
 510  5656.293
 511  5457.184
