# Input file       =  1196981508.116393_cleaned.dat
# Candidate        =  PSR_0332+5434
# Telescope        =  AR
# Epoch_topo       =  58097.952860143436
# Epoch_bary       =  N/A
# T_sample         =  0.002
# Data Folded      =  7340032
# Data Avg         =  0.0979359011040849
# Data StdDev      =  1.00059497885517 
# Profile Bins     =  512
# Profile Avg      =  1403.87652282534 
# Profile StdDev   =  119.804275001676 
# Reduced chi-sqr  =  0.778
# Prob(Noise)      <  1   (~0.0 sigma)
# P_topo (ms)      =  714.536199830122  +/- 0.000137
# P'_topo (s/s)    =  -0                +/- 7.22e-11
# P''_topo (s/s^2) =  0                 +/- 3.19e-14
# P_bary (ms)      =  N/A
# P'_bary (s/s)    =  N/A
# P''_bary (s/s^2) =  N/A
# P_orb (s)        =  N/A
# asin(i)/c (s)    =  N/A
# eccentricity     =  N/A
# w (rad)          =  N/A
# T_peri           =  N/A
######################################################
   0  1577.58
   1  1578.001
   2  1565.832
   3  1467.368
   4  1400.657
   5  1373.854
   6  1435.21
   7  1435.185
   8  1376.189
   9  1390.164
  10  1387.501
  11  1393.148
  12  1442.065
  13  1474.841
  14  1515.727
  15  1313.122
  16  1373.457
  17  1521.91
  18  1425.28
  19  1437.823
  20  1457.911
  21  1534.316
  22  1517.604
  23  1380.279
  24  1451.526
  25  1463.716
  26  1491.235
  27  1454.478
  28  1430.598
  29  1442.126
  30  1446.332
  31  1421.791
  32  1373.071
  33  1380.826
  34  1395.99
  35  1468.384
  36  1414.197
  37  1487.789
  38  1374.628
  39  1413.183
  40  1415.973
  41  1547.532
  42  1599.085
  43  1487.19
  44  1442.219
  45  1450.719
  46  1537.168
  47  1449.603
  48  1395.326
  49  1497.785
  50  1462.698
  51  1371.976
  52  1265.764
  53  1270.536
  54  1249.819
  55  1333.652
  56  1498.122
  57  1516.83
  58  1513.381
  59  1521.368
  60  1471.208
  61  1471.709
  62  1416.067
  63  1446.548
  64  1451.056
  65  1490.931
  66  1530.743
  67  1492.863
  68  1490.106
  69  1495.315
  70  1499.221
  71  1444.259
  72  1459.064
  73  1441.38
  74  1444.536
  75  1521.307
  76  1453.701
  77  1380.774
  78  1331.98
  79  1279.458
  80  1342.715
  81  1338.906
  82  1411.829
  83  1415.589
  84  1371.978
  85  1423.532
  86  1445.904
  87  1348.438
  88  1342.391
  89  1369.749
  90  1345.346
  91  1394.298
  92  1488.687
  93  1565.567
  94  1474.153
  95  1407.352
  96  1369.951
  97  1367.136
  98  1380.996
  99  1391.776
 100  1428.84
 101  1443.729
 102  1502.736
 103  1488.069
 104  1390.716
 105  1365.714
 106  1392.413
 107  1445.038
 108  1496.472
 109  1430.913
 110  1441.565
 111  1453.908
 112  1378.824
 113  1272.768
 114  1368.934
 115  1537.06
 116  1346.872
 117  1299.694
 118  1390.531
 119  1375.008
 120  1384.739
 121  1455.983
 122  1423.326
 123  1390.433
 124  1278.543
 125  1308.291
 126  1427.442
 127  1450.128
 128  1384.001
 129  1355.936
 130  1387.83
 131  1333.578
 132  1263.43
 133  1312.731
 134  1311.487
 135  1356.73
 136  1397.673
 137  1319.19
 138  1362.007
 139  1441.102
 140  1395.715
 141  1423.476
 142  1449.545
 143  1408.745
 144  1432.988
 145  1509.163
 146  1546.069
 147  1450.943
 148  1435.607
 149  1517.016
 150  1554.555
 151  1524.352
 152  1414.114
 153  1438.837
 154  1478.044
 155  1488.047
 156  1465.885
 157  1416.07
 158  1477.498
 159  1459.335
 160  1431.145
 161  1405.57
 162  1332.61
 163  1419.118
 164  1399.395
 165  1454.799
 166  1518.563
 167  1424.64
 168  1383.071
 169  1423.167
 170  1478.064
 171  1456.254
 172  1428.992
 173  1418.636
 174  1435.807
 175  1395.731
 176  1325.493
 177  1331.77
 178  1326.741
 179  1263.397
 180  1344.268
 181  1411.515
 182  1423.982
 183  1376.914
 184  1397.472
 185  1401.317
 186  1383.47
 187  1433.086
 188  1326.11
 189  1333.913
 190  1358.817
 191  1374.83
 192  1384.873
 193  1479.034
 194  1594.029
 195  1453.775
 196  1318.807
 197  1287.339
 198  1388.855
 199  1343.585
 200  1328.502
 201  1380.638
 202  1433.585
 203  1377.438
 204  1387.522
 205  1418.483
 206  1377.37
 207  1381.062
 208  1380.195
 209  1472.899
 210  1425.658
 211  1468.054
 212  1444.54
 213  1319.477
 214  1261.071
 215  1304.113
 216  1437.69
 217  1458.005
 218  1538.575
 219  1538.621
 220  1503.827
 221  1482.941
 222  1428.531
 223  1458.142
 224  1408.961
 225  1354.533
 226  1331.08
 227  1437.483
 228  1468.275
 229  1453.197
 230  1326.386
 231  1303.121
 232  1311.1
 233  1250.497
 234  1318.074
 235  1326.321
 236  1220.148
 237  1352.495
 238  1362.868
 239  1275.74
 240  1350.952
 241  1385.182
 242  1368.801
 243  1334.681
 244  1318.867
 245  1295.002
 246  1325.095
 247  1279.95
 248  1267.07
 249  1388.911
 250  1442.862
 251  1328.943
 252  1292.879
 253  1338.387
 254  1346.741
 255  1270.371
 256  1327.544
 257  1403.528
 258  1367.825
 259  1321.995
 260  1351.424
 261  1361.53
 262  1344.023
 263  1234.267
 264  1200.594
 265  1232.215
 266  1347.1
 267  1363.168
 268  1423.335
 269  1458.418
 270  1511.188
 271  1427.742
 272  1415.931
 273  1385.714
 274  1436.247
 275  1349.027
 276  1375.951
 277  1469.924
 278  1466.099
 279  1527.445
 280  1453.724
 281  1411.687
 282  1393.135
 283  1369.694
 284  1435.203
 285  1501.181
 286  1500.944
 287  1439.901
 288  1354.99
 289  1253.186
 290  1248.082
 291  1252.414
 292  1282.801
 293  1404.899
 294  1522.671
 295  1571.472
 296  1491.504
 297  1404.049
 298  1366.568
 299  1274.777
 300  1238.993
 301  1355.17
 302  1469.724
 303  1489.3
 304  1531.186
 305  1443.968
 306  1384.526
 307  1403.376
 308  1382.462
 309  1339.205
 310  1338.994
 311  1404.534
 312  1448.311
 313  1358.078
 314  1243.764
 315  1341.434
 316  1318.33
 317  1349.555
 318  1323.083
 319  1340.028
 320  1382
 321  1482.334
 322  1400.761
 323  1410.954
 324  1439.178
 325  1445.789
 326  1516.012
 327  1387.65
 328  1399.671
 329  1386.92
 330  1492.827
 331  1539.682
 332  1445.645
 333  1421.313
 334  1419.846
 335  1425.801
 336  1506.983
 337  1485.805
 338  1431.363
 339  1417.32
 340  1411.439
 341  1456.197
 342  1415.441
 343  1373.175
 344  1461.702
 345  1459.152
 346  1504.596
 347  1457.006
 348  1362.919
 349  1307.234
 350  1302.288
 351  1321.981
 352  1458.829
 353  1436.498
 354  1296.162
 355  1222.174
 356  1302.05
 357  1426.448
 358  1367.819
 359  1361.404
 360  1425.788
 361  1518.379
 362  1461.725
 363  1319.457
 364  1393.801
 365  1416.989
 366  1373.094
 367  1495.851
 368  1501.104
 369  1495.676
 370  1475.305
 371  1504.36
 372  1449.729
 373  1464.523
 374  1458.337
 375  1468.323
 376  1403.602
 377  1378.097
 378  1428.94
 379  1434.276
 380  1345.873
 381  1371.62
 382  1378.175
 383  1378.43
 384  1427.322
 385  1533.178
 386  1411.229
 387  1336.286
 388  1267.121
 389  1317.763
 390  1472.255
 391  1431.565
 392  1395.136
 393  1414.114
 394  1396.137
 395  1361.884
 396  1386.421
 397  1389.731
 398  1426.143
 399  1411.434
 400  1317.984
 401  1308.895
 402  1334.427
 403  1403.126
 404  1418.935
 405  1284.156
 406  1412.302
 407  1402.129
 408  1372.939
 409  1386.62
 410  1400.013
 411  1407.1
 412  1365.018
 413  1379.856
 414  1478.421
 415  1394.285
 416  1412.326
 417  1335.489
 418  1293.579
 419  1340.403
 420  1392.988
 421  1431.525
 422  1473.478
 423  1502.536
 424  1419.531
 425  1356.656
 426  1365.346
 427  1330.312
 428  1527.401
 429  1482.689
 430  1417.509
 431  1370.613
 432  1406.367
 433  1436.429
 434  1401.307
 435  1270.314
 436  1312.592
 437  1295.401
 438  1353.894
 439  1406.999
 440  1428.729
 441  1411.459
 442  1467.899
 443  1454.218
 444  1518.077
 445  1523.278
 446  1561.439
 447  1456.674
 448  1423.927
 449  1408.534
 450  1410.93
 451  1485.62
 452  1449.856
 453  1391.181
 454  1391.243
 455  1416.311
 456  1444.744
 457  1367.615
 458  1337.644
 459  1310.231
 460  1331.632
 461  1274.67
 462  1293.258
 463  1399.192
 464  1387.239
 465  1371.648
 466  1313.067
 467  1366.958
 468  1379.672
 469  1338.553
 470  1213.404
 471  1197.571
 472  1295.116
 473  1325.337
 474  1281.468
 475  1367.83
 476  1321.338
 477  1226.585
 478  1206.915
 479  1354.564
 480  1460.465
 481  1371.724
 482  1344.035
 483  1336.982
 484  1337.069
 485  1377.653
 486  1468.406
 487  1457.88
 488  1372.872
 489  1365.244
 490  1337.996
 491  1306.309
 492  1327.704
 493  1376.177
 494  1407.484
 495  1492.573
 496  1523.559
 497  1359.893
 498  1289.41
 499  1283.332
 500  1377.22
 501  1389.144
 502  1431.628
 503  1354.476
 504  1466.684
 505  1550.843
 506  1477.19
 507  1488.934
 508  1544.861
 509  1535.572
 510  1649.804
 511  1702.043
