# Input file       =  1196607167.098366_cleaned.dat
# Candidate        =  PSR_0332+5434
# Telescope        =  AR
# Epoch_topo       =  58093.620209471832
# Epoch_bary       =  N/A
# T_sample         =  0.002
# Data Folded      =  7208960
# Data Avg         =  0.0518669891337073
# Data StdDev      =  1.00059081430944 
# Profile Bins     =  512
# Profile Avg      =  730.29459877778  
# Profile StdDev   =  118.729281332536 
# Reduced chi-sqr  =  1.015
# Prob(Noise)      <  0.395   (~0.3 sigma)
# P_topo (ms)      =  714.531441218158  +/- 2.53e-05
# P'_topo (s/s)    =  -0                +/- 1.36e-11
# P''_topo (s/s^2) =  0                 +/- 6.12e-15
# P_bary (ms)      =  N/A
# P'_bary (s/s)    =  N/A
# P''_bary (s/s^2) =  N/A
# P_orb (s)        =  N/A
# asin(i)/c (s)    =  N/A
# eccentricity     =  N/A
# w (rad)          =  N/A
# T_peri           =  N/A
######################################################
   0  731.6666
   1  853.755
   2  742.4731
   3  783.5541
   4  808.8473
   5  791.9774
   6  705.8286
   7  771.9089
   8  842.025
   9  757.7541
  10  733.8533
  11  819.6562
  12  807.3161
  13  737.5785
  14  748.0118
  15  747.8108
  16  758.0939
  17  720.6135
  18  793.3655
  19  870.4896
  20  786.7593
  21  772.098
  22  845.681
  23  769.7321
  24  722.1964
  25  891.9796
  26  839.3522
  27  752.8713
  28  851.6361
  29  870.0286
  30  850.601
  31  730.5207
  32  679.8793
  33  685.5588
  34  664.4753
  35  629.2214
  36  678.9243
  37  720.4214
  38  705.2114
  39  689.5704
  40  764.3973
  41  770.3117
  42  715.5256
  43  710.9341
  44  649.8696
  45  623.4357
  46  657.8726
  47  866.1342
  48  893.3077
  49  788.814
  50  826.406
  51  872.5053
  52  791.1733
  53  647.964
  54  863.2537
  55  901.3705
  56  794.4346
  57  722.1089
  58  844.4736
  59  776.707
  60  720.2388
  61  681.9189
  62  597.9666
  63  617.6887
  64  582.6694
  65  698.2438
  66  769.6213
  67  837.9357
  68  756.3391
  69  720.9852
  70  687.5067
  71  718.7679
  72  783.6667
  73  761.5013
  74  765.2569
  75  817.5397
  76  772.5112
  77  733.4154
  78  709.4914
  79  785.9498
  80  761.4821
  81  683.2164
  82  561.0186
  83  632.7916
  84  724.1468
  85  651.0162
  86  694.1716
  87  672.7983
  88  594.4695
  89  587.6194
  90  722.2143
  91  667.367
  92  558.7497
  93  633.4933
  94  757.8741
  95  661.7786
  96  689.8209
  97  777.3977
  98  800.1152
  99  803.9321
 100  927.2106
 101  1056.167
 102  1123.762
 103  976.9771
 104  962.0219
 105  971.9933
 106  901.8403
 107  824.8262
 108  892.2609
 109  904.7936
 110  850.8658
 111  889.9899
 112  904.281
 113  780.5403
 114  723.061
 115  873.0555
 116  814.4626
 117  690.8348
 118  707.0333
 119  838.4087
 120  771.0075
 121  727.1462
 122  851.5983
 123  873.4957
 124  775.6771
 125  861.4686
 126  875.9261
 127  790.8631
 128  827.7029
 129  875.9302
 130  790.5902
 131  735.3578
 132  685.6935
 133  949.7651
 134  914.6124
 135  795.6184
 136  863.0433
 137  760.4449
 138  810.5488
 139  663.0058
 140  780.0946
 141  794.3557
 142  757.0372
 143  848.2372
 144  794.2413
 145  633.2716
 146  538.3397
 147  558.9303
 148  717.0323
 149  640.6611
 150  738.5536
 151  742.1489
 152  652.0692
 153  744.8407
 154  754.9901
 155  792.3671
 156  737.3134
 157  759.1168
 158  841.0596
 159  777.8433
 160  708.3807
 161  748.2159
 162  759.6526
 163  673.941
 164  693.5861
 165  761.5148
 166  746.0696
 167  732.5052
 168  848.6093
 169  812.5928
 170  697.7331
 171  625.784
 172  788.4127
 173  890.4413
 174  847.4818
 175  695.8911
 176  772.7285
 177  809.8161
 178  814.4004
 179  795.9038
 180  844.892
 181  878.6514
 182  855.0122
 183  746.894
 184  805.9797
 185  793.519
 186  800.4338
 187  712.3253
 188  711.6943
 189  627.0098
 190  754.2075
 191  747.3832
 192  563.2673
 193  677.9106
 194  813.5252
 195  866.7521
 196  749.8818
 197  730.7383
 198  907.3796
 199  755.8475
 200  763.667
 201  837.8969
 202  795.8821
 203  699.9796
 204  599.5698
 205  631.3789
 206  588.4466
 207  592.9959
 208  721.3309
 209  881.7491
 210  829.0113
 211  729.1022
 212  762.8765
 213  662.6586
 214  630.1062
 215  708.9814
 216  717.9262
 217  742.0925
 218  745.9289
 219  816.3994
 220  804.7614
 221  695.29
 222  610.0851
 223  775.6622
 224  767.2441
 225  719.3209
 226  716.8071
 227  788.8664
 228  767.7898
 229  685.9624
 230  641.4579
 231  805.9477
 232  733.8632
 233  640.1057
 234  743.0504
 235  661.896
 236  643.3913
 237  708.3018
 238  670.1859
 239  669.712
 240  811.7671
 241  850.725
 242  702.5067
 243  635.4989
 244  712.0195
 245  627.8765
 246  651.1005
 247  795.9882
 248  782.5813
 249  750.2913
 250  712.0724
 251  754.155
 252  723.3234
 253  687.8002
 254  622.2925
 255  685.863
 256  686.6132
 257  724.8398
 258  746.4492
 259  783.3123
 260  713.0204
 261  749.9234
 262  873.9479
 263  850.4282
 264  721.6729
 265  770.856
 266  729.2743
 267  803.6823
 268  685.0392
 269  609.5569
 270  691.9225
 271  687.8138
 272  689.3141
 273  721.5653
 274  743.5438
 275  670.7664
 276  672.8552
 277  680.907
 278  583.0574
 279  651.4775
 280  777.2127
 281  782.8052
 282  605.7207
 283  610.4297
 284  679.6714
 285  748.1536
 286  752.2833
 287  794.0961
 288  771.2905
 289  739.2153
 290  748.2026
 291  728.9787
 292  621.696
 293  659.9926
 294  659.088
 295  704.373
 296  607.858
 297  635.038
 298  846.118
 299  812.1769
 300  722.9818
 301  838.4871
 302  847.1985
 303  706.7562
 304  618.7485
 305  711.8323
 306  664.2094
 307  652.0665
 308  781.0168
 309  743.2385
 310  574.9948
 311  648.1064
 312  775.984
 313  714.4518
 314  675.2154
 315  679.1173
 316  697.3229
 317  666.5646
 318  632.7341
 319  630.0349
 320  718.4846
 321  692.4899
 322  625.4539
 323  656.6218
 324  642.2866
 325  588.3814
 326  688.0798
 327  759.1015
 328  692.9702
 329  670.9169
 330  731.2487
 331  585.384
 332  570.2614
 333  647.7763
 334  746.2184
 335  747.2746
 336  662.1068
 337  629.5636
 338  696.0287
 339  558.3427
 340  564.0797
 341  783.2285
 342  829.2389
 343  685.5127
 344  688.3254
 345  717.1608
 346  564.6514
 347  645.673
 348  805.3273
 349  763.1226
 350  662.473
 351  667.9636
 352  682.9906
 353  647.0396
 354  704.8445
 355  715.6694
 356  571.5406
 357  532.7011
 358  701.5644
 359  824.5261
 360  655.0723
 361  578.8328
 362  663.0557
 363  581.9055
 364  505.2343
 365  573.1542
 366  743.6619
 367  767.124
 368  705.1924
 369  805.4326
 370  836.9033
 371  709.1895
 372  666.402
 373  805.1353
 374  759.6995
 375  664.1911
 376  648.1646
 377  731.8438
 378  668.569
 379  670.2827
 380  807.3782
 381  758.7084
 382  658.3764
 383  715.9741
 384  855.5463
 385  731.9197
 386  628.0609
 387  689.2034
 388  808.1633
 389  782.4622
 390  807.9664
 391  811.6014
 392  686.9517
 393  760.8574
 394  813.6188
 395  775.1552
 396  666.8355
 397  699.5671
 398  793.0474
 399  836.1104
 400  697.0027
 401  712.5411
 402  796.0909
 403  715.1816
 404  796.2971
 405  831.6036
 406  837.1888
 407  699.3497
 408  682.8756
 409  760.8775
 410  663.6975
 411  561.8058
 412  622.5802
 413  723.6502
 414  626.9224
 415  653.7813
 416  814.6642
 417  651.4061
 418  565.0598
 419  636.3726
 420  711.0844
 421  687.6822
 422  628.1288
 423  631.881
 424  721.8978
 425  670.6777
 426  725.5822
 427  631.2015
 428  538.6552
 429  633.7576
 430  586.7123
 431  602.0183
 432  676.9277
 433  688.9124
 434  770.7374
 435  572.6852
 436  568.3489
 437  615.6615
 438  658.7979
 439  720.8002
 440  717.1999
 441  768.33
 442  794.2637
 443  606.5677
 444  597.5847
 445  681.5641
 446  671.9682
 447  750.7134
 448  878.3085
 449  693.9924
 450  594.1184
 451  629.4608
 452  765.123
 453  814.0607
 454  713.9276
 455  763.6592
 456  850.7971
 457  744.5858
 458  668.6421
 459  786.7858
 460  707.0974
 461  594.7382
 462  568.8953
 463  683.8251
 464  736.8038
 465  644.4276
 466  752.4292
 467  716.7431
 468  595.7404
 469  700.0131
 470  784.7654
 471  814.366
 472  755.4227
 473  763.6718
 474  741.9285
 475  673.9341
 476  670.0884
 477  644.251
 478  597.2554
 479  603.2229
 480  737.3537
 481  767.0151
 482  783.545
 483  773.8029
 484  828.4142
 485  806.7482
 486  710.7668
 487  712.2789
 488  703.4327
 489  716.4338
 490  688.2828
 491  768.1542
 492  669.3555
 493  614.6896
 494  687.5129
 495  759.9362
 496  807.837
 497  754.8317
 498  743.5529
 499  743.4332
 500  661.3985
 501  640.4528
 502  772.2452
 503  801.1598
 504  701.7086
 505  859.6302
 506  799.2506
 507  721.7704
 508  722.5106
 509  768.8931
 510  705.466
 511  750.2433
