# Input file       =  1196966586.130779_cleaned.dat
# Candidate        =  PSR_0332+5434
# Telescope        =  AR
# Epoch_topo       =  58097.780151976607
# Epoch_bary       =  N/A
# T_sample         =  0.002
# Data Folded      =  7340032
# Data Avg         =  0.0750022491117903
# Data StdDev      =  1.00017054630012 
# Profile Bins     =  512
# Profile Avg      =  1075.50572151661 
# Profile StdDev   =  119.753456403123 
# Reduced chi-sqr  =  0.740
# Prob(Noise)      <  1   (~0.0 sigma)
# P_topo (ms)      =  714.535689804289  +/- 0.000243
# P'_topo (s/s)    =  -0                +/- 1.28e-10
# P''_topo (s/s^2) =  0                 +/- 5.67e-14
# P_bary (ms)      =  N/A
# P'_bary (s/s)    =  N/A
# P''_bary (s/s^2) =  N/A
# P_orb (s)        =  N/A
# asin(i)/c (s)    =  N/A
# eccentricity     =  N/A
# w (rad)          =  N/A
# T_peri           =  N/A
######################################################
   0  1486.105
   1  1368.864
   2  1272.851
   3  1220.896
   4  1092.958
   5  1062.998
   6  1193.107
   7  1091.679
   8  1055.797
   9  1089.851
  10  1094.314
  11  1052.95
  12  1028.792
  13  1092.861
  14  1070.998
  15  1075.568
  16  1126.918
  17  1164.626
  18  1069.184
  19  1088.352
  20  1123.247
  21  1137.129
  22  1163.705
  23  1120.584
  24  1024.87
  25  1016.074
  26  1026.875
  27  1142.546
  28  1198.431
  29  1106.131
  30  995.2971
  31  1037.227
  32  1093.393
  33  1176.579
  34  1226.273
  35  1088.68
  36  1062.958
  37  1179.119
  38  1198.503
  39  1140.259
  40  1099.135
  41  1066.13
  42  921.4824
  43  977.2532
  44  1036.408
  45  1088.645
  46  1111.135
  47  1055.747
  48  1154.809
  49  1110.121
  50  1033.502
  51  1040.806
  52  1173.326
  53  1088.755
  54  1104.68
  55  1217.479
  56  1113.509
  57  1102.076
  58  1039.16
  59  1056.864
  60  1017.406
  61  1050.021
  62  1110.854
  63  1106.913
  64  1076.255
  65  1131.342
  66  1066.562
  67  946.7623
  68  950.7886
  69  1015.742
  70  1070.886
  71  1026.593
  72  1079.987
  73  1089.448
  74  1058.633
  75  1046.282
  76  983.6487
  77  1058.918
  78  933.2417
  79  1024.74
  80  1027.962
  81  996.2646
  82  1009.907
  83  992.5432
  84  1030.766
  85  1071.657
  86  1032.652
  87  1037.172
  88  1053.842
  89  1041.25
  90  1173.949
  91  1255.79
  92  1220.295
  93  1045.872
  94  979.3818
  95  1028.108
  96  1122.903
  97  1079.808
  98  1008.594
  99  957.252
 100  1111.972
 101  1235.726
 102  1175.315
 103  1117.87
 104  1167.91
 105  1145.782
 106  1039.895
 107  1048.929
 108  1038.598
 109  1112.234
 110  1061.655
 111  1087.08
 112  1156.301
 113  1116.566
 114  1122.681
 115  1110.269
 116  1133.291
 117  1120.423
 118  974.5688
 119  1035.727
 120  1074.607
 121  1055.697
 122  1098.765
 123  1134.171
 124  1113.853
 125  1083.477
 126  1077.228
 127  1063.801
 128  1059.686
 129  1015.978
 130  1040.008
 131  1117.54
 132  1219.325
 133  1147.113
 134  1207.364
 135  1174.65
 136  1062.179
 137  994.5048
 138  1052.599
 139  1009.434
 140  1015.658
 141  1041.395
 142  1038.864
 143  1090.966
 144  1169.923
 145  1119.151
 146  1101.199
 147  1105.993
 148  1040.579
 149  1021.514
 150  982.3806
 151  973.8013
 152  1039.885
 153  1133.557
 154  1094.426
 155  1120.731
 156  1203.909
 157  1142.996
 158  1092.043
 159  1091.523
 160  1192.537
 161  1190.285
 162  1161.534
 163  1042.734
 164  984.0342
 165  958.8163
 166  1036.751
 167  988.3987
 168  1109.964
 169  1130.295
 170  1132.898
 171  1104.124
 172  934.4931
 173  1001.509
 174  1140.884
 175  1141.091
 176  1199.382
 177  1165.478
 178  1089.894
 179  1065.044
 180  1071.51
 181  1105.769
 182  1106.667
 183  1068.597
 184  1112.223
 185  1181.334
 186  1141.66
 187  1173.86
 188  1105.007
 189  1102.038
 190  1150.152
 191  1116.12
 192  1095.676
 193  1061.126
 194  1000.515
 195  1054.221
 196  1133.162
 197  1172.731
 198  1231.909
 199  1148.679
 200  991.1722
 201  1086.641
 202  1128.271
 203  1157.61
 204  1159.051
 205  1159.908
 206  1115.63
 207  1103.082
 208  1164.55
 209  1151.409
 210  1066.958
 211  1006.951
 212  1007.561
 213  1084.135
 214  1059.026
 215  1064.167
 216  1139.27
 217  1148.635
 218  1071.358
 219  965.9005
 220  1077.747
 221  1087.776
 222  1005.024
 223  1143.702
 224  1043.231
 225  900.01
 226  965.6378
 227  1025.761
 228  1048.345
 229  982.7666
 230  921.1138
 231  1032.342
 232  1145.721
 233  1212.006
 234  1136.536
 235  1114.191
 236  1016.206
 237  1006.306
 238  1136.332
 239  1193.927
 240  1145.563
 241  1214.154
 242  1094.531
 243  1082.198
 244  1035.743
 245  1099.936
 246  1108.319
 247  1011.085
 248  1056.491
 249  1094.807
 250  1009.015
 251  983.2446
 252  998.9106
 253  977.975
 254  956.3527
 255  965.6199
 256  1060.507
 257  1056.961
 258  1102.229
 259  1076.011
 260  993.077
 261  995.5253
 262  997.8739
 263  1063.845
 264  1157.791
 265  975.415
 266  1070.377
 267  1072.858
 268  1059.062
 269  1005.789
 270  1024.028
 271  1070.099
 272  1121.516
 273  1087.281
 274  1073.595
 275  1018.373
 276  1090.25
 277  1127.866
 278  1075.101
 279  1033.342
 280  1030.335
 281  1062.313
 282  1021.134
 283  1040.979
 284  1049.12
 285  984.9379
 286  1003.343
 287  1062.3
 288  1098.434
 289  1011.272
 290  1008.741
 291  969.4608
 292  1125.309
 293  1111.06
 294  1045.972
 295  1036.548
 296  959.6982
 297  909.8456
 298  923.3615
 299  1027.047
 300  1145.83
 301  1046.845
 302  1084.329
 303  1072.929
 304  1064.925
 305  1140.168
 306  1129.754
 307  1136.057
 308  1040.078
 309  934.3368
 310  1000.095
 311  1034.993
 312  1033.4
 313  1052.763
 314  1088.014
 315  1012.392
 316  1008.058
 317  1038.133
 318  1033.633
 319  1099.208
 320  1015.45
 321  1074.347
 322  1094.858
 323  1098.66
 324  1090.745
 325  1089.941
 326  1018.228
 327  1101.882
 328  1131.434
 329  1011.042
 330  989.1607
 331  1045.946
 332  1066.072
 333  1004.302
 334  1066.091
 335  1075.688
 336  1013.243
 337  992.2357
 338  940.6664
 339  976.2928
 340  1028.931
 341  976.3608
 342  964.8063
 343  1012.958
 344  1031.123
 345  1034.344
 346  1034.478
 347  1008.659
 348  1004.106
 349  1088.941
 350  1043.762
 351  1013.201
 352  1023.054
 353  996.7729
 354  975.194
 355  962.8094
 356  1086.37
 357  989.5509
 358  1011.048
 359  1088.66
 360  1074.548
 361  981.1238
 362  1039.424
 363  1037.412
 364  1074.455
 365  1005.502
 366  1006.755
 367  1015.289
 368  1135.998
 369  1168.234
 370  1080.528
 371  1055.783
 372  1067.262
 373  1017.104
 374  1085.732
 375  1015.693
 376  927.1814
 377  942.0293
 378  925.5471
 379  918.3279
 380  926.8679
 381  964.95
 382  979.1507
 383  928.3775
 384  985.855
 385  1035.987
 386  1057.556
 387  1020.394
 388  1028.635
 389  979.2249
 390  893.0679
 391  921.5422
 392  1023.635
 393  1029.121
 394  981.558
 395  1005.852
 396  997.738
 397  1027.722
 398  973.3188
 399  1060.543
 400  1123.097
 401  1080.86
 402  1077.979
 403  1027.424
 404  996.5892
 405  1038.836
 406  1101.258
 407  1116.638
 408  1009.288
 409  1059.183
 410  1173.265
 411  1121.212
 412  1140.029
 413  1102.213
 414  1045.821
 415  1163.157
 416  1180.692
 417  1153.617
 418  1107.009
 419  1133.648
 420  1044.215
 421  1047.935
 422  989.8821
 423  1053.768
 424  1136.684
 425  1128.812
 426  1049.081
 427  1010.105
 428  1095.734
 429  1069.764
 430  1057.27
 431  1112.64
 432  982.446
 433  985.6855
 434  1072.583
 435  1150.551
 436  1191.382
 437  1146.444
 438  1137.857
 439  1249.004
 440  1207.148
 441  1227.677
 442  1240.842
 443  1197.827
 444  1136.719
 445  1168.447
 446  1167.451
 447  1117.734
 448  1115.728
 449  1201.363
 450  1154.016
 451  1046.244
 452  1066.446
 453  1115.856
 454  1017.723
 455  1043.286
 456  1057.905
 457  1141.135
 458  1116.477
 459  1078.759
 460  1155.612
 461  1117.248
 462  1122.264
 463  1013.152
 464  1075.627
 465  1150.331
 466  1085.89
 467  1081.806
 468  1051.693
 469  1133.405
 470  1118.223
 471  1082.021
 472  1042.121
 473  1092.688
 474  1081.018
 475  1040.623
 476  966.7758
 477  1102.213
 478  1106.12
 479  1056.005
 480  1109.209
 481  1045.636
 482  1071.755
 483  1081.626
 484  1048.824
 485  1099.35
 486  1054.436
 487  1009.638
 488  1051.608
 489  1219.513
 490  1227.205
 491  1195.912
 492  1083.226
 493  996.4371
 494  977.9332
 495  1088.065
 496  1112.058
 497  1103.176
 498  984.7739
 499  1127.876
 500  1222.544
 501  1095.285
 502  1180.853
 503  1201.719
 504  1103.261
 505  1021.262
 506  1098.175
 507  1151.554
 508  1165.011
 509  1214.433
 510  1262.044
 511  1387.046
