# Input file       =  1196450039.108316_cleaned.dat
# Candidate        =  PSR_0332+5434
# Telescope        =  AR
# Epoch_topo       =  58091.801598475882
# Epoch_bary       =  N/A
# T_sample         =  0.002
# Data Folded      =  7340032
# Data Avg         =  0.682481033340862
# Data StdDev      =  5.9030110552512  
# Profile Bins     =  1024
# Profile Avg      =  4892.08065545718 
# Profile StdDev   =  499.772775637108 
# Reduced chi-sqr  =  0.758
# Prob(Noise)      <  1   (~0.0 sigma)
# P_topo (ms)      =  714.529597291275  +/- 2.06e-05
# P'_topo (s/s)    =  -0                +/- 1.09e-11
# P''_topo (s/s^2) =  0                 +/- 4.8e-15
# P_bary (ms)      =  N/A
# P'_bary (s/s)    =  N/A
# P''_bary (s/s^2) =  N/A
# P_orb (s)        =  N/A
# asin(i)/c (s)    =  N/A
# eccentricity     =  N/A
# w (rad)          =  N/A
# T_peri           =  N/A
######################################################
   0  5010.357
   1  5045.204
   2  4958.586
   3  4777.578
   4  4586.387
   5  4523.75
   6  4702.778
   7  4962.807
   8  5084.229
   9  4884.835
  10  4880.342
  11  4931.985
  12  5003.572
  13  4896.023
  14  4926.53
  15  5192.763
  16  4997.927
  17  4797.952
  18  4540.086
  19  4581.1
  20  4567.762
  21  4744.802
  22  4933.773
  23  4943.215
  24  4939.25
  25  4758.295
  26  4691.462
  27  4625.363
  28  4705.285
  29  4879.916
  30  5038.006
  31  5070.206
  32  4874.837
  33  4826.734
  34  4834.523
  35  4893.444
  36  4943.2
  37  4885.848
  38  4808.74
  39  4939.925
  40  5025.491
  41  4842.714
  42  4785.863
  43  4886.303
  44  5066.709
  45  4902.042
  46  4746.164
  47  4597.75
  48  4469.525
  49  4386.712
  50  4574.884
  51  4887.303
  52  5204.184
  53  5226.62
  54  5144.87
  55  5066.809
  56  4824.188
  57  4861.105
  58  5023.086
  59  5076.999
  60  5234.772
  61  5204.516
  62  5103.854
  63  4969.588
  64  4979.682
  65  5019.571
  66  4998.18
  67  4952.73
  68  5104.138
  69  5122.98
  70  5024.119
  71  5005.315
  72  5092.638
  73  5255.534
  74  5143.92
  75  4808.296
  76  4585.922
  77  4416.243
  78  4367.534
  79  4556.296
  80  4855.182
  81  5155.382
  82  4989.78
  83  4761.979
  84  4553.418
  85  4638.257
  86  4838.787
  87  4920.729
  88  4974.552
  89  4948.257
  90  4911.138
  91  4740.937
  92  4602.481
  93  4643.775
  94  4787.413
  95  4878.141
  96  4842.642
  97  4788.733
  98  4801.951
  99  4931.084
 100  5154.638
 101  5340.233
 102  5454.062
 103  5289.486
 104  4925.756
 105  4514.665
 106  4190.056
 107  4259.517
 108  4629.753
 109  5077.9
 110  5198.062
 111  5066.353
 112  4902.173
 113  4955.126
 114  5022.75
 115  5039.315
 116  4984.598
 117  5016.146
 118  4816.659
 119  4746.066
 120  4628.943
 121  4681.402
 122  4866.83
 123  5086.237
 124  5174.179
 125  5100.49
 126  4984.791
 127  4879.408
 128  4812.154
 129  4895.103
 130  5065.685
 131  5004.021
 132  4907.087
 133  4813.256
 134  4794.091
 135  4744.822
 136  4914.5
 137  5161.005
 138  5375.264
 139  5119.118
 140  4885.824
 141  4779.817
 142  4655.675
 143  4470.119
 144  4633.361
 145  4821.14
 146  4823.496
 147  4573.856
 148  4392.119
 149  4380.106
 150  4687.009
 151  4963.347
 152  5034.102
 153  4975.864
 154  4950.116
 155  4822.88
 156  4672.376
 157  4684.498
 158  4824.056
 159  4931.703
 160  4746.484
 161  4572.147
 162  4504.809
 163  4507.078
 164  4621.344
 165  4852.791
 166  5087.358
 167  5160.962
 168  5202.026
 169  5075.649
 170  5033.345
 171  5108.872
 172  5201.336
 173  5280.364
 174  5161.738
 175  5129.21
 176  4804.444
 177  4727.527
 178  4668.975
 179  4651.362
 180  4733.847
 181  4702.601
 182  4782.164
 183  4864.988
 184  4871.411
 185  4814.914
 186  4888.882
 187  5202.404
 188  5145.236
 189  4849.273
 190  4598.093
 191  4649.155
 192  4552.978
 193  4513.428
 194  4681.704
 195  4943.002
 196  4921.119
 197  4658.646
 198  4633.509
 199  4756.06
 200  4866.894
 201  4888.766
 202  4962.501
 203  4959.687
 204  4883.727
 205  4783.516
 206  4750.613
 207  4763.638
 208  4813.711
 209  4774.391
 210  4751.637
 211  4832.09
 212  4837.447
 213  4736.896
 214  4756.281
 215  5062.141
 216  5281.5
 217  5184.137
 218  4936.627
 219  4794.803
 220  4633.824
 221  4508.612
 222  4690.98
 223  4842.83
 224  4924.617
 225  4780.049
 226  4685.34
 227  4662.591
 228  4655.793
 229  4775.748
 230  4773.151
 231  4735.443
 232  4816.523
 233  4762.164
 234  4617.296
 235  4609.586
 236  4736.835
 237  4912.805
 238  5001.317
 239  5078.826
 240  5040.026
 241  4975.507
 242  4945.196
 243  5224.723
 244  5259.007
 245  5200.621
 246  5014.179
 247  4705.601
 248  4617.112
 249  4500.374
 250  4595.542
 251  4814.348
 252  5172.519
 253  5237.685
 254  5096.293
 255  4882.771
 256  4797.201
 257  4761.123
 258  4984.745
 259  5161.57
 260  5183.548
 261  5089.972
 262  4964.557
 263  4781.669
 264  4768.938
 265  4763.572
 266  4757.554
 267  4778.957
 268  4798.911
 269  4884.118
 270  4884.885
 271  4959.692
 272  5108.357
 273  5160.966
 274  5066.688
 275  4959.689
 276  4914.439
 277  4780.694
 278  4550.602
 279  4398.894
 280  4578.026
 281  4783.529
 282  4893.181
 283  4825.533
 284  4918.618
 285  4990.015
 286  5073.763
 287  5027.824
 288  5098.497
 289  4949.05
 290  4897.004
 291  4850.07
 292  4809.112
 293  4873.225
 294  5146.198
 295  5205.176
 296  4996.902
 297  4712.089
 298  4717.43
 299  4861.333
 300  5058.793
 301  5114.623
 302  5214.894
 303  5099.546
 304  4880.201
 305  4685.635
 306  4612.816
 307  4582.461
 308  4758.555
 309  5210.782
 310  5385.484
 311  5033.787
 312  4846.37
 313  4877.009
 314  4880.93
 315  4755.837
 316  4789.749
 317  4828.771
 318  4830.317
 319  4706.228
 320  4680.891
 321  4865.214
 322  4950.729
 323  4946.912
 324  4726.615
 325  4549.608
 326  4489.376
 327  4525.283
 328  4522.41
 329  4766.837
 330  5040.972
 331  5311.064
 332  4967.665
 333  4729.47
 334  4510.604
 335  4479.796
 336  4512.841
 337  4713.712
 338  4715.915
 339  4632.99
 340  4531.2
 341  4744.623
 342  4857.076
 343  4857.451
 344  4723.373
 345  4839.712
 346  4843.469
 347  4765.757
 348  4614.059
 349  4525.215
 350  4634.808
 351  4755.206
 352  4882.295
 353  4818.347
 354  4779.496
 355  4788.092
 356  4822.057
 357  4865.018
 358  5045.185
 359  5456.283
 360  5387.434
 361  5235.997
 362  4960.712
 363  4824.4
 364  4742.678
 365  4751.417
 366  5077.26
 367  5205.219
 368  5173.149
 369  4970.07
 370  4974.113
 371  4991.233
 372  5028.436
 373  4983.233
 374  5085.14
 375  4999.192
 376  4861.205
 377  4698.905
 378  4780.995
 379  4946.696
 380  5262.937
 381  5399.087
 382  5347.082
 383  5083.905
 384  4895.402
 385  4658.389
 386  4590.502
 387  4775.38
 388  4954.35
 389  4984.104
 390  4862.51
 391  4712.59
 392  4589.674
 393  4558
 394  4557.471
 395  4861.14
 396  5078.145
 397  5097.688
 398  5013.139
 399  4975.087
 400  4998.335
 401  5119.541
 402  5153.942
 403  5052.332
 404  4792.259
 405  4742.08
 406  4705.8
 407  4637.099
 408  4704.523
 409  4863.543
 410  4798.327
 411  4635.358
 412  4512.378
 413  4497.205
 414  4477.926
 415  4577.599
 416  4692.929
 417  4815.741
 418  4663.833
 419  4479.721
 420  4377.473
 421  4227.154
 422  4335.707
 423  4569.472
 424  4747.697
 425  4667.001
 426  4432.731
 427  4310.958
 428  4185.813
 429  4275.416
 430  4492.23
 431  4594.019
 432  4561.89
 433  4736.422
 434  5062.705
 435  5045.302
 436  5124.058
 437  5302.688
 438  5518.286
 439  5173.708
 440  4840.077
 441  4771.132
 442  4656.045
 443  4680.071
 444  4850.73
 445  5149.429
 446  5269.311
 447  5131.889
 448  5014.997
 449  4763.348
 450  4550.891
 451  4517.627
 452  4909.364
 453  5033.855
 454  5097.157
 455  4939.029
 456  4891.774
 457  4743.66
 458  4779.259
 459  4883.276
 460  4891.782
 461  4902.731
 462  4680.121
 463  4581.5
 464  4376.731
 465  4322.964
 466  4638.954
 467  4743.435
 468  4707.863
 469  4484.622
 470  4554.714
 471  4828.109
 472  5053.134
 473  5038.755
 474  5147.553
 475  5131.023
 476  5148.784
 477  5007.377
 478  4710.925
 479  4673.774
 480  4804.93
 481  5064.125
 482  5196.078
 483  4842.27
 484  4597.208
 485  4771.304
 486  5029.22
 487  5087.127
 488  5020.403
 489  4906.386
 490  4953.782
 491  4766.032
 492  4692.173
 493  4754.43
 494  4979.083
 495  5108.066
 496  4950.119
 497  4822.58
 498  4694.089
 499  4678.135
 500  4555.85
 501  4748.231
 502  5055.151
 503  5247.585
 504  5066.107
 505  4726.787
 506  4619.398
 507  4611.922
 508  4651.909
 509  4876.444
 510  5025.693
 511  4957.649
 512  4564.614
 513  4533.48
 514  4500.416
 515  4429.026
 516  4362.798
 517  4570.671
 518  4696.387
 519  4656.527
 520  4372.809
 521  4370.376
 522  4543.645
 523  4803.144
 524  5009.695
 525  4951.543
 526  4862.973
 527  4702.534
 528  4596.46
 529  4605.41
 530  4730.022
 531  5011.379
 532  5218.294
 533  5010.476
 534  4771.976
 535  4561.613
 536  4462.648
 537  4474.201
 538  4492.431
 539  4620.178
 540  4655.517
 541  4623.451
 542  4585.18
 543  4537.711
 544  4709.939
 545  4693.281
 546  4801.891
 547  4889.464
 548  5069.666
 549  4911.358
 550  4998.656
 551  4897.902
 552  4970.665
 553  4822.639
 554  4545.166
 555  4466.68
 556  4407.005
 557  4515.945
 558  4601.779
 559  4858.656
 560  5040.96
 561  5103.464
 562  5016.265
 563  4885.323
 564  4717.996
 565  4611.228
 566  4702.052
 567  4766.976
 568  4785.471
 569  4708.726
 570  4629.125
 571  4635.207
 572  4704.596
 573  4867.313
 574  4905.512
 575  4796.96
 576  4724.57
 577  4782.207
 578  4756.668
 579  4759.148
 580  4757.459
 581  4926.648
 582  4917.491
 583  4819.957
 584  4846.829
 585  4821.2
 586  4886.253
 587  4909.864
 588  5064.789
 589  5193.352
 590  5000.672
 591  4795.111
 592  4674.731
 593  4678.324
 594  4566.529
 595  4761.009
 596  4981.988
 597  5059.095
 598  4732.375
 599  4498.851
 600  4572.013
 601  4832.675
 602  4950.587
 603  5055.293
 604  4997.458
 605  5066.441
 606  4853.644
 607  4636.756
 608  4463.199
 609  4624.935
 610  4768.227
 611  4580.773
 612  4447.765
 613  4556.82
 614  4802.62
 615  5070.107
 616  5293.904
 617  5458.654
 618  5279.291
 619  5134.785
 620  5095.99
 621  5062.118
 622  4994.441
 623  5246.026
 624  5626.893
 625  5765.119
 626  5728.679
 627  5603.368
 628  5589.747
 629  5480.609
 630  5461.169
 631  5758.275
 632  5610.149
 633  5448.764
 634  5147.447
 635  5037.794
 636  5048.998
 637  5168.664
 638  5315.344
 639  5148.022
 640  4990.529
 641  4884.801
 642  4761.603
 643  4601.099
 644  4873.647
 645  5223.268
 646  5475.984
 647  5095.94
 648  4892.254
 649  4915.988
 650  4971.409
 651  4930.326
 652  4958.553
 653  5062.925
 654  5122.326
 655  4914.679
 656  4737.692
 657  4708.769
 658  4861.361
 659  5128.595
 660  5247.917
 661  5275.993
 662  5279.524
 663  5052.365
 664  4861.141
 665  4943.415
 666  5080.043
 667  5207.444
 668  5028.143
 669  5039.44
 670  5003.821
 671  4800.117
 672  4700.835
 673  4842.207
 674  5035.954
 675  5027.134
 676  4870.622
 677  4770.105
 678  4746.445
 679  4711.101
 680  4818.59
 681  5014.231
 682  5144.828
 683  5056.716
 684  4867.065
 685  4737.813
 686  4815.748
 687  4938.441
 688  5019.149
 689  4997.423
 690  4849.128
 691  4872.705
 692  4754.384
 693  4747.327
 694  4848.704
 695  4991.791
 696  5140.832
 697  5238.561
 698  5138.587
 699  5081.892
 700  4962.465
 701  4970.223
 702  5106.28
 703  5347.347
 704  5592.033
 705  5309.964
 706  5071.734
 707  4799.99
 708  4733.566
 709  4699.94
 710  5006.01
 711  4919.21
 712  4720.883
 713  4740.227
 714  4847.988
 715  4998.355
 716  5019.666
 717  5198.295
 718  5245.464
 719  5200.17
 720  4980.396
 721  4976.933
 722  4979.908
 723  4891.983
 724  4938.65
 725  4682.604
 726  4591.09
 727  4403.927
 728  4578.508
 729  4717.437
 730  4869.076
 731  5039.8
 732  5112.857
 733  5130.104
 734  5144.231
 735  4960.015
 736  4723.126
 737  4741.959
 738  4883.735
 739  5032.185
 740  5193.273
 741  5129.48
 742  4847.976
 743  4656.839
 744  4647.143
 745  4832.149
 746  4877.146
 747  5028.501
 748  5035.355
 749  4851.135
 750  4680.589
 751  4803.614
 752  4977.833
 753  5120.649
 754  5131.897
 755  5041.409
 756  4790.769
 757  4601.636
 758  4493.08
 759  4713.373
 760  4974.166
 761  5404.297
 762  5456.589
 763  5393.571
 764  5162.503
 765  5104.844
 766  5141.336
 767  5341.57
 768  5362.33
 769  5304.865
 770  5007.579
 771  5030.907
 772  5034.597
 773  5116.706
 774  5168.588
 775  5248.401
 776  5223.724
 777  5044.595
 778  4998.025
 779  5020.829
 780  5174.938
 781  5349.649
 782  5255.489
 783  5027.03
 784  4694.366
 785  4670.811
 786  4730.906
 787  4908.513
 788  5233.965
 789  5421.044
 790  5387.327
 791  4996.345
 792  4834.448
 793  4688.13
 794  4753.884
 795  4740.394
 796  4899.213
 797  4736.134
 798  4580.431
 799  4512.568
 800  4697.604
 801  4757.328
 802  4775.624
 803  4812.183
 804  4858.23
 805  4906.915
 806  4786.683
 807  4624.007
 808  4691.966
 809  4800.406
 810  5164.804
 811  5073.456
 812  4969.285
 813  4770.154
 814  4836.989
 815  4784.128
 816  4742.937
 817  4986.715
 818  5261.992
 819  5293.579
 820  5144.418
 821  5062.179
 822  5101.843
 823  5185.094
 824  5198.143
 825  5154.63
 826  5161.673
 827  5115.506
 828  5031.576
 829  4937.488
 830  4947.512
 831  4991.652
 832  5024.782
 833  5096.393
 834  5156.162
 835  5063.307
 836  4872.03
 837  5028.437
 838  5262.414
 839  5377.718
 840  5092.284
 841  4743.444
 842  4558.961
 843  4360.159
 844  4370.156
 845  4486.251
 846  4785.982
 847  4939.45
 848  5016.621
 849  4861.59
 850  4624.741
 851  4607.697
 852  4799.25
 853  5075.222
 854  5142.16
 855  4959.9
 856  4632.099
 857  4404.027
 858  4486.448
 859  4591.703
 860  4767.776
 861  4758.432
 862  4779.789
 863  4878.848
 864  4901.217
 865  4757.306
 866  4816.411
 867  4943.688
 868  5034.833
 869  4857.868
 870  4593.991
 871  4470.787
 872  4401.329
 873  4674.191
 874  4937.256
 875  4975.469
 876  4889.019
 877  4691.694
 878  4680.478
 879  4464.961
 880  4397.874
 881  4524.08
 882  4715.088
 883  4849.387
 884  4834.513
 885  4885.403
 886  4879.553
 887  4858.246
 888  5023.662
 889  4889.399
 890  4857.923
 891  4693.872
 892  4716.926
 893  4601.821
 894  4642.749
 895  4903.113
 896  5170.776
 897  5125.64
 898  5008.012
 899  4935.727
 900  4782.896
 901  4681.495
 902  4875.494
 903  4992.634
 904  5036.789
 905  4829.436
 906  4844.562
 907  4735.114
 908  4716.345
 909  4829.325
 910  5130.951
 911  5131.438
 912  5172.49
 913  5167.471
 914  5214.624
 915  5171.458
 916  5245.426
 917  5306.092
 918  5235.93
 919  5183.163
 920  5125.139
 921  5158.268
 922  4964.323
 923  5120.179
 924  5228.216
 925  5353.383
 926  5172.236
 927  5058.66
 928  4955.267
 929  4932.704
 930  4924.163
 931  5178.192
 932  5184.279
 933  5276.329
 934  5129.981
 935  5105.505
 936  4815.864
 937  4785.703
 938  4889.292
 939  5086.375
 940  5062.971
 941  5197.335
 942  5086.03
 943  5018.923
 944  4847.331
 945  4936.486
 946  4941.367
 947  4825.234
 948  4797.694
 949  4789.894
 950  4673.765
 951  4566.417
 952  4669.804
 953  4923.625
 954  4819.485
 955  4585.631
 956  4604.292
 957  4778.847
 958  4876.694
 959  4851.139
 960  4962.706
 961  5240.107
 962  5183.014
 963  5075.021
 964  4961.967
 965  4954.629
 966  5033.133
 967  5068.198
 968  5087.025
 969  5052.286
 970  4969.547
 971  4862.736
 972  5003.889
 973  5133.409
 974  5415.173
 975  5286.322
 976  5091.899
 977  5040.482
 978  5030.561
 979  4837.982
 980  4865.957
 981  4988.094
 982  5257.984
 983  5104.079
 984  4878.765
 985  4685.075
 986  4694.033
 987  4711.176
 988  4845.788
 989  5147.527
 990  5411.048
 991  5414.294
 992  5184.136
 993  5049.992
 994  4828.406
 995  4798.824
 996  4884.938
 997  4993.822
 998  5083.456
 999  5005.991
1000  4904.402
1001  5045.587
1002  5196.641
1003  5363.19
1004  5153.893
1005  5113.776
1006  5053.328
1007  4881.336
1008  4640.099
1009  4668.038
1010  4988.324
1011  5261.407
1012  5282.808
1013  5134.526
1014  4967.458
1015  4760.948
1016  4748.68
1017  4847.066
1018  5024.635
1019  5112.316
1020  4979.957
1021  5072.799
1022  5054.788
1023  5122.397
