# Input file       =  1196090719.110027_cleaned.dat
# Candidate        =  PSR_0332+5434
# Telescope        =  AR
# Epoch_topo       =  58087.642802199385
# Epoch_bary       =  N/A
# T_sample         =  0.002
# Data Folded      =  7208960
# Data Avg         =  0.566737556785601
# Data StdDev      =  10.7397189079139 
# Profile Bins     =  512
# Profile Avg      =  7979.56356666152 
# Profile StdDev   =  1274.36619386726 
# Reduced chi-sqr  =  0.621
# Prob(Noise)      <  1   (~0.0 sigma)
# P_topo (ms)      =  714.525295707568  +/- 5.24e-05
# P'_topo (s/s)    =  -0                +/- 2.81e-11
# P''_topo (s/s^2) =  0                 +/- 1.26e-14
# P_bary (ms)      =  N/A
# P'_bary (s/s)    =  N/A
# P''_bary (s/s^2) =  N/A
# P_orb (s)        =  N/A
# asin(i)/c (s)    =  N/A
# eccentricity     =  N/A
# w (rad)          =  N/A
# T_peri           =  N/A
######################################################
   0  7489.461
   1  7108.888
   2  7057.914
   3  7782.274
   4  7900.04
   5  7899.489
   6  7587.884
   7  7697.473
   8  7845.866
   9  7885.214
  10  8032.448
  11  8036.66
  12  8845.205
  13  8032.046
  14  7803.827
  15  8190.422
  16  8305.813
  17  8038.23
  18  8125.96
  19  9026.759
  20  8741.634
  21  8665.181
  22  7819.934
  23  8087.473
  24  7231.484
  25  7442.191
  26  8213.06
  27  8115.831
  28  8201.88
  29  7824.298
  30  7402.165
  31  7582.94
  32  8106.264
  33  8286.352
  34  7995.333
  35  7333.988
  36  8225.596
  37  8489.466
  38  7769.881
  39  7886.164
  40  8030.101
  41  7940.483
  42  8470.452
  43  9115.988
  44  8663.101
  45  8589.125
  46  8232.859
  47  7450.785
  48  7285.355
  49  6488.838
  50  7156.552
  51  8326.929
  52  7784.131
  53  8142.217
  54  7846.546
  55  8264.093
  56  7114.638
  57  7187.395
  58  7689.87
  59  6950.431
  60  7083.349
  61  8221.766
  62  8930.673
  63  8629.512
  64  7762.765
  65  7960.966
  66  8105.596
  67  7545.805
  68  8054.923
  69  8340.729
  70  8639.168
  71  7559.963
  72  7484.447
  73  7900.563
  74  7696.439
  75  7114.493
  76  7426.965
  77  8241.104
  78  8200.611
  79  8167.341
  80  8221.481
  81  7733.25
  82  8101.903
  83  8854.913
  84  9125.399
  85  8268.582
  86  8478.905
  87  8002.704
  88  8199.979
  89  8839.933
  90  8618.892
  91  8934.048
  92  8321.342
  93  7937.615
  94  8913.202
  95  8278.441
  96  7848.916
  97  8392.836
  98  8611.122
  99  8083.497
 100  8203.479
 101  8518.268
 102  9186.783
 103  8399.148
 104  8955.368
 105  9095.68
 106  8876.232
 107  8840.845
 108  9417.539
 109  9606.373
 110  9033.162
 111  8924.785
 112  8345.174
 113  8668.955
 114  8754.505
 115  8895.127
 116  9012.889
 117  8649.042
 118  8848.715
 119  8856.847
 120  8952.602
 121  8046.869
 122  7966.231
 123  8770.046
 124  8569.938
 125  7384.344
 126  7395.945
 127  7820.359
 128  7602.753
 129  7564.603
 130  8093.298
 131  8105.497
 132  8664.731
 133  8266.544
 134  7912.07
 135  7647.209
 136  7744.331
 137  7919.331
 138  7663.688
 139  7625.553
 140  7532.531
 141  8082.188
 142  7847.359
 143  7157.252
 144  7739.801
 145  7022.767
 146  7561.032
 147  7559.441
 148  8665.822
 149  8467.983
 150  7733.292
 151  8561.584
 152  8379.786
 153  7664.306
 154  7752.562
 155  8657.529
 156  8885.985
 157  8450.736
 158  8359.062
 159  8700.536
 160  7202.098
 161  7658.299
 162  8596.364
 163  8048.643
 164  7783.925
 165  8147.743
 166  8972.191
 167  8408.698
 168  8213.766
 169  8804.954
 170  8491.741
 171  8593.386
 172  8357.707
 173  8846.632
 174  8714.062
 175  8898.359
 176  9253.891
 177  8781.293
 178  7912.461
 179  8053.565
 180  9180.531
 181  8794.663
 182  8922.721
 183  8681.531
 184  8263.332
 185  7714.779
 186  8164.463
 187  8875.812
 188  8119.22
 189  7617.698
 190  7787.607
 191  8888.346
 192  7889.934
 193  7864.428
 194  7871.328
 195  8668.696
 196  8319.216
 197  7957.615
 198  7822.915
 199  7429.407
 200  6486.375
 201  6682.937
 202  7859.544
 203  8538.673
 204  8557.829
 205  8705.058
 206  8325.802
 207  8772.251
 208  8928.009
 209  9393.932
 210  9933.853
 211  9256.855
 212  9049.8
 213  8352.85
 214  8775.342
 215  9613.717
 216  10238.22
 217  9922.8
 218  8949.81
 219  9271.905
 220  9328.148
 221  7644.912
 222  7210.562
 223  8421.63
 224  9094.64
 225  8658.937
 226  8010.784
 227  7734.451
 228  7482.597
 229  7591.686
 230  7932.097
 231  8241.912
 232  8234.608
 233  8760.268
 234  9172.468
 235  8437.469
 236  8227.138
 237  8534.574
 238  8848.857
 239  8432.556
 240  7777.101
 241  8920.932
 242  8754.028
 243  9246.789
 244  9391.951
 245  9456.12
 246  8541.332
 247  7848.859
 248  8279.033
 249  8529.88
 250  7766.431
 251  7970.724
 252  8908.28
 253  8266.873
 254  7396.017
 255  7366.169
 256  8212.772
 257  7613.582
 258  8314.816
 259  9290.604
 260  8306.521
 261  8202.203
 262  7972.481
 263  8315.025
 264  7718.381
 265  7715.311
 266  8955.923
 267  8960.737
 268  8736.158
 269  7160.421
 270  6594.822
 271  6288.323
 272  6852.176
 273  6522.408
 274  7008.105
 275  6982.416
 276  6679.801
 277  6944.335
 278  5872.99
 279  6406.631
 280  7012.935
 281  6890.575
 282  7026.228
 283  6477.132
 284  6081.454
 285  6039.497
 286  6460.12
 287  7372.798
 288  7284.909
 289  7204.123
 290  7307.064
 291  7728.462
 292  7221.761
 293  6817.808
 294  6646.645
 295  6966.777
 296  6757.467
 297  6459.875
 298  6424.318
 299  5808.699
 300  5699.103
 301  7049.036
 302  7195.555
 303  6910.546
 304  7526.141
 305  7674.862
 306  7286.729
 307  6769.667
 308  7165.616
 309  7815.322
 310  7470.832
 311  6919.936
 312  7128.456
 313  7487.903
 314  7488.687
 315  7268.833
 316  7139.851
 317  7056.539
 318  7421.842
 319  8327.277
 320  8772.302
 321  8142.307
 322  7461.006
 323  7463.5
 324  7970.219
 325  7707.813
 326  8742.172
 327  9144.976
 328  9344.327
 329  8711.322
 330  8322.24
 331  8249.911
 332  7550.275
 333  7589.061
 334  8127.34
 335  7676.457
 336  6647.835
 337  7381.316
 338  7592.77
 339  7703.157
 340  7485.681
 341  7454.341
 342  7955.805
 343  7318.082
 344  8051.369
 345  8056.755
 346  6833.437
 347  7270.474
 348  8356.568
 349  8362.822
 350  7809.441
 351  7281.633
 352  7512.725
 353  7262.629
 354  6573.66
 355  7214.229
 356  7604.701
 357  7055.761
 358  7105.366
 359  7874.368
 360  8151.31
 361  7616.668
 362  8304.83
 363  8784.962
 364  7645.246
 365  7552.531
 366  8706.464
 367  8371.497
 368  8007.172
 369  8182.782
 370  8796.164
 371  8743.147
 372  9248.625
 373  8814.505
 374  9007.511
 375  7791.667
 376  8709.104
 377  9433.158
 378  9391.719
 379  8614.029
 380  8569.63
 381  8482.452
 382  7551.707
 383  7825.348
 384  8649.012
 385  8122.43
 386  7741.834
 387  8794.982
 388  9204.727
 389  8721.715
 390  8082.617
 391  7969.74
 392  8095.387
 393  8231.174
 394  7843.056
 395  8412.282
 396  7838.75
 397  7667.911
 398  7476.307
 399  8077.334
 400  7640.683
 401  7006.119
 402  7431.394
 403  7326.335
 404  7675.597
 405  7924.763
 406  8572.33
 407  7567.252
 408  6784.626
 409  7600.818
 410  7825.63
 411  7219.06
 412  7456.255
 413  7767.431
 414  8119.065
 415  7859.79
 416  8627.097
 417  8451.239
 418  7743.01
 419  8470.155
 420  8532.005
 421  7045.443
 422  6984.23
 423  7761.912
 424  7809.729
 425  7534.237
 426  7311.799
 427  6762.406
 428  6462.35
 429  7301.276
 430  8031.924
 431  8099.185
 432  7688.007
 433  7382.559
 434  7305.545
 435  6588.697
 436  6402.044
 437  6939.872
 438  8105.693
 439  8181.983
 440  7999.509
 441  8116.874
 442  7495.374
 443  7422.238
 444  7722.789
 445  8333.537
 446  7498.409
 447  6637.372
 448  7487.116
 449  7607.836
 450  7513.083
 451  7684.025
 452  8119.865
 453  7895.642
 454  7406.458
 455  7658.518
 456  7774.111
 457  7805.081
 458  8047.241
 459  8335.289
 460  9117.063
 461  7996.759
 462  7475.863
 463  7713.337
 464  7150.113
 465  7202.176
 466  8132.787
 467  9485.411
 468  9569.862
 469  9304.991
 470  9432.921
 471  8953.087
 472  8101.214
 473  8087.982
 474  8157.087
 475  7186.193
 476  7138.791
 477  7024.762
 478  7365.199
 479  7468.286
 480  7759.591
 481  7717.607
 482  7385.036
 483  7288.237
 484  7074.539
 485  7664.266
 486  8021.049
 487  7903.44
 488  8260.572
 489  7891.597
 490  7353.144
 491  8411.901
 492  8868.938
 493  8580.417
 494  8404.513
 495  8563.884
 496  8584.123
 497  7891.407
 498  7884.338
 499  7700.603
 500  7262.39
 501  7924.271
 502  7471.496
 503  8018.36
 504  6784.296
 505  6778.796
 506  7767.616
 507  7691.809
 508  8122.37
 509  8105.768
 510  8555.305
 511  7657.291
