# Input file       =  1196981508.116393_cleaned.dat
# Candidate        =  PSR_0332+5434
# Telescope        =  AR
# Epoch_topo       =  58097.952860143436
# Epoch_bary       =  N/A
# T_sample         =  0.002
# Data Folded      =  7340032
# Data Avg         =  1.0096679929359  
# Data StdDev      =  9.22400161658685 
# Profile Bins     =  512
# Profile Avg      =  14474.1811405089 
# Profile StdDev   =  1104.41772109814 
# Reduced chi-sqr  =  0.652
# Prob(Noise)      <  1   (~0.0 sigma)
# P_topo (ms)      =  714.536201095379  +/- 0.000123
# P'_topo (s/s)    =  -0                +/- 6.48e-11
# P''_topo (s/s^2) =  0                 +/- 2.86e-14
# P_bary (ms)      =  N/A
# P'_bary (s/s)    =  N/A
# P''_bary (s/s^2) =  N/A
# P_orb (s)        =  N/A
# asin(i)/c (s)    =  N/A
# eccentricity     =  N/A
# w (rad)          =  N/A
# T_peri           =  N/A
######################################################
   0  13500.2
   1  13631.2
   2  14142.7
   3  14169.38
   4  13822.46
   5  13981.14
   6  14214.35
   7  13610.81
   8  13394.79
   9  13809.09
  10  13357.2
  11  13719.29
  12  14392.47
  13  15366.86
  14  15146.9
  15  14803.16
  16  14339.16
  17  14092.41
  18  13593.45
  19  13978.83
  20  14420.48
  21  15198.25
  22  15203.96
  23  14751.59
  24  14070.39
  25  14155.59
  26  14163.59
  27  14443.72
  28  15111.15
  29  14633.53
  30  14210.38
  31  14932.92
  32  14647.89
  33  13891.79
  34  13913.73
  35  15354.32
  36  13961.3
  37  13733.78
  38  14282.01
  39  14255.16
  40  13628.4
  41  14312.24
  42  14256.75
  43  13864.6
  44  13418.74
  45  12850.71
  46  14098.1
  47  14109.7
  48  13763.85
  49  14247.19
  50  14914.71
  51  14563.27
  52  13293.49
  53  13830.78
  54  13832.03
  55  13876.21
  56  14221.43
  57  14255.38
  58  14235.07
  59  14451.4
  60  14431.53
  61  14420.92
  62  14572.41
  63  14471.93
  64  14442.33
  65  15259.59
  66  15514.6
  67  14741.04
  68  14618.98
  69  14985.11
  70  15404.86
  71  15477.4
  72  15394.57
  73  14994.79
  74  15097.55
  75  15345.06
  76  15045.24
  77  14644.72
  78  15203.87
  79  15377.97
  80  14795.75
  81  14234.63
  82  14180.28
  83  14557.09
  84  14245.01
  85  14496.42
  86  15168.15
  87  14668.39
  88  14666.27
  89  14756.67
  90  14921.91
  91  14398.37
  92  14168.18
  93  14312.42
  94  14046.87
  95  14127.49
  96  13820.92
  97  13959
  98  13951.64
  99  13488.24
 100  13727.6
 101  13991.46
 102  14419.02
 103  14329.87
 104  14084.12
 105  14185.97
 106  14209.07
 107  14380.01
 108  13642.96
 109  13436.65
 110  13719.26
 111  13794.82
 112  13940.74
 113  14692.93
 114  15747.16
 115  15023.98
 116  13688.9
 117  13175.98
 118  13903.74
 119  14151.74
 120  14487.28
 121  14465.4
 122  14535.42
 123  13861.21
 124  13882.49
 125  14506.32
 126  13651.75
 127  13572.53
 128  14240.21
 129  15003.65
 130  14759.77
 131  15330.11
 132  15160.68
 133  14277.01
 134  13652.5
 135  13869.85
 136  14964.3
 137  15419.49
 138  15819.58
 139  16138.58
 140  16295.38
 141  16179.25
 142  15231.73
 143  15073.77
 144  14951.83
 145  14795.17
 146  14652.06
 147  15371.69
 148  15513.09
 149  15860.55
 150  14960
 151  13906.88
 152  13961.22
 153  13952.16
 154  14339.69
 155  14158.32
 156  13586.89
 157  13933.55
 158  14798.96
 159  13485.97
 160  13928.21
 161  14582.68
 162  13877.04
 163  13853.91
 164  13591.82
 165  13214.32
 166  13395.47
 167  13616.03
 168  13973.67
 169  14186.09
 170  14631.79
 171  14020.89
 172  13936.44
 173  13935.5
 174  14260.97
 175  13492.53
 176  13792.92
 177  14151.79
 178  14278.06
 179  14277.99
 180  14351.8
 181  13695.01
 182  13651.57
 183  13554.22
 184  13207.16
 185  12794.7
 186  13676.63
 187  14317.31
 188  14912.43
 189  15281.28
 190  15266.42
 191  14952.81
 192  14767.32
 193  14378.54
 194  14538.86
 195  14252.04
 196  14394.63
 197  15456.89
 198  14604.23
 199  15348.79
 200  14736.55
 201  14408.02
 202  14385.8
 203  14583.52
 204  14940.12
 205  15342.69
 206  15471
 207  14852.29
 208  14143.59
 209  13485.54
 210  13638.24
 211  13625.15
 212  14068.7
 213  14246.2
 214  15598.81
 215  16423.21
 216  16123.86
 217  15106.36
 218  14225.29
 219  13295.78
 220  12653.24
 221  13885.7
 222  14876.63
 223  15073.3
 224  15150.54
 225  14970.65
 226  14658.71
 227  14711.73
 228  14330.96
 229  14056.66
 230  14333.19
 231  14516.94
 232  14621.55
 233  14067.29
 234  13057.46
 235  13751.67
 236  14054.21
 237  13702.42
 238  13559.53
 239  13951.1
 240  14597.35
 241  15405.66
 242  15054.69
 243  14234.38
 244  14391.41
 245  14702.88
 246  16065.55
 247  15439.85
 248  14744.12
 249  14356.5
 250  14881.91
 251  15752.79
 252  15269.11
 253  15227.55
 254  14996.33
 255  15050.18
 256  15702.78
 257  15270.26
 258  15100.45
 259  14965.67
 260  14437.31
 261  14342.89
 262  14418.55
 263  14084.32
 264  14373.65
 265  14478.31
 266  14448.27
 267  14140.64
 268  13569.98
 269  13508.98
 270  13771.26
 271  13972.56
 272  14896.05
 273  14600.78
 274  13970.71
 275  13247.08
 276  13497.09
 277  14176.42
 278  14087.08
 279  14030.07
 280  14462.71
 281  14982.9
 282  15170.6
 283  14398.61
 284  14152.74
 285  14029.51
 286  13959.04
 287  15056.96
 288  15467.72
 289  15305.71
 290  15231.52
 291  14926.95
 292  14552.39
 293  14640.46
 294  14786.14
 295  14663.42
 296  14698.76
 297  14616.37
 298  14535.36
 299  14600.24
 300  14366.66
 301  14263.29
 302  14086.66
 303  13900.71
 304  14573.31
 305  15313.82
 306  14862.55
 307  14343.13
 308  13432.04
 309  13893.31
 310  14464.48
 311  14279.76
 312  14581.13
 313  14836.22
 314  14450.98
 315  13743.21
 316  14501.27
 317  14411.46
 318  14114.69
 319  14206.51
 320  13421.3
 321  13323.66
 322  13704.82
 323  14117.11
 324  14599.07
 325  13891
 326  14610.04
 327  14660.64
 328  14114.46
 329  13961.15
 330  13911.88
 331  14457.76
 332  14066.71
 333  14368.4
 334  14797.51
 335  14180.3
 336  13894.92
 337  13612.95
 338  13574.96
 339  13910.43
 340  14774.82
 341  15286.73
 342  14619.17
 343  14872.27
 344  14530.4
 345  14043.64
 346  14075.33
 347  14230.65
 348  14847.8
 349  14220.85
 350  13843.17
 351  13571.67
 352  14122.46
 353  14118.45
 354  14116.84
 355  13478.65
 356  13705.43
 357  13808.8
 358  14031.05
 359  14500.14
 360  14453.97
 361  14492.33
 362  14933.54
 363  15137.42
 364  15127.2
 365  15286.36
 366  15998.93
 367  15261.21
 368  14847.28
 369  15211.83
 370  15193.07
 371  15472.31
 372  15067.73
 373  14989.41
 374  14750.11
 375  14565.79
 376  14993.18
 377  14768.5
 378  14619.83
 379  14038.14
 380  14095.03
 381  13955.04
 382  13724.57
 383  14286.08
 384  14113.07
 385  14252.89
 386  14241.23
 387  14446.54
 388  14272.08
 389  14327.78
 390  13626.31
 391  13104.59
 392  13590.8
 393  14047.55
 394  14109.56
 395  14700.23
 396  14310.38
 397  13605.1
 398  12818.19
 399  14137.35
 400  15066.62
 401  14709.65
 402  13956.26
 403  13967.71
 404  13917.93
 405  14353.31
 406  14663.84
 407  15015.16
 408  14446.98
 409  13783.39
 410  13541.94
 411  13091.52
 412  13613.65
 413  13996.41
 414  15097.13
 415  15518.99
 416  15487.63
 417  14499.21
 418  13499.66
 419  13547.56
 420  14179.96
 421  14729.46
 422  14718.66
 423  14171
 424  14431.28
 425  14734.25
 426  14436.15
 427  14568.93
 428  15182.81
 429  15316.08
 430  16195.25
 431  16288.97
 432  15738.02
 433  15682.31
 434  15994.64
 435  15115.7
 436  14385.49
 437  14145.17
 438  14328.07
 439  14689.92
 440  14750.45
 441  14501.8
 442  14703.48
 443  14690.94
 444  14717.46
 445  14801.14
 446  15135.2
 447  14596
 448  13989.39
 449  15569.36
 450  15336.33
 451  14839.53
 452  14660.01
 453  14588.49
 454  15458.13
 455  14553.91
 456  15471.95
 457  15763.64
 458  15772.17
 459  15160.05
 460  14917.34
 461  15305.8
 462  14861.1
 463  14966.85
 464  14824.05
 465  14456.51
 466  14481.54
 467  14733.95
 468  14706.66
 469  15533.78
 470  14876.65
 471  15072.3
 472  14754.54
 473  15309.45
 474  15765.32
 475  14908.93
 476  14919.17
 477  14695.79
 478  15314.23
 479  14703.5
 480  14738.46
 481  15436.14
 482  15297.19
 483  14426.61
 484  13742.31
 485  13879.01
 486  13947.83
 487  14097.91
 488  14941.03
 489  15522.46
 490  15092.38
 491  15154.01
 492  14727.98
 493  15016.85
 494  14851.82
 495  14346.61
 496  14679.88
 497  14530.39
 498  15290.02
 499  15101.64
 500  14799.16
 501  14865.93
 502  15067.43
 503  15020.34
 504  14742.89
 505  14799.54
 506  14433.56
 507  15005.35
 508  14804.51
 509  14359.55
 510  13931.76
 511  13311.16
