# Input file       =  1196607167.098366_cleaned.dat
# Candidate        =  PSR_0332+5434
# Telescope        =  AR
# Epoch_topo       =  58093.620209471832
# Epoch_bary       =  N/A
# T_sample         =  0.002
# Data Folded      =  7208960
# Data Avg         =  0.314512799688699
# Data StdDev      =  5.65977536943922 
# Profile Bins     =  512
# Profile Avg      =  4428.40465907003 
# Profile StdDev   =  671.584280514183 
# Reduced chi-sqr  =  0.604
# Prob(Noise)      <  1   (~0.0 sigma)
# P_topo (ms)      =  714.531441268993  +/- 3.38e-05
# P'_topo (s/s)    =  -0                +/- 1.81e-11
# P''_topo (s/s^2) =  0                 +/- 8.16e-15
# P_bary (ms)      =  N/A
# P'_bary (s/s)    =  N/A
# P''_bary (s/s^2) =  N/A
# P_orb (s)        =  N/A
# asin(i)/c (s)    =  N/A
# eccentricity     =  N/A
# w (rad)          =  N/A
# T_peri           =  N/A
######################################################
   0  4849.848
   1  3766.134
   2  4451.188
   3  4569.087
   4  4073.036
   5  4301.843
   6  4594.654
   7  3943.783
   8  3867.304
   9  4461.036
  10  4548.6
  11  4359.013
  12  4257.405
  13  4629.253
  14  4542.717
  15  4215.688
  16  3929.158
  17  4225.811
  18  4432.364
  19  4107.443
  20  4168.16
  21  4281.431
  22  3750.302
  23  3910.448
  24  4373.71
  25  4467.48
  26  3801.227
  27  4269.922
  28  4109.963
  29  3947.896
  30  4447.307
  31  4923.025
  32  5106.709
  33  4483.987
  34  4363.059
  35  4515.31
  36  4173.412
  37  3771.441
  38  4467.351
  39  4918.533
  40  4569.56
  41  4203.218
  42  4315.215
  43  3951.331
  44  3797.191
  45  4645.633
  46  4846.781
  47  4528.886
  48  4047.421
  49  4456.541
  50  4066.786
  51  3782.79
  52  3962.11
  53  3856.369
  54  3891.949
  55  4089.129
  56  5020.639
  57  4189.911
  58  3554.367
  59  3691.382
  60  3839.379
  61  3735.291
  62  4004.434
  63  4563.96
  64  5003.083
  65  4935.44
  66  4570.643
  67  4887.513
  68  4319.919
  69  3928.842
  70  4516.966
  71  4801.248
  72  4328.628
  73  4002.955
  74  4513.872
  75  4536.78
  76  4113.387
  77  4604.024
  78  4645.405
  79  4299.478
  80  4103.65
  81  4907.176
  82  4741.464
  83  4269.68
  84  4321.404
  85  4864.878
  86  4811.295
  87  4523.086
  88  4699.583
  89  4388.496
  90  4517.26
  91  4577.958
  92  4545.683
  93  4213.818
  94  4146.159
  95  4424.621
  96  5054.453
  97  4710.121
  98  4322.975
  99  4697.172
 100  4287.737
 101  4323.047
 102  4579.229
 103  4762.79
 104  4438.666
 105  4097.484
 106  4429.223
 107  4356.753
 108  3481.831
 109  3388.099
 110  4272.964
 111  4261.472
 112  4059.902
 113  4646.257
 114  4782.125
 115  3965.772
 116  4031.927
 117  4424.598
 118  4493.237
 119  4186.363
 120  3870.057
 121  4371.299
 122  4298.098
 123  4188.188
 124  4096.907
 125  3650.427
 126  3802.343
 127  4083.499
 128  4360.228
 129  4556.586
 130  4500.826
 131  4748.797
 132  4378.709
 133  3443.002
 134  3504.897
 135  3929.021
 136  4273.326
 137  4425.378
 138  4270.205
 139  4829.437
 140  4078.097
 141  3462.272
 142  3704.454
 143  4136.44
 144  4125.458
 145  4645.863
 146  4800.958
 147  4487.533
 148  4303.716
 149  4476.2
 150  4650.112
 151  4085.389
 152  4012.3
 153  4748.419
 154  4767.413
 155  4238.021
 156  4493.208
 157  4694.648
 158  4033.273
 159  3884.583
 160  3972.491
 161  4427.656
 162  4138.964
 163  4462.058
 164  4972.096
 165  4102.718
 166  4047.498
 167  4351.533
 168  4667.292
 169  4442.791
 170  4239.305
 171  4747.696
 172  4266.918
 173  4249.384
 174  3954.352
 175  4006.457
 176  3886.342
 177  4016.35
 178  4462.25
 179  4648.411
 180  4866.82
 181  4468.487
 182  4881.971
 183  4398.167
 184  4049.309
 185  4588.829
 186  4435.312
 187  4294.021
 188  4211.358
 189  4345.853
 190  3878.708
 191  4008.698
 192  4264.192
 193  4687.502
 194  4729.806
 195  4613.774
 196  4827.292
 197  4498.328
 198  3947.792
 199  4239.818
 200  4719.051
 201  4585.062
 202  4751.805
 203  4885.042
 204  4515.428
 205  4184.078
 206  4832.713
 207  4731.824
 208  4518.828
 209  4336.373
 210  4822.169
 211  4476.858
 212  4616.745
 213  5088.732
 214  4978.666
 215  4394.794
 216  4165.776
 217  4630.694
 218  4572.07
 219  4267.818
 220  4735.147
 221  4786.899
 222  4594.184
 223  4390.472
 224  4258.917
 225  4416.485
 226  4361.055
 227  4454.292
 228  5037.68
 229  5246.072
 230  4741.415
 231  5115.303
 232  4811.936
 233  4403.018
 234  4994.361
 235  5090.26
 236  4836.447
 237  4499.231
 238  4823.575
 239  4719.943
 240  4409.741
 241  3801.469
 242  4173.694
 243  4352.319
 244  4406.749
 245  4426.689
 246  4768.033
 247  4801.262
 248  4179.729
 249  4232.846
 250  4397.853
 251  4063.236
 252  4035.594
 253  4281.659
 254  4466.683
 255  4049.764
 256  4688.164
 257  4889.662
 258  4733.434
 259  4575.499
 260  4890.56
 261  4878.246
 262  4243.516
 263  4905.505
 264  5295.376
 265  4876.708
 266  4299.092
 267  4641.192
 268  5056.96
 269  4463.902
 270  4200.686
 271  3984.297
 272  4142.546
 273  3583.06
 274  3802.545
 275  4233.09
 276  4763.222
 277  4608.844
 278  4562.136
 279  4527.956
 280  4295.36
 281  4477.764
 282  4422.856
 283  4343.409
 284  4654.813
 285  4665.542
 286  4776.083
 287  4338.999
 288  4575.078
 289  4549.94
 290  4339.304
 291  3815.112
 292  4203.462
 293  4615.666
 294  4309.463
 295  4310.658
 296  4364.41
 297  4296.063
 298  3651.099
 299  3918.449
 300  4467.29
 301  3865.681
 302  3747.17
 303  4479.091
 304  4002.896
 305  3718.992
 306  4003.179
 307  4672.827
 308  4812.301
 309  4954.764
 310  5640.371
 311  5885.01
 312  5487.361
 313  5049.449
 314  5309.415
 315  4910.822
 316  4636.037
 317  5055.625
 318  5536.236
 319  5116.396
 320  4925.366
 321  5106.69
 322  4693.656
 323  4231.182
 324  4687.418
 325  4975.682
 326  4494.186
 327  4390.178
 328  5056.278
 329  5038.625
 330  4613.277
 331  4570.688
 332  4787.281
 333  4570.691
 334  4585.488
 335  4952.642
 336  4854.648
 337  4712.786
 338  4920.063
 339  4466.674
 340  4242.977
 341  3725.122
 342  4645.998
 343  5276.485
 344  4903.682
 345  5290.894
 346  4897.142
 347  4663.03
 348  3933.877
 349  3977.232
 350  4606.22
 351  4662.345
 352  4611.166
 353  5025.645
 354  4393.396
 355  4094.419
 356  3475.285
 357  4280.602
 358  4150.236
 359  4548.555
 360  4953.891
 361  4601.777
 362  4583.438
 363  4296.974
 364  4534.552
 365  4247.928
 366  4230.64
 367  4562.322
 368  4532.163
 369  4071.077
 370  3971.511
 371  4394.082
 372  4123.569
 373  3835.392
 374  4216.067
 375  4938.251
 376  4653.246
 377  4657.926
 378  4567.009
 379  4181.991
 380  3647.618
 381  3928.283
 382  4680.363
 383  4934.098
 384  4658.382
 385  4472.695
 386  4558.294
 387  4534.235
 388  4414.404
 389  4614.393
 390  4800.757
 391  4902.45
 392  4536.114
 393  4787.402
 394  4852.204
 395  4712.368
 396  4408.962
 397  4249.503
 398  3782.397
 399  3803.164
 400  4541.625
 401  3973.154
 402  3970.569
 403  4623.182
 404  4782.091
 405  4374.204
 406  3967.476
 407  4728.396
 408  4592.562
 409  4467.495
 410  4899.823
 411  5223.159
 412  4685.148
 413  4212.935
 414  3944.508
 415  4055.734
 416  3940.659
 417  4349.052
 418  4963.455
 419  4913.765
 420  4358.264
 421  4177.559
 422  4152.764
 423  3830.874
 424  4335.035
 425  4484.635
 426  4621.734
 427  4669.022
 428  4788.151
 429  4938.92
 430  4172.689
 431  3687.296
 432  4297.271
 433  4737.776
 434  4476.651
 435  4104.562
 436  4572.622
 437  4391.968
 438  4195.698
 439  3948.607
 440  4300.436
 441  4547.297
 442  3872.127
 443  4438.116
 444  4292.212
 445  4052.184
 446  4364.725
 447  4258.779
 448  4030.072
 449  4452.212
 450  4933.319
 451  4472.357
 452  4009.95
 453  4476.171
 454  4235.808
 455  3866.967
 456  4431.59
 457  4773.564
 458  4902.734
 459  4839.434
 460  4833.742
 461  4707.159
 462  4544.724
 463  4163.108
 464  4241.511
 465  4348.802
 466  4447.218
 467  4738.601
 468  4775.488
 469  4423.323
 470  4353.77
 471  4627.565
 472  4975.773
 473  4484.01
 474  4654.03
 475  4696.219
 476  4746.618
 477  4619.149
 478  4458.378
 479  4197.455
 480  4243.747
 481  4149.875
 482  4350.551
 483  4625.15
 484  4311.123
 485  4502.618
 486  4377.769
 487  4153.681
 488  3808.373
 489  4200.468
 490  4745.97
 491  4430.377
 492  4300.548
 493  4508.253
 494  4799.791
 495  4589.312
 496  4458.491
 497  4457.35
 498  4181.524
 499  4184.632
 500  4458.418
 501  4426.796
 502  4000.864
 503  4284.148
 504  4135.808
 505  4174.282
 506  3636.467
 507  4716.036
 508  5181.451
 509  4722.932
 510  4993.939
 511  4852.701
