# Input file       =  1196450039.108316_cleaned.dat
# Candidate        =  PSR_0332+5434
# Telescope        =  AR
# Epoch_topo       =  58091.801598475882
# Epoch_bary       =  N/A
# T_sample         =  0.002
# Data Folded      =  7340032
# Data Avg         =  0.682481033340862
# Data StdDev      =  5.9030110552512  
# Profile Bins     =  512
# Profile Avg      =  9784.16131072718 
# Profile StdDev   =  706.785437410845 
# Reduced chi-sqr  =  0.799
# Prob(Noise)      <  1   (~0.0 sigma)
# P_topo (ms)      =  714.529597086218  +/- 2.32e-05
# P'_topo (s/s)    =  -0                +/- 1.23e-11
# P''_topo (s/s^2) =  0                 +/- 5.41e-15
# P_bary (ms)      =  N/A
# P'_bary (s/s)    =  N/A
# P''_bary (s/s^2) =  N/A
# P_orb (s)        =  N/A
# asin(i)/c (s)    =  N/A
# eccentricity     =  N/A
# w (rad)          =  N/A
# T_peri           =  N/A
######################################################
   0  10094.7
   1  9890.381
   2  9204.967
   3  9460.224
   4  10010.46
   5  9779.177
   6  9926.009
   7  9950.948
   8  10045.02
   9  9194.761
  10  9171.616
  11  9827.155
  12  9823.594
  13  9350.616
  14  9417.982
  15  10040
  16  9845.146
  17  9692.676
  18  9856.734
  19  9686.016
  20  9963.005
  21  9572.105
  22  10022.65
  23  9472.289
  24  8959.236
  25  9170.482
  26  10332.33
  27  10307.16
  28  9768.534
  29  9977.568
  30  10417.78
  31  10167.76
  32  9941.891
  33  10005.32
  34  10121.53
  35  10081.1
  36  10226.35
  37  10253.87
  38  9164.724
  39  8801.793
  40  9731.618
  41  9986.676
  42  9175.615
  43  9639.852
  44  9953.84
  45  9749.937
  46  9265.324
  47  9546.478
  48  9676.553
  49  9627.114
  50  10302.76
  51  10831.09
  52  9842.406
  53  8527.67
  54  9268.317
  55  10327.31
  56  9865.165
  57  10026.31
  58  10009.68
  59  9736.827
  60  9305.506
  61  9754.887
  62  10297.84
  63  9978.505
  64  9654.017
  65  10075.68
  66  9789.718
  67  9556.598
  68  9839.571
  69  10614.47
  70  9794.051
  71  9291.914
  72  9270.744
  73  9537.143
  74  8826.545
  75  9325.826
  76  10052.21
  77  9871.59
  78  9392.033
  79  9652.588
  80  9496.869
  81  9016.211
  82  9301.014
  83  10097.84
  84  10325.24
  85  10092
  86  10439.77
  87  10385.07
  88  9713.032
  89  9367.074
  90  9383.585
  91  9544.807
  92  9716.732
  93  9869.281
  94  10251.94
  95  9315.316
  96  9127.39
  97  9410.627
  98  9757.791
  99  9298.026
 100  9681.733
 101  9883.413
 102  9796.377
 103  9513.96
 104  9586.76
 105  9534.762
 106  9678.489
 107  9573.247
 108  10481.32
 109  9906.505
 110  9296.078
 111  9367.296
 112  9733.96
 113  9393.465
 114  9379.833
 115  9539.276
 116  9556.757
 117  9283.761
 118  9489.561
 119  10016.19
 120  10081.98
 121  10018.33
 122  10491.06
 123  9972.294
 124  9198.001
 125  9208.413
 126  10269.73
 127  10158.3
 128  9570.986
 129  9940.108
 130  10362.38
 131  9882.981
 132  9526.787
 133  9516.038
 134  9663.766
 135  9763.348
 136  10193.31
 137  10127.33
 138  9798.906
 139  9105.217
 140  9160.784
 141  9722.317
 142  9797.143
 143  10105.89
 144  10124.01
 145  9804.39
 146  9625.252
 147  10210.73
 148  9951.707
 149  9472.675
 150  10060.32
 151  10353.54
 152  9781.195
 153  9242.147
 154  9618.482
 155  10574.98
 156  9739.471
 157  9719.289
 158  9560.526
 159  9615.523
 160  9447.305
 161  9906.142
 162  9463.099
 163  9002.417
 164  9120.125
 165  10130.1
 166  9997.537
 167  9080.333
 168  9110.063
 169  9441.022
 170  9147.803
 171  9709.038
 172  9537.048
 173  9710.288
 174  9217.347
 175  9250.342
 176  9702.792
 177  9577.935
 178  9623.219
 179  10184.53
 180  10814.25
 181  9987.235
 182  9468.752
 183  10046.64
 184  10304.27
 185  9956.895
 186  10009.21
 187  10077.98
 188  9716.849
 189  9572.503
 190  10461.69
 191  10611.67
 192  9776.955
 193  9248.612
 194  9872.365
 195  9709.117
 196  9216.86
 197  9243.771
 198  10085.52
 199  10030.28
 200  10051.46
 201  10286.63
 202  9617.694
 203  9415.605
 204  9442.287
 205  9600.94
 206  9067.258
 207  8989.005
 208  9418.412
 209  9311.123
 210  8710.804
 211  8669.257
 212  9468.545
 213  8914.773
 214  8440.499
 215  8925.261
 216  9203.605
 217  9974.373
 218  10274.98
 219  10829.06
 220  9777.208
 221  9371.646
 222  9736.144
 223  10463.95
 224  9977.098
 225  9128.519
 226  9679.174
 227  10133.2
 228  9732.978
 229  9569.875
 230  9814.144
 231  9451.616
 232  8792.792
 233  9150.233
 234  9316.301
 235  9214.48
 236  9999.472
 237  10217.31
 238  10259.92
 239  9535.308
 240  9632.433
 241  10237.8
 242  9296.771
 243  10023.53
 244  10002.51
 245  9797.02
 246  9432.312
 247  9931.311
 248  9916.026
 249  9431.855
 250  9231.306
 251  10093.43
 252  10083.51
 253  9238.264
 254  9364.996
 255  10013.42
 256  9267.761
 257  9019.404
 258  8825.473
 259  9384.055
 260  8829.162
 261  9121.977
 262  9903.85
 263  9701.489
 264  9218.343
 265  9522.425
 266  10280.12
 267  9546.058
 268  8962.734
 269  9037.764
 270  9275.926
 271  9163.17
 272  9338.926
 273  9551.455
 274  10009.79
 275  9913.653
 276  9866.335
 277  9174.938
 278  8876.722
 279  9231.027
 280  10065.17
 281  10049.89
 282  9441.713
 283  9374.146
 284  9561.049
 285  9287.345
 286  9427.346
 287  9756.951
 288  9484.225
 289  9566.634
 290  9590.886
 291  9803.957
 292  9665.147
 293  9741.3
 294  10113.88
 295  10016.84
 296  9397.958
 297  9248.982
 298  9940.659
 299  9463.597
 300  9229.573
 301  9948.354
 302  10065.75
 303  9682.452
 304  9070.868
 305  9405.813
 306  8989.981
 307  9577.928
 308  10586.55
 309  10603.9
 310  10194.46
 311  10090.25
 312  11164.93
 313  11415.12
 314  11146.17
 315  11075.06
 316  11246.78
 317  10389.07
 318  10111.63
 319  10532.84
 320  9965.301
 321  9500.576
 322  9738.576
 323  10738.64
 324  9828.917
 325  9920.581
 326  9937.167
 327  10168.79
 328  9519.959
 329  9740.753
 330  10486.29
 331  10470.36
 332  9820.928
 333  10155.83
 334  10148.19
 335  9957.939
 336  9448.036
 337  10019.34
 338  9764.89
 339  9470.466
 340  9635.203
 341  10254.84
 342  9768.081
 343  9627.367
 344  9997.32
 345  9796.638
 346  9522.356
 347  9703.49
 348  10290.16
 349  10318.3
 350  9954.144
 351  10210.47
 352  11008.71
 353  10126.45
 354  9410.314
 355  9854.265
 356  9569.109
 357  9727.241
 358  10103.71
 359  10442.85
 360  10084.46
 361  9898.457
 362  9750.572
 363  9095.47
 364  9159
 365  9728.649
 366  10229.21
 367  10215.36
 368  9537.681
 369  9762.482
 370  10293.22
 371  9740.561
 372  9373.127
 373  9817.809
 374  10002.68
 375  9468.006
 376  9947.099
 377  10249.9
 378  9593.525
 379  9103.633
 380  10026.05
 381  10936.65
 382  10360.1
 383  10337.6
 384  10739.66
 385  10154.89
 386  10107.95
 387  10346.7
 388  10411.53
 389  9981.268
 390  10367.67
 391  10462.13
 392  9535.179
 393  9489.429
 394  10427.07
 395  10636.12
 396  9654.924
 397  9424.285
 398  9643.613
 399  9196.34
 400  9360.442
 401  9567.069
 402  9714.451
 403  9580.389
 404  9344.938
 405  10147.15
 406  9895.791
 407  9612.039
 408  9575.277
 409  10455.69
 410  10323.87
 411  10210.15
 412  10376.07
 413  10281.18
 414  10079.46
 415  9906.57
 416  10063.12
 417  10247.77
 418  9890.781
 419  10501.96
 420  10165.46
 421  9097.471
 422  8759.365
 423  9506.198
 424  9944.396
 425  9304.93
 426  9620.035
 427  10241.23
 428  9292.675
 429  8964.993
 430  9449.096
 431  9587.182
 432  9742.45
 433  9629.473
 434  9974.38
 435  9235.852
 436  8948.487
 437  9782.637
 438  9743.832
 439  9237.867
 440  8875.69
 441  9402.736
 442  9728.09
 443  9741.617
 444  9931.307
 445  9611.177
 446  9386.601
 447  9346.454
 448  10234.6
 449  10026.67
 450  9610.419
 451  9696.207
 452  9965.974
 453  9640.431
 454  9468.818
 455  10133.19
 456  10292.99
 457  10397.61
 458  10473.41
 459  10499.68
 460  10280.5
 461  10101.56
 462  10481.53
 463  10380.62
 464  9934.357
 465  9974.143
 466  10445.63
 467  10301.33
 468  9707.038
 469  9854.542
 470  10228.86
 471  10176.86
 472  9806.987
 473  9842.689
 474  9628.979
 475  9321.173
 476  9409.12
 477  9602.373
 478  9225.796
 479  9741.798
 480  10004.33
 481  10377.57
 482  9922.777
 483  10073.44
 484  10132.34
 485  9932.129
 486  9988.95
 487  10682.82
 488  10212.26
 489  10006.47
 490  9706.493
 491  10354.54
 492  9776.899
 493  9376.463
 494  9746.591
 495  10781.72
 496  10384.9
 497  9758.124
 498  9750.785
 499  10101
 500  9913.41
 501  10416.89
 502  10376.41
 503  10093.42
 504  9361.613
 505  9950.698
 506  10523
 507  9908.2
 508  9516.506
 509  10033.46
 510  10034.5
 511  10170.89
