# Input file       =  1196292583.114135_cleaned.dat
# Candidate        =  PSR_0332+5434
# Telescope        =  AR
# Epoch_topo       =  58089.979191135819
# Epoch_bary       =  N/A
# T_sample         =  0.002
# Data Folded      =  7340032
# Data Avg         =  0.518788279808566
# Data StdDev      =  6.67248369220408 
# Profile Bins     =  512
# Profile Avg      =  7437.338410434   
# Profile StdDev   =  798.91673264205  
# Reduced chi-sqr  =  0.533
# Prob(Noise)      <  1   (~0.0 sigma)
# P_topo (ms)      =  714.528065147879  +/- 0.000585
# P'_topo (s/s)    =  -0                +/- 3.09e-10
# P''_topo (s/s^2) =  0                 +/- 1.36e-13
# P_bary (ms)      =  N/A
# P'_bary (s/s)    =  N/A
# P''_bary (s/s^2) =  N/A
# P_orb (s)        =  N/A
# asin(i)/c (s)    =  N/A
# eccentricity     =  N/A
# w (rad)          =  N/A
# T_peri           =  N/A
######################################################
   0  7543.709
   1  7788.949
   2  7841.732
   3  7662.372
   4  7261.095
   5  7367.405
   6  7541.441
   7  7865.853
   8  8210.885
   9  7320.678
  10  6994.482
  11  7348.401
  12  7171.523
  13  7431.475
  14  7554.271
  15  7669.214
  16  7817.582
  17  7103.959
  18  7057.512
  19  7150.3
  20  7336.524
  21  6719.654
  22  7217.691
  23  7276.355
  24  7155.411
  25  6890.71
  26  7351.184
  27  7134.844
  28  6876.279
  29  7405.561
  30  7260.667
  31  6703.228
  32  6558.774
  33  6512.427
  34  6774.316
  35  6698.692
  36  7023.947
  37  6891.302
  38  7095.252
  39  7003.888
  40  7384.82
  41  7065.017
  42  7451.513
  43  7671.723
  44  7416.981
  45  6805.674
  46  6362.928
  47  7445.075
  48  7560.253
  49  7849.816
  50  7824.078
  51  7694.558
  52  8037.708
  53  7808.183
  54  7882.831
  55  7862.395
  56  7983.242
  57  7911.372
  58  8349.43
  59  8497.709
  60  8095.552
  61  8028.153
  62  7843.766
  63  7315.625
  64  7582.695
  65  8054.285
  66  7705.206
  67  8042.356
  68  7840.179
  69  7575.271
  70  7467.103
  71  7504.223
  72  7545.151
  73  7798.272
  74  8045.914
  75  7938.28
  76  7876.889
  77  8015.977
  78  7149.1
  79  6962.704
  80  7386.593
  81  7334.672
  82  7607.128
  83  8186.935
  84  7758.738
  85  6984.403
  86  7259.629
  87  7049.016
  88  6894.702
  89  7340.692
  90  7848.558
  91  8173.206
  92  7931.39
  93  7464.054
  94  7446.995
  95  7209.655
  96  7460.702
  97  7400.406
  98  7623.394
  99  7427.315
 100  7616.843
 101  7227.088
 102  7285.549
 103  6890.997
 104  7097.896
 105  7158.329
 106  7303.564
 107  7385.159
 108  6914.043
 109  6654.138
 110  6932.565
 111  7173.447
 112  7650.834
 113  7465.669
 114  7325.089
 115  7460.229
 116  7400.501
 117  7282.643
 118  7790.297
 119  8137.241
 120  7873.12
 121  7574.042
 122  7679.258
 123  7865.817
 124  7676.396
 125  7069.544
 126  7387.831
 127  7648.225
 128  7318.856
 129  7135.733
 130  7537.754
 131  7816.383
 132  7344.817
 133  7816.604
 134  8214.889
 135  8385.532
 136  7955.297
 137  7614.693
 138  7398.219
 139  7326.178
 140  7333.626
 141  7633.245
 142  7464.558
 143  6972.796
 144  6533.492
 145  7120.302
 146  6765.96
 147  7094.551
 148  7541.951
 149  7797.094
 150  7634.88
 151  7485.062
 152  7642.264
 153  7360.83
 154  7419.497
 155  7677.463
 156  7697.734
 157  7856.892
 158  7665.4
 159  7442.242
 160  7134.555
 161  7308.092
 162  7338.443
 163  6838.502
 164  6882.621
 165  7256.01
 166  7001.085
 167  7194.398
 168  7310.544
 169  7671.479
 170  7713.509
 171  7642.079
 172  7570.33
 173  7794.946
 174  7683.781
 175  6955.845
 176  7285.5
 177  7397.606
 178  7931.627
 179  7639.916
 180  7281.028
 181  7008.296
 182  7029.33
 183  6774.629
 184  7332.651
 185  7130.787
 186  7286.696
 187  7182.894
 188  7220.872
 189  6848.746
 190  7236.471
 191  7051.463
 192  7444.715
 193  7093.945
 194  7008.357
 195  7157.404
 196  7487.73
 197  7687.373
 198  7464.951
 199  7136.787
 200  7006.427
 201  7440.251
 202  7364.801
 203  7245.13
 204  7359.918
 205  7248.018
 206  7193.31
 207  7403.543
 208  7738.092
 209  7768.462
 210  7924.606
 211  8389.396
 212  8450.569
 213  8298.438
 214  7826.39
 215  7591.082
 216  8132.682
 217  8035.241
 218  7781.711
 219  7889.996
 220  8185.592
 221  8359.263
 222  7959.963
 223  8249.915
 224  7718.374
 225  8002.437
 226  7743.405
 227  7800.198
 228  7555.899
 229  8060.813
 230  8483.854
 231  7958.969
 232  7871.737
 233  7760.904
 234  7752.348
 235  7390.473
 236  7217.794
 237  6950.041
 238  6955.462
 239  7463.706
 240  7061.999
 241  6833.854
 242  6521.442
 243  6891.206
 244  7246.382
 245  7288.323
 246  7692.718
 247  8175.091
 248  7438.866
 249  7401.83
 250  7326.191
 251  7524.08
 252  7513.818
 253  7610.043
 254  7501.374
 255  7559.534
 256  7718.025
 257  7525.818
 258  7439.629
 259  7351.85
 260  7483.654
 261  6960.834
 262  7282.821
 263  7392.036
 264  7791.11
 265  7662.902
 266  7168.027
 267  6916.396
 268  7080.366
 269  6946.494
 270  7525.626
 271  7491.182
 272  7283.342
 273  7697.047
 274  7924.646
 275  8500.913
 276  8745.99
 277  8439.069
 278  7802.004
 279  7664.689
 280  7685.68
 281  7756.865
 282  7644.735
 283  7544.874
 284  7353.418
 285  7239.502
 286  7597.745
 287  7728.859
 288  7918.764
 289  8138.846
 290  8009.933
 291  7727.806
 292  7586.708
 293  7235.777
 294  7505.228
 295  7448.028
 296  7350.142
 297  7456.81
 298  7322.881
 299  7061.737
 300  6644.837
 301  7096.664
 302  6815.294
 303  6843.127
 304  6717.156
 305  6969.794
 306  7264.273
 307  6938.118
 308  6654.741
 309  7389.031
 310  7324.975
 311  7000.131
 312  7110.241
 313  7922.226
 314  7757.416
 315  7597.131
 316  7273.726
 317  7031.928
 318  6493.621
 319  6526.83
 320  7028.621
 321  7374.435
 322  7428.18
 323  7442.035
 324  7329.479
 325  7057.202
 326  6743.042
 327  6675.781
 328  6457.742
 329  6670.946
 330  7070.284
 331  7536.357
 332  7139.034
 333  7430.658
 334  7456.601
 335  7240.118
 336  6897.303
 337  7092.563
 338  7048.884
 339  7049.205
 340  7484.481
 341  7374.298
 342  7382.206
 343  6425.118
 344  6895.751
 345  7281.873
 346  7466.836
 347  7233.437
 348  6886.51
 349  7282.686
 350  7399.635
 351  7387.035
 352  7437.464
 353  7340.521
 354  7106.766
 355  7196.603
 356  6976.168
 357  6372.921
 358  7202.817
 359  7786.06
 360  7443.696
 361  6930.687
 362  7489.683
 363  7897.207
 364  7785.995
 365  7840.414
 366  8042.336
 367  7639.662
 368  7314.021
 369  7873.388
 370  8058.789
 371  7638.366
 372  7447.713
 373  8168.272
 374  8188.852
 375  7755.627
 376  7714.507
 377  7835.078
 378  7951.714
 379  7749.422
 380  8113.672
 381  7508.889
 382  7410.502
 383  8111.33
 384  8029.334
 385  7770.201
 386  7673.131
 387  7667.708
 388  7488.98
 389  7296.842
 390  7088.385
 391  7315.8
 392  7527.253
 393  7333.002
 394  7091.48
 395  7380.398
 396  7307.723
 397  7156.271
 398  7230.091
 399  7675.985
 400  7594.129
 401  7290.795
 402  7224.367
 403  7302.658
 404  7386.485
 405  8052.545
 406  7213.706
 407  7119.414
 408  6835.336
 409  6689.09
 410  6927.223
 411  6747.469
 412  7090.183
 413  7715.319
 414  7475.541
 415  7205.92
 416  7507.866
 417  7397.551
 418  7788.81
 419  8091.699
 420  7353.136
 421  7080.849
 422  7503.694
 423  7872.79
 424  7964.34
 425  8011.831
 426  8153.159
 427  8440.339
 428  8001.729
 429  7827.237
 430  8087.916
 431  7585.872
 432  7458.914
 433  7117.645
 434  7317.975
 435  7555.002
 436  7302.611
 437  7546.794
 438  8261.337
 439  8033.77
 440  8042.108
 441  8008.678
 442  7954.941
 443  7805.818
 444  7580.469
 445  7377.176
 446  7774.988
 447  8074.214
 448  7718.187
 449  6890.522
 450  6307.102
 451  6585.798
 452  7154.237
 453  7489.611
 454  7505.835
 455  7638.906
 456  8081.622
 457  7611.845
 458  7157.847
 459  7131.325
 460  6897.162
 461  7112.101
 462  7711.771
 463  7908.532
 464  7633.438
 465  7306.53
 466  7227.5
 467  7475.051
 468  7169.5
 469  6945.906
 470  7019.945
 471  7278.314
 472  6444.329
 473  6791.226
 474  6975.108
 475  6970.487
 476  6728.924
 477  6898.752
 478  6833.655
 479  6385.037
 480  6809.009
 481  7142.052
 482  7390.673
 483  7823.647
 484  7353.262
 485  7164.131
 486  6885.049
 487  7132.85
 488  7287.325
 489  7287.626
 490  6975.287
 491  6910.9
 492  7090.853
 493  6981.303
 494  6988.672
 495  7391.81
 496  6977.714
 497  7632.041
 498  7551.858
 499  7986.916
 500  7788.693
 501  7248.761
 502  7614.194
 503  7662.696
 504  7382.191
 505  7879.315
 506  7963.762
 507  8003.875
 508  7724.781
 509  8008.341
 510  8251.945
 511  7285.218
