# Input file       =  1196607167.098366_cleaned.dat
# Candidate        =  PSR_0332+5434
# Telescope        =  AR
# Epoch_topo       =  58093.620209471832
# Epoch_bary       =  N/A
# T_sample         =  0.002
# Data Folded      =  7208960
# Data Avg         =  0.314512799688699
# Data StdDev      =  5.65977536943922 
# Profile Bins     =  1024
# Profile Avg      =  2214.2023293347  
# Profile StdDev   =  474.881798889867 
# Reduced chi-sqr  =  0.571
# Prob(Noise)      <  1   (~0.0 sigma)
# P_topo (ms)      =  714.531441218158  +/- 3.01e-05
# P'_topo (s/s)    =  -0                +/- 1.62e-11
# P''_topo (s/s^2) =  0                 +/- 7.28e-15
# P_bary (ms)      =  N/A
# P'_bary (s/s)    =  N/A
# P''_bary (s/s^2) =  N/A
# P_orb (s)        =  N/A
# asin(i)/c (s)    =  N/A
# eccentricity     =  N/A
# w (rad)          =  N/A
# T_peri           =  N/A
######################################################
   0  2493.892
   1  2055.266
   2  1854.49
   3  1946.19
   4  2279.351
   5  2292.959
   6  2324.862
   7  2212.232
   8  2038.691
   9  1940.633
  10  2189.014
  11  2326.475
  12  2288.472
  13  2114.445
  14  1994.75
  15  1890.159
  16  1904.849
  17  2074.975
  18  2230.702
  19  2385.022
  20  2217.188
  21  2225.638
  22  2175.296
  23  2137.161
  24  2115.423
  25  2207.386
  26  2311.105
  27  2357.876
  28  2247.628
  29  2223.454
  30  2085.039
  31  2015.057
  32  1990.138
  33  1955.682
  34  2106.548
  35  2221.684
  36  2269.007
  37  2059.164
  38  2071.425
  39  2061.668
  40  2122.406
  41  2095.352
  42  2125.683
  43  2087.447
  44  1835.898
  45  1807.464
  46  1956.243
  47  2070.052
  48  2193.497
  49  2318.828
  50  2258.251
  51  2005.504
  52  1841.072
  53  1998.56
  54  2198.568
  55  2130.261
  56  2076.451
  57  1981.899
  58  1972.47
  59  2035.894
  60  2185.458
  61  2382.268
  62  2465.558
  63  2528.82
  64  2576.385
  65  2475.626
  66  2224.868
  67  2139.603
  68  2144.316
  69  2258.786
  70  2280.235
  71  2222.875
  72  2126.859
  73  1869.419
  74  1856.54
  75  2036.562
  76  2232.948
  77  2351.548
  78  2508.955
  79  2424.031
  80  2344.698
  81  2033.48
  82  2160.134
  83  2126.267
  84  2173.903
  85  2070.791
  86  1942.583
  87  1920.271
  88  1890.493
  89  2078.723
  90  2339.902
  91  2459.738
  92  2428.215
  93  2378.023
  94  2260.597
  95  2032.426
  96  2002.191
  97  2242.65
  98  2212.526
  99  2134.618
 100  2021.436
 101  1941.185
 102  1879.208
 103  1900.601
 104  2027.634
 105  1993.529
 106  1931.176
 107  1881.903
 108  1978.763
 109  1911.624
 110  2040.915
 111  2295.557
 112  2552.287
 113  2433.789
 114  2076.522
 115  1882.455
 116  1787.083
 117  1681.642
 118  1850.965
 119  1984.171
 120  1911.437
 121  1812.655
 122  1888.536
 123  1947.705
 124  1975.706
 125  2108.721
 126  2310.35
 127  2396.398
 128  2486.081
 129  2598.008
 130  2496.915
 131  2264.455
 132  2272.031
 133  2394.622
 134  2509.842
 135  2296.923
 136  2136.343
 137  2051.93
 138  1938.811
 139  2037.855
 140  2257.968
 141  2444.899
 142  2394.803
 143  2310.137
 144  2157.162
 145  2005.329
 146  1955.428
 147  2162.633
 148  2301.546
 149  2304.749
 150  2273.612
 151  2141.562
 152  2022.052
 153  2099.666
 154  2276.813
 155  2443.659
 156  2341.327
 157  2245.075
 158  2170.688
 159  2013.017
 160  2008.183
 161  2228.627
 162  2444.081
 163  2540.809
 164  2366.418
 165  2287.971
 166  2137.132
 167  2059.106
 168  2124.225
 169  2320.398
 170  2426.795
 171  2457.891
 172  2419.21
 173  2330.06
 174  2284.062
 175  2258.391
 176  2390.969
 177  2264.81
 178  2187.951
 179  2185.094
 180  2267.94
 181  2292.38
 182  2298.039
 183  2336.663
 184  2261.312
 185  2137.353
 186  2105.949
 187  2081.856
 188  2103.581
 189  2068.594
 190  2228.767
 191  2411.781
 192  2536.539
 193  2476.349
 194  2349.797
 195  2248.697
 196  2136.93
 197  2192.659
 198  2370.601
 199  2359.173
 200  2137.974
 201  2033.648
 202  2157.388
 203  2244.858
 204  2275.706
 205  2403.219
 206  2366.428
 207  2344.883
 208  2225.538
 209  2074.664
 210  2040.945
 211  2035.095
 212  2256.261
 213  2322.154
 214  2185.276
 215  1963.32
 216  1703.899
 217  1657.569
 218  1669.752
 219  1849.07
 220  2168.095
 221  2247.094
 222  2112.938
 223  2063.417
 224  2000.358
 225  2163.055
 226  2308.057
 227  2498.192
 228  2398.479
 229  2131.447
 230  1988.323
 231  1957.103
 232  1999.832
 233  2091.682
 234  2262.425
 235  2234.653
 236  2264.823
 237  2140.386
 238  2115.317
 239  2010.062
 240  1857.066
 241  2084.492
 242  2208.177
 243  2217.923
 244  2180.004
 245  2048.089
 246  2126.55
 247  2047.587
 248  2070.572
 249  2004.673
 250  1784.994
 251  1767.962
 252  1890.869
 253  2028.353
 254  2042.328
 255  2035.734
 256  2200.057
 257  2289.859
 258  2259.071
 259  2324.951
 260  2220.689
 261  2303.234
 262  2304.228
 263  2471.043
 264  2172.323
 265  1888.588
 266  1696.947
 267  1734.606
 268  1747.73
 269  1809.749
 270  1923.191
 271  2074.876
 272  2135.93
 273  2241.605
 274  2228.134
 275  2119.114
 276  2145.961
 277  2305.951
 278  2451.46
 279  2232.157
 280  2046.197
 281  1832.281
 282  1739.809
 283  1728.874
 284  1847.982
 285  2010.644
 286  2072.222
 287  2014.797
 288  2036.994
 289  2178.162
 290  2361.752
 291  2456.074
 292  2369.433
 293  2367.535
 294  2218.411
 295  2174.061
 296  2129.079
 297  2110.691
 298  2268.963
 299  2373.185
 300  2332.636
 301  2209.865
 302  1991.404
 303  1980.208
 304  1996.716
 305  2113.04
 306  2418.699
 307  2483.332
 308  2389.039
 309  2260.606
 310  2070.78
 311  2093.088
 312  2212.628
 313  2452.188
 314  2373.366
 315  2139.61
 316  2027.406
 317  2018.208
 318  1941.951
 319  1807.742
 320  1982.374
 321  2159.236
 322  2256.72
 323  2101.01
 324  2076.665
 325  2125.497
 326  2182.171
 327  2444.675
 328  2540.632
 329  2286.234
 330  2004.285
 331  1988.596
 332  2005.138
 333  2101.959
 334  2158.556
 335  2334.218
 336  2348.165
 337  2255.964
 338  2282.758
 339  2070.024
 340  2093.62
 341  2265.619
 342  2423.835
 343  2257.518
 344  2104.792
 345  2128.763
 346  2185.099
 347  2000.788
 348  1935.104
 349  2052.653
 350  2036.492
 351  1942.867
 352  1928.883
 353  1950.723
 354  2014.632
 355  2129.563
 356  2200.633
 357  2281.937
 358  2329.189
 359  2443.599
 360  2429.558
 361  2298.101
 362  2208.505
 363  2368.784
 364  2456.54
 365  2358.365
 366  2202.265
 367  2064.763
 368  2003.997
 369  2128.573
 370  2300.019
 371  2336.295
 372  2192.959
 373  2194.89
 374  2150.02
 375  2057.822
 376  2126.06
 377  2201.622
 378  2144.13
 379  2042.113
 380  1918.049
 381  1967.571
 382  2001.696
 383  2049.964
 384  2165.39
 385  2212.53
 386  2327.986
 387  2422.908
 388  2325.26
 389  2345.983
 390  2304.892
 391  2329.787
 392  2458.493
 393  2410.928
 394  2275.828
 395  2013.575
 396  1921.207
 397  2048.291
 398  2136.571
 399  2191.613
 400  2414.604
 401  2386.22
 402  2288.663
 403  2257.846
 404  2347.998
 405  2488.565
 406  2450.249
 407  2403.081
 408  2259.777
 409  2062.103
 410  2074.244
 411  2277.416
 412  2404.853
 413  2414.366
 414  2366.879
 415  2336.404
 416  2296.83
 417  2156.394
 418  2170.514
 419  2266.048
 420  2426.894
 421  2354.998
 422  2260.637
 423  2193.178
 424  2339.795
 425  2452.431
 426  2519.829
 427  2580.656
 428  2462.277
 429  2401.109
 430  2144.886
 431  2067.766
 432  2086.85
 433  2224.889
 434  2324.018
 435  2319.136
 436  2317.439
 437  2161.234
 438  2105.877
 439  2263.129
 440  2356.881
 441  2450.51
 442  2341.562
 443  2397.646
 444  2312.436
 445  2179.267
 446  2193.113
 447  2145.259
 448  2159.996
 449  2130.122
 450  2228.759
 451  2245.962
 452  2175.407
 453  2091.239
 454  2268.378
 455  2343.833
 456  2512.429
 457  2683.93
 458  2664.844
 459  2432.295
 460  2333.002
 461  2485.072
 462  2582.875
 463  2521.607
 464  2348.54
 465  2333.631
 466  2149.978
 467  2276.045
 468  2514.136
 469  2586.002
 470  2597.327
 471  2461.049
 472  2392.947
 473  2332.598
 474  2185.045
 475  2437.57
 476  2397.601
 477  2379.726
 478  2315.972
 479  2415.279
 480  2163.535
 481  1990.99
 482  1830.404
 483  2062.956
 484  2078.122
 485  2133.606
 486  2195.691
 487  2187.168
 488  2236.804
 489  2122.112
 490  2197.955
 491  2333.656
 492  2395.865
 493  2450.18
 494  2459.025
 495  2183.259
 496  2069.165
 497  2080.469
 498  2087.77
 499  2127.258
 500  2235.46
 501  2253.524
 502  2013.281
 503  1888.249
 504  2024.384
 505  2085.313
 506  2144.844
 507  2230.516
 508  2280.903
 509  2063.386
 510  2012.106
 511  2135.046
 512  2324.319
 513  2458.429
 514  2440.821
 515  2437.671
 516  2383.936
 517  2242.819
 518  2322.702
 519  2377.465
 520  2448.677
 521  2452.517
 522  2460.741
 523  2257.561
 524  2076.447
 525  2207.998
 526  2509.378
 527  2648.465
 528  2631.601
 529  2575.084
 530  2454.147
 531  2194.191
 532  2176.422
 533  2165.014
 534  2333.716
 535  2509.732
 536  2485.559
 537  2461.233
 538  2201.827
 539  2134.526
 540  2130.476
 541  2015.25
 542  1986.62
 543  2048.353
 544  2109.449
 545  1952.162
 546  1751.729
 547  1761.785
 548  1907.084
 549  2024.151
 550  2105.444
 551  2272.183
 552  2424.247
 553  2362.227
 554  2286.954
 555  2201.668
 556  2306.413
 557  2331.426
 558  2289.491
 559  2167.578
 560  2130.781
 561  2188.151
 562  2266.204
 563  2249.563
 564  2199.638
 565  2184.013
 566  2158.693
 567  2238.582
 568  2323.966
 569  2384.403
 570  2343.111
 571  2313.563
 572  2401.22
 573  2283.723
 574  2155.608
 575  2185.794
 576  2285.076
 577  2339.767
 578  2260.416
 579  2268.637
 580  2150.145
 581  2031.401
 582  1870.732
 583  1964.134
 584  2072.8
 585  2235.613
 586  2358.388
 587  2271.722
 588  2137.059
 589  2095.214
 590  2135.678
 591  2233.264
 592  2165.69
 593  2202.224
 594  2190.101
 595  1967.39
 596  1816.412
 597  1730.988
 598  1937.01
 599  2259.616
 600  2270.643
 601  2101.967
 602  1908.509
 603  1839.06
 604  1852.722
 605  2041.533
 606  2241.606
 607  2215.486
 608  2025.74
 609  1857.937
 610  1879.217
 611  1886.268
 612  1989.703
 613  2184.626
 614  2298.343
 615  2399.847
 616  2405.31
 617  2436.795
 618  2439.374
 619  2699.019
 620  2773.062
 621  2966.795
 622  2921.964
 623  2924.629
 624  2750.185
 625  2522.389
 626  2552.754
 627  2613.067
 628  2700.434
 629  2520.086
 630  2475.958
 631  2336.981
 632  2287.352
 633  2333.916
 634  2569.533
 635  2720.479
 636  2779.315
 637  2703.746
 638  2578.251
 639  2374.513
 640  2488.198
 641  2527.144
 642  2631.873
 643  2446.749
 644  2376.849
 645  2191.592
 646  2099.806
 647  2070.015
 648  2380.192
 649  2514.231
 650  2541.185
 651  2338.825
 652  2250.965
 653  2176.715
 654  2152.596
 655  2354.86
 656  2555.669
 657  2551.72
 658  2534.4
 659  2463.223
 660  2318.498
 661  2216.937
 662  2257.729
 663  2406.351
 664  2398.877
 665  2300.229
 666  2286.762
 667  2281.51
 668  2298.083
 669  2408.727
 670  2434.182
 671  2515.991
 672  2427.887
 673  2356.512
 674  2346.133
 675  2395.298
 676  2484.223
 677  2411.418
 678  2193.785
 679  2203.032
 680  2094.273
 681  1964.748
 682  1812.982
 683  1985.261
 684  2337.922
 685  2629.417
 686  2694.831
 687  2467.568
 688  2444.083
 689  2487.724
 690  2725.25
 691  2585.117
 692  2457.787
 693  2312.576
 694  2393.085
 695  2235.096
 696  1946.53
 697  1764.233
 698  1985.619
 699  2250.474
 700  2305.664
 701  2314.77
 702  2361.988
 703  2283.134
 704  2260.976
 705  2477.66
 706  2544.218
 707  2406.684
 708  2151.508
 709  2129.153
 710  2115.239
 711  1778.358
 712  1710.897
 713  1870.873
 714  2217.71
 715  2109.849
 716  2055.312
 717  2127.597
 718  2275.286
 719  2439.453
 720  2498.047
 721  2479.74
 722  2216.475
 723  2309.943
 724  2243.782
 725  2267.82
 726  2104.615
 727  2186.304
 728  2300.765
 729  2240.314
 730  2075.401
 731  2117.582
 732  2054.766
 733  2218.587
 734  2295.062
 735  2351.202
 736  2305.945
 737  2087.942
 738  2068.543
 739  1960.68
 740  1955.979
 741  2044.919
 742  2245.321
 743  2252.263
 744  2013.738
 745  1949.273
 746  1914.707
 747  1969.446
 748  2061.405
 749  2333.16
 750  2502.858
 751  2438.367
 752  2315.924
 753  2252.357
 754  2360.483
 755  2377.183
 756  2276.825
 757  2168.412
 758  2126.271
 759  1900.126
 760  1848.662
 761  1796.109
 762  1990.14
 763  2119.597
 764  2365.187
 765  2431.931
 766  2454.444
 767  2505.139
 768  2343.871
 769  2190.744
 770  2217.638
 771  2328.403
 772  2268.218
 773  2219.379
 774  2247.671
 775  2290.485
 776  2228.017
 777  2173.659
 778  2311.813
 779  2405.99
 780  2401.106
 781  2385.569
 782  2484.259
 783  2386.41
 784  2248.58
 785  2324.018
 786  2346.536
 787  2484.265
 788  2379.205
 789  2433.74
 790  2359.943
 791  2271.287
 792  2186.125
 793  2200.265
 794  2122.446
 795  2029.044
 796  1894.623
 797  1754.93
 798  1885.66
 799  2132.525
 800  2280.965
 801  2212.558
 802  1935.914
 803  1936.225
 804  1953.576
 805  2166.436
 806  2339.849
 807  2389.837
 808  2395.653
 809  2307.632
 810  2245.223
 811  2017.12
 812  1970.407
 813  2058.865
 814  2377.558
 815  2497.902
 816  2284.503
 817  2151.727
 818  2204.53
 819  2410.197
 820  2462.441
 821  2527.521
 822  2641.207
 823  2508.496
 824  2341.774
 825  2251.754
 826  2094.577
 827  1934.143
 828  1974.605
 829  2111.317
 830  2040.212
 831  1834.386
 832  1962.102
 833  2148.913
 834  2145.398
 835  2278.651
 836  2522.169
 837  2595.579
 838  2450.637
 839  2314.972
 840  2179.704
 841  2038.473
 842  2032.309
 843  2198.271
 844  2131.373
 845  1897.151
 846  1899.327
 847  2063.188
 848  2167.437
 849  2175.66
 850  2243.762
 851  2294.412
 852  2321.928
 853  2284.108
 854  2399.221
 855  2329.476
 856  2366.911
 857  2499.837
 858  2509.579
 859  2271.276
 860  2084.373
 861  1915.187
 862  1891.58
 863  1856.566
 864  2151.933
 865  2345.928
 866  2393.591
 867  2326.78
 868  2237.159
 869  2116.523
 870  2030.713
 871  2138.19
 872  2314.568
 873  2275.597
 874  2183.384
 875  2110.765
 876  2124.502
 877  2041.652
 878  1977.581
 879  1993.494
 880  2124.959
 881  2342.738
 882  2236.187
 883  2105.435
 884  1897.36
 885  2036.648
 886  2213.098
 887  2338.334
 888  2140.552
 889  1964.464
 890  2016.999
 891  2137.483
 892  2185.463
 893  2192.006
 894  2122.739
 895  2069.156
 896  1984.488
 897  2106.754
 898  2200.894
 899  2330.798
 900  2490.1
 901  2496.805
 902  2212.281
 903  2009.545
 904  1998.767
 905  2141.825
 906  2255.327
 907  2204.299
 908  2145.503
 909  1957.407
 910  1937.868
 911  2011.572
 912  2241.073
 913  2365.023
 914  2386.316
 915  2416.97
 916  2442.787
 917  2423.633
 918  2441.01
 919  2445.173
 920  2394.393
 921  2354.032
 922  2403.258
 923  2322.775
 924  2298.386
 925  2093.963
 926  2073.958
 927  2112.026
 928  2103.353
 929  2179.178
 930  2164.83
 931  2228.54
 932  2185.094
 933  2282.734
 934  2355.141
 935  2450.072
 936  2401.402
 937  2328.735
 938  2223.852
 939  2104.613
 940  2171.785
 941  2231.971
 942  2286.714
 943  2427.581
 944  2535.367
 945  2424.795
 946  2201.789
 947  2162.65
 948  2368.95
 949  2405.115
 950  2315.892
 951  2342.135
 952  2369.217
 953  2404.85
 954  2278.492
 955  2318.228
 956  2268.898
 957  2059.3
 958  2096.49
 959  2103.4
 960  2147.08
 961  2045.464
 962  2101.422
 963  2169.619
 964  2156.716
 965  2255.722
 966  2274.776
 967  2265.945
 968  2110.16
 969  2238.212
 970  2231.602
 971  2282.924
 972  2140.558
 973  2221.799
 974  2083.143
 975  1852.893
 976  1917.189
 977  1931.391
 978  2180.448
 979  2208.519
 980  2379.625
 981  2414.696
 982  2200.575
 983  2077.488
 984  2160.414
 985  2204.246
 986  2296.641
 987  2297.343
 988  2451.777
 989  2349.507
 990  2281.777
 991  2262.719
 992  2250.049
 993  2163.517
 994  2236.078
 995  2236.867
 996  2073.412
 997  2034.34
 998  2027.771
 999  2178.387
1000  2234.491
1001  2293.568
1002  2237.231
1003  2029.655
1004  1973.914
1005  2163.495
1006  2108.197
1007  2101.351
1008  2019.068
1009  2174.22
1010  2136.717
1011  1821.137
1012  1787.411
1013  2090.91
1014  2341.578
1015  2524.224
1016  2625.505
1017  2501.905
1018  2363.203
1019  2319.492
1020  2565.815
1021  2490.382
1022  2384.901
1023  2502.237
