# Input file       =  1196090719.110027_cleaned.dat
# Candidate        =  PSR_0332+5434
# Telescope        =  AR
# Epoch_topo       =  58087.642802199385
# Epoch_bary       =  N/A
# T_sample         =  0.002
# Data Folded      =  7208960
# Data Avg         =  0.05685087459551 
# Data StdDev      =  1.00023102909578 
# Profile Bins     =  512
# Profile Avg      =  800.43580781418  
# Profile StdDev   =  118.68658951562  
# Reduced chi-sqr  =  0.839
# Prob(Noise)      <  0.997   (~0.0 sigma)
# P_topo (ms)      =  714.525295707568  +/- 0.000295
# P'_topo (s/s)    =  -0                +/- 1.58e-10
# P''_topo (s/s^2) =  0                 +/- 7.12e-14
# P_bary (ms)      =  N/A
# P'_bary (s/s)    =  N/A
# P''_bary (s/s^2) =  N/A
# P_orb (s)        =  N/A
# asin(i)/c (s)    =  N/A
# eccentricity     =  N/A
# w (rad)          =  N/A
# T_peri           =  N/A
######################################################
   0  823.2921
   1  730.5186
   2  599.1982
   3  745.4196
   4  751.7157
   5  738.1945
   6  758.1677
   7  772.3158
   8  747.0413
   9  727.5094
  10  797.5716
  11  759.3201
  12  768.1284
  13  745.8737
  14  783.28
  15  821.4891
  16  828.0895
  17  834.8823
  18  828.2444
  19  856.8441
  20  851.6484
  21  860.8422
  22  789.6685
  23  794.14
  24  769.3775
  25  863.6616
  26  850.5901
  27  751.3597
  28  769.9344
  29  797.8122
  30  775.0999
  31  796.8164
  32  865.3317
  33  826.1581
  34  747.741
  35  741.5466
  36  827.1526
  37  812.0198
  38  838.9578
  39  905.8869
  40  812.6501
  41  728.6871
  42  809.5552
  43  855.7859
  44  817.3928
  45  871.5045
  46  938.7544
  47  768.9078
  48  658.3124
  49  662.9045
  50  737.8008
  51  832.5433
  52  774.2521
  53  821.5812
  54  720.0396
  55  777.2055
  56  718.4479
  57  745.6339
  58  731.8989
  59  596.9658
  60  694.0709
  61  734.7114
  62  727.9024
  63  735.8384
  64  779.6819
  65  826.9891
  66  800.2203
  67  742.7866
  68  744.1608
  69  767.8797
  70  840.7153
  71  743.7499
  72  755.7321
  73  733.2083
  74  737.5105
  75  671.2574
  76  676.3265
  77  727.3006
  78  851.4889
  79  824.623
  80  759.1275
  81  726.2076
  82  828.2768
  83  856.0081
  84  843.3195
  85  699.4539
  86  773.1552
  87  759.6098
  88  793.8369
  89  904.6742
  90  859.1973
  91  887.3616
  92  777.4307
  93  808.5234
  94  830.1147
  95  708.3186
  96  754.75
  97  828.4125
  98  801.8787
  99  805.002
 100  929.4255
 101  923.5828
 102  867.4633
 103  856.1666
 104  947.9489
 105  832.2175
 106  766.1186
 107  824.4578
 108  916.5882
 109  932.2784
 110  952.3668
 111  893.573
 112  825.371
 113  927.8552
 114  976.8942
 115  922.9271
 116  955.8539
 117  865.8062
 118  850.4029
 119  806.7864
 120  777.1749
 121  840.6316
 122  872.8086
 123  867.7646
 124  767.383
 125  711.5408
 126  747.3713
 127  800.4365
 128  865.6852
 129  869.3332
 130  872.6693
 131  828.3147
 132  940.9633
 133  738.0658
 134  705.4742
 135  802.0342
 136  853.0618
 137  821.9422
 138  826.5186
 139  830.8473
 140  773.5154
 141  767.3881
 142  813.3606
 143  766.2983
 144  780.5036
 145  624.5975
 146  739.355
 147  751.0834
 148  817.1619
 149  865.8072
 150  827.0874
 151  783.1484
 152  807.6977
 153  857.9081
 154  822.0321
 155  819.5485
 156  830.1212
 157  792.0665
 158  739.2554
 159  839.0344
 160  754.002
 161  784.2063
 162  842.0413
 163  795.7734
 164  905.0914
 165  938.9582
 166  939.8519
 167  905.2172
 168  888.7932
 169  827.9146
 170  864.8194
 171  930.9775
 172  815.273
 173  759.8854
 174  799.4287
 175  895.1222
 176  858.7066
 177  826.355
 178  813.3845
 179  803.6086
 180  848.3332
 181  768.7669
 182  809.5451
 183  833.5302
 184  767.3618
 185  745.4096
 186  783.8985
 187  837.3244
 188  743.6917
 189  748.6548
 190  769.5704
 191  834.2999
 192  788.438
 193  805.3887
 194  727.6779
 195  795.1298
 196  858.3127
 197  822.6297
 198  780.7649
 199  776.3479
 200  729.7193
 201  648.1123
 202  736.2529
 203  820.8232
 204  814.3571
 205  813.2772
 206  741.4784
 207  910.8156
 208  949.8073
 209  933.5509
 210  947.8711
 211  909.8347
 212  853.9855
 213  751.0709
 214  882.4948
 215  930.1943
 216  928.9942
 217  862.8991
 218  862.0727
 219  858.2633
 220  910.6272
 221  821.787
 222  799.8408
 223  893.6578
 224  892.0793
 225  919.1416
 226  856.8895
 227  788.3766
 228  787.3245
 229  795.8283
 230  802.1476
 231  718.4181
 232  806.444
 233  868.003
 234  898.3865
 235  869.9717
 236  902.3649
 237  848.926
 238  782.3853
 239  802.3831
 240  706.166
 241  840.9749
 242  817.2029
 243  917.9656
 244  919.7502
 245  982.5524
 246  884.0119
 247  817.6273
 248  861.0845
 249  859.8463
 250  850.337
 251  877.918
 252  897.1816
 253  831.7269
 254  809.2965
 255  727.1235
 256  837.4393
 257  861.5643
 258  902.9296
 259  948.8674
 260  825.5183
 261  888.5977
 262  897.947
 263  848.4609
 264  861.6054
 265  964.6218
 266  1071.629
 267  1021.053
 268  1043.973
 269  805.5285
 270  724.7346
 271  659.84
 272  779.1118
 273  688.2205
 274  608.0516
 275  666.438
 276  651.9783
 277  613.1311
 278  608.2618
 279  650.0546
 280  675.1227
 281  651.5483
 282  770.451
 283  704.2324
 284  657.9994
 285  609.084
 286  735.1525
 287  790.5298
 288  704.8232
 289  683.3882
 290  748.6147
 291  729.2301
 292  705.1805
 293  721.6335
 294  734.3551
 295  675.5034
 296  652.3873
 297  728.1832
 298  669.97
 299  613.3253
 300  670.7884
 301  780.7772
 302  788.2989
 303  718.2982
 304  851.9846
 305  822.2039
 306  719.5177
 307  726.3137
 308  740.4681
 309  788.7397
 310  674.3533
 311  699.5695
 312  779.6254
 313  841.8814
 314  837.2672
 315  791.9061
 316  799.5631
 317  801.7936
 318  925.0047
 319  935.3729
 320  924.0837
 321  829.6319
 322  783.3182
 323  793.8423
 324  749.4833
 325  779.9197
 326  830.0208
 327  887.9622
 328  913.9913
 329  895.3615
 330  846.8477
 331  844.2331
 332  933.3023
 333  907.4193
 334  925.9829
 335  797.4844
 336  724.0421
 337  776.7443
 338  838.1309
 339  890.194
 340  733.5814
 341  650.8062
 342  773.4211
 343  781.9919
 344  780.8072
 345  766.3378
 346  684.5538
 347  786.5552
 348  822.1557
 349  815.4304
 350  836.3478
 351  811.7714
 352  754.8041
 353  713.4694
 354  700.7413
 355  752.5948
 356  792.3194
 357  703.6661
 358  651.2494
 359  803.6261
 360  851.2261
 361  803.4208
 362  830.7501
 363  863.6639
 364  767.3836
 365  745.8259
 366  834.504
 367  729.5439
 368  756.966
 369  750.3284
 370  750.6746
 371  809.4955
 372  997.6312
 373  917.5475
 374  884.2366
 375  838.6507
 376  938.7145
 377  960.0386
 378  893.9717
 379  936.4188
 380  826.2567
 381  799.89
 382  808.2025
 383  842.6642
 384  908.0358
 385  898.2046
 386  889.3694
 387  924.7755
 388  941.6255
 389  1004.444
 390  984.9487
 391  869.2673
 392  829.9833
 393  882.8441
 394  828.1837
 395  843.1476
 396  694.904
 397  702.2115
 398  764.3184
 399  828.1291
 400  806.4663
 401  744.4463
 402  786.9208
 403  767.2742
 404  727.5723
 405  774.4959
 406  844.1963
 407  820.538
 408  704.2012
 409  802.2109
 410  800.627
 411  718.306
 412  766.148
 413  861.126
 414  794.4652
 415  830.9201
 416  911.4557
 417  838.8037
 418  825.0861
 419  952.7372
 420  830.6528
 421  643.7513
 422  706.5394
 423  747.1287
 424  738.6024
 425  684.0263
 426  769.5139
 427  662.4672
 428  675.5073
 429  858.9162
 430  798.5579
 431  730.175
 432  780.9569
 433  763.316
 434  691.8898
 435  715.8551
 436  800.2701
 437  796.862
 438  722.342
 439  713.6318
 440  746.2175
 441  728.7082
 442  699.5501
 443  823.1633
 444  801.2822
 445  783.0192
 446  744.3721
 447  638.9549
 448  675.8763
 449  662.3463
 450  676.4823
 451  772.7372
 452  796.0215
 453  748.6862
 454  774.8726
 455  748.6107
 456  700.8811
 457  737.9297
 458  868.1021
 459  852.9651
 460  863.6803
 461  846.8019
 462  738.363
 463  764.3592
 464  700.9534
 465  772.58
 466  796.3419
 467  837.347
 468  879.0215
 469  890.5056
 470  892.2581
 471  847.5964
 472  830.8406
 473  758.8958
 474  744.4762
 475  708.2568
 476  772.8756
 477  720.4106
 478  631.6146
 479  723.3232
 480  811.0482
 481  816.7745
 482  731.4283
 483  792.5217
 484  794.0093
 485  840.5927
 486  847.2968
 487  815.1428
 488  774.3235
 489  752.8959
 490  728.7493
 491  876.2715
 492  809.7206
 493  806.3015
 494  838.9214
 495  849.1044
 496  856.3873
 497  760.6719
 498  792.7272
 499  700.8727
 500  689.9543
 501  803.5836
 502  641.1678
 503  717.0035
 504  733.5897
 505  755.6182
 506  809.1506
 507  748.2975
 508  784.9584
 509  808.0338
 510  819.7245
 511  769.7618
