# Input file       =  1196464943.112988_cleaned.dat
# Candidate        =  PSR_0332+5434
# Telescope        =  AR
# Epoch_topo       =  58091.974098529950
# Epoch_bary       =  N/A
# T_sample         =  0.002
# Data Folded      =  7340032
# Data Avg         =  0.0463781783387885
# Data StdDev      =  1.00064457361088 
# Profile Bins     =  512
# Profile Avg      =  664.888053872049 
# Profile StdDev   =  119.810213132365 
# Reduced chi-sqr  =  0.718
# Prob(Noise)      <  1   (~0.0 sigma)
# P_topo (ms)      =  714.530113517101  +/- 5.56e-05
# P'_topo (s/s)    =  -0                +/- 2.93e-11
# P''_topo (s/s^2) =  0                 +/- 1.3e-14
# P_bary (ms)      =  N/A
# P'_bary (s/s)    =  N/A
# P''_bary (s/s^2) =  N/A
# P_orb (s)        =  N/A
# asin(i)/c (s)    =  N/A
# eccentricity     =  N/A
# w (rad)          =  N/A
# T_peri           =  N/A
######################################################
   0  654.1789
   1  641.0517
   2  709.812
   3  620.8383
   4  633.3563
   5  663.3317
   6  612.475
   7  583.4177
   8  655.94
   9  786.2735
  10  613.3446
  11  584.153
  12  612.2336
  13  756.7546
  14  779.6888
  15  723.9167
  16  760.0018
  17  757.0432
  18  580.97
  19  523.78
  20  576.9744
  21  648.6739
  22  683.4273
  23  694.1428
  24  607.962
  25  540.5838
  26  642.2242
  27  680.3937
  28  659.5125
  29  650.5433
  30  693.4208
  31  732.8848
  32  770.5364
  33  701.7877
  34  568.8051
  35  516.1748
  36  649.6266
  37  693.087
  38  701.8113
  39  707.6229
  40  642.8724
  41  636.0282
  42  662.1851
  43  596.1735
  44  621.1878
  45  705.0242
  46  709.1331
  47  638.2551
  48  665.6045
  49  708.053
  50  636.5394
  51  641.1234
  52  682.516
  53  604.9818
  54  661.5104
  55  659.0504
  56  678.107
  57  606.4016
  58  612.5641
  59  662.5051
  60  555.834
  61  443.2762
  62  620.5098
  63  673.0286
  64  627.1313
  65  626.3187
  66  835.4325
  67  763.0292
  68  699.8488
  69  643.5262
  70  771.9368
  71  738.0538
  72  722.6594
  73  711.0811
  74  743.0234
  75  542.7831
  76  604.3428
  77  653.8594
  78  810.8813
  79  747.064
  80  698.6704
  81  762.8751
  82  559.0934
  83  441.8967
  84  561.4728
  85  553.8431
  86  638.4302
  87  733.8028
  88  691.6555
  89  620.9448
  90  532.9123
  91  540.8461
  92  595.7828
  93  583.7401
  94  573.3876
  95  601.9096
  96  617.728
  97  747.7538
  98  720.1697
  99  702.8452
 100  710.3535
 101  557.8556
 102  564.9024
 103  575.7904
 104  617.2161
 105  671.8529
 106  651.9379
 107  608.2493
 108  591.3219
 109  660.1094
 110  636.9043
 111  536.2001
 112  562.7616
 113  658.9299
 114  625.5934
 115  557.7481
 116  653.9915
 117  670.5853
 118  627.7721
 119  587.9749
 120  622.4837
 121  562.5226
 122  576.1098
 123  600.8273
 124  646.4131
 125  655.7379
 126  740.8807
 127  767.5297
 128  680.8534
 129  546.7151
 130  458.888
 131  587.5602
 132  643.5772
 133  618.2784
 134  665.4152
 135  631.98
 136  604.8444
 137  604.0914
 138  667.8525
 139  689.0502
 140  666.7678
 141  706.5084
 142  748.7867
 143  645.2889
 144  586.0873
 145  593.2711
 146  631.8638
 147  580.2086
 148  676.4883
 149  690.8727
 150  608.9868
 151  626.3526
 152  674.601
 153  643.132
 154  641.1118
 155  698.9253
 156  764.8017
 157  706.2875
 158  635.8876
 159  622.7239
 160  639.9737
 161  639.1372
 162  656.5897
 163  630.5223
 164  511.782
 165  524.0584
 166  598.5668
 167  642.3891
 168  505.1409
 169  578.7074
 170  751.4705
 171  782.0522
 172  712.553
 173  716.1684
 174  723.5107
 175  675.7354
 176  631.8251
 177  623.9335
 178  554.9858
 179  581.4199
 180  632.366
 181  695.3167
 182  671.0817
 183  654.3506
 184  629.8901
 185  601.5097
 186  552.0609
 187  528.7841
 188  592.8096
 189  616.4873
 190  558.9249
 191  552.5484
 192  672.6479
 193  648.55
 194  657.8922
 195  727.3735
 196  721.0424
 197  649.1701
 198  625.6829
 199  686.9245
 200  678.8129
 201  642.88
 202  541.2081
 203  639.1949
 204  656.5496
 205  650.2275
 206  651.0584
 207  589.49
 208  606.6929
 209  660.7286
 210  784.7137
 211  824.6542
 212  822.4702
 213  786.2119
 214  704.0734
 215  686.1084
 216  717.241
 217  764.1924
 218  761.5895
 219  766.6459
 220  757.3232
 221  736.7817
 222  791.6668
 223  935.592
 224  942.6531
 225  936.0864
 226  850.5769
 227  775.8344
 228  812.7824
 229  731.7744
 230  626.8897
 231  767.5297
 232  630.7646
 233  511.0515
 234  636.7078
 235  594.7409
 236  557.005
 237  656.2743
 238  735.0764
 239  666.284
 240  676.0001
 241  730.6729
 242  701.8841
 243  651.8614
 244  647.7825
 245  710.2812
 246  684.2363
 247  636.4697
 248  619.9336
 249  522.2422
 250  573.5443
 251  540.3456
 252  667.0878
 253  691.7579
 254  693.7579
 255  669.4433
 256  658.9328
 257  686.0419
 258  674.2994
 259  665.6935
 260  648.2006
 261  606.83
 262  697.9032
 263  679.938
 264  601.8648
 265  620.0391
 266  685.0651
 267  762.8933
 268  705.6757
 269  657.5728
 270  690.5358
 271  649.9333
 272  628.1392
 273  660.169
 274  644.1571
 275  713.8304
 276  689.6966
 277  689.3446
 278  576.252
 279  603.9612
 280  658.251
 281  690.8314
 282  708.1432
 283  615.0069
 284  610.6512
 285  651.3665
 286  697.4723
 287  679.3676
 288  639.8459
 289  665.8408
 290  639.0956
 291  755.735
 292  823.435
 293  861.4432
 294  810.8251
 295  662.0754
 296  668.4495
 297  675.9983
 298  684.1555
 299  629.6056
 300  549.7473
 301  594.819
 302  747.877
 303  774.0067
 304  750.2901
 305  786.3019
 306  762.9977
 307  742.3097
 308  703.1641
 309  686.5991
 310  541.4521
 311  604.4131
 312  642.0206
 313  594.5338
 314  651.8518
 315  708.8311
 316  823.9799
 317  713.7184
 318  598.7357
 319  632.8222
 320  682.4822
 321  735.1418
 322  626.4335
 323  583.8204
 324  673.6331
 325  621.777
 326  612.0772
 327  615.6349
 328  718.0398
 329  739.1442
 330  676.6602
 331  679.2995
 332  719.5795
 333  623.1591
 334  547.0921
 335  642.0095
 336  764.5963
 337  678.7783
 338  885.4843
 339  739.0223
 340  638.7274
 341  620.5139
 342  610.1075
 343  733.8774
 344  710.1666
 345  649.5023
 346  580.7597
 347  663.5495
 348  691.4944
 349  763.0541
 350  748.1112
 351  662.2975
 352  616.1119
 353  602.9841
 354  626.9852
 355  680.7808
 356  708.4841
 357  637.9646
 358  594.023
 359  615.27
 360  697.345
 361  665.9194
 362  592.1893
 363  637.9305
 364  662.7375
 365  615.3462
 366  749.637
 367  810.9099
 368  757.3718
 369  795.4212
 370  704.3502
 371  864.842
 372  775.6545
 373  670.5809
 374  661.5834
 375  740.3119
 376  732.8676
 377  691.8864
 378  745.0616
 379  765.9531
 380  643.4798
 381  727.9374
 382  682.2639
 383  674.5674
 384  680.4969
 385  762.0891
 386  643.4657
 387  606.4213
 388  652.2183
 389  738.1039
 390  601.3445
 391  558.2584
 392  602.4825
 393  628.5731
 394  544.6042
 395  605.4522
 396  591.5723
 397  565.6475
 398  545.6868
 399  658.3096
 400  672.4792
 401  706.5597
 402  815.0503
 403  680.7158
 404  632.8351
 405  621.1445
 406  640.3713
 407  685.7157
 408  639.4238
 409  695.2067
 410  806.8274
 411  790.2101
 412  707.7924
 413  572.5755
 414  702.3883
 415  727.1826
 416  709.1984
 417  668.5873
 418  658.9651
 419  647.7758
 420  602.3932
 421  701.6824
 422  742.1124
 423  713.3124
 424  691.4321
 425  622.0224
 426  651.5714
 427  593.8078
 428  625.8182
 429  707.8934
 430  732.6412
 431  751.3433
 432  611.3635
 433  547.8687
 434  567.7344
 435  530.3654
 436  615.379
 437  611.1188
 438  670.1305
 439  643.6481
 440  579.8912
 441  667.028
 442  694.9509
 443  634.0062
 444  643.5363
 445  698.7663
 446  798.782
 447  669.5997
 448  627.9662
 449  678.4305
 450  621.5115
 451  672.8188
 452  717.9288
 453  738.4965
 454  653.6323
 455  678.2418
 456  658.226
 457  648.1342
 458  793.4351
 459  799.6286
 460  661.765
 461  579.6127
 462  651.8333
 463  672.7698
 464  650.1581
 465  587.3466
 466  689.8721
 467  631.9127
 468  739.7233
 469  732.9222
 470  637.4913
 471  658.1758
 472  677.0216
 473  582.5271
 474  602.5539
 475  673.0023
 476  656.5681
 477  629.0854
 478  773.6167
 479  745.0312
 480  637.3658
 481  799.1384
 482  779.3477
 483  621.5546
 484  668.356
 485  690.1255
 486  711.1407
 487  727.5001
 488  756.3541
 489  753.2589
 490  660.3552
 491  592.4174
 492  559.9213
 493  649.1342
 494  687.084
 495  670.3975
 496  740.1791
 497  700.4171
 498  557.4407
 499  459.2816
 500  747.7192
 501  761.8712
 502  701.1473
 503  662.5245
 504  660.258
 505  755.4382
 506  760.4575
 507  725.9164
 508  665.683
 509  653.8972
 510  695.3918
 511  658.4827
