# Input file       =  1196090719.110027_cleaned.dat
# Candidate        =  PSR_0332+5434
# Telescope        =  AR
# Epoch_topo       =  58087.642802199385
# Epoch_bary       =  N/A
# T_sample         =  0.002
# Data Folded      =  7208960
# Data Avg         =  0.566737556785601
# Data StdDev      =  10.7397189079139 
# Profile Bins     =  512
# Profile Avg      =  7979.5635664471  
# Profile StdDev   =  1274.36619386726 
# Reduced chi-sqr  =  0.618
# Prob(Noise)      <  1   (~0.0 sigma)
# P_topo (ms)      =  714.52529573603   +/- 5.35e-05
# P'_topo (s/s)    =  -0                +/- 2.87e-11
# P''_topo (s/s^2) =  0                 +/- 1.29e-14
# P_bary (ms)      =  N/A
# P'_bary (s/s)    =  N/A
# P''_bary (s/s^2) =  N/A
# P_orb (s)        =  N/A
# asin(i)/c (s)    =  N/A
# eccentricity     =  N/A
# w (rad)          =  N/A
# T_peri           =  N/A
######################################################
   0  6942.591
   1  7525.764
   2  8811.603
   3  9722.466
   4  9445.828
   5  9165.731
   6  9577.702
   7  8425.35
   8  8014.639
   9  8172.84
  10  7756.891
  11  7151.86
  12  6939.342
  13  7194.932
  14  7289.724
  15  7774.467
  16  7680.977
  17  7592.774
  18  7345.578
  19  7065.415
  20  7394.484
  21  7911.387
  22  7977.172
  23  7917.419
  24  8238.934
  25  7516.214
  26  7871.642
  27  8640.549
  28  8747.372
  29  8540.036
  30  8337.968
  31  8794.732
  32  8086.032
  33  7964.977
  34  7944.247
  35  7358.835
  36  7586.436
  37  7674.557
  38  7999.291
  39  7352.719
  40  6661.283
  41  7097.084
  42  7907.178
  43  7803.367
  44  8033.301
  45  8487.082
  46  8144.69
  47  7656.916
  48  7098.077
  49  7183.814
  50  7312.333
  51  8052.143
  52  7714.002
  53  7823.335
  54  7563.614
  55  7832.245
  56  7854.082
  57  7819.108
  58  8054.935
  59  8448.948
  60  8650.213
  61  7775.835
  62  7889.772
  63  8389.449
  64  8060.198
  65  8211.237
  66  8400.849
  67  9022.257
  68  8672.545
  69  8336.755
  70  7951.201
  71  7708.997
  72  7171.627
  73  7668.087
  74  8476.296
  75  7867.529
  76  8378.968
  77  7471.388
  78  7423.577
  79  7762.684
  80  8272.466
  81  8429.625
  82  7461.798
  83  7533.939
  84  8644.749
  85  8131.286
  86  7771.043
  87  7840.22
  88  8179.497
  89  8010.066
  90  8983.896
  91  8709.046
  92  8754.214
  93  8473.451
  94  7851.045
  95  7338.019
  96  6920.999
  97  6711.271
  98  7678.44
  99  8234.898
 100  7778.146
 101  8126.057
 102  7923.905
 103  8020.867
 104  6738.449
 105  7628.823
 106  7395.372
 107  6769.68
 108  7779.241
 109  8365
 110  9006.977
 111  8113
 112  7954.411
 113  8066.097
 114  7807.335
 115  7687.611
 116  8218.46
 117  8541.255
 118  8099.117
 119  7514.977
 120  7701.036
 121  7838.731
 122  7382.663
 123  7118.574
 124  8029.263
 125  8139.109
 126  8141.771
 127  8276.527
 128  8075.129
 129  7753.59
 130  8313.844
 131  9295.147
 132  8626.817
 133  8475.799
 134  8013.629
 135  8210.033
 136  8445.137
 137  8809.923
 138  8790.575
 139  8718.786
 140  8077.203
 141  8289.339
 142  8859.396
 143  7847.246
 144  8081.301
 145  8630.083
 146  8296.804
 147  8168.463
 148  8140.836
 149  8996.1
 150  8906.356
 151  8512.967
 152  9059.297
 153  8905.729
 154  8898.233
 155  9036.277
 156  9686.006
 157  9214.389
 158  9065.879
 159  8719.535
 160  8349.727
 161  8647.774
 162  8936.87
 163  9074.846
 164  8746.529
 165  8680.896
 166  8810.399
 167  9054.805
 168  8506.934
 169  7876.019
 170  8283.573
 171  9057.832
 172  7889.941
 173  7185.899
 174  7766.531
 175  7825.091
 176  7419.777
 177  7797.747
 178  8065.858
 179  8449.989
 180  8471.178
 181  8038.383
 182  7792.056
 183  7723.248
 184  7909.243
 185  7818.937
 186  7576.399
 187  7559.816
 188  7674.259
 189  8217.367
 190  7297.188
 191  7632.417
 192  7172.37
 193  7388.259
 194  7376.067
 195  8165.666
 196  8678.48
 197  8179.598
 198  7927.66
 199  8764.621
 200  7811.393
 201  7673.948
 202  8268.979
 203  8785.212
 204  8817.016
 205  8068.236
 206  8978.108
 207  7780.917
 208  7183.175
 209  8235.627
 210  8489.474
 211  7861.126
 212  7679.777
 213  8833.87
 214  8786.944
 215  8212.322
 216  8338.708
 217  8852.626
 218  8486.807
 219  8485.975
 220  8540.447
 221  8787.157
 222  8843.31
 223  8961.507
 224  9301.038
 225  8251.657
 226  7866.494
 227  8484.045
 228  9191.378
 229  8723.916
 230  8964.258
 231  8474.326
 232  7935.753
 233  7810.822
 234  8554.103
 235  8724.087
 236  7764.205
 237  7538.656
 238  8372.4
 239  8468.025
 240  7906.787
 241  7734.114
 242  8349.288
 243  8446.832
 244  8317.195
 245  7818.505
 246  7738.583
 247  6907.122
 248  6411.572
 249  7362.206
 250  8134.321
 251  8536.354
 252  8571.826
 253  8738.613
 254  8288.312
 255  8903.978
 256  9053.451
 257  9850.035
 258  9704.419
 259  9052.193
 260  8867.969
 261  8309.139
 262  9304.694
 263  9745.381
 264  10317.42
 265  9544.674
 266  8794.469
 267  9704.345
 268  8392.795
 269  7387.56
 270  7495.237
 271  9005.957
 272  8948.55
 273  8241.215
 274  7950.921
 275  7398.97
 276  7752.255
 277  7435.562
 278  8337.022
 279  8101.547
 280  8516.237
 281  9004.064
 282  8775.646
 283  8501.735
 284  8192.762
 285  8851.709
 286  8492.43
 287  8182.565
 288  8159.531
 289  9104.3
 290  8841.028
 291  9333.913
 292  9658.779
 293  8888.268
 294  8185.315
 295  7879.355
 296  8700.616
 297  8092.375
 298  7598.695
 299  8530.936
 300  8811.849
 301  7850.434
 302  7080.045
 303  8054.206
 304  7891.653
 305  7827.216
 306  8702.344
 307  9122.846
 308  8173.335
 309  8002.791
 310  8189.531
 311  8012.184
 312  7654.524
 313  8139.153
 314  9127.06
 315  8864.84
 316  8169.12
 317  6673.099
 318  6415.124
 319  6618.811
 320  6718.797
 321  6665.578
 322  7177.895
 323  6677.579
 324  6985.81
 325  6327.942
 326  6053.596
 327  6752.477
 328  6942.577
 329  6932.261
 330  6880.693
 331  6330.312
 332  5915.926
 333  5996.486
 334  7119.452
 335  7483.267
 336  7224.643
 337  7143.559
 338  7488.676
 339  7768.849
 340  6864.848
 341  6690.762
 342  6725.634
 343  6973.807
 344  6646.761
 345  6255.279
 346  6433.831
 347  5482.354
 348  6447.743
 349  7146.953
 350  7096.805
 351  7018.105
 352  7706.375
 353  7559.711
 354  6965.354
 355  7005.739
 356  7362.854
 357  7812.098
 358  7003.124
 359  7066.979
 360  7223.23
 361  7673.991
 362  7344.975
 363  7172.198
 364  7101.512
 365  7081.398
 366  7963.098
 367  8471.663
 368  8744.932
 369  7663.859
 370  7449.683
 371  7632.036
 372  7867.249
 373  8168.62
 374  8999.866
 375  9411.194
 376  8863.103
 377  8663.823
 378  8351.073
 379  7877.249
 380  7402.91
 381  7828.478
 382  8236.306
 383  6997.298
 384  6816.971
 385  7658.89
 386  7629.803
 387  7717.323
 388  7237.184
 389  7861.192
 390  7670.49
 391  7471.308
 392  8185.424
 393  7502.335
 394  6854.757
 395  7786.512
 396  8485.875
 397  8179.843
 398  7509.065
 399  7326.982
 400  7447.962
 401  6824.784
 402  6857.329
 403  7463.319
 404  7520.596
 405  6814.977
 406  7462.754
 407  8053.287
 408  8050.131
 409  7678.378
 410  8841.799
 411  8135.886
 412  7486.368
 413  8019.446
 414  8748.512
 415  7992.396
 416  8177.911
 417  8634.568
 418  8625.485
 419  8966.454
 420  9047.435
 421  9114.718
 422  8366.06
 423  7892.24
 424  9211.785
 425  9600.217
 426  9013.599
 427  8398.104
 428  8684.198
 429  8222.581
 430  7374.297
 431  8201.513
 432  8572.2
 433  7872.326
 434  8178.202
 435  9098.73
 436  8977.421
 437  8512.02
 438  7880.058
 439  8044.363
 440  8175.225
 441  7999.73
 442  8169.055
 443  8036.363
 444  7865.551
 445  7444.805
 446  7863.028
 447  8046.968
 448  7197.213
 449  7073.656
 450  7398.015
 451  7584.567
 452  7651.957
 453  8381.418
 454  8176.288
 455  7162.491
 456  6987.697
 457  7912.212
 458  7424.524
 459  7355.256
 460  7655.369
 461  7914.391
 462  7956.217
 463  8094.52
 464  8905.124
 465  7939.149
 466  7838.211
 467  8922.141
 468  7745.407
 469  6841.293
 470  7221.927
 471  7998.191
 472  7751.22
 473  7470.568
 474  6887.655
 475  6633.776
 476  6794.042
 477  7690.658
 478  8187.631
 479  7807.119
 480  7658.195
 481  7245.438
 482  7108.289
 483  6367.715
 484  6529.917
 485  7509.867
 486  8110.135
 487  8219.753
 488  8003.962
 489  8053.957
 490  7166.38
 491  7788.572
 492  7709.673
 493  8271.342
 494  6910.163
 495  6987.248
 496  7674.446
 497  7334.919
 498  7796.48
 499  7777.887
 500  8226.229
 501  7472.481
 502  7506.416
 503  7921.937
 504  7566.036
 505  8009.137
 506  8030.36
 507  8921.135
 508  8668.983
 509  7598.905
 510  7619.775
 511  7599.96
