# Input file       =  1196277675.112092_cleaned.dat
# Candidate        =  PSR_0332+5434
# Telescope        =  AR
# Epoch_topo       =  58089.806644815879
# Epoch_bary       =  N/A
# T_sample         =  0.002
# Data Folded      =  7340032
# Data Avg         =  0.165995747437201
# Data StdDev      =  4.33845558801867 
# Profile Bins     =  1024
# Profile Avg      =  1189.86287143912 
# Profile StdDev   =  367.311185919868 
# Reduced chi-sqr  =  0.472
# Prob(Noise)      <  1   (~0.0 sigma)
# P_topo (ms)      =  714.527548701641  +/- 0.000888
# P'_topo (s/s)    =  -0                +/- 4.69e-10
# P''_topo (s/s^2) =  0                 +/- 2.07e-13
# P_bary (ms)      =  N/A
# P'_bary (s/s)    =  N/A
# P''_bary (s/s^2) =  N/A
# P_orb (s)        =  N/A
# asin(i)/c (s)    =  N/A
# eccentricity     =  N/A
# w (rad)          =  N/A
# T_peri           =  N/A
######################################################
   0  1311.807
   1  1220.049
   2  1147.165
   3  1091.537
   4  1148.682
   5  1302.349
   6  1356.223
   7  1240.559
   8  1106.747
   9  1144.5
  10  1272.856
  11  1264.667
  12  1212.759
  13  1201.278
  14  1223.906
  15  1285.312
  16  1213.868
  17  1138.332
  18  1186.502
  19  1236.593
  20  1275.201
  21  1206.694
  22  1121.594
  23  1197.113
  24  1257.705
  25  1206.082
  26  1053.901
  27  1052.844
  28  1075.215
  29  1264.079
  30  1335.412
  31  1405.369
  32  1378.5
  33  1306.774
  34  1321.641
  35  1290.879
  36  1213.015
  37  1110.607
  38  1115.541
  39  1186.564
  40  1246.266
  41  1186.604
  42  1230.899
  43  1159.974
  44  1141.413
  45  1241.117
  46  1342.63
  47  1326.267
  48  1300.717
  49  1289.717
  50  1290.582
  51  1235.547
  52  1165.17
  53  1220.117
  54  1284.358
  55  1366.522
  56  1312.099
  57  1254.642
  58  1213.456
  59  1171.2
  60  1272.217
  61  1150.228
  62  1117.954
  63  985.6726
  64  989.571
  65  995.8982
  66  1138.884
  67  1277.518
  68  1214.375
  69  1069.833
  70  1070.487
  71  1093.478
  72  997.911
  73  971.3823
  74  934.3293
  75  974.2438
  76  1072.477
  77  1141.22
  78  1244.411
  79  1214.299
  80  1281.61
  81  1232.628
  82  1208.58
  83  1204.035
  84  1170.194
  85  1110.311
  86  1035.553
  87  1038.953
  88  1009.484
  89  969.9763
  90  983.3881
  91  1088.354
  92  1066.166
  93  1158.837
  94  1188.729
  95  1244.39
  96  1191.008
  97  1135.32
  98  1078.407
  99  1016.22
 100  917.187
 101  960.4315
 102  948.3679
 103  931.1931
 104  882.9249
 105  913.358
 106  908.5565
 107  1016.178
 108  1141.776
 109  1250.085
 110  1264.19
 111  1147.039
 112  1140.488
 113  1106.288
 114  1168.391
 115  1152.936
 116  1062.664
 117  1032.833
 118  1108.403
 119  1226.858
 120  1325.99
 121  1261.014
 122  1218.557
 123  1124.467
 124  1154.139
 125  1162.179
 126  1196.652
 127  1198.402
 128  1265.436
 129  1195.263
 130  1107.877
 131  1009.984
 132  1086.776
 133  1176.695
 134  1294.52
 135  1333.594
 136  1212.655
 137  1116.256
 138  1009.85
 139  1017.315
 140  1062.095
 141  1115.942
 142  1212.593
 143  1201.15
 144  1295.018
 145  1278.93
 146  1229.612
 147  1285.242
 148  1388.719
 149  1416.537
 150  1278.956
 151  1278.41
 152  1330.92
 153  1373.82
 154  1409.647
 155  1358.456
 156  1424.883
 157  1422.114
 158  1452.757
 159  1411.4
 160  1379.127
 161  1336.655
 162  1311.032
 163  1293.22
 164  1297.228
 165  1327.191
 166  1304.628
 167  1264.647
 168  1236.487
 169  1265.63
 170  1311.698
 171  1281.99
 172  1306.076
 173  1270.826
 174  1326.06
 175  1228.502
 176  1268.929
 177  1313.971
 178  1263.637
 179  1225.451
 180  1188.33
 181  1245.888
 182  1156.495
 183  1153.171
 184  1053.419
 185  1056.598
 186  955.8377
 187  1020.488
 188  1025.562
 189  1163.6
 190  1247.319
 191  1290.177
 192  1325.309
 193  1411.624
 194  1361.138
 195  1177.147
 196  988.1015
 197  974.1772
 198  1218.959
 199  1337.969
 200  1255.955
 201  1257.174
 202  1254.777
 203  1195.893
 204  974.615
 205  964.4901
 206  1147.39
 207  1378.464
 208  1405.267
 209  1365.194
 210  1241.227
 211  1109.337
 212  1093.325
 213  1100.644
 214  1114.314
 215  1059.938
 216  1065.582
 217  1067.212
 218  981.4924
 219  991.3533
 220  1036.262
 221  1073.542
 222  1056.971
 223  1186.903
 224  1331.596
 225  1456.488
 226  1455.385
 227  1400.759
 228  1294.905
 229  1189.1
 230  1220.986
 231  1288.833
 232  1352.286
 233  1292.819
 234  1241.91
 235  1199.994
 236  1184.114
 237  1216.89
 238  1260.295
 239  1244.838
 240  1244.506
 241  1114.958
 242  1005.557
 243  878.4232
 244  1033.865
 245  1163.058
 246  1251.415
 247  1209.972
 248  1185.859
 249  1192.836
 250  1092.55
 251  853.8209
 252  843.6132
 253  824.6954
 254  896.1998
 255  907.8738
 256  1084.215
 257  1153.941
 258  1118.301
 259  1101.877
 260  1177.96
 261  1180.416
 262  963.0714
 263  855.5831
 264  761.2294
 265  877.4445
 266  935.1954
 267  989.6516
 268  959.7012
 269  1063.168
 270  1137.491
 271  1255.005
 272  1252.044
 273  1190.808
 274  1179.086
 275  1106.47
 276  1229.834
 277  1305.932
 278  1248.694
 279  1214.126
 280  1120.306
 281  1221.223
 282  1176.805
 283  1118.329
 284  1075.901
 285  1097.265
 286  1126.121
 287  1099.482
 288  1204.987
 289  1294.669
 290  1262.951
 291  1183.827
 292  1132.851
 293  1132.025
 294  1053.019
 295  1165.509
 296  1271.139
 297  1249.16
 298  1096.407
 299  1059.645
 300  1050.275
 301  1027.67
 302  908.6865
 303  1118.831
 304  1213.192
 305  1327.325
 306  1322.883
 307  1326.351
 308  1265.039
 309  1232.454
 310  1342.844
 311  1380.48
 312  1269.221
 313  1234.069
 314  1298.58
 315  1408.984
 316  1211.331
 317  1103.368
 318  1068.77
 319  1170.907
 320  1331.492
 321  1269.464
 322  1243.826
 323  1192.077
 324  1470.712
 325  1543.744
 326  1428.374
 327  1193.567
 328  1170.414
 329  1160.677
 330  1177.492
 331  1180.039
 332  1040.441
 333  973.6131
 334  940.2815
 335  1047.958
 336  1128.373
 337  1057.101
 338  1187.351
 339  1333.359
 340  1415.803
 341  1376.32
 342  1275.502
 343  1266.785
 344  1232.219
 345  1307.246
 346  1390.197
 347  1350.812
 348  1325.98
 349  1277.622
 350  1327.41
 351  1321.003
 352  1346.361
 353  1243.211
 354  1222.041
 355  1268.196
 356  1314.846
 357  1378.504
 358  1322.5
 359  1317.56
 360  1301.981
 361  1280.138
 362  1249.253
 363  1195.379
 364  1208.593
 365  1156.49
 366  1083.649
 367  1091.921
 368  1078.165
 369  1089.413
 370  1038.296
 371  1053.936
 372  845.3718
 373  778.7308
 374  815.7525
 375  1043.675
 376  1046.381
 377  974.1839
 378  1000.976
 379  1027.626
 380  976.2465
 381  947.4084
 382  1036.372
 383  1096.812
 384  1144.164
 385  1151.668
 386  1260.593
 387  1183.01
 388  1120.685
 389  1103.02
 390  1190.398
 391  1108.246
 392  1010.581
 393  915.5311
 394  929.3683
 395  964.1469
 396  1115.437
 397  1231.848
 398  1289.76
 399  1218.203
 400  1157.172
 401  1191.407
 402  1225.695
 403  1282.963
 404  1285.696
 405  1311.684
 406  1298.717
 407  1250.867
 408  1228.26
 409  1046.28
 410  1001.428
 411  962.5648
 412  1087.982
 413  1044.389
 414  1069.794
 415  1028.424
 416  1063.48
 417  1190.305
 418  1328.428
 419  1314.412
 420  1281.882
 421  1190.066
 422  1226.924
 423  1127.583
 424  1161.199
 425  1122.717
 426  1192.549
 427  1220.932
 428  1198.253
 429  1084.495
 430  1119.568
 431  1222.288
 432  1422.701
 433  1347.52
 434  1236.763
 435  1328.457
 436  1389.354
 437  1362.822
 438  1330.569
 439  1245.412
 440  1220.769
 441  1182.846
 442  1374.059
 443  1436.251
 444  1400.908
 445  1297.162
 446  1310.992
 447  1348.312
 448  1220.585
 449  1068.781
 450  1084.268
 451  1265.544
 452  1326.308
 453  1315.519
 454  1305.201
 455  1391.634
 456  1333.614
 457  1354.047
 458  1364.787
 459  1376.063
 460  1278.634
 461  1197.936
 462  1237.708
 463  1155.277
 464  1007.84
 465  1071.495
 466  1151.666
 467  1144.452
 468  970.0914
 469  1044.561
 470  1127.726
 471  1225.047
 472  1211.957
 473  1260.165
 474  1305.811
 475  1384.06
 476  1361.366
 477  1245.3
 478  1118.82
 479  1080.943
 480  1144.305
 481  1150.587
 482  1224.474
 483  1223.391
 484  1195.228
 485  1103.004
 486  1285.638
 487  1453.79
 488  1541.998
 489  1382.126
 490  1257.463
 491  1223.441
 492  1190.257
 493  1193.678
 494  1116.068
 495  1169.797
 496  1122.042
 497  1102.027
 498  952.7581
 499  993.6759
 500  980.9014
 501  984.0043
 502  997.99
 503  1045.197
 504  1084.172
 505  1122.145
 506  1225.194
 507  1241.334
 508  1285.422
 509  1215.193
 510  1259.58
 511  1217.555
 512  1181.399
 513  1055.939
 514  928.0529
 515  852.0126
 516  913.7601
 517  817.0497
 518  832.7188
 519  822.1839
 520  952.4467
 521  1125.37
 522  1118.877
 523  1198.249
 524  1128.12
 525  997.7019
 526  882.1386
 527  935.05
 528  986.0479
 529  1011.852
 530  1064.108
 531  1194.456
 532  1214.415
 533  1191.828
 534  1308.277
 535  1351.438
 536  1221.076
 537  1126.111
 538  1093.226
 539  1143.508
 540  1076.996
 541  1080.709
 542  1067.125
 543  1164.832
 544  1166.811
 545  1256.448
 546  1265.488
 547  1252.261
 548  1155.696
 549  1026.187
 550  898.3082
 551  834.442
 552  941.2369
 553  1112.616
 554  1217.629
 555  1165.678
 556  1138.293
 557  1101.701
 558  1178.531
 559  1231.625
 560  1338.95
 561  1304.298
 562  1297.235
 563  1138.558
 564  1062.809
 565  1079.341
 566  1177.224
 567  1070.455
 568  1095.161
 569  1044.927
 570  1124.502
 571  1056.213
 572  1091.881
 573  1170.18
 574  1183.416
 575  1253.128
 576  1265.772
 577  1355.32
 578  1322.22
 579  1218.704
 580  1196.497
 581  1161.733
 582  1252.385
 583  1237.645
 584  1211.562
 585  1109.589
 586  1181.193
 587  1222.423
 588  1194.963
 589  1082.116
 590  1165.855
 591  1331.435
 592  1285.98
 593  1160.064
 594  1046.831
 595  1131.121
 596  1265.481
 597  1297.807
 598  1330.054
 599  1211.691
 600  1032.093
 601  815.4129
 602  852.2571
 603  929.7767
 604  1095.681
 605  1231.916
 606  1225.87
 607  1255.403
 608  1217.911
 609  1317.669
 610  1214.358
 611  1137.134
 612  999.2585
 613  1076.676
 614  1056.182
 615  1167.25
 616  1151.869
 617  1273.536
 618  1393.422
 619  1414.4
 620  1512.456
 621  1563.091
 622  1508.335
 623  1598.927
 624  1591.035
 625  1604.167
 626  1530.208
 627  1494.648
 628  1594.866
 629  1718.09
 630  1813.832
 631  1730.738
 632  1571.741
 633  1447.125
 634  1375.294
 635  1286.429
 636  1247.082
 637  1212.346
 638  1154.408
 639  1166.186
 640  1201.309
 641  1238.855
 642  1142.39
 643  1105.273
 644  1075.714
 645  1049.337
 646  1043.958
 647  1119.583
 648  1188.282
 649  1121.389
 650  1083.543
 651  1107.32
 652  1087.869
 653  1043.111
 654  1019.672
 655  1058.542
 656  1141.575
 657  1144.39
 658  1122.661
 659  1059.608
 660  1126.736
 661  1194.145
 662  1231.731
 663  1219.921
 664  1250.661
 665  1193.292
 666  1034.004
 667  903.9572
 668  1045.003
 669  1149.673
 670  1219.048
 671  1117.615
 672  1188.051
 673  1340.139
 674  1336.461
 675  1298.435
 676  1120.394
 677  1098.469
 678  1000.29
 679  1063.329
 680  1052.139
 681  1080.115
 682  1157.783
 683  1227.958
 684  1207.522
 685  1177.261
 686  1246.846
 687  1306.271
 688  1435.651
 689  1323.089
 690  1179.177
 691  953.4719
 692  988.3449
 693  1099.684
 694  1084.428
 695  1121.484
 696  1256.521
 697  1290.141
 698  1267.572
 699  1117.905
 700  1111.774
 701  1121.441
 702  1152.779
 703  1223.883
 704  1343.519
 705  1390.734
 706  1349.609
 707  1293.323
 708  1219.41
 709  1286.166
 710  1206.502
 711  1091.983
 712  1123.639
 713  1212.384
 714  1289.208
 715  1206.524
 716  1217.404
 717  1374.739
 718  1329.099
 719  1296.311
 720  1214.989
 721  1133.404
 722  1152.739
 723  985.2673
 724  960.3293
 725  924.614
 726  965.6544
 727  1059.787
 728  1115.713
 729  1268.768
 730  1288.805
 731  1361.299
 732  1310.245
 733  1247.278
 734  1294.859
 735  1342.182
 736  1266.118
 737  1168.221
 738  1145.604
 739  1021.76
 740  972.5865
 741  891.2128
 742  1052.131
 743  994.6318
 744  1041.016
 745  1091.656
 746  1204.983
 747  1264.565
 748  1199.776
 749  1061.204
 750  1036.2
 751  976.1754
 752  1156.801
 753  1170.99
 754  1262.337
 755  1190.465
 756  1183.513
 757  1184.694
 758  1246.022
 759  1286.005
 760  1146.154
 761  1133.061
 762  1269.469
 763  1377.92
 764  1309.5
 765  1169.716
 766  1170.4
 767  1130.162
 768  1121.421
 769  1018.323
 770  993.8536
 771  959.0694
 772  971.2524
 773  1016.987
 774  1180.868
 775  1236.759
 776  1337.305
 777  1327.183
 778  1319.927
 779  1283.923
 780  1204.279
 781  1186.287
 782  1152.806
 783  1102.203
 784  1112.079
 785  1149.901
 786  1119.043
 787  1131.949
 788  1074.567
 789  1065.412
 790  1109.73
 791  1191.285
 792  1234.963
 793  1230.263
 794  1240.608
 795  1319.001
 796  1347.541
 797  1508.436
 798  1640.779
 799  1581.093
 800  1546.516
 801  1521.615
 802  1436.027
 803  1321.8
 804  1223.928
 805  1309.219
 806  1371.67
 807  1379.127
 808  1359.294
 809  1379.114
 810  1354.901
 811  1184.161
 812  1261.378
 813  1304.996
 814  1316.219
 815  1284.251
 816  1237.139
 817  1179.625
 818  1102.443
 819  1143.51
 820  1267.976
 821  1310.073
 822  1259.479
 823  1232.667
 824  1182.64
 825  1087.04
 826  1033.944
 827  982.2679
 828  1012.863
 829  1031.43
 830  1193.584
 831  1270.989
 832  1297.261
 833  1205.927
 834  1302.143
 835  1372.563
 836  1480.205
 837  1453.442
 838  1284.398
 839  1177.274
 840  1151.115
 841  1193.106
 842  1154.239
 843  971.2961
 844  999.8752
 845  1156.897
 846  1319.584
 847  1306.787
 848  1237.74
 849  1221.572
 850  1204.969
 851  1232.633
 852  1219.799
 853  1241.277
 854  1210.891
 855  1095.974
 856  1021.512
 857  1116.704
 858  1266.035
 859  1324.011
 860  1240.439
 861  1110.206
 862  1133.271
 863  1331.877
 864  1377.343
 865  1314.696
 866  1197.058
 867  1218.641
 868  1200.574
 869  1181.574
 870  1264.044
 871  1289.105
 872  1202.77
 873  1130.623
 874  1108.095
 875  1224.106
 876  1299.267
 877  1354.877
 878  1462.58
 879  1445.22
 880  1327.911
 881  1268.534
 882  1271.706
 883  1249.195
 884  1216.295
 885  1240.763
 886  1265.402
 887  1241.919
 888  1234.561
 889  1292.742
 890  1425.057
 891  1345.024
 892  1214.049
 893  1159.26
 894  1214.539
 895  1335.524
 896  1329.461
 897  1243.715
 898  1189.658
 899  1195.035
 900  1221.761
 901  1209.603
 902  1175.01
 903  1154.168
 904  1144.267
 905  1112.968
 906  1159.96
 907  1063.82
 908  1029.961
 909  1059.699
 910  1104.889
 911  1176.124
 912  1186.678
 913  1212.199
 914  1316.684
 915  1455.244
 916  1410.277
 917  1307.255
 918  1268.791
 919  1280.989
 920  1327.843
 921  1239.85
 922  1134.883
 923  1082.442
 924  998.5224
 925  1052.482
 926  1161.953
 927  1165.916
 928  1177.617
 929  1277.837
 930  1449.021
 931  1464.371
 932  1412.875
 933  1476.996
 934  1489.539
 935  1371.203
 936  1283.071
 937  1200.111
 938  1044.392
 939  964.8209
 940  981.6348
 941  1077.108
 942  1049.204
 943  1088.179
 944  1094.305
 945  1157.315
 946  1130.259
 947  1252.996
 948  1342.389
 949  1345.912
 950  1355.32
 951  1286.309
 952  1190.174
 953  1155.058
 954  1268.366
 955  1235.969
 956  1266.995
 957  1191.839
 958  1193.536
 959  1172.208
 960  1173.663
 961  1247.718
 962  1450.879
 963  1443.543
 964  1438.675
 965  1358.53
 966  1323.949
 967  1191.258
 968  1076.421
 969  1077.129
 970  1190.253
 971  1274.148
 972  1272.19
 973  1244.612
 974  1294.458
 975  1417.512
 976  1478.559
 977  1303.752
 978  1209.853
 979  1030.731
 980  1028.168
 981  1057.519
 982  1124.534
 983  1155.999
 984  1115.359
 985  1053.927
 986  1026.92
 987  1029.968
 988  1079.078
 989  1035.606
 990  1147.657
 991  1166.7
 992  1240.611
 993  1172.367
 994  1194.103
 995  1267.502
 996  1315.01
 997  1217.606
 998  1182.475
 999  1110.471
1000  1145.473
1001  1146.413
1002  1192.582
1003  1286.221
1004  1305.66
1005  1266.832
1006  1077.49
1007  885.6323
1008  1063.469
1009  1166.838
1010  1163.078
1011  1108.151
1012  1099.072
1013  1084.046
1014  1041.289
1015  1163.618
1016  1194.801
1017  1163.038
1018  1116.359
1019  1061.515
1020  1116.57
1021  1054.348
1022  1171.578
1023  1223.476
