# Input file       =  1196607167.098366_cleaned.dat
# Candidate        =  PSR_0332+5434
# Telescope        =  AR
# Epoch_topo       =  58093.620209471832
# Epoch_bary       =  N/A
# T_sample         =  0.002
# Data Folded      =  7208960
# Data Avg         =  0.314512799688699
# Data StdDev      =  5.65977536943922 
# Profile Bins     =  256
# Profile Avg      =  8856.80931814006 
# Profile StdDev   =  949.763597779735 
# Reduced chi-sqr  =  0.646
# Prob(Noise)      <  1   (~0.0 sigma)
# P_topo (ms)      =  714.531441268993  +/- 7.34e-05
# P'_topo (s/s)    =  -0                +/- 3.94e-11
# P''_topo (s/s^2) =  0                 +/- 1.77e-14
# P_bary (ms)      =  N/A
# P'_bary (s/s)    =  N/A
# P''_bary (s/s^2) =  N/A
# P_orb (s)        =  N/A
# asin(i)/c (s)    =  N/A
# eccentricity     =  N/A
# w (rad)          =  N/A
# T_peri           =  N/A
######################################################
   0  8615.981
   1  9020.274
   2  8374.88
   3  8538.438
   4  8328.34
   5  8907.613
   6  8886.657
   7  8758.405
   8  8154.968
   9  8539.807
  10  8449.59
  11  7660.75
  12  8841.191
  13  8071.149
  14  8057.859
  15  9370.332
  16  9590.696
  17  8878.368
  18  7944.854
  19  9385.884
  20  8772.777
  21  8266.546
  22  8442.824
  23  9375.666
  24  8503.961
  25  7849.576
  26  7818.479
  27  7981.078
  28  9210.551
  29  7245.75
  30  7574.67
  31  8568.395
  32  9938.522
  33  9458.156
  34  8248.761
  35  9318.214
  36  8331.583
  37  9050.652
  38  8717.411
  39  8944.882
  40  9010.825
  41  9011.145
  42  9186.282
  43  9334.382
  44  9088.079
  45  9095.218
  46  8759.501
  47  8570.779
  48  9764.573
  49  9020.147
  50  8610.785
  51  9342.019
  52  8536.149
  53  8785.976
  54  6869.93
  55  8534.437
  56  8706.159
  57  8747.897
  58  8456.524
  59  8679.6
  60  8241.356
  61  8486.285
  62  7747.334
  63  7885.842
  64  8916.813
  65  9249.623
  66  7821.711
  67  7433.918
  68  8698.704
  69  9099.642
  70  7540.369
  71  7840.895
  72  8771.321
  73  9288.491
  74  8779.917
  75  8735.501
  76  8760.72
  77  9005.434
  78  9187.856
  79  7917.856
  80  8400.147
  81  8601.022
  82  9074.813
  83  8399.03
  84  9110.082
  85  8987.001
  86  8516.302
  87  7960.809
  88  7902.692
  89  9110.661
  90  9335.308
  91  9280.138
  92  8638.138
  93  8729.332
  94  8557.211
  95  7887.406
  96  8951.695
  97  9343.58
  98  9325.62
  99  8187.61
 100  9304.112
 101  9636.847
 102  8699.507
 103  9564.537
 104  8855.2
 105  9299.027
 106  9705.478
 107  9373.46
 108  8796.471
 109  8839.889
 110  9522.047
 111  8984.655
 112  8675.401
 113  8815.347
 114  10283.75
 115  9856.718
 116  9214.953
 117  10084.62
 118  9335.678
 119  9543.519
 120  8211.209
 121  8526.014
 122  8833.438
 123  9569.295
 124  8412.575
 125  8461.089
 126  8317.253
 127  8516.447
 128  9577.826
 129  9308.933
 130  9768.806
 131  9149.021
 132  10172.08
 133  8940.284
 134  9520.862
 135  8184.983
 136  7725.606
 137  8035.635
 138  9372.065
 139  9090.092
 140  8773.124
 141  8766.265
 142  9320.355
 143  9115.082
 144  9125.018
 145  8154.416
 146  8819.128
 147  8620.121
 148  8660.474
 149  7569.548
 150  8332.971
 151  8226.261
 152  7721.888
 153  8676.006
 154  9767.064
 155  11525.38
 156  10536.81
 157  10220.24
 158  9691.662
 159  10652.63
 160  10032.06
 161  8924.838
 162  9663.1
 163  8884.363
 164  10094.9
 165  9183.965
 166  9357.973
 167  9538.13
 168  9567.435
 169  9386.737
 170  7968.098
 171  9922.482
 172  10194.58
 173  9560.172
 174  7911.109
 175  9268.564
 176  9636.811
 177  8487.815
 178  7755.887
 179  8698.791
 180  9555.668
 181  8880.412
 182  8782.479
 183  8792.962
 184  8603.24
 185  8365.593
 186  7958.961
 187  9154.318
 188  9311.172
 189  8749
 190  7575.9
 191  9614.461
 192  9131.077
 193  9092.529
 194  9028.797
 195  9703.207
 196  9323.516
 197  9564.572
 198  8658.466
 199  7585.561
 200  8514.778
 201  8593.751
 202  9156.296
 203  8695.871
 204  9060.057
 205  10122.98
 206  8898.082
 207  8000.241
 208  8289.711
 209  9877.22
 210  8535.823
 211  7983.638
 212  8819.67
 213  9290.756
 214  9727.071
 215  7859.985
 216  9035.048
 217  8581.212
 218  8964.59
 219  8144.306
 220  8847.733
 221  8310.243
 222  8344.396
 223  8623.504
 224  8482.284
 225  9405.677
 226  8486.121
 227  8102.775
 228  9205.154
 229  9742.168
 230  9540.901
 231  8707.832
 232  8590.313
 233  9185.819
 234  9198.812
 235  8981.334
 236  9459.783
 237  9350.249
 238  9365.768
 239  8655.832
 240  8393.621
 241  8975.701
 242  8813.74
 243  8531.45
 244  8008.841
 245  9176.347
 246  8808.802
 247  9389.102
 248  8915.841
 249  8366.156
 250  8885.214
 251  8285.013
 252  8310.09
 253  8352.504
 254  9904.383
 255  9846.64
