# Input file       =  1196292583.114135_cleaned.dat
# Candidate        =  PSR_0332+5434
# Telescope        =  AR
# Epoch_topo       =  58089.979191135819
# Epoch_bary       =  N/A
# T_sample         =  0.002
# Data Folded      =  7340032
# Data Avg         =  0.518788279808566
# Data StdDev      =  6.67248369220408 
# Profile Bins     =  512
# Profile Avg      =  7437.3384109025  
# Profile StdDev   =  798.91673264205  
# Reduced chi-sqr  =  0.534
# Prob(Noise)      <  1   (~0.0 sigma)
# P_topo (ms)      =  714.528065155376  +/- 0.000586
# P'_topo (s/s)    =  -0                +/- 3.09e-10
# P''_topo (s/s^2) =  0                 +/- 1.36e-13
# P_bary (ms)      =  N/A
# P'_bary (s/s)    =  N/A
# P''_bary (s/s^2) =  N/A
# P_orb (s)        =  N/A
# asin(i)/c (s)    =  N/A
# eccentricity     =  N/A
# w (rad)          =  N/A
# T_peri           =  N/A
######################################################
   0  7238.315
   1  7531.911
   2  7340.314
   3  6926.241
   4  7025.559
   5  7043.721
   6  7020.13
   7  7475.03
   8  7350.164
   9  7398.934
  10  6597.268
  11  6770.77
  12  7240.859
  13  7442.391
  14  7308.904
  15  6929.376
  16  7173.468
  17  7435.494
  18  7376.211
  19  7424.262
  20  7341.999
  21  7159.716
  22  7157.778
  23  7095.918
  24  6324.651
  25  7099.193
  26  7722.039
  27  7573.065
  28  6901.132
  29  7445.59
  30  7829.649
  31  7850.855
  32  7717.292
  33  8119.688
  34  7714.868
  35  7259.932
  36  7789.843
  37  8097.082
  38  7785.459
  39  7269.243
  40  8152.122
  41  8174.965
  42  7932.358
  43  7584.093
  44  7854.658
  45  7973.476
  46  7757.235
  47  8047.521
  48  7621.975
  49  7368.427
  50  8036.042
  51  8081.134
  52  7802.022
  53  7675.884
  54  7683.622
  55  7489.303
  56  7341.88
  57  7099.939
  58  7293.926
  59  7477.345
  60  7443.007
  61  7052.668
  62  7373.094
  63  7299.529
  64  7169.879
  65  7199.652
  66  7641.979
  67  7643.865
  68  7317.926
  69  7242.172
  70  7265.118
  71  7322.923
  72  8035.058
  73  7350.294
  74  7094.833
  75  6836.573
  76  6743.691
  77  6911.069
  78  6748.648
  79  6999.967
  80  7685.401
  81  7564.492
  82  7108.242
  83  7497.823
  84  7407.737
  85  7778.822
  86  8038.981
  87  7495.49
  88  7054.806
  89  7489.867
  90  7762.417
  91  7955.617
  92  8044.375
  93  8082.351
  94  8438.695
  95  8054.954
  96  7865.474
  97  8079.548
  98  7626.546
  99  7480.714
 100  7147.041
 101  7332.574
 102  7475.127
 103  7416.708
 104  7365.605
 105  8254.743
 106  8046.025
 107  8068.587
 108  8031.98
 109  7944.586
 110  7806.805
 111  7664.317
 112  7345.229
 113  7725.157
 114  8010.879
 115  7872.396
 116  7007.98
 117  6325.444
 118  6484.806
 119  7090.172
 120  7513.883
 121  7416.142
 122  7665.25
 123  8003.433
 124  7822.64
 125  7049.33
 126  7182.661
 127  6931.987
 128  7084.488
 129  7565.593
 130  7944.648
 131  7695.302
 132  7372.433
 133  7164.736
 134  7437.781
 135  7254.747
 136  6984.92
 137  6980.773
 138  7272.469
 139  6575.057
 140  6694.305
 141  6930.955
 142  6988.396
 143  6771.789
 144  6900.777
 145  6824.547
 146  6478.156
 147  6669.509
 148  7181.725
 149  7246.161
 150  7892.796
 151  7376.924
 152  7185.897
 153  6916.459
 154  7091.714
 155  7296.655
 156  7297.706
 157  6986.817
 158  6934.067
 159  7062.873
 160  6996.909
 161  6911.406
 162  7439.869
 163  6975.623
 164  7513.198
 165  7594.497
 166  7897.328
 167  7966.205
 168  7148.425
 169  7609.2
 170  7684.979
 171  7439.341
 172  7693.854
 173  8018.482
 174  8039.863
 175  7813.632
 176  7822.553
 177  8318.116
 178  7432.745
 179  7451.674
 180  7751.041
 181  7799.728
 182  7767.044
 183  7294.164
 184  7339.349
 185  7513.045
 186  7788.3
 187  8249.329
 188  7453.117
 189  6967.036
 190  7333.176
 191  7180.631
 192  7376.727
 193  7568.133
 194  7615.152
 195  7878.139
 196  7168.902
 197  7088.898
 198  7088.808
 199  7389.784
 200  6685.379
 201  7235.871
 202  7236.965
 203  7228.638
 204  6804.525
 205  7326.548
 206  7267.439
 207  6763.089
 208  7388.316
 209  7313.971
 210  6857.541
 211  6464.467
 212  6528.366
 213  6748.567
 214  6748.722
 215  6922.343
 216  6924.474
 217  7107.402
 218  6969.328
 219  7375.502
 220  7043.516
 221  7386.338
 222  7705.233
 223  7465.102
 224  6911.605
 225  6357.368
 226  7252.059
 227  7591.567
 228  7766.743
 229  7850.827
 230  7753.12
 231  7974.589
 232  7886.303
 233  7828.164
 234  7857.8
 235  7987.878
 236  7903.001
 237  8259.452
 238  8514.15
 239  8142.139
 240  8080.015
 241  7845.5
 242  7381.136
 243  7446.978
 244  8128.284
 245  7683.206
 246  8021.028
 247  7837.206
 248  7718.288
 249  7423.772
 250  7474.274
 251  7526.318
 252  7726.914
 253  8149.603
 254  7816.394
 255  7927.602
 256  7999.417
 257  7381.436
 258  6824.373
 259  7371.59
 260  7383.663
 261  7516.439
 262  8094.875
 263  7901.668
 264  7074.199
 265  7199.391
 266  7077.879
 267  6872.952
 268  7316.432
 269  7764.2
 270  8121.678
 271  8015.643
 272  7478.621
 273  7490.691
 274  7216.802
 275  7423.034
 276  7414.579
 277  7617.293
 278  7412.492
 279  7626.613
 280  7250.511
 281  7334.336
 282  6898.754
 283  7117.411
 284  7119.923
 285  7267.739
 286  7361.199
 287  7054.607
 288  6586.412
 289  6948.627
 290  7052.336
 291  7722.332
 292  7445.021
 293  7292.115
 294  7444.08
 295  7433.61
 296  7355.092
 297  7599.074
 298  8137.086
 299  7950.593
 300  7625.472
 301  7599.646
 302  7859.614
 303  7763.942
 304  7157.333
 305  7221.797
 306  7668.208
 307  7407.301
 308  7104.618
 309  7454.529
 310  7835.767
 311  7435.37
 312  7705.642
 313  8159.381
 314  8364.964
 315  8054.381
 316  7654.059
 317  7411.994
 318  7360.781
 319  7332.938
 320  7568.211
 321  7500.802
 322  7107.119
 323  6520.157
 324  7040.511
 325  6803.876
 326  7033.229
 327  7524.371
 328  7734.938
 329  7673.149
 330  7519.585
 331  7602.311
 332  7439.06
 333  7297.185
 334  7772.333
 335  7637.792
 336  7815.892
 337  7718.343
 338  7469.975
 339  7214.512
 340  7142.427
 341  7435.572
 342  6928.692
 343  6868.117
 344  7208.053
 345  6947.519
 346  7277.728
 347  7219.867
 348  7660.158
 349  7674.891
 350  7719.311
 351  7529.417
 352  7772.06
 353  7740.115
 354  7018.804
 355  7235.639
 356  7341.575
 357  7896.781
 358  7707.836
 359  7369.652
 360  6969.146
 361  7104.835
 362  6711.602
 363  7306.73
 364  7139.935
 365  7306.254
 366  7177.617
 367  7227.809
 368  6867.422
 369  7185.425
 370  7071.129
 371  7412.492
 372  7112.027
 373  7052.805
 374  7121.187
 375  7383.382
 376  7704.678
 377  7545.176
 378  7183.276
 379  6959.505
 380  7368.631
 381  7410.992
 382  7272.602
 383  7255.313
 384  7350.994
 385  7172.829
 386  7445.434
 387  7570.136
 388  7845.36
 389  7816.204
 390  8411.813
 391  8421.019
 392  8285.984
 393  8033.093
 394  7486.201
 395  8088.016
 396  8036.43
 397  7830.844
 398  7882.4
 399  8082.801
 400  8424.979
 401  7945.785
 402  8300.648
 403  7696.37
 404  8006.339
 405  7789.691
 406  7803.233
 407  7559.835
 408  7963.219
 409  8464.565
 410  8046.196
 411  7829.302
 412  7830.989
 413  7734.619
 414  7465.17
 415  7224.771
 416  7029.084
 417  6880.966
 418  7441.526
 419  7118.883
 420  6902.091
 421  6525.075
 422  6732.547
 423  7291.83
 424  7268.981
 425  7650.166
 426  8079.774
 427  7567.379
 428  7378.806
 429  7405.347
 430  7434.062
 431  7549.402
 432  7608.951
 433  7508.971
 434  7528.103
 435  7692.316
 436  7593.424
 437  7471.442
 438  7300.617
 439  7526.978
 440  6951.183
 441  7299.006
 442  7289.621
 443  7810.831
 444  7685.181
 445  7273.401
 446  6883.467
 447  7092.194
 448  6949.603
 449  7399.897
 450  7540.336
 451  7287.855
 452  7646.17
 453  7883.562
 454  8347.48
 455  8824.977
 456  8487.289
 457  7910.253
 458  7573.782
 459  7743.169
 460  7763.047
 461  7627.661
 462  7584.316
 463  7411.154
 464  7213.642
 465  7480.518
 466  7776.033
 467  7869.3
 468  8209.257
 469  7925.28
 470  7794.131
 471  7622.886
 472  7335.718
 473  7374.629
 474  7491.268
 475  7334.366
 476  7465.979
 477  7351.51
 478  7112.141
 479  6696.83
 480  7030.403
 481  6864.503
 482  6809.007
 483  6735.698
 484  6972.903
 485  7156.251
 486  7075.92
 487  6579.338
 488  7336.448
 489  7340.284
 490  7040.76
 491  7081.534
 492  7788.517
 493  7828.395
 494  7651.303
 495  7295.687
 496  7083.803
 497  6577.043
 498  6476.017
 499  6975.25
 500  7319.143
 501  7397.001
 502  7489.904
 503  7362.375
 504  7043.927
 505  6788.608
 506  6701.96
 507  6541.886
 508  6484.63
 509  7064.694
 510  7482.558
 511  7289.984
