# Input file       =  1196191533.12459_cleaned.dat
# Candidate        =  PSR_0332+5434
# Telescope        =  AR
# Epoch_topo       =  58088.809631071643
# Epoch_bary       =  N/A
# T_sample         =  0.002
# Data Folded      =  7340032
# Data Avg         =  0.0567486284135044
# Data StdDev      =  0.999950499521671
# Profile Bins     =  512
# Profile Avg      =  813.659433821179 
# Profile StdDev   =  119.727109534194 
# Reduced chi-sqr  =  0.773
# Prob(Noise)      <  1   (~0.0 sigma)
# P_topo (ms)      =  714.526521766788  +/- 7.52e-05
# P'_topo (s/s)    =  -0                +/- 3.97e-11
# P''_topo (s/s^2) =  0                 +/- 1.75e-14
# P_bary (ms)      =  N/A
# P'_bary (s/s)    =  N/A
# P''_bary (s/s^2) =  N/A
# P_orb (s)        =  N/A
# asin(i)/c (s)    =  N/A
# eccentricity     =  N/A
# w (rad)          =  N/A
# T_peri           =  N/A
######################################################
   0  1011.371
   1  1015.359
   2  999.5271
   3  918.077
   4  923.5607
   5  879.3344
   6  827.5115
   7  867.4031
   8  874.2595
   9  730.6175
  10  725.1762
  11  823.7212
  12  842.9883
  13  861.6693
  14  840.6092
  15  749.7075
  16  808.594
  17  842.4291
  18  799.1393
  19  804.672
  20  881.5023
  21  948.8287
  22  831.2496
  23  817.5491
  24  859.85
  25  887.7628
  26  877.4732
  27  919.7615
  28  861.3517
  29  893.2166
  30  1046.823
  31  1003.487
  32  951.3812
  33  852.4086
  34  780.5964
  35  921.5298
  36  924.2711
  37  883.5427
  38  746.5193
  39  786.1921
  40  832.7421
  41  845.233
  42  829.0526
  43  794.3908
  44  770.0673
  45  796.0329
  46  834.6597
  47  909.8937
  48  864.3495
  49  940.0779
  50  840.3936
  51  788.8729
  52  816.9717
  53  809.229
  54  847.9324
  55  950.7595
  56  870.9926
  57  726.617
  58  713.5977
  59  783.3887
  60  800.4077
  61  781.5945
  62  747.0299
  63  797.8171
  64  870.2779
  65  804.3042
  66  667.4378
  67  704.849
  68  722.3553
  69  725.581
  70  733.9736
  71  653.6094
  72  679.3115
  73  718.3011
  74  759.5923
  75  681.8841
  76  763.9158
  77  769.4949
  78  796.2052
  79  756.1793
  80  680.1847
  81  810.8506
  82  726.5618
  83  749.9994
  84  890.4454
  85  922.0672
  86  870.1355
  87  882.5039
  88  862.6553
  89  814.5237
  90  782.3289
  91  846.6977
  92  839.9673
  93  834.3626
  94  775.8647
  95  779.6179
  96  857.2903
  97  744.3388
  98  795.1764
  99  875.3289
 100  784.9555
 101  744.6857
 102  828.0965
 103  919.9893
 104  871.0062
 105  892.1741
 106  935.2252
 107  876.5535
 108  905.4083
 109  894.2372
 110  779.4707
 111  837.4876
 112  889.5176
 113  935.9745
 114  892.0831
 115  878.7775
 116  843.4982
 117  811.8128
 118  837.9756
 119  936.4252
 120  889.6476
 121  773.139
 122  848.0623
 123  756.1694
 124  801.8244
 125  726.3941
 126  725.3803
 127  793.2201
 128  824.3149
 129  831.2343
 130  690.5395
 131  724.7548
 132  808.8663
 133  727.868
 134  689.6373
 135  788.3353
 136  814.0679
 137  829.5829
 138  726.7651
 139  746.2859
 140  773.6563
 141  713.7503
 142  788.7371
 143  843.7424
 144  858.3081
 145  869.2492
 146  821.8368
 147  881.8132
 148  875.2247
 149  882.1795
 150  966.9352
 151  955.708
 152  784.0338
 153  769.0848
 154  771.4574
 155  810.3453
 156  785.1012
 157  784.5223
 158  730.1342
 159  768.113
 160  854.7245
 161  761.5773
 162  777.2241
 163  796.9908
 164  974.4844
 165  876.4426
 166  809.1758
 167  834.062
 168  833.7967
 169  870.0748
 170  881.2006
 171  813.263
 172  837.6842
 173  952.8143
 174  868.7601
 175  708.9144
 176  746.8085
 177  855.0729
 178  916.9176
 179  906.3955
 180  857.986
 181  793.1744
 182  726.8395
 183  786.1721
 184  872.2712
 185  792.3765
 186  774.5885
 187  835.8723
 188  818.0817
 189  775.455
 190  736.9301
 191  836.1226
 192  908.9938
 193  763.0695
 194  748.7149
 195  769.3763
 196  913.7394
 197  982.7438
 198  963.0966
 199  1020.604
 200  938.5676
 201  835.4269
 202  751.9846
 203  761.4189
 204  879.7652
 205  842.064
 206  828.9593
 207  878.0923
 208  825.8707
 209  738.5942
 210  749.1482
 211  792.3813
 212  791.4019
 213  859.3977
 214  840.2653
 215  736.4666
 216  758.8613
 217  721.1962
 218  800.9839
 219  866.4749
 220  910.703
 221  910.1965
 222  750.1213
 223  707.0289
 224  770.2232
 225  760.5911
 226  838.2363
 227  890.505
 228  884.2198
 229  855.5891
 230  861.3862
 231  811.0245
 232  871.6783
 233  829.3906
 234  957.3096
 235  887.571
 236  958.3833
 237  856.9879
 238  776.0785
 239  805.5369
 240  764.9934
 241  742.7881
 242  804.7263
 243  761.9048
 244  759.5947
 245  862.9883
 246  872.8989
 247  831.6067
 248  772.268
 249  748.943
 250  828.1768
 251  874.5355
 252  832.4487
 253  808.6159
 254  781.3558
 255  892.105
 256  924.3821
 257  862.6096
 258  804.4747
 259  812.5873
 260  796.1127
 261  710.8666
 262  822.2576
 263  895.9878
 264  823.7668
 265  721.9662
 266  738.6816
 267  701.3803
 268  693.3805
 269  750.2916
 270  895.8649
 271  924.1806
 272  836.1072
 273  786.7745
 274  688.8734
 275  742.6843
 276  757.8919
 277  781.2067
 278  885.8425
 279  860.4308
 280  800.662
 281  740.7044
 282  669.2582
 283  786.3889
 284  763.6615
 285  868.3037
 286  820.416
 287  823.7278
 288  875.994
 289  831.9033
 290  676.3127
 291  769.5699
 292  763.6215
 293  834.613
 294  915.3674
 295  825.1713
 296  725.6314
 297  746.3849
 298  778.5102
 299  849.2967
 300  851.7557
 301  710.553
 302  642.3971
 303  725.7327
 304  802.3708
 305  767.0848
 306  710.5265
 307  763.3384
 308  812.8689
 309  820.9988
 310  777.9545
 311  681.421
 312  783.3125
 313  793.1515
 314  779.0867
 315  785.4736
 316  702.8206
 317  727.8073
 318  730.7184
 319  631.2662
 320  759.1735
 321  758.5641
 322  774.1962
 323  663.2499
 324  680.1394
 325  742.6259
 326  809.7754
 327  750.5671
 328  656.6897
 329  787.6022
 330  807.8817
 331  857.6602
 332  761.8798
 333  792.0991
 334  863.5427
 335  886.4421
 336  856.2827
 337  774.7826
 338  784.325
 339  725.6188
 340  746.1511
 341  772.1205
 342  758.6301
 343  694.4158
 344  790.6324
 345  752.2078
 346  562.9319
 347  625.726
 348  648.2966
 349  648.6925
 350  672.7341
 351  825.2639
 352  883.4528
 353  764.0215
 354  755.1038
 355  772.9938
 356  803.5309
 357  823.442
 358  744.6208
 359  772.5837
 360  875.2001
 361  928.1415
 362  867.1362
 363  830.9299
 364  798.455
 365  910.3388
 366  779.6923
 367  703.055
 368  761.4391
 369  837.9104
 370  803.3033
 371  841.1233
 372  834.8327
 373  761.3304
 374  784.993
 375  826.0888
 376  768.9714
 377  910.2691
 378  891.264
 379  863.7398
 380  869.5416
 381  855.7984
 382  771.2185
 383  700.952
 384  785.9166
 385  796.9984
 386  726.9332
 387  779.5963
 388  871.4756
 389  911.7167
 390  861.6835
 391  775.4834
 392  791.0045
 393  863.0826
 394  945.7831
 395  898.3148
 396  778.6021
 397  711.0483
 398  763.622
 399  851.3815
 400  822.7681
 401  768.27
 402  676.2708
 403  725.8852
 404  837.644
 405  788.6218
 406  793.7019
 407  872.3393
 408  885.981
 409  829.0382
 410  853.7263
 411  785.7251
 412  759.7302
 413  804.6357
 414  830.5402
 415  807.6242
 416  913.818
 417  888.9074
 418  814.7375
 419  778.4411
 420  778.905
 421  727.6063
 422  785.7938
 423  822.7074
 424  770.8193
 425  720.0549
 426  718.7714
 427  779.8798
 428  807.2924
 429  778.1234
 430  734.2682
 431  801.8414
 432  822.3223
 433  833.6795
 434  783.5628
 435  716.3925
 436  764.3402
 437  897.4537
 438  812.5741
 439  760.1517
 440  848.1283
 441  697.2979
 442  755.0049
 443  806.7056
 444  742.0708
 445  849.2827
 446  819.79
 447  802.9214
 448  835.4058
 449  833.0958
 450  823.5587
 451  872.8768
 452  867.7795
 453  874.9725
 454  773.354
 455  750.0751
 456  843.1566
 457  928.3739
 458  918.6484
 459  878.575
 460  887.8554
 461  973.4718
 462  857.7872
 463  811.8921
 464  856.6465
 465  854.9517
 466  921.0736
 467  880.0908
 468  831.0568
 469  681.3444
 470  809.9218
 471  779.6559
 472  878.7439
 473  913.8041
 474  799.9281
 475  784.9272
 476  766.551
 477  697.3492
 478  531.5446
 479  678.609
 480  899.1328
 481  892.3195
 482  795.0341
 483  706.0948
 484  692.2028
 485  820.0347
 486  809.5082
 487  758.1348
 488  915.9779
 489  960.8649
 490  925.9722
 491  783.4802
 492  772.2004
 493  818.7978
 494  835.4109
 495  932.8064
 496  933.7325
 497  833.7148
 498  881.1878
 499  880.1938
 500  848.513
 501  847.032
 502  791.3636
 503  687.3196
 504  736.1838
 505  829.3685
 506  811.0129
 507  799.68
 508  864.7372
 509  1029.203
 510  1106.689
 511  1049.442
