# Input file       =  1196464943.112988_cleaned.dat
# Candidate        =  PSR_0332+5434
# Telescope        =  AR
# Epoch_topo       =  58091.974098529950
# Epoch_bary       =  N/A
# T_sample         =  0.002
# Data Folded      =  7340032
# Data Avg         =  0.0463781783387885
# Data StdDev      =  1.00064457361088 
# Profile Bins     =  512
# Profile Avg      =  664.888068228521 
# Profile StdDev   =  119.810213132365 
# Reduced chi-sqr  =  0.715
# Prob(Noise)      <  1   (~0.0 sigma)
# P_topo (ms)      =  714.53011226956   +/- 5.56e-05
# P'_topo (s/s)    =  -0                +/- 2.93e-11
# P''_topo (s/s^2) =  0                 +/- 1.3e-14
# P_bary (ms)      =  N/A
# P'_bary (s/s)    =  N/A
# P''_bary (s/s^2) =  N/A
# P_orb (s)        =  N/A
# asin(i)/c (s)    =  N/A
# eccentricity     =  N/A
# w (rad)          =  N/A
# T_peri           =  N/A
######################################################
   0  890.8535
   1  793.3453
   2  800.925
   3  781.5538
   4  636.7375
   5  706.832
   6  726.1024
   7  508.4819
   8  604.4945
   9  616.0705
  10  554.5823
  11  613.222
  12  732.1256
  13  701.5938
  14  632.2148
  15  737.8727
  16  708.1884
  17  668.7994
  18  637.1178
  19  696.5388
  20  706.3906
  21  638.4017
  22  633.6844
  23  549.1609
  24  555.7233
  25  541.2368
  26  622.3711
  27  695.3307
  28  701.7136
  29  673.8687
  30  660.8622
  31  666.1625
  32  689.8828
  33  664.3894
  34  665.1925
  35  619.2203
  36  643.6378
  37  721.2867
  38  613.1817
  39  607.5094
  40  663.9227
  41  733.9526
  42  749.6355
  43  642.9747
  44  693.7518
  45  664.3875
  46  635.5899
  47  651.1502
  48  632.87
  49  703.9832
  50  690.0018
  51  707.0621
  52  603.8943
  53  575.3906
  54  652.7859
  55  688.5354
  56  705.04
  57  648.4814
  58  587.3025
  59  646.3624
  60  680.7405
  61  703.1968
  62  637.4727
  63  671.8815
  64  632.8488
  65  711.0671
  66  796.6822
  67  862.3399
  68  841.1968
  69  709.7689
  70  657.0032
  71  659.2141
  72  705.0089
  73  632.3943
  74  598.0439
  75  541.3198
  76  707.4387
  77  786.1959
  78  748.6788
  79  788.4251
  80  754.6489
  81  760.8913
  82  694.9339
  83  721.5257
  84  580.2684
  85  560.4099
  86  655.4234
  87  599.6893
  88  626.9337
  89  685.0724
  90  788.3939
  91  782.5134
  92  611.3146
  93  624.4727
  94  656.6041
  95  727.1141
  96  672.6707
  97  579.4338
  98  651.9449
  99  649.3685
 100  604.8372
 101  607.4455
 102  687.4338
 103  752.713
 104  689.6963
 105  659.0602
 106  720.9092
 107  659.9669
 108  570.2196
 109  581.675
 110  765.8581
 111  677.926
 112  815.1058
 113  836.4319
 114  627.8455
 115  659.9507
 116  569.4951
 117  713.3826
 118  707.909
 119  690.6136
 120  592.4439
 121  628.5872
 122  686.1103
 123  732.6745
 124  777.4792
 125  679.5494
 126  630.4199
 127  602.0703
 128  614.1937
 129  665.576
 130  702.5551
 131  666.3583
 132  604.0958
 133  599.3099
 134  670.2959
 135  692.3382
 136  612.7057
 137  600.3417
 138  677.6403
 139  615.848
 140  699.4894
 141  824.8257
 142  740.1703
 143  810.1318
 144  718.4177
 145  808.0671
 146  833.1532
 147  691.0894
 148  644.0229
 149  732.4972
 150  724.6479
 151  711.1441
 152  711.7922
 153  796.5983
 154  665.8164
 155  687.7459
 156  730.055
 157  653.4185
 158  679.0976
 159  737.4496
 160  695.2116
 161  608.7187
 162  621.6293
 163  730.9504
 164  656.3071
 165  554.059
 166  577.5497
 167  640.5093
 168  554.658
 169  585.8052
 170  609.6594
 171  571.0692
 172  545.4523
 173  604.6473
 174  693.6418
 175  658.6998
 176  817.1263
 177  721.5845
 178  641.3339
 179  630.1548
 180  614.0507
 181  685.2931
 182  645.4998
 183  687.7287
 184  758.7581
 185  814.9084
 186  729.0623
 187  614.1892
 188  650.3282
 189  724.8228
 190  722.9304
 191  683.0558
 192  655.8591
 193  650.8719
 194  607.7599
 195  660.5614
 196  756.9266
 197  719.0237
 198  689.9457
 199  649.1536
 200  645.9736
 201  613.4355
 202  605.6577
 203  679.6128
 204  731.8116
 205  749.456
 206  677.6345
 207  539.2528
 208  577.158
 209  527.364
 210  585.2337
 211  616.5919
 212  643.7558
 213  670.8039
 214  596.2883
 215  614.2795
 216  709.2098
 217  648.4791
 218  648.7043
 219  665.8821
 220  777.8417
 221  710.228
 222  630.3983
 223  667.3474
 224  642.1376
 225  636.4071
 226  724.0945
 227  744.8873
 228  673.8007
 229  659.0659
 230  678.2415
 231  645.0024
 232  720.4373
 233  835.8212
 234  709.6217
 235  590.3365
 236  621.4221
 237  663.9565
 238  675.8785
 239  572.5051
 240  688.2664
 241  629.0704
 242  714.1752
 243  748.4663
 244  668.4129
 245  626.5195
 246  695.5273
 247  618.867
 248  570.0793
 249  667.9448
 250  655.5495
 251  639.1947
 252  698.5323
 253  803.5718
 254  648.4099
 255  733.0114
 256  830.9844
 257  645.0435
 258  660.4061
 259  669.5543
 260  706.3931
 261  721.4872
 262  741.6148
 263  770.1472
 264  690.6796
 265  629.996
 266  541.6647
 267  620.0099
 268  680.9608
 269  676.7413
 270  703.6897
 271  737.4706
 272  618.7813
 273  451.2926
 274  642.8238
 275  787.7922
 276  713.3826
 277  679.8881
 278  653.2682
 279  715.467
 280  779.7375
 281  736.8198
 282  686.349
 283  636.1813
 284  694.1886
 285  671.3277
 286  655.5906
 287  646.5627
 288  691.1357
 289  670.4465
 290  607.4239
 291  654.2648
 292  634.4028
 293  584.8303
 294  613.7737
 295  761.5161
 296  683.5707
 297  576.2994
 298  599.1704
 299  699.4784
 300  798.6923
 301  734.7114
 302  731.6841
 303  781.5059
 304  646.274
 305  522.2161
 306  545.3773
 307  643.6317
 308  668.1145
 309  700.5932
 310  650.4542
 311  538.062
 312  613.6934
 313  666.7843
 314  662.9693
 315  656.2217
 316  666.7617
 317  731.0544
 318  759.0572
 319  732.6045
 320  627.7112
 321  501.5433
 322  605.1533
 323  684.1462
 324  697.9484
 325  708.549
 326  676.1237
 327  621.4557
 328  673.4051
 329  597.8414
 330  609.3232
 331  674.9887
 332  737.5615
 333  654.4589
 334  630.2319
 335  725.2352
 336  647.7026
 337  636.5353
 338  668.6669
 339  641.3351
 340  627.2108
 341  672.3109
 342  669.0543
 343  631.6777
 344  595.0173
 345  655.1485
 346  613.0304
 347  459.2227
 348  548.4327
 349  678.3364
 350  639.5522
 351  608.7047
 352  772.3118
 353  814.5291
 354  700.4579
 355  650.9661
 356  720.3817
 357  767.0462
 358  726.9471
 359  702.6306
 360  770.5229
 361  581.0795
 362  595.5071
 363  600.6363
 364  802.0015
 365  762.8004
 366  708.3455
 367  757.2899
 368  637.0269
 369  449.7544
 370  506.9386
 371  593.2867
 372  571.7902
 373  730.9921
 374  693.6207
 375  656.6876
 376  558.2749
 377  525.8257
 378  580.7995
 379  591.8024
 380  571.218
 381  593.4044
 382  615.5587
 383  695.092
 384  746.2049
 385  691.2225
 386  734.6156
 387  607.6299
 388  542.1235
 389  573.6526
 390  597.4385
 391  659.3359
 392  668.3614
 393  619.5434
 394  600.2388
 395  634.1757
 396  669.7845
 397  547.8688
 398  545.3492
 399  629.718
 400  667.235
 401  552.3677
 402  614.4007
 403  680.8499
 404  642.6603
 405  596.5146
 406  603.9301
 407  599.9391
 408  555.4962
 409  591.462
 410  633.4438
 411  647.1054
 412  705.2173
 413  782.7194
 414  704.3215
 415  604.3889
 416  451.6945
 417  546.2844
 418  652.702
 419  606.4411
 420  647.978
 421  664.4659
 422  605.9479
 423  596.5381
 424  636.3071
 425  695.2254
 426  683.2151
 427  674.4265
 428  759.7907
 429  670.6119
 430  620.413
 431  563.11
 432  639.1961
 433  580.3615
 434  641.3342
 435  704.4305
 436  637.1658
 437  600.0008
 438  671.9532
 439  647.7626
 440  642.0417
 441  670.7122
 442  757.4739
 443  724.0294
 444  655.4017
 445  629.7921
 446  635.6596
 447  630.89
 448  643.367
 449  665.7237
 450  537.7877
 451  522.6843
 452  551.1494
 453  662.9059
 454  537.4803
 455  536.5468
 456  691.6837
 457  809.8475
 458  713.5176
 459  726.2347
 460  717.8282
 461  698.0613
 462  632.0771
 463  616.0633
 464  594.5609
 465  557.2781
 466  635.0604
 467  657.3527
 468  698.8755
 469  654.8656
 470  638.7248
 471  610.5496
 472  569.6812
 473  518.6965
 474  573.0566
 475  619.774
 476  588.0221
 477  518.0789
 478  649.691
 479  658.5812
 480  659.6622
 481  705.2026
 482  720.7906
 483  679.8021
 484  619.517
 485  682.4685
 486  665.3444
 487  684.5477
 488  545.0342
 489  601.9835
 490  662.9263
 491  646.7177
 492  667.0932
 493  598.8842
 494  594.8204
 495  632.042
 496  751.1219
 497  818.3621
 498  825.9787
 499  799.0456
 500  739.0843
 501  683.6331
 502  703.7367
 503  748.5338
 504  765.5278
 505  768.1925
 506  765.1478
 507  745.6874
 508  757.9408
 509  881.7246
 510  954.8733
 511  934.2814
