# Input file       =  1196004548.112581_cleaned.dat
# Candidate        =  PSR_0332+5434
# Telescope        =  AR
# Epoch_topo       =  58086.645452691911
# Epoch_bary       =  N/A
# T_sample         =  0.002
# Data Folded      =  7208960
# Data Avg         =  5.22958083853272 
# Data StdDev      =  41.9005221249381 
# Profile Bins     =  512
# Profile Avg      =  73632.4902389903 
# Profile StdDev   =  4971.88142066374 
# Reduced chi-sqr  =  0.562
# Prob(Noise)      <  1   (~0.0 sigma)
# P_topo (ms)      =  714.524265766815  +/- 0.000521
# P'_topo (s/s)    =  -0                +/- 2.8e-10
# P''_topo (s/s^2) =  0                 +/- 1.26e-13
# P_bary (ms)      =  N/A
# P'_bary (s/s)    =  N/A
# P''_bary (s/s^2) =  N/A
# P_orb (s)        =  N/A
# asin(i)/c (s)    =  N/A
# eccentricity     =  N/A
# w (rad)          =  N/A
# T_peri           =  N/A
######################################################
   0  68792.33
   1  71227.77
   2  71188.94
   3  72598.74
   4  80564.62
   5  76680.41
   6  73558.34
   7  76113.08
   8  77234.72
   9  71932.05
  10  73384.68
  11  76289.52
  12  75571.02
  13  74690.7
  14  73172.78
  15  73766.35
  16  74630.14
  17  74842.49
  18  77800.44
  19  76949.38
  20  78049.3
  21  80141.95
  22  78230.63
  23  80504.57
  24  80869.37
  25  76760.95
  26  74497.65
  27  68402.98
  28  68475.24
  29  69904.83
  30  69575.01
  31  69955.55
  32  69689.29
  33  75379.59
  34  74396.2
  35  77529.94
  36  73585.49
  37  73009.7
  38  73144.76
  39  76680.97
  40  79370.97
  41  73426.06
  42  70598.77
  43  70089.63
  44  73713.75
  45  73361.97
  46  71157.1
  47  73148.86
  48  75715.05
  49  78601.06
  50  79727.52
  51  80504.8
  52  76236.09
  53  80101.89
  54  82913.41
  55  78487.22
  56  76041.52
  57  75474.37
  58  75218.95
  59  70277.69
  60  70294.69
  61  71815.24
  62  71573.8
  63  74012.57
  64  71134.95
  65  73676.98
  66  71387.11
  67  69778.88
  68  70338.86
  69  73050.19
  70  72250.26
  71  73881.26
  72  75623.44
  73  75262.15
  74  73056.46
  75  73548.12
  76  76654.12
  77  76379.3
  78  78794.07
  79  74288.72
  80  72029.98
  81  72782.65
  82  72933.86
  83  75125.43
  84  75297.55
  85  75480.73
  86  72392.73
  87  73070.66
  88  74014.77
  89  71558.59
  90  69414.69
  91  70841.93
  92  71407.97
  93  72249.59
  94  76220.85
  95  76775.09
  96  72740.7
  97  72273.42
  98  74791.58
  99  72913.85
 100  71729.09
 101  75023.19
 102  71177.77
 103  71006.87
 104  73632.33
 105  78109.18
 106  78004.02
 107  76704.88
 108  75017.26
 109  73278.85
 110  73327.16
 111  70885.62
 112  72779.54
 113  74379.98
 114  74399.14
 115  76850.12
 116  77273.07
 117  76196.75
 118  76443.58
 119  73840.62
 120  71195.75
 121  74845.62
 122  73887.04
 123  73582.85
 124  71943.18
 125  74723.38
 126  77407.98
 127  79029.72
 128  76966.66
 129  73815.28
 130  71142.23
 131  71939.09
 132  72025.75
 133  74455.06
 134  73122.13
 135  77479.33
 136  75380.3
 137  78694.25
 138  76424.76
 139  77280.32
 140  73113.27
 141  68563.17
 142  70019.9
 143  71845.41
 144  74906.99
 145  74449.01
 146  75025.64
 147  77666.1
 148  78122.34
 149  77548.35
 150  74793.37
 151  77307.26
 152  75649.52
 153  74838.63
 154  79113.16
 155  79075.95
 156  76332.89
 157  75017.57
 158  75331.36
 159  75166.43
 160  76338.31
 161  72989.66
 162  76071.16
 163  74477.54
 164  74903.28
 165  71913.2
 166  70271.48
 167  70505.36
 168  70839.8
 169  74266.27
 170  72835.81
 171  71831.91
 172  71301.37
 173  72616.79
 174  74930.49
 175  75393.59
 176  75605.99
 177  73453.38
 178  74253.83
 179  73034.53
 180  74297.73
 181  71997.01
 182  76563.89
 183  78912.94
 184  75122.4
 185  73473.98
 186  67605.29
 187  66735.18
 188  69845.56
 189  73561.66
 190  70452.61
 191  71395.5
 192  72428.08
 193  72276.77
 194  74972.56
 195  70661.21
 196  68918.74
 197  71810.63
 198  70520.37
 199  70654.62
 200  73661.07
 201  75796.58
 202  75476.45
 203  74272.02
 204  72246.2
 205  72812.35
 206  73683.62
 207  72852.18
 208  75241.26
 209  72665.24
 210  75949.23
 211  75401.98
 212  76470.59
 213  73241.63
 214  69692.52
 215  70066.02
 216  71208.74
 217  71586.77
 218  71067.27
 219  72817.01
 220  72270.32
 221  73311.97
 222  78027.08
 223  72881.57
 224  71807.78
 225  73067.12
 226  75430.53
 227  74557.33
 228  74658.84
 229  74437.26
 230  71835.05
 231  69879.99
 232  68861.23
 233  71212.61
 234  74413.59
 235  74212.64
 236  74681.27
 237  74477.6
 238  75208.92
 239  78830.23
 240  76787.56
 241  72660.09
 242  70251.81
 243  72452.67
 244  75295.23
 245  72359.56
 246  75795.09
 247  77995.16
 248  77625.13
 249  72993.44
 250  73504.88
 251  75231.16
 252  73899.11
 253  74401.55
 254  76550.98
 255  77195.48
 256  75704.99
 257  74259.9
 258  75443.98
 259  78839.76
 260  77240.03
 261  75537.88
 262  75520.68
 263  74220.2
 264  72712.17
 265  70355.67
 266  73214.25
 267  73676.2
 268  76787.12
 269  79067.36
 270  73586.79
 271  74371.04
 272  75834.2
 273  75214.12
 274  72844.01
 275  72298.98
 276  74614.7
 277  73999.39
 278  72681.93
 279  72189.39
 280  71764.85
 281  69024.21
 282  72637.18
 283  74302.77
 284  74525.74
 285  73433.08
 286  70059.81
 287  72777.26
 288  71555.05
 289  69565.85
 290  68850.08
 291  75315.38
 292  77523.91
 293  77903.02
 294  76812.6
 295  73410.61
 296  74258.97
 297  70503.62
 298  66934.88
 299  69481.11
 300  73612.43
 301  73018.88
 302  73389.58
 303  75032.67
 304  75419.98
 305  73650.36
 306  72308.88
 307  73856.27
 308  74158.9
 309  74641.63
 310  70667.04
 311  72100.43
 312  74334.45
 313  72739.23
 314  68994.38
 315  68338.13
 316  73319.3
 317  71357.77
 318  74174.97
 319  75290.68
 320  73353.33
 321  71500.58
 322  72752.52
 323  74091.73
 324  69608.61
 325  70124.27
 326  69250.34
 327  68479.33
 328  71640.71
 329  70245.54
 330  70436.86
 331  67298.93
 332  71103.88
 333  70694.18
 334  70886
 335  67621.11
 336  71131.78
 337  71116.09
 338  66932.31
 339  69701.38
 340  72537.16
 341  75705.76
 342  75017.98
 343  74016.65
 344  74768.37
 345  71987.75
 346  73723.54
 347  74686.7
 348  75470.19
 349  71737.46
 350  72630.84
 351  72941.93
 352  75157.97
 353  72667.04
 354  77724.67
 355  80028.41
 356  76344.69
 357  73620.12
 358  74480.58
 359  74722.3
 360  70299.55
 361  68814.33
 362  71299.45
 363  76258.26
 364  74463.45
 365  75068.01
 366  78014.48
 367  73389.96
 368  75714.5
 369  76689.93
 370  72425.74
 371  72170.04
 372  71466.12
 373  74685.97
 374  72757.34
 375  74950.75
 376  75023.84
 377  73119.09
 378  71872.4
 379  74687.76
 380  74922.48
 381  71003.67
 382  75020.66
 383  76017.09
 384  71761.56
 385  71470.63
 386  73759.02
 387  76908.23
 388  72955.54
 389  74834.35
 390  73421.24
 391  74753.24
 392  73751.45
 393  75315.92
 394  79494.95
 395  75332.02
 396  74874.79
 397  76900.93
 398  79234.5
 399  76478.45
 400  75802.53
 401  74312.99
 402  72850.2
 403  70776.51
 404  69835.65
 405  71179.96
 406  72026.59
 407  73554.58
 408  72613.65
 409  71148.86
 410  70665.95
 411  74279.04
 412  72840.2
 413  71437.62
 414  73826.41
 415  74506
 416  72249.33
 417  71952.34
 418  75611.88
 419  78160.79
 420  76997.15
 421  72655.34
 422  75865.7
 423  77858.09
 424  74591.27
 425  75346.75
 426  74718.15
 427  73512.81
 428  74319.89
 429  75883.41
 430  80059.73
 431  74889.96
 432  72986.3
 433  72366.09
 434  72371.82
 435  71088.73
 436  71288.07
 437  71924.56
 438  71792.85
 439  72158.45
 440  73183.49
 441  73022.73
 442  70516.33
 443  69590.54
 444  77436.03
 445  77350.99
 446  73788.34
 447  75318.8
 448  75188.77
 449  73421.41
 450  72764.33
 451  71584.32
 452  73249.15
 453  74940.02
 454  78220.58
 455  76265.32
 456  73354.92
 457  72792.28
 458  72594.57
 459  68748.59
 460  70474.54
 461  72784.02
 462  74786.86
 463  73843.85
 464  73393.02
 465  71011.7
 466  72429.02
 467  73501.91
 468  73592.16
 469  68357.38
 470  69340.23
 471  72639.81
 472  72133.66
 473  72012.97
 474  70309.67
 475  72048.24
 476  69279.55
 477  70115.59
 478  72681.55
 479  73846.66
 480  76282.43
 481  71516.08
 482  65877.02
 483  73400.1
 484  75491.62
 485  71030.76
 486  72051.36
 487  69305.59
 488  70167.09
 489  69531.07
 490  70592.46
 491  73139.68
 492  72620.3
 493  71640.67
 494  74647.11
 495  76451.73
 496  71233.49
 497  72692.63
 498  73809.2
 499  75880.92
 500  72386.99
 501  72212.91
 502  78067.03
 503  74729.34
 504  74958.02
 505  73268.95
 506  71133.81
 507  68349.51
 508  67998.98
 509  71737.41
 510  73418.55
 511  69756.09
