# Input file       =  1196292583.114135_cleaned.dat
# Candidate        =  PSR_0332+5434
# Telescope        =  AR
# Epoch_topo       =  58089.979191135819
# Epoch_bary       =  N/A
# T_sample         =  0.002
# Data Folded      =  7340032
# Data Avg         =  0.069517044659121
# Data StdDev      =  1.00022554269698 
# Profile Bins     =  512
# Profile Avg      =  996.593395095045 
# Profile StdDev   =  119.760041288709 
# Reduced chi-sqr  =  0.704
# Prob(Noise)      <  1   (~0.0 sigma)
# P_topo (ms)      =  714.528063999546  +/- 0.00047
# P'_topo (s/s)    =  -0                +/- 2.48e-10
# P''_topo (s/s^2) =  0                 +/- 1.1e-13
# P_bary (ms)      =  N/A
# P'_bary (s/s)    =  N/A
# P''_bary (s/s^2) =  N/A
# P_orb (s)        =  N/A
# asin(i)/c (s)    =  N/A
# eccentricity     =  N/A
# w (rad)          =  N/A
# T_peri           =  N/A
######################################################
   0  1272.452
   1  1214.551
   2  1093.717
   3  1015.381
   4  1017.35
   5  987.4534
   6  971.988
   7  919.3911
   8  905.7555
   9  831.6761
  10  901.9927
  11  929.6948
  12  1005.324
  13  1066.081
  14  1068.554
  15  1138.221
  16  1045.098
  17  973.4052
  18  1001.681
  19  978.2305
  20  1017.911
  21  996.5384
  22  1079.442
  23  1053.441
  24  960.5207
  25  901.2227
  26  926.6776
  27  1015.937
  28  921.85
  29  905.0607
  30  975.5036
  31  907.3952
  32  957.6686
  33  972.7873
  34  1033.636
  35  981.2193
  36  1061.352
  37  1037.977
  38  1086.892
  39  1051.268
  40  969.0837
  41  959.4009
  42  979.6031
  43  1081.733
  44  1115.064
  45  1021.718
  46  891.5841
  47  904.5115
  48  897.9783
  49  966.5837
  50  919.7491
  51  1004.749
  52  1007.861
  53  1021.836
  54  942.2632
  55  963.0363
  56  962.2797
  57  1034.565
  58  1005.408
  59  930.3819
  60  934.5211
  61  993.5817
  62  1022.079
  63  1021.113
  64  941.7774
  65  944.6516
  66  1030.854
  67  1095.822
  68  1028.012
  69  1002.499
  70  992.5615
  71  905.1251
  72  943.9545
  73  955.75
  74  988.5826
  75  975.0359
  76  1132.164
  77  1095.205
  78  1090.119
  79  1102.28
  80  1023.98
  81  1103.001
  82  1066.256
  83  1053.302
  84  1054.118
  85  1073.239
  86  1141.794
  87  1071.041
  88  1135.847
  89  1002.755
  90  1062.088
  91  1100.561
  92  1066.306
  93  1042.828
  94  1085.635
  95  1160.522
  96  1046.738
  97  1020.514
  98  1034.01
  99  1037.345
 100  991.8338
 101  975.2253
 102  908.8167
 103  859.0536
 104  1002.314
 105  983.7731
 106  857.8644
 107  817.6139
 108  916.1422
 109  994.1748
 110  906.1139
 111  911.3247
 112  1031.947
 113  968.1238
 114  971.8556
 115  1044.476
 116  1025.154
 117  957.4996
 118  987.9108
 119  1038.778
 120  1010.947
 121  1012.782
 122  1020.261
 123  976.715
 124  920.4323
 125  959.2299
 126  950.4537
 127  1024.85
 128  964.1572
 129  1024.363
 130  1028.095
 131  916.0023
 132  873.6274
 133  956.2394
 134  901.8394
 135  935.8783
 136  989.8806
 137  980.589
 138  1044.829
 139  1001.205
 140  1074.918
 141  1224.233
 142  1182.819
 143  1093.714
 144  1035.741
 145  1091.406
 146  1080.901
 147  1081.801
 148  1053.453
 149  994.9863
 150  980.011
 151  1056.228
 152  1088.902
 153  1100.439
 154  1115.381
 155  1031.271
 156  1018.523
 157  994.0208
 158  985.4954
 159  1007.092
 160  1006.941
 161  960.6945
 162  1075.237
 163  1009.5
 164  923.2233
 165  901.7121
 166  977.8771
 167  904.2933
 168  882.3792
 169  966.7441
 170  974.6845
 171  934.1068
 172  897.8752
 173  852.6201
 174  975.1051
 175  977.9235
 176  951.2206
 177  994.7922
 178  1101.059
 179  1141.123
 180  1105.828
 181  1032.289
 182  931.8986
 183  868.9954
 184  864.1919
 185  897.5294
 186  990.8128
 187  1060.195
 188  1017.57
 189  953.1047
 190  917.368
 191  840.0506
 192  862.3979
 193  865.1089
 194  876.2164
 195  966.8788
 196  1002.954
 197  947.4624
 198  967.9966
 199  1039.845
 200  1000.934
 201  1011.975
 202  1023.021
 203  984.4321
 204  949.2122
 205  1042.252
 206  948.8412
 207  927.4495
 208  869.3288
 209  867.397
 210  922.3031
 211  920.7598
 212  977.6082
 213  932.6777
 214  925.5812
 215  991.8774
 216  1040.856
 217  1020.16
 218  983.15
 219  986.3489
 220  974.2724
 221  938.7642
 222  825.7322
 223  999.6509
 224  1062.631
 225  1014.752
 226  939.4205
 227  1008.748
 228  1007.832
 229  1050.247
 230  1029.909
 231  1083.522
 232  981.1789
 233  949.8141
 234  1032.184
 235  1014.405
 236  941.2145
 237  917.579
 238  1100.198
 239  1080.946
 240  1033.198
 241  971.1948
 242  1013.771
 243  1048.013
 244  1071.122
 245  1038.26
 246  954.8766
 247  919.489
 248  1106.584
 249  1089.814
 250  978.4316
 251  1045.068
 252  1078.227
 253  980.4344
 254  937.1628
 255  969.4238
 256  1026.939
 257  1009.748
 258  1076.719
 259  1028.922
 260  1036.233
 261  1021.766
 262  953.082
 263  922.0071
 264  1014.342
 265  1054.636
 266  978.1984
 267  928.5918
 268  928.6516
 269  1027.967
 270  1099.033
 271  996.8078
 272  955.9505
 273  924.6444
 274  854.6815
 275  867.427
 276  948.5263
 277  929.3816
 278  1030.581
 279  1026.776
 280  925.0058
 281  990.801
 282  943.4597
 283  1012.257
 284  1055.305
 285  975.082
 286  866.6348
 287  1005.52
 288  1086.28
 289  1089.344
 290  1086.368
 291  1097.1
 292  1117.005
 293  1092.567
 294  1108.355
 295  1124.843
 296  964.4918
 297  954.1409
 298  968.1379
 299  979.5541
 300  975.4821
 301  944.7228
 302  968.1772
 303  1107.962
 304  1042.858
 305  1029.304
 306  1024.039
 307  1025.483
 308  1052.381
 309  1045.326
 310  961.4054
 311  1005.44
 312  1038.055
 313  1053.01
 314  929.8008
 315  819.7715
 316  868.8464
 317  972.5671
 318  989.1154
 319  1035.261
 320  1043.694
 321  1091.863
 322  1043.853
 323  952.13
 324  990.0317
 325  918.8816
 326  926.6803
 327  1001.494
 328  1040.291
 329  986.3518
 330  970.7297
 331  890.6848
 332  938.1593
 333  915.7187
 334  916.3641
 335  915.4253
 336  933.6425
 337  854.458
 338  888.9287
 339  923.403
 340  903.0516
 341  909.8536
 342  907.8627
 343  900.3377
 344  846.1929
 345  858.5894
 346  946.8431
 347  901.9397
 348  1058.361
 349  1041.375
 350  972.6798
 351  940.9227
 352  975.5039
 353  982.6914
 354  976.9182
 355  989.4033
 356  956.5223
 357  992.4747
 358  919.3816
 359  888.1077
 360  954.5856
 361  900.1934
 362  1010.474
 363  974.9371
 364  1016.452
 365  1045.042
 366  934.3563
 367  1026.45
 368  1030.383
 369  991.4899
 370  957.2359
 371  1039.999
 372  1067.863
 373  1106.854
 374  1043.613
 375  1100.444
 376  1025.493
 377  989.3601
 378  1060.74
 379  1060.821
 380  1107.819
 381  964.5034
 382  883.7571
 383  933.2939
 384  997.8932
 385  1094.35
 386  998.9346
 387  923.0441
 388  965.6126
 389  892.389
 390  932.9518
 391  1025.904
 392  1005.817
 393  1012.595
 394  954.9846
 395  963.543
 396  937.5829
 397  933.0304
 398  844.7197
 399  961.6066
 400  953.4745
 401  910.0479
 402  925.692
 403  1001.353
 404  1014.057
 405  929.4233
 406  1012.292
 407  968.6808
 408  838.1146
 409  847.5714
 410  862.2237
 411  858.9261
 412  931.304
 413  960.4832
 414  931.474
 415  902.2693
 416  919.0068
 417  988.2896
 418  882.0941
 419  956.0159
 420  1097.944
 421  994.8655
 422  879.3061
 423  862.059
 424  990.2092
 425  1005.773
 426  986.3182
 427  1106.86
 428  1082.186
 429  1004.544
 430  1038.03
 431  1022.589
 432  1013.461
 433  1067.163
 434  1026.016
 435  1095.115
 436  1168.424
 437  1116.549
 438  1126.091
 439  1041.391
 440  1005.565
 441  1040.091
 442  1128.694
 443  1010.571
 444  1099.989
 445  1084.419
 446  1030.354
 447  956.6644
 448  1030.634
 449  1028.401
 450  1038.047
 451  1126.67
 452  1096.886
 453  1053.171
 454  1068.807
 455  1030.086
 456  908.3305
 457  900.4851
 458  909.9233
 459  979.2421
 460  1029.898
 461  995.3446
 462  920.7714
 463  969.6055
 464  939.2703
 465  883.4447
 466  1006.803
 467  1064.367
 468  1061.588
 469  1113.231
 470  1060.174
 471  1032.811
 472  1022.423
 473  1037.108
 474  1027.564
 475  1045.104
 476  999.0862
 477  1054.474
 478  1076.338
 479  1042.74
 480  929.6873
 481  1000.774
 482  963.103
 483  969.2828
 484  1016.589
 485  984.0869
 486  877.2454
 487  974.1439
 488  998.18
 489  1136.803
 490  1040.571
 491  1006.718
 492  1039.438
 493  1065.188
 494  1023.42
 495  1092.132
 496  1146.669
 497  1067.63
 498  1037.458
 499  1062.556
 500  1109.502
 501  1078.006
 502  992.7043
 503  975.0908
 504  1029.194
 505  1011.912
 506  1005.154
 507  1032.329
 508  1081.392
 509  1079.437
 510  1118.307
 511  1223.455
