# Input file       =  1196521562.110791_cleaned.dat
# Candidate        =  PSR_0332+5434
# Telescope        =  AR
# Epoch_topo       =  58092.629411004527
# Epoch_bary       =  N/A
# T_sample         =  0.002
# Data Folded      =  7208960
# Data Avg         =  0.0628958333400131
# Data StdDev      =  1.00002591253278 
# Profile Bins     =  512
# Profile Avg      =  885.553160220081 
# Profile StdDev   =  118.662250553313 
# Reduced chi-sqr  =  0.932
# Prob(Noise)      <  0.862   (~0.0 sigma)
# P_topo (ms)      =  714.530420499261  +/- 0.000146
# P'_topo (s/s)    =  -0                +/- 7.85e-11
# P''_topo (s/s^2) =  0                 +/- 3.53e-14
# P_bary (ms)      =  N/A
# P'_bary (s/s)    =  N/A
# P''_bary (s/s^2) =  N/A
# P_orb (s)        =  N/A
# asin(i)/c (s)    =  N/A
# eccentricity     =  N/A
# w (rad)          =  N/A
# T_peri           =  N/A
######################################################
   0  1066.297
   1  1122.698
   2  1156.567
   3  1058.213
   4  1045.789
   5  982.4526
   6  838.0964
   7  824.6289
   8  833.8478
   9  797.8102
  10  915.8662
  11  861.5398
  12  915.5476
  13  906.8358
  14  896.3596
  15  872.8516
  16  890.4503
  17  962.2936
  18  962.7514
  19  871.408
  20  739.8625
  21  808.0551
  22  829.4708
  23  830.865
  24  883.6144
  25  909.7844
  26  973.7452
  27  908.7625
  28  1001.919
  29  1016.608
  30  1025.503
  31  914.3448
  32  820.3199
  33  734.452
  34  848.4726
  35  869.9304
  36  839.2174
  37  976.8767
  38  964.5493
  39  911.8561
  40  1015.268
  41  853.9639
  42  765.0503
  43  842.2143
  44  887.5835
  45  971.356
  46  871.0383
  47  823.6703
  48  914.9752
  49  898.2617
  50  861.6117
  51  775.9277
  52  852.6592
  53  980.8676
  54  1029.645
  55  962.5226
  56  879.8271
  57  881.7816
  58  912.9559
  59  877.7404
  60  941.8803
  61  877.8222
  62  964.1229
  63  878.6368
  64  878.0724
  65  867.9998
  66  773.4263
  67  742.3214
  68  753.7517
  69  887.6287
  70  946.3121
  71  964.2732
  72  992.1678
  73  1036.838
  74  930.0167
  75  888.7207
  76  792.2104
  77  872.3024
  78  912.6089
  79  1111.655
  80  993.4079
  81  837.3681
  82  811.316
  83  781.0126
  84  773.2205
  85  811.6382
  86  979.8792
  87  990.1877
  88  912.4592
  89  842.5239
  90  782.1293
  91  728.7755
  92  823.3539
  93  878.5435
  94  811.9595
  95  847.7571
  96  913.3698
  97  1008.709
  98  857.8687
  99  758.4138
 100  788.5853
 101  824.4926
 102  818.3158
 103  947.3556
 104  912.2401
 105  706.5953
 106  804.0378
 107  870.8427
 108  830.3018
 109  872.6397
 110  797.8875
 111  884.615
 112  965.0215
 113  1057.179
 114  963.2694
 115  844.7422
 116  909.3345
 117  1006.658
 118  926.4424
 119  855.4696
 120  915.0638
 121  941.0604
 122  986.4465
 123  881.2432
 124  873.4908
 125  890.244
 126  1001.687
 127  1025.382
 128  927.3995
 129  1001.071
 130  952.1107
 131  851.4844
 132  896.3876
 133  854.7164
 134  758.2746
 135  700.2137
 136  776.7829
 137  872.6719
 138  947.9346
 139  844.3759
 140  757.4797
 141  798.8707
 142  818.4872
 143  788.7728
 144  785.5991
 145  905.6878
 146  1037.145
 147  1007.595
 148  845.179
 149  882.1294
 150  804.7488
 151  849.7831
 152  933.2825
 153  830.1116
 154  864.4194
 155  927.4764
 156  967.7663
 157  960.3281
 158  916.3231
 159  999.6561
 160  1021.507
 161  912.8134
 162  842.3638
 163  874.9614
 164  906.519
 165  962.4443
 166  917.8455
 167  959.9188
 168  815.5809
 169  961.6905
 170  915.3828
 171  896.4131
 172  830.5013
 173  733.48
 174  835.0055
 175  926.1697
 176  876.4775
 177  851.8276
 178  980.4711
 179  998.8934
 180  983.7007
 181  1026.329
 182  872.8978
 183  845.5009
 184  1008.228
 185  1045.683
 186  988.5047
 187  1020.702
 188  1038.258
 189  948.2859
 190  907.9992
 191  1022.308
 192  938.5184
 193  967.2859
 194  1013.998
 195  881.8694
 196  840.9791
 197  976.6349
 198  977.0946
 199  866.701
 200  708.3723
 201  856.2308
 202  817.361
 203  736.353
 204  719.1621
 205  762.4414
 206  844.9525
 207  771.385
 208  706.3761
 209  663.7704
 210  784.5486
 211  778.044
 212  1010.036
 213  804.462
 214  815.2307
 215  797.0018
 216  873.0559
 217  775.0331
 218  793.614
 219  845.8411
 220  929.7915
 221  972.7439
 222  863.5992
 223  875.5771
 224  853.1567
 225  758.4969
 226  816.3356
 227  918.7743
 228  886.9606
 229  948.1786
 230  994.8929
 231  915.0061
 232  815.5073
 233  800.3469
 234  716.5554
 235  788.4174
 236  862.6527
 237  817.06
 238  922.7311
 239  917.5758
 240  904.3054
 241  956.4308
 242  933.0141
 243  911.8358
 244  832.1952
 245  783.928
 246  744.4902
 247  795.959
 248  781.0012
 249  811.7123
 250  879.3527
 251  958.7794
 252  992.0813
 253  936.8441
 254  834.9338
 255  921.2634
 256  875.8822
 257  968.8315
 258  975.5692
 259  963.0564
 260  1016.849
 261  1010.344
 262  959.1574
 263  905.0853
 264  836.2767
 265  869.2584
 266  872.9982
 267  908.2505
 268  881.7555
 269  919.78
 270  897.1813
 271  857.7004
 272  858.1881
 273  773.8934
 274  848.1479
 275  703.3645
 276  791.5934
 277  790.53
 278  870.6207
 279  927.5883
 280  760.7291
 281  798.8234
 282  754.9251
 283  818.4714
 284  940.755
 285  947.6362
 286  934.5389
 287  969.09
 288  909.3633
 289  746.6384
 290  704.6628
 291  795.4545
 292  779.0734
 293  781.3926
 294  836.9952
 295  871.3823
 296  816.6948
 297  892.41
 298  801.9211
 299  713.3226
 300  827.7398
 301  799.0511
 302  811.1804
 303  879.8318
 304  978.8676
 305  821.2318
 306  839.2406
 307  854.4609
 308  904.2305
 309  971.822
 310  839.8392
 311  845.5719
 312  877.0878
 313  932.1718
 314  841.007
 315  866.3637
 316  896.6396
 317  935.6063
 318  1050.002
 319  1058.11
 320  992.7346
 321  916.6901
 322  867.3918
 323  845.1032
 324  925.0154
 325  784.2151
 326  789.0894
 327  850.8025
 328  841.7706
 329  823.7615
 330  776.3799
 331  811.2843
 332  826.1409
 333  824.559
 334  786.3173
 335  773.4485
 336  772.2567
 337  781.4125
 338  862.6327
 339  804.2079
 340  747.7751
 341  822.1102
 342  906.8013
 343  940.6148
 344  807.6765
 345  864.9634
 346  865.4514
 347  864.0334
 348  815.857
 349  826.2939
 350  765.0752
 351  848.0056
 352  872.3522
 353  850.8962
 354  922.0099
 355  882.8226
 356  846.8001
 357  849.2219
 358  904.2604
 359  830.1493
 360  830.9083
 361  860.3987
 362  861.4232
 363  832.2121
 364  824.3116
 365  898.6212
 366  975.3985
 367  922.4308
 368  780.1006
 369  876.1939
 370  737.7269
 371  869.1154
 372  969.0361
 373  1003.976
 374  969.8837
 375  896.5148
 376  887.8347
 377  747.2286
 378  786.9757
 379  807.0353
 380  824.319
 381  837.2603
 382  914.2064
 383  927.7907
 384  940.4615
 385  920.33
 386  921.7953
 387  947.6761
 388  854.3813
 389  874.5273
 390  879.4952
 391  823.351
 392  958.8536
 393  1088.491
 394  1064.804
 395  969.6871
 396  907.5119
 397  930.0221
 398  1067.329
 399  946.321
 400  820.6171
 401  841.6826
 402  744.0646
 403  783.3398
 404  833.3839
 405  925.2067
 406  884.4963
 407  825.5944
 408  922.6511
 409  966.7814
 410  905.8861
 411  857.3069
 412  872.8831
 413  760.6929
 414  870.3099
 415  959.3127
 416  1024.632
 417  1086.727
 418  915.0486
 419  926.1885
 420  914.6755
 421  908.6077
 422  866.7726
 423  846.5378
 424  1013.502
 425  979.7965
 426  822.2957
 427  948.804
 428  922.702
 429  838.9599
 430  882.5605
 431  825.2398
 432  891.5065
 433  945.2012
 434  897.7872
 435  769.6279
 436  886.364
 437  883.0775
 438  836.3483
 439  805.9576
 440  834.2758
 441  872.0446
 442  925.1646
 443  1009.762
 444  990.7941
 445  926.2626
 446  899.0642
 447  858.5338
 448  917.8382
 449  983.0674
 450  890.7999
 451  885.9019
 452  892.6361
 453  875.5087
 454  786.9961
 455  918.2154
 456  958.5425
 457  1034.098
 458  1085.047
 459  930.3954
 460  915.2283
 461  916.9448
 462  934.2153
 463  945.043
 464  983.8006
 465  929.2527
 466  819.3469
 467  914.1757
 468  912.8516
 469  793.9805
 470  873.7703
 471  791.6497
 472  910.1105
 473  943.6059
 474  915.7102
 475  859.8544
 476  806.5173
 477  917.2427
 478  920.7926
 479  965.8123
 480  1043.152
 481  830.8311
 482  835.0953
 483  795.7338
 484  857.101
 485  810.6194
 486  861.8336
 487  865.4313
 488  946.8775
 489  953.9063
 490  933.0495
 491  894.2486
 492  900.718
 493  808.0813
 494  851.5988
 495  962.4193
 496  963.7905
 497  749.643
 498  836.5364
 499  893.9164
 500  828.6445
 501  906.0933
 502  828.3867
 503  819.1718
 504  887.0254
 505  882.6237
 506  961.6399
 507  1072.24
 508  958.8105
 509  1033.399
 510  1155.876
 511  1127.673
