# Input file       =  1196809110.124559_cleaned.dat
# Candidate        =  PSR_0332+5434
# Telescope        =  AR
# Epoch_topo       =  58095.957513015732
# Epoch_bary       =  N/A
# T_sample         =  0.002
# Data Folded      =  7340032
# Data Avg         =  0.0824093042444603
# Data StdDev      =  3.26974753084946 
# Profile Bins     =  512
# Profile Avg      =  1181.21683090298 
# Profile StdDev   =  391.49680005404  
# Reduced chi-sqr  =  0.706
# Prob(Noise)      <  1   (~0.0 sigma)
# P_topo (ms)      =  714.534171439896  +/- 0.000645
# P'_topo (s/s)    =  -0                +/- 3.4e-10
# P''_topo (s/s^2) =  0                 +/- 1.5e-13
# P_bary (ms)      =  N/A
# P'_bary (s/s)    =  N/A
# P''_bary (s/s^2) =  N/A
# P_orb (s)        =  N/A
# asin(i)/c (s)    =  N/A
# eccentricity     =  N/A
# w (rad)          =  N/A
# T_peri           =  N/A
######################################################
   0  1074.874
   1  1023.902
   2  906.567
   3  1088.875
   4  1162.74
   5  1097.291
   6  1287.931
   7  1302.393
   8  1219.945
   9  1445.9
  10  944.8949
  11  1268.315
  12  1140.369
  13  1148.645
  14  1292.714
  15  1267.092
  16  980.3224
  17  1062.191
  18  1167.863
  19  1151.127
  20  999.3357
  21  919.7597
  22  1298.248
  23  1203.227
  24  1054.309
  25  1076.476
  26  1036.302
  27  1114.369
  28  1153.382
  29  1236.963
  30  1245.431
  31  1357.344
  32  1363.885
  33  1043.726
  34  865.0427
  35  1065.751
  36  1097.724
  37  1050.122
  38  947.2495
  39  891.4905
  40  1065.444
  41  850.1691
  42  1210.891
  43  1135.794
  44  1085.296
  45  970.4971
  46  978.2564
  47  972.1218
  48  1075.554
  49  1448.548
  50  1402.688
  51  1192.193
  52  1329.722
  53  1312.734
  54  1170.636
  55  1118.73
  56  1143.212
  57  1085.396
  58  1201.751
  59  769.1112
  60  947.9788
  61  1105.73
  62  1130.968
  63  1218.28
  64  946.9229
  65  1183.7
  66  1044.239
  67  862.7535
  68  875.1769
  69  1175.701
  70  1239.749
  71  1374.354
  72  1296.026
  73  1240.933
  74  1166.294
  75  1052.82
  76  1535.733
  77  1578.028
  78  1355.698
  79  1243.706
  80  1389.484
  81  1088.075
  82  975.6263
  83  1061.648
  84  1181.16
  85  1196.774
  86  1150.531
  87  1206.062
  88  1326.447
  89  1155.002
  90  1135.58
  91  874.8979
  92  487.8687
  93  1025.499
  94  1007.953
  95  1469.923
  96  1442.492
  97  1069.892
  98  1297.311
  99  1282.606
 100  1247.094
 101  1327.688
 102  973.6391
 103  1085.669
 104  1060.508
 105  1224.292
 106  891.7736
 107  830.2201
 108  1101.587
 109  1387.51
 110  1324.194
 111  1326.103
 112  1225.607
 113  1179.897
 114  1313.415
 115  1002.67
 116  1091.776
 117  1148.168
 118  1419.169
 119  1389.844
 120  1184.305
 121  1159.791
 122  1267.146
 123  1152.479
 124  1024.949
 125  1192.627
 126  1145.093
 127  1156.652
 128  958.874
 129  1221.773
 130  1288.569
 131  1215.7
 132  1318.065
 133  1334.385
 134  1262.132
 135  1432.056
 136  1297.551
 137  1436.044
 138  1416.48
 139  1146.272
 140  1157.513
 141  1341.285
 142  1002.383
 143  1313.372
 144  1361.178
 145  1616.245
 146  1686.497
 147  1323.192
 148  1002.176
 149  984.7822
 150  1355.551
 151  1676.898
 152  1599.822
 153  1163.34
 154  997.2737
 155  1017.529
 156  1007.739
 157  1122.415
 158  1081.779
 159  1136.597
 160  1154.138
 161  930.0965
 162  763.2747
 163  947.5396
 164  1436.42
 165  1129.728
 166  1197.912
 167  1735.208
 168  1292.495
 169  1014.607
 170  1332.922
 171  1310.46
 172  1557.423
 173  1383.039
 174  806.8
 175  771.1028
 176  1135.047
 177  1311.618
 178  1315.83
 179  1279.036
 180  1267.763
 181  1300.411
 182  1177.515
 183  1308.428
 184  1362.307
 185  1503.178
 186  1465.679
 187  1293.061
 188  1140.037
 189  991.7143
 190  1144.237
 191  1184.853
 192  1296.456
 193  832.8714
 194  1017.474
 195  601.1161
 196  711.6757
 197  1079.479
 198  1146.81
 199  1332.058
 200  1259.977
 201  1285.711
 202  1274.129
 203  1631.041
 204  1282.151
 205  1240.262
 206  1059.897
 207  1246.838
 208  1331.158
 209  1223.292
 210  1392.749
 211  1128.719
 212  1353.084
 213  1374.556
 214  1187.092
 215  982.4085
 216  1150.679
 217  915.3654
 218  1398.676
 219  1292.11
 220  1335.295
 221  1027.458
 222  927.7205
 223  1315.159
 224  1466.779
 225  1249.174
 226  1359.027
 227  1375.594
 228  1314.399
 229  1389.491
 230  1439.964
 231  1288.704
 232  1184.635
 233  1357.631
 234  1339.554
 235  1147.443
 236  1426.2
 237  1827.697
 238  1671.768
 239  1690.964
 240  1570.095
 241  1330.195
 242  1293.732
 243  1132.251
 244  1087.91
 245  1225.314
 246  1383.196
 247  1485.242
 248  1363.596
 249  1278.873
 250  980.9128
 251  941.6895
 252  1279.743
 253  969.9325
 254  802.6281
 255  773.264
 256  866.7653
 257  976.2737
 258  1099.606
 259  942.6843
 260  1070.499
 261  924.4908
 262  881.2979
 263  1136.339
 264  1037.976
 265  1116.33
 266  964.5981
 267  1002.238
 268  913.049
 269  729.8394
 270  847.7004
 271  969.7153
 272  1094.945
 273  1202.002
 274  1047
 275  679.8699
 276  856.0629
 277  895.2021
 278  659.6915
 279  658.7405
 280  984.6298
 281  1120.668
 282  813.8833
 283  1101.407
 284  1192.177
 285  1307.198
 286  1257.33
 287  1252.672
 288  876.3591
 289  807.7817
 290  1338
 291  1207.079
 292  1112.991
 293  905.2468
 294  1157.791
 295  1004.677
 296  880.9784
 297  1061.201
 298  1288.116
 299  1391.032
 300  1265.094
 301  1347.57
 302  1591.442
 303  1022.123
 304  967.9644
 305  1146.226
 306  1222.806
 307  1042.948
 308  1221.032
 309  1374.96
 310  949.1356
 311  982.0068
 312  921.8927
 313  893.7036
 314  778.1503
 315  952.1319
 316  886.757
 317  983.2863
 318  954.0778
 319  1188.487
 320  1436.727
 321  1645.086
 322  1311.365
 323  1086.523
 324  803.5239
 325  713.0794
 326  1021.163
 327  1111.483
 328  743.1296
 329  993.3551
 330  1278.293
 331  1556.116
 332  1600.656
 333  1216.854
 334  1540.603
 335  1337.351
 336  937.3369
 337  1141.893
 338  1119.093
 339  956.0113
 340  1084.184
 341  1244.712
 342  1094.824
 343  1168.606
 344  983.4108
 345  965.1197
 346  989.3056
 347  976.7546
 348  871.3328
 349  763.879
 350  756.7391
 351  1123.24
 352  1369.902
 353  1270.505
 354  803.6996
 355  1170.124
 356  1481.639
 357  1560.355
 358  1402.413
 359  1547.53
 360  1105.322
 361  1026.663
 362  1030.054
 363  1127.71
 364  1420.651
 365  1529.914
 366  1273.557
 367  973.1309
 368  827.795
 369  748.9075
 370  810.2861
 371  951.0513
 372  788.5575
 373  990.0308
 374  991.0002
 375  981.0174
 376  1067.183
 377  947.2232
 378  807.5155
 379  1063.269
 380  1227.249
 381  1046.655
 382  1382.198
 383  1512.116
 384  1362.26
 385  1293.163
 386  1333.209
 387  1333.452
 388  1058.137
 389  1391.424
 390  1531.129
 391  1796.664
 392  1864.12
 393  1580.07
 394  1634.45
 395  1968.819
 396  2286.064
 397  2451.707
 398  2164.898
 399  1727.246
 400  1791.221
 401  1620.329
 402  1534.185
 403  1330.953
 404  1324.574
 405  1059.878
 406  1174.474
 407  1132.217
 408  1300.547
 409  1351.004
 410  1285.352
 411  1460.464
 412  1683.621
 413  1402.722
 414  1055.204
 415  1347.073
 416  1475.288
 417  1046.669
 418  1219.058
 419  1243.698
 420  1474.616
 421  1249.263
 422  1390.67
 423  1525.488
 424  1348.837
 425  950.8107
 426  910.4205
 427  1077.273
 428  1251.334
 429  1045.664
 430  934.2883
 431  1091.582
 432  1289.124
 433  1369.465
 434  1273.263
 435  1056.529
 436  1274.291
 437  994.7283
 438  904.9139
 439  1035.263
 440  1120.892
 441  1569.614
 442  1846.448
 443  1365.964
 444  1110.833
 445  1081.543
 446  988.2187
 447  926.0367
 448  1165.687
 449  1228.128
 450  965.8903
 451  1078.34
 452  927.2073
 453  1407.115
 454  1475.262
 455  1255.959
 456  1198.977
 457  950.824
 458  1063.353
 459  1031.234
 460  1185.441
 461  1142.656
 462  1399.557
 463  1200.006
 464  1093.445
 465  1115.368
 466  1071.123
 467  1070.615
 468  1029.66
 469  1168.474
 470  1103.198
 471  1301.826
 472  1396.382
 473  1241.898
 474  1269.033
 475  1097.173
 476  1305.935
 477  988.8674
 478  899.9133
 479  1339.795
 480  1438.796
 481  1164.635
 482  952.1328
 483  1098.479
 484  1229.115
 485  1296.751
 486  1399.304
 487  1269.35
 488  1208.157
 489  1299.977
 490  1303.079
 491  1204.222
 492  1499.985
 493  1248.086
 494  1417.535
 495  1117.68
 496  647.5162
 497  794.2795
 498  908.6935
 499  1346.574
 500  1291.032
 501  1160.562
 502  1232.522
 503  1178.85
 504  1084.093
 505  888.355
 506  872.4661
 507  1025.881
 508  1402.072
 509  1293.162
 510  1079.874
 511  969.0973
