# Input file       =  1196636713.121882_cleaned.dat
# Candidate        =  PSR_0332+5434
# Telescope        =  AR
# Epoch_topo       =  58093.962177336594
# Epoch_bary       =  N/A
# T_sample         =  0.002
# Data Folded      =  7340032
# Data Avg         =  0.0427093830730272
# Data StdDev      =  1.00013229689623 
# Profile Bins     =  512
# Profile Avg      =  612.119744261217 
# Profile StdDev   =  119.748876685856 
# Reduced chi-sqr  =  0.605
# Prob(Noise)      <  1   (~0.0 sigma)
# P_topo (ms)      =  714.532133539633  +/- 0.000153
# P'_topo (s/s)    =  -0                +/- 8.1e-11
# P''_topo (s/s^2) =  0                 +/- 3.57e-14
# P_bary (ms)      =  N/A
# P'_bary (s/s)    =  N/A
# P''_bary (s/s^2) =  N/A
# P_orb (s)        =  N/A
# asin(i)/c (s)    =  N/A
# eccentricity     =  N/A
# w (rad)          =  N/A
# T_peri           =  N/A
######################################################
   0  583.9177
   1  625.7557
   2  718.6369
   3  785.9294
   4  831.7286
   5  810.4045
   6  823.192
   7  824.5797
   8  754.6514
   9  676.3265
  10  673.1802
  11  702.9979
  12  700.4139
  13  635.9938
  14  627.1823
  15  671.0289
  16  711.9728
  17  780.8449
  18  673.709
  19  690.2598
  20  689.71
  21  698.0564
  22  622.5856
  23  577.6698
  24  680.579
  25  690.2126
  26  611.5562
  27  531.5994
  28  567.3279
  29  595.4838
  30  584.8641
  31  593.6797
  32  613.5618
  33  693.1044
  34  626.2864
  35  555.3405
  36  521.5925
  37  551.1055
  38  609.4788
  39  650.0283
  40  637.0181
  41  604.6036
  42  596.4594
  43  651.7991
  44  619.3893
  45  688.9564
  46  694.8049
  47  539.4954
  48  650.0587
  49  776.1459
  50  744.9369
  51  688.9736
  52  705.9817
  53  733.3012
  54  708.1417
  55  646.738
  56  610.046
  57  673.2856
  58  695.2261
  59  683.0829
  60  618.8951
  61  633.7245
  62  619.6799
  63  578.1244
  64  667.8666
  65  675.9675
  66  611.466
  67  668.7012
  68  599.1236
  69  567.7796
  70  519.7671
  71  490.7908
  72  541.8935
  73  485.2596
  74  519.0196
  75  596.1801
  76  580.6868
  77  507.5773
  78  450.376
  79  615.6219
  80  539.546
  81  529.913
  82  621.2206
  83  625.2067
  84  582.3589
  85  567.3263
  86  567.0812
  87  697.9824
  88  680.8917
  89  605.8973
  90  744.1091
  91  699.2719
  92  737.6748
  93  631.4514
  94  563.356
  95  538.2815
  96  564.0527
  97  732.4977
  98  685.319
  99  639.7121
 100  648.3497
 101  673.5273
 102  628.4872
 103  525.2787
 104  500.9653
 105  515.7614
 106  499.5121
 107  492.3802
 108  568.8472
 109  553.8315
 110  538.1801
 111  580.9624
 112  488.049
 113  502.782
 114  535.7808
 115  599.6141
 116  621.8269
 117  599.6812
 118  588.2921
 119  503.3785
 120  608.0032
 121  640.301
 122  664.0864
 123  658.0021
 124  598.5106
 125  543.7029
 126  580.2902
 127  505.6099
 128  525.3821
 129  637.0412
 130  705.5884
 131  633.236
 132  597.7806
 133  618.9341
 134  570.3237
 135  588.3301
 136  667.8185
 137  655.3065
 138  571.8332
 139  555.6418
 140  640.2986
 141  537.9582
 142  589.4489
 143  580.8837
 144  551.5252
 145  553.8963
 146  585.2412
 147  694.9924
 148  713.1667
 149  535.8828
 150  478.166
 151  570.778
 152  608.479
 153  607.2713
 154  605.2798
 155  690.5952
 156  618.6369
 157  575.3954
 158  549.6931
 159  547.2292
 160  517.9014
 161  590.3242
 162  626.2222
 163  680.2842
 164  642.5098
 165  671.2437
 166  626.0841
 167  582.14
 168  594.9061
 169  517.5959
 170  542.7933
 171  581.9825
 172  678.4408
 173  630.9088
 174  604.2635
 175  613.5556
 176  703.9091
 177  564.1845
 178  587.9215
 179  676.655
 180  548.33
 181  606.6385
 182  644.2178
 183  680.1415
 184  586.2195
 185  492.6813
 186  584.9725
 187  626.544
 188  629.0236
 189  619.1203
 190  595.7114
 191  566.6714
 192  559.9061
 193  577.9059
 194  769.3033
 195  751.5337
 196  570.1644
 197  575.796
 198  628.6588
 199  541.0739
 200  514.2581
 201  604.3505
 202  573.6044
 203  547.5345
 204  610.8204
 205  515.7949
 206  419.4206
 207  509.8549
 208  553.4735
 209  511.3437
 210  602.4504
 211  600.3741
 212  629.1548
 213  648.4077
 214  639.623
 215  563.6314
 216  614.7604
 217  614.5751
 218  608.5881
 219  668.8892
 220  705.5925
 221  678.0682
 222  670.4518
 223  731.7747
 224  619.6302
 225  604.2159
 226  646.3552
 227  578.7881
 228  598.9852
 229  639.4069
 230  727.9061
 231  757.4221
 232  638.5498
 233  594.8707
 234  629.5421
 235  599.6949
 236  675.264
 237  683.2243
 238  625.5521
 239  571.6354
 240  608.7568
 241  567.322
 242  532.394
 243  521.9069
 244  601.4021
 245  635.9109
 246  557.2554
 247  615.1199
 248  587.0413
 249  612.5972
 250  610.757
 251  605.188
 252  643.9244
 253  654.9229
 254  583.833
 255  577.6841
 256  540.222
 257  620.0494
 258  630.6912
 259  617.1448
 260  716.8879
 261  761.1283
 262  702.8623
 263  672.4479
 264  711.3733
 265  636.0204
 266  591.0131
 267  657.8664
 268  718.2711
 269  770.4065
 270  716.0558
 271  748.2909
 272  731.1658
 273  595.2742
 274  648.8231
 275  672.4968
 276  695.2482
 277  672.4761
 278  665.2527
 279  780.4252
 280  675.2416
 281  539.2513
 282  516.498
 283  486.4822
 284  600.6481
 285  550.0587
 286  596.2659
 287  643.5989
 288  730.907
 289  678.8984
 290  589.9678
 291  522.4697
 292  563.6729
 293  593.3548
 294  612.0276
 295  563.8711
 296  615.972
 297  627.3004
 298  601.5204
 299  616.3831
 300  547.7333
 301  671.2495
 302  697.4136
 303  658.6176
 304  604.1664
 305  642.2008
 306  568.2409
 307  511.4763
 308  568.4106
 309  583.8699
 310  534.2025
 311  579.7005
 312  577.982
 313  617.8773
 314  523.0225
 315  596.9653
 316  674.4346
 317  618.2476
 318  619.7869
 319  643.3927
 320  679.8782
 321  651.4392
 322  519.4707
 323  568.2979
 324  596.6132
 325  686.4728
 326  588.595
 327  705.6042
 328  646.1516
 329  600.9691
 330  597.5608
 331  692.4861
 332  638.9756
 333  654.9275
 334  599.6125
 335  615.8838
 336  696.0931
 337  611.8243
 338  533.3021
 339  449.3241
 340  493.1233
 341  644.436
 342  673.9493
 343  549.6538
 344  605.4843
 345  631.7986
 346  684.4799
 347  631.7753
 348  620.3933
 349  559.0355
 350  553.5151
 351  647.2485
 352  628.2728
 353  591.4807
 354  632.8082
 355  650.9556
 356  571.3938
 357  561.8443
 358  536.401
 359  456.9548
 360  546.0961
 361  646.2324
 362  611.4265
 363  622.415
 364  623.9929
 365  536.8259
 366  573.7465
 367  668.1069
 368  733.5059
 369  655.842
 370  629.5807
 371  571.7331
 372  530.736
 373  623.2265
 374  695.1304
 375  611.1815
 376  691.6902
 377  712.7549
 378  582.6182
 379  589.5185
 380  531.5489
 381  655.2176
 382  614.1514
 383  609.1552
 384  603.8975
 385  511.8735
 386  500.5631
 387  579.8621
 388  541.3748
 389  507.2491
 390  519.4919
 391  568.0989
 392  572.0491
 393  615.6735
 394  583.5631
 395  641.1024
 396  613.6221
 397  623.5366
 398  609.6674
 399  477.6996
 400  526.8959
 401  617.0487
 402  612.3216
 403  549.649
 404  591.6011
 405  583.8067
 406  620.5872
 407  583.9277
 408  674.3842
 409  643.6234
 410  576.6178
 411  595.4482
 412  607.8714
 413  567.3311
 414  560.5032
 415  584.6218
 416  585.6852
 417  658.6348
 418  595.0801
 419  519.9043
 420  681.8727
 421  573.9433
 422  463.3792
 423  600.4297
 424  641.8058
 425  705.6472
 426  653.4062
 427  522.7845
 428  630.8355
 429  621.3537
 430  546.8918
 431  574.9688
 432  547.1379
 433  574.7495
 434  650.7682
 435  642.5103
 436  763.6346
 437  728.9341
 438  553.2083
 439  640.3969
 440  614.8032
 441  586.9394
 442  634.8911
 443  639.7166
 444  689.4152
 445  600.9185
 446  685.4087
 447  685.5387
 448  640.2657
 449  654.8936
 450  596.7219
 451  585.5348
 452  576.668
 453  573.6055
 454  556.7443
 455  634.0729
 456  656.6719
 457  730.5323
 458  738.7122
 459  744.7546
 460  584.5644
 461  454.2942
 462  397.0747
 463  521.5856
 464  522.4597
 465  668.5976
 466  628.998
 467  650.1989
 468  616.1405
 469  644.6216
 470  632.9747
 471  562.817
 472  644.994
 473  627.0552
 474  595.2965
 475  638.0745
 476  608.1491
 477  699.8386
 478  540.7677
 479  598.5569
 480  619.1228
 481  648.6663
 482  631.9088
 483  567.5982
 484  617.9219
 485  536.6138
 486  564.0845
 487  602.2953
 488  599.855
 489  591.6744
 490  565.8066
 491  637.3816
 492  672.4927
 493  657.1519
 494  570.339
 495  520.809
 496  590.9587
 497  668.0406
 498  560.8944
 499  601.6564
 500  539.9281
 501  510.3394
 502  559.1392
 503  587.9886
 504  522.7199
 505  555.3097
 506  483.4273
 507  472.5841
 508  621.4937
 509  613.147
 510  509.877
 511  561.5474
