# Input file       =  1196034081.122101_cleaned.dat
# Candidate        =  PSR_0332+5434
# Telescope        =  AR
# Epoch_topo       =  58086.987269931727
# Epoch_bary       =  N/A
# T_sample         =  0.002
# Data Folded      =  7340032
# Data Avg         =  0.166019046160467
# Data StdDev      =  5.27265310478241 
# Profile Bins     =  512
# Profile Avg      =  2380.09325578611 
# Profile StdDev   =  631.310765996981 
# Reduced chi-sqr  =  0.705
# Prob(Noise)      <  1   (~0.0 sigma)
# P_topo (ms)      =  714.524981578251  +/- 5.31e-05
# P'_topo (s/s)    =  -0                +/- 2.8e-11
# P''_topo (s/s^2) =  0                 +/- 1.24e-14
# P_bary (ms)      =  N/A
# P'_bary (s/s)    =  N/A
# P''_bary (s/s^2) =  N/A
# P_orb (s)        =  N/A
# asin(i)/c (s)    =  N/A
# eccentricity     =  N/A
# w (rad)          =  N/A
# T_peri           =  N/A
######################################################
   0  2379.971
   1  1955.767
   2  1794.776
   3  2131.176
   4  2564.719
   5  2407.087
   6  2104.996
   7  2604.285
   8  2531.864
   9  2261.894
  10  2244.357
  11  2202.928
  12  1883.98
  13  1773.997
  14  2086.318
  15  2582.19
  16  2215.201
  17  1693.572
  18  1750.093
  19  1853.83
  20  1852.218
  21  1625.786
  22  1870.385
  23  1907.24
  24  2060.939
  25  2045.891
  26  1835.85
  27  2120.799
  28  2165.2
  29  2339.072
  30  2071.948
  31  2233.353
  32  2602.282
  33  2711.172
  34  2539.822
  35  2425.085
  36  2752.725
  37  2032.459
  38  1483.756
  39  1886.295
  40  2292.472
  41  2057.82
  42  1854.965
  43  2141.907
  44  1999.34
  45  1978.43
  46  2036.899
  47  2180.246
  48  1960.041
  49  1828.302
  50  2096.414
  51  2060.7
  52  1991.654
  53  2153.527
  54  2681.565
  55  2557.287
  56  1941.685
  57  2000.128
  58  2028.109
  59  1575.579
  60  1681.278
  61  2191
  62  2433.992
  63  2010.057
  64  2321.65
  65  2244.53
  66  2161.571
  67  2336.339
  68  2553.777
  69  2565.437
  70  2166.311
  71  2264.578
  72  2164.366
  73  1989.248
  74  1856.649
  75  2147.597
  76  1874.787
  77  2144.62
  78  2163.762
  79  2599.42
  80  1910.138
  81  1758.442
  82  2066.538
  83  2317.615
  84  2672.452
  85  2534.531
  86  2374.788
  87  2101.8
  88  2151.527
  89  2279.591
  90  2060.909
  91  2086.509
  92  1952.508
  93  2380.041
  94  2059.964
  95  1583.398
  96  2029.83
  97  2046.025
  98  1657.995
  99  1712.922
 100  2120.115
 101  2082.45
 102  1494.736
 103  2112.981
 104  2311.717
 105  2125.239
 106  1942.06
 107  1994.927
 108  2584.936
 109  2315.091
 110  2262.742
 111  2513.368
 112  2432.012
 113  2284.846
 114  2552.972
 115  2491.836
 116  2138.468
 117  1835.579
 118  2292.163
 119  2582.924
 120  2468.07
 121  2392.428
 122  2331.68
 123  2115.492
 124  2763.822
 125  2954.679
 126  2803.82
 127  2487.107
 128  1995.572
 129  2336.806
 130  2275.541
 131  2019.84
 132  2138.217
 133  2479.819
 134  2311.186
 135  2214.866
 136  2418.992
 137  2414.66
 138  2008.337
 139  2227.668
 140  2128.202
 141  2286.642
 142  2097.625
 143  2314.439
 144  2187.638
 145  1878.317
 146  2124.124
 147  2340.604
 148  2537.871
 149  2457.185
 150  2248.749
 151  2267.061
 152  2050.347
 153  2197.9
 154  2839.888
 155  3175.691
 156  3173.151
 157  2812.897
 158  2550.89
 159  2257.324
 160  2107.848
 161  2974.77
 162  2845.301
 163  2499.441
 164  1831.67
 165  1875.007
 166  1983.946
 167  2179.453
 168  2803.611
 169  2217.068
 170  1961.779
 171  2233.169
 172  2441.18
 173  2336.739
 174  2254.257
 175  2571.953
 176  2903.475
 177  2643.419
 178  2328.395
 179  2335.979
 180  2322.639
 181  2016.924
 182  2503.552
 183  3017.26
 184  3137.895
 185  2440.173
 186  2208.621
 187  2325.856
 188  1950.321
 189  2444.229
 190  2770.324
 191  2667.952
 192  2372.863
 193  2665.987
 194  2291.077
 195  2163.702
 196  2083.132
 197  2264.472
 198  2460.748
 199  2238.296
 200  2650.808
 201  2457.739
 202  1806.023
 203  2427.644
 204  2707.128
 205  2469.134
 206  2019.518
 207  1892.374
 208  2306.007
 209  2151.852
 210  2308.336
 211  2744.197
 212  2680.045
 213  2518.135
 214  2484.929
 215  2576.062
 216  2466.336
 217  2299.355
 218  2529.823
 219  2814.828
 220  2607.448
 221  2278.135
 222  2199.14
 223  1911.13
 224  1549.744
 225  2444.558
 226  2507.518
 227  2851.839
 228  2714.466
 229  2644.871
 230  3011.49
 231  2435.293
 232  2615.665
 233  2811.495
 234  3141.939
 235  3182.122
 236  2643.169
 237  2508.953
 238  2365.078
 239  2721.717
 240  2913.051
 241  2737.532
 242  2351.045
 243  2464.099
 244  2874.125
 245  3117.534
 246  2882.783
 247  2848.655
 248  2653.5
 249  2677.985
 250  2692.818
 251  2934.805
 252  2710.365
 253  2509.813
 254  2667.754
 255  2396.535
 256  2392.05
 257  2386.017
 258  2821.241
 259  2554.028
 260  2559.073
 261  2721.365
 262  2482.347
 263  2435.36
 264  2313.481
 265  2691.383
 266  2649.893
 267  2228.619
 268  2565.428
 269  2512.498
 270  2547.472
 271  2766.087
 272  3089.596
 273  3239.12
 274  2719.424
 275  2948.644
 276  3229.155
 277  3264.548
 278  3095.662
 279  3193.381
 280  3299.516
 281  2759.662
 282  2447.522
 283  2443.694
 284  2436.44
 285  2220.76
 286  2150.923
 287  2666.736
 288  2686.206
 289  2583.771
 290  2562.811
 291  2309.811
 292  2622.321
 293  2618.62
 294  2740.02
 295  2212.857
 296  2443.912
 297  2807.231
 298  2380.569
 299  2445.672
 300  2725.758
 301  2932.37
 302  2995.336
 303  2413.425
 304  2863.242
 305  2315.668
 306  2615.379
 307  2655.147
 308  3054.027
 309  3202.482
 310  3171.067
 311  3687.191
 312  3918.139
 313  3877.619
 314  3978.879
 315  4387.88
 316  3700.527
 317  3077.569
 318  2738.04
 319  2666.244
 320  2275.404
 321  2135.474
 322  2261.504
 323  2477.247
 324  2305.461
 325  2346.57
 326  2547.01
 327  2995.003
 328  2568.173
 329  2763.507
 330  2594.084
 331  2204.613
 332  2187.819
 333  2396.094
 334  2425.275
 335  2624.897
 336  2640.591
 337  2856.031
 338  2661.6
 339  2250.527
 340  2061.245
 341  1551.153
 342  1911.903
 343  2147.152
 344  2327.117
 345  1968.441
 346  1599.651
 347  2018.358
 348  2363.208
 349  2448.362
 350  2357.397
 351  3053.189
 352  3140.395
 353  2683.652
 354  2657.376
 355  2644.56
 356  2393.649
 357  2223.776
 358  2212.486
 359  2676.898
 360  2437.692
 361  2488.184
 362  2403.011
 363  2118.215
 364  2055.042
 365  2239.417
 366  2840.37
 367  2816.85
 368  3038.82
 369  2660.523
 370  2318.814
 371  2745.625
 372  2812.867
 373  2757.411
 374  2112.962
 375  1939.332
 376  2426.685
 377  2382.267
 378  2257.526
 379  2191.116
 380  2463.184
 381  2267.776
 382  1977.323
 383  1977.071
 384  2436.131
 385  2185.444
 386  1810.671
 387  2149.044
 388  2835.738
 389  2427.339
 390  2673.912
 391  2363.054
 392  2387.63
 393  2492.43
 394  2161.547
 395  2307.038
 396  2182.42
 397  2187.84
 398  1862.601
 399  1890.288
 400  2082.505
 401  2420.501
 402  2325.392
 403  2222.55
 404  2414.98
 405  2207.608
 406  2065.444
 407  2593.011
 408  3133.163
 409  3116.629
 410  2765.468
 411  2795.454
 412  2798.179
 413  2454.641
 414  2336.298
 415  2374.984
 416  2443.214
 417  2280.268
 418  1909.328
 419  2552.852
 420  2173.114
 421  2262.526
 422  2262.677
 423  2528.914
 424  2314.47
 425  2563.048
 426  2515.564
 427  2376.983
 428  2176.04
 429  2341.412
 430  2475.267
 431  2314.259
 432  1792.964
 433  1993.801
 434  2172.538
 435  2500.262
 436  2486.267
 437  2502.815
 438  2251.876
 439  2115.032
 440  2596.888
 441  2707.798
 442  2328.504
 443  2273.892
 444  2717.381
 445  2626.96
 446  2372.122
 447  2444.692
 448  2496.161
 449  2327.267
 450  2145.066
 451  2207.74
 452  2360.622
 453  2560.253
 454  2321.927
 455  2448.226
 456  2654.648
 457  2522.16
 458  2479.094
 459  2660.132
 460  2456.267
 461  2133.914
 462  2631.033
 463  2968.86
 464  2687.557
 465  2127.809
 466  2205.885
 467  2133.263
 468  1792.552
 469  2250.839
 470  2355.302
 471  2130.779
 472  1901.627
 473  1866.427
 474  2002.724
 475  1743.186
 476  2131.098
 477  1847.252
 478  1857.72
 479  1997.63
 480  2637.729
 481  2867.037
 482  2504.6
 483  2492.764
 484  2169.67
 485  1780.426
 486  2149.755
 487  2412.46
 488  2632.211
 489  2021.085
 490  2003.565
 491  2254.223
 492  2565.406
 493  2305.715
 494  1955.894
 495  2199.057
 496  2140.275
 497  1479.928
 498  1628.715
 499  1751.826
 500  2061.84
 501  2381.12
 502  2164.427
 503  2360.64
 504  1934.202
 505  2103.832
 506  1719.294
 507  2432.475
 508  2763.885
 509  2646.714
 510  2195.953
 511  2016.405
