# Input file       =  1196708008.118209_cleaned.dat
# Candidate        =  PSR_0332+5434
# Telescope        =  AR
# Epoch_topo       =  58094.787350905193
# Epoch_bary       =  N/A
# T_sample         =  0.002
# Data Folded      =  7340032
# Data Avg         =  0.225622708412369
# Data StdDev      =  3.96561187435124 
# Profile Bins     =  1024
# Profile Avg      =  1616.44424764956 
# Profile StdDev   =  335.74473010362  
# Reduced chi-sqr  =  0.565
# Prob(Noise)      <  1   (~0.0 sigma)
# P_topo (ms)      =  714.532643933181  +/- 0.000186
# P'_topo (s/s)    =  -0                +/- 9.82e-11
# P''_topo (s/s^2) =  0                 +/- 4.33e-14
# P_bary (ms)      =  N/A
# P'_bary (s/s)    =  N/A
# P''_bary (s/s^2) =  N/A
# P_orb (s)        =  N/A
# asin(i)/c (s)    =  N/A
# eccentricity     =  N/A
# w (rad)          =  N/A
# T_peri           =  N/A
######################################################
   0  1681.265
   1  1734.3
   2  1545.637
   3  1610.859
   4  1571.547
   5  1494.72
   6  1472.813
   7  1261.745
   8  1385.147
   9  1427.814
  10  1475.214
  11  1485.634
  12  1447.661
  13  1499.031
  14  1471.49
  15  1418.853
  16  1523.006
  17  1665.067
  18  1616.137
  19  1632.511
  20  1442.138
  21  1440.004
  22  1573.147
  23  1559.991
  24  1583.151
  25  1596.953
  26  1655.619
  27  1701.055
  28  1564.407
  29  1683.879
  30  1758.213
  31  1750.276
  32  1737.854
  33  1611.742
  34  1516.862
  35  1550.785
  36  1692.493
  37  1939.321
  38  1989.317
  39  1866.421
  40  1834.474
  41  1755.256
  42  1727.18
  43  1741.171
  44  1785.277
  45  1957.007
  46  1923.353
  47  1857.502
  48  1720.798
  49  1605.828
  50  1655.61
  51  1671.914
  52  1759.917
  53  1879.341
  54  1816.372
  55  1726.95
  56  1696.037
  57  1641.911
  58  1852.7
  59  1924.73
  60  1898.096
  61  1708.235
  62  1536.527
  63  1565.21
  64  1563.674
  65  1619.933
  66  1747.139
  67  1606.943
  68  1575.246
  69  1561.366
  70  1613.503
  71  1747.567
  72  1650.631
  73  1560.459
  74  1534.828
  75  1454.697
  76  1533.772
  77  1524.848
  78  1584.659
  79  1665.62
  80  1729.794
  81  1784.956
  82  1825.76
  83  1756.965
  84  1792.286
  85  1705.787
  86  1767.742
  87  1846.484
  88  1788.459
  89  1871.893
  90  1823.872
  91  1829.072
  92  1887.405
  93  1757.842
  94  1716.423
  95  1748.544
  96  1776.392
  97  1787.675
  98  1616.582
  99  1533.906
 100  1647.399
 101  1678.547
 102  1756.814
 103  1760.797
 104  1801.961
 105  1857.39
 106  1847.546
 107  1813.708
 108  1864.847
 109  1707.65
 110  1697.882
 111  1610.764
 112  1638.99
 113  1633.858
 114  1576.661
 115  1546.868
 116  1502.853
 117  1532.036
 118  1701.609
 119  1678.903
 120  1688.473
 121  1722.211
 122  1595
 123  1582.655
 124  1474.22
 125  1604.034
 126  1715.463
 127  1765.295
 128  1760.044
 129  1664.52
 130  1559.82
 131  1626.062
 132  1746.566
 133  1783.715
 134  1701.244
 135  1639.771
 136  1626.652
 137  1610.243
 138  1638.653
 139  1775.208
 140  1819.289
 141  1780.859
 142  1706.045
 143  1615.427
 144  1712.795
 145  1634.15
 146  1701.192
 147  1679.893
 148  1573.533
 149  1561.734
 150  1551.659
 151  1701.898
 152  1845.911
 153  1812.447
 154  1794.089
 155  1740.354
 156  1680.039
 157  1655.594
 158  1475.15
 159  1428.647
 160  1540.836
 161  1578.876
 162  1639.63
 163  1603.039
 164  1653.465
 165  1760.763
 166  1719.443
 167  1817.545
 168  1790.269
 169  1680.883
 170  1735.339
 171  1705.736
 172  1847.46
 173  1806.975
 174  1671.222
 175  1566.818
 176  1537.155
 177  1471.229
 178  1569.592
 179  1507.19
 180  1605.362
 181  1542.586
 182  1521.745
 183  1546.174
 184  1518.33
 185  1411.562
 186  1411.214
 187  1427.425
 188  1643.904
 189  1744.354
 190  1696.465
 191  1645.014
 192  1522.503
 193  1588.436
 194  1646.993
 195  1613.235
 196  1655.764
 197  1596.774
 198  1513.57
 199  1451.381
 200  1377.052
 201  1506.123
 202  1617.348
 203  1707.019
 204  1757.9
 205  1593.513
 206  1579.983
 207  1549.221
 208  1534.438
 209  1646.262
 210  1596.89
 211  1625.456
 212  1727.641
 213  1715.048
 214  1644.216
 215  1517.487
 216  1526.536
 217  1537.276
 218  1496.851
 219  1503.723
 220  1534.171
 221  1446.188
 222  1406.849
 223  1427.905
 224  1489.801
 225  1599.806
 226  1643.7
 227  1750.448
 228  1659.271
 229  1587.27
 230  1643.449
 231  1730.679
 232  1820.429
 233  1966.637
 234  1809.586
 235  1724.799
 236  1597.42
 237  1648.233
 238  1841.846
 239  1854.008
 240  1798.085
 241  1743.125
 242  1714.244
 243  1661.469
 244  1409.676
 245  1458.812
 246  1567.287
 247  1671.524
 248  1698.597
 249  1703.777
 250  1678.161
 251  1793.547
 252  1787.625
 253  1912.416
 254  1952.146
 255  1873.134
 256  1841.159
 257  1777.321
 258  1714.322
 259  1725.799
 260  1755.095
 261  1921.349
 262  1851.394
 263  1690.961
 264  1533.943
 265  1408.255
 266  1461.442
 267  1536.696
 268  1548.104
 269  1638.635
 270  1495.294
 271  1615.495
 272  1668.517
 273  1639.533
 274  1600.191
 275  1661.357
 276  1614.007
 277  1605.673
 278  1535.184
 279  1533.606
 280  1481.423
 281  1513.25
 282  1622.25
 283  1654.495
 284  1723.585
 285  1853.644
 286  1712.692
 287  1590.092
 288  1591.464
 289  1429.191
 290  1452.601
 291  1288.068
 292  1403.452
 293  1522.094
 294  1600.864
 295  1606.653
 296  1487.562
 297  1522.566
 298  1671.521
 299  1565.76
 300  1520.607
 301  1428.806
 302  1469.21
 303  1564.77
 304  1541.214
 305  1589.022
 306  1657.238
 307  1589.893
 308  1600.229
 309  1534.91
 310  1410.833
 311  1455.525
 312  1480.506
 313  1780.769
 314  1759.626
 315  1483.508
 316  1402.631
 317  1419.215
 318  1580.551
 319  1598.952
 320  1716.043
 321  1697.877
 322  1619.568
 323  1537.749
 324  1726.361
 325  1762.964
 326  1813.588
 327  1725.395
 328  1593.793
 329  1665.508
 330  1686.864
 331  1773.38
 332  1808.407
 333  1893.421
 334  1868.97
 335  1714.42
 336  1654.971
 337  1828.21
 338  1866.318
 339  1919.208
 340  1948.796
 341  1966.387
 342  1872.827
 343  1706.35
 344  1631.773
 345  1736.38
 346  1727.763
 347  1741.081
 348  1661.54
 349  1496.48
 350  1462.733
 351  1393.759
 352  1546.81
 353  1634.122
 354  1611.867
 355  1617.157
 356  1502.664
 357  1679.577
 358  1734.12
 359  1664.402
 360  1617.074
 361  1648.881
 362  1692.408
 363  1677.05
 364  1583.646
 365  1611.151
 366  1718.702
 367  1678.394
 368  1756.52
 369  1739.534
 370  1621.329
 371  1623.899
 372  1542.793
 373  1723.444
 374  1657.156
 375  1669.705
 376  1837.968
 377  1789.172
 378  1697.699
 379  1596.253
 380  1530.968
 381  1550.255
 382  1496.38
 383  1601.701
 384  1637.388
 385  1554.758
 386  1553.621
 387  1465.687
 388  1544.197
 389  1565.924
 390  1570.968
 391  1587.109
 392  1549.381
 393  1478.083
 394  1447.949
 395  1625.946
 396  1773.28
 397  1920.096
 398  1827.038
 399  1790.741
 400  1623.914
 401  1548.239
 402  1514.203
 403  1547.695
 404  1739.931
 405  1702.985
 406  1488.143
 407  1395.545
 408  1447.6
 409  1476.153
 410  1573.183
 411  1605.725
 412  1730.075
 413  1677.262
 414  1606.343
 415  1629.618
 416  1552.738
 417  1538.934
 418  1485.961
 419  1431.692
 420  1480.629
 421  1428.846
 422  1412.829
 423  1486.492
 424  1462.737
 425  1565.855
 426  1597.437
 427  1615.481
 428  1782.784
 429  1795.454
 430  1806.937
 431  1749.094
 432  1624.291
 433  1625.439
 434  1538.393
 435  1475.964
 436  1511.968
 437  1548.985
 438  1598.566
 439  1663.414
 440  1620.698
 441  1712.523
 442  1635.275
 443  1733.13
 444  1863.406
 445  1828.928
 446  1765.28
 447  1686.494
 448  1650.961
 449  1673.497
 450  1636.094
 451  1780.606
 452  1830.021
 453  1680.673
 454  1670.575
 455  1698.18
 456  1718.745
 457  1749.78
 458  1603.369
 459  1577.745
 460  1549.679
 461  1613.122
 462  1689.388
 463  1612.973
 464  1577.634
 465  1488.643
 466  1460.727
 467  1477.04
 468  1552.214
 469  1599.747
 470  1766.304
 471  1727.969
 472  1791.722
 473  1854.371
 474  1813.422
 475  1808.51
 476  1806.838
 477  1807.089
 478  1774.001
 479  1668.433
 480  1716.687
 481  1696.658
 482  1737.321
 483  1648.555
 484  1533.537
 485  1559.006
 486  1602.344
 487  1471.383
 488  1460.581
 489  1461.367
 490  1511.238
 491  1506.39
 492  1459.203
 493  1543.326
 494  1564.018
 495  1666.726
 496  1755.64
 497  1690.707
 498  1741.823
 499  1733.778
 500  1778.451
 501  1760.65
 502  1661.314
 503  1664.346
 504  1597.288
 505  1511.694
 506  1481.148
 507  1484.883
 508  1493.108
 509  1482.788
 510  1409.334
 511  1523.492
 512  1630.692
 513  1650.193
 514  1779.08
 515  1753.22
 516  1782.246
 517  1670.291
 518  1594.791
 519  1678.387
 520  1575.714
 521  1489.039
 522  1549.123
 523  1497.682
 524  1531.693
 525  1651.303
 526  1741.416
 527  1859.346
 528  1781.39
 529  1732.628
 530  1682.598
 531  1563.476
 532  1531.411
 533  1555.036
 534  1580.683
 535  1721.647
 536  1663.148
 537  1586.932
 538  1554.243
 539  1529.629
 540  1742.324
 541  1716.648
 542  1564.11
 543  1495.659
 544  1413.495
 545  1453.449
 546  1412.501
 547  1302.101
 548  1295.105
 549  1233.4
 550  1292.439
 551  1374.843
 552  1386.252
 553  1451.044
 554  1382.949
 555  1335.257
 556  1373.242
 557  1294.467
 558  1409.368
 559  1434.119
 560  1406.943
 561  1466.193
 562  1446.611
 563  1358.019
 564  1341.221
 565  1412.334
 566  1546.578
 567  1453.082
 568  1403.825
 569  1569.57
 570  1614.196
 571  1551.141
 572  1399.732
 573  1464.456
 574  1558.535
 575  1598.458
 576  1582.226
 577  1676.705
 578  1503.677
 579  1519.217
 580  1463.399
 581  1495.464
 582  1597.962
 583  1613.864
 584  1724.43
 585  1717.041
 586  1693.455
 587  1786.72
 588  1760.223
 589  1817.296
 590  1823.917
 591  1833.017
 592  1781.784
 593  1616.544
 594  1554.205
 595  1521.752
 596  1459.571
 597  1523.078
 598  1655.843
 599  1673.688
 600  1732.492
 601  1633.849
 602  1621.608
 603  1536.544
 604  1557.382
 605  1663.292
 606  1662.207
 607  1626.72
 608  1634.294
 609  1670.942
 610  1666.18
 611  1568.835
 612  1422.602
 613  1581.152
 614  1699.46
 615  1782.572
 616  1856.838
 617  1736.958
 618  1787.919
 619  1686.893
 620  1744.123
 621  1893.75
 622  1887.969
 623  2035.67
 624  2088.397
 625  2090.477
 626  2066.617
 627  2027.028
 628  2115.878
 629  2100.213
 630  1991.557
 631  1921.818
 632  1673.879
 633  1544.924
 634  1604.834
 635  1600.236
 636  1577.989
 637  1455.402
 638  1481.589
 639  1532.254
 640  1468.936
 641  1447.723
 642  1463.823
 643  1457.352
 644  1502.019
 645  1495.428
 646  1516.666
 647  1618.988
 648  1535.069
 649  1605.764
 650  1729.585
 651  1693.515
 652  1601.965
 653  1456.877
 654  1553.255
 655  1621.111
 656  1628.462
 657  1570.698
 658  1519.409
 659  1392.329
 660  1447.714
 661  1481.073
 662  1548.544
 663  1620.558
 664  1557.049
 665  1697.486
 666  1650.647
 667  1596.525
 668  1659.568
 669  1693.287
 670  1867.674
 671  1850.819
 672  1803.586
 673  1793.42
 674  1648.606
 675  1630.578
 676  1685.975
 677  1686.094
 678  1807.557
 679  1782.775
 680  1774.683
 681  1779.72
 682  1692.285
 683  1731.4
 684  1751.832
 685  1650.858
 686  1574.67
 687  1555.505
 688  1673.114
 689  1638.02
 690  1486.493
 691  1626.377
 692  1760.55
 693  1729.76
 694  1675.918
 695  1622.571
 696  1768.781
 697  1773.131
 698  1759.758
 699  1772.121
 700  1622.928
 701  1489.867
 702  1451.785
 703  1502.77
 704  1554.724
 705  1478.959
 706  1402.208
 707  1415.53
 708  1361.385
 709  1364.616
 710  1373.027
 711  1393.94
 712  1460.672
 713  1579.316
 714  1593.657
 715  1652.777
 716  1404.512
 717  1348.763
 718  1253.707
 719  1366.076
 720  1599.821
 721  1584.357
 722  1626.58
 723  1648.742
 724  1670.196
 725  1730.556
 726  1707.829
 727  1647.01
 728  1604.409
 729  1578.15
 730  1642.712
 731  1666.468
 732  1767.598
 733  1790.434
 734  1561.801
 735  1490.664
 736  1458.092
 737  1475.158
 738  1510.713
 739  1543.439
 740  1515.198
 741  1500.328
 742  1476.016
 743  1501.096
 744  1547.411
 745  1499.311
 746  1550.618
 747  1459.855
 748  1399.473
 749  1359.02
 750  1445.981
 751  1437.6
 752  1468.854
 753  1462.697
 754  1677.618
 755  1639.058
 756  1829.899
 757  1801.814
 758  1784.128
 759  1706.152
 760  1540.185
 761  1530.511
 762  1548.633
 763  1515.478
 764  1483.852
 765  1534.36
 766  1591.157
 767  1713.601
 768  1642.249
 769  1686.677
 770  1656.004
 771  1632.051
 772  1697.211
 773  1539.821
 774  1484.734
 775  1595.406
 776  1683.797
 777  1719.504
 778  1531.617
 779  1546.218
 780  1672.516
 781  1619.207
 782  1656.143
 783  1640.383
 784  1737.122
 785  1753.763
 786  1569.795
 787  1573.611
 788  1581.847
 789  1550.107
 790  1436.162
 791  1354.641
 792  1383.682
 793  1384.076
 794  1264.305
 795  1347.334
 796  1482.665
 797  1540.372
 798  1720.102
 799  1709.955
 800  1717.3
 801  1669.061
 802  1609.565
 803  1624.355
 804  1471.323
 805  1491.642
 806  1580.114
 807  1536.062
 808  1458.252
 809  1426.704
 810  1501.31
 811  1649.776
 812  1592.772
 813  1652.568
 814  1667.188
 815  1681.598
 816  1602.769
 817  1635.25
 818  1593.404
 819  1727.855
 820  1691.347
 821  1617.186
 822  1515.028
 823  1416.589
 824  1509.881
 825  1541.591
 826  1598.019
 827  1612.249
 828  1573.056
 829  1593.276
 830  1687.493
 831  1640.615
 832  1715.537
 833  1490.737
 834  1341.352
 835  1207.291
 836  1195.145
 837  1291.186
 838  1311.806
 839  1348.389
 840  1536.831
 841  1454.472
 842  1530.229
 843  1499.88
 844  1526.337
 845  1570.672
 846  1478.626
 847  1464.927
 848  1388.234
 849  1329.436
 850  1389.15
 851  1443.61
 852  1569.334
 853  1685.637
 854  1687.514
 855  1734.843
 856  1821.27
 857  1872.405
 858  1879.339
 859  1580.671
 860  1310.704
 861  1357.493
 862  1370.471
 863  1595.774
 864  1530.814
 865  1494.465
 866  1433.992
 867  1370.597
 868  1422.877
 869  1425.755
 870  1351.836
 871  1498.418
 872  1498.621
 873  1565.58
 874  1476.382
 875  1411.151
 876  1453.769
 877  1620.353
 878  1607.341
 879  1638.334
 880  1433.795
 881  1542.322
 882  1592.287
 883  1587.369
 884  1640.767
 885  1690.433
 886  1653.153
 887  1815.04
 888  1874.198
 889  1873.906
 890  1709.442
 891  1670.755
 892  1720.209
 893  1634.373
 894  1577.917
 895  1567.008
 896  1533.875
 897  1664.29
 898  1658.338
 899  1571.355
 900  1600.324
 901  1593.924
 902  1614.335
 903  1576.083
 904  1508.962
 905  1555.662
 906  1558.206
 907  1628.093
 908  1711.612
 909  1669.775
 910  1654.281
 911  1631.42
 912  1661.6
 913  1803.551
 914  1671.435
 915  1702.016
 916  1672.74
 917  1709.805
 918  1644.033
 919  1508.58
 920  1463.745
 921  1458.036
 922  1440.967
 923  1453.985
 924  1451.604
 925  1430.232
 926  1663.669
 927  1636.841
 928  1816.681
 929  1710.912
 930  1690.957
 931  1696.687
 932  1631.307
 933  1804.767
 934  1788.195
 935  1671.669
 936  1538.176
 937  1474.814
 938  1530.154
 939  1580.136
 940  1546.698
 941  1567.803
 942  1543.609
 943  1561.283
 944  1626.917
 945  1584.485
 946  1573.693
 947  1704.214
 948  1694.697
 949  1663.199
 950  1599.275
 951  1562.675
 952  1714.102
 953  1464.88
 954  1552.391
 955  1617.623
 956  1639.148
 957  1551.844
 958  1362.578
 959  1467.139
 960  1554.457
 961  1639.352
 962  1667.489
 963  1693.908
 964  1556.79
 965  1532.44
 966  1327.961
 967  1388.487
 968  1315.351
 969  1214.277
 970  1291.438
 971  1372.995
 972  1502.827
 973  1595.193
 974  1660.359
 975  1769.717
 976  1633.725
 977  1651.253
 978  1631.455
 979  1605.222
 980  1518.286
 981  1440.488
 982  1343.569
 983  1442.062
 984  1491.181
 985  1565.993
 986  1574.388
 987  1534.372
 988  1644.884
 989  1709.159
 990  1726.33
 991  1773.518
 992  1649.177
 993  1681.667
 994  1654.438
 995  1674.83
 996  1673.023
 997  1642.689
 998  1721.654
 999  1693.433
1000  1444.028
1001  1480.278
1002  1482.107
1003  1607.152
1004  1692.734
1005  1670.97
1006  1706.502
1007  1689.492
1008  1735.185
1009  1755.424
1010  1709.657
1011  1683.792
1012  1667.307
1013  1460.575
1014  1491.266
1015  1500.349
1016  1661.597
1017  1691.66
1018  1716.008
1019  1676.777
1020  1727.337
1021  1595.561
1022  1651.447
1023  1695.171
