# Input file       =  1196450039.108316_cleaned.dat
# Candidate        =  PSR_0332+5434
# Telescope        =  AR
# Epoch_topo       =  58091.801598475882
# Epoch_bary       =  N/A
# T_sample         =  0.002
# Data Folded      =  7340032
# Data Avg         =  0.682481033340862
# Data StdDev      =  5.9030110552512  
# Profile Bins     =  512
# Profile Avg      =  9784.16131091436 
# Profile StdDev   =  706.785437410845 
# Reduced chi-sqr  =  0.793
# Prob(Noise)      <  1   (~0.0 sigma)
# P_topo (ms)      =  714.529597291275  +/- 2.34e-05
# P'_topo (s/s)    =  -0                +/- 1.24e-11
# P''_topo (s/s^2) =  0                 +/- 5.45e-15
# P_bary (ms)      =  N/A
# P'_bary (s/s)    =  N/A
# P''_bary (s/s^2) =  N/A
# P_orb (s)        =  N/A
# asin(i)/c (s)    =  N/A
# eccentricity     =  N/A
# w (rad)          =  N/A
# T_peri           =  N/A
######################################################
   0  9800.902
   1  9485.779
   2  9923.929
   3  10372.92
   4  10336.16
   5  9926.9
   6  9848.966
   7  9481.538
   8  8945.653
   9  9432.093
  10  10050.98
  11  10277.11
  12  9865.96
  13  9542.164
  14  10065.4
  15  10223.62
  16  9310.081
  17  9601.179
  18  10029.1
  19  9696.133
  20  9595.221
  21  10189.06
  22  10054.32
  23  9197.969
  24  9415.088
  25  10677.98
  26  10729.9
  27  10194.5
  28  10630.24
  29  10505.71
  30  10026.77
  31  10191.32
  32  10468.77
  33  10145.65
  34  10122.95
  35  10601.13
  36  9965.243
  37  9348.672
  38  9867.087
  39  10825.48
  40  10076.38
  41  9465.125
  42  9588.893
  43  9495.819
  44  9095.311
  45  9497.407
  46  9624.872
  47  9747.331
  48  9363.782
  49  9692.506
  50  10204.13
  51  9625.868
  52  9590.105
  53  9965.889
  54  10539.69
  55  10136.23
  56  10360.5
  57  10341.33
  58  10226.4
  59  9893.726
  60  10000.35
  61  10186.49
  62  10061.37
  63  10068
  64  10625.85
  65  9559.995
  66  8786.331
  67  9032.441
  68  9901.683
  69  9693.773
  70  9277.635
  71  10109.67
  72  9831.005
  73  8913.043
  74  9232.268
  75  9528.197
  76  9744.7
  77  9606.637
  78  9896.146
  79  9661.699
  80  8936.222
  81  9356.87
  82  9951.468
  83  9430.039
  84  8984.339
  85  9079.921
  86  9618.417
  87  9752.959
  88  9813.52
  89  9847.229
  90  9453.965
  91  9290.049
  92  9810.474
  93  10228.95
  94  9839.644
  95  9456.859
  96  9965.972
  97  9788.242
  98  9482.47
  99  9768.973
 100  10287.75
 101  10385.96
 102  10370.49
 103  10572.79
 104  10377.13
 105  10197.34
 106  10179.89
 107  10592.12
 108  10112.74
 109  9829.088
 110  10243.53
 111  10469.66
 112  10118.71
 113  9568.547
 114  10083.74
 115  10279.3
 116  9989.88
 117  9846.188
 118  9647.442
 119  9553.38
 120  9196.688
 121  9760.675
 122  9207.608
 123  9541.776
 124  9731.56
 125  10361.43
 126  10145.11
 127  9960.906
 128  10140.97
 129  10048.46
 130  9831.51
 131  10333.02
 132  10582.38
 133  10084.62
 134  9798.959
 135  10027.52
 136  10207.17
 137  9446.189
 138  9464.336
 139  10261.25
 140  10766.85
 141  10043.64
 142  9638.004
 143  9953.511
 144  10026
 145  10096.32
 146  10589.47
 147  10197.38
 148  9700.501
 149  9431.463
 150  10465.91
 151  10271.18
 152  9576.176
 153  9740.039
 154  10138.91
 155  10104.13
 156  10144.16
 157  10021.5
 158  9548.698
 159  9156.313
 160  9884.497
 161  9813.876
 162  9928.487
 163  9817.926
 164  10207.06
 165  9544.339
 166  9120.351
 167  9498.54
 168  9904.121
 169  9566.588
 170  9297.769
 171  9763.918
 172  10057.18
 173  9654.492
 174  9774.073
 175  9736.107
 176  9864.823
 177  9759.941
 178  9846.388
 179  9834.196
 180  9176.757
 181  8835.205
 182  9807.236
 183  10451.92
 184  10019.71
 185  9762.303
 186  10190.08
 187  10450.94
 188  9961.361
 189  10043.75
 190  9971.749
 191  10215.79
 192  10048.91
 193  10406.53
 194  9651.493
 195  8855.465
 196  9130.304
 197  10169.59
 198  9512.419
 199  9299.115
 200  9864.467
 201  9890.798
 202  9493.792
 203  9344.819
 204  9706.852
 205  9570.383
 206  9897.339
 207  10704.04
 208  10509.83
 209  9021.077
 210  8612.206
 211  10041.21
 212  10128.84
 213  9904.611
 214  10054.84
 215  9945.211
 216  9445.634
 217  9368.231
 218  10153.79
 219  10173.61
 220  9780.943
 221  9812.065
 222  10045.26
 223  9623.927
 224  9571.462
 225  10346.68
 226  10266.68
 227  9507.758
 228  9094.779
 229  9597.751
 230  9182.343
 231  8841.293
 232  9895.466
 233  9976.638
 234  9606.524
 235  9402.924
 236  9770.047
 237  9196.294
 238  9025.585
 239  9721.625
 240  10326.86
 241  10233.32
 242  10179.17
 243  10488
 244  10116.75
 245  9453.508
 246  9342.449
 247  9451.417
 248  9732.696
 249  9649.225
 250  10297.41
 251  9681.289
 252  9193.302
 253  9090.407
 254  9801.302
 255  9405.769
 256  9545.666
 257  9797.903
 258  9889.409
 259  9576.238
 260  9547.357
 261  9538.326
 262  9644.227
 263  9508.012
 264  10114.79
 265  10303.69
 266  9559.702
 267  9127.467
 268  9703.315
 269  9562.523
 270  9323.954
 271  9515.58
 272  9523.427
 273  9502.146
 274  9241.421
 275  9811.146
 276  10124.6
 277  9919.044
 278  10341.79
 279  10376.51
 280  9516.776
 281  9072.481
 282  9679.066
 283  10410.7
 284  9842.373
 285  9619.127
 286  10268.19
 287  10173.92
 288  9638.283
 289  9542.175
 290  9515.974
 291  9727.303
 292  9978.911
 293  10291.09
 294  9906.066
 295  9527.561
 296  8927.307
 297  9535.028
 298  9716.195
 299  10003.82
 300  10114.89
 301  9932.79
 302  9705.835
 303  9843.264
 304  10322.57
 305  9515.902
 306  9777.172
 307  10254.89
 308  10162.18
 309  9391.996
 310  9226.01
 311  10353.58
 312  10116.29
 313  9763.771
 314  9582.673
 315  9664.214
 316  9422.569
 317  9688.667
 318  9787.822
 319  9146.688
 320  9043.497
 321  9539.089
 322  10368.74
 323  9462.954
 324  8973.318
 325  9341.908
 326  9198.838
 327  9480.886
 328  9655.834
 329  9613.333
 330  9502.523
 331  9103.306
 332  9560.788
 333  9622.521
 334  9591.974
 335  9745.728
 336  10759.23
 337  10398.04
 338  9665.962
 339  9649.479
 340  10373.63
 341  9995.351
 342  10000.39
 343  10038.63
 344  9984.138
 345  9483.148
 346  9960.994
 347  10760.72
 348  10210.47
 349  9358.247
 350  9544.131
 351  9941.9
 352  9392.38
 353  9115.635
 354  9696.355
 355  10184.04
 356  9920.667
 357  10235.22
 358  10058.25
 359  9482.689
 360  9323.873
 361  9641.355
 362  9261.294
 363  8977.85
 364  9173.35
 365  9518.582
 366  8987.531
 367  8559.214
 368  9111.233
 369  9270.648
 370  8604.219
 371  8586.723
 372  9170.772
 373  9523.628
 374  10120.39
 375  10678.41
 376  10354.16
 377  9502.283
 378  9393.615
 379  10265.1
 380  10257.44
 381  9554.107
 382  9210.073
 383  10081.72
 384  9913.913
 385  9548.307
 386  9733.662
 387  9708.964
 388  9114.825
 389  8790.071
 390  9455.281
 391  9071.787
 392  9655.698
 393  10131.73
 394  10323.39
 395  9935.864
 396  9378.262
 397  10092.66
 398  9752.341
 399  9526.992
 400  10184.4
 401  9900.184
 402  9577.523
 403  9536.417
 404  10133.14
 405  9626.932
 406  9288.898
 407  9529.654
 408  10394.64
 409  9545.09
 410  9221.074
 411  9709.73
 412  9785.604
 413  9060.799
 414  8809.316
 415  9105.532
 416  9189.292
 417  8796.246
 418  9620.685
 419  9919.901
 420  9396.9
 421  9254.841
 422  10039.25
 423  10015.49
 424  9143.708
 425  8949.084
 426  9199.005
 427  9262.439
 428  9157.864
 429  9441.379
 430  9846.678
 431  9942.573
 432  9865.259
 433  9597.181
 434  8922.166
 435  9012.201
 436  9701.022
 437  10161.03
 438  9742.931
 439  9311.108
 440  9510.126
 441  9438.265
 442  9264.276
 443  9708.797
 444  9591.337
 445  9530.439
 446  9503.981
 447  9779.639
 448  9684.68
 449  9671.338
 450  9889.477
 451  10295.25
 452  9610.842
 453  9266.064
 454  9505.794
 455  10000.49
 456  9090.982
 457  9580.869
 458  10049.23
 459  10001.36
 460  9276.411
 461  9275.246
 462  9144.794
 463  9159.036
 464  10123.83
 465  10821.9
 466  10284.03
 467  10094.08
 468  10547.38
 469  11501.27
 470  11258.92
 471  10957.44
 472  11326
 473  10832.25
 474  10102.23
 475  10345.71
 476  10325
 477  9783.638
 478  9350.389
 479  10466.26
 480  10251.68
 481  9849.07
 482  9874.01
 483  10128.6
 484  9844.656
 485  9440.591
 486  10223.37
 487  10585.68
 488  10103.44
 489  9886.81
 490  10284.95
 491  10090.04
 492  9597.085
 493  9702.021
 494  10019.73
 495  9590.447
 496  9473.521
 497  10003.37
 498  10062.64
 499  9538.352
 500  9862.484
 501  9962.69
 502  9696.389
 503  9516.461
 504  10001.37
 505  10373.99
 506  10139.83
 507  9986.764
 508  10741.26
 509  10655.14
 510  9662.948
 511  9555.826
