# Input file       =  1196865738.117129_cleaned.dat
# Candidate        =  PSR_0332+5434
# Telescope        =  AR
# Epoch_topo       =  58096.612929596398
# Epoch_bary       =  N/A
# T_sample         =  0.002
# Data Folded      =  7143424
# Data Avg         =  0.0498928123322494
# Data StdDev      =  1.00024947073633 
# Profile Bins     =  512
# Profile Avg      =  696.144186177536 
# Profile StdDev   =  118.148051612112 
# Reduced chi-sqr  =  0.865
# Prob(Noise)      <  0.987   (~0.0 sigma)
# P_topo (ms)      =  714.534491905783  +/- 0.000103
# P'_topo (s/s)    =  -0                +/- 5.61e-11
# P''_topo (s/s^2) =  0                 +/- 2.55e-14
# P_bary (ms)      =  N/A
# P'_bary (s/s)    =  N/A
# P''_bary (s/s^2) =  N/A
# P_orb (s)        =  N/A
# asin(i)/c (s)    =  N/A
# eccentricity     =  N/A
# w (rad)          =  N/A
# T_peri           =  N/A
######################################################
   0  986.1548
   1  994.697
   2  862.1968
   3  673.965
   4  586.3642
   5  639.116
   6  705.1979
   7  668.731
   8  635.9214
   9  645.0596
  10  654.5988
  11  814.2685
  12  729.4554
  13  759.9952
  14  736.082
  15  713.1912
  16  633.6975
  17  624.421
  18  643.1422
  19  613.5491
  20  606.2651
  21  661.3057
  22  688.871
  23  736.1628
  24  690.7635
  25  656.6518
  26  715.6144
  27  659.54
  28  622.8331
  29  659.1111
  30  740.3034
  31  684.6669
  32  615.4221
  33  688.8176
  34  796.7852
  35  752.0974
  36  663.1715
  37  767.4697
  38  816.249
  39  724.7598
  40  707.5658
  41  693.9094
  42  722.8206
  43  714.7699
  44  663.387
  45  698.9284
  46  715.8287
  47  704.1853
  48  773.0961
  49  668.2408
  50  624.3694
  51  641.1513
  52  691.6251
  53  803.0272
  54  644.6954
  55  539.9251
  56  628.9219
  57  650.3234
  58  567.2708
  59  570.7484
  60  639.3985
  61  595.9521
  62  712.9977
  63  763.8977
  64  845.4889
  65  770.1754
  66  630.1496
  67  573.2483
  68  650.8978
  69  680.6231
  70  697.5041
  71  818.539
  72  694.7535
  73  670.2784
  74  630.3179
  75  726.9368
  76  622.7437
  77  600.4092
  78  762.9413
  79  755.0361
  80  762.442
  81  625.7972
  82  666.3051
  83  815.4031
  84  799.1242
  85  736.4012
  86  777.2016
  87  785.4152
  88  640.2872
  89  632.8064
  90  663.737
  91  766.0753
  92  594.4017
  93  523.6111
  94  605.1005
  95  723.2222
  96  647.3558
  97  640.0958
  98  710.3549
  99  682.6607
 100  568.5111
 101  682.823
 102  733.4386
 103  608.0258
 104  520.8315
 105  645.7234
 106  700.2097
 107  711.4594
 108  631.4813
 109  640.1368
 110  686.5417
 111  678.0483
 112  753.8243
 113  836.5663
 114  763.335
 115  676.4545
 116  620.1949
 117  730.1053
 118  731.0746
 119  703.312
 120  704.6566
 121  627.7803
 122  712.4102
 123  773.236
 124  712.6534
 125  663.2886
 126  599.4888
 127  574.9243
 128  616.927
 129  658.9217
 130  704.8089
 131  709.5841
 132  739.8373
 133  689.4899
 134  634.5021
 135  672.3909
 136  683.0977
 137  666.4761
 138  770.7756
 139  713.8414
 140  609.8387
 141  684.9059
 142  636.2085
 143  758.2997
 144  807.7335
 145  722.032
 146  654.5632
 147  692.6713
 148  743.5056
 149  753.8116
 150  659.2373
 151  629.2079
 152  634.2745
 153  557.1094
 154  666.9054
 155  748.8094
 156  698.6405
 157  671.0402
 158  747.0137
 159  690.4623
 160  697.7927
 161  780.7375
 162  739.5513
 163  638.7494
 164  608.9918
 165  646.5381
 166  646.6443
 167  586.3348
 168  693.1232
 169  703.3103
 170  830.2393
 171  782.1099
 172  655.189
 173  675.9399
 174  656.2096
 175  643.4999
 176  707.7435
 177  903.9301
 178  980.0184
 179  881.7573
 180  764.0715
 181  600.6418
 182  625.1467
 183  601.106
 184  614.9379
 185  657.5347
 186  701.053
 187  789.6306
 188  717.4808
 189  642.0041
 190  705.2979
 191  672.5406
 192  739.7801
 193  818.5229
 194  880.5628
 195  750.8773
 196  676.3248
 197  701.2094
 198  661.9502
 199  625.1231
 200  571.7937
 201  595.4362
 202  653.3812
 203  682.7848
 204  706.4026
 205  723.5748
 206  748.0607
 207  653.8202
 208  527.8629
 209  630.8479
 210  699.3084
 211  821.0596
 212  730.1147
 213  669.4886
 214  669.9952
 215  755.4241
 216  704.2678
 217  709.238
 218  722.8522
 219  743.8448
 220  773.9487
 221  773.9968
 222  801.4484
 223  727.8674
 224  726.3016
 225  591.2572
 226  607.5591
 227  650.0487
 228  762.1365
 229  733.9566
 230  690.5667
 231  690.8547
 232  479.5577
 233  615.5502
 234  723.2558
 235  653.3719
 236  718.5486
 237  907.3839
 238  898.6404
 239  733.4544
 240  649.5117
 241  681.4379
 242  663.4196
 243  641.3833
 244  733.7609
 245  758.3848
 246  641.6823
 247  589.4584
 248  599.0566
 249  751.415
 250  708.6924
 251  694.928
 252  784.705
 253  748.0978
 254  835.6458
 255  719.3986
 256  792.5898
 257  822.033
 258  682.7498
 259  656.897
 260  652.4768
 261  703.1647
 262  650.7563
 263  542.2576
 264  668.8466
 265  606.1555
 266  622.8762
 267  647.1454
 268  673.6469
 269  700.0449
 270  754.6795
 271  730.9656
 272  679.1738
 273  627.383
 274  717.5661
 275  573.2276
 276  550.0728
 277  631.4725
 278  705.6817
 279  646.1041
 280  600.2315
 281  664.5942
 282  706.6456
 283  765.697
 284  671.2359
 285  700.3119
 286  721.4277
 287  714.5186
 288  667.9151
 289  689.4924
 290  668.4854
 291  630.0215
 292  635.5311
 293  664.092
 294  746.6833
 295  750.2834
 296  630.0834
 297  579.7941
 298  710.6547
 299  754.0822
 300  737.8532
 301  792.2429
 302  806.605
 303  765.0686
 304  663.383
 305  568.1124
 306  639.5881
 307  562.9753
 308  564.9117
 309  590.8303
 310  634.8858
 311  739.0992
 312  702.3592
 313  772.847
 314  738.2667
 315  643.9469
 316  627.6765
 317  647.8978
 318  804.4906
 319  856.8271
 320  775.6132
 321  744.5353
 322  695.5821
 323  609.4778
 324  667.9438
 325  634.2024
 326  489.0508
 327  541.4633
 328  673.0131
 329  702.1909
 330  684.9224
 331  819.6877
 332  756.7872
 333  778.7881
 334  694.5521
 335  739.8158
 336  684.9586
 337  699.5789
 338  827.8114
 339  709.7938
 340  691.1672
 341  629.4944
 342  634.8369
 343  731.9646
 344  684.2167
 345  615.2748
 346  625.6607
 347  591.8006
 348  654.8901
 349  682.6771
 350  815.3306
 351  806.7006
 352  814.2379
 353  740.289
 354  635.5584
 355  593.9286
 356  704.2385
 357  746.2931
 358  666.0446
 359  696.1798
 360  680.0342
 361  745.0391
 362  724.7152
 363  753.2484
 364  672.2794
 365  601.2166
 366  738.4064
 367  767.0742
 368  820.5519
 369  865.2065
 370  724.287
 371  562.258
 372  635.4492
 373  635.7602
 374  649.1838
 375  780.3544
 376  713.619
 377  619.4476
 378  618.6607
 379  716.6614
 380  749.4898
 381  652.4962
 382  728.2919
 383  762.4382
 384  789.1006
 385  840.2674
 386  794.0927
 387  708.6964
 388  633.1856
 389  621.5168
 390  630.4822
 391  629.9926
 392  628.2072
 393  708.7726
 394  666.5566
 395  734.7178
 396  677.7114
 397  525.0633
 398  611.4673
 399  725.9397
 400  797.6468
 401  689.2956
 402  773.7101
 403  819.5869
 404  703.2662
 405  688.7917
 406  647.3662
 407  632.6021
 408  685.4581
 409  659.3143
 410  860.064
 411  774.1174
 412  757.6965
 413  755.7274
 414  796.4737
 415  847.0172
 416  719.4575
 417  628.2452
 418  694.7164
 419  777.228
 420  752.2831
 421  525.1758
 422  616.3416
 423  563.3186
 424  648.7675
 425  690.3304
 426  776.6678
 427  737.5538
 428  717.2043
 429  625.3313
 430  672.1909
 431  795.549
 432  750.6884
 433  791.3463
 434  655.6451
 435  646.8749
 436  677.1004
 437  712.8093
 438  548.824
 439  713.8943
 440  615.4321
 441  459.2547
 442  658.3041
 443  721.4825
 444  589.1812
 445  635.691
 446  655.0248
 447  719.5436
 448  667.2178
 449  734.5294
 450  781.0317
 451  755.3293
 452  616.2709
 453  618.8402
 454  560.3626
 455  648.6503
 456  712.8606
 457  642.1595
 458  720.7828
 459  789.8942
 460  703.1177
 461  685.4978
 462  554.6196
 463  538.7161
 464  670.2682
 465  716.89
 466  739.2381
 467  799.7839
 468  708.23
 469  702.3351
 470  614.7527
 471  613.9287
 472  661.4547
 473  664.2542
 474  683.621
 475  788.5223
 476  858.0861
 477  727.7949
 478  612.7072
 479  715.6155
 480  751.4168
 481  700.4304
 482  620.7216
 483  655.079
 484  645.1919
 485  638.6512
 486  668.7075
 487  776.2712
 488  832.2466
 489  739.4779
 490  726.6165
 491  712.534
 492  687.4539
 493  695.1325
 494  768.3754
 495  804.5577
 496  874.8903
 497  766.9871
 498  728.5046
 499  680.8024
 500  668.3395
 501  698.8
 502  711.2878
 503  697.6663
 504  691.5433
 505  749.7064
 506  717.55
 507  738.2308
 508  886.5386
 509  982.1433
 510  1027.816
 511  959.6389
