# Input file       =  1196435398.113372_cleaned.dat
# Candidate        =  PSR_0332+5434
# Telescope        =  AR
# Epoch_topo       =  58091.632142515882
# Epoch_bary       =  N/A
# T_sample         =  0.002
# Data Folded      =  7208960
# Data Avg         =  0.0665225875690467
# Data StdDev      =  1.0002666863272  
# Profile Bins     =  512
# Profile Avg      =  936.579655441485 
# Profile StdDev   =  118.690820573312 
# Reduced chi-sqr  =  0.813
# Prob(Noise)      <  0.999   (~0.0 sigma)
# P_topo (ms)      =  714.529398707629  +/- 0.000195
# P'_topo (s/s)    =  -0                +/- 1.05e-10
# P''_topo (s/s^2) =  0                 +/- 4.7e-14
# P_bary (ms)      =  N/A
# P'_bary (s/s)    =  N/A
# P''_bary (s/s^2) =  N/A
# P_orb (s)        =  N/A
# asin(i)/c (s)    =  N/A
# eccentricity     =  N/A
# w (rad)          =  N/A
# T_peri           =  N/A
######################################################
   0  936.0536
   1  908.6962
   2  947.6033
   3  933.8333
   4  971.377
   5  928.3035
   6  914.5941
   7  922.701
   8  938.6753
   9  1073.212
  10  1058.097
  11  928.7204
  12  893.202
  13  938.4491
  14  1001.037
  15  947.1041
  16  953.0848
  17  911.7723
  18  901.2845
  19  936.9363
  20  938.6769
  21  993.3757
  22  951.0931
  23  953.3954
  24  796.809
  25  848.1633
  26  956.2919
  27  1029.347
  28  1048.003
  29  1003.124
  30  909.618
  31  926.022
  32  851.7322
  33  878.4508
  34  827.5525
  35  960.0776
  36  999.4381
  37  994.0916
  38  852.6659
  39  932.379
  40  979.9399
  41  918.8815
  42  935.6028
  43  904.2209
  44  823.2582
  45  894.8425
  46  1009.149
  47  912.1711
  48  882.3162
  49  936.0561
  50  954.8778
  51  993.942
  52  951.9305
  53  855.2654
  54  765.9933
  55  831.9774
  56  911.9155
  57  958.4993
  58  999.0556
  59  1001.052
  60  955.4912
  61  956.8427
  62  1010.637
  63  918.0792
  64  859.3074
  65  825.9797
  66  881.6281
  67  946.453
  68  1016.691
  69  1127.327
  70  1000.943
  71  928.3149
  72  985.5045
  73  1012.242
  74  953.8387
  75  858.8895
  76  974.3897
  77  957.1674
  78  898.2157
  79  827.1214
  80  812.6907
  81  847.4068
  82  948.7866
  83  989.9701
  84  1002.326
  85  972.7479
  86  845.1243
  87  871.7153
  88  971.0881
  89  1048.131
  90  1035.745
  91  910.1333
  92  1011.327
  93  969.1545
  94  843.6566
  95  764.2349
  96  858.8039
  97  863.3677
  98  902.1493
  99  891.6433
 100  866.7324
 101  920.6196
 102  928.3281
 103  941.5276
 104  961.7117
 105  930.9388
 106  838.9365
 107  827.6144
 108  984.2435
 109  987.0572
 110  1011.731
 111  1035.788
 112  982.7986
 113  900.3249
 114  951.4028
 115  952.5621
 116  976.0186
 117  963.3239
 118  951.6966
 119  1021.541
 120  964.7109
 121  1009.258
 122  882.4026
 123  909.5553
 124  915.3389
 125  815.2539
 126  962.1882
 127  955.389
 128  924.4305
 129  1005.137
 130  966.6838
 131  953.5251
 132  944.9227
 133  1012.025
 134  1012.627
 135  932.0626
 136  901.0123
 137  961.1228
 138  1000.235
 139  925.5502
 140  793.043
 141  856.4973
 142  898.1816
 143  887.0817
 144  947.8646
 145  864.5721
 146  842.6543
 147  831.3901
 148  824.6613
 149  896.3448
 150  890.6964
 151  873.6331
 152  891.2407
 153  830.4215
 154  901.6342
 155  940.9374
 156  916.3802
 157  905.2868
 158  977.0919
 159  1018.024
 160  1046.895
 161  1120.199
 162  1262.69
 163  1251.159
 164  1174.511
 165  1083.963
 166  1083.624
 167  1100.707
 168  1045.693
 169  1026.196
 170  1011.922
 171  984.7455
 172  972.8317
 173  987.4867
 174  1011.966
 175  964.3991
 176  881.1766
 177  917.5815
 178  1009.567
 179  918.0773
 180  952.3695
 181  921.984
 182  951.7051
 183  885.3669
 184  984.272
 185  1001.328
 186  1058.987
 187  1226.837
 188  1075.472
 189  1127.303
 190  1039.123
 191  1026.084
 192  1026.647
 193  955.8787
 194  1009.961
 195  958.0488
 196  873.5673
 197  933.5139
 198  1012.474
 199  970.3022
 200  912.1526
 201  976.4617
 202  967.1125
 203  1033.941
 204  893.7369
 205  950.7598
 206  923.3641
 207  936.8636
 208  932.9418
 209  994.7334
 210  969.1699
 211  976.1418
 212  919.5957
 213  810.3898
 214  900.2386
 215  983.7642
 216  953.8706
 217  983.4647
 218  1018.649
 219  1022.878
 220  946.9952
 221  924.8343
 222  986.3071
 223  1108.913
 224  994.1105
 225  975.4357
 226  984.0059
 227  985.8404
 228  1012.51
 229  964.3684
 230  1018.672
 231  953.8746
 232  915.6843
 233  916.1754
 234  891.5688
 235  819.282
 236  849.3623
 237  965.8079
 238  937.0757
 239  804.5744
 240  974.0145
 241  1045.083
 242  1011.648
 243  954.3587
 244  992.8824
 245  986.5212
 246  1045.777
 247  1002.555
 248  1031.074
 249  913.0491
 250  962.7833
 251  1081.611
 252  1104.498
 253  1138.824
 254  935.8779
 255  786.9255
 256  829.2465
 257  802.5588
 258  843.9795
 259  901.5803
 260  932.8816
 261  997.0667
 262  1079.583
 263  967.5419
 264  867.8666
 265  834.0523
 266  903.5435
 267  992.5149
 268  923.7559
 269  864.0447
 270  921.2217
 271  831.2279
 272  984.4103
 273  1024.098
 274  930.4019
 275  908.5944
 276  979.0522
 277  927.4542
 278  879.046
 279  905.8052
 280  894.4474
 281  854.1414
 282  820.7654
 283  870.1824
 284  871.6854
 285  889.7542
 286  938.6161
 287  880.3069
 288  750.8213
 289  916.1935
 290  770.4534
 291  872.1611
 292  811.0308
 293  879.6984
 294  974.6576
 295  941.4878
 296  904.0476
 297  804.2521
 298  865.7409
 299  908.4951
 300  829.454
 301  878.0446
 302  901.2451
 303  990.4655
 304  924.8511
 305  916.1322
 306  930.9904
 307  774.3431
 308  735.1451
 309  881.0698
 310  870.9388
 311  969.5626
 312  972.2808
 313  874.8267
 314  823.5687
 315  879.0034
 316  863.5768
 317  887.3788
 318  961.4103
 319  910.7174
 320  940.3723
 321  883.7195
 322  910.197
 323  973.5805
 324  918.7905
 325  987.0062
 326  935.4905
 327  934.7726
 328  1027.238
 329  912.4109
 330  987.3111
 331  1093.79
 332  1105.741
 333  1011.444
 334  1020.576
 335  1026.617
 336  1080.233
 337  1026.266
 338  987.8683
 339  945.41
 340  971.6775
 341  1048.626
 342  935.1644
 343  874.928
 344  1035.81
 345  938.5663
 346  854.6877
 347  912.6467
 348  940.3313
 349  955.9867
 350  854.8248
 351  852.6322
 352  934.6931
 353  995.6539
 354  941.9506
 355  913.6818
 356  831.8438
 357  842.7
 358  777.513
 359  952.3281
 360  1018.51
 361  1003.761
 362  978.1478
 363  987.5488
 364  969.5984
 365  903.3016
 366  876.0416
 367  868.0217
 368  954.3923
 369  897.0844
 370  851.8856
 371  927.6918
 372  963.33
 373  983.4866
 374  823.5115
 375  792.2995
 376  777.7769
 377  847.2593
 378  798.204
 379  879.08
 380  983.9703
 381  1018.005
 382  927.4315
 383  945.2779
 384  898.315
 385  951.7839
 386  913.9235
 387  966.5177
 388  923.1337
 389  974.9296
 390  910.2318
 391  874.7169
 392  948.3371
 393  877.4962
 394  897.6265
 395  954.1961
 396  931.4285
 397  973.7111
 398  991.892
 399  945.2646
 400  917.2885
 401  930.5104
 402  966.6104
 403  986.8707
 404  992.4183
 405  1059.316
 406  993.7329
 407  877.1314
 408  960.4547
 409  1007.142
 410  1038.245
 411  1007.932
 412  898.4329
 413  958.8441
 414  979.4026
 415  974.9071
 416  1005.249
 417  978.4283
 418  955.8332
 419  864.4796
 420  937.7149
 421  1079.607
 422  1038.414
 423  1005.859
 424  942.9995
 425  881.4926
 426  903.3696
 427  962.8827
 428  854.7231
 429  860.3778
 430  997.8793
 431  1025.91
 432  982.0682
 433  981.7689
 434  992.8992
 435  875.344
 436  816.6982
 437  922.801
 438  1097.587
 439  912.7617
 440  763.4026
 441  777.4592
 442  822.4222
 443  745.6322
 444  749.4358
 445  859.0023
 446  854.0189
 447  837.1956
 448  854.8665
 449  823.709
 450  908.4675
 451  894.7445
 452  922.8519
 453  999.6585
 454  1110.371
 455  1087.946
 456  929.4423
 457  858.9697
 458  911.6198
 459  1015.782
 460  912.8058
 461  965.8154
 462  954.4999
 463  904.112
 464  876.8206
 465  1004.064
 466  1045.912
 467  1048.31
 468  912.446
 469  848.1724
 470  856.1766
 471  811.7419
 472  894.6169
 473  946.1538
 474  948.3352
 475  978.4787
 476  976.3804
 477  978.5233
 478  859.2559
 479  887.1562
 480  950.9294
 481  925.4937
 482  918.0152
 483  888.7416
 484  916.5939
 485  809.9207
 486  849.9965
 487  894.8107
 488  979.1176
 489  963.761
 490  935.4299
 491  832.0715
 492  826.0873
 493  827.5955
 494  841.9489
 495  927.2825
 496  895.0609
 497  947.8265
 498  967.774
 499  976.4653
 500  1038.398
 501  956.993
 502  924.5339
 503  840.9717
 504  950.6661
 505  915.5634
 506  904.7833
 507  978.092
 508  872.9827
 509  749.8095
 510  720.5071
 511  850.7794
