# Input file       =  1196951893.114437_cleaned.dat
# Candidate        =  PSR_0332+5434
# Telescope        =  AR
# Epoch_topo       =  58097.610093917094
# Epoch_bary       =  N/A
# T_sample         =  0.002
# Data Folded      =  7208960
# Data Avg         =  0.0901575051831015
# Data StdDev      =  1.00031747597575 
# Profile Bins     =  512
# Profile Avg      =  1269.41257794673 
# Profile StdDev   =  118.696847231147 
# Reduced chi-sqr  =  0.722
# Prob(Noise)      <  1   (~0.0 sigma)
# P_topo (ms)      =  714.535505042033  +/- 0.000539
# P'_topo (s/s)    =  -0                +/- 2.89e-10
# P''_topo (s/s^2) =  0                 +/- 1.3e-13
# P_bary (ms)      =  N/A
# P'_bary (s/s)    =  N/A
# P''_bary (s/s^2) =  N/A
# P_orb (s)        =  N/A
# asin(i)/c (s)    =  N/A
# eccentricity     =  N/A
# w (rad)          =  N/A
# T_peri           =  N/A
######################################################
   0  1361.388
   1  1349.55
   2  1354.102
   3  1257.299
   4  1240.169
   5  1261.281
   6  1294.291
   7  1188.178
   8  1183.337
   9  1150.806
  10  1218.696
  11  1303.73
  12  1221.442
  13  1231.202
  14  1279.669
  15  1302.353
  16  1213.738
  17  1264.207
  18  1217.548
  19  1269.316
  20  1287.839
  21  1338.591
  22  1397.691
  23  1389.453
  24  1317.109
  25  1204.341
  26  1252.699
  27  1271.231
  28  1322.57
  29  1279.408
  30  1263.057
  31  1245.497
  32  1290.713
  33  1405.188
  34  1391.449
  35  1356.417
  36  1300.16
  37  1297.591
  38  1331.858
  39  1342.079
  40  1354.919
  41  1320.764
  42  1382.514
  43  1291.088
  44  1360.841
  45  1424.925
  46  1333.951
  47  1295.148
  48  1358.574
  49  1290.422
  50  1300.197
  51  1336.986
  52  1188.792
  53  1229.758
  54  1259.404
  55  1315.1
  56  1335.119
  57  1417.503
  58  1403.196
  59  1367.878
  60  1284.3
  61  1231.246
  62  1313.203
  63  1201.476
  64  1253.653
  65  1412.677
  66  1358.011
  67  1253.053
  68  1170.891
  69  1273.551
  70  1266.047
  71  1184.677
  72  1224.159
  73  1136.374
  74  1107.389
  75  1278.177
  76  1308.29
  77  1301.105
  78  1234.258
  79  1228.719
  80  1156.369
  81  1143.336
  82  1214.48
  83  1075.958
  84  1157.537
  85  1226.76
  86  1261.829
  87  1289.355
  88  1314.775
  89  1345.638
  90  1247.274
  91  1255.953
  92  1164.781
  93  1193.034
  94  1311.626
  95  1266.429
  96  1243.984
  97  1245.507
  98  1204.84
  99  1281.577
 100  1346.855
 101  1389.504
 102  1256.015
 103  1194.897
 104  1205.517
 105  1282.269
 106  1245.446
 107  1333.558
 108  1312.138
 109  1324.583
 110  1355.707
 111  1361.52
 112  1331.073
 113  1296.043
 114  1272.955
 115  1134.545
 116  1206.477
 117  1218.184
 118  1209.151
 119  1330.435
 120  1313.638
 121  1256.296
 122  1089.942
 123  1199.353
 124  1226.96
 125  1177.857
 126  1130.87
 127  1204.759
 128  1175.191
 129  1236.452
 130  1196.982
 131  1223.844
 132  1183.233
 133  1108.435
 134  1248.578
 135  1209.098
 136  1212.72
 137  1261.333
 138  1291.017
 139  1230.937
 140  1326.469
 141  1312.84
 142  1343.966
 143  1199.442
 144  1240.019
 145  1326.478
 146  1338.283
 147  1367.193
 148  1357.89
 149  1300.748
 150  1335.314
 151  1223.683
 152  1215.054
 153  1351.889
 154  1403.258
 155  1310.353
 156  1277.81
 157  1278.549
 158  1251.722
 159  1296.128
 160  1283.428
 161  1379.619
 162  1443.239
 163  1345.185
 164  1224.528
 165  1210.391
 166  1232.818
 167  1275.015
 168  1268.859
 169  1329.715
 170  1426.423
 171  1387.337
 172  1236.179
 173  1167.797
 174  1277.367
 175  1211.398
 176  1322.346
 177  1281.574
 178  1245.548
 179  1255.711
 180  1281.898
 181  1267.788
 182  1229.771
 183  1358.445
 184  1278.603
 185  1213.582
 186  1302.149
 187  1282.714
 188  1308.184
 189  1313.932
 190  1327.405
 191  1310.671
 192  1255.301
 193  1330.254
 194  1365.788
 195  1339.008
 196  1256.051
 197  1344.485
 198  1230.576
 199  1231.015
 200  1229.245
 201  1257.653
 202  1315.077
 203  1350.541
 204  1205.277
 205  1259.848
 206  1324.106
 207  1204.46
 208  1184.623
 209  1315.91
 210  1243.994
 211  1160.918
 212  1207.534
 213  1212.03
 214  1195.477
 215  1250.217
 216  1196.449
 217  1286.403
 218  1313.149
 219  1248.317
 220  1190.269
 221  1221.266
 222  1240.989
 223  1329.274
 224  1305.775
 225  1337.981
 226  1394.143
 227  1291.542
 228  1260.676
 229  1083.366
 230  1172.133
 231  1209.984
 232  1313.323
 233  1283.004
 234  1180.212
 235  1272.368
 236  1245.076
 237  1283.175
 238  1289.815
 239  1320.675
 240  1253.901
 241  1197.305
 242  1335.518
 243  1332.93
 244  1264.791
 245  1300.481
 246  1301.168
 247  1158.089
 248  1212.18
 249  1204.282
 250  1319.124
 251  1369.474
 252  1278.726
 253  1327.322
 254  1191.646
 255  1274.609
 256  1282.395
 257  1216.787
 258  1278.002
 259  1329.777
 260  1357.224
 261  1244.282
 262  1310.471
 263  1320.786
 264  1325.562
 265  1260.58
 266  1224.635
 267  1222.996
 268  1304.268
 269  1379.609
 270  1215.504
 271  1201.372
 272  1253.2
 273  1333.824
 274  1230.215
 275  1159.779
 276  1245.688
 277  1306.108
 278  1352.859
 279  1434.906
 280  1372.57
 281  1240.544
 282  1324.062
 283  1282.138
 284  1277.579
 285  1291.072
 286  1160.122
 287  1139.296
 288  1208.17
 289  1204.286
 290  1115.843
 291  1235.962
 292  1211.079
 293  1222.843
 294  1188.968
 295  1268.441
 296  1377.494
 297  1328.725
 298  1195.759
 299  1079.029
 300  1216.11
 301  1262.141
 302  1255.179
 303  1154.904
 304  1166.068
 305  1256.021
 306  1340.279
 307  1220.566
 308  1256.611
 309  1159.987
 310  1092.769
 311  1247.271
 312  1238.324
 313  1266.386
 314  1242.561
 315  1187.683
 316  1174.682
 317  1358.538
 318  1348.537
 319  1227.634
 320  1312.614
 321  1202.939
 322  1280.394
 323  1299.85
 324  1401.175
 325  1299.739
 326  1228.969
 327  1224.82
 328  1124.335
 329  1281.525
 330  1189.416
 331  1190.779
 332  1181.642
 333  1156.894
 334  1306.605
 335  1404.44
 336  1324.163
 337  1252.816
 338  1283.08
 339  1249.427
 340  1155.551
 341  1215.643
 342  1171.021
 343  1174.987
 344  1193.141
 345  1217.934
 346  1109.084
 347  1229.615
 348  1249.452
 349  1223.244
 350  1120.418
 351  1253.105
 352  1277.808
 353  1181.192
 354  1225.728
 355  1201.293
 356  1221.84
 357  1310.91
 358  1292.247
 359  1276.487
 360  1164.547
 361  1237.802
 362  1167.772
 363  1256.622
 364  1245.999
 365  1262.315
 366  1303.271
 367  1289.404
 368  1251.17
 369  1216.245
 370  1272.666
 371  1228.779
 372  1203.664
 373  1170.339
 374  1260.624
 375  1237.205
 376  1316.444
 377  1351.146
 378  1302.722
 379  1249.334
 380  1339.932
 381  1328.569
 382  1296.155
 383  1269.314
 384  1330.864
 385  1362.828
 386  1365.044
 387  1428.87
 388  1462.39
 389  1381.36
 390  1341.983
 391  1419.278
 392  1414.516
 393  1344.432
 394  1249.145
 395  1199.704
 396  1315.863
 397  1313.583
 398  1302.729
 399  1250.078
 400  1176.072
 401  1210.909
 402  1189.964
 403  1275.908
 404  1341.963
 405  1314.606
 406  1298.279
 407  1221.024
 408  1087.444
 409  1162.662
 410  1250.59
 411  1236.032
 412  1290.152
 413  1315.125
 414  1230.613
 415  1234.929
 416  1190.478
 417  1255.18
 418  1274.368
 419  1277.667
 420  1266.384
 421  1309.412
 422  1219.231
 423  1149.932
 424  1209.803
 425  1238.005
 426  1312.749
 427  1194.393
 428  1257.177
 429  1191.779
 430  1313.493
 431  1287.433
 432  1258.323
 433  1282.822
 434  1361.81
 435  1368.328
 436  1242.469
 437  1318.704
 438  1355.492
 439  1239.068
 440  1195.28
 441  1261.859
 442  1188.127
 443  1176.736
 444  1149.444
 445  1339.074
 446  1380.832
 447  1126.736
 448  1170.432
 449  1346.094
 450  1380.714
 451  1375.182
 452  1348.052
 453  1300.574
 454  1296.138
 455  1280.845
 456  1273.234
 457  1300.297
 458  1227.371
 459  1235.917
 460  1201.65
 461  1217.425
 462  1153.513
 463  1121.444
 464  1085.665
 465  1118.042
 466  1255.256
 467  1233.759
 468  1237.129
 469  1225.471
 470  1338.192
 471  1287.151
 472  1159.431
 473  1218.474
 474  1314.066
 475  1323.814
 476  1312.961
 477  1284.786
 478  1316.172
 479  1257.849
 480  1322.368
 481  1309.729
 482  1278.734
 483  1270.136
 484  1273.266
 485  1349.359
 486  1393.779
 487  1333.762
 488  1418.378
 489  1456.163
 490  1371.266
 491  1325.335
 492  1307.542
 493  1364.949
 494  1126.968
 495  1241.178
 496  1352.437
 497  1370.469
 498  1424.986
 499  1376.074
 500  1369.037
 501  1236.561
 502  1210.437
 503  1217.259
 504  1325.186
 505  1406.115
 506  1431.276
 507  1383.719
 508  1282.433
 509  1289.081
 510  1441.971
 511  1447.249
