# Input file       =  1196120284.110461_cleaned.dat
# Candidate        =  PSR_0332+5434
# Telescope        =  AR
# Epoch_topo       =  58087.984989704411
# Epoch_bary       =  N/A
# T_sample         =  0.002
# Data Folded      =  7340032
# Data Avg         =  0.0441271408173977
# Data StdDev      =  1.00009408947026 
# Profile Bins     =  512
# Profile Avg      =  632.632049625752 
# Profile StdDev   =  119.744301994732 
# Reduced chi-sqr  =  0.755
# Prob(Noise)      <  1   (~0.0 sigma)
# P_topo (ms)      =  714.526012699172  +/- 0.000406
# P'_topo (s/s)    =  -0                +/- 2.14e-10
# P''_topo (s/s^2) =  0                 +/- 9.45e-14
# P_bary (ms)      =  N/A
# P'_bary (s/s)    =  N/A
# P''_bary (s/s^2) =  N/A
# P_orb (s)        =  N/A
# asin(i)/c (s)    =  N/A
# eccentricity     =  N/A
# w (rad)          =  N/A
# T_peri           =  N/A
######################################################
   0  612.3599
   1  679.8411
   2  693.1234
   3  618.3817
   4  574.85
   5  539.0074
   6  663.4699
   7  673.3851
   8  584.8516
   9  511.8751
  10  599.3393
  11  676.9516
  12  767.3934
  13  714.8386
  14  619.1916
  15  661.1247
  16  789.5184
  17  735.3248
  18  656.6625
  19  670.6314
  20  687.2564
  21  680.1917
  22  625.9283
  23  567.3295
  24  455.8836
  25  514.8958
  26  689.6932
  27  613.5038
  28  679.3232
  29  660.3013
  30  682.9443
  31  750.5031
  32  715.4882
  33  637.2436
  34  679.8877
  35  681.1305
  36  610.6921
  37  529.7345
  38  623.7557
  39  699.3793
  40  694.5327
  41  686.6693
  42  646.0124
  43  556.231
  44  481.3394
  45  670.3843
  46  711.9465
  47  590.8444
  48  647.8098
  49  707.6564
  50  704.4174
  51  563.0511
  52  645.6033
  53  710.6419
  54  706.3638
  55  671.1705
  56  686.2068
  57  637.3214
  58  507.1869
  59  491.2046
  60  501.9499
  61  483.6224
  62  573.4315
  63  689.1029
  64  647.1401
  65  600.7051
  66  608.7036
  67  646.5131
  68  581.8412
  69  539.8229
  70  557.8515
  71  611.0217
  72  625.1821
  73  632.5211
  74  645.2352
  75  575.7206
  76  681.9966
  77  685.4526
  78  638.4328
  79  548.2105
  80  563.2443
  81  599.1118
  82  504.9901
  83  569.5345
  84  617.7321
  85  695.9101
  86  711.3374
  87  685.2386
  88  716.3242
  89  674.1982
  90  505.2323
  91  520.0868
  92  688.2495
  93  600.6976
  94  597.2291
  95  705.1417
  96  764.6383
  97  609.4036
  98  661.6427
  99  693.4821
 100  783.2248
 101  767.905
 102  637.1068
 103  649.9216
 104  702.3354
 105  563.987
 106  542.0801
 107  642.3273
 108  665.2459
 109  544.0558
 110  537.6516
 111  607.3199
 112  702.8084
 113  659.1524
 114  624.5745
 115  551.1414
 116  543.3803
 117  646.2291
 118  614.8526
 119  570.569
 120  565.1684
 121  755.2462
 122  688.4984
 123  616.0757
 124  771.1766
 125  813.8635
 126  725.1287
 127  619.2437
 128  670.8223
 129  630.093
 130  600.0837
 131  648.3492
 132  606.1571
 133  705.7795
 134  681.133
 135  684.3582
 136  683.6324
 137  632.1476
 138  625.1923
 139  644.1382
 140  688.1274
 141  587.0858
 142  577.7784
 143  602.6635
 144  524.7794
 145  691.4021
 146  645.8476
 147  594.3576
 148  663.9302
 149  684.1967
 150  738.5853
 151  664.2834
 152  700.7905
 153  655.1976
 154  615.6141
 155  559.1202
 156  703.3781
 157  807.7548
 158  636.952
 159  588.026
 160  621.7308
 161  679.7955
 162  619.6935
 163  599.1011
 164  566.5687
 165  615.8844
 166  657.5937
 167  587.1863
 168  606.9922
 169  630.5635
 170  579.7725
 171  675.6949
 172  691.5621
 173  538.8533
 174  591.2309
 175  652.5647
 176  681.6104
 177  534.4433
 178  678.038
 179  652.6843
 180  684.5835
 181  576.0273
 182  548.8403
 183  574.4427
 184  722.2881
 185  680.7947
 186  604.7263
 187  509.1523
 188  622.9001
 189  659.5317
 190  775.2627
 191  752.6117
 192  653.6418
 193  601.0361
 194  619.3029
 195  631.9698
 196  683.5286
 197  751.4879
 198  693.2668
 199  616.1857
 200  612.3721
 201  572.7939
 202  506.6516
 203  610.3394
 204  840.4431
 205  807.7355
 206  625.2426
 207  707.674
 208  739.7536
 209  798.4265
 210  920.491
 211  980.8497
 212  942.347
 213  854.0851
 214  776.0044
 215  563.84
 216  557.0081
 217  586.9774
 218  635.4493
 219  591.0652
 220  639.4738
 221  607.4515
 222  578.6728
 223  579.3666
 224  573.1022
 225  517.5383
 226  647.4391
 227  678.7504
 228  525.7636
 229  546.2711
 230  616.2253
 231  570.092
 232  678.3439
 233  739.1429
 234  754.7781
 235  760.5414
 236  690.8468
 237  524.564
 238  635.9882
 239  775.6223
 240  649.8168
 241  587.4534
 242  590.3594
 243  658.4808
 244  618.4509
 245  657.9912
 246  670.7924
 247  635.729
 248  622.3669
 249  625.3458
 250  691.6599
 251  716.1653
 252  722.0023
 253  691.3536
 254  563.2487
 255  500.8233
 256  576.0909
 257  571.6207
 258  565.3001
 259  576.824
 260  631.9508
 261  694.6928
 262  602.8848
 263  547.7339
 264  599.5719
 265  619.8224
 266  660.0168
 267  602.4846
 268  628.0585
 269  470.2975
 270  517.6952
 271  633.0435
 272  649.5434
 273  494.6022
 274  596.0756
 275  573.2567
 276  656.6985
 277  628.1777
 278  668.7747
 279  712.2308
 280  743.8255
 281  688.0601
 282  714.1651
 283  652.4147
 284  628.225
 285  659.3568
 286  679.8998
 287  676.6293
 288  684.6285
 289  744.5142
 290  642.2221
 291  631.4941
 292  667.5931
 293  623.0037
 294  539.9348
 295  638.326
 296  689.2331
 297  684.3972
 298  616.1559
 299  577.2704
 300  597.4896
 301  657.4822
 302  626.6508
 303  642.641
 304  580.3071
 305  576.8916
 306  607.5474
 307  627.1693
 308  662.4553
 309  644.2869
 310  625.0527
 311  548.892
 312  542.6713
 313  608.5009
 314  611.7226
 315  544.0928
 316  570.3872
 317  632.1559
 318  553.342
 319  594.8545
 320  712.2452
 321  668.0783
 322  608.2418
 323  555.4866
 324  592.3496
 325  596.9877
 326  569.7964
 327  653.6534
 328  785.3996
 329  667.9962
 330  570.5532
 331  468.4727
 332  500.9146
 333  521.1373
 334  532.277
 335  618.2959
 336  639.9721
 337  605.3052
 338  619.7481
 339  542.2355
 340  567.9428
 341  515.2264
 342  572.2186
 343  568.1708
 344  631.8869
 345  549.6367
 346  503.2765
 347  478.4711
 348  577.2536
 349  701.5076
 350  723.0178
 351  670.8488
 352  733.2441
 353  556.2842
 354  569.3235
 355  556.2224
 356  583.5734
 357  604.1484
 358  548.1658
 359  549.36
 360  622.704
 361  701.9953
 362  585.1718
 363  532.2935
 364  643.1682
 365  682.691
 366  523.8008
 367  581.8944
 368  631.5244
 369  661.8265
 370  707.9184
 371  630.5172
 372  607.2236
 373  628.5292
 374  622.7324
 375  620.9105
 376  682.7886
 377  702.0439
 378  720.1769
 379  635.2839
 380  613.9214
 381  692.955
 382  619.4852
 383  590.712
 384  647.5422
 385  861.3885
 386  852.1655
 387  731.162
 388  645.05
 389  614.9449
 390  652.8134
 391  648.3934
 392  683.6605
 393  661.7419
 394  612.308
 395  631.5087
 396  531.7094
 397  561.8816
 398  431.3388
 399  358.378
 400  525.2535
 401  581.9307
 402  480.678
 403  520.0142
 404  656.0674
 405  659.0942
 406  610.4915
 407  518.3632
 408  586.4403
 409  705.4016
 410  528.0921
 411  591.7156
 412  567.5193
 413  616.8626
 414  651.1707
 415  667.8912
 416  672.6443
 417  616.6068
 418  600.666
 419  619.9527
 420  702.6642
 421  637.9282
 422  682.3881
 423  499.7681
 424  636.9795
 425  570.2329
 426  535.3953
 427  618.7293
 428  684.3121
 429  703.7524
 430  561.1687
 431  506.6622
 432  535.471
 433  576.3427
 434  554.1352
 435  578.6201
 436  601.0691
 437  633.3777
 438  646.2317
 439  637.6839
 440  523.01
 441  462.6781
 442  529.6898
 443  628.7518
 444  647.6423
 445  695.7806
 446  726.6467
 447  637.9876
 448  615.2492
 449  587.3613
 450  659.0323
 451  642.2014
 452  656.6323
 453  712.7462
 454  796.7489
 455  608.7073
 456  583.6089
 457  646.2348
 458  587.8353
 459  554.6441
 460  669.0402
 461  683.0795
 462  674.107
 463  658.082
 464  648.6918
 465  667.1584
 466  751.0381
 467  722.3018
 468  702.9442
 469  635.6616
 470  704.0735
 471  711.8553
 472  692.8862
 473  622.233
 474  684.0508
 475  758.6589
 476  586.0735
 477  579.0151
 478  574.5231
 479  652.1393
 480  697.2328
 481  680.3344
 482  689.2035
 483  669.2816
 484  582.368
 485  646.7411
 486  600.6583
 487  689.5787
 488  753.8112
 489  724.4903
 490  554.2948
 491  579.3376
 492  713.4839
 493  696.6702
 494  714.5594
 495  720.0499
 496  639.025
 497  585.937
 498  572.5621
 499  510.1726
 500  578.7174
 501  678.5654
 502  587.3789
 503  546.7079
 504  617.5864
 505  693.4176
 506  673.4747
 507  597.5403
 508  603.4825
 509  695.2693
 510  578.632
 511  557.5034
