# Input file       =  1196292583.114135_cleaned.dat
# Candidate        =  PSR_0332+5434
# Telescope        =  AR
# Epoch_topo       =  58089.979191135819
# Epoch_bary       =  N/A
# T_sample         =  0.002
# Data Folded      =  7340032
# Data Avg         =  0.069517044659121
# Data StdDev      =  1.00022554269698 
# Profile Bins     =  512
# Profile Avg      =  996.593367637301 
# Profile StdDev   =  119.760041288709 
# Reduced chi-sqr  =  0.702
# Prob(Noise)      <  1   (~0.0 sigma)
# P_topo (ms)      =  714.528065147879  +/- 0.000473
# P'_topo (s/s)    =  -0                +/- 2.5e-10
# P''_topo (s/s^2) =  0                 +/- 1.1e-13
# P_bary (ms)      =  N/A
# P'_bary (s/s)    =  N/A
# P''_bary (s/s^2) =  N/A
# P_orb (s)        =  N/A
# asin(i)/c (s)    =  N/A
# eccentricity     =  N/A
# w (rad)          =  N/A
# T_peri           =  N/A
######################################################
   0  1016.63
   1  1063.504
   2  1081.402
   3  1081.484
   4  922.1013
   5  888.7046
   6  958.0152
   7  1015.513
   8  1090.066
   9  971.3369
  10  935.2328
  11  958.0829
  12  874.35
  13  963.8212
  14  1031.849
  15  1000.933
  16  1004.531
  17  947.1379
  18  962.3746
  19  939.7659
  20  913.2504
  21  854.0638
  22  973.8057
  23  942.5203
  24  908.8507
  25  952.3724
  26  1005.654
  27  991.6412
  28  940.0671
  29  1024.221
  30  924.0935
  31  820.4817
  32  875.1091
  33  848.1925
  34  875.1287
  35  933.8913
  36  980.9481
  37  909.9628
  38  895.7634
  39  935.4946
  40  979.7121
  41  881.5959
  42  995.8365
  43  1090.286
  44  957.1437
  45  875.1097
  46  868.5488
  47  1030.538
  48  973.1738
  49  1037.312
  50  1103.732
  51  1046.479
  52  1006.069
  53  1046.375
  54  1018.137
  55  1018.705
  56  1063.273
  57  1034.566
  58  1125.267
  59  1159.736
  60  1115.111
  61  1109.177
  62  1045.059
  63  996.7468
  64  1064.606
  65  1100.67
  66  1019.998
  67  1108.66
  68  1081.294
  69  988.816
  70  977.9193
  71  1037.207
  72  1032.068
  73  1054.684
  74  1118.31
  75  1105.937
  76  1042.585
  77  1078.173
  78  979.5911
  79  913.9542
  80  894.3498
  81  919.4514
  82  996.9341
  83  1041.214
  84  968.6828
  85  909.9504
  86  989.6755
  87  918.8211
  88  900.3417
  89  1023.997
  90  1062.064
  91  1078.405
  92  1114.367
  93  1047.687
  94  1025.629
  95  1016.102
  96  1048.576
  97  1018.957
  98  1046.944
  99  996.8684
 100  1084.088
 101  1069.462
 102  1005
 103  932.3751
 104  1005.608
 105  959.0865
 106  983.618
 107  1024.145
 108  946.2829
 109  893.4181
 110  977.7463
 111  1028.389
 112  1126.078
 113  1035.796
 114  1012.618
 115  1057.233
 116  1042.654
 117  1018.603
 118  1131.278
 119  1130.17
 120  1045.792
 121  1034.676
 122  1094.305
 123  1104.333
 124  1058.273
 125  962.12
 126  1015.839
 127  1025.141
 128  999.1188
 129  1008.636
 130  1042.341
 131  1094.523
 132  1061.795
 133  1148.372
 134  1243.842
 135  1281.141
 136  1176.52
 137  1066.298
 138  1008.526
 139  1014.682
 140  982.2399
 141  959.4987
 142  923.7794
 143  886.115
 144  834.4296
 145  922.952
 146  933.8543
 147  1029.91
 148  1059.435
 149  1090.801
 150  1127.371
 151  1012.037
 152  988.3397
 153  988.4429
 154  997.7122
 155  989.6148
 156  1028.065
 157  1083.68
 158  1036.529
 159  938.6494
 160  891.6174
 161  974.3497
 162  1000.742
 163  890.7299
 164  918.7245
 165  983.1046
 166  911.6822
 167  942.4915
 168  997.0737
 169  1025.322
 170  1001.192
 171  1059.335
 172  1037.628
 173  1091.908
 174  1036.615
 175  951.4234
 176  965.6868
 177  990.9914
 178  1119.373
 179  1095.5
 180  978.7142
 181  884.0187
 182  907.2469
 183  915.6131
 184  951.8482
 185  933.3578
 186  1013.632
 187  1007.439
 188  1016.426
 189  926.2348
 190  990.8007
 191  948.9673
 192  1057.875
 193  975.3957
 194  922.2996
 195  952.3939
 196  1007.801
 197  1023.691
 198  991.704
 199  947.636
 200  954.0461
 201  1066.818
 202  1076.329
 203  1015.188
 204  1019.578
 205  958.8511
 206  901.6913
 207  946.9403
 208  980.762
 209  966.0635
 210  1016.712
 211  1122.784
 212  1100.083
 213  1106.602
 214  1063.292
 215  1039.449
 216  1109.916
 217  1064.847
 218  1044.549
 219  1044.354
 220  1102.068
 221  1133.681
 222  1073.009
 223  1120.997
 224  1001.149
 225  1086.21
 226  1083.243
 227  1057.648
 228  1049.284
 229  1112.205
 230  1154.46
 231  1008.419
 232  1042.013
 233  1022.394
 234  1041.993
 235  975.4491
 236  966.7576
 237  883.6772
 238  882.5386
 239  1023.117
 240  953.072
 241  829.2766
 242  842.8721
 243  947.7723
 244  977.4649
 245  885.8929
 246  937.342
 247  1056.401
 248  937.0029
 249  998.668
 250  1030.926
 251  1029.461
 252  936.6343
 253  1018.238
 254  1028.432
 255  1011.576
 256  1021.222
 257  1008.085
 258  952.6747
 259  925.6904
 260  967.7906
 261  968.7653
 262  1010.182
 263  973.9877
 264  1033.032
 265  1015.11
 266  873.8636
 267  903.4028
 268  958.819
 269  881.1431
 270  967.1111
 271  980.0859
 272  1001.373
 273  1041.065
 274  996.2308
 275  1128.796
 276  1216.219
 277  1174.464
 278  1058.474
 279  1061.534
 280  1082.052
 281  1082.632
 282  1084.149
 283  1034.972
 284  979.1768
 285  999.0851
 286  1074.011
 287  1086.513
 288  1105.138
 289  1095.028
 290  1035.771
 291  1011.189
 292  982.8557
 293  974.3391
 294  1034.142
 295  985.3597
 296  988.386
 297  1073.179
 298  982.8948
 299  914.6055
 300  903.642
 301  987.5269
 302  876.5323
 303  917.0508
 304  961.6091
 305  956.1323
 306  944.3987
 307  875.8834
 308  879.8254
 309  983.9524
 310  974.4559
 311  956.2433
 312  1006.098
 313  1130.477
 314  1129.318
 315  1097.942
 316  1008.833
 317  909.2634
 318  855.5239
 319  869.4253
 320  912.6496
 321  1025.888
 322  1056.807
 323  991.4742
 324  948.6627
 325  910.7811
 326  826.092
 327  873.9407
 328  846.2554
 329  920.4114
 330  970.2252
 331  999.4771
 332  922.4387
 333  1010.852
 334  1026.024
 335  986.5098
 336  1021.56
 337  1026.64
 338  969.9556
 339  968.4905
 340  1028.498
 341  943.2084
 342  932.7077
 343  832.0124
 344  884.2069
 345  923.5641
 346  943.8683
 347  968.6161
 348  917.1471
 349  943.8506
 350  1011.321
 351  1038.656
 352  1006.032
 353  987.1994
 354  979.8292
 355  979.9159
 356  895.1039
 357  858.7037
 358  1032.953
 359  1062.231
 360  983.9055
 361  948.4283
 362  1010.409
 363  1022.304
 364  1037.347
 365  1052.18
 366  1060.912
 367  968.2374
 368  970.0461
 369  1037.472
 370  997.0801
 371  914.9454
 372  969.8719
 373  1111.697
 374  1065.585
 375  1002.608
 376  990.9559
 377  1019.784
 378  1053.199
 379  1062.352
 380  1043.231
 381  922.1683
 382  953.6632
 383  1125.017
 384  1058.37
 385  976.2127
 386  1072.709
 387  1051.556
 388  969.233
 389  941.0632
 390  988.2678
 391  1015.28
 392  1025.314
 393  1075.043
 394  1020.992
 395  1034.643
 396  1012.885
 397  939.8415
 398  929.2453
 399  1036.347
 400  1038.797
 401  968.992
 402  917.8631
 403  956.2426
 404  1041.438
 405  1101.678
 406  960.7794
 407  959.2095
 408  913.7612
 409  832.4545
 410  897.9147
 411  945.5131
 412  938.1118
 413  1051.685
 414  996.3795
 415  945.5971
 416  988.83
 417  937.7849
 418  1019.595
 419  1067.477
 420  936.3013
 421  879.5057
 422  1025.704
 423  1113.287
 424  1072.741
 425  1096.829
 426  1093.692
 427  1127.88
 428  1084.061
 429  1116.791
 430  1094.711
 431  947.1591
 432  975.6229
 433  950.6992
 434  979.9695
 435  974.344
 436  936.8881
 437  1008.291
 438  1101.652
 439  1027.967
 440  1032.309
 441  1014.814
 442  1034.201
 443  1064.996
 444  1021.691
 445  968.966
 446  1005.83
 447  1057.26
 448  1020.277
 449  903.6301
 450  813.5637
 451  907.3501
 452  970.8564
 453  1001.277
 454  1042.754
 455  1048.059
 456  1095.622
 457  1007.094
 458  971.6008
 459  982.4841
 460  896.5801
 461  946.54
 462  1027.921
 463  1024.424
 464  981.4721
 465  941.5415
 466  905.6256
 467  950.8519
 468  898.2057
 469  915.649
 470  914.4222
 471  933.0692
 472  837.9717
 473  903.8223
 474  930.4411
 475  903.5972
 476  905.4772
 477  899.6619
 478  902.199
 479  825.5785
 480  894.2458
 481  922.8617
 482  934.5706
 483  1075.476
 484  1023.548
 485  961.7056
 486  939.3519
 487  986.9314
 488  978.5361
 489  984.5258
 490  978.8972
 491  961.3802
 492  990.619
 493  901.7353
 494  903.7214
 495  946.9772
 496  910.5888
 497  1029.817
 498  952.0345
 499  1045.729
 500  1011.064
 501  955.798
 502  1034.279
 503  1020.291
 504  966.4216
 505  997.5355
 506  1037.137
 507  1073.959
 508  1087.954
 509  1065.968
 510  1097.097
 511  991.5759
