# Input file       =  1196435398.113372_cleaned.dat
# Candidate        =  PSR_0332+5434
# Telescope        =  AR
# Epoch_topo       =  58091.632142515882
# Epoch_bary       =  N/A
# T_sample         =  0.002
# Data Folded      =  7208960
# Data Avg         =  0.549157490345269
# Data StdDev      =  6.70053028016113 
# Profile Bins     =  512
# Profile Avg      =  7731.72591841199 
# Profile StdDev   =  795.079400423514 
# Reduced chi-sqr  =  0.564
# Prob(Noise)      <  1   (~0.0 sigma)
# P_topo (ms)      =  714.529398707629  +/- 0.00015
# P'_topo (s/s)    =  -0                +/- 8.08e-11
# P''_topo (s/s^2) =  0                 +/- 3.63e-14
# P_bary (ms)      =  N/A
# P'_bary (s/s)    =  N/A
# P''_bary (s/s^2) =  N/A
# P_orb (s)        =  N/A
# asin(i)/c (s)    =  N/A
# eccentricity     =  N/A
# w (rad)          =  N/A
# T_peri           =  N/A
######################################################
   0  7284.968
   1  7403.145
   2  7749.171
   3  7948.898
   4  8258.651
   5  7864.319
   6  7684.04
   7  7371.594
   8  7974.422
   9  8634.061
  10  8277.87
  11  7908.396
  12  7507.181
  13  7683.9
  14  8071.412
  15  7644.494
  16  7879.75
  17  7991.265
  18  7638.655
  19  7786.824
  20  7807.246
  21  8247.884
  22  7918.213
  23  7889.471
  24  7349.885
  25  7655.415
  26  8070.063
  27  8130.852
  28  8409.316
  29  8493.658
  30  7676.803
  31  7463.702
  32  7085.618
  33  7641.835
  34  7508.253
  35  8295.8
  36  8371.025
  37  8058.371
  38  7188.098
  39  7368.627
  40  7654.011
  41  8041.772
  42  8140.164
  43  7743.578
  44  7316.555
  45  7666.833
  46  8146.017
  47  7601.784
  48  8051.667
  49  7901.14
  50  7910.159
  51  7991.034
  52  7925.939
  53  7634.34
  54  6757.485
  55  7139.748
  56  7704.38
  57  8006.227
  58  7789.63
  59  7748.257
  60  8115.7
  61  8127.755
  62  8206.634
  63  7602.884
  64  7552.37
  65  7310.372
  66  7408.351
  67  7986.195
  68  8511.529
  69  9133.593
  70  8436.576
  71  7903.214
  72  7663.099
  73  7907.559
  74  7998.126
  75  7558.049
  76  8373.106
  77  8033.365
  78  7925.293
  79  7610.412
  80  7622.3
  81  7712.015
  82  8001.897
  83  8408.897
  84  8362.343
  85  8081.799
  86  7259.849
  87  7494.444
  88  7768.821
  89  8230.604
  90  8398.257
  91  7959.523
  92  7984.683
  93  7516.379
  94  7263.075
  95  6875.57
  96  7351.202
  97  7355.953
  98  7435.028
  99  7327.742
 100  7254.751
 101  7519.598
 102  7343.576
 103  7463.469
 104  7792.276
 105  7335.31
 106  6897.834
 107  7088.98
 108  7883.378
 109  7800.096
 110  7771.187
 111  7786.546
 112  7952.051
 113  7522.763
 114  7529.624
 115  7557.999
 116  7701.208
 117  7950.031
 118  7819.296
 119  8433.172
 120  8245.574
 121  8194.478
 122  7514.526
 123  7562.755
 124  8056.349
 125  7539.038
 126  7927.23
 127  7981.522
 128  8034.85
 129  8089.502
 130  7985.849
 131  8027.295
 132  7666.972
 133  8042.632
 134  8104.336
 135  7986.018
 136  7875.564
 137  7791.721
 138  7851.165
 139  7326.374
 140  7063.108
 141  7513.665
 142  7680.209
 143  7506.843
 144  7737.93
 145  7972.91
 146  7298.698
 147  6899.885
 148  6900.382
 149  7421.757
 150  7813.819
 151  7486.944
 152  7534.615
 153  6989.63
 154  7356.755
 155  7597.64
 156  7430.023
 157  7588.138
 158  7753.365
 159  8029.253
 160  8389.784
 161  8446.968
 162  9032.337
 163  9140.703
 164  8706.51
 165  8369.892
 166  8644.343
 167  8485.072
 168  8055.459
 169  8232.66
 170  8187.216
 171  8182.874
 172  8162.518
 173  8317.946
 174  7952.033
 175  7557.903
 176  7055.256
 177  7291.716
 178  8104.15
 179  7709.146
 180  7570.72
 181  7286.925
 182  7489.633
 183  7309.791
 184  7772.585
 185  7504.057
 186  7889.877
 187  8701.25
 188  8026.527
 189  8669.376
 190  8611.417
 191  8384.112
 192  8240.037
 193  7996.456
 194  8215.94
 195  7567.953
 196  7456.217
 197  7578.579
 198  8022.485
 199  7957.836
 200  7794.926
 201  7989.957
 202  7715.137
 203  8367.237
 204  7565.277
 205  7930.088
 206  7792.183
 207  8122.353
 208  7730.544
 209  8321.162
 210  7778.969
 211  7386.141
 212  7504.613
 213  7285.331
 214  8017.01
 215  8061.606
 216  8012.943
 217  8048.915
 218  8460.361
 219  8632.213
 220  8108.735
 221  8386.476
 222  8446.102
 223  8746.934
 224  8148.273
 225  7842.814
 226  7883.754
 227  7707.915
 228  8254.931
 229  7842.568
 230  8102.54
 231  7677.156
 232  7684.948
 233  7608.755
 234  7455.177
 235  7918.955
 236  7893.381
 237  8288.062
 238  8012.753
 239  7427.208
 240  7881.567
 241  8415.623
 242  8674.888
 243  8074.699
 244  8246.822
 245  7783.789
 246  7942.943
 247  7624.548
 248  7927.448
 249  7390.586
 250  7816.033
 251  8238.6
 252  8155.972
 253  8392.85
 254  7365.839
 255  6737.665
 256  7068.596
 257  7191.233
 258  7237.332
 259  7424.249
 260  7496
 261  7723.954
 262  8361.429
 263  8059.299
 264  7657.02
 265  7478.645
 266  7687.458
 267  8120.253
 268  7516.037
 269  7114.774
 270  7236.346
 271  7029.754
 272  7865.168
 273  7987.242
 274  7601.596
 275  7443.448
 276  7598.408
 277  7307.125
 278  7580.747
 279  7711.178
 280  7448.421
 281  7361.627
 282  6733.175
 283  7024.25
 284  7016.338
 285  7357.11
 286  7599.421
 287  7099.337
 288  6893.423
 289  7592.689
 290  6849.523
 291  7491.198
 292  7191.799
 293  7241.792
 294  7686.105
 295  7636.197
 296  7745.314
 297  7203.215
 298  7423.086
 299  7434.725
 300  7258.399
 301  7280.423
 302  7918.48
 303  7946.325
 304  7923.999
 305  7591.815
 306  7687.268
 307  6869.878
 308  6558.253
 309  7288.086
 310  6980.122
 311  7563.362
 312  7576.898
 313  7365.439
 314  7286.66
 315  7152.665
 316  7256.034
 317  7288.655
 318  7915.902
 319  7541.668
 320  7628.334
 321  7193.164
 322  7537.35
 323  7925.168
 324  7718.576
 325  8197.772
 326  7720.724
 327  7892.066
 328  7894.595
 329  7382.868
 330  7995.826
 331  8327.573
 332  8635.292
 333  8330.085
 334  8679.562
 335  8343.272
 336  8445.443
 337  8142.188
 338  8116.093
 339  7595.59
 340  7591.055
 341  8067.184
 342  7469.392
 343  7198.107
 344  7752.595
 345  7645.104
 346  7369.052
 347  7512.891
 348  7677.969
 349  7406.811
 350  7318.289
 351  7109.138
 352  7513.931
 353  7969.128
 354  7798.209
 355  7697.749
 356  7177.885
 357  7043.854
 358  6968.808
 359  8018.326
 360  8262.876
 361  7969.439
 362  8011.358
 363  7921.916
 364  8142.19
 365  7682.982
 366  7715.091
 367  7702.825
 368  7774.642
 369  7453.426
 370  7327.204
 371  7784.918
 372  7734.09
 373  7997.594
 374  6832.128
 375  6836.334
 376  6825.941
 377  7032.323
 378  7339.146
 379  8057.664
 380  8561.999
 381  8247.786
 382  7731.028
 383  7688.516
 384  7339.596
 385  7893.715
 386  7727.264
 387  8364.722
 388  7817.429
 389  8201.691
 390  7828.942
 391  7999.719
 392  8044.018
 393  7494.366
 394  7709.719
 395  7748.058
 396  7615.125
 397  7629.988
 398  7481.714
 399  7655.571
 400  7678.2
 401  7791.116
 402  7783.476
 403  7943.223
 404  7755.791
 405  8201.486
 406  8185.359
 407  7844.458
 408  7966.472
 409  7855.583
 410  8049.958
 411  8163.928
 412  7660.262
 413  7919.037
 414  7773.741
 415  7972.527
 416  8433.904
 417  8049.311
 418  7975.094
 419  7589.785
 420  7817.903
 421  8040.632
 422  8198.125
 423  8158.229
 424  8003.418
 425  7799.585
 426  7594.357
 427  7493.965
 428  7428.766
 429  7626.758
 430  8180.744
 431  8086.362
 432  7993.844
 433  8075.401
 434  7958.931
 435  7166.599
 436  7317.568
 437  7725.387
 438  8551.709
 439  7636.346
 440  7207.197
 441  7288.383
 442  7243.65
 443  6655.313
 444  6693.219
 445  7281.962
 446  7300.14
 447  7676.053
 448  7327.066
 449  6909.72
 450  7449.96
 451  7528.105
 452  8010.509
 453  8229.254
 454  8725.813
 455  8370.758
 456  7860.091
 457  7662.319
 458  7718.994
 459  8424.304
 460  7848.128
 461  7648.062
 462  7895.333
 463  7714.963
 464  7202.4
 465  7866.598
 466  8161.21
 467  7786.926
 468  7184.34
 469  6800.024
 470  7299.03
 471  7077.248
 472  7448.607
 473  7598.413
 474  7457.225
 475  7283.306
 476  7300.026
 477  7698.34
 478  7130.355
 479  7356.333
 480  7960.673
 481  7954.512
 482  7750.119
 483  7028.205
 484  7298.805
 485  6798.042
 486  6837.61
 487  7354.823
 488  7798.532
 489  7735.588
 490  7622.461
 491  7388.032
 492  7373.385
 493  7279.733
 494  7313.325
 495  7459.504
 496  7399.079
 497  7820.642
 498  7806.985
 499  7712.824
 500  8248.989
 501  7615.619
 502  7653.115
 503  7102.808
 504  7763.609
 505  7522.312
 506  7397.269
 507  7693.126
 508  7271.958
 509  6956.261
 510  6566.521
 511  6902.313
