# Input file       =  1196349189.112123_cleaned.dat
# Candidate        =  PSR_0332+5434
# Telescope        =  AR
# Epoch_topo       =  58090.634353149573
# Epoch_bary       =  N/A
# T_sample         =  0.002
# Data Folded      =  7208960
# Data Avg         =  0.169549195689615
# Data StdDev      =  6.23368567257702 
# Profile Bins     =  1024
# Profile Avg      =  1193.63616245108 
# Profile StdDev   =  523.035575208822 
# Reduced chi-sqr  =  0.569
# Prob(Noise)      <  1   (~0.0 sigma)
# P_topo (ms)      =  714.528375518866  +/- 8.02e-05
# P'_topo (s/s)    =  -0                +/- 4.31e-11
# P''_topo (s/s^2) =  0                 +/- 1.94e-14
# P_bary (ms)      =  N/A
# P'_bary (s/s)    =  N/A
# P''_bary (s/s^2) =  N/A
# P_orb (s)        =  N/A
# asin(i)/c (s)    =  N/A
# eccentricity     =  N/A
# w (rad)          =  N/A
# T_peri           =  N/A
######################################################
   0  1218.764
   1  964.7541
   2  891.0544
   3  882.4065
   4  803.6507
   5  906.2873
   6  942.4708
   7  1020.067
   8  1528.582
   9  1774.828
  10  1752.648
  11  1465.688
  12  1278.185
  13  1225.635
  14  1091.385
  15  871.6094
  16  936.0197
  17  800.187
  18  891.6743
  19  931.3647
  20  847.3003
  21  717.9931
  22  954.9044
  23  1321.668
  24  1582.387
  25  1423.806
  26  1480.232
  27  1638.206
  28  1507.302
  29  1376.045
  30  1333.702
  31  1210.109
  32  1135.252
  33  1128.132
  34  1083.287
  35  883.9426
  36  748.1912
  37  1131.87
  38  1307.854
  39  1122.529
  40  1106.114
  41  1255.521
  42  1309.851
  43  1187.146
  44  1151.032
  45  1252.337
  46  1261.434
  47  1077.718
  48  1113.255
  49  914.8735
  50  731.2233
  51  1081.335
  52  1191.419
  53  1213.182
  54  987.7058
  55  1062.39
  56  1312.788
  57  1291.707
  58  1143.866
  59  1193.422
  60  1045.358
  61  1075.837
  62  1144.565
  63  1192.676
  64  1067.179
  65  1118.36
  66  1426.022
  67  1612.135
  68  1342.776
  69  1292.445
  70  1437.859
  71  1431.937
  72  1165.269
  73  1267.284
  74  1185.462
  75  1341.634
  76  1326.983
  77  1436.198
  78  1447.603
  79  1253.332
  80  1517.774
  81  1634.58
  82  1376.781
  83  1118.817
  84  1109.032
  85  1093.835
  86  1071.561
  87  1029.919
  88  1182.483
  89  1269.725
  90  1094.533
  91  1133.217
  92  1054.279
  93  1114.178
  94  1281.602
  95  1418.166
  96  1398.983
  97  1176.581
  98  1060.5
  99  1015.272
 100  883.6766
 101  795.5065
 102  1182.546
 103  1150.787
 104  1035.951
 105  1007.373
 106  1103.3
 107  1116.356
 108  1380.117
 109  1549.862
 110  1673.433
 111  1399.44
 112  1355.702
 113  1390.412
 114  1323.105
 115  1243.155
 116  1244.267
 117  920.7587
 118  945.4714
 119  828.8505
 120  957.4429
 121  944.8386
 122  957.8819
 123  1328.354
 124  1543.975
 125  1455.878
 126  1226.097
 127  1100.115
 128  956.6177
 129  937.6273
 130  1017.837
 131  982.1921
 132  851.9887
 133  756.0931
 134  1009.257
 135  987.3497
 136  873.5465
 137  880.7176
 138  930.1969
 139  957.5594
 140  930.8283
 141  1024.957
 142  1109.364
 143  1015.833
 144  980.7349
 145  1303.901
 146  1240.697
 147  967.3984
 148  766.4835
 149  848.4142
 150  734.8468
 151  897.0806
 152  879.1898
 153  1112.176
 154  787.2366
 155  811.2891
 156  1056.687
 157  1110.334
 158  1130.683
 159  1203.984
 160  1303.377
 161  1399.539
 162  1276.408
 163  1214.899
 164  1124.176
 165  921.4861
 166  1079.338
 167  1278.965
 168  1061.262
 169  1039.423
 170  1020.68
 171  1085.71
 172  1238.035
 173  1136.35
 174  1335.709
 175  1283.352
 176  1301.408
 177  1409.958
 178  1472.984
 179  1199.615
 180  1319.699
 181  1376.825
 182  1347.293
 183  840.5385
 184  781.4532
 185  866.3818
 186  888.8982
 187  862.8121
 188  1134.58
 189  1093.061
 190  1027.655
 191  1138.706
 192  1154.361
 193  1108.032
 194  1217.01
 195  1312.645
 196  1437.889
 197  1181.589
 198  1213.556
 199  1416.046
 200  1303.715
 201  1125.691
 202  1162.686
 203  1290.692
 204  1478.494
 205  1320.347
 206  1153.909
 207  1081.219
 208  1199.166
 209  1508.41
 210  1560.728
 211  1313.99
 212  1125.834
 213  1103.022
 214  1109.413
 215  1186.923
 216  1269.059
 217  1238.223
 218  1184.026
 219  933.8994
 220  847.9282
 221  882.9967
 222  975.6158
 223  1369.676
 224  1522.819
 225  1486.454
 226  1338.905
 227  1042.278
 228  1023.092
 229  1024.821
 230  831.6664
 231  845.6158
 232  600.5208
 233  672.4413
 234  855.1638
 235  1114.781
 236  1390.951
 237  1311.712
 238  1120.615
 239  1112.247
 240  947.2939
 241  822.7687
 242  986.353
 243  1151.487
 244  1288.222
 245  1114.712
 246  1048.78
 247  1066.129
 248  1000.79
 249  909.9653
 250  934.0013
 251  857.3713
 252  756.2159
 253  757.2885
 254  790.4482
 255  1114.791
 256  1101.709
 257  1223.681
 258  1191.248
 259  1135.555
 260  1098.237
 261  1140.973
 262  951.5537
 263  973.034
 264  1106.054
 265  1129.715
 266  1130.717
 267  1091.237
 268  1226.178
 269  1243.701
 270  1222.605
 271  1228.845
 272  1376.365
 273  1231.607
 274  1422.506
 275  1386.679
 276  1554.663
 277  1404.407
 278  1254.401
 279  1155.75
 280  1052.806
 281  809.3587
 282  908.333
 283  766.6111
 284  731.5186
 285  795.039
 286  908.6518
 287  1118.471
 288  1292.75
 289  1268.127
 290  1331.478
 291  1331.108
 292  1346.375
 293  1272.45
 294  1174.76
 295  1273.131
 296  1302.181
 297  1161.253
 298  1162.716
 299  1219.297
 300  1255.322
 301  1165.181
 302  985.5652
 303  928.1046
 304  1103.18
 305  1102.37
 306  1165.29
 307  1248.385
 308  1175.446
 309  1177.302
 310  999.8524
 311  1075.036
 312  1169.805
 313  1057.223
 314  1032.213
 315  1085.585
 316  992.2649
 317  1127.79
 318  1016.056
 319  920.3188
 320  900.6653
 321  868.088
 322  1024.703
 323  1039.195
 324  903.147
 325  1044.27
 326  969.6536
 327  972.8346
 328  996.2912
 329  913.7886
 330  764.7067
 331  676.8184
 332  739.4528
 333  989.4993
 334  845.6633
 335  652.7957
 336  747.1923
 337  890.2147
 338  1210.158
 339  1031.477
 340  958.2784
 341  1006.241
 342  1125.744
 343  1168.134
 344  1098.932
 345  888.5668
 346  835.1698
 347  964.5355
 348  1014.722
 349  897.7415
 350  807.4343
 351  779.2019
 352  971.5407
 353  1027.444
 354  1102.264
 355  1057.581
 356  963.3325
 357  1193.364
 358  1350.087
 359  1321.175
 360  1313.732
 361  1203.319
 362  1278.868
 363  1316.752
 364  1149.948
 365  1147.567
 366  1103.832
 367  1057.936
 368  984.7579
 369  1002.13
 370  1036.379
 371  1213.836
 372  1186.697
 373  1232.562
 374  1272.865
 375  1111.868
 376  1208.982
 377  1232.974
 378  1110.569
 379  1097.362
 380  1099.258
 381  1391.442
 382  1295.502
 383  1116.22
 384  1106.888
 385  997.0922
 386  1008.523
 387  1225.8
 388  1160.709
 389  1056.652
 390  1131.284
 391  1218.417
 392  1266.535
 393  1152.646
 394  1052.506
 395  1253.809
 396  1152.332
 397  1127.01
 398  1100.696
 399  1028.837
 400  996.3272
 401  1080.632
 402  1031.838
 403  989.4026
 404  632.0062
 405  740.4343
 406  978.1962
 407  881.9872
 408  925.4568
 409  866.943
 410  959.3172
 411  929.136
 412  1080.634
 413  1183.125
 414  1260.693
 415  1159.513
 416  1214.665
 417  1279.235
 418  1020.256
 419  1020.415
 420  957.023
 421  1010.372
 422  961.1054
 423  861.2917
 424  1106.133
 425  1325.891
 426  1344.416
 427  1351.451
 428  1060.691
 429  793.5144
 430  899.2928
 431  1019.201
 432  1007.924
 433  1011.413
 434  1059.087
 435  1282.543
 436  1160.849
 437  1137.26
 438  1280.592
 439  1165.416
 440  1138.3
 441  1087.789
 442  961.9064
 443  1007.451
 444  1052.749
 445  1104.971
 446  1134.562
 447  1070.962
 448  1342.972
 449  1539.336
 450  1540.878
 451  1499.259
 452  1529.168
 453  1438.904
 454  1459.344
 455  1257.592
 456  1197.818
 457  1128.537
 458  1160.973
 459  1255.213
 460  1289.868
 461  1091.791
 462  1202.438
 463  1129.487
 464  1088.792
 465  1020.247
 466  1144.996
 467  1301.501
 468  1347.075
 469  1231.139
 470  1286.561
 471  1189.588
 472  1058.879
 473  1164.818
 474  1053.404
 475  1112.368
 476  1201.77
 477  1261.953
 478  1325.533
 479  1248.131
 480  1255.991
 481  1280.766
 482  1159.263
 483  989.9954
 484  1215.991
 485  1063.158
 486  1066.561
 487  956.7185
 488  1093.443
 489  1415.514
 490  1283.5
 491  1246.746
 492  998.8624
 493  884.244
 494  1000.706
 495  1241.459
 496  1133.881
 497  1045.276
 498  940.9328
 499  966.1732
 500  1023.86
 501  961.2267
 502  1165.061
 503  1329.922
 504  1230.285
 505  1363.588
 506  1452.245
 507  1438.745
 508  1331.692
 509  1265.955
 510  1554.925
 511  1565.025
 512  1338.202
 513  1320.493
 514  1299.003
 515  1132.115
 516  1141.63
 517  1038.844
 518  1153.206
 519  1118.378
 520  1105.595
 521  1090.061
 522  1029.546
 523  1006.321
 524  1338.433
 525  1213.77
 526  1164.544
 527  1170.714
 528  1313.314
 529  1316.999
 530  1240.708
 531  1207.375
 532  1248.657
 533  1024.927
 534  1148.891
 535  1302.96
 536  1378.181
 537  1211.152
 538  1438.197
 539  1515.913
 540  1600.663
 541  1387.417
 542  1299.406
 543  1316.793
 544  1206.632
 545  1261.281
 546  1354.487
 547  1190.62
 548  1290.755
 549  1271.993
 550  1243.446
 551  1167.159
 552  1201.842
 553  1400.065
 554  1341.073
 555  1250.842
 556  1205.331
 557  1154.97
 558  1069.328
 559  1263.492
 560  1258.656
 561  1243.347
 562  1220.73
 563  1344.958
 564  1496.929
 565  1413.752
 566  1212.41
 567  1289.219
 568  1289.358
 569  1077.877
 570  1180.993
 571  1120.387
 572  1225.853
 573  1183.014
 574  1326.58
 575  1524.421
 576  1339.43
 577  1330.821
 578  1459.857
 579  1323.521
 580  1227.252
 581  1229.774
 582  1248.492
 583  1207.892
 584  1175.24
 585  1231.693
 586  1233.662
 587  1065.08
 588  1309.645
 589  1394.645
 590  1229.005
 591  1245.597
 592  1367.243
 593  1290.164
 594  1175.347
 595  1098.761
 596  1218.403
 597  1158.882
 598  948.0118
 599  1079.083
 600  1040.009
 601  988.3298
 602  1267.429
 603  1317.857
 604  1319.501
 605  1309.02
 606  1639.451
 607  1807.329
 608  1586.604
 609  1453.415
 610  1580.72
 611  1437.631
 612  1114.699
 613  1073.415
 614  1169.037
 615  1211.135
 616  1241.703
 617  1243.441
 618  1385.218
 619  1166.474
 620  1244.761
 621  1608.757
 622  1732.266
 623  1581.554
 624  1657.027
 625  1651.148
 626  1788.361
 627  1682.182
 628  1834.585
 629  1836.627
 630  1733.708
 631  1653.829
 632  1636.256
 633  1345.091
 634  1248.243
 635  1274.309
 636  1224.715
 637  1040.352
 638  997.8958
 639  1262.357
 640  1391.408
 641  1208.475
 642  1330.252
 643  1434.103
 644  1357.849
 645  1399.744
 646  1399.471
 647  1528.718
 648  1425.505
 649  1462.961
 650  1566.859
 651  1540.064
 652  1413.583
 653  1473.412
 654  1484.431
 655  1332.344
 656  1502.852
 657  1582.927
 658  1499.852
 659  1255.274
 660  1200.585
 661  1373.33
 662  1238.38
 663  1147.887
 664  1214.532
 665  980.2344
 666  1041.625
 667  1212.54
 668  1285.383
 669  1242.412
 670  949.3855
 671  1081.123
 672  1370.105
 673  1277.586
 674  1256.736
 675  1320.048
 676  1203.003
 677  1011.695
 678  952.6185
 679  1081.582
 680  934.0377
 681  822.8871
 682  1054.896
 683  1232.307
 684  1185.397
 685  1250.514
 686  1416.085
 687  1351.872
 688  1322.767
 689  1446.28
 690  1405.17
 691  1369.743
 692  1213.549
 693  1295.666
 694  1071.003
 695  677.5723
 696  883.5959
 697  983.2613
 698  1031.458
 699  993.7281
 700  981.7328
 701  961.9611
 702  932.313
 703  1042.734
 704  1370.956
 705  1334.408
 706  1185.701
 707  1287.726
 708  1093.52
 709  1072.607
 710  1244.924
 711  1522.675
 712  1476.555
 713  1113.467
 714  989.025
 715  1018.278
 716  820.3041
 717  800.574
 718  992.4283
 719  990.6496
 720  912.827
 721  906.7493
 722  918.4806
 723  994.873
 724  861.2432
 725  996.3007
 726  995.881
 727  719.1861
 728  843.0344
 729  1151.974
 730  1273.021
 731  1159.908
 732  1162.149
 733  1240.761
 734  1245.059
 735  1152.56
 736  1438.228
 737  1305.717
 738  1036.852
 739  1167.635
 740  1338.857
 741  1254.569
 742  1071.31
 743  1081.98
 744  1226.749
 745  1068.59
 746  1039.417
 747  1286.175
 748  1237.41
 749  1115.678
 750  1297.754
 751  1384.559
 752  1290.649
 753  1220.617
 754  1357.147
 755  1461.047
 756  1303.552
 757  1213.788
 758  1211.547
 759  1086.23
 760  1019.916
 761  1067.768
 762  1138.941
 763  1218.254
 764  1234.256
 765  1430.484
 766  1475.303
 767  1374.271
 768  1439.754
 769  1502.86
 770  1235.8
 771  1169.575
 772  1057.887
 773  935.41
 774  924.4659
 775  904.7661
 776  962.1478
 777  755.9965
 778  678.489
 779  783.2906
 780  1003.549
 781  928.5555
 782  946.001
 783  904.0779
 784  1046.326
 785  1131.013
 786  1082.831
 787  1128.299
 788  1227.45
 789  1181.654
 790  1294.378
 791  997.194
 792  779.9191
 793  917.6731
 794  897.0487
 795  1027.083
 796  1003.543
 797  1071.601
 798  1212.37
 799  1079.936
 800  1100.393
 801  1095.301
 802  1015.221
 803  1119.483
 804  1212.078
 805  1112.519
 806  1154.42
 807  1423.007
 808  1574.162
 809  1542.128
 810  1344.365
 811  1438.484
 812  1563.794
 813  1351.079
 814  1425.584
 815  1253.986
 816  1032.838
 817  1191.791
 818  1268.833
 819  1430.033
 820  1405.07
 821  1479.676
 822  1787.491
 823  1675.889
 824  1519.633
 825  1495.257
 826  1436.166
 827  1432.573
 828  1319.445
 829  1154.702
 830  1003.545
 831  851.6145
 832  939.1309
 833  1245.286
 834  1530.405
 835  1662.951
 836  1761.498
 837  1651.14
 838  1575.337
 839  1718.656
 840  1619.872
 841  1561.646
 842  1354.986
 843  1204.485
 844  1035.233
 845  989.7395
 846  1136.908
 847  1265.627
 848  1283.904
 849  1473.244
 850  1587.347
 851  1516.025
 852  1580.918
 853  1526.885
 854  1431.361
 855  1516.423
 856  1448.082
 857  1629.328
 858  1500.816
 859  1298.985
 860  1431.305
 861  1203.037
 862  1190.738
 863  1164.117
 864  1353.454
 865  1497.219
 866  1486.599
 867  1403
 868  1479.908
 869  1453.169
 870  1593.743
 871  1527.725
 872  1470.182
 873  1415.743
 874  1573.267
 875  1461.479
 876  1574.999
 877  1345.468
 878  1354.01
 879  1400.357
 880  1160.682
 881  995.0313
 882  1159.114
 883  1288.802
 884  1448.737
 885  1292.512
 886  1334.131
 887  1268.146
 888  1205.782
 889  1242.895
 890  1298.183
 891  1093.563
 892  1161.113
 893  1028.661
 894  1121.772
 895  1176.248
 896  1261.778
 897  1165.581
 898  1229.923
 899  1200.326
 900  1224.902
 901  1012.863
 902  882.6239
 903  1028.057
 904  994.834
 905  955.2693
 906  1002.047
 907  974.7549
 908  991.7793
 909  1239.051
 910  1286.03
 911  1445.092
 912  1171.585
 913  1257.907
 914  1350.911
 915  1101.378
 916  943.3216
 917  928.5536
 918  1019.1
 919  1192.398
 920  1147.659
 921  1021.463
 922  1130.927
 923  1114.053
 924  1219.822
 925  1364.009
 926  1210.58
 927  1198.917
 928  1081.943
 929  1074.308
 930  1129.642
 931  915.5557
 932  1108.198
 933  1216.981
 934  1165.014
 935  1469.968
 936  1499.692
 937  1620.08
 938  1454.414
 939  1476.344
 940  1454.651
 941  1354.679
 942  1073.748
 943  985.9377
 944  879.8881
 945  699.5846
 946  905.8892
 947  982.7748
 948  1157.984
 949  1228.125
 950  1216.509
 951  1410.492
 952  1449.695
 953  1539.82
 954  1634.23
 955  1590.607
 956  1736.126
 957  1688.187
 958  1361.544
 959  1095.222
 960  1000.924
 961  1100.866
 962  1222.293
 963  1123.88
 964  1134.589
 965  1291.797
 966  1312.868
 967  1487.213
 968  1650.608
 969  1719.562
 970  1850.702
 971  1605.302
 972  1506.473
 973  1383.119
 974  1288.687
 975  1216.835
 976  1097.031
 977  852.176
 978  1058.084
 979  1085.836
 980  1247.706
 981  1238.917
 982  1432.447
 983  1507.345
 984  1512.42
 985  1531.048
 986  1572.187
 987  1485.018
 988  1191.181
 989  1183.68
 990  1079.724
 991  970.7155
 992  1084.115
 993  1037.674
 994  1145.828
 995  1071.342
 996  1076.175
 997  1253.096
 998  1135.605
 999  1053.721
1000  1142.96
1001  1026.942
1002  1191.242
1003  1282.371
1004  1410.094
1005  1449.452
1006  1309.425
1007  1393.119
1008  1432.57
1009  1258.903
1010  1225.598
1011  1495.244
1012  1654.597
1013  1728.227
1014  1621.546
1015  1407.197
1016  1490.481
1017  1438.95
1018  1614.317
1019  1568.853
1020  1497.4
1021  1685.391
1022  1746.869
1023  1509.754
