# Input file       =  1196895256.11244_cleaned.dat
# Candidate        =  PSR_0332+5434
# Telescope        =  AR
# Epoch_topo       =  58096.954573060648
# Epoch_bary       =  N/A
# T_sample         =  0.002
# Data Folded      =  7340032
# Data Avg         =  0.229474711171601
# Data StdDev      =  4.24934190155058 
# Profile Bins     =  1024
# Profile Avg      =  1644.9615715013  
# Profile StdDev   =  359.766461030053 
# Reduced chi-sqr  =  0.597
# Prob(Noise)      <  1   (~0.0 sigma)
# P_topo (ms)      =  714.535185599239  +/- 0.000635
# P'_topo (s/s)    =  -0                +/- 3.35e-10
# P''_topo (s/s^2) =  0                 +/- 1.48e-13
# P_bary (ms)      =  N/A
# P'_bary (s/s)    =  N/A
# P''_bary (s/s^2) =  N/A
# P_orb (s)        =  N/A
# asin(i)/c (s)    =  N/A
# eccentricity     =  N/A
# w (rad)          =  N/A
# T_peri           =  N/A
######################################################
   0  1396.604
   1  1205.507
   2  1178.53
   3  1118.972
   4  1175.343
   5  1397.207
   6  1473.82
   7  1661.294
   8  1702.621
   9  1772.733
  10  1757.31
  11  1563.252
  12  1451.734
  13  1400.28
  14  1453.592
  15  1490.508
  16  1460.527
  17  1550.578
  18  1563.275
  19  1621.783
  20  1438.547
  21  1420.594
  22  1501.072
  23  1648.529
  24  1704.001
  25  1639.605
  26  1645.636
  27  1546.917
  28  1528.503
  29  1568.903
  30  1590.833
  31  1402.433
  32  1365.582
  33  1308.689
  34  1243.037
  35  1248.576
  36  1372.491
  37  1697.813
  38  1850.766
  39  1821.353
  40  1804.459
  41  1658.639
  42  1600.826
  43  1429.388
  44  1351.007
  45  1378.091
  46  1579.977
  47  1546.515
  48  1622.84
  49  1430.415
  50  1549.21
  51  1480.894
  52  1551.9
  53  1599.553
  54  1522.787
  55  1492.458
  56  1423.335
  57  1427.193
  58  1529.676
  59  1604.73
  60  1618.42
  61  1563.637
  62  1552.362
  63  1528.152
  64  1592.867
  65  1505.014
  66  1465.609
  67  1662.253
  68  1752.801
  69  1788.638
  70  1459.507
  71  1457.69
  72  1524.441
  73  1667.065
  74  1632.566
  75  1581.138
  76  1446.33
  77  1529.032
  78  1569.097
  79  1614.531
  80  1709.341
  81  1773.167
  82  1795.215
  83  1778.345
  84  1670.926
  85  1722.143
  86  1690.153
  87  1775.43
  88  1775.699
  89  1748.277
  90  1680.033
  91  1749.426
  92  1747.214
  93  1866.873
  94  1936.706
  95  1993.804
  96  1936.935
  97  1732.473
  98  1696.785
  99  1580.884
 100  1605.317
 101  1517.763
 102  1621.103
 103  1551.901
 104  1598.17
 105  1701.187
 106  1648.359
 107  1702.3
 108  1723.743
 109  1918.603
 110  1885.22
 111  1769.411
 112  1676.631
 113  1680.867
 114  1656.651
 115  1813.447
 116  1973.955
 117  1913.014
 118  1799.789
 119  1812.106
 120  1891.541
 121  1761.613
 122  1624.768
 123  1678.046
 124  1637.345
 125  1645.37
 126  1699.75
 127  1775.624
 128  1737.459
 129  1792.601
 130  1783.72
 131  1814.823
 132  1629.636
 133  1492.95
 134  1458.134
 135  1439.88
 136  1533.23
 137  1670.625
 138  1703.561
 139  1675.464
 140  1610.788
 141  1662.788
 142  1643.936
 143  1500.391
 144  1491.606
 145  1602.718
 146  1642.853
 147  1687.421
 148  1735.245
 149  1718.748
 150  1740.258
 151  1607.245
 152  1655.154
 153  1656.76
 154  1629.611
 155  1759.933
 156  1822.259
 157  1765.337
 158  1615.06
 159  1609.318
 160  1669.339
 161  1744.608
 162  1724.654
 163  1783.392
 164  1720.987
 165  1827.572
 166  1872.064
 167  1801.874
 168  1653.414
 169  1599.385
 170  1678.944
 171  1866.454
 172  2048.443
 173  1994.025
 174  1914.096
 175  1803.856
 176  1853.464
 177  1834.688
 178  1741.085
 179  1713.049
 180  1681.882
 181  1675.782
 182  1617.902
 183  1613.157
 184  1533.656
 185  1447.759
 186  1585.712
 187  1744.44
 188  1835.475
 189  1515.483
 190  1516.339
 191  1568.603
 192  1547.741
 193  1592.788
 194  1748.352
 195  1882.749
 196  1717.056
 197  1430.473
 198  1419.176
 199  1603.465
 200  1810.669
 201  1877.277
 202  1802.301
 203  1727.289
 204  1738.986
 205  1759.339
 206  1779.114
 207  1566.218
 208  1512.409
 209  1558.065
 210  1575.822
 211  1607.745
 212  1720.009
 213  1875.533
 214  1875.321
 215  1936.951
 216  1893.643
 217  1830.807
 218  1809.247
 219  1968.569
 220  2165.718
 221  1928.696
 222  1653.583
 223  1445.14
 224  1523.51
 225  1694.026
 226  1740.692
 227  1712.73
 228  1677.64
 229  1705.722
 230  1776.246
 231  1817.694
 232  1586.817
 233  1700.271
 234  1685.384
 235  1742.561
 236  1685.274
 237  1737.58
 238  1776.431
 239  1767.722
 240  1740.978
 241  1817.875
 242  1718.872
 243  1674.343
 244  1688.211
 245  1770.091
 246  1723.365
 247  1619.715
 248  1562.906
 249  1572.11
 250  1535.625
 251  1569.628
 252  1674.193
 253  1631.928
 254  1675.619
 255  1836.474
 256  1820.474
 257  1665.796
 258  1554.508
 259  1525.79
 260  1440.726
 261  1363.974
 262  1372.591
 263  1382.733
 264  1277.672
 265  1260.688
 266  1413.119
 267  1545.49
 268  1718.249
 269  1767.6
 270  1893.34
 271  1768.74
 272  1651.698
 273  1598.97
 274  1634.948
 275  1572.966
 276  1583.927
 277  1607.364
 278  1612.415
 279  1717.908
 280  1745.79
 281  1656.029
 282  1503.005
 283  1449.64
 284  1534.757
 285  1533.708
 286  1509.327
 287  1565.538
 288  1569.907
 289  1526.383
 290  1461.185
 291  1470.325
 292  1568.238
 293  1692.173
 294  1680.645
 295  1739.091
 296  1636.292
 297  1584.397
 298  1754.634
 299  1899.69
 300  1802.656
 301  1646.364
 302  1586.235
 303  1682.891
 304  1780.94
 305  1738.4
 306  1664.131
 307  1428.039
 308  1520.186
 309  1540.327
 310  1531.783
 311  1565.322
 312  1708.864
 313  1763.529
 314  1703.367
 315  1622.313
 316  1789.47
 317  1853.421
 318  1624.025
 319  1432.953
 320  1412.758
 321  1400.915
 322  1502.842
 323  1471.677
 324  1474.658
 325  1504.648
 326  1455.693
 327  1527.083
 328  1549.986
 329  1692.827
 330  1738.437
 331  1687.452
 332  1538.253
 333  1570.004
 334  1583.907
 335  1709.625
 336  1608.001
 337  1769.666
 338  1916.425
 339  1854.745
 340  1646.902
 341  1646.233
 342  1720.411
 343  1676.089
 344  1680.827
 345  1712.658
 346  1835.043
 347  1817.587
 348  1930.239
 349  1882.892
 350  1735.443
 351  1528.43
 352  1545.339
 353  1504.84
 354  1691.986
 355  1785.059
 356  1869.51
 357  1775.744
 358  1746.947
 359  1749.537
 360  1679.423
 361  1553.339
 362  1643.598
 363  1686.256
 364  1597.562
 365  1639.397
 366  1742.15
 367  1748.236
 368  1624.41
 369  1548.907
 370  1645.646
 371  1705.757
 372  1682.287
 373  1646.483
 374  1659.607
 375  1650.914
 376  1827.521
 377  1844.475
 378  1730.384
 379  1579.831
 380  1533.739
 381  1572.57
 382  1580.456
 383  1585.452
 384  1655.834
 385  1649.061
 386  1702.601
 387  1786.559
 388  1744.365
 389  1725.294
 390  1744.42
 391  1783.768
 392  1845.74
 393  1792.003
 394  1717.782
 395  1684.903
 396  1689.473
 397  1831.045
 398  1844.92
 399  1869.905
 400  1810.813
 401  1722.809
 402  1625.528
 403  1658.585
 404  1635.585
 405  1728.702
 406  1762.12
 407  1713.218
 408  1707.965
 409  1633.103
 410  1624.998
 411  1590.298
 412  1557.1
 413  1651.994
 414  1534.326
 415  1494.968
 416  1658.972
 417  1790.387
 418  1882.766
 419  1801.24
 420  1805.709
 421  1778.507
 422  1643.676
 423  1545.35
 424  1614.302
 425  1692.388
 426  1778.87
 427  1753.444
 428  1654.762
 429  1529.717
 430  1619.609
 431  1772.236
 432  1682.168
 433  1610.29
 434  1591.976
 435  1697.79
 436  1582.686
 437  1615.12
 438  1662.051
 439  1578.794
 440  1508.096
 441  1503.248
 442  1509.265
 443  1643.601
 444  1685.725
 445  1723.057
 446  1527.688
 447  1450.836
 448  1422.561
 449  1487.365
 450  1536.813
 451  1792.176
 452  1779.875
 453  1708.478
 454  1666.974
 455  1842.492
 456  1939.704
 457  1831.292
 458  1809.735
 459  1831.202
 460  1811.701
 461  1630.812
 462  1614.382
 463  1725.647
 464  1741.746
 465  1652.529
 466  1517.067
 467  1481.601
 468  1499.625
 469  1708.234
 470  1920.594
 471  1924.823
 472  1846.703
 473  1939.584
 474  1909.457
 475  1796.461
 476  1672.676
 477  1733.133
 478  1750
 479  1603.581
 480  1551.821
 481  1636.413
 482  1507.938
 483  1433.64
 484  1440.143
 485  1531.241
 486  1579.05
 487  1579.799
 488  1672.541
 489  1757.542
 490  1664.45
 491  1609.869
 492  1498.458
 493  1435.4
 494  1501.124
 495  1628.288
 496  1639.221
 497  1499.251
 498  1427.328
 499  1422.395
 500  1445.858
 501  1614.605
 502  1848.338
 503  1727.635
 504  1508.312
 505  1549.769
 506  1720.314
 507  1915.233
 508  1762.562
 509  1692.725
 510  1838.512
 511  1826.26
 512  1817.256
 513  1787.498
 514  1694.21
 515  1590.16
 516  1612.113
 517  1679.046
 518  1693.587
 519  1655.532
 520  1724.421
 521  1728.918
 522  1642.629
 523  1796.564
 524  1900.812
 525  1861.225
 526  1746.844
 527  1717.216
 528  1802.879
 529  1784.013
 530  1749.623
 531  1760.749
 532  1618.017
 533  1469.239
 534  1468.087
 535  1557.351
 536  1722.087
 537  1785.046
 538  1705.449
 539  1521.877
 540  1480.817
 541  1577.703
 542  1709.693
 543  1635.337
 544  1584.099
 545  1684.488
 546  1797.792
 547  1775.008
 548  1748.285
 549  1666.618
 550  1678.24
 551  1554.509
 552  1567.568
 553  1584.007
 554  1500.439
 555  1602.656
 556  1600.983
 557  1652.091
 558  1620.195
 559  1705.613
 560  1620.332
 561  1635.923
 562  1655.316
 563  1687.556
 564  1570.937
 565  1444.166
 566  1549.854
 567  1633.863
 568  1539.28
 569  1495.421
 570  1410.812
 571  1363.899
 572  1358.543
 573  1527.493
 574  1775.021
 575  1756.039
 576  1677.614
 577  1749.187
 578  1712.092
 579  1557.835
 580  1550.448
 581  1602.742
 582  1597.95
 583  1555.764
 584  1655.998
 585  1855.112
 586  1799.808
 587  1704.687
 588  1593.948
 589  1454.085
 590  1535.753
 591  1643.587
 592  1623.6
 593  1601.097
 594  1537.823
 595  1566.573
 596  1629.23
 597  1443.425
 598  1464.252
 599  1404.821
 600  1406.142
 601  1425.454
 602  1568.89
 603  1537.146
 604  1541.656
 605  1689.236
 606  1838.344
 607  1685.588
 608  1659.403
 609  1702.986
 610  1818.411
 611  1776.853
 612  1792.097
 613  1837.615
 614  1824.285
 615  1808.356
 616  1870.254
 617  1903.229
 618  1911.468
 619  1742.82
 620  1857.901
 621  1914.838
 622  1967.835
 623  2046.44
 624  2120.177
 625  2163.142
 626  2207.359
 627  2320.253
 628  2350.733
 629  2295.703
 630  2112.695
 631  1995.451
 632  1890.502
 633  1726.098
 634  1725.414
 635  1621.149
 636  1668.84
 637  1651.793
 638  1665.469
 639  1616.89
 640  1587.684
 641  1686.194
 642  1821.236
 643  1782.45
 644  1847.285
 645  1973.883
 646  1907.275
 647  1868.987
 648  1645.698
 649  1503.49
 650  1484.591
 651  1473.907
 652  1677.059
 653  1821.444
 654  1746.251
 655  1718.831
 656  1703.485
 657  1675.743
 658  1650.96
 659  1667.478
 660  1774.134
 661  1772.434
 662  1628.607
 663  1664.946
 664  1630.214
 665  1497.919
 666  1454.254
 667  1522.894
 668  1593.74
 669  1628.002
 670  1709.014
 671  1751.457
 672  1704.86
 673  1718.053
 674  1817.453
 675  1739.976
 676  1670.902
 677  1808.307
 678  1868.694
 679  1867.31
 680  1752.726
 681  1668.344
 682  1662.963
 683  1599.834
 684  1763.622
 685  1856.257
 686  1743.788
 687  1558.268
 688  1445.868
 689  1518.461
 690  1397.522
 691  1304.282
 692  1232.142
 693  1246.399
 694  1410.833
 695  1576.383
 696  1659.004
 697  1490.94
 698  1518.049
 699  1714.926
 700  1685.591
 701  1561.626
 702  1371.405
 703  1366.247
 704  1452.836
 705  1600.283
 706  1737.724
 707  1726.471
 708  1579.398
 709  1533.494
 710  1667.371
 711  1671.002
 712  1819.053
 713  1849.658
 714  1885.846
 715  1729.578
 716  1587.696
 717  1590.835
 718  1578.576
 719  1592.67
 720  1579.056
 721  1626.533
 722  1650.601
 723  1683.275
 724  1665.683
 725  1596.519
 726  1477.753
 727  1474.351
 728  1567.564
 729  1648.548
 730  1619.029
 731  1694.231
 732  1562.813
 733  1671.893
 734  1781.174
 735  2026.61
 736  1960.695
 737  1792.338
 738  1533.574
 739  1506.052
 740  1391.517
 741  1468.558
 742  1534.073
 743  1440.363
 744  1413.65
 745  1248.79
 746  1392.143
 747  1482.323
 748  1542.677
 749  1646.825
 750  1516.078
 751  1541.408
 752  1501.608
 753  1600.581
 754  1503.081
 755  1559.827
 756  1736.174
 757  1915.328
 758  1808.871
 759  1657.106
 760  1583.079
 761  1614.408
 762  1658.21
 763  1760.36
 764  1776.184
 765  1698.232
 766  1671.829
 767  1786.943
 768  1814.327
 769  1626.543
 770  1649.521
 771  1715.419
 772  1732.691
 773  1737.224
 774  1794.077
 775  1728.485
 776  1715.099
 777  1677.575
 778  1893.471
 779  1875.445
 780  1918.992
 781  1968.51
 782  1909.178
 783  1796.883
 784  1658.577
 785  1684.618
 786  1551.662
 787  1598.66
 788  1708.064
 789  1771.156
 790  1802.241
 791  1607.407
 792  1635.797
 793  1529.947
 794  1548.193
 795  1718.766
 796  1826.122
 797  1817.222
 798  1732.22
 799  1722.296
 800  1787.684
 801  1766.305
 802  1647.202
 803  1617.544
 804  1636.68
 805  1570.59
 806  1683.34
 807  1677.401
 808  1622.767
 809  1520.92
 810  1610.307
 811  1858.799
 812  1962.958
 813  1894.589
 814  1865.736
 815  1780.182
 816  1671.496
 817  1642.035
 818  1527.548
 819  1474.187
 820  1413.186
 821  1461.438
 822  1580.437
 823  1601.968
 824  1708.666
 825  1795.775
 826  1767.525
 827  1733.061
 828  1655.129
 829  1601.165
 830  1682.043
 831  1709.092
 832  1846.266
 833  1789.379
 834  1637.794
 835  1504.586
 836  1601.729
 837  1555.431
 838  1588.824
 839  1431.27
 840  1494.427
 841  1600.713
 842  1746.57
 843  1796.7
 844  1795.972
 845  1746.665
 846  1794.375
 847  1643.097
 848  1518.12
 849  1369.65
 850  1443.074
 851  1447.097
 852  1550.688
 853  1561.156
 854  1599.591
 855  1612.288
 856  1640.287
 857  1683.651
 858  1657.714
 859  1581.912
 860  1629.333
 861  1748.186
 862  1718.43
 863  1732.934
 864  1691.205
 865  1693.287
 866  1545.001
 867  1519.461
 868  1640.104
 869  1665.438
 870  1679.106
 871  1649.593
 872  1653.118
 873  1647.116
 874  1650.774
 875  1691.352
 876  1625.854
 877  1551.78
 878  1633.893
 879  1702.453
 880  1681.462
 881  1711.268
 882  1745.599
 883  1660.31
 884  1621.738
 885  1594.739
 886  1670.438
 887  1616.701
 888  1660.372
 889  1850.118
 890  1822.462
 891  1574.509
 892  1559.079
 893  1589.481
 894  1610.765
 895  1555.566
 896  1581.667
 897  1742.542
 898  1713.91
 899  1798.562
 900  1859.693
 901  1750.761
 902  1704.31
 903  1724.288
 904  1748.812
 905  1671.85
 906  1588.217
 907  1652.756
 908  1724.714
 909  1721.339
 910  1747.908
 911  1732.937
 912  1695.277
 913  1755.988
 914  1750.908
 915  1721.932
 916  1806.072
 917  1835.903
 918  1656.671
 919  1416.219
 920  1217.153
 921  1454.486
 922  1603.58
 923  1759.907
 924  1729.739
 925  1557.008
 926  1538.982
 927  1458.854
 928  1478.935
 929  1327.281
 930  1392.135
 931  1495.988
 932  1615.269
 933  1496.294
 934  1395.358
 935  1422.882
 936  1408.597
 937  1455.327
 938  1586.072
 939  1569.777
 940  1610.436
 941  1451.828
 942  1593.057
 943  1594.832
 944  1614.062
 945  1471.331
 946  1518.172
 947  1441.253
 948  1454.009
 949  1405.129
 950  1499.761
 951  1670.675
 952  1711.714
 953  1760.047
 954  1663.224
 955  1627.326
 956  1655.406
 957  1681.11
 958  1631.033
 959  1605.907
 960  1645.721
 961  1612.139
 962  1557.581
 963  1590.772
 964  1731.991
 965  1645.466
 966  1527.311
 967  1465.563
 968  1364.954
 969  1321.81
 970  1467.384
 971  1628.711
 972  1635.548
 973  1549.043
 974  1550.828
 975  1562.767
 976  1435.374
 977  1369.173
 978  1386.046
 979  1400.621
 980  1348.456
 981  1494.055
 982  1359.219
 983  1316.959
 984  1295.195
 985  1431.75
 986  1387.345
 987  1309.101
 988  1502.825
 989  1679.335
 990  1674.042
 991  1647.849
 992  1663.804
 993  1478.2
 994  1345.943
 995  1334.346
 996  1582.276
 997  1579.357
 998  1448.047
 999  1502.267
1000  1512.223
1001  1589.368
1002  1604.363
1003  1566.835
1004  1552.829
1005  1700.039
1006  1680.339
1007  1602.459
1008  1399.527
1009  1437.169
1010  1497.345
1011  1489.441
1012  1385.313
1013  1424.411
1014  1416.185
1015  1447.491
1016  1385.305
1017  1440.865
1018  1473.5
1019  1370.015
1020  1347.181
1021  1346.866
1022  1372.814
1023  1315.309
