# Input file       =  1196551142.114409_cleaned.dat
# Candidate        =  PSR_0332+5434
# Telescope        =  AR
# Epoch_topo       =  58092.971772157514
# Epoch_bary       =  N/A
# T_sample         =  0.002
# Data Folded      =  7340032
# Data Avg         =  0.114089569818004
# Data StdDev      =  4.02101894843161 
# Profile Bins     =  512
# Profile Avg      =  1635.60147929688 
# Profile StdDev   =  481.448808024228 
# Reduced chi-sqr  =  0.510
# Prob(Noise)      <  1   (~0.0 sigma)
# P_topo (ms)      =  714.531136282808  +/- 0.00068
# P'_topo (s/s)    =  -0                +/- 3.59e-10
# P''_topo (s/s^2) =  0                 +/- 1.58e-13
# P_bary (ms)      =  N/A
# P'_bary (s/s)    =  N/A
# P''_bary (s/s^2) =  N/A
# P_orb (s)        =  N/A
# asin(i)/c (s)    =  N/A
# eccentricity     =  N/A
# w (rad)          =  N/A
# T_peri           =  N/A
######################################################
   0  1715.54
   1  1881.214
   2  1640.276
   3  1529.097
   4  1617.849
   5  1319.438
   6  1316.335
   7  1577.598
   8  1595.684
   9  1854.422
  10  1783.522
  11  1520.39
  12  1549.398
  13  1553.841
  14  1665.683
  15  1632.973
  16  1904.43
  17  1835.753
  18  1517.647
  19  1650.692
  20  2080.579
  21  1931.952
  22  1756.064
  23  1430.722
  24  1309.794
  25  1405.803
  26  1382.943
  27  1822.974
  28  2162.927
  29  2080.135
  30  1850.922
  31  1757.182
  32  1648.229
  33  1529.072
  34  1701.121
  35  1563.933
  36  1839.231
  37  2040.173
  38  1975.32
  39  1585.538
  40  1733.569
  41  1883.714
  42  1887.457
  43  2086.325
  44  1612.508
  45  1478.824
  46  1523.297
  47  1590.023
  48  1742.793
  49  1864.883
  50  1935.517
  51  1636.406
  52  1577.663
  53  1431.994
  54  1643.605
  55  1777.044
  56  1683.002
  57  1377.867
  58  1459.771
  59  1475.402
  60  1536.401
  61  1891.406
  62  1703.156
  63  1582.359
  64  1901.757
  65  1657.472
  66  1771.133
  67  1675.74
  68  1821.24
  69  1894.911
  70  1554.828
  71  1771.974
  72  1799.389
  73  1713.564
  74  1922.662
  75  2018.756
  76  2011.019
  77  2001.026
  78  2033.436
  79  1814.461
  80  1509.39
  81  1234.5
  82  1369.74
  83  1362.034
  84  1500.839
  85  1355.859
  86  1321.267
  87  1211.981
  88  1086.593
  89  1667.495
  90  1542.677
  91  1759.224
  92  1595.695
  93  1923.134
  94  1866.189
  95  1672.317
  96  1655.243
  97  2177.326
  98  2094.878
  99  2136.235
 100  2246.736
 101  1967.238
 102  1885.69
 103  1590.653
 104  1815.29
 105  1803.749
 106  1558.119
 107  1418.701
 108  1390.671
 109  1174.754
 110  1278.373
 111  1343.085
 112  1932.935
 113  2060.713
 114  2043.664
 115  1726.95
 116  1410.607
 117  1303.626
 118  1283.474
 119  1539.185
 120  1638.918
 121  1746.103
 122  1614.158
 123  1634.91
 124  1673.814
 125  1587.89
 126  1489.06
 127  1461.859
 128  1249.967
 129  1839.923
 130  1510.045
 131  1392.492
 132  1346.269
 133  1426.288
 134  1478.828
 135  1744.186
 136  1742.746
 137  1714.013
 138  1401.441
 139  1803.228
 140  2142.257
 141  2023.009
 142  2120.764
 143  1877.8
 144  2073.553
 145  2217.25
 146  1987.929
 147  2121.371
 148  1654.43
 149  1923.114
 150  1807.951
 151  1842.874
 152  1797.079
 153  1790.842
 154  1570.382
 155  1731.739
 156  2037.105
 157  1763.896
 158  1586.755
 159  1582.921
 160  1597.915
 161  1547.237
 162  1911.263
 163  1933.714
 164  2097.264
 165  2068.123
 166  1576.713
 167  1381.176
 168  1805.025
 169  1912.936
 170  2122.245
 171  2044.717
 172  2129.215
 173  2164.127
 174  1976.365
 175  1556.641
 176  1378.846
 177  1862.243
 178  1618.865
 179  1450.57
 180  1731.867
 181  1699.185
 182  1685.84
 183  1615.879
 184  1920.746
 185  1578.51
 186  1417.404
 187  1483.182
 188  1655.7
 189  1533.354
 190  1716.724
 191  1590.148
 192  1264.994
 193  1415.427
 194  1403.73
 195  1209.26
 196  1052.37
 197  1368.847
 198  1602.373
 199  1229.873
 200  1537.504
 201  1777.995
 202  1644.411
 203  1434.834
 204  1464.228
 205  1630.025
 206  1622.225
 207  1308.279
 208  1358.111
 209  1557.093
 210  1543.185
 211  1411.812
 212  1612.688
 213  1828.534
 214  1428.615
 215  1330.147
 216  1465.94
 217  1551.601
 218  1648.914
 219  1408.094
 220  1247.182
 221  1300.966
 222  1657.684
 223  1349.349
 224  1490.056
 225  1534.956
 226  1560.45
 227  1476.479
 228  1774.531
 229  1908.306
 230  1781.901
 231  1954.079
 232  1899.094
 233  1887.23
 234  1571.984
 235  1423.403
 236  1900.382
 237  1928.339
 238  1657.889
 239  1472.446
 240  1663.393
 241  1550.996
 242  1540.209
 243  1789.642
 244  1580.598
 245  1635.206
 246  1956.3
 247  1944.406
 248  1805.271
 249  1864.188
 250  1318.012
 251  1524.415
 252  1851.665
 253  2028.862
 254  2061.724
 255  1682.624
 256  1640.235
 257  1641.866
 258  1660.029
 259  1587.238
 260  1462.617
 261  1735.236
 262  1696.464
 263  1631.777
 264  1476.79
 265  1679.519
 266  1665.199
 267  1305.385
 268  1479.468
 269  1628.27
 270  1395.852
 271  1176.946
 272  1627.28
 273  1834.552
 274  1414.948
 275  1623.969
 276  2033.858
 277  1700.579
 278  1604.081
 279  1562.994
 280  1917.248
 281  1852.8
 282  1674.745
 283  1443.021
 284  1342.732
 285  1431.828
 286  1515.019
 287  1580.863
 288  1193.13
 289  1368.488
 290  1219.389
 291  1411.527
 292  1154.491
 293  1247.511
 294  1546.399
 295  1390.914
 296  1398.994
 297  1562.675
 298  1759.504
 299  1366.44
 300  1355.596
 301  1323.853
 302  1890.85
 303  1654.912
 304  1685.792
 305  1534.276
 306  1459.279
 307  1286.32
 308  1755.36
 309  1924.882
 310  1618.911
 311  1460.393
 312  1871.937
 313  2035.572
 314  1847.256
 315  1686.738
 316  1570.799
 317  1401.756
 318  1445.789
 319  1523.859
 320  1640.055
 321  1691.672
 322  1556.895
 323  1667.018
 324  1382.082
 325  1120.529
 326  1141.07
 327  1250.009
 328  1325.457
 329  1101.852
 330  1235.113
 331  1525.995
 332  1496.07
 333  1505.836
 334  1707.888
 335  1626.789
 336  1507.179
 337  1634.118
 338  1952.325
 339  1501.833
 340  1344.913
 341  1782.968
 342  1849.538
 343  1803.891
 344  1571.797
 345  1640.723
 346  1429.989
 347  1835.295
 348  2074.405
 349  2151.03
 350  1459.247
 351  1265.655
 352  1315.141
 353  1506.839
 354  1398.743
 355  1459.637
 356  1384.026
 357  1304.675
 358  1345.767
 359  1633.762
 360  1595.006
 361  1966.067
 362  1783.157
 363  1434.528
 364  1408.947
 365  1890.884
 366  1809.223
 367  1644.904
 368  1621.354
 369  1650.502
 370  1733.065
 371  1580.726
 372  1804.447
 373  1888.781
 374  1498.279
 375  1701.036
 376  1783.1
 377  2077.487
 378  1746.175
 379  1900.384
 380  1626.772
 381  1654.697
 382  1412.518
 383  2010.497
 384  1694.019
 385  1308.998
 386  1439.845
 387  1627.822
 388  1974.423
 389  1796.29
 390  1836.163
 391  1699.877
 392  1704.513
 393  1830.455
 394  1784.188
 395  1781.135
 396  1547.696
 397  1581.565
 398  2223.023
 399  1892.051
 400  1604.516
 401  1318.709
 402  1423.055
 403  2032.668
 404  1772.954
 405  1681.33
 406  1357.95
 407  1595.054
 408  1913.806
 409  1933.87
 410  1929.422
 411  1798.879
 412  1586.942
 413  1174.255
 414  1228.475
 415  1472.328
 416  2008.164
 417  2031.802
 418  1592.357
 419  1562.618
 420  1286.561
 421  1311.863
 422  1368.578
 423  1351.026
 424  1182.135
 425  1340.375
 426  1493.17
 427  1245.52
 428  1670.812
 429  1865.869
 430  1917.078
 431  1724.334
 432  1540.088
 433  1460.33
 434  1568.444
 435  1791.584
 436  1630.385
 437  1735.776
 438  1687.941
 439  1787.317
 440  1916.559
 441  1682.288
 442  1377.66
 443  952.424
 444  1096.87
 445  1167.754
 446  1654.065
 447  1422.931
 448  1276.299
 449  1089.591
 450  1322.243
 451  1011.63
 452  1706.811
 453  1708.744
 454  1514.606
 455  1365.003
 456  1423.28
 457  1336.164
 458  1592.912
 459  2157.768
 460  2088.534
 461  1926.907
 462  1779.787
 463  1968.336
 464  2002.592
 465  1905.29
 466  2158.357
 467  2052.167
 468  1854.21
 469  1861.875
 470  1664.427
 471  1380.58
 472  1427.228
 473  1481.252
 474  1848.742
 475  1846.576
 476  1953.75
 477  1746.369
 478  1912.58
 479  1631.298
 480  1526.632
 481  1763.393
 482  1777.866
 483  1855.933
 484  1550.352
 485  1646.747
 486  1861.916
 487  1744.968
 488  1629.639
 489  1604.975
 490  1688.599
 491  1977.837
 492  1698.846
 493  1601.28
 494  1630.063
 495  1594.563
 496  1644.665
 497  1479.199
 498  1831.319
 499  1465.54
 500  1038.116
 501  1406.385
 502  1524.054
 503  1109.626
 504  1189.383
 505  964.9568
 506  1303.022
 507  1462.703
 508  1800.494
 509  1638.648
 510  1321.734
 511  1390.473
