# Input file       =  1196794206.116471_cleaned.dat
# Candidate        =  PSR_0332+5434
# Telescope        =  AR
# Epoch_topo       =  58095.785012922119
# Epoch_bary       =  N/A
# T_sample         =  0.002
# Data Folded      =  7340032
# Data Avg         =  0.108090333871327
# Data StdDev      =  3.48601991865441 
# Profile Bins     =  1024
# Profile Avg      =  774.807205548304 
# Profile StdDev   =  295.140536645669 
# Reduced chi-sqr  =  0.683
# Prob(Noise)      <  1   (~0.0 sigma)
# P_topo (ms)      =  714.533662095796  +/- 9.33e-05
# P'_topo (s/s)    =  -0                +/- 4.92e-11
# P''_topo (s/s^2) =  0                 +/- 2.17e-14
# P_bary (ms)      =  N/A
# P'_bary (s/s)    =  N/A
# P''_bary (s/s^2) =  N/A
# P_orb (s)        =  N/A
# asin(i)/c (s)    =  N/A
# eccentricity     =  N/A
# w (rad)          =  N/A
# T_peri           =  N/A
######################################################
   0  741.6903
   1  735.1144
   2  660.515
   3  528.5615
   4  597.0934
   5  594.7193
   6  664.2114
   7  734.2785
   8  805.0201
   9  793.8328
  10  710.2432
  11  614.7714
  12  601.1536
  13  622.2336
  14  683.273
  15  649.0353
  16  724.7224
  17  843.4704
  18  855.4335
  19  816.3112
  20  762.6345
  21  806.1511
  22  780.0114
  23  814.5802
  24  837.457
  25  827.9627
  26  854.6779
  27  901.9619
  28  976.2778
  29  870.8778
  30  833.9517
  31  788.2656
  32  792.013
  33  748.7659
  34  678.8902
  35  674.8023
  36  672.6833
  37  707.4991
  38  735.2938
  39  626.3921
  40  582.0516
  41  577.1935
  42  737.6727
  43  740.357
  44  758.7294
  45  780.5345
  46  839.479
  47  946.462
  48  830.5841
  49  741.4448
  50  650.3103
  51  571.0311
  52  600.6479
  53  642.363
  54  690.1887
  55  763.4213
  56  829.0341
  57  821.4847
  58  755.0138
  59  708.8264
  60  692.7879
  61  611.8256
  62  515.7827
  63  602.3046
  64  652.3956
  65  718.2866
  66  742.5309
  67  856.1998
  68  935.496
  69  909.7001
  70  849.6636
  71  954.8799
  72  943.3019
  73  956.1983
  74  791.8686
  75  780.6114
  76  687.2275
  77  649.2163
  78  714.79
  79  665.2649
  80  690.8554
  81  659.3751
  82  718.9224
  83  756.3512
  84  763.8642
  85  817.5726
  86  777.8277
  87  817.0635
  88  789.2678
  89  813.9105
  90  862.2563
  91  977.6002
  92  878.1878
  93  810.1328
  94  575.0596
  95  503.4559
  96  566.3251
  97  826.0029
  98  1006.269
  99  1003.593
 100  910.4313
 101  888.1569
 102  873.4699
 103  889.5904
 104  761.1407
 105  780.9284
 106  831.0168
 107  724.2042
 108  594.9692
 109  667.3727
 110  835.8694
 111  956.1696
 112  959.1713
 113  985.9023
 114  936.3028
 115  929.0433
 116  878.0237
 117  831.2599
 118  638.9824
 119  519.8282
 120  530.7455
 121  602.5382
 122  728.3627
 123  637.4557
 124  651.6196
 125  685.366
 126  854.1681
 127  865.9407
 128  847.1125
 129  786.0722
 130  835.2411
 131  799.25
 132  719.3563
 133  738.1154
 134  772.3416
 135  760.2121
 136  705.1595
 137  726.7212
 138  780.2679
 139  848.2988
 140  877.9111
 141  838.72
 142  856.0009
 143  783.8682
 144  859.3399
 145  867.7686
 146  923.5798
 147  892.4941
 148  807.8414
 149  798.4967
 150  715.8458
 151  693.5456
 152  599.7995
 153  677.5389
 154  671.6608
 155  680.5554
 156  602.082
 157  549.1248
 158  588.7879
 159  658.5584
 160  825.6686
 161  892.095
 162  887.3828
 163  899.1103
 164  837.7325
 165  829.1658
 166  825.9183
 167  875.5288
 168  837.0573
 169  790.3906
 170  727.5588
 171  781.2458
 172  775.6529
 173  740.7131
 174  769.1068
 175  828.4088
 176  947.324
 177  872.2139
 178  819.0248
 179  719.3282
 180  765.08
 181  782.7151
 182  756.9249
 183  619.7172
 184  645.5288
 185  653.1542
 186  636.8886
 187  673.0356
 188  776.4003
 189  913.9675
 190  852.8926
 191  783.2019
 192  697.5722
 193  771.1263
 194  797.1246
 195  832.2128
 196  777.5984
 197  747.0687
 198  783.1617
 199  807.5378
 200  825.6193
 201  902.1569
 202  934.7772
 203  1010.102
 204  976.8842
 205  897.8913
 206  754.6674
 207  548.774
 208  626.1962
 209  668.3207
 210  798.4417
 211  708.1007
 212  714.3037
 213  746.1537
 214  778.6931
 215  757.9019
 216  804.3071
 217  932.5264
 218  924.4953
 219  813.1381
 220  590.9722
 221  528.9652
 222  486.369
 223  523.3775
 224  565.5464
 225  740.2979
 226  771.528
 227  801.3483
 228  821.8062
 229  880.7516
 230  961.4919
 231  931.0045
 232  928.7125
 233  858.6637
 234  812.6516
 235  770.7408
 236  768.176
 237  802.0523
 238  847.5231
 239  748.4879
 240  776.5455
 241  974.2134
 242  1150.166
 243  1103.112
 244  994.853
 245  936.2949
 246  890.7692
 247  840.5065
 248  911.9888
 249  849.0324
 250  855.5692
 251  941.5352
 252  1088.669
 253  1022.944
 254  1007.535
 255  1000.51
 256  968.5919
 257  945.0967
 258  959.9894
 259  915.0235
 260  856.1996
 261  779.7509
 262  796.4431
 263  748.7222
 264  822.9821
 265  764.5003
 266  693.0701
 267  649.2721
 268  765.5674
 269  827.9388
 270  988.1295
 271  1029.945
 272  1050.132
 273  926.4308
 274  736.7382
 275  675.0401
 276  680.0232
 277  790.2856
 278  809.7828
 279  729.6728
 280  599.9585
 281  588.2881
 282  696.5585
 283  860.6604
 284  820.4528
 285  879.9401
 286  751.7346
 287  702.2261
 288  553.692
 289  650.3872
 290  706.2542
 291  823.1065
 292  884.7733
 293  929.1945
 294  835.2994
 295  724.267
 296  682.8768
 297  702.0364
 298  669.4844
 299  748.7049
 300  748.4818
 301  727.0052
 302  639.8789
 303  650.4998
 304  660.0967
 305  716.2098
 306  697.4427
 307  712.2856
 308  661.4748
 309  709.474
 310  726.2842
 311  585.5659
 312  602.7228
 313  729.739
 314  936.893
 315  951.846
 316  878.7941
 317  824.4431
 318  835.6732
 319  696.5462
 320  660.2659
 321  591.4103
 322  593.3882
 323  565.7789
 324  743.9535
 325  917.4015
 326  1055.421
 327  1007.493
 328  1075.354
 329  1006.628
 330  1038.063
 331  969.0211
 332  939.8945
 333  912.8212
 334  853.77
 335  813.1088
 336  808.0004
 337  873.1436
 338  918.5696
 339  957.7415
 340  884.114
 341  815.1211
 342  806.6604
 343  818.0878
 344  790.879
 345  778.1677
 346  898.4877
 347  951.4816
 348  857.4651
 349  809.6702
 350  735.918
 351  711.2791
 352  617.7614
 353  514.4608
 354  578.1323
 355  643.4456
 356  766.3466
 357  783.5305
 358  850.0337
 359  916.5874
 360  1004.213
 361  898.6223
 362  775.3021
 363  656.7276
 364  659.6916
 365  611.9717
 366  605.1816
 367  587.0052
 368  651.4615
 369  650.9363
 370  745.78
 371  754.4041
 372  776.9426
 373  774.3513
 374  774.2473
 375  826.9572
 376  791.6115
 377  771.9471
 378  749.2818
 379  787.653
 380  714.3507
 381  667.8182
 382  634.8152
 383  705.5974
 384  673.0704
 385  647.3241
 386  655.3108
 387  732.7893
 388  753.6155
 389  776.1985
 390  783.9662
 391  803.7983
 392  816.5788
 393  708.1754
 394  638.5773
 395  668.623
 396  755.0684
 397  866.299
 398  814.934
 399  780.7228
 400  769.9554
 401  819.1157
 402  810.3714
 403  884.6752
 404  871.0048
 405  860.0206
 406  753.7736
 407  736.6332
 408  664.8391
 409  621.3998
 410  614.0004
 411  624.8758
 412  665.244
 413  714.3461
 414  693.8926
 415  738.7668
 416  797.6946
 417  870.6323
 418  740.7462
 419  680.0561
 420  565.4673
 421  554.0428
 422  509.8246
 423  497.6067
 424  517.706
 425  528.2008
 426  585.4606
 427  580.8539
 428  598.6625
 429  667.8038
 430  697.8364
 431  707.2197
 432  682.6783
 433  664.5851
 434  763.8138
 435  786.5491
 436  777.3668
 437  694.7303
 438  672.9198
 439  721.549
 440  813.4075
 441  832.2455
 442  899.545
 443  957.1771
 444  992.4827
 445  920.7734
 446  992.6591
 447  971.975
 448  921.5837
 449  817.1599
 450  887.1264
 451  925.7733
 452  837.5662
 453  606.205
 454  497.2588
 455  591.7227
 456  761.7196
 457  841.6047
 458  955.0292
 459  883.6147
 460  829.1934
 461  782.0468
 462  914.1891
 463  867.5226
 464  762.152
 465  729.554
 466  883.9235
 467  994.0576
 468  1006.034
 469  993.6945
 470  958.8469
 471  923.9684
 472  899.4255
 473  817.218
 474  838.7525
 475  780.0752
 476  801.7605
 477  765.4821
 478  666.368
 479  685.4357
 480  674.2812
 481  661.7303
 482  689.6474
 483  687.3818
 484  783.3282
 485  733.7733
 486  733.0806
 487  647.5814
 488  622.7258
 489  622.7663
 490  644.7966
 491  753.5139
 492  692.759
 493  757.6788
 494  672.2947
 495  702.523
 496  630.8148
 497  637.8341
 498  670.8172
 499  665.3259
 500  696.6729
 501  693.084
 502  680.0187
 503  773.4732
 504  758.382
 505  784.5789
 506  778.9215
 507  829
 508  820.9572
 509  838.0474
 510  894.4377
 511  925.7506
 512  908.1443
 513  854.4347
 514  790.3659
 515  681.711
 516  644.2282
 517  627.028
 518  615.8627
 519  542.0978
 520  566.6323
 521  612.9071
 522  618.9193
 523  605.992
 524  628.2211
 525  618.9486
 526  663.5115
 527  699.4158
 528  716.7327
 529  639.3127
 530  588.2085
 531  542.6184
 532  618.8153
 533  676.7151
 534  703.034
 535  642.0488
 536  528.4835
 537  598.1562
 538  659.155
 539  700.9581
 540  737.2574
 541  681.8559
 542  646.4521
 543  573.3422
 544  598.311
 545  656.0491
 546  727.4564
 547  694.4648
 548  641.9617
 549  600.3323
 550  636.967
 551  783.3565
 552  883.3045
 553  853.9041
 554  771.7712
 555  639.7144
 556  663.8931
 557  641.6085
 558  730.6579
 559  719.4686
 560  732.7794
 561  735.2012
 562  829.0126
 563  927.2646
 564  916.7122
 565  780.5197
 566  744.5283
 567  820.1679
 568  783.7942
 569  778.133
 570  702.405
 571  780.9788
 572  746.8998
 573  758.1176
 574  777.6623
 575  840.2964
 576  934.8976
 577  868.824
 578  814.0804
 579  682.3326
 580  596.1865
 581  517.1165
 582  481.8857
 583  479.0852
 584  492.9197
 585  639.5577
 586  820.5545
 587  946.9281
 588  942.5341
 589  891.6835
 590  882.36
 591  880.7781
 592  853.4839
 593  794.8702
 594  833.3123
 595  838.6013
 596  868.8907
 597  839.8694
 598  814.6375
 599  849.9798
 600  902.0544
 601  966.339
 602  960.0203
 603  897.7642
 604  821.8507
 605  859.155
 606  866.4702
 607  859.7368
 608  783.2205
 609  820.4841
 610  834.8527
 611  790.8925
 612  746.5627
 613  825.3679
 614  994.7734
 615  1055.706
 616  976.94
 617  890.9779
 618  805.4899
 619  962.9907
 620  1091.146
 621  1191.296
 622  1134.341
 623  1257.51
 624  1372.47
 625  1496.901
 626  1478.754
 627  1485.151
 628  1375.364
 629  1226.361
 630  1047.516
 631  968.0383
 632  939.2275
 633  876.9214
 634  918.0383
 635  931.8236
 636  980.3358
 637  910.6315
 638  794.8631
 639  720.3902
 640  570.15
 641  495.6466
 642  603.2073
 643  802.7032
 644  949.0101
 645  928.8207
 646  1006.318
 647  957.3395
 648  822.5905
 649  697.2697
 650  746.1484
 651  780.3989
 652  844.4276
 653  857.8079
 654  955.3489
 655  1003.851
 656  998.3099
 657  882.5482
 658  742.8231
 659  691.8135
 660  771.5083
 661  787.2346
 662  781.1042
 663  737.0739
 664  719.0541
 665  664.4943
 666  644.9448
 667  613.116
 668  660.6985
 669  662.1866
 670  657.3749
 671  742.4079
 672  721.8575
 673  741.4602
 674  662.4705
 675  664.0965
 676  653.3311
 677  667.7299
 678  750.4016
 679  782.0246
 680  733.5576
 681  620.8161
 682  673.8967
 683  724.5062
 684  714.0218
 685  675.1076
 686  632.5483
 687  565.1308
 688  558.113
 689  649.4481
 690  766.4214
 691  734.9276
 692  734.4477
 693  703.396
 694  738.0799
 695  676.371
 696  654.9299
 697  604.5484
 698  666.548
 699  785.4016
 700  973.3041
 701  886.6293
 702  863.4048
 703  790.9323
 704  897.4824
 705  899.7051
 706  903.5193
 707  806.819
 708  835.3889
 709  700.0579
 710  617.1885
 711  506.3245
 712  580.0819
 713  599.2764
 714  678.0078
 715  706.6003
 716  855.4254
 717  912.8172
 718  1032.296
 719  1028.571
 720  962.3367
 721  950.7128
 722  866.4631
 723  866.2335
 724  777.423
 725  804.9291
 726  797.9562
 727  788.2582
 728  813.5465
 729  940.8239
 730  974.6191
 731  974.9081
 732  959.3956
 733  996.8522
 734  976.7646
 735  899.923
 736  892.0653
 737  908.6404
 738  773.2823
 739  700.7138
 740  678.0397
 741  831.0612
 742  876.0676
 743  944.3971
 744  973.3979
 745  991.0158
 746  910.1513
 747  825.7119
 748  746.9071
 749  682.9164
 750  666.7032
 751  704.1114
 752  694.1942
 753  623.3894
 754  636.9849
 755  726.2891
 756  761.2886
 757  718.5964
 758  708.248
 759  763.2429
 760  792.4918
 761  924.0741
 762  907.8391
 763  914.3774
 764  800.2236
 765  728.603
 766  700.1134
 767  748.8666
 768  816.9586
 769  870.5046
 770  882.2892
 771  780.6208
 772  669.0267
 773  730.8367
 774  714.9203
 775  758.8591
 776  679.4549
 777  845.0582
 778  850.7903
 779  918.9223
 780  882.7187
 781  935.2273
 782  880.1392
 783  733.116
 784  598.6008
 785  530.3811
 786  609.7241
 787  637.0152
 788  647.4243
 789  723.4335
 790  977.1278
 791  939.0986
 792  777.2507
 793  691.5057
 794  781.4612
 795  872.5225
 796  748.1349
 797  595.2618
 798  578.278
 799  598.1951
 800  703.0553
 801  644.1857
 802  599.9585
 803  513.5608
 804  494.5773
 805  570.8743
 806  616.8837
 807  763.9808
 808  858.7828
 809  891.2693
 810  822.5955
 811  804.5133
 812  746.4406
 813  743.9437
 814  742.9254
 815  802.7644
 816  819.1188
 817  773.1238
 818  702.475
 819  712.8694
 820  690.09
 821  666.6735
 822  752.0882
 823  778.984
 824  844.9474
 825  729.8033
 826  820.7015
 827  811.5234
 828  831.5512
 829  774.4754
 830  835.349
 831  829.4047
 832  765.2031
 833  739.8693
 834  735.3452
 835  768.958
 836  865.4928
 837  1001.213
 838  1052.588
 839  1032.045
 840  985.0175
 841  939.7411
 842  875.6386
 843  863.8042
 844  807.9575
 845  804.1383
 846  890.3555
 847  901.4324
 848  898.2914
 849  879.7679
 850  941.7689
 851  958.6747
 852  936.9517
 853  822.8162
 854  758.5393
 855  669.9518
 856  664.8399
 857  561.754
 858  529.0451
 859  632.3975
 860  765.8546
 861  815.5613
 862  862.9356
 863  941.5954
 864  1029.614
 865  1079.705
 866  1062.653
 867  976.3452
 868  822.1564
 869  786.7828
 870  834.2922
 871  908.7194
 872  901.2587
 873  808.9866
 874  806.5937
 875  818.9426
 876  862.6069
 877  731.2514
 878  730.442
 879  759.7576
 880  876.6226
 881  827.5831
 882  738.4731
 883  727.4503
 884  806.8117
 885  777.4329
 886  723.132
 887  707.533
 888  843.0422
 889  864.4281
 890  822.813
 891  782.3513
 892  926.6136
 893  979.7733
 894  824.1182
 895  627.8069
 896  558.4037
 897  701.2341
 898  803.6365
 899  862.3669
 900  852.0113
 901  835.0503
 902  745.7799
 903  676.1471
 904  717.6693
 905  744.0911
 906  838.8303
 907  877.6379
 908  879.8737
 909  756.8692
 910  498.4493
 911  434.4798
 912  474.4769
 913  549.2734
 914  555.2744
 915  599.6973
 916  615.4256
 917  676.9043
 918  721.3999
 919  843.027
 920  821.9229
 921  797.9596
 922  793.5135
 923  822.787
 924  779.2055
 925  915.3112
 926  876.9192
 927  828.1252
 928  666.5134
 929  672.1674
 930  648.3817
 931  706.7162
 932  789.9955
 933  841.5159
 934  768.2748
 935  778.4271
 936  838.0146
 937  843.2177
 938  719.0557
 939  714.8306
 940  736.4603
 941  651.5817
 942  466.7675
 943  459.1174
 944  553.458
 945  668.4396
 946  739.4726
 947  839.929
 948  813.927
 949  726.457
 950  700.2685
 951  752.5863
 952  747.5669
 953  758.7637
 954  826.6343
 955  807.7131
 956  785.7166
 957  612.1555
 958  570.0851
 959  582.0519
 960  634.3834
 961  758.8602
 962  730.6172
 963  768.1092
 964  710.2611
 965  778.7513
 966  840.5931
 967  997.0356
 968  984.9698
 969  961.071
 970  930.8858
 971  843.3938
 972  756.9807
 973  699.4338
 974  687.3974
 975  688.0396
 976  628.5052
 977  735.0352
 978  746.0134
 979  771.3046
 980  683.1147
 981  550.3513
 982  485.6348
 983  461.4984
 984  532.6122
 985  528.3345
 986  620.1025
 987  739.1403
 988  836.3748
 989  787.7952
 990  761.3246
 991  688.183
 992  689.5837
 993  704.7993
 994  813.8792
 995  828.135
 996  728.6997
 997  739.9686
 998  719.1315
 999  774.2702
1000  666.043
1001  597.451
1002  523.2764
1003  619.5543
1004  781.8524
1005  881.7113
1006  1009.023
1007  949.1422
1008  983.7476
1009  831.6311
1010  757.5325
1011  688.4038
1012  763.3041
1013  750.6408
1014  766.2252
1015  815.5182
1016  801.3024
1017  695.549
1018  616.254
1019  651.1266
1020  699.8795
1021  646.3854
1022  601.326
1023  609.5886
