# Input file       =  1196966586.130779_cleaned.dat
# Candidate        =  PSR_0332+5434
# Telescope        =  AR
# Epoch_topo       =  58097.780151976607
# Epoch_bary       =  N/A
# T_sample         =  0.002
# Data Folded      =  7340032
# Data Avg         =  0.0750022491117903
# Data StdDev      =  1.00017054630012 
# Profile Bins     =  512
# Profile Avg      =  1075.50576608704 
# Profile StdDev   =  119.753456403123 
# Reduced chi-sqr  =  0.740
# Prob(Noise)      <  1   (~0.0 sigma)
# P_topo (ms)      =  714.535691126685  +/- 0.000244
# P'_topo (s/s)    =  -0                +/- 1.29e-10
# P''_topo (s/s^2) =  0                 +/- 5.68e-14
# P_bary (ms)      =  N/A
# P'_bary (s/s)    =  N/A
# P''_bary (s/s^2) =  N/A
# P_orb (s)        =  N/A
# asin(i)/c (s)    =  N/A
# eccentricity     =  N/A
# w (rad)          =  N/A
# T_peri           =  N/A
######################################################
   0  973.6819
   1  964.9132
   2  1086.505
   3  988.1945
   4  1012.763
   5  1089.54
   6  1073.319
   7  981.3947
   8  1039.522
   9  1038.071
  10  1073.991
  11  1005.312
  12  1005.908
  13  1016.517
  14  1137.938
  15  1167.255
  16  1079.013
  17  1055.79
  18  1067.415
  19  1016.488
  20  1087.612
  21  1012.758
  22  927.6454
  23  941.9962
  24  924.8169
  25  919.0645
  26  926.5089
  27  966.681
  28  977.0148
  29  928.5306
  30  987.1884
  31  1036.533
  32  1058.15
  33  1019.261
  34  1029.336
  35  976.7301
  36  892.5511
  37  924.5322
  38  1023.774
  39  1028.875
  40  980.5733
  41  1006.584
  42  997.4683
  43  1027.755
  44  973.0918
  45  1063.108
  46  1121.892
  47  1080.996
  48  1078.256
  49  1025.746
  50  997.9231
  51  1038.594
  52  1102.933
  53  1115.308
  54  1008.572
  55  1060.393
  56  1174.675
  57  1119.927
  58  1140.773
  59  1099.854
  60  1047.682
  61  1164.003
  62  1180.581
  63  1153.051
  64  1105.952
  65  1133.116
  66  1044.036
  67  1047.603
  68  990.1443
  69  1054.99
  70  1137.939
  71  1126.699
  72  1048.216
  73  1010.419
  74  1097.069
  75  1068.366
  76  1057.926
  77  1112.885
  78  980.1984
  79  987.2623
  80  1072.731
  81  1152.67
  82  1190.42
  83  1146.012
  84  1138.933
  85  1250.113
  86  1205.742
  87  1227.809
  88  1242.061
  89  1195.94
  90  1136.448
  91  1168.943
  92  1167.689
  93  1116.979
  94  1116.123
  95  1202.32
  96  1152.062
  97  1046.537
  98  1066.479
  99  1115.864
 100  1016.821
 101  1044.18
 102  1057.896
 103  1142.558
 104  1115.326
 105  1078.938
 106  1155.454
 107  1116.655
 108  1122.027
 109  1011.876
 110  1077.937
 111  1150.186
 112  1085.836
 113  1081.698
 114  1051.876
 115  1133.429
 116  1117.712
 117  1081.203
 118  1043.509
 119  1091.982
 120  1080.973
 121  1038.096
 122  968.4092
 123  1103.765
 124  1104.441
 125  1057.014
 126  1109.557
 127  1044.195
 128  1073.345
 129  1079.973
 130  1048.993
 131  1100.962
 132  1052.062
 133  1010.528
 134  1053.061
 135  1221.831
 136  1226.385
 137  1195.226
 138  1081.064
 139  995.0844
 140  979.8569
 141  1089.026
 142  1112.893
 143  1101.393
 144  985.3049
 145  1129.487
 146  1221.489
 147  1094.331
 148  1182.559
 149  1200.85
 150  1102.445
 151  1021.276
 152  1100
 153  1150.039
 154  1166.297
 155  1214.222
 156  1264.247
 157  1389.161
 158  1486.668
 159  1365.482
 160  1272.387
 161  1219.922
 162  1090.797
 163  1065.13
 164  1192.607
 165  1090.585
 166  1055.849
 167  1090.76
 168  1093.308
 169  1052.627
 170  1030.192
 171  1092.591
 172  1070.241
 173  1075.778
 174  1128.574
 175  1163.545
 176  1068.335
 177  1089.04
 178  1123.216
 179  1137.992
 180  1163.829
 181  1118.995
 182  1024.282
 183  1016.539
 184  1027.115
 185  1144.952
 186  1198.769
 187  1102.293
 188  995.1588
 189  1038.049
 190  1095.268
 191  1177.764
 192  1224.996
 193  1087.042
 194  1064.012
 195  1179.789
 196  1198.598
 197  1139.319
 198  1099.222
 199  1064.532
 200  921.1838
 201  977.7833
 202  1037.513
 203  1089.016
 204  1111.159
 205  1056.108
 206  1155.185
 207  1108.552
 208  1033.022
 209  1042.973
 210  1173.222
 211  1087.481
 212  1106.115
 213  1218.188
 214  1111.349
 215  1102.103
 216  1039.156
 217  1056.989
 218  1016.34
 219  1050.811
 220  1111.756
 221  1106.065
 222  1077.114
 223  1130.713
 224  1065.617
 225  944.4593
 226  952.7613
 227  1015.674
 228  1071.722
 229  1025.856
 230  1080.557
 231  1088.96
 232  1059.627
 233  1045.175
 234  984.0493
 235  1058.869
 236  931.9351
 237  1026.402
 238  1027.74
 239  995.5894
 240  1009.978
 241  992.6629
 242  1032.013
 243  1071.586
 244  1031.435
 245  1037.859
 246  1052.595
 247  1043.783
 248  1174.967
 249  1256.111
 250  1218.366
 251  1043.528
 252  980.0065
 253  1028.589
 254  1124.251
 255  1078.645
 256  1008.066
 257  957.8702
 258  1114.866
 259  1236.208
 260  1172.747
 261  1119.007
 262  1167.85
 263  1145.075
 264  1038.182
 265  1050.366
 266  1038.96
 267  1112.998
 268  1059.87
 269  1089.295
 270  1155.756
 271  1115.773
 272  1123.238
 273  1110.31
 274  1133.601
 275  1118.415
 276  974.0446
 277  1036.713
 278  1074.555
 279  1055.635
 280  1099.814
 281  1134
 282  1114.105
 283  1082.922
 284  1077.185
 285  1062.914
 286  1060.342
 287  1014.851
 288  1041.253
 289  1119.561
 290  1218.771
 291  1146.876
 292  1207.658
 293  1174.871
 294  1059.997
 295  993.9455
 296  1052.505
 297  1008.912
 298  1016.387
 299  1042.036
 300  1038.52
 301  1092.128
 302  1170.106
 303  1117.982
 304  1101.717
 305  1105.598
 306  1040.834
 307  1020.308
 308  982.2791
 309  973.7692
 310  1041.563
 311  1134.293
 312  1093.437
 313  1122.081
 314  1203.636
 315  1141.994
 316  1091.689
 317  1092.784
 318  1191.944
 319  1191.563
 320  1159.49
 321  1042.339
 322  983.0661
 323  958.7444
 324  1038.274
 325  988.2535
 326  1111.777
 327  1128.629
 328  1134.607
 329  1101.107
 330  934.5467
 331  1002.578
 332  1142.707
 333  1140.276
 334  1200.496
 335  1164.339
 336  1089.589
 337  1065.727
 338  1070.802
 339  1105.938
 340  1106.281
 341  1068.4
 342  1115.029
 343  1179.877
 344  1141.191
 345  1174.1
 346  1103.561
 347  1102.558
 348  1150.717
 349  1115.928
 350  1095.079
 351  1061.178
 352  999.5264
 353  1055.983
 354  1133.677
 355  1173.773
 356  1231.609
 357  1146.938
 358  990.5949
 359  1088.079
 360  1127.775
 361  1158.101
 362  1159.54
 363  1159.269
 364  1116.135
 365  1103.245
 366  1164.478
 367  1150.167
 368  1065.875
 369  1006.592
 370  1008.576
 371  1084.317
 372  1058.665
 373  1065.155
 374  1140.273
 375  1147.303
 376  1069.268
 377  966.1362
 378  1081.1
 379  1084.666
 380  1005.752
 381  1145.097
 382  1040.826
 383  899.3899
 384  967.1653
 385  1026.188
 386  1048.443
 387  979.7167
 388  921.8044
 389  1035.104
 390  1148.025
 391  1211.272
 392  1136.124
 393  1112.909
 394  1015.255
 395  1006.358
 396  1138.962
 397  1193.881
 398  1145.265
 399  1213.734
 400  1093.437
 401  1082.279
 402  1035.556
 403  1100.644
 404  1106.916
 405  1010.894
 406  1057.642
 407  1094.377
 408  1008.103
 409  983.8269
 410  998.3461
 411  977.3928
 412  955.531
 413  966.9867
 414  1061.286
 415  1058.091
 416  1102.263
 417  1074.48
 418  992.4208
 419  996.9597
 420  996.3652
 421  1066.654
 422  1155.456
 423  975.0819
 424  1072.302
 425  1072.234
 426  1058.86
 427  1004.952
 428  1025.58
 429  1069.56
 430  1122.447
 431  1086.596
 432  1072.835
 433  1019.299
 434  1090.925
 435  1126.999
 436  1074.815
 437  1033.001
 438  1030.525
 439  1062.501
 440  1021.036
 441  1040.484
 442  1049.217
 443  983.7431
 444  1005.847
 445  1062.902
 446  1096.723
 447  1010.258
 448  1008.508
 449  970.9995
 450  1127.522
 451  1109.655
 452  1044.813
 453  1035.418
 454  958.6725
 455  909.6575
 456  923.4964
 457  1029.081
 458  1147.087
 459  1045.987
 460  1085.265
 461  1070.821
 462  1067.097
 463  1140.07
 464  1129.947
 465  1135.823
 466  1037.973
 467  934.0732
 468  1001.013
 469  1035.21
 470  1033.191
 471  1053.716
 472  1088.278
 473  1010.675
 474  1009.122
 475  1037.37
 476  1035.25
 477  1097.629
 478  1016.081
 479  1075.262
 480  1094.942
 481  1097.772
 482  1091.803
 483  1088.733
 484  1017.902
 485  1103.935
 486  1129.839
 487  1009.704
 488  990.0779
 489  1047.694
 490  1065.172
 491  1003.507
 492  1066.441
 493  1075.169
 494  1012.924
 495  991.5104
 496  940.8013
 497  976.5145
 498  1029.116
 499  974.9427
 500  965.8322
 501  1014.133
 502  1030.392
 503  1034.109
 504  1035.455
 505  1007.951
 506  1005.084
 507  1090.098
 508  1041.445
 509  1014.199
 510  1022.456
 511  996.2173
