# Input file       =  1196708008.118209_cleaned.dat
# Candidate        =  PSR_0332+5434
# Telescope        =  AR
# Epoch_topo       =  58094.787350905193
# Epoch_bary       =  N/A
# T_sample         =  0.002
# Data Folded      =  7340032
# Data Avg         =  0.0523864044060718
# Data StdDev      =  1.00041736669069 
# Profile Bins     =  512
# Profile Avg      =  750.761122794569 
# Profile StdDev   =  119.783008957924 
# Reduced chi-sqr  =  0.786
# Prob(Noise)      <  1   (~0.0 sigma)
# P_topo (ms)      =  714.532642872384  +/- 0.000164
# P'_topo (s/s)    =  -0                +/- 8.68e-11
# P''_topo (s/s^2) =  0                 +/- 3.83e-14
# P_bary (ms)      =  N/A
# P'_bary (s/s)    =  N/A
# P''_bary (s/s^2) =  N/A
# P_orb (s)        =  N/A
# asin(i)/c (s)    =  N/A
# eccentricity     =  N/A
# w (rad)          =  N/A
# T_peri           =  N/A
######################################################
   0  1071.607
   1  1072.948
   2  973.2548
   3  730.591
   4  746.5696
   5  695.1213
   6  693.8912
   7  674.3875
   8  640.3583
   9  693.5769
  10  751.2162
  11  741.0824
  12  755.9321
  13  675.8614
  14  803.5497
  15  773.6052
  16  702.3229
  17  698.5682
  18  732.3528
  19  733.7813
  20  746.1765
  21  813.8267
  22  843.4037
  23  800.2478
  24  748.2545
  25  788.1273
  26  858.6193
  27  840.6003
  28  803.7846
  29  753.97
  30  706.4554
  31  732.4746
  32  719.8768
  33  809.5675
  34  740.2143
  35  838.8209
  36  861.7325
  37  699.7018
  38  666.64
  39  706.7838
  40  640.5544
  41  608.522
  42  613.4495
  43  700.7526
  44  747.4627
  45  563.5314
  46  581.4134
  47  765.5462
  48  765.7874
  49  801.5541
  50  745.5508
  51  725.6235
  52  788.7947
  53  808.2764
  54  650.25
  55  635.0446
  56  706.3648
  57  710.7941
  58  711.4133
  59  678.2903
  60  671.2579
  61  624.1096
  62  660.0532
  63  694.5298
  64  792.1216
  65  887.9708
  66  811.7251
  67  700.2886
  68  693.7086
  69  673.915
  70  773.2106
  71  776.1006
  72  756.2565
  73  742.6262
  74  738.8362
  75  839.4969
  76  730.6298
  77  753.9946
  78  759.3213
  79  822.9369
  80  716.6837
  81  696.6807
  82  605.8795
  83  611.3883
  84  608.9987
  85  733.7238
  86  821.6003
  87  786.7874
  88  749.8311
  89  670.6135
  90  729.5831
  91  671.455
  92  761.3427
  93  806.1896
  94  785.2009
  95  783.1182
  96  832.9764
  97  805.621
  98  667.1452
  99  733.9694
 100  806.4193
 101  837.4027
 102  849.754
 103  784.8707
 104  610.1712
 105  572.59
 106  652.3389
 107  740.0856
 108  747.917
 109  696.5576
 110  634.3514
 111  605.8464
 112  664.8444
 113  780.0113
 114  846.7604
 115  965.8515
 116  813.8005
 117  617.101
 118  749.9061
 119  737.0861
 120  671.3393
 121  687.7634
 122  731.8386
 123  773.938
 124  686.9343
 125  719.2956
 126  767.3499
 127  760.0233
 128  744.9211
 129  776.6411
 130  828.1168
 131  867.6161
 132  783.5862
 133  791.351
 134  709.0746
 135  745.0972
 136  747.278
 137  777.8962
 138  724.0928
 139  684.0812
 140  761.1572
 141  821.9421
 142  790.8912
 143  823.934
 144  742.0154
 145  754.1237
 146  675.7705
 147  639.1744
 148  693.3981
 149  739.47
 150  833.2186
 151  854.7764
 152  786.3171
 153  842.6707
 154  808.6884
 155  708.1321
 156  708.2588
 157  741.0815
 158  756.3544
 159  750.6922
 160  756.5746
 161  752.5768
 162  750.2909
 163  725.3322
 164  761.5317
 165  704.5285
 166  599.8133
 167  730.2149
 168  791.6648
 169  723.25
 170  600.9876
 171  516.4908
 172  535.4262
 173  693.7535
 174  789.8663
 175  718.7875
 176  750.6066
 177  659.4818
 178  601.163
 179  661.4554
 180  657.2067
 181  779.7238
 182  818.0487
 183  727.4894
 184  756.4575
 185  774.6447
 186  758.7502
 187  608.0684
 188  671.5912
 189  795.0819
 190  761.185
 191  801.3963
 192  771.2673
 193  681.4936
 194  685.9398
 195  759.299
 196  776.4501
 197  759.0794
 198  795.0934
 199  791.1708
 200  738.517
 201  677.4495
 202  567.1017
 203  643.0782
 204  653.3813
 205  639.5463
 206  691.2606
 207  784.0168
 208  743.5115
 209  633.5869
 210  702.9144
 211  756.0963
 212  796.1235
 213  797.4632
 214  882.6612
 215  785.2277
 216  672.1014
 217  845.0791
 218  880.5259
 219  776.4383
 220  720.5906
 221  844.1577
 222  861.2154
 223  729.5516
 224  740.4207
 225  814.673
 226  753.048
 227  789.762
 228  923.3596
 229  815.074
 230  675.223
 231  680.4927
 232  763.676
 233  747.7009
 234  845.8912
 235  738.1394
 236  667.8423
 237  714.5698
 238  738.7353
 239  799.7989
 240  770.9669
 241  778.7136
 242  840.5508
 243  837.7606
 244  841.6891
 245  801.2656
 246  760.2601
 247  786.7665
 248  666.2135
 249  804.5287
 250  847.8995
 251  813.9025
 252  832.7234
 253  777.6712
 254  696.5097
 255  758.1472
 256  708.7855
 257  687.2937
 258  805.5179
 259  798.1757
 260  649.1673
 261  656.7799
 262  815.8239
 263  786.6569
 264  750.2948
 265  827.816
 266  708.6838
 267  700.887
 268  790.6512
 269  778.1737
 270  735.4792
 271  833.3562
 272  806.9469
 273  718.0791
 274  751.5563
 275  851.1205
 276  796.5407
 277  769.6848
 278  632.8867
 279  743.6072
 280  790.5868
 281  752.4026
 282  813.3059
 283  756.9062
 284  857.5497
 285  907.6501
 286  774.9732
 287  659.9261
 288  659.3883
 289  713.8635
 290  717.0315
 291  633.4788
 292  630.2224
 293  811.3309
 294  769.0573
 295  716.6677
 296  720.2397
 297  728.6064
 298  656.0602
 299  667.1539
 300  816.7459
 301  786.8152
 302  705.0482
 303  768.3787
 304  739.6007
 305  797.3121
 306  690.8417
 307  719.7741
 308  702.8955
 309  681.0688
 310  634.6514
 311  728.4561
 312  853.5901
 313  778.1019
 314  832.7565
 315  928.1705
 316  826.8126
 317  752.583
 318  889.5436
 319  831.6707
 320  768.6191
 321  653.2676
 322  760.8032
 323  775.4149
 324  793.7545
 325  881.6688
 326  895.9654
 327  880.598
 328  820.4398
 329  909.2807
 330  811.9572
 331  678.1651
 332  686.6517
 333  743.5276
 334  707.4646
 335  746.5378
 336  771.6815
 337  747.7063
 338  690.965
 339  685.0997
 340  756.0259
 341  851.4596
 342  742.3484
 343  645.9061
 344  586.6753
 345  688.8719
 346  762.8198
 347  707.1122
 348  751.8796
 349  673.3102
 350  689.9516
 351  731.3486
 352  765.338
 353  710.7919
 354  645.9736
 355  807.7081
 356  718.2854
 357  637.1046
 358  719.9954
 359  793.181
 360  700.3598
 361  798.3521
 362  797.1337
 363  739.2295
 364  838.3379
 365  894.5702
 366  823.787
 367  815.1417
 368  910.9518
 369  908.9661
 370  762.2969
 371  763.9971
 372  813.3631
 373  721.0422
 374  620.7536
 375  712.6288
 376  728.277
 377  756.3221
 378  751.6135
 379  776.0691
 380  796.0977
 381  742.0791
 382  818.8555
 383  854.3466
 384  708.4553
 385  769.4432
 386  810.5728
 387  870.8406
 388  754.3409
 389  753.4314
 390  732.0109
 391  754.0963
 392  733.4863
 393  749.6509
 394  752.5692
 395  713.1277
 396  737.7187
 397  861.3583
 398  836.4265
 399  699.9642
 400  711.1587
 401  811.6787
 402  686.3526
 403  721.5097
 404  806.3231
 405  789.2495
 406  717.9766
 407  701.7859
 408  673.0247
 409  679.0267
 410  680.2109
 411  712.0811
 412  739.0836
 413  864.1182
 414  851.8649
 415  760.062
 416  679.2771
 417  694.186
 418  760.6193
 419  768.3525
 420  789.3474
 421  869.7963
 422  816.6802
 423  809.0491
 424  839.2086
 425  796.1905
 426  771.4777
 427  832.843
 428  766.3436
 429  755.6195
 430  773.4325
 431  708.0857
 432  685.1796
 433  710.0426
 434  758.3488
 435  817.4158
 436  831.5984
 437  840.9451
 438  794.2203
 439  845.0503
 440  776.0109
 441  707.8199
 442  679.9598
 443  695.9888
 444  749.1
 445  736.332
 446  793.4938
 447  851.6868
 448  845.1606
 449  835.5753
 450  770.494
 451  737.5107
 452  740.8323
 453  695.0453
 454  735.1124
 455  824.2586
 456  874.311
 457  803.637
 458  825.9099
 459  776.8926
 460  736.4553
 461  748.5172
 462  870.5246
 463  825.5731
 464  742.4957
 465  697.3414
 466  782.6697
 467  746.8799
 468  717.0121
 469  769.2487
 470  625.6141
 471  666.2115
 472  636.0922
 473  588.9026
 474  639.9921
 475  717.5952
 476  625.0797
 477  561.1603
 478  621.1625
 479  698.821
 480  651.213
 481  652.1605
 482  706.4948
 483  716.7544
 484  715.6348
 485  611.4855
 486  684.952
 487  750.6765
 488  680.2707
 489  647.4297
 490  729.027
 491  710.8062
 492  753.4033
 493  815.0207
 494  818.9185
 495  741.6342
 496  656.462
 497  679.9716
 498  789.1405
 499  767.3901
 500  728.1741
 501  795.2775
 502  804.3608
 503  821.899
 504  783.2918
 505  743.0463
 506  845.9523
 507  869.6175
 508  839.494
 509  918.6696
 510  993.3613
 511  1100.019
