# Input file       =  1196607167.098366_cleaned.dat
# Candidate        =  PSR_0332+5434
# Telescope        =  AR
# Epoch_topo       =  58093.620209471832
# Epoch_bary       =  N/A
# T_sample         =  0.002
# Data Folded      =  7208960
# Data Avg         =  0.314512799688699
# Data StdDev      =  5.65977536943922 
# Profile Bins     =  512
# Profile Avg      =  4428.40465866941 
# Profile StdDev   =  671.584280514183 
# Reduced chi-sqr  =  0.601
# Prob(Noise)      <  1   (~0.0 sigma)
# P_topo (ms)      =  714.531441218158  +/- 3.42e-05
# P'_topo (s/s)    =  -0                +/- 1.84e-11
# P''_topo (s/s^2) =  0                 +/- 8.25e-15
# P_bary (ms)      =  N/A
# P'_bary (s/s)    =  N/A
# P''_bary (s/s^2) =  N/A
# P_orb (s)        =  N/A
# asin(i)/c (s)    =  N/A
# eccentricity     =  N/A
# w (rad)          =  N/A
# T_peri           =  N/A
######################################################
   0  4476.445
   1  4785.058
   2  4442.156
   3  4879.645
   4  5060.068
   5  4802.578
   6  4166.53
   7  4396.88
   8  4635.951
   9  4414.455
  10  4450.255
  11  4815.861
  12  4711.45
  13  4424.087
  14  4372.312
  15  4272.071
  16  4483.519
  17  4255.952
  18  4707.503
  19  5251.83
  20  5001.338
  21  4867.5
  22  5084.02
  23  4611.336
  24  4488.098
  25  5131.359
  26  5027.921
  27  4674.372
  28  4673.011
  29  4766.59
  30  4705.652
  31  4055.665
  32  3944.114
  33  4237
  34  4404.562
  35  4347.068
  36  4570.141
  37  4879.132
  38  4534.405
  39  4172.934
  40  4228.568
  41  4450.286
  42  3877.839
  43  4121.492
  44  4458.873
  45  4259.221
  46  4193.164
  47  4804.789
  48  4913.958
  49  4591.023
  50  4719.003
  51  4912.203
  52  4647.949
  53  4347.693
  54  5216.24
  55  5169.884
  56  4564.998
  57  4397.778
  58  4871.357
  59  4889.631
  60  4288.45
  61  4152.14
  62  4034.753
  63  3977.891
  64  3534.897
  65  4025.947
  66  4411.562
  67  4760.845
  68  4496.275
  69  4655.342
  70  4421.58
  71  4325.784
  72  4511.309
  73  4398.077
  74  4433.769
  75  4691.899
  76  4681.993
  77  4624.132
  78  4366.294
  79  4614.968
  80  4513.061
  81  4104.834
  82  3861.754
  83  4373.813
  84  4581.819
  85  4242.456
  86  4361.949
  87  4408.284
  88  4048.501
  89  3539.587
  90  4312.65
  91  4320.453
  92  3691.501
  93  3997.868
  94  4419.472
  95  3838.369
  96  3790.979
  97  4252.709
  98  4733.064
  99  4827.229
 100  5242.999
 101  5766.777
 102  5841.535
 103  5179.085
 104  5218.994
 105  5152.322
 106  4789.706
 107  4644.173
 108  5364.528
 109  5432.618
 110  4910.413
 111  5089.273
 112  5029.515
 113  4477.043
 114  4191.379
 115  5004.046
 116  4785.703
 117  4391.181
 118  4582.579
 119  5168.016
 120  4947.082
 121  4484.624
 122  4697.797
 123  4700.961
 124  4554.541
 125  4739.482
 126  4944.256
 127  4768.056
 128  4793.049
 129  4804.64
 130  4357.779
 131  4003.109
 132  3884.643
 133  5078.447
 134  5095.43
 135  5004.087
 136  5294.059
 137  4717.511
 138  4534.889
 139  3685.59
 140  4353.954
 141  4639.867
 142  4586.781
 143  4821.226
 144  4864.66
 145  4313.421
 146  3719.214
 147  3698.771
 148  4302.363
 149  4243.325
 150  4775.229
 151  4946.422
 152  4530.148
 153  4451.847
 154  4319.811
 155  4489.933
 156  4191.11
 157  4316.227
 158  4686.298
 159  4317.069
 160  4004.087
 161  4070.039
 162  4482.524
 163  3897.522
 164  3906.84
 165  4514.695
 166  4924.085
 167  4537.81
 168  4719.626
 169  4442.908
 170  3923.082
 171  3679.139
 172  4188.557
 173  4849.817
 174  4952.265
 175  4477.575
 176  4565.373
 177  4472.5
 178  4541.174
 179  4418.877
 180  4733.898
 181  4802.749
 182  4844.447
 183  4570.766
 184  4838.749
 185  4805.045
 186  4619.739
 187  4368.225
 188  4087.601
 189  3574.492
 190  4162.825
 191  4414.922
 192  3848.852
 193  4192.642
 194  4796.02
 195  4686.035
 196  4150.288
 197  4115.939
 198  4913.973
 199  4393.542
 200  4681.113
 201  5040.308
 202  5086.123
 203  4562.414
 204  3956.595
 205  4110.839
 206  3812.99
 207  4200.32
 208  4478.013
 209  5151.8
 210  4674.602
 211  4161.254
 212  4302.142
 213  3927.619
 214  4045.1
 215  4333.382
 216  4596.119
 217  4595.726
 218  4721.085
 219  4920.855
 220  4704.69
 221  3946.651
 222  3746.993
 223  4626.842
 224  4679.224
 225  4300.597
 226  4212.667
 227  4574.052
 228  4252.998
 229  4161.707
 230  3963.744
 231  4527.186
 232  4254.35
 233  4004.575
 234  4562.322
 235  4018.504
 236  4209.152
 237  4407.529
 238  4133.117
 239  4107.397
 240  4608.552
 241  4967.868
 242  4143.837
 243  4202.746
 244  4445.56
 245  4036.974
 246  4028.373
 247  4642.735
 248  4836.569
 249  4866.757
 250  4879.826
 251  4723.783
 252  4700.954
 253  4349.115
 254  4187.46
 255  4285.108
 256  4392.604
 257  4537.67
 258  4804.466
 259  4714.816
 260  4298.93
 261  4409.682
 262  4768.157
 263  4916.107
 264  4369.56
 265  4786.326
 266  4678.816
 267  4743.521
 268  4607.776
 269  4250.101
 270  4228.499
 271  4159.526
 272  4309.678
 273  4440.088
 274  4519.559
 275  4337.474
 276  4522.853
 277  4324.027
 278  3880.32
 279  3917.24
 280  4433.411
 281  4771.635
 282  4251.781
 283  4424.018
 284  4630.688
 285  4781.569
 286  4516.615
 287  4430.574
 288  4413.383
 289  4068.13
 290  4247.718
 291  4576.947
 292  4177.121
 293  4179.215
 294  4158.504
 295  4280.134
 296  3826.017
 297  3994.314
 298  4950.133
 299  5099.027
 300  4702.636
 301  5018.937
 302  4911.565
 303  4390.443
 304  3917.137
 305  4558.889
 306  4489.36
 307  4001.579
 308  4597.174
 309  4309.4
 310  3810.998
 311  4093.897
 312  4648.408
 313  4427.894
 314  4242.255
 315  4392.999
 316  4648.326
 317  4460.947
 318  4055.967
 319  3951.992
 320  4388.263
 321  4284.33
 322  4118.621
 323  4236.673
 324  4164.964
 325  3615.123
 326  4103.527
 327  4546.517
 328  4151.857
 329  3920.687
 330  4340.872
 331  3992.321
 332  4063.592
 333  4645.616
 334  5013.34
 335  4980.369
 336  4332.575
 337  4457.317
 338  4481.755
 339  3877.01
 340  3974.351
 341  4671.14
 342  4927.517
 343  4300.467
 344  4250.516
 345  4224.058
 346  3867.26
 347  4070.757
 348  4832.24
 349  4788.985
 350  4199.558
 351  4327.961
 352  4258.498
 353  3925.128
 354  3847.939
 355  4001.21
 356  3799.103
 357  3879.096
 358  4509.698
 359  4894.726
 360  3865.187
 361  3420.543
 362  3917.377
 363  3680.703
 364  3855.455
 365  4151.208
 366  4783.729
 367  5104.862
 368  4671.966
 369  4719.55
 370  4753.668
 371  4145.485
 372  4021.441
 373  4764.429
 374  4625.776
 375  4125.244
 376  4195.274
 377  4614.444
 378  4326.478
 379  4173.483
 380  4772.806
 381  4535.945
 382  4131.881
 383  4309.385
 384  5023.514
 385  4583.281
 386  4178.451
 387  4511.915
 388  4896.112
 389  4704.171
 390  4575.222
 391  4610.463
 392  4388.967
 393  4595.396
 394  4625.597
 395  4341.003
 396  4184.14
 397  4209.698
 398  4718.328
 399  4982.927
 400  4532.741
 401  4393
 402  4660.926
 403  4152.503
 404  4460.683
 405  4703.716
 406  4670.367
 407  4233.021
 408  4118.588
 409  4626.872
 410  4014.022
 411  3294.263
 412  3636.025
 413  4454.084
 414  4143.377
 415  4213.635
 416  4891.2
 417  4385.808
 418  3963.646
 419  4132.266
 420  4514.929
 421  4378.031
 422  4033.724
 423  4029.51
 424  4429.726
 425  4222.23
 426  4159.175
 427  4028.554
 428  3524.835
 429  3982.59
 430  4090.584
 431  4542.65
 432  4573.168
 433  4529.093
 434  4798.159
 435  3906.193
 436  3425.059
 437  3586.635
 438  4065.499
 439  4414.131
 440  4318.708
 441  4532.361
 442  4619.911
 443  3766.869
 444  3475.035
 445  3902.342
 446  4105.807
 447  4274.093
 448  4857.085
 449  4686.406
 450  4366.401
 451  4277.12
 452  4666.611
 453  4446.11
 454  3951.628
 455  4230.343
 456  4921.153
 457  4539.205
 458  4167.047
 459  4774.208
 460  4423.992
 461  4005.35
 462  3720.274
 463  4244.379
 464  4296.181
 465  4210.765
 466  4726.474
 467  4719.47
 468  4006.281
 469  4094.437
 470  4555.158
 471  4602.541
 472  4304.14
 473  4412.944
 474  4610.954
 475  4267.513
 476  4137.5
 477  4005.365
 478  3949.064
 479  3908.739
 480  4198.408
 481  4512.999
 482  4799.903
 483  4672.821
 484  4637.327
 485  4786.243
 486  4162.95
 487  4220.654
 488  4625.719
 489  4379.809
 490  4160.562
 491  4358.729
 492  4123.703
 493  3897.855
 494  4089.829
 495  4413.577
 496  4785.623
 497  4640.585
 498  4680.177
 499  4849.891
 500  4188.078
 501  4007.104
 502  4426.145
 503  4753.015
 504  4544.36
 505  4865.023
 506  4854.48
 507  4215.8
 508  4419.981
 509  4835.535
 510  4688.286
 511  4419.472
