# Input file       =  1196191533.12459_cleaned.dat
# Candidate        =  PSR_0332+5434
# Telescope        =  AR
# Epoch_topo       =  58088.809631071643
# Epoch_bary       =  N/A
# T_sample         =  0.002
# Data Folded      =  7340032
# Data Avg         =  0.0567486284135044
# Data StdDev      =  0.999950499521671
# Profile Bins     =  512
# Profile Avg      =  813.659443482014 
# Profile StdDev   =  119.727109534194 
# Reduced chi-sqr  =  0.773
# Prob(Noise)      <  1   (~0.0 sigma)
# P_topo (ms)      =  714.526522901503  +/- 7.42e-05
# P'_topo (s/s)    =  -0                +/- 3.91e-11
# P''_topo (s/s^2) =  0                 +/- 1.73e-14
# P_bary (ms)      =  N/A
# P'_bary (s/s)    =  N/A
# P''_bary (s/s^2) =  N/A
# P_orb (s)        =  N/A
# asin(i)/c (s)    =  N/A
# eccentricity     =  N/A
# w (rad)          =  N/A
# T_peri           =  N/A
######################################################
   0  817.4555
   1  799.4984
   2  684.3582
   3  757.6781
   4  797.3228
   5  783.4128
   6  788.5646
   7  728.9083
   8  704.925
   9  737.5471
  10  652.7215
  11  719.1918
  12  770.5967
  13  773.9491
  14  691.1318
  15  665.4122
  16  725.7346
  17  791.6183
  18  790.3724
  19  656.7465
  20  762.2798
  21  792.3447
  22  851.9597
  23  784.3264
  24  780.5293
  25  856.2471
  26  885.6971
  27  866.1211
  28  779.6133
  29  788.3099
  30  739.4625
  31  732.8869
  32  769.8198
  33  767.7952
  34  701.1754
  35  758.7854
  36  796.5276
  37  589.035
  38  601.0198
  39  649.7997
  40  650.8269
  41  651.7775
  42  785.3298
  43  893.8856
  44  788.7516
  45  740.5467
  46  783.082
  47  789.5793
  48  830.7123
  49  760.58
  50  741.9297
  51  862.7321
  52  921.7953
  53  882.8597
  54  845.4087
  55  787.7373
  56  893.9401
  57  832.4468
  58  699.9475
  59  744.8732
  60  822.1812
  61  818.5512
  62  820.2313
  63  858.16
  64  766.5842
  65  769.438
  66  831.6325
  67  761.4937
  68  884.0939
  69  904.3538
  70  870.84
  71  865.1404
  72  869.4178
  73  792.0633
  74  699.9551
  75  771.0505
  76  802.5588
  77  742.724
  78  752.0212
  79  843.3629
  80  923.6805
  81  868.3278
  82  799.3918
  83  770.8164
  84  847.142
  85  944.7523
  86  919.2654
  87  814.8137
  88  706.2192
  89  744.8483
  90  831.7656
  91  847.1948
  92  771.9243
  93  698.2047
  94  691.4539
  95  823.9525
  96  806.7204
  97  783.1132
  98  847.6673
  99  890.1359
 100  846.3216
 101  844.4109
 102  814.722
 103  749.6395
 104  797.6888
 105  830.7643
 106  804.4091
 107  887.563
 108  912.494
 109  826.2949
 110  785.9443
 111  777.5972
 112  741.57
 113  756.9276
 114  822.4832
 115  784.0959
 116  739.4017
 117  712.096
 118  762.1149
 119  802.6808
 120  801.992
 121  728.9727
 122  789.5034
 123  813.7343
 124  834.8503
 125  805.2405
 126  716.7578
 127  742.4521
 128  876.6812
 129  856.3499
 130  743.2375
 131  844.3099
 132  732.2913
 133  719.195
 134  820.7839
 135  741.1758
 136  827.7589
 137  831.5445
 138  797.9595
 139  832.5602
 140  842.428
 141  810.067
 142  867.0338
 143  870.1597
 144  883.7393
 145  801.6956
 146  733.5381
 147  821.3722
 148  915.7146
 149  921.6771
 150  894.5472
 151  877.0378
 152  958.7763
 153  900.1088
 154  790.7673
 155  862.4824
 156  848.5774
 157  914.0477
 158  890.5583
 159  860.2684
 160  687.9548
 161  781.1534
 162  791.011
 163  845.0691
 164  923.5086
 165  819.7044
 166  785.4958
 167  779.406
 168  726.0062
 169  564.8259
 170  602.3656
 171  882.4888
 172  895.2733
 173  824.5941
 174  715.6119
 175  692.5944
 176  773.9655
 177  845.0136
 178  737.7399
 179  884.5162
 180  953.9634
 181  952.1165
 182  803.5162
 183  778.1788
 184  799.3248
 185  832.6757
 186  898.5652
 187  959.8434
 188  849.892
 189  863.4219
 190  891.6985
 191  846.6143
 192  854.1045
 193  815.0345
 194  706.6978
 195  705.6613
 196  815.6301
 197  818.2265
 198  800.1136
 199  837.3218
 200  992.0518
 201  1100.76
 202  1070.172
 203  1009.225
 204  1015.648
 205  1008.105
 206  932.4944
 207  918.6141
 208  900.8127
 209  823.1664
 210  868.7771
 211  877.6707
 212  768.8039
 213  703.8635
 214  820.3478
 215  827.79
 216  854.9335
 217  850.6367
 218  775.4177
 219  778.2574
 220  846.4858
 221  803.0868
 222  806.7664
 223  849.5165
 224  957.2983
 225  863.3765
 226  802.6661
 227  857.3353
 228  872.2831
 229  888.9553
 230  902.4041
 231  891.3073
 232  857.2308
 233  1034.503
 234  1016.281
 235  960.1387
 236  885.9942
 237  774.7104
 238  905.8644
 239  916.8864
 240  905.2479
 241  770.7923
 242  759.8359
 243  838.3883
 244  835.736
 245  836.179
 246  796.5226
 247  774.474
 248  786.1637
 249  824.0057
 250  909.201
 251  860.5204
 252  937.1673
 253  862.5804
 254  781.9448
 255  815.6801
 256  812.1172
 257  834.478
 258  940.6
 259  901.0331
 260  749.7781
 261  710.9258
 262  761.689
 263  805.6648
 264  775.8899
 265  775.3194
 266  754.152
 267  878.1328
 268  819.4152
 269  704.7085
 270  681.2963
 271  725.4497
 272  717.0975
 273  738.3181
 274  676.6277
 275  654.8018
 276  721.2838
 277  746.7324
 278  709.2232
 279  726.3033
 280  794.327
 281  772.3914
 282  785.5848
 283  670.6188
 284  781.7957
 285  767.1216
 286  712.1725
 287  864.4817
 288  923.1599
 289  878.997
 290  880.0312
 291  873.8912
 292  833.4934
 293  771.4745
 294  841.5162
 295  847.006
 296  834.783
 297  797.2
 298  757.3297
 299  860.0236
 300  772.0411
 301  765.2741
 302  870.5691
 303  815.3796
 304  730.0015
 305  805.1823
 306  910.0872
 307  892.5469
 308  868.3478
 309  946.7347
 310  880.1437
 311  891.9699
 312  910.8794
 313  791.3856
 314  823.7418
 315  879.277
 316  939.127
 317  902.4285
 318  862.5469
 319  867.8741
 320  813.2178
 321  831.8872
 322  902.4985
 323  920.4299
 324  790.6929
 325  832.5192
 326  793.2449
 327  773.8702
 328  760.6075
 329  697.1935
 330  788.6534
 331  810.4556
 332  850.847
 333  713.3287
 334  695.9796
 335  803.0385
 336  758.0155
 337  676.6251
 338  765.8911
 339  816.8941
 340  830.6283
 341  756.7862
 342  727.7397
 343  775.8532
 344  725.1376
 345  751.1385
 346  859.8505
 347  843.7751
 348  875.5013
 349  826.727
 350  859.5552
 351  889.9976
 352  865.2573
 353  948.2759
 354  985.3775
 355  817.2992
 356  766.2119
 357  759.1143
 358  816.4548
 359  776.0296
 360  798.6527
 361  726.8303
 362  758.5685
 363  851.5124
 364  782.3913
 365  770.4911
 366  775.5813
 367  945.2616
 368  920.2188
 369  801.6389
 370  830.7132
 371  835.969
 372  857.0242
 373  889.3676
 374  835.7531
 375  802.1211
 376  940.7495
 377  904.1277
 378  742.5807
 379  708.9609
 380  847.4831
 381  896.6741
 382  925.0129
 383  861.296
 384  821.1409
 385  723.6328
 386  763.1393
 387  863.452
 388  818.6205
 389  767.2214
 390  830.3729
 391  822.4545
 392  790.5807
 393  729.1406
 394  808.3233
 395  910.3298
 396  803.1898
 397  734.0762
 398  773.5464
 399  859.8377
 400  995.4311
 401  947.3735
 402  1026.302
 403  951.8096
 404  872.7296
 405  755.264
 406  747.5663
 407  855.715
 408  869.3395
 409  824.5938
 410  868.5951
 411  845.8726
 412  747.2059
 413  745.8018
 414  782.8478
 415  793.7655
 416  833.4372
 417  865.0919
 418  750.0135
 419  753.5959
 420  725.1238
 421  778.39
 422  853.3153
 423  892.6312
 424  927.0443
 425  794.8974
 426  700.4252
 427  767.3826
 428  758.8296
 429  811.9116
 430  886.1957
 431  890.3088
 432  858.6316
 433  869.0728
 434  800.6865
 435  879.4268
 436  813.4711
 437  949.9061
 438  891.4703
 439  937.9251
 440  902.4619
 441  770.986
 442  805.1929
 443  783.0204
 444  737.7538
 445  796.7482
 446  773.0516
 447  747.3904
 448  846.2043
 449  877.6331
 450  839.4086
 451  785.3965
 452  747.1603
 453  813.7863
 454  865.0945
 455  837.8967
 456  818.2438
 457  777.0004
 458  870.5623
 459  918.2924
 460  888.4883
 461  802.4939
 462  816.8442
 463  816.7115
 464  724.0093
 465  779.42
 466  892.4113
 467  848.0349
 468  732.8752
 469  741.2422
 470  707.2894
 471  688.384
 472  722.1598
 473  865.3007
 474  938.2675
 475  850.4501
 476  809.0967
 477  698.4537
 478  730.8301
 479  762.9733
 480  763.9234
 481  865.8185
 482  873.5011
 483  815.4673
 484  764.1572
 485  661.2298
 486  765.9046
 487  760.3124
 488  854.0372
 489  835.7176
 490  817.3019
 491  863.7095
 492  860.4877
 493  697.7642
 494  733.1054
 495  788.7526
 496  789.9852
 497  922.2918
 498  843.047
 499  752.9236
 500  726.8536
 501  773.6988
 502  828.3286
 503  868.546
 504  744.8673
 505  645.6964
 506  692.1343
 507  810.8369
 508  770.3998
 509  726.7219
 510  732.4576
 511  816.6129
