# Input file       =  1196607167.098366_cleaned.dat
# Candidate        =  PSR_0332+5434
# Telescope        =  AR
# Epoch_topo       =  58093.620209471832
# Epoch_bary       =  N/A
# T_sample         =  0.002
# Data Folded      =  7208960
# Data Avg         =  0.0518669891337073
# Data StdDev      =  1.00059081430944 
# Profile Bins     =  512
# Profile Avg      =  730.294580211657 
# Profile StdDev   =  118.729281332536 
# Reduced chi-sqr  =  1.013
# Prob(Noise)      <  0.408   (~0.2 sigma)
# P_topo (ms)      =  714.531439882961  +/- 2.53e-05
# P'_topo (s/s)    =  -0                +/- 1.36e-11
# P''_topo (s/s^2) =  0                 +/- 6.11e-15
# P_bary (ms)      =  N/A
# P'_bary (s/s)    =  N/A
# P''_bary (s/s^2) =  N/A
# P_orb (s)        =  N/A
# asin(i)/c (s)    =  N/A
# eccentricity     =  N/A
# w (rad)          =  N/A
# T_peri           =  N/A
######################################################
   0  967.054
   1  970.7936
   2  880.5671
   3  826.6119
   4  900.4922
   5  904.4597
   6  847.553
   7  897.8286
   8  888.206
   9  765.8868
  10  737.5889
  11  878.1138
  12  792.5005
  13  678.3348
  14  731.1432
  15  840.4208
  16  751.2289
  17  738.2979
  18  873.2095
  19  860.455
  20  771.3182
  21  874.5539
  22  874.2921
  23  774.5754
  24  854.3412
  25  847.9127
  26  796.2595
  27  709.8036
  28  720.8099
  29  971.7177
  30  883.8688
  31  819.3936
  32  835.1379
  33  773.4365
  34  787.8323
  35  665.1677
  36  789.288
  37  794.1312
  38  755.4895
  39  865.7273
  40  767.9998
  41  623.513
  42  517.0444
  43  594.919
  44  705.5948
  45  640.3276
  46  756.588
  47  723.1251
  48  659.5382
  49  752.5332
  50  763.048
  51  782.6355
  52  738.1547
  53  769.3433
  54  844.4063
  55  759.8879
  56  713.8053
  57  755.2173
  58  739.6083
  59  680.6929
  60  688.7559
  61  781.882
  62  726.6578
  63  756.0449
  64  847.5464
  65  809.3193
  66  674.4464
  67  633.0439
  68  816.5992
  69  895.0746
  70  821.005
  71  692.645
  72  784.4929
  73  806.4279
  74  819.0797
  75  793.0471
  76  858.4736
  77  883.1759
  78  830.953
  79  745.3868
  80  813.4152
  81  792.9229
  82  790.9427
  83  706.1623
  84  711.1433
  85  627.5723
  86  767.7515
  87  717.01
  88  564.8925
  89  713.1766
  90  819.7824
  91  865.1747
  92  714.2383
  93  768.9018
  94  897.7429
  95  743.049
  96  779.1218
  97  842.3469
  98  778.2397
  99  689.6643
 100  592.413
 101  636.8015
 102  572.658
 103  608.0487
 104  750.4001
 105  884.9073
 106  815.6013
 107  723.7413
 108  762.9027
 109  645.0482
 110  646.7793
 111  704.5399
 112  726.5241
 113  738.577
 114  753.801
 115  823.2607
 116  796.6371
 117  672.8928
 118  623.7792
 119  788.8496
 120  754.269
 121  715.4387
 122  727.2101
 123  796.7844
 124  761.0567
 125  662.4034
 126  653.3179
 127  826.9033
 128  699.3635
 129  652.6765
 130  750.2933
 131  646.6331
 132  656.1188
 133  705.4826
 134  659.8971
 135  686.073
 136  829.8788
 137  835.1188
 138  681.2142
 139  646.3625
 140  710.7669
 141  615.0083
 142  674.1707
 143  803.257
 144  780.5021
 145  739.6386
 146  712.3372
 147  761.9268
 148  715.7869
 149  677.4507
 150  624.7153
 151  685.7786
 152  696.5297
 153  723.1739
 154  757.632
 155  776.243
 156  711.6562
 157  768.5549
 158  879.3124
 159  823.5542
 160  729.8824
 161  763.3007
 162  737.8416
 163  797.7069
 164  671.3992
 165  611.1074
 166  708.2137
 167  667.578
 168  701.1945
 169  727.3626
 170  740.7518
 171  662.4583
 172  672.4728
 173  681.5182
 174  575.3652
 175  675.4383
 176  776.1304
 177  767.0119
 178  593.1459
 179  624.7641
 180  693.1557
 181  746.5879
 182  763.4427
 183  787.0118
 184  759.1528
 185  740.5967
 186  756.8568
 187  714.3797
 188  611.2249
 189  662.7091
 190  668.397
 191  707.1063
 192  588.1487
 193  664.0936
 194  861.8555
 195  793.1641
 196  736.4288
 197  835.741
 198  850.2212
 199  671.2394
 200  638.269
 201  709.8541
 202  650.916
 203  672.4828
 204  785.9348
 205  717.2667
 206  571.1828
 207  672.902
 208  776.1821
 209  709.5933
 210  663.641
 211  687.5763
 212  692.4847
 213  662.2198
 214  629.5995
 215  640.5348
 216  731.1891
 217  673.498
 218  623.9821
 219  663.5754
 220  631.7832
 221  592.0937
 222  702.5723
 223  755.3279
 224  685.1312
 225  682.3823
 226  718.3732
 227  571.198
 228  575.4333
 229  667.9913
 230  750.0243
 231  738.2549
 232  646.7215
 233  649.7576
 234  684.8816
 235  534.7678
 236  597.6132
 237  806.8331
 238  818.009
 239  667.5628
 240  697.8762
 241  696.681
 242  553.642
 243  686.5949
 244  801.8103
 245  751.6644
 246  647.2607
 247  681.0089
 248  679.2706
 249  649.9551
 250  715.0286
 251  699.0048
 252  558.9022
 253  533.8832
 254  742.3919
 255  803.4938
 256  643.5327
 257  577.0202
 258  670.4383
 259  560.207
 260  506.5373
 261  600.4028
 262  753.479
 263  757.2687
 264  711.4007
 265  827.4147
 266  811.7329
 267  698.3784
 268  677.5781
 269  818.5924
 270  740.6913
 271  651.964
 272  665.1874
 273  735.0465
 274  649.3592
 275  688.7446
 276  815.8961
 277  744.6655
 278  647.4875
 279  744.4109
 280  849.0837
 281  713.9186
 282  627.389
 283  706.5173
 284  815.6014
 285  773.1857
 286  824.6447
 287  792.3721
 288  675.7184
 289  773.6251
 290  819.2845
 291  762.6758
 292  662.5647
 293  703.3754
 294  823.4849
 295  811.8485
 296  685.2562
 297  727.4113
 298  790.4321
 299  720.2699
 300  804.2231
 301  833.6169
 302  822.2893
 303  691.7993
 304  692.8758
 305  757.01
 306  636.99
 307  565.9907
 308  643.5898
 309  713.199
 310  620.8125
 311  676.4936
 312  819.6772
 313  620.2018
 314  562.8878
 315  661.4789
 316  709.3462
 317  683.6868
 318  606.0261
 319  658.2015
 320  721.2419
 321  676.3397
 322  715.942
 323  603.7993
 324  554.949
 325  642.8965
 326  572.0005
 327  612.0372
 328  676.0676
 329  704.6161
 330  756.6169
 331  552.2504
 332  580.7667
 333  617.51
 334  670.0485
 335  727.5096
 336  718.7408
 337  787.0461
 338  772.1348
 339  582.2914
 340  616.3351
 341  686.6688
 342  663.0721
 343  787.3383
 344  854.7154
 345  683.4645
 346  583.8672
 347  651.6451
 348  771.342
 349  806.9268
 350  713.5833
 351  777.6335
 352  844.8904
 353  723.1873
 354  679.9355
 355  795.0086
 356  680.2724
 357  592.737
 358  573.8575
 359  714.2894
 360  710.3578
 361  644.8195
 362  774.3704
 363  682.5603
 364  607.4997
 365  712.938
 366  798.7757
 367  813.0775
 368  737.7765
 369  772.355
 370  729.8502
 371  679.1559
 372  659.9232
 373  640.5497
 374  594.152
 375  621.6474
 376  741.4503
 377  766.7474
 378  783.6038
 379  780.8635
 380  838.6739
 381  789.2732
 382  702.0386
 383  720.2842
 384  699.3394
 385  720.7776
 386  682.0178
 387  771.0815
 388  658.6096
 389  612.8152
 390  700.97
 391  765.6614
 392  809.5109
 393  748.6455
 394  746.4686
 395  734.6948
 396  642.9947
 397  666.5814
 398  783.1306
 399  788.8465
 400  706.7743
 401  871.9449
 402  779.0986
 403  720.9694
 404  726.8616
 405  764.4009
 406  710.665
 407  745.0847
 408  748.1417
 409  853.7285
 410  733.324
 411  785.3985
 412  813.0112
 413  778.0572
 414  708.5854
 415  788.774
 416  843.2389
 417  734.3654
 418  744.8304
 419  820.0388
 420  807.8222
 421  733.6154
 422  750.6714
 423  741.6234
 424  761.9065
 425  724.7609
 426  804.1288
 427  871.438
 428  766.6927
 429  788.0536
 430  842.2247
 431  751.9006
 432  740.3953
 433  912.8209
 434  807.1717
 435  760.8608
 436  862.0575
 437  869.3649
 438  841.6083
 439  707.439
 440  685.9022
 441  686.6848
 442  665.795
 443  618.1072
 444  694.0383
 445  720.4761
 446  699.311
 447  700.0984
 448  769.9875
 449  757.8688
 450  724.7286
 451  696.9062
 452  646.8863
 453  616.8201
 454  684.4645
 455  886.3948
 456  876.8599
 457  785.3165
 458  840.9265
 459  868.7016
 460  758.9304
 461  667.8525
 462  881.1646
 463  898.0552
 464  772.8577
 465  729.4249
 466  850.0369
 467  761.9609
 468  724.3571
 469  665.8555
 470  597.8889
 471  611.1049
 472  591.9698
 473  708.1123
 474  790.3422
 475  830.8578
 476  748.8546
 477  709.4023
 478  691.6016
 479  728.6247
 480  787.1755
 481  747.3843
 482  778.6296
 483  819.1843
 484  766.8821
 485  722.3124
 486  717.7458
 487  789.4153
 488  758.5005
 489  654.0377
 490  560.6892
 491  655.8271
 492  718.7366
 493  649.3455
 494  697.4659
 495  665.3543
 496  585.689
 497  604.3056
 498  725.4203
 499  646.8218
 500  558.7615
 501  657.1027
 502  755.0947
 503  649.467
 504  706.0413
 505  783.7974
 506  802.6939
 507  810.2595
 508  942.8839
 509  1082.836
 510  1112.908
 511  963.7489
