# Input file       =  1196809110.124559_cleaned.dat
# Candidate        =  PSR_0332+5434
# Telescope        =  AR
# Epoch_topo       =  58095.957513015732
# Epoch_bary       =  N/A
# T_sample         =  0.002
# Data Folded      =  7340032
# Data Avg         =  0.0824093042444603
# Data StdDev      =  3.26974753084946 
# Profile Bins     =  512
# Profile Avg      =  1181.21683095303 
# Profile StdDev   =  391.49680005404  
# Reduced chi-sqr  =  0.705
# Prob(Noise)      <  1   (~0.0 sigma)
# P_topo (ms)      =  714.534171476747  +/- 0.000645
# P'_topo (s/s)    =  -0                +/- 3.4e-10
# P''_topo (s/s^2) =  0                 +/- 1.5e-13
# P_bary (ms)      =  N/A
# P'_bary (s/s)    =  N/A
# P''_bary (s/s^2) =  N/A
# P_orb (s)        =  N/A
# asin(i)/c (s)    =  N/A
# eccentricity     =  N/A
# w (rad)          =  N/A
# T_peri           =  N/A
######################################################
   0  1184.821
   1  1198.767
   2  1147.291
   3  1214.701
   4  1320.382
   5  1152.521
   6  1132.174
   7  860.5156
   8  493.5995
   9  1039.804
  10  1003.162
  11  1491.96
  12  1424.055
  13  1072.871
  14  1298.16
  15  1281.211
  16  1249.24
  17  1320.718
  18  972.6741
  19  1083.456
  20  1063.041
  21  1224.936
  22  880.9637
  23  834.6635
  24  1117.256
  25  1387.79
  26  1323.679
  27  1323.916
  28  1220.688
  29  1188.613
  30  1307.853
  31  996.1907
  32  1092.634
  33  1149.635
  34  1429.922
  35  1383.733
  36  1180.338
  37  1161.873
  38  1267.749
  39  1142.939
  40  1029.025
  41  1194.671
  42  1144.707
  43  1158.306
  44  956.9651
  45  1229.196
  46  1286.681
  47  1207.934
  48  1332.826
  49  1322.698
  50  1272.263
  51  1427.39
  52  1302.069
  53  1435.347
  54  1411.296
  55  1139.867
  56  1162.835
  57  1339.786
  58  996.9843
  59  1320.747
  60  1367.943
  61  1623.466
  62  1686.148
  63  1300.793
  64  1003.54
  65  983.2268
  66  1377.865
  67  1673.145
  68  1593.631
  69  1151.615
  70  990.9977
  71  1023.569
  72  1007.594
  73  1127.532
  74  1079.397
  75  1141.718
  76  1150.286
  77  921.5595
  78  765.3676
  79  957.0662
  80  1440.14
  81  1119.734
  82  1216.331
  83  1740.107
  84  1267.387
  85  1022.176
  86  1335.048
  87  1313.915
  88  1565.397
  89  1364.563
  90  794.1479
  91  780.4798
  92  1141.425
  93  1318.394
  94  1310.031
  95  1285.636
  96  1265.222
  97  1296.471
  98  1177.61
  99  1314.849
 100  1368.239
 101  1501.042
 102  1461.257
 103  1290.784
 104  1135.148
 105  991.2872
 106  1145.914
 107  1195.063
 108  1279.774
 109  836.0333
 110  1010.409
 111  592.9985
 112  722.355
 113  1085.884
 114  1154.069
 115  1333.213
 116  1255.281
 117  1282.883
 118  1287.976
 119  1623.32
 120  1279.99
 121  1232.391
 122  1059.446
 123  1259.093
 124  1322.675
 125  1230.584
 126  1388.893
 127  1125.177
 128  1361.047
 129  1369.212
 130  1183.095
 131  986.3374
 132  1144.107
 133  919.4277
 134  1411.265
 135  1281.73
 136  1334.512
 137  1012.753
 138  940.9429
 139  1329.979
 140  1454.379
 141  1249.911
 142  1360.985
 143  1378.133
 144  1312.208
 145  1393.001
 146  1438.278
 147  1283.655
 148  1189.033
 149  1355.297
 150  1343.708
 151  1134.905
 152  1449.51
 153  1825.991
 154  1672.893
 155  1695.138
 156  1555.265
 157  1328.899
 158  1292.486
 159  1123.015
 160  1098.416
 161  1220.431
 162  1393.692
 163  1479.232
 164  1359.286
 165  1277.158
 166  966.3051
 167  958.4399
 168  1277.175
 169  959.3854
 170  805.9553
 171  764.72
 172  877.6348
 173  977.0035
 174  1102.646
 175  939.8571
 176  1073.14
 177  913.355
 178  893.1577
 179  1129.445
 180  1047.056
 181  1111.907
 182  960.8477
 183  1007.619
 184  904.9668
 185  730.1899
 186  847.757
 187  974.788
 188  1101.794
 189  1194.598
 190  1041.577
 191  679.3464
 192  859.9234
 193  891.068
 194  650.981
 195  663.7536
 196  997.733
 197  1114.69
 198  813.2624
 199  1109.903
 200  1196.554
 201  1306.177
 202  1262.517
 203  1242.707
 204  865.6883
 205  821.7852
 206  1343.53
 207  1202.896
 208  1105.652
 209  903.1988
 210  1165.052
 211  996.3994
 212  885.2818
 213  1069.208
 214  1286.108
 215  1395.103
 216  1260.529
 217  1362.127
 218  1579.4
 219  1008.264
 220  975.2476
 221  1150.892
 222  1220.452
 223  1037.146
 224  1238.209
 225  1357.891
 226  944.1253
 227  985.9816
 228  921.0501
 229  896.3043
 230  767.7898
 231  963.3422
 232  884.6725
 233  984.2697
 234  954.7242
 235  1196.982
 236  1445.358
 237  1642.205
 238  1296.726
 239  1081.675
 240  799.303
 241  718.8328
 242  1025.045
 243  1107.933
 244  738.8096
 245  1008.573
 246  1280.046
 247  1563.469
 248  1592.471
 249  1218.536
 250  1546.891
 251  1321.274
 252  936.3032
 253  1151.459
 254  1105.691
 255  961.8629
 256  1086.79
 257  1243.851
 258  1092.049
 259  1170.13
 260  977.0266
 261  974.4244
 262  976.7814
 263  986.207
 264  864.7495
 265  758.4589
 266  769.94
 267  1127.747
 268  1375.349
 269  1249.717
 270  811.472
 271  1179.069
 272  1492.809
 273  1546.624
 274  1412.117
 275  1536.803
 276  1095.944
 277  1032.196
 278  1028.663
 279  1135.334
 280  1424.52
 281  1531.248
 282  1259.527
 283  972.4624
 284  820.1428
 285  747.8172
 286  818.4929
 287  951.2456
 288  789.0991
 289  992.4142
 290  989.361
 291  983.4036
 292  1066.317
 293  939.4905
 294  811.1355
 295  1071.736
 296  1227.146
 297  1045.955
 298  1394.495
 299  1502.478
 300  1367.379
 301  1288.833
 302  1345.687
 303  1313.85
 304  1068.659
 305  1391.084
 306  1541.583
 307  1801.73
 308  1859.4
 309  1571.1
 310  1649.445
 311  1975.683
 312  2297.757
 313  2445.345
 314  2154.924
 315  1720.083
 316  1794.899
 317  1609.723
 318  1527.958
 319  1326.274
 320  1326.61
 321  1048.958
 322  1179.849
 323  1134.079
 324  1307.557
 325  1343.784
 326  1295.69
 327  1463.616
 328  1684.463
 329  1390.333
 330  1050.534
 331  1367.258
 332  1454.071
 333  1049.866
 334  1219.815
 335  1255.525
 336  1464.641
 337  1251.517
 338  1397.394
 339  1524.389
 340  1338.448
 341  942.436
 342  915.394
 343  1081.67
 344  1250.414
 345  1036.165
 346  940.4456
 347  1098.349
 348  1289.756
 349  1375.54
 350  1259.72
 351  1068.102
 352  1269.147
 353  986.5515
 354  908.8074
 355  1031.568
 356  1132.833
 357  1583.016
 358  1845.075
 359  1347.227
 360  1113.831
 361  1075.659
 362  985.6081
 363  926.5254
 364  1176.375
 365  1219.32
 366  965.6363
 367  1079.549
 368  930.6307
 369  1422.585
 370  1463.776
 371  1255.559
 372  1194.589
 373  947.0944
 374  1062.068
 375  1031.208
 376  1189.046
 377  1148.549
 378  1405.198
 379  1192.088
 380  1091.42
 381  1109.668
 382  1067.395
 383  1075.135
 384  1035.119
 385  1169.252
 386  1105.743
 387  1302.36
 388  1402.339
 389  1231.812
 390  1274.259
 391  1088.758
 392  1317.358
 393  966.7736
 394  915.7742
 395  1347.768
 396  1434.441
 397  1149.949
 398  957.3297
 399  1103.949
 400  1230.911
 401  1297.114
 402  1400.841
 403  1264.624
 404  1207.981
 405  1302.742
 406  1301.026
 407  1211.59
 408  1498.274
 409  1249.318
 410  1417.863
 411  1098.063
 412  649.438
 413  793.5175
 414  920.5899
 415  1353.218
 416  1280.943
 417  1161.934
 418  1231.222
 419  1180.595
 420  1078.736
 421  884.456
 422  880.2823
 423  1029.526
 424  1410.917
 425  1280.804
 426  1081.109
 427  962.8104
 428  1083.941
 429  1009.4
 430  912.5806
 431  1098.198
 432  1158.449
 433  1099.388
 434  1293.114
 435  1296.706
 436  1226.949
 437  1441.464
 438  941.0289
 439  1272.4
 440  1136.102
 441  1152.871
 442  1299.531
 443  1257.315
 444  976.0927
 445  1064.124
 446  1171.755
 447  1146.359
 448  995.8384
 449  924.2094
 450  1308.372
 451  1190.256
 452  1058.242
 453  1071.453
 454  1041.324
 455  1114.963
 456  1155.404
 457  1236.35
 458  1247.396
 459  1356.201
 460  1359.326
 461  1035.316
 462  865.4215
 463  1077.1
 464  1090.105
 465  1057.348
 466  934.6464
 467  901.1305
 468  1051.499
 469  860.5975
 470  1217.514
 471  1137.153
 472  1076.868
 473  970.2029
 474  977.8025
 475  976.8663
 476  1078.894
 477  1458.351
 478  1393.706
 479  1194.131
 480  1331.261
 481  1313.937
 482  1161.962
 483  1121.984
 484  1137.693
 485  1092.355
 486  1194.116
 487  760.4398
 488  961.9691
 489  1106.26
 490  1131.918
 491  1215.519
 492  948.2097
 493  1187.754
 494  1034.329
 495  860.132
 496  878.788
 497  1179.115
 498  1247.276
 499  1368.37
 500  1296.624
 501  1237.009
 502  1169.363
 503  1051.542
 504  1558.568
 505  1565.715
 506  1350.744
 507  1245.264
 508  1388.026
 509  1078.918
 510  978.5834
 511  1061.018
