# Input file       =  1196981508.116393_cleaned.dat
# Candidate        =  PSR_0332+5434
# Telescope        =  AR
# Epoch_topo       =  58097.952860143436
# Epoch_bary       =  N/A
# T_sample         =  0.002
# Data Folded      =  7340032
# Data Avg         =  0.0979359011040849
# Data StdDev      =  1.00059497885517 
# Profile Bins     =  512
# Profile Avg      =  1403.87652336641 
# Profile StdDev   =  119.804275001676 
# Reduced chi-sqr  =  0.787
# Prob(Noise)      <  1   (~0.0 sigma)
# P_topo (ms)      =  714.536201095379  +/- 0.000137
# P'_topo (s/s)    =  -0                +/- 7.23e-11
# P''_topo (s/s^2) =  0                 +/- 3.19e-14
# P_bary (ms)      =  N/A
# P'_bary (s/s)    =  N/A
# P''_bary (s/s^2) =  N/A
# P_orb (s)        =  N/A
# asin(i)/c (s)    =  N/A
# eccentricity     =  N/A
# w (rad)          =  N/A
# T_peri           =  N/A
######################################################
   0  1344.619
   1  1324.81
   2  1404.914
   3  1424.052
   4  1373.592
   5  1408.193
   6  1448.234
   7  1375.492
   8  1330.055
   9  1373.339
  10  1339.126
  11  1392.065
  12  1457.654
  13  1561.789
  14  1491.645
  15  1420.004
  16  1374.181
  17  1379.002
  18  1366.508
  19  1392.915
  20  1416.765
  21  1449.799
  22  1475.701
  23  1505.691
  24  1414.421
  25  1364.699
  26  1384.274
  27  1416.323
  28  1497.59
  29  1469.311
  30  1406.521
  31  1475.197
  32  1388.678
  33  1304.116
  34  1314.117
  35  1533.525
  36  1392.327
  37  1288.527
  38  1363.222
  39  1396.185
  40  1366.641
  41  1450.423
  42  1432.2
  43  1408.872
  44  1300.34
  45  1280.598
  46  1401.978
  47  1468.304
  48  1389.11
  49  1360.865
  50  1377.816
  51  1375.048
  52  1249.84
  53  1297.639
  54  1309.997
  55  1350.577
  56  1401.88
  57  1328.114
  58  1343.854
  59  1425.793
  60  1421.887
  61  1389.732
  62  1465.092
  63  1410.402
  64  1434.329
  65  1468.727
  66  1571.283
  67  1465.269
  68  1444.334
  69  1476.899
  70  1553.846
  71  1537.668
  72  1446.894
  73  1411.773
  74  1471.28
  75  1485.042
  76  1481.056
  77  1421.783
  78  1464.253
  79  1471.421
  80  1437.445
  81  1412.976
  82  1336.858
  83  1398.377
  84  1410.578
  85  1431.231
  86  1523.582
  87  1435.329
  88  1394.03
  89  1398.73
  90  1489.468
  91  1453.855
  92  1433.104
  93  1416.054
  94  1438.494
  95  1410.516
  96  1339.615
  97  1311.026
  98  1357.672
  99  1259.118
 100  1325.921
 101  1397.743
 102  1432.969
 103  1389.091
 104  1372.158
 105  1412.728
 106  1373.548
 107  1447.81
 108  1341.992
 109  1331.667
 110  1343.581
 111  1386.52
 112  1359.633
 113  1454.444
 114  1579.283
 115  1511.844
 116  1336.31
 117  1281.526
 118  1365.846
 119  1371.56
 120  1318.928
 121  1358.155
 122  1435.336
 123  1389.319
 124  1377.223
 125  1423.303
 126  1378.935
 127  1387.66
 128  1367.648
 129  1453.805
 130  1443.428
 131  1448.833
 132  1468.155
 133  1352.675
 134  1256.146
 135  1280.417
 136  1410.054
 137  1454.81
 138  1527.168
 139  1545.591
 140  1508.127
 141  1503.202
 142  1428.245
 143  1448.688
 144  1422.767
 145  1373.465
 146  1325.713
 147  1403.926
 148  1462.386
 149  1474.471
 150  1358.188
 151  1291.98
 152  1317.758
 153  1256.203
 154  1311.187
 155  1329.777
 156  1240.057
 157  1305.481
 158  1398.509
 159  1265.13
 160  1337.13
 161  1385.785
 162  1377.351
 163  1330.993
 164  1328.869
 165  1296.343
 166  1321.552
 167  1290.284
 168  1260.452
 169  1350.676
 170  1455.211
 171  1352.267
 172  1287.114
 173  1328.719
 174  1363.345
 175  1278.207
 176  1308.604
 177  1389.045
 178  1381.273
 179  1322.932
 180  1354.62
 181  1352.283
 182  1360.977
 183  1250.297
 184  1209.266
 185  1214.896
 186  1325.373
 187  1359.173
 188  1412.654
 189  1449.905
 190  1502.6
 191  1443.848
 192  1427.656
 193  1381.536
 194  1421.027
 195  1373.126
 196  1340.504
 197  1492.459
 198  1441.694
 199  1531.618
 200  1470.486
 201  1427.613
 202  1389.16
 203  1362.578
 204  1422.012
 205  1487.707
 206  1516.114
 207  1451.157
 208  1378.729
 209  1269.808
 210  1241.639
 211  1250.92
 212  1266.7
 213  1370.928
 214  1504.923
 215  1576.434
 216  1512.824
 217  1418.166
 218  1366.262
 219  1325.629
 220  1211.715
 221  1322.671
 222  1446.553
 223  1501.07
 224  1520.526
 225  1470.443
 226  1382.515
 227  1404.939
 228  1394.511
 229  1338.726
 230  1342.769
 231  1379.046
 232  1461.912
 233  1376.578
 234  1270.254
 235  1305.472
 236  1334.347
 237  1328.033
 238  1342
 239  1329.859
 240  1373.062
 241  1460.183
 242  1433.597
 243  1385.164
 244  1450.568
 245  1416.001
 246  1524.161
 247  1413.596
 248  1390.196
 249  1388.654
 250  1465.446
 251  1538.649
 252  1471.202
 253  1419.381
 254  1422.933
 255  1416.49
 256  1489.182
 257  1497.652
 258  1443.92
 259  1411.479
 260  1419.141
 261  1442.647
 262  1441.502
 263  1365.486
 264  1433.628
 265  1476.07
 266  1493.796
 267  1481.539
 268  1378.145
 269  1306.832
 270  1321.125
 271  1289.312
 272  1438.557
 273  1451.931
 274  1338.337
 275  1221.077
 276  1258.414
 277  1417.322
 278  1399.653
 279  1359.109
 280  1391.81
 281  1500.049
 282  1497.009
 283  1353.688
 284  1349.001
 285  1429.096
 286  1367.667
 287  1470.216
 288  1519.386
 289  1482.435
 290  1480.173
 291  1496.829
 292  1461.113
 293  1459.199
 294  1468.069
 295  1467.118
 296  1423.881
 297  1375.797
 298  1414.993
 299  1445.672
 300  1360.217
 301  1366.741
 302  1376.397
 303  1368.833
 304  1399.484
 305  1539.852
 306  1434.353
 307  1357.556
 308  1268.809
 309  1295.598
 310  1449.024
 311  1447.094
 312  1408.992
 313  1408.873
 314  1405.252
 315  1349.475
 316  1384.482
 317  1394.581
 318  1420.501
 319  1416.161
 320  1337.494
 321  1304.612
 322  1333.396
 323  1368.797
 324  1453.051
 325  1285.211
 326  1386.132
 327  1408.126
 328  1382.449
 329  1388.276
 330  1387.509
 331  1414.203
 332  1374.645
 333  1361.259
 334  1476.32
 335  1393.872
 336  1422.883
 337  1353.46
 338  1302.956
 339  1324.075
 340  1375.522
 341  1432.795
 342  1452.737
 343  1507.208
 344  1442.91
 345  1359.104
 346  1370.071
 347  1325.14
 348  1487.542
 349  1508.974
 350  1422.519
 351  1376.023
 352  1407.503
 353  1421.409
 354  1421.726
 355  1288.806
 356  1301.766
 357  1310.496
 358  1316.62
 359  1408.449
 360  1421.871
 361  1422.906
 362  1443.598
 363  1461.771
 364  1507.988
 365  1521.262
 366  1552.684
 367  1488.12
 368  1415.299
 369  1434.888
 370  1384.696
 371  1484.184
 372  1452.306
 373  1414.86
 374  1374.905
 375  1415.285
 376  1446.61
 377  1391.406
 378  1337.351
 379  1305.882
 380  1329.143
 381  1303.069
 382  1262.256
 383  1398.269
 384  1372.636
 385  1395.458
 386  1310.249
 387  1359.159
 388  1376.28
 389  1357.939
 390  1237.96
 391  1193.185
 392  1267.713
 393  1331.809
 394  1283.04
 395  1351.509
 396  1341.712
 397  1250.235
 398  1184.21
 399  1326.873
 400  1455.424
 401  1390.068
 402  1348.06
 403  1342.2
 404  1335.175
 405  1356.433
 406  1446.974
 407  1479.953
 408  1387.717
 409  1347.14
 410  1357.698
 411  1307.885
 412  1333.958
 413  1350.05
 414  1406.716
 415  1467.787
 416  1535.579
 417  1395.045
 418  1282.323
 419  1289.212
 420  1360.403
 421  1388.851
 422  1423.733
 423  1369.115
 424  1423.726
 425  1556.264
 426  1489.544
 427  1481.64
 428  1536.584
 429  1523.518
 430  1621.925
 431  1702.654
 432  1615.219
 433  1558.567
 434  1600.472
 435  1471.425
 436  1421.493
 437  1368.232
 438  1425.449
 439  1443.42
 440  1383.857
 441  1383.526
 442  1395.421
 443  1374.633
 444  1433.004
 445  1467.787
 446  1529.781
 447  1370.373
 448  1305.725
 449  1516.154
 450  1453.52
 451  1424.215
 452  1454.033
 453  1502.161
 454  1557.945
 455  1392.439
 456  1429.779
 457  1463.705
 458  1484.364
 459  1472.509
 460  1425.38
 461  1443.571
 462  1443.212
 463  1443.565
 464  1376.149
 465  1376.702
 466  1385.758
 467  1459.425
 468  1415.674
 469  1488.631
 470  1392.185
 471  1403.292
 472  1408.258
 473  1513.787
 474  1606.06
 475  1507.512
 476  1444.367
 477  1450.256
 478  1529.835
 479  1469.577
 480  1391.83
 481  1471.408
 482  1492.863
 483  1387.859
 484  1292.296
 485  1263.819
 486  1258.377
 487  1283.047
 488  1472.084
 489  1529.089
 490  1511.395
 491  1516.728
 492  1488.498
 493  1472.084
 494  1428.487
 495  1420.036
 496  1467.143
 497  1471.156
 498  1539.765
 499  1483.515
 500  1497.09
 501  1487.707
 502  1508.468
 503  1452.321
 504  1452.389
 505  1458.487
 506  1425.859
 507  1521.429
 508  1466.258
 509  1394.343
 510  1350.101
 511  1271.345
