# Input file       =  1197499180.084148_cleaned.dat
# Candidate        =  PSR_0332+5434
# Telescope        =  AR
# Epoch_topo       =  58103.944433844306
# Epoch_bary       =  N/A
# T_sample         =  0.002
# Data Folded      =  7340032
# Data Avg         =  0.0492249471367914
# Data StdDev      =  1.00005261894729 
# Profile Bins     =  512
# Profile Avg      =  705.697419613972 
# Profile StdDev   =  119.739336603097 
# Reduced chi-sqr  =  0.936
# Prob(Noise)      <  0.846   (~0.0 sigma)
# P_topo (ms)      =  714.54221684252   +/- 0.000129
# P'_topo (s/s)    =  -0                +/- 6.83e-11
# P''_topo (s/s^2) =  0                 +/- 3.01e-14
# P_bary (ms)      =  N/A
# P'_bary (s/s)    =  N/A
# P''_bary (s/s^2) =  N/A
# P_orb (s)        =  N/A
# asin(i)/c (s)    =  N/A
# eccentricity     =  N/A
# w (rad)          =  N/A
# T_peri           =  N/A
######################################################
   0  1136.851
   1  1073.919
   2  953.6664
   3  913.6808
   4  755.0912
   5  716.187
   6  709.3428
   7  727.186
   8  677.2075
   9  734.7219
  10  678.3198
  11  664.3519
  12  767.3481
  13  801.5912
  14  777.7874
  15  753.7113
  16  647.4669
  17  627.7781
  18  673.1201
  19  695.452
  20  626.4037
  21  604.0848
  22  597.4649
  23  704.1599
  24  775.0162
  25  763.1274
  26  772.6538
  27  609.7442
  28  577.466
  29  536.5688
  30  529.8424
  31  530.7386
  32  590.1802
  33  734.0742
  34  780.598
  35  597.1492
  36  626.6259
  37  681.3372
  38  671.489
  39  759.7205
  40  765.5656
  41  832.5684
  42  731.1713
  43  732.7877
  44  678.763
  45  687.0438
  46  725.7064
  47  680.4361
  48  652.6507
  49  581.7505
  50  692.5634
  51  663.8896
  52  794.0388
  53  685.3828
  54  615.7032
  55  658.7818
  56  648.0022
  57  724.0529
  58  795.895
  59  733.753
  60  646.7761
  61  636.8572
  62  750.8517
  63  731.3175
  64  825.8917
  65  694.7726
  66  689.0398
  67  662.5405
  68  687.9882
  69  819.9805
  70  830.4379
  71  823.519
  72  779.7576
  73  761.6053
  74  699.3345
  75  802.3302
  76  821.9222
  77  809.3445
  78  809.555
  79  709.8624
  80  751.6186
  81  679.5016
  82  669.9819
  83  808.8923
  84  803.6378
  85  674.8371
  86  732.9193
  87  789.7351
  88  764.686
  89  683.1873
  90  767.0176
  91  783.4128
  92  672.3475
  93  686.2816
  94  676.2031
  95  622.4176
  96  640.6238
  97  702.4921
  98  642.3638
  99  713.2362
 100  706.0228
 101  677.8423
 102  720.3782
 103  703.7289
 104  752.4034
 105  706.6025
 106  619.0759
 107  680.6739
 108  718.4281
 109  643.9132
 110  687.5526
 111  773.4622
 112  753.3918
 113  886.9828
 114  991.2225
 115  954.7589
 116  823.9689
 117  754.7681
 118  722.0535
 119  616.1109
 120  598.5457
 121  655.295
 122  758.0487
 123  719.6268
 124  784.0255
 125  833.163
 126  829.5383
 127  791.5458
 128  810.5841
 129  715.1595
 130  681.838
 131  698.9173
 132  703.5563
 133  775.913
 134  790.209
 135  698.3918
 136  691.4767
 137  690.5751
 138  671.2366
 139  753.0319
 140  784.0867
 141  714.8829
 142  649.9016
 143  602.6221
 144  643.2993
 145  685.9317
 146  638.7108
 147  700.719
 148  765.6374
 149  745.1157
 150  675.8975
 151  702.0635
 152  678.3826
 153  627.2604
 154  658.3267
 155  719.5933
 156  729.8304
 157  610.9583
 158  665.1439
 159  794.0197
 160  738.8055
 161  722.7009
 162  522.217
 163  579.9174
 164  601.6782
 165  657.7258
 166  745.676
 167  710.103
 168  709.7022
 169  791.4633
 170  807.1486
 171  751.2667
 172  685.9604
 173  690.1822
 174  743.9227
 175  720.0437
 176  695.4794
 177  737.4177
 178  670.473
 179  646.7991
 180  639.3259
 181  621.5532
 182  710.0503
 183  727.6379
 184  777.9633
 185  692.4723
 186  622.9338
 187  581.5555
 188  531.317
 189  597.1561
 190  548.7957
 191  616.2509
 192  669.1038
 193  610.7331
 194  619.801
 195  659.5706
 196  686.9909
 197  614.6925
 198  637.1151
 199  647.6086
 200  581.7395
 201  569.4681
 202  673.987
 203  771.7615
 204  662.0367
 205  628.7712
 206  684.2889
 207  697.6856
 208  645.4553
 209  599.7219
 210  725.8193
 211  707.4731
 212  643.943
 213  613.6715
 214  693.9971
 215  754.7081
 216  737.1572
 217  649.7023
 218  672.4598
 219  720.8095
 220  779.66
 221  720.5343
 222  712.438
 223  702.2821
 224  634.2818
 225  636.5408
 226  644.296
 227  830.6226
 228  860.3
 229  767.0535
 230  711.4839
 231  742.8055
 232  668.5894
 233  733.998
 234  842.876
 235  732.481
 236  642.0347
 237  720.5097
 238  797.5515
 239  605.7874
 240  591.9309
 241  762.4565
 242  680.4888
 243  633.8242
 244  630.5261
 245  712.6237
 246  759.9613
 247  702.8174
 248  601.2745
 249  685.8286
 250  767.5407
 251  758.0969
 252  730.1636
 253  765.0305
 254  694.9917
 255  714.6066
 256  804.2366
 257  714.6043
 258  650.819
 259  591.6882
 260  645.0384
 261  725.0716
 262  627.7234
 263  661.6946
 264  637.631
 265  721.7375
 266  679.7079
 267  745.7498
 268  773.6768
 269  698.04
 270  657.8022
 271  712.1072
 272  633.4483
 273  500.9993
 274  608.1354
 275  698.9667
 276  736.3097
 277  723.7571
 278  604.7637
 279  551.0612
 280  673.9184
 281  768.6318
 282  714.2198
 283  676.6471
 284  731.5762
 285  748.2719
 286  788.6189
 287  619.9136
 288  731.0377
 289  744.2181
 290  696.3522
 291  728.5775
 292  731.1666
 293  650.2139
 294  587.912
 295  779.3127
 296  696.2848
 297  674.8876
 298  762.2621
 299  806.1661
 300  713.0816
 301  766.8281
 302  832.6815
 303  775.4479
 304  761.392
 305  774.0659
 306  736.7496
 307  685.5175
 308  674.2446
 309  751.7159
 310  756.72
 311  861.5576
 312  741.9359
 313  687.6214
 314  718.9193
 315  716.6134
 316  710.4848
 317  772.6936
 318  740.6315
 319  637.9407
 320  659.0157
 321  697.0593
 322  705.6647
 323  665.1668
 324  650.0456
 325  543.5501
 326  510.022
 327  650.6777
 328  661.8128
 329  551.1544
 330  672.5383
 331  742.3729
 332  695.584
 333  584.5258
 334  721.0624
 335  703.1728
 336  700.8981
 337  744.0066
 338  790.0004
 339  627.0493
 340  669.0783
 341  689.1298
 342  717.4478
 343  672.2968
 344  659.2744
 345  709.5184
 346  729.3333
 347  613.1931
 348  645.5502
 349  705.6622
 350  627.3888
 351  568.5911
 352  625.2825
 353  777.376
 354  771.9315
 355  770.1992
 356  765.2982
 357  741.5784
 358  646.4132
 359  551.2382
 360  600.179
 361  633.804
 362  702.2552
 363  777.6462
 364  822.4064
 365  779.0476
 366  673.8959
 367  636.5229
 368  698.5642
 369  747.5564
 370  790.5007
 371  770.1378
 372  566.6893
 373  649.2571
 374  559.2793
 375  577.9099
 376  593.3501
 377  627.0748
 378  722.9309
 379  677.173
 380  666.7517
 381  750.3419
 382  626.238
 383  635.7332
 384  655.8302
 385  702.986
 386  673.2996
 387  642.8718
 388  727.9294
 389  662.5803
 390  655.0075
 391  662.0244
 392  637.9573
 393  751.2874
 394  708.7185
 395  706.4745
 396  730.0872
 397  714.5352
 398  611.0008
 399  521.7765
 400  499.9901
 401  626.5881
 402  610.6483
 403  743.1667
 404  672.2861
 405  611.0847
 406  595.2852
 407  569.9293
 408  455.776
 409  625.5698
 410  730.5175
 411  664.2965
 412  662.426
 413  602.0927
 414  539.8648
 415  699.0245
 416  837.407
 417  825.198
 418  742.7751
 419  808.1016
 420  827.5688
 421  733.3876
 422  676.9714
 423  829.7969
 424  766.3631
 425  707.7437
 426  705.1526
 427  672.6092
 428  643.1275
 429  608.9976
 430  661.7948
 431  742.89
 432  616.8405
 433  661.2422
 434  651.3715
 435  653.0892
 436  615.2493
 437  739.2578
 438  891.4534
 439  774.7207
 440  636.2648
 441  618.1478
 442  636.5964
 443  834.6099
 444  938.4662
 445  748.7382
 446  653.7246
 447  797.7701
 448  749.0419
 449  762.488
 450  778.418
 451  849.9601
 452  802.7676
 453  818.2968
 454  792.3282
 455  881.1297
 456  892.9565
 457  739.8332
 458  641.1621
 459  702.0641
 460  817.8323
 461  799.0336
 462  745.0181
 463  789.7958
 464  748.714
 465  691.4599
 466  800.353
 467  867.006
 468  709.8965
 469  564.5762
 470  592.7877
 471  618.6094
 472  644.967
 473  709.9491
 474  882.6296
 475  829.6884
 476  634.3374
 477  539.271
 478  652.9816
 479  724.8195
 480  758.9189
 481  789.3295
 482  766.6459
 483  714.5141
 484  667.7436
 485  713.2256
 486  699.4888
 487  664.2963
 488  655.4689
 489  636.7359
 490  659.3621
 491  774.028
 492  825.0546
 493  756.532
 494  767.7979
 495  697.7397
 496  706.7834
 497  731.3979
 498  817.9963
 499  808.0156
 500  631.3912
 501  758.903
 502  736.0516
 503  720.2006
 504  721.1132
 505  734.801
 506  789.3236
 507  826.9521
 508  768.3398
 509  756.1196
 510  915.9476
 511  1110.673
