# Input file       =  1197139048.114253_cleaned.dat
# Candidate        =  PSR_0332+5434
# Telescope        =  AR
# Epoch_topo       =  58099.776239748302
# Epoch_bary       =  N/A
# T_sample         =  0.002
# Data Folded      =  7340032
# Data Avg         =  0.304134313758238
# Data StdDev      =  5.082053346019   
# Profile Bins     =  1024
# Profile Avg      =  2179.49781522816 
# Profile StdDev   =  430.267177700159 
# Reduced chi-sqr  =  0.449
# Prob(Noise)      <  1   (~0.0 sigma)
# P_topo (ms)      =  714.537710553623  +/- 0.00153
# P'_topo (s/s)    =  -0                +/- 8.07e-10
# P''_topo (s/s^2) =  0                 +/- 3.56e-13
# P_bary (ms)      =  N/A
# P'_bary (s/s)    =  N/A
# P''_bary (s/s^2) =  N/A
# P_orb (s)        =  N/A
# asin(i)/c (s)    =  N/A
# eccentricity     =  N/A
# w (rad)          =  N/A
# T_peri           =  N/A
######################################################
   0  2255.659
   1  2248.131
   2  2160.542
   3  2215.386
   4  2205.701
   5  2177.382
   6  2193.56
   7  2314.004
   8  2325.509
   9  2235.097
  10  2113.009
  11  2034.456
  12  2037.914
  13  1998.963
  14  2059.443
  15  2023.126
  16  1937.313
  17  1913.526
  18  1876.349
  19  1942.684
  20  2028.567
  21  2161.976
  22  2179.249
  23  2119.142
  24  2068.013
  25  2143.331
  26  2073.708
  27  1942.889
  28  1941.907
  29  2026.492
  30  2058.992
  31  2156.831
  32  2225.484
  33  2216.081
  34  2152.811
  35  2088.4
  36  2192.001
  37  2082.741
  38  2012.384
  39  2020.798
  40  2086.377
  41  2156.817
  42  2228.768
  43  2139.917
  44  2057.261
  45  2021.039
  46  2181.574
  47  2221.25
  48  2295.063
  49  2390.677
  50  2453.506
  51  2275.365
  52  2163.357
  53  2154.756
  54  2220.783
  55  2299.339
  56  2303.978
  57  2406.345
  58  2460.17
  59  2444.069
  60  2352.927
  61  2238.765
  62  2308.105
  63  2312.518
  64  2342.912
  65  2389.174
  66  2417.889
  67  2359
  68  2275.22
  69  2281.062
  70  2323.27
  71  2291.802
  72  2255.322
  73  2247.935
  74  2252.157
  75  2307.048
  76  2200.587
  77  2156.792
  78  2191.479
  79  2169.387
  80  2030.283
  81  2013.588
  82  2052.769
  83  2133.157
  84  2132.744
  85  2092.239
  86  2179.898
  87  2131.545
  88  2158.89
  89  2169.077
  90  2136.527
  91  1990.352
  92  1922.845
  93  2066.25
  94  2142.45
  95  2112.717
  96  2208.311
  97  2210.287
  98  2232.327
  99  2154.827
 100  2122.428
 101  2100.11
 102  2113.799
 103  2248.938
 104  2346.203
 105  2359.023
 106  2177.063
 107  2172.62
 108  2059.053
 109  2011.104
 110  2064.452
 111  2170.308
 112  2183.496
 113  2088.833
 114  2125.799
 115  2269.566
 116  2363.136
 117  2247.284
 118  2130.67
 119  2247.506
 120  2315.623
 121  2187.137
 122  2004.033
 123  1903.558
 124  1964.04
 125  1968.435
 126  2099.104
 127  2283.194
 128  2413.736
 129  2425.13
 130  2379.186
 131  2288.637
 132  2262.125
 133  2137.791
 134  2092.863
 135  2136.87
 136  2076.787
 137  1991.59
 138  1955.609
 139  2012.313
 140  2042.623
 141  2052.818
 142  2075.57
 143  2221.917
 144  2213.42
 145  2017.34
 146  1908.748
 147  2020.794
 148  2072.5
 149  2018.704
 150  2044.359
 151  2137.18
 152  2219.055
 153  2174.204
 154  2279.476
 155  2231.799
 156  2294.531
 157  2088.564
 158  2046.6
 159  1994.706
 160  1975.927
 161  1973.365
 162  1913.676
 163  1874.716
 164  1947.286
 165  2091.063
 166  2033.308
 167  1920.211
 168  1820.259
 169  1783.3
 170  1831.546
 171  1958.708
 172  2168.091
 173  2156.274
 174  2169.794
 175  2115.014
 176  2099.577
 177  2011.641
 178  2053.537
 179  2211.361
 180  2252.863
 181  2129.744
 182  2040.509
 183  1908.032
 184  1911.359
 185  1953.474
 186  2072.313
 187  2094.883
 188  2028.389
 189  2106.314
 190  2066.407
 191  1933.405
 192  1921.163
 193  2025.655
 194  2240.162
 195  2299.385
 196  2335.766
 197  2275.155
 198  2176.367
 199  2125.026
 200  2097.416
 201  1996.913
 202  2017.078
 203  1971.588
 204  1992.307
 205  2169.92
 206  2313.654
 207  2284.364
 208  2217.392
 209  2168.825
 210  2305.763
 211  2337.194
 212  2370.469
 213  2490.167
 214  2583.22
 215  2625.53
 216  2526.521
 217  2352.373
 218  2332.781
 219  2201.32
 220  2234.296
 221  2199.41
 222  2183.488
 223  2062.325
 224  2130.612
 225  2092.645
 226  2227.233
 227  2271.605
 228  2225.573
 229  2348.838
 230  2436.144
 231  2438.236
 232  2265.083
 233  2141.551
 234  2279.952
 235  2348.026
 236  2346.827
 237  2378.541
 238  2340.852
 239  2307.802
 240  2249.856
 241  2150.812
 242  2143.771
 243  2086.998
 244  2115.037
 245  2131.485
 246  2159.322
 247  2127.806
 248  2196.455
 249  2293.69
 250  2352.592
 251  2326.041
 252  2072.701
 253  1929.653
 254  1883.951
 255  1948.351
 256  2047.12
 257  1949.268
 258  1982.006
 259  1955.504
 260  1984.91
 261  1933.189
 262  2023.857
 263  2205.586
 264  2265.224
 265  2215.365
 266  2077.934
 267  2147.697
 268  2232.519
 269  2320.518
 270  2305.982
 271  2288.165
 272  2407.622
 273  2441.945
 274  2336.081
 275  2263.903
 276  2164.527
 277  2213.695
 278  2261.661
 279  2199.405
 280  2079.847
 281  1971.916
 282  2051.826
 283  2175.777
 284  2341.941
 285  2388.831
 286  2507.008
 287  2490.891
 288  2342.756
 289  2287.147
 290  2201.083
 291  2291.219
 292  2349.717
 293  2339.97
 294  2406.307
 295  2297.53
 296  2377.321
 297  2555.372
 298  2534.926
 299  2459.923
 300  2197.253
 301  2151.043
 302  2190.349
 303  2182.631
 304  2310.601
 305  2372.813
 306  2494.241
 307  2548.822
 308  2502.82
 309  2365.55
 310  2275.199
 311  2307.246
 312  2236.213
 313  2288.908
 314  2280.692
 315  2226.583
 316  2101.752
 317  1997.338
 318  2188.016
 319  2102.67
 320  2177.649
 321  2243.774
 322  2319.317
 323  2394.683
 324  2366.694
 325  2408.875
 326  2397.964
 327  2349.924
 328  2331.991
 329  2338.817
 330  2393.439
 331  2397.807
 332  2446.276
 333  2455.603
 334  2429.542
 335  2414.697
 336  2365.497
 337  2339.11
 338  2300.631
 339  2387.054
 340  2344.608
 341  2260.055
 342  2294.828
 343  2398.544
 344  2430.365
 345  2468.574
 346  2425.589
 347  2370.955
 348  2201.844
 349  2199.378
 350  2170.229
 351  2184.271
 352  2113.899
 353  2194.672
 354  2239.558
 355  2334.299
 356  2302.898
 357  2278.21
 358  2211.053
 359  2237.858
 360  2189.951
 361  2351.559
 362  2300.746
 363  2367.069
 364  2454.626
 365  2513.931
 366  2508.381
 367  2457.081
 368  2456.32
 369  2492.74
 370  2479.386
 371  2353.811
 372  2287.659
 373  2196.457
 374  2206.962
 375  2280.406
 376  2249.87
 377  2302.509
 378  2313.85
 379  2282.695
 380  2290.287
 381  2262.535
 382  2439.153
 383  2485.277
 384  2443.146
 385  2416.67
 386  2358.965
 387  2292.859
 388  2232.741
 389  2149.718
 390  2153.975
 391  2120.091
 392  2237.973
 393  2277.178
 394  2267.262
 395  2222.787
 396  2235.475
 397  2242.536
 398  2218.506
 399  2179.379
 400  2260.31
 401  2462.127
 402  2521.792
 403  2456.677
 404  2371.79
 405  2229.688
 406  2217.565
 407  2116.477
 408  2218.255
 409  2224.282
 410  2210.053
 411  2209.361
 412  2296.075
 413  2316.24
 414  2373.851
 415  2269.797
 416  1998.728
 417  1949.871
 418  2053.235
 419  2305.103
 420  2184.752
 421  2132.018
 422  2047.508
 423  2023.914
 424  2089.096
 425  2210.798
 426  2258.293
 427  2138.424
 428  2039.812
 429  2146.467
 430  2286.552
 431  2194.499
 432  2008.375
 433  2053.787
 434  1964.963
 435  1978.275
 436  2029.973
 437  2151.729
 438  2139.735
 439  2161.454
 440  2317.022
 441  2207.35
 442  2126.361
 443  2113.832
 444  2246.173
 445  2174.657
 446  2140.727
 447  2133.761
 448  2093.514
 449  2088.43
 450  2057.764
 451  2124.533
 452  2136.663
 453  2105.544
 454  2144.273
 455  2178.984
 456  2260.799
 457  2243.171
 458  2122.708
 459  1995.373
 460  2124.187
 461  2155.927
 462  2125.762
 463  2030.173
 464  2101.304
 465  2113.976
 466  2199.671
 467  2122.574
 468  2204.906
 469  2155.058
 470  2073.623
 471  2089.188
 472  2049.005
 473  1961.93
 474  1937.214
 475  2024.853
 476  2109.873
 477  2166.561
 478  2127.114
 479  2238.294
 480  2183.807
 481  2212.056
 482  2050.96
 483  1855.801
 484  1787.427
 485  1856.128
 486  2015.598
 487  2228.393
 488  2213.941
 489  2249.323
 490  2170.149
 491  2148.308
 492  2151.08
 493  2131.554
 494  2163.04
 495  2274.696
 496  2285.419
 497  2425.259
 498  2372.66
 499  2334.168
 500  2295.59
 501  2247.206
 502  2324.161
 503  2405.406
 504  2384.48
 505  2503.946
 506  2430.177
 507  2386.888
 508  2252.015
 509  2290.492
 510  2269.061
 511  2242.554
 512  2328.9
 513  2384.903
 514  2406.183
 515  2268.996
 516  2255.631
 517  2270.864
 518  2364.152
 519  2457.516
 520  2384.46
 521  2340.781
 522  2362.592
 523  2329.165
 524  2135.781
 525  2048.21
 526  2078.351
 527  2070.453
 528  2109.456
 529  2134.32
 530  2186.082
 531  2145.652
 532  2154.599
 533  2038.88
 534  1997.543
 535  1993.44
 536  2073.712
 537  2219.319
 538  2212.03
 539  2181.523
 540  2105.085
 541  2239.427
 542  2297.663
 543  2301.655
 544  2214.688
 545  2074.48
 546  2098.366
 547  2246.663
 548  2241.647
 549  2203.356
 550  2131.614
 551  2152.964
 552  2256.024
 553  2206.277
 554  2285.141
 555  2295.145
 556  2317.103
 557  2274.096
 558  2130.405
 559  2118.191
 560  2025.548
 561  1973.339
 562  1966.141
 563  1963.278
 564  1977.457
 565  1933.547
 566  1899.291
 567  1844.044
 568  1988.927
 569  2011.411
 570  2053.349
 571  2011.741
 572  2066.672
 573  2002.469
 574  2009.356
 575  1872.665
 576  1940.488
 577  1957.101
 578  2029.032
 579  2142.515
 580  2125.625
 581  2138.205
 582  2117.403
 583  2183.102
 584  2340.187
 585  2240.704
 586  2270.451
 587  2264.373
 588  2266.683
 589  2135.308
 590  2138.715
 591  2233.379
 592  2170.958
 593  2058.113
 594  2066.345
 595  2092.536
 596  2170.908
 597  2138.785
 598  2157.737
 599  2081.738
 600  2024.792
 601  1936.234
 602  2042.13
 603  2120.584
 604  2128.146
 605  1889.74
 606  1868.852
 607  2108.939
 608  2226.39
 609  2279.088
 610  2131.918
 611  2120.377
 612  2131.877
 613  2103.408
 614  2051.128
 615  2060.987
 616  2104.636
 617  2152.364
 618  2128.488
 619  2276.509
 620  2398.342
 621  2402.7
 622  2557.744
 623  2688.437
 624  2828.236
 625  2732.091
 626  2763.281
 627  2817.436
 628  2794.228
 629  2598.072
 630  2523.515
 631  2340.33
 632  2284.827
 633  2213.928
 634  2148.526
 635  2020.13
 636  2065.402
 637  2176.224
 638  2172.485
 639  2007.068
 640  2086.158
 641  2184.289
 642  2200.378
 643  2166.217
 644  2072.653
 645  2085.289
 646  2053.569
 647  2200.31
 648  2361.323
 649  2364.16
 650  2313.295
 651  2202.55
 652  2239.641
 653  2343.582
 654  2678.835
 655  2844.037
 656  2842.78
 657  2719.801
 658  2506.752
 659  2440.891
 660  2306.724
 661  2417.281
 662  2473.842
 663  2307.871
 664  2165.838
 665  2094.789
 666  2303.443
 667  2418.984
 668  2388.11
 669  2310.243
 670  2165.577
 671  2097.395
 672  1948.482
 673  1836.899
 674  1810.055
 675  1918.226
 676  2061.85
 677  2177.687
 678  2156.666
 679  2077.391
 680  2020.351
 681  1994.008
 682  2031.41
 683  2090.806
 684  2122.967
 685  2180.106
 686  2236.052
 687  2285.371
 688  2385.721
 689  2304.099
 690  2288.466
 691  2288.234
 692  2290.926
 693  2295.729
 694  2241.365
 695  2190.865
 696  2114.475
 697  2222.343
 698  2336.767
 699  2449.278
 700  2455.84
 701  2345.894
 702  2359.643
 703  2303.982
 704  2346.197
 705  2218.497
 706  2208.947
 707  2150.477
 708  2241.868
 709  2169.14
 710  2201.312
 711  2123.12
 712  2110.345
 713  2170.207
 714  2180.359
 715  2139.075
 716  2171.395
 717  2165.232
 718  2043.229
 719  2014.85
 720  2110.618
 721  2108.655
 722  1981.417
 723  1931.867
 724  2172.795
 725  2293.346
 726  2302.445
 727  2218.229
 728  2180.179
 729  2086.356
 730  2020.146
 731  1897.819
 732  1868.716
 733  1745.665
 734  1858.478
 735  2026.663
 736  2119.39
 737  2070.018
 738  2077.705
 739  2059.477
 740  2253.503
 741  2212.513
 742  2249.814
 743  2239.471
 744  2181.14
 745  2031.149
 746  1841.055
 747  1847.607
 748  1992.594
 749  1999.337
 750  2170.869
 751  2280.093
 752  2363.905
 753  2172.81
 754  2029.623
 755  2013.183
 756  2065.713
 757  2127.173
 758  2153.652
 759  2210.265
 760  2050.389
 761  1941.176
 762  1911.845
 763  2024.834
 764  2064.663
 765  1944.2
 766  2004.196
 767  1984.115
 768  1902.351
 769  1745.689
 770  1789.743
 771  1923.811
 772  2044.413
 773  2146.267
 774  2195.963
 775  2120.773
 776  1985.824
 777  1932.683
 778  2089.08
 779  2053.832
 780  1901.724
 781  1828.162
 782  1828.907
 783  1922.14
 784  2066.361
 785  2104.959
 786  2172.977
 787  2089.629
 788  2115.04
 789  2199.273
 790  2131.203
 791  2120.337
 792  2081.812
 793  2083.247
 794  1959.072
 795  1887.166
 796  1775.723
 797  1894.945
 798  1915.43
 799  1954.135
 800  1901.835
 801  1904.226
 802  2020.504
 803  1975.95
 804  2092.748
 805  2169.797
 806  2230.078
 807  2208.122
 808  2189.06
 809  2128.756
 810  2142.297
 811  2046.765
 812  2095.913
 813  2075.587
 814  2022.53
 815  2125.423
 816  2180.467
 817  2036.312
 818  1928.203
 819  1936.055
 820  2091.374
 821  2015.177
 822  1957.6
 823  1934.357
 824  1998.427
 825  2029.043
 826  2091.102
 827  2091.743
 828  2161.537
 829  2091.509
 830  2083.948
 831  2179.495
 832  2234.931
 833  2225.685
 834  2092.837
 835  2044.818
 836  2022.035
 837  1952.634
 838  1965.083
 839  2114.105
 840  2238.717
 841  2355.461
 842  2209.315
 843  2063.375
 844  2071.227
 845  2167.479
 846  2234.556
 847  2293.412
 848  2196.051
 849  2081.422
 850  2016.698
 851  2023.099
 852  2107.268
 853  2060.43
 854  2109.909
 855  2139.404
 856  2038.627
 857  2003.475
 858  1987.955
 859  2111.48
 860  2085.572
 861  2055.616
 862  2200.856
 863  2247.87
 864  2230.206
 865  2044.241
 866  2046.608
 867  2111.126
 868  2179.599
 869  2230.031
 870  2210.222
 871  2177.731
 872  2230.185
 873  2360.563
 874  2346.478
 875  2203.818
 876  2041.068
 877  1950.312
 878  1876.699
 879  1904.819
 880  1939.597
 881  2015.923
 882  2069.857
 883  2196.775
 884  2190.395
 885  2256.481
 886  2222.413
 887  2249.985
 888  2436.541
 889  2490.952
 890  2530.538
 891  2450.992
 892  2323.977
 893  2351.979
 894  2181.953
 895  2189.352
 896  2230.328
 897  2220.039
 898  2282.321
 899  2175.491
 900  2208.846
 901  2199.69
 902  2211.528
 903  2193.781
 904  1964.097
 905  1880.775
 906  2002.25
 907  2175.038
 908  2273.511
 909  2148.169
 910  2134.147
 911  2106.981
 912  2223.284
 913  2223.586
 914  2219.998
 915  2063.126
 916  2041.282
 917  2172.037
 918  2198.709
 919  2122.768
 920  2158.021
 921  2220.765
 922  2286.659
 923  2211.536
 924  2129.064
 925  2074.228
 926  2093.389
 927  2208.511
 928  2211.419
 929  2172.944
 930  2198.182
 931  2287.812
 932  2202.562
 933  2152.895
 934  2207.349
 935  2239.996
 936  2155.465
 937  2054.682
 938  2059.177
 939  2072.105
 940  2176.503
 941  2297.667
 942  2345.271
 943  2280.313
 944  2295.824
 945  2340.467
 946  2364.388
 947  2221.882
 948  2144.384
 949  2118.552
 950  2243.648
 951  2201.116
 952  2079.93
 953  2017.475
 954  2014.487
 955  2262.094
 956  2314.945
 957  2378.643
 958  2445.729
 959  2480.02
 960  2486.994
 961  2336.564
 962  2285.137
 963  2270.95
 964  2245.927
 965  2131.816
 966  2222.985
 967  2261.443
 968  2268.472
 969  2050.031
 970  1973.219
 971  2038.119
 972  2200.7
 973  2220.25
 974  2191.028
 975  2098.86
 976  2164.019
 977  2195.883
 978  2131.788
 979  2066.547
 980  2056.03
 981  2114.139
 982  2186.065
 983  2196.937
 984  2157.106
 985  2124.063
 986  2221.601
 987  2370.608
 988  2379.471
 989  2253.394
 990  2109.731
 991  2040.303
 992  2023.581
 993  2112.971
 994  2105.803
 995  2237.8
 996  2186.774
 997  2209.244
 998  2203.115
 999  2107.168
1000  2138.324
1001  2097.987
1002  2071.062
1003  2034.06
1004  1999.203
1005  2022.901
1006  2108.845
1007  2186.258
1008  2304.672
1009  2354.484
1010  2312.54
1011  2260.709
1012  2338.507
1013  2400.433
1014  2309.055
1015  2232.904
1016  2266.358
1017  2316.168
1018  2309.697
1019  2126.191
1020  2188.302
1021  2124.386
1022  2210.55
1023  2184.46
