# Input file       =  1197813510.105772_cleaned.dat
# Candidate        =  PSR_0332+5434
# Telescope        =  AR
# Epoch_topo       =  58107.582512798290
# Epoch_bary       =  N/A
# T_sample         =  0.002
# Data Folded      =  7143424
# Data Avg         =  0.186773699245826
# Data StdDev      =  4.62012632335509 
# Profile Bins     =  1024
# Profile Avg      =  1302.95401457696 
# Profile StdDev   =  385.884279405705 
# Reduced chi-sqr  =  0.752
# Prob(Noise)      <  1   (~0.0 sigma)
# P_topo (ms)      =  714.545394576739  +/- 3e-05
# P'_topo (s/s)    =  -0                +/- 1.62e-11
# P''_topo (s/s^2) =  0                 +/- 7.37e-15
# P_bary (ms)      =  N/A
# P'_bary (s/s)    =  N/A
# P''_bary (s/s^2) =  N/A
# P_orb (s)        =  N/A
# asin(i)/c (s)    =  N/A
# eccentricity     =  N/A
# w (rad)          =  N/A
# T_peri           =  N/A
######################################################
   0  1452.849
   1  1419.107
   2  1445.141
   3  1560.199
   4  1328.366
   5  1132.518
   6  1040.985
   7  1074.845
   8  1314.526
   9  1205.001
  10  1387.343
  11  1319.557
  12  1163.117
  13  1230.971
  14  1160.428
  15  1132.352
  16  1137.437
  17  1203.769
  18  1320.07
  19  1013.763
  20  871.5456
  21  1069.485
  22  1111.851
  23  1269.291
  24  1249.898
  25  1249.776
  26  1100.194
  27  845.6993
  28  954.0748
  29  1163.568
  30  1205.279
  31  1256.714
  32  1268.811
  33  1199.604
  34  1159.217
  35  1118.348
  36  1339.344
  37  1363.815
  38  1410.435
  39  1414.925
  40  1237.766
  41  1054.048
  42  1129.234
  43  1068.089
  44  1059.323
  45  1093.263
  46  1202.376
  47  1272.806
  48  1008.42
  49  1097.105
  50  1247.014
  51  1242.525
  52  1290.75
  53  1340.349
  54  1203.747
  55  1154.603
  56  1086.239
  57  1225.325
  58  1293.537
  59  1315.323
  60  1576.217
  61  1306.639
  62  1137.354
  63  1247.074
  64  1258.618
  65  1363.865
  66  1371.203
  67  1485.557
  68  1594.778
  69  1429.73
  70  1423.577
  71  1383.058
  72  1116.584
  73  1214.827
  74  1026.588
  75  1131.648
  76  1095.853
  77  1017.155
  78  1054.435
  79  988.3566
  80  1029.834
  81  1211.414
  82  1231.759
  83  1402.544
  84  1324.546
  85  1201.748
  86  1282.921
  87  1344.286
  88  1478.709
  89  1402.842
  90  1344.118
  91  1397.706
  92  1224.849
  93  1140.261
  94  1298.962
  95  1439.034
  96  1615.804
  97  1436.096
  98  1238.372
  99  1251.188
 100  1322.724
 101  1461.341
 102  1522.151
 103  1358.523
 104  1361.296
 105  1177.761
 106  1221.497
 107  1177.145
 108  1142.462
 109  1184.925
 110  1214.218
 111  1232.652
 112  1129.057
 113  1091.334
 114  1142.531
 115  1294.891
 116  1171.848
 117  1250.087
 118  1331.953
 119  1155.189
 120  1105.789
 121  998.4783
 122  1097.971
 123  1181.534
 124  1190.755
 125  1339.701
 126  1097.093
 127  1093.423
 128  1342.292
 129  1466.757
 130  1535.085
 131  1557.406
 132  1500.046
 133  1618.304
 134  1410.656
 135  1273.574
 136  1106.284
 137  997.0665
 138  1125.918
 139  1281.215
 140  1262.674
 141  1380.2
 142  1147.929
 143  1211.714
 144  1102.654
 145  1156.055
 146  1309.052
 147  1117.906
 148  1075.642
 149  1126.311
 150  1175.283
 151  1216.857
 152  1442.998
 153  1501.954
 154  1601.874
 155  1174.662
 156  1256.991
 157  1308.511
 158  1435.799
 159  1627.221
 160  1683.215
 161  1548.771
 162  1275.166
 163  1178.033
 164  1367.192
 165  1394.744
 166  1330.044
 167  1376.63
 168  1162.684
 169  1138.948
 170  1206.941
 171  1305.199
 172  1292.341
 173  1206.025
 174  1301.487
 175  1302.919
 176  1185.071
 177  1228.115
 178  1404.787
 179  1359.995
 180  1357.542
 181  1372.89
 182  1369.518
 183  1237.296
 184  1060.679
 185  1265.947
 186  1299.002
 187  1200.719
 188  1204.065
 189  1068.309
 190  1071.207
 191  1254.405
 192  1375.081
 193  1641.723
 194  1357.868
 195  1427.958
 196  1598.574
 197  1590.25
 198  1552.667
 199  1447.974
 200  1339.22
 201  1353.11
 202  1272.565
 203  1378.865
 204  1286.239
 205  1097.24
 206  1326.61
 207  1346.373
 208  1302.03
 209  1168.307
 210  1110.694
 211  1249.438
 212  1152.106
 213  1194.282
 214  1423.505
 215  1247.091
 216  1309.154
 217  1238.859
 218  1240.648
 219  1195.582
 220  1049.119
 221  1126.161
 222  1209.299
 223  1094.749
 224  1327.198
 225  1317.068
 226  1379.472
 227  1336.81
 228  1357.052
 229  1563.086
 230  1429.651
 231  1369.719
 232  1369.554
 233  1257.272
 234  1238.818
 235  1397.113
 236  1202.552
 237  1031.643
 238  1056.541
 239  1304.913
 240  1257.496
 241  1063.491
 242  1186.202
 243  1311.208
 244  1165.634
 245  1239.911
 246  1318.996
 247  1416.403
 248  1257.683
 249  1193.846
 250  1147.025
 251  1160.386
 252  1071.346
 253  1426.877
 254  1430.413
 255  1396.465
 256  1408.429
 257  1524.038
 258  1564.111
 259  1349.175
 260  1378.352
 261  1616.13
 262  1609.141
 263  1507.843
 264  1485.784
 265  1419.959
 266  1437.671
 267  1308.475
 268  1461.551
 269  1421.332
 270  1362.046
 271  1457.149
 272  1458.189
 273  1348.381
 274  1425.414
 275  1488.477
 276  1670.875
 277  1490.175
 278  1381.531
 279  1404.333
 280  1280.365
 281  1440.725
 282  1674.434
 283  1777.971
 284  1757.052
 285  1524.625
 286  1539.475
 287  1461.376
 288  1254.315
 289  1372.291
 290  1357.44
 291  1274.205
 292  1520.305
 293  1698.43
 294  1936.289
 295  1924.252
 296  1947.691
 297  1973.633
 298  1606.264
 299  1521.238
 300  1609.133
 301  1421.681
 302  1267.38
 303  1279.304
 304  1381.937
 305  1324.372
 306  1153.284
 307  1240.348
 308  1304.148
 309  1298.348
 310  1494.651
 311  1632.414
 312  1430.389
 313  1282.373
 314  1232.979
 315  1301.521
 316  1209.244
 317  1231.581
 318  1476.741
 319  1319.532
 320  1145.021
 321  1265.87
 322  1488.114
 323  1602.099
 324  1478.475
 325  1512.709
 326  1668.959
 327  1495.666
 328  1448.329
 329  1421.48
 330  1436.838
 331  1531.963
 332  1533.426
 333  1440.873
 334  1164.584
 335  883.969
 336  1043.734
 337  1108.323
 338  1124.071
 339  1210.463
 340  1191.363
 341  1255.391
 342  1244.994
 343  1301.785
 344  1517.091
 345  1497.881
 346  1539.027
 347  1630.665
 348  1398.46
 349  1489.372
 350  1355.236
 351  1378.603
 352  1335.71
 353  1290.681
 354  1497.517
 355  1455.071
 356  1405.804
 357  1691.168
 358  1737.815
 359  1751.91
 360  1640.25
 361  1436.527
 362  1465.952
 363  1193.057
 364  1282.116
 365  1500.815
 366  1362.205
 367  1376.533
 368  1391.69
 369  1513.03
 370  1400.527
 371  1283.87
 372  1466.099
 373  1395.636
 374  1268.925
 375  1219.385
 376  1379.959
 377  1183.933
 378  1228.198
 379  1315.396
 380  1545.651
 381  1540.493
 382  1518.594
 383  1633.916
 384  1222.525
 385  1021.382
 386  1186.712
 387  1330.03
 388  1378.319
 389  1405.547
 390  1543.201
 391  1675.735
 392  1438.552
 393  1515.166
 394  1566.217
 395  1527.517
 396  1500.4
 397  1455.522
 398  1222.917
 399  1200.617
 400  1176.711
 401  1450.303
 402  1365.363
 403  1448.029
 404  1692.673
 405  1680.452
 406  1488.688
 407  1574.577
 408  1581.291
 409  1671.028
 410  1616.938
 411  1651.098
 412  1786.076
 413  1558.662
 414  1598.779
 415  1387.817
 416  1180.23
 417  1186.149
 418  1263.913
 419  1403.704
 420  1278.781
 421  1152.877
 422  1185.658
 423  1274.223
 424  1499.379
 425  1741.666
 426  1587.743
 427  1493.51
 428  1451.88
 429  1537.872
 430  1526.499
 431  1344.162
 432  1403.204
 433  1516.147
 434  1459.82
 435  1528.507
 436  1604.512
 437  1551.383
 438  1492.528
 439  1329.222
 440  1413.978
 441  1249.681
 442  1311.12
 443  1412.695
 444  1383.537
 445  1272.197
 446  1315.797
 447  1357.823
 448  1343.862
 449  1133.401
 450  1145.588
 451  1327.105
 452  1345.303
 453  1288.301
 454  1315.205
 455  1366.38
 456  1508.734
 457  1441.995
 458  1387.047
 459  1285.052
 460  1154.557
 461  1309.574
 462  1397.839
 463  1357.49
 464  1489.979
 465  1416.221
 466  1392.665
 467  1202.408
 468  1244.513
 469  1515.43
 470  1361.384
 471  1191.821
 472  1233.192
 473  1144.207
 474  1180.101
 475  1308.63
 476  1348.348
 477  1463.198
 478  1332.579
 479  1373.036
 480  1364.593
 481  1128.507
 482  1289.279
 483  1265.931
 484  1275.632
 485  1484.566
 486  1488.387
 487  1610.149
 488  1438.305
 489  1443.602
 490  1551.215
 491  1289.551
 492  1246.848
 493  1430.293
 494  1419.745
 495  1486.892
 496  1443.481
 497  1549.551
 498  1426.619
 499  1098.007
 500  1146.25
 501  1275.199
 502  1385.643
 503  1445.283
 504  1326.195
 505  1212.154
 506  1149.991
 507  1070.179
 508  1163.212
 509  1084.913
 510  1243.614
 511  1425.437
 512  1328.488
 513  1215.562
 514  1158.23
 515  1279.439
 516  1265.755
 517  1153.08
 518  1155.607
 519  1185.14
 520  1162.301
 521  1312.933
 522  1441.913
 523  1384.053
 524  1364.73
 525  1275.025
 526  1398.125
 527  1372.471
 528  1336.475
 529  1451.959
 530  1348.732
 531  1275.076
 532  1262.324
 533  1159.894
 534  1197.121
 535  1157.061
 536  1085.047
 537  1137.967
 538  937.7936
 539  1011.008
 540  1227.627
 541  1068.748
 542  1006.917
 543  924.515
 544  1166.727
 545  1451.018
 546  1363.607
 547  1346.21
 548  1186.856
 549  895.2834
 550  1081.373
 551  922.5427
 552  1065.734
 553  1167.547
 554  1189.56
 555  1263.551
 556  964.8875
 557  1074.667
 558  1368.596
 559  1295.518
 560  1403.3
 561  1490.731
 562  1535.152
 563  1475.13
 564  1236.507
 565  1240.444
 566  1131.128
 567  1012.307
 568  1254.835
 569  1220.922
 570  1194.956
 571  1141.385
 572  1209.195
 573  1278.563
 574  1154.189
 575  1246.202
 576  1437.24
 577  1368.294
 578  1146.844
 579  1040.913
 580  1089.622
 581  1176.297
 582  1276.38
 583  1374.098
 584  1353.241
 585  1174.857
 586  1104.731
 587  1145.96
 588  1214.002
 589  1356.183
 590  1410.798
 591  1450.333
 592  1558.214
 593  1593.828
 594  1596.634
 595  1550.416
 596  1611.84
 597  1821.049
 598  1586.132
 599  1342.374
 600  1375.799
 601  1360.737
 602  1465.202
 603  1314.27
 604  1387.923
 605  1306.287
 606  1153.762
 607  1253.515
 608  1411.29
 609  1411.59
 610  1432.967
 611  1440.968
 612  1560.563
 613  1452.825
 614  1237.818
 615  1446.516
 616  1540.016
 617  1532.766
 618  1653.218
 619  1645.032
 620  1774.986
 621  1560.694
 622  1645.565
 623  1843.032
 624  1794.735
 625  1971.839
 626  2040.015
 627  1758.106
 628  1667.907
 629  1435.163
 630  1518.084
 631  1369.746
 632  1210.137
 633  1458.843
 634  1392.086
 635  1225.532
 636  1153.765
 637  1044.245
 638  1184.182
 639  1226.866
 640  1252.723
 641  1318.823
 642  1118.496
 643  1154.306
 644  1264.338
 645  1240.816
 646  1259.487
 647  1299.047
 648  1303.882
 649  1254.756
 650  1059.809
 651  1058.731
 652  966.2518
 653  978.7399
 654  1098.238
 655  1190.678
 656  1156.465
 657  1219.992
 658  1204.817
 659  1246.564
 660  1274.792
 661  1342.215
 662  1407.708
 663  1124.366
 664  1106.335
 665  1230.53
 666  1252.499
 667  1200.526
 668  1260.874
 669  1244.035
 670  1224.533
 671  1059.678
 672  1081.424
 673  1023.483
 674  987.687
 675  1279.07
 676  1340.166
 677  1324.285
 678  1288.742
 679  1273.737
 680  1307.433
 681  1114.88
 682  1100.243
 683  1244.203
 684  1114.504
 685  1139.42
 686  1234.33
 687  1349.103
 688  1372.948
 689  1330.139
 690  1479.919
 691  1506.434
 692  1222.532
 693  1171.323
 694  1202.631
 695  1301.48
 696  1442.814
 697  1461.346
 698  1524.867
 699  1456.524
 700  1206.552
 701  1283.671
 702  1061.912
 703  1204.856
 704  1395.804
 705  1421.336
 706  1471.952
 707  1164.266
 708  1218.465
 709  1369.706
 710  1407.813
 711  1479.138
 712  1362.304
 713  1160.837
 714  1125.079
 715  1155.97
 716  1296.685
 717  1222.171
 718  1199.237
 719  1323.397
 720  1235.508
 721  1090.471
 722  1247.094
 723  1381.038
 724  1424.687
 725  1401.773
 726  1451.94
 727  1371.282
 728  1132.803
 729  1050.922
 730  1306.691
 731  1097.158
 732  1110.717
 733  1125.433
 734  1091.048
 735  1171.578
 736  1199.206
 737  1333.88
 738  1226.916
 739  998.5698
 740  1196.025
 741  1306.705
 742  1275.171
 743  1302.613
 744  1149.539
 745  1271.79
 746  1288.218
 747  1215.553
 748  1217.883
 749  879.8504
 750  998.0833
 751  1289.872
 752  1267.718
 753  1176.382
 754  1037.461
 755  1283.989
 756  1339.741
 757  1190.773
 758  1232.793
 759  1407.549
 760  1505.293
 761  1647.356
 762  1442.104
 763  1364.891
 764  1293.888
 765  1209.53
 766  1147.773
 767  976.2695
 768  1201.951
 769  1309.429
 770  1082.963
 771  879.1776
 772  1031.922
 773  1178.996
 774  1298.512
 775  1201.342
 776  1336.285
 777  1328.084
 778  1173.262
 779  1213.127
 780  1168.478
 781  1161.905
 782  1192.887
 783  1199.525
 784  1235.057
 785  1044.008
 786  924.9247
 787  1035.987
 788  1162.536
 789  1276.963
 790  1418.097
 791  1444.411
 792  1436.411
 793  1345.195
 794  1319.764
 795  1300.475
 796  1153.194
 797  1240.222
 798  1176.051
 799  949.165
 800  901.5988
 801  982.9836
 802  1155.671
 803  1203.542
 804  1271.329
 805  1392.146
 806  1389.692
 807  1216.026
 808  1398.95
 809  1342.47
 810  1264.22
 811  1381.355
 812  1502.828
 813  1591.666
 814  1161.339
 815  1117.333
 816  1441.395
 817  1385.885
 818  1478.377
 819  1527.394
 820  1432.263
 821  1310.647
 822  990.9816
 823  1279.937
 824  1423.041
 825  1396.465
 826  1646.74
 827  1555.959
 828  1468.606
 829  1480.345
 830  1498.684
 831  1556.245
 832  1327.086
 833  1335.749
 834  1363.941
 835  1129.896
 836  1120.333
 837  1252.334
 838  1294.361
 839  1324.699
 840  1220.888
 841  1309.318
 842  1270.511
 843  1074.496
 844  1197.491
 845  1249.838
 846  1278.329
 847  1403.262
 848  1331.063
 849  1340.665
 850  1163.25
 851  1235.706
 852  1319.118
 853  1416.939
 854  1522.042
 855  1825.054
 856  1719.676
 857  1685.87
 858  1534.874
 859  1519.511
 860  1487.32
 861  1446.472
 862  1389.518
 863  1175.041
 864  880.8959
 865  984.9618
 866  1238.327
 867  1413.143
 868  1439.342
 869  1295.366
 870  1229.598
 871  1207.717
 872  1048.73
 873  1201.05
 874  1050.577
 875  1038.588
 876  1125.837
 877  1036.882
 878  949.0168
 879  805.5912
 880  1062.233
 881  1326.691
 882  1115.792
 883  1130.782
 884  1148.982
 885  1076.128
 886  997.4349
 887  873.941
 888  906.1769
 889  1006.592
 890  956.2602
 891  1238.344
 892  1191.386
 893  1069.867
 894  1249.845
 895  1258.888
 896  1262.637
 897  1137.02
 898  1092.856
 899  1166.528
 900  849.5369
 901  815.4168
 902  1020.455
 903  898.0444
 904  1233.979
 905  1185.345
 906  1181.009
 907  976.9574
 908  832.1004
 909  973.6458
 910  862.6717
 911  873.5724
 912  1099.678
 913  1010.638
 914  924.3384
 915  1056.549
 916  1363.998
 917  1499.576
 918  1482.136
 919  1502.512
 920  1626.08
 921  1249.731
 922  1193.272
 923  1317.008
 924  1363.006
 925  1225.421
 926  1291.849
 927  1397.445
 928  1375.555
 929  974.0323
 930  1050.231
 931  1153.944
 932  1233.814
 933  1392.45
 934  1350.585
 935  1234.028
 936  1073.202
 937  1107.974
 938  1247.244
 939  1239.065
 940  1400.236
 941  1553.602
 942  1300.405
 943  928.1544
 944  980.7017
 945  1284.602
 946  1431.269
 947  1260.173
 948  1232.558
 949  1208.731
 950  938.3592
 951  864.479
 952  907.5715
 953  1106.315
 954  1268.385
 955  1286.127
 956  1336.486
 957  1296.119
 958  1278.448
 959  1571.958
 960  1512.107
 961  1440.914
 962  1472.833
 963  1477.772
 964  1485.831
 965  1336.809
 966  1465.979
 967  1452.136
 968  1132.061
 969  1164.571
 970  1300.354
 971  1160.105
 972  1149.189
 973  1134.575
 974  1356.086
 975  1341.868
 976  1327.616
 977  1531.391
 978  1332.671
 979  1253.372
 980  1350.059
 981  1392.436
 982  1443.153
 983  1342.554
 984  1322.12
 985  1297.396
 986  1211.649
 987  1359.737
 988  1549.027
 989  1424.218
 990  1558.584
 991  1543.752
 992  1528.209
 993  1369.435
 994  1188.509
 995  1191.542
 996  1207.603
 997  1266.758
 998  1466.834
 999  1318.518
1000  1228.722
1001  1285.925
1002  1463.857
1003  1514.395
1004  1515.977
1005  1609.336
1006  1639.057
1007  1256.591
1008  1041.083
1009  1268.021
1010  1330.395
1011  1456.421
1012  1313.419
1013  1138.024
1014  993.259
1015  852.6043
1016  1050.806
1017  1293.295
1018  1415.057
1019  1685.829
1020  1596.746
1021  1526.857
1022  1385.142
1023  1316.27
