# Input file       =  1197407269.136531_cleaned.dat
# Candidate        =  PSR_0332+5434
# Telescope        =  AR
# Epoch_topo       =  58102.880649728366
# Epoch_bary       =  N/A
# T_sample         =  0.002
# Data Folded      =  7340032
# Data Avg         =  0.331038113212605
# Data StdDev      =  5.46858030137397 
# Profile Bins     =  256
# Profile Avg      =  9492.52209052907 
# Profile StdDev   =  925.984224129419 
# Reduced chi-sqr  =  0.556
# Prob(Noise)      <  1   (~0.0 sigma)
# P_topo (ms)      =  714.541016358362  +/- 0.000892
# P'_topo (s/s)    =  -0                +/- 4.71e-10
# P''_topo (s/s^2) =  0                 +/- 2.08e-13
# P_bary (ms)      =  N/A
# P'_bary (s/s)    =  N/A
# P''_bary (s/s^2) =  N/A
# P_orb (s)        =  N/A
# asin(i)/c (s)    =  N/A
# eccentricity     =  N/A
# w (rad)          =  N/A
# T_peri           =  N/A
######################################################
   0  9572.156
   1  9727.41
   2  10268.28
   3  8559.839
   4  8072.291
   5  8843.503
   6  9412.353
   7  9370.178
   8  8785.603
   9  8822.319
  10  9691.18
  11  10095.67
  12  9101.954
  13  8784.996
  14  9324.257
  15  8656.841
  16  8515.207
  17  9093.353
  18  8572.299
  19  8135.339
  20  8631.837
  21  8670.005
  22  8453.726
  23  9340.214
  24  9099.446
  25  9552.528
  26  10342.68
  27  10086.48
  28  9003.167
  29  9908.562
  30  9236.681
  31  8811.031
  32  8650.781
  33  9141.998
  34  9893.228
  35  8480.063
  36  8760.45
  37  9493.688
  38  10027.2
  39  9726.751
  40  8833.184
  41  8407.15
  42  9466.275
  43  9391.876
  44  9418.365
  45  10203.3
  46  9968.467
  47  9219.085
  48  9485.222
  49  9278.774
  50  9308.37
  51  9319.988
  52  9253.707
  53  9451.807
  54  10005.88
  55  8976.061
  56  9071.547
  57  10696.41
  58  10308.44
  59  9460.293
  60  8661.671
  61  10103.98
  62  9511.859
  63  9085.539
  64  9578.825
  65  9784.394
  66  9559.903
  67  10064.98
  68  9971.454
  69  9611.229
  70  9874.253
  71  9643
  72  9160.334
  73  8360.937
  74  8650.458
  75  10154.99
  76  9691.8
  77  9118.25
  78  8927.192
  79  9897.418
  80  10102.51
  81  9145.056
  82  9923.001
  83  10733.36
  84  9745.514
  85  10454.04
  86  10061.39
  87  10253.17
  88  10577.36
  89  9583.305
  90  10098.27
  91  9852.414
  92  10510.78
  93  10488.15
  94  9958.394
  95  10653.86
  96  10824.09
  97  10859.36
  98  9626.431
  99  9316.151
 100  10503.36
 101  10045.4
 102  9685.116
 103  9471.254
 104  10254.91
 105  9223.947
 106  9283.47
 107  9426.373
 108  9334.608
 109  9146.902
 110  8901.172
 111  8817.813
 112  8296.415
 113  9073.086
 114  9419.311
 115  8767.715
 116  9406.517
 117  9270.765
 118  10112.36
 119  9466.429
 120  9904.731
 121  10115.93
 122  9473.182
 123  9318.401
 124  9412.516
 125  9438.408
 126  8922.081
 127  8787.526
 128  8907.485
 129  9265.206
 130  8703.903
 131  8791.701
 132  9739.211
 133  9953.872
 134  10139.35
 135  10134.21
 136  10611.16
 137  10200.99
 138  9670.646
 139  10328.92
 140  10282.26
 141  10295.3
 142  10790.61
 143  10177.16
 144  9857.914
 145  10492.56
 146  9864.929
 147  10095.9
 148  8967.94
 149  10045.02
 150  10432.17
 151  9465.549
 152  9568.951
 153  10642.55
 154  10514.7
 155  10123.4
 156  10974.76
 157  10425.05
 158  9661.843
 159  9210.986
 160  9161.719
 161  9593.649
 162  9701.336
 163  9496.804
 164  9288.933
 165  9166.47
 166  9410.117
 167  8662.959
 168  8619.433
 169  9324.475
 170  9241.993
 171  9452.762
 172  9622.236
 173  9035.876
 174  9303.729
 175  9176.517
 176  8884.552
 177  9228.455
 178  8922.486
 179  9474.916
 180  8842.357
 181  8662.691
 182  9017.137
 183  8672.587
 184  8614.142
 185  8613.822
 186  9662.997
 187  9505.38
 188  8903.857
 189  9546.91
 190  9649.441
 191  9405.611
 192  8679.496
 193  8871.495
 194  9293.168
 195  9574.788
 196  10111.74
 197  9303.698
 198  9009.181
 199  9723.345
 200  9727.732
 201  10224.26
 202  9240.466
 203  9218.98
 204  9688.139
 205  10211.36
 206  10486.03
 207  10227.53
 208  9356.969
 209  9694.74
 210  10463.77
 211  9568.748
 212  8934.732
 213  9593.876
 214  9585.679
 215  10222.71
 216  9928.596
 217  9657.621
 218  9777.871
 219  9640.752
 220  9902.463
 221  9991.69
 222  10140.11
 223  9332.418
 224  9375.724
 225  8637.688
 226  9037.794
 227  9675.877
 228  9155.132
 229  9887.642
 230  9501.386
 231  9842.583
 232  9587.189
 233  9347.796
 234  8422.718
 235  8322.821
 236  8781.766
 237  8791.123
 238  8711.011
 239  9208.348
 240  9413.406
 241  8107.199
 242  8956.511
 243  8764.795
 244  8949.949
 245  9451.352
 246  9191.506
 247  8817.993
 248  9872.103
 249  9926.533
 250  9645.622
 251  9791.631
 252  9682.848
 253  10244.69
 254  9890.35
 255  9807.364
