# Input file       =  1197484280.100448_cleaned.dat
# Candidate        =  PSR_0332+5434
# Telescope        =  AR
# Epoch_topo       =  58103.771980329257
# Epoch_bary       =  N/A
# T_sample         =  0.002
# Data Folded      =  7340032
# Data Avg         =  0.0571061034877985
# Data StdDev      =  1.00003353875265 
# Profile Bins     =  512
# Profile Avg      =  818.383532665263 
# Profile StdDev   =  119.737052073457 
# Reduced chi-sqr  =  0.837
# Prob(Noise)      <  0.997   (~0.0 sigma)
# P_topo (ms)      =  714.541705490974  +/- 0.000395
# P'_topo (s/s)    =  -0                +/- 2.08e-10
# P''_topo (s/s^2) =  0                 +/- 9.2e-14
# P_bary (ms)      =  N/A
# P'_bary (s/s)    =  N/A
# P''_bary (s/s^2) =  N/A
# P_orb (s)        =  N/A
# asin(i)/c (s)    =  N/A
# eccentricity     =  N/A
# w (rad)          =  N/A
# T_peri           =  N/A
######################################################
   0  827.6292
   1  936.6647
   2  878.989
   3  820.4188
   4  808.0266
   5  700.4032
   6  759.3223
   7  835.9824
   8  881.3361
   9  810.222
  10  766.4701
  11  841.3633
  12  805.9628
  13  830.2194
  14  857.8947
  15  795.4708
  16  748.0851
  17  762.7903
  18  752.8475
  19  898.267
  20  909.1898
  21  839.7846
  22  808.8588
  23  770.9921
  24  774.0006
  25  910.4927
  26  831.4995
  27  805.3645
  28  722.0108
  29  756.6916
  30  686.3359
  31  748.8142
  32  844.2343
  33  712.4235
  34  736.341
  35  736.9053
  36  674.5522
  37  701.8162
  38  664.8361
  39  708.6938
  40  748.3816
  41  706.1082
  42  729.4389
  43  687.6874
  44  700.157
  45  699.9943
  46  672.106
  47  724.2838
  48  763.2265
  49  873.3594
  50  878.7062
  51  938.6812
  52  819.1457
  53  702.1224
  54  737.5875
  55  799.8862
  56  824.1842
  57  779.4926
  58  865.0444
  59  866.0655
  60  778.8365
  61  746.6802
  62  855.0214
  63  862.3884
  64  735.5773
  65  857.4016
  66  771.9289
  67  954.3688
  68  855.1257
  69  838.4727
  70  730.5706
  71  799.9989
  72  937.2686
  73  917.8203
  74  737.8694
  75  710.63
  76  793.9462
  77  813.8331
  78  795.1553
  79  733.3238
  80  667.8407
  81  718.563
  82  811.9335
  83  788.3747
  84  754.3549
  85  859.2776
  86  795.3928
  87  748.8715
  88  715.0633
  89  765.1924
  90  806.3008
  91  874.122
  92  790.6786
  93  770.3411
  94  823.7499
  95  872.2183
  96  830.0829
  97  811.0575
  98  803.3301
  99  745.0515
 100  851.2076
 101  839.6547
 102  849.2291
 103  856.0931
 104  735.8134
 105  757.9029
 106  772.1887
 107  740.639
 108  834.1019
 109  825.6059
 110  854.9442
 111  845.9846
 112  890.2028
 113  788.0526
 114  812.7806
 115  766.7083
 116  787.8223
 117  892.032
 118  921.634
 119  870.0148
 120  815.1276
 121  914.5094
 122  800.2227
 123  743.2185
 124  692.9061
 125  772.6628
 126  747.2326
 127  762.6049
 128  857.7037
 129  830.7493
 130  826.3504
 131  803.8618
 132  755.2631
 133  799.3241
 134  909.2653
 135  821.8463
 136  794.5042
 137  714.6308
 138  792.8411
 139  792.887
 140  845.2252
 141  841.9948
 142  723.5891
 143  735.8741
 144  848.7983
 145  785.4011
 146  802.6763
 147  767.3887
 148  859.134
 149  843.9547
 150  904.4243
 151  862.0637
 152  744.2116
 153  788.8414
 154  841.0698
 155  814.3569
 156  759.637
 157  780.7886
 158  645.6241
 159  705.1838
 160  747.7079
 161  755.0565
 162  749.7496
 163  761.4139
 164  824.5727
 165  770.0016
 166  790.0052
 167  804.9928
 168  836.8518
 169  849.4624
 170  793.9288
 171  683.3499
 172  813.6848
 173  936.7713
 174  868.8446
 175  790.6645
 176  819.5324
 177  747.3303
 178  759.0206
 179  768.132
 180  719.6776
 181  712.2579
 182  724.8506
 183  759.9043
 184  762.2566
 185  750.6974
 186  703.3939
 187  747.9831
 188  747.7653
 189  727.121
 190  762.7624
 191  871.3809
 192  825.8582
 193  754.4413
 194  709.0477
 195  659.5629
 196  729.1113
 197  767.4905
 198  737.619
 199  703.21
 200  751.796
 201  842.0613
 202  918.8467
 203  954.9869
 204  858.2152
 205  768.735
 206  821.3785
 207  897.3663
 208  822.3694
 209  862.333
 210  851.8082
 211  895.1589
 212  718.0749
 213  748.5479
 214  833.8483
 215  812.8302
 216  812.6569
 217  780.2785
 218  636.6658
 219  759.2941
 220  792.2995
 221  880.1879
 222  825.3777
 223  775.2476
 224  814.6262
 225  843.1412
 226  721.3868
 227  787.1045
 228  796.6129
 229  780.7974
 230  843.8083
 231  754.0134
 232  782.5879
 233  813.0777
 234  812.8561
 235  802.9827
 236  859.666
 237  847.0521
 238  777.9538
 239  822.3888
 240  871.9299
 241  840.7203
 242  797.8932
 243  916.7258
 244  948.4252
 245  861.2099
 246  873.7668
 247  892.5676
 248  928.4249
 249  885.9847
 250  836.5958
 251  828.0137
 252  795.4966
 253  805.1427
 254  813.3865
 255  854.0459
 256  788.8679
 257  781.8531
 258  857.5338
 259  843.4503
 260  832.0832
 261  914.3071
 262  963.7811
 263  1026.322
 264  809.2432
 265  759.4797
 266  841.9471
 267  837.739
 268  885.7386
 269  900.7624
 270  951.6163
 271  937.2258
 272  813.9488
 273  827.0714
 274  905.6552
 275  856.9354
 276  938.1588
 277  810.3075
 278  695.6196
 279  641.4013
 280  764.0552
 281  879.6099
 282  837.4349
 283  800.8582
 284  816.6018
 285  779.8739
 286  865.2344
 287  845.0732
 288  877.3196
 289  847.3645
 290  835.4556
 291  927.6791
 292  733.3243
 293  678.319
 294  794.5809
 295  740.8094
 296  825.3123
 297  848.2219
 298  918.0063
 299  896.6162
 300  831.5538
 301  741.8451
 302  803.5321
 303  770.7281
 304  722.5837
 305  849.7133
 306  850.7133
 307  905.5447
 308  880.1564
 309  840.7603
 310  760.812
 311  737.0287
 312  796.5291
 313  852.8766
 314  730.7846
 315  861.6306
 316  951.4575
 317  894.5024
 318  748.9366
 319  774.4661
 320  819.0199
 321  940.5817
 322  952.4744
 323  942.327
 324  846.5405
 325  814.727
 326  882.0926
 327  1118.648
 328  967.8993
 329  914.9556
 330  846.7749
 331  832.6382
 332  913.7175
 333  904.3367
 334  924.6996
 335  866.5003
 336  831.6221
 337  892.6257
 338  900.6914
 339  799.3648
 340  867.7773
 341  998.6155
 342  1103.188
 343  1139.597
 344  1201.836
 345  1215.368
 346  1155.242
 347  979.5828
 348  938.7679
 349  925.9551
 350  938.4361
 351  842.5972
 352  788.6804
 353  692.2154
 354  730.9521
 355  759.6835
 356  768.233
 357  838.9491
 358  825.0652
 359  891.1428
 360  912.8565
 361  947.8435
 362  939.0566
 363  813.9194
 364  782.3674
 365  761.6678
 366  687.6003
 367  809.1108
 368  908.5159
 369  853.0366
 370  822.2889
 371  810.9041
 372  772.1724
 373  784.2297
 374  726.4087
 375  706.5104
 376  750.6083
 377  850.8307
 378  865.507
 379  753.3255
 380  804.6891
 381  838.959
 382  897.4899
 383  825.1415
 384  826.3832
 385  783.5446
 386  727.0467
 387  824.3604
 388  901.4834
 389  905.3142
 390  857.3784
 391  868.3062
 392  928.2151
 393  976.3957
 394  923.7343
 395  885.5543
 396  871.7356
 397  901.5231
 398  845.0067
 399  792.507
 400  798.7515
 401  892.7548
 402  868.3895
 403  840.0066
 404  769.6154
 405  646.9163
 406  667.6198
 407  750.1927
 408  801.679
 409  865.865
 410  809.2685
 411  681.9338
 412  678.4221
 413  772.4922
 414  841.5037
 415  944.6208
 416  870.0368
 417  924.1201
 418  829.7673
 419  811.2281
 420  871.9379
 421  939.8866
 422  880.0302
 423  755.584
 424  719.7178
 425  723.7466
 426  798.4578
 427  757.3193
 428  758.7179
 429  823.4257
 430  812.4164
 431  883.0938
 432  870.73
 433  849.9167
 434  815.5067
 435  901.208
 436  899.9
 437  930.4977
 438  852.4918
 439  767.4346
 440  807.4067
 441  844.6255
 442  917.7653
 443  1006.822
 444  813.7708
 445  826.3171
 446  831.2177
 447  794.4991
 448  754.5572
 449  806.5971
 450  712.0563
 451  725.0456
 452  752.5015
 453  665.2934
 454  762.1248
 455  749.5154
 456  733.394
 457  763.1627
 458  763.5137
 459  773.1812
 460  823.0695
 461  902.1815
 462  761.8821
 463  867.0341
 464  863.0725
 465  889.0105
 466  835.2381
 467  730.8979
 468  759.24
 469  798.7374
 470  788.1746
 471  809.2407
 472  792.176
 473  771.0327
 474  794.6548
 475  729.8438
 476  767.5483
 477  864.8665
 478  922.1924
 479  750.1806
 480  706.9615
 481  794.0881
 482  772.7964
 483  716.0146
 484  739.0517
 485  757.7461
 486  785.506
 487  811.5138
 488  915.6137
 489  884.3911
 490  964.9191
 491  859.7598
 492  795.5248
 493  835.7164
 494  909.8337
 495  905.5874
 496  863.7748
 497  823.8522
 498  887.6735
 499  835.9079
 500  810.5182
 501  822.0088
 502  898.5345
 503  951.8364
 504  839.5334
 505  916.8795
 506  872.642
 507  796.8605
 508  719.9146
 509  785.6492
 510  856.8123
 511  802.8428
