# Input file       =  1197741965.100548_cleaned.dat
# Candidate        =  PSR_0332+5434
# Telescope        =  AR
# Epoch_topo       =  58106.754445608196
# Epoch_bary       =  N/A
# T_sample         =  0.002
# Data Folded      =  7340032
# Data Avg         =  0.132132425620511
# Data StdDev      =  3.8758233240583  
# Profile Bins     =  512
# Profile Avg      =  1894.24439386148 
# Profile StdDev   =  464.064095049391 
# Reduced chi-sqr  =  0.656
# Prob(Noise)      <  1   (~0.0 sigma)
# P_topo (ms)      =  714.544607834013  +/- 0.000199
# P'_topo (s/s)    =  -0                +/- 1.05e-10
# P''_topo (s/s^2) =  0                 +/- 4.64e-14
# P_bary (ms)      =  N/A
# P'_bary (s/s)    =  N/A
# P''_bary (s/s^2) =  N/A
# P_orb (s)        =  N/A
# asin(i)/c (s)    =  N/A
# eccentricity     =  N/A
# w (rad)          =  N/A
# T_peri           =  N/A
######################################################
   0  1602.986
   1  1628.742
   2  1901.13
   3  1639.957
   4  1714.568
   5  1712.958
   6  2061.599
   7  1798.65
   8  1699.28
   9  1587.947
  10  1939.868
  11  1959.03
  12  1768.083
  13  2159.455
  14  1903.744
  15  1837.81
  16  1338.065
  17  1340.545
  18  1518.412
  19  1579.094
  20  2006.826
  21  1731.283
  22  1972.764
  23  2088.099
  24  1930.355
  25  2113.468
  26  2151.341
  27  1960.285
  28  1659.834
  29  1778.853
  30  2097.764
  31  2233.318
  32  2207.824
  33  2137.783
  34  1948.214
  35  1741.07
  36  1633.154
  37  1934.174
  38  2101.794
  39  2084.615
  40  1910.948
  41  1698.188
  42  1453.654
  43  1662.037
  44  1889.649
  45  1994.861
  46  1918.132
  47  2143.123
  48  1818.136
  49  1578.557
  50  1866.513
  51  1992.813
  52  1749.424
  53  1709.174
  54  1715.847
  55  1878.812
  56  2322.969
  57  1782.328
  58  1771.687
  59  1736.576
  60  1756.877
  61  1599.864
  62  1793.575
  63  2035.632
  64  1982.367
  65  2086.75
  66  2291.627
  67  1957.515
  68  1868.497
  69  1779.715
  70  1778.483
  71  1972.614
  72  1869.57
  73  1658.695
  74  1976.033
  75  2147.099
  76  2105.318
  77  2131.425
  78  2368.823
  79  2405.678
  80  2222.079
  81  1861.051
  82  1784.289
  83  1806.08
  84  1959.12
  85  1957.502
  86  2092.166
  87  2128.721
  88  2298.863
  89  1585.488
  90  1687.307
  91  1811.31
  92  1850.903
  93  2041.867
  94  2161.564
  95  2153.645
  96  2018.905
  97  2192.002
  98  2224.932
  99  2092.032
 100  2189.837
 101  2394.667
 102  2283.751
 103  1908.822
 104  2130.755
 105  2006.941
 106  2226.932
 107  2451.644
 108  2284.056
 109  2004.172
 110  1909.812
 111  1887.23
 112  2184.287
 113  1721.086
 114  1915.376
 115  1778.011
 116  2041.943
 117  1970.236
 118  1942.439
 119  1537.304
 120  1893.978
 121  2249.947
 122  2106.551
 123  2111.155
 124  1920.206
 125  1759.178
 126  1888.096
 127  2073.403
 128  1948.761
 129  1804.289
 130  1968.291
 131  1989.903
 132  2030.935
 133  2327.712
 134  1981.96
 135  1950.182
 136  2150.479
 137  1930.289
 138  1914.208
 139  2044.217
 140  2256.689
 141  2145.136
 142  1866.394
 143  1609.701
 144  1840.247
 145  2018.986
 146  2002.473
 147  1685.47
 148  1841.167
 149  1931.14
 150  1892.966
 151  2014.097
 152  1586.305
 153  1260.196
 154  1100.136
 155  1340.668
 156  1350.635
 157  1364.574
 158  1506.731
 159  1483.112
 160  1550.006
 161  1646.927
 162  1552.147
 163  1838.762
 164  1698.439
 165  1144.196
 166  1255.325
 167  1252.439
 168  1332.863
 169  1865.728
 170  2139.421
 171  2021.237
 172  2194.437
 173  2116.495
 174  1743.952
 175  1524.995
 176  1799.003
 177  1844.99
 178  1956.354
 179  2138.741
 180  2298.278
 181  2074.833
 182  1812.692
 183  1656.526
 184  1737.275
 185  1849.009
 186  1802.695
 187  1873.893
 188  1838.061
 189  1812.995
 190  1591.22
 191  1683.818
 192  1757.712
 193  1822.767
 194  2028.544
 195  1788.78
 196  1905.668
 197  2084.954
 198  1935.937
 199  1970.829
 200  2069.077
 201  2147.088
 202  2054.823
 203  1973.56
 204  1912.814
 205  1529.997
 206  1501.669
 207  2122.748
 208  1928.1
 209  1587.436
 210  1863.718
 211  1803.667
 212  1840.65
 213  1876.113
 214  1852.083
 215  1894.066
 216  2097.805
 217  1949.007
 218  2035.031
 219  1889.316
 220  1779.67
 221  1794.462
 222  1908.046
 223  2393.885
 224  2191.076
 225  1533.909
 226  1526.951
 227  1849.196
 228  1976.55
 229  2059.221
 230  1790.821
 231  1613.176
 232  1579.381
 233  1853.948
 234  1974.787
 235  1967.192
 236  1452.299
 237  1810.897
 238  1733.194
 239  1652.887
 240  1936.259
 241  1871.893
 242  1950.848
 243  2441.183
 244  2182.56
 245  2080.409
 246  1878.718
 247  1763.394
 248  1920.211
 249  1946.394
 250  2270.373
 251  2154.755
 252  1858.275
 253  1796.172
 254  1699.392
 255  1883.107
 256  1959.017
 257  1977.976
 258  2087.171
 259  1800.997
 260  1763.936
 261  1487.634
 262  1783.793
 263  2034.423
 264  2032.916
 265  2002.212
 266  1788.131
 267  1724.363
 268  1487.06
 269  1358.205
 270  1702.135
 271  1579.633
 272  1493.525
 273  1778.594
 274  1946.364
 275  1665.483
 276  1437.161
 277  1758.219
 278  1913.788
 279  1905.769
 280  1787.948
 281  1928.038
 282  1721.272
 283  1541.561
 284  1858.542
 285  1820.617
 286  2016.441
 287  2194.034
 288  2253.448
 289  1622.612
 290  1671.728
 291  1688.268
 292  1593.42
 293  1415.097
 294  1501.922
 295  1782.973
 296  1883.229
 297  2227.76
 298  1817.12
 299  1841.223
 300  1668.479
 301  1541.768
 302  1589.341
 303  1388.486
 304  1561.476
 305  1771.557
 306  1727.771
 307  1767.624
 308  1714.938
 309  1469.544
 310  1511.163
 311  1599.379
 312  1944.35
 313  1928.156
 314  1972.956
 315  1646.601
 316  1720.57
 317  2084.499
 318  1985.009
 319  2068.309
 320  2072.987
 321  2039.104
 322  1928.698
 323  2047.09
 324  2353.692
 325  2352.601
 326  2398.122
 327  2204.961
 328  2095.585
 329  2215.774
 330  1765.503
 331  1976.598
 332  1856.24
 333  2004.959
 334  2052.089
 335  1635.477
 336  1757.437
 337  1829.924
 338  1951.037
 339  1925.045
 340  1769.12
 341  2003.511
 342  1899.893
 343  1838.435
 344  1751.362
 345  1875.929
 346  1936.092
 347  2161.214
 348  2186.634
 349  1773.237
 350  1702.091
 351  1797.465
 352  1544.976
 353  1798.977
 354  1733.655
 355  1898.283
 356  2154.37
 357  1942.085
 358  1628.59
 359  1687.716
 360  2085.258
 361  1818.661
 362  1754.294
 363  1829.332
 364  1884.056
 365  1763.901
 366  1740.322
 367  1973.523
 368  1603.697
 369  1585.732
 370  1925.045
 371  1559.365
 372  1652.915
 373  1671.556
 374  1502.25
 375  1607.604
 376  1971.639
 377  1713.873
 378  1609.333
 379  1933.834
 380  1900.183
 381  1821.162
 382  1837.025
 383  1623.156
 384  1464.975
 385  1616.243
 386  1510.925
 387  1606.757
 388  1797.501
 389  1927.27
 390  1349.867
 391  1417.595
 392  1734.281
 393  1701.152
 394  1693.082
 395  1636.344
 396  1664.014
 397  1753.6
 398  1579.131
 399  1873.192
 400  2047.288
 401  1795.288
 402  1864.783
 403  1663.43
 404  2053.363
 405  2359.985
 406  2531.905
 407  2377.523
 408  2346.217
 409  2653.719
 410  2892.934
 411  3338.806
 412  3441.89
 413  2794.331
 414  2400.936
 415  2121.241
 416  1917.507
 417  1943.712
 418  2482.216
 419  2480.303
 420  2306.363
 421  2205.75
 422  2000.991
 423  1976.959
 424  2070.612
 425  2020.128
 426  2411.642
 427  2403.997
 428  2016.479
 429  1831.095
 430  1711.403
 431  1931.147
 432  2098.61
 433  2393.604
 434  2213.064
 435  1976.545
 436  1805.317
 437  1468.658
 438  1521.666
 439  1887.761
 440  1927.884
 441  2099.896
 442  2506.227
 443  2222.381
 444  1772.904
 445  1888.029
 446  1549.59
 447  1592.055
 448  1464.672
 449  1409.175
 450  1564.246
 451  1514.214
 452  1697.662
 453  1796.194
 454  1822.744
 455  2017.752
 456  1541.753
 457  1612.556
 458  1484.984
 459  1866.298
 460  2300.944
 461  2378.025
 462  2233.594
 463  2200.429
 464  1872.673
 465  1645.472
 466  2097.003
 467  2377.039
 468  2218.725
 469  2166.898
 470  2013.446
 471  2046.343
 472  1943.383
 473  1918.647
 474  1719.027
 475  2109.41
 476  2304.569
 477  2102.506
 478  1863.412
 479  1923.602
 480  1646.181
 481  1979.74
 482  1975.007
 483  2073.038
 484  2321.853
 485  2187.297
 486  2181.403
 487  1712.836
 488  1853.344
 489  1894.004
 490  1767.542
 491  2168.471
 492  2200.147
 493  1827.803
 494  1820.111
 495  2019.747
 496  2067.826
 497  1907.837
 498  2114.215
 499  1981.876
 500  2048.215
 501  2065.585
 502  1944.458
 503  1641.728
 504  1956.658
 505  1994.829
 506  1965.016
 507  1843.153
 508  1633.785
 509  1789.67
 510  2154.192
 511  1880.871
