# Input file       =  1197469409.100829_cleaned.dat
# Candidate        =  PSR_0332+5434
# Telescope        =  AR
# Epoch_topo       =  58103.599862278112
# Epoch_bary       =  N/A
# T_sample         =  0.002
# Data Folded      =  7340032
# Data Avg         =  0.100062366330523
# Data StdDev      =  1.00051673900415 
# Profile Bins     =  512
# Profile Avg      =  1434.49657508436 
# Profile StdDev   =  119.794907106747 
# Reduced chi-sqr  =  0.874
# Prob(Noise)      <  0.981   (~0.0 sigma)
# P_topo (ms)      =  714.541506076875  +/- 8.72e-05
# P'_topo (s/s)    =  -0                +/- 4.6e-11
# P''_topo (s/s^2) =  0                 +/- 2.03e-14
# P_bary (ms)      =  N/A
# P'_bary (s/s)    =  N/A
# P''_bary (s/s^2) =  N/A
# P_orb (s)        =  N/A
# asin(i)/c (s)    =  N/A
# eccentricity     =  N/A
# w (rad)          =  N/A
# T_peri           =  N/A
######################################################
   0  1315.336
   1  1330.711
   2  1291.002
   3  1397.308
   4  1461.677
   5  1435.797
   6  1483.156
   7  1553.517
   8  1556.045
   9  1456.768
  10  1451.252
  11  1394.676
  12  1411.896
  13  1570.017
  14  1591.254
  15  1459.691
  16  1390.819
  17  1379.613
  18  1308.164
  19  1378.86
  20  1450.044
  21  1510.529
  22  1396.33
  23  1275.608
  24  1307.401
  25  1516.747
  26  1411.684
  27  1308.788
  28  1477.807
  29  1540.787
  30  1569.601
  31  1587.547
  32  1398.777
  33  1391.875
  34  1425.129
  35  1605.354
  36  1602.573
  37  1519.165
  38  1430.054
  39  1356.223
  40  1298.313
  41  1291.446
  42  1243.866
  43  1265.798
  44  1323.7
  45  1417.934
  46  1524.03
  47  1539.94
  48  1492.713
  49  1515.945
  50  1589.671
  51  1517.549
  52  1471.387
  53  1533.766
  54  1488.669
  55  1388.966
  56  1476.7
  57  1499.571
  58  1465.633
  59  1468.373
  60  1549.722
  61  1503.535
  62  1548.88
  63  1581.66
  64  1620.179
  65  1503.896
  66  1440.997
  67  1402.449
  68  1454.109
  69  1476.907
  70  1410.431
  71  1428.222
  72  1454.863
  73  1545.388
  74  1475.882
  75  1367.005
  76  1378.865
  77  1433.782
  78  1561.08
  79  1530.236
  80  1611.999
  81  1499.084
  82  1494.532
  83  1432.557
  84  1354.509
  85  1443.068
  86  1457.44
  87  1577.649
  88  1479.388
  89  1494.402
  90  1449.22
  91  1496.095
  92  1405.203
  93  1406.983
  94  1466.208
  95  1408.619
  96  1512.057
  97  1464.57
  98  1521.307
  99  1419.338
 100  1455.442
 101  1493.591
 102  1565.603
 103  1463.915
 104  1520.967
 105  1529.895
 106  1448.096
 107  1441.07
 108  1360.859
 109  1408.383
 110  1370.495
 111  1323.877
 112  1384.739
 113  1483.39
 114  1572.977
 115  1425.459
 116  1401.424
 117  1355.943
 118  1375.157
 119  1543.861
 120  1509.835
 121  1484.815
 122  1488.929
 123  1436.497
 124  1329.826
 125  1344.182
 126  1328.938
 127  1452.192
 128  1510.805
 129  1441.297
 130  1400.795
 131  1396.01
 132  1439.914
 133  1489.551
 134  1491.877
 135  1524.216
 136  1530.113
 137  1573.877
 138  1406.208
 139  1409.173
 140  1407.611
 141  1407.429
 142  1353.045
 143  1368.908
 144  1480.882
 145  1525.999
 146  1581.322
 147  1516.345
 148  1556.797
 149  1464.693
 150  1467.652
 151  1341.891
 152  1339.664
 153  1494.774
 154  1508.841
 155  1388.73
 156  1372.322
 157  1337.872
 158  1337.343
 159  1434.156
 160  1400.402
 161  1394.549
 162  1532.722
 163  1453.848
 164  1533.828
 165  1431.466
 166  1244.957
 167  1286.675
 168  1371.439
 169  1398.216
 170  1435.459
 171  1469.713
 172  1513.107
 173  1461.63
 174  1396.163
 175  1358.362
 176  1413.162
 177  1438.104
 178  1453.098
 179  1439.941
 180  1362.463
 181  1376.939
 182  1393.678
 183  1426.449
 184  1430.744
 185  1473.572
 186  1469.519
 187  1491.055
 188  1461.672
 189  1395.011
 190  1367.552
 191  1443.78
 192  1395.229
 193  1346.122
 194  1428.206
 195  1419
 196  1529.935
 197  1580.662
 198  1638.573
 199  1473.934
 200  1428.273
 201  1508.124
 202  1461.26
 203  1537.684
 204  1600.842
 205  1623.562
 206  1447.412
 207  1416.075
 208  1466.719
 209  1461.101
 210  1468.885
 211  1592.812
 212  1654.318
 213  1542.712
 214  1441.41
 215  1499.791
 216  1465.085
 217  1380.688
 218  1426.988
 219  1420.103
 220  1385.806
 221  1435.026
 222  1349.226
 223  1247.584
 224  1332.851
 225  1339.418
 226  1424.207
 227  1393.567
 228  1394.707
 229  1462.243
 230  1401.602
 231  1397.302
 232  1383.787
 233  1457.375
 234  1328.828
 235  1274.512
 236  1319.494
 237  1365.301
 238  1281.048
 239  1360.341
 240  1376.673
 241  1382.869
 242  1353.607
 243  1326.051
 244  1371.684
 245  1481.858
 246  1525.235
 247  1576.646
 248  1439.189
 249  1325.187
 250  1381.866
 251  1359.364
 252  1412.291
 253  1446.242
 254  1418.422
 255  1399.302
 256  1385.037
 257  1416.531
 258  1488.177
 259  1495.187
 260  1280.309
 261  1343.587
 262  1395.493
 263  1452.619
 264  1571.917
 265  1509.119
 266  1333.502
 267  1359.12
 268  1439.604
 269  1437.139
 270  1327.535
 271  1465.078
 272  1474.64
 273  1412.12
 274  1381.784
 275  1382.767
 276  1290.491
 277  1431.894
 278  1510.7
 279  1468.476
 280  1346.154
 281  1256.997
 282  1293.3
 283  1383.378
 284  1442.183
 285  1320
 286  1430.785
 287  1370.364
 288  1353.335
 289  1411.752
 290  1410.625
 291  1324.671
 292  1358.754
 293  1555.815
 294  1517.388
 295  1514.126
 296  1523.406
 297  1431.706
 298  1467.579
 299  1541.968
 300  1545.09
 301  1475.849
 302  1445.525
 303  1435.831
 304  1428.447
 305  1373.115
 306  1379.89
 307  1448.76
 308  1453.705
 309  1558.704
 310  1529.185
 311  1457.816
 312  1432.029
 313  1436.991
 314  1508.591
 315  1656.469
 316  1676.891
 317  1708.107
 318  1730.149
 319  1574.555
 320  1374.041
 321  1340.996
 322  1348.387
 323  1379.677
 324  1391.101
 325  1478.382
 326  1562.209
 327  1553.551
 328  1483.266
 329  1432.971
 330  1499.64
 331  1506.848
 332  1532.42
 333  1397.841
 334  1493.388
 335  1499.228
 336  1535.568
 337  1492.574
 338  1439.381
 339  1430.03
 340  1446.726
 341  1516.306
 342  1580.749
 343  1526.757
 344  1494.263
 345  1546.911
 346  1480.609
 347  1417.042
 348  1414.576
 349  1482.865
 350  1327.811
 351  1352.956
 352  1345.457
 353  1371.09
 354  1417.278
 355  1422.697
 356  1499.309
 357  1502.779
 358  1450.889
 359  1376.27
 360  1457.781
 361  1456.193
 362  1337.817
 363  1382.161
 364  1385.96
 365  1310.947
 366  1308.277
 367  1412.145
 368  1344.686
 369  1340.135
 370  1490.397
 371  1488.612
 372  1294.098
 373  1303.339
 374  1422.978
 375  1500.766
 376  1463.671
 377  1454.7
 378  1467.262
 379  1464.604
 380  1428.903
 381  1393.338
 382  1420.013
 383  1373.351
 384  1448.46
 385  1487.426
 386  1368.697
 387  1332.625
 388  1295.831
 389  1338.212
 390  1315.867
 391  1369.565
 392  1349.681
 393  1364.508
 394  1428.441
 395  1443.604
 396  1478.622
 397  1474.308
 398  1526.172
 399  1486.464
 400  1508.069
 401  1475.059
 402  1509.084
 403  1498.616
 404  1465.417
 405  1391.288
 406  1427.894
 407  1471.005
 408  1476.813
 409  1545.177
 410  1485.585
 411  1390.177
 412  1369.98
 413  1387.22
 414  1455.358
 415  1341.255
 416  1435.475
 417  1405.28
 418  1400.921
 419  1388.56
 420  1354.175
 421  1336.08
 422  1341.899
 423  1415.538
 424  1575.871
 425  1583.448
 426  1507.491
 427  1345.682
 428  1325.745
 429  1433.497
 430  1395.124
 431  1316.306
 432  1378.221
 433  1396.63
 434  1463.561
 435  1440.592
 436  1443.764
 437  1518.662
 438  1464.336
 439  1402.052
 440  1346.378
 441  1354.021
 442  1423.7
 443  1489.968
 444  1487.632
 445  1452.578
 446  1468.66
 447  1488.776
 448  1395.385
 449  1318.503
 450  1406.414
 451  1388.033
 452  1445.102
 453  1373.762
 454  1286.53
 455  1303.834
 456  1284.93
 457  1348.789
 458  1385.403
 459  1417.037
 460  1417.702
 461  1455.577
 462  1370.236
 463  1293.118
 464  1324.629
 465  1448.704
 466  1430.715
 467  1343.008
 468  1505.199
 469  1444.044
 470  1295.78
 471  1393.321
 472  1407.142
 473  1433.06
 474  1451.946
 475  1427.534
 476  1455.143
 477  1463.396
 478  1490.722
 479  1497.557
 480  1320.484
 481  1267.903
 482  1380.596
 483  1398.107
 484  1527.426
 485  1474.905
 486  1409.743
 487  1405.296
 488  1341.503
 489  1417.432
 490  1394.515
 491  1487.155
 492  1533.314
 493  1543.856
 494  1364.448
 495  1437.32
 496  1351.857
 497  1383.415
 498  1394.733
 499  1404.797
 500  1360.693
 501  1265.655
 502  1347.019
 503  1319.227
 504  1398.034
 505  1325.403
 506  1497.566
 507  1529.037
 508  1522.234
 509  1443.253
 510  1285.359
 511  1268.982
