# Input file       =  1197741965.100548_cleaned.dat
# Candidate        =  PSR_0332+5434
# Telescope        =  AR
# Epoch_topo       =  58106.754445608196
# Epoch_bary       =  N/A
# T_sample         =  0.002
# Data Folded      =  7340032
# Data Avg         =  0.132132425620511
# Data StdDev      =  3.8758233240583  
# Profile Bins     =  512
# Profile Avg      =  1894.24439380542 
# Profile StdDev   =  464.064095049391 
# Reduced chi-sqr  =  0.656
# Prob(Noise)      <  1   (~0.0 sigma)
# P_topo (ms)      =  714.544607792371  +/- 0.000201
# P'_topo (s/s)    =  -0                +/- 1.06e-10
# P''_topo (s/s^2) =  0                 +/- 4.68e-14
# P_bary (ms)      =  N/A
# P'_bary (s/s)    =  N/A
# P''_bary (s/s^2) =  N/A
# P_orb (s)        =  N/A
# asin(i)/c (s)    =  N/A
# eccentricity     =  N/A
# w (rad)          =  N/A
# T_peri           =  N/A
######################################################
   0  2122.618
   1  2211.569
   2  2420.04
   3  2195.988
   4  1902.15
   5  2175.688
   6  1959.841
   7  2340.636
   8  2434.471
   9  2207.635
  10  1993.452
  11  1864.121
  12  1965.065
  13  2081.902
  14  1727.666
  15  1942.491
  16  1796.303
  17  2074.385
  18  1958.493
  19  1856.245
  20  1513.683
  21  2057.152
  22  2226.704
  23  2108.067
  24  2086.385
  25  1845.025
  26  1770.12
  27  1948.885
  28  2054.178
  29  1914.251
  30  1826.992
  31  1990.264
  32  1976.46
  33  2103.829
  34  2324.426
  35  1870.254
  36  2049.211
  37  2094.491
  38  1903.556
  39  1927.704
  40  2129.733
  41  2260.532
  42  2098.069
  43  1765.467
  44  1638.514
  45  1890.555
  46  2045.157
  47  1912.92
  48  1704.609
  49  1896.329
  50  1897.382
  51  1916.359
  52  1999.601
  53  1444.305
  54  1230.289
  55  1097.179
  56  1400.536
  57  1314.648
  58  1412.654
  59  1514.81
  60  1464.875
  61  1621.881
  62  1606.848
  63  1586.97
  64  1880.151
  65  1534.154
  66  1156.967
  67  1257.188
  68  1235.099
  69  1447.28
  70  1955.753
  71  2125.188
  72  1999.163
  73  2286.093
  74  2048.755
  75  1625.232
  76  1595.169
  77  1796.219
  78  1882.103
  79  1994.237
  80  2186.386
  81  2299.698
  82  1954.523
  83  1792.517
  84  1625.452
  85  1812.986
  86  1825.934
  87  1817.913
  88  1837.656
  89  1863.797
  90  1745.193
  91  1628.855
  92  1687.533
  93  1744.094
  94  1897.254
  95  1982.398
  96  1798.733
  97  1965.831
  98  2066.435
  99  1911.128
 100  1997.557
 101  2102.92
 102  2124.728
 103  2050.104
 104  1927.267
 105  1885.416
 106  1410.156
 107  1659.583
 108  2174.971
 109  1804.799
 110  1627.331
 111  1880.471
 112  1824.545
 113  1833.373
 114  1875.518
 115  1816.093
 116  1956.45
 117  2079.945
 118  1943.555
 119  2059.445
 120  1835.487
 121  1813.18
 122  1753.096
 123  2025.583
 124  2413.385
 125  2056.611
 126  1471.127
 127  1613.248
 128  1880.309
 129  1969.845
 130  2070.932
 131  1706.523
 132  1602.666
 133  1621.065
 134  1881.381
 135  2037.307
 136  1807.355
 137  1499.014
 138  1849.933
 139  1664.136
 140  1711.096
 141  1980.415
 142  1819.997
 143  2077.248
 144  2451.944
 145  2112.808
 146  2076.724
 147  1789.371
 148  1825.408
 149  1922.871
 150  2013.245
 151  2295.321
 152  2085.756
 153  1818.068
 154  1754.492
 155  1730.054
 156  1902.726
 157  1973.47
 158  1998.183
 159  2066.149
 160  1754.641
 161  1736.639
 162  1478.042
 163  1905.848
 164  2043.199
 165  1988.475
 166  1996.538
 167  1737.205
 168  1708.002
 169  1403.223
 170  1435.576
 171  1719.913
 172  1524.876
 173  1539.203
 174  1832.07
 175  1972.812
 176  1489.603
 177  1517.621
 178  1769.607
 179  1978.532
 180  1848.124
 181  1841.465
 182  1935.383
 183  1613.295
 184  1614.733
 185  1841.917
 186  1881.929
 187  2011.331
 188  2291.05
 189  2105.013
 190  1582.165
 191  1711.392
 192  1656.525
 193  1596.615
 194  1348.335
 195  1609.368
 196  1783.915
 197  1950.873
 198  2231.504
 199  1713.828
 200  1899.117
 201  1577.241
 202  1558.817
 203  1551.481
 204  1397.31
 205  1658.596
 206  1714.126
 207  1748.882
 208  1760.215
 209  1696.047
 210  1467.719
 211  1494.937
 212  1699.564
 213  1942.87
 214  1948.561
 215  1897.688
 216  1617.601
 217  1807.742
 218  2098.943
 219  1946.929
 220  2112.138
 221  2058.946
 222  2033.687
 223  1889.781
 224  2164.053
 225  2342.317
 226  2395.096
 227  2347.273
 228  2146.93
 229  2173.199
 230  2090.989
 231  1788.572
 232  1965.802
 233  1864.358
 234  2068.207
 235  1967.095
 236  1600.31
 237  1794.902
 238  1865.014
 239  1963.43
 240  1872.539
 241  1803.671
 242  2009.203
 243  1862.504
 244  1838.191
 245  1734.409
 246  1944.941
 247  1928.529
 248  2255.23
 249  2066.345
 250  1731.468
 251  1733.993
 252  1785.342
 253  1533.53
 254  1860.489
 255  1676.298
 256  1970.654
 257  2158.315
 258  1867.576
 259  1572.455
 260  1793.194
 261  2083.194
 262  1777.179
 263  1793.089
 264  1836.817
 265  1872.524
 266  1702.631
 267  1806.388
 268  1928.187
 269  1535.551
 270  1695.745
 271  1868.718
 272  1555.741
 273  1662.815
 274  1666.423
 275  1429.94
 276  1751.006
 277  1941.937
 278  1672.672
 279  1621.415
 280  2004.811
 281  1840.627
 282  1855.075
 283  1790.384
 284  1593.593
 285  1462.694
 286  1633.424
 287  1468.949
 288  1666.495
 289  1817.833
 290  1875.07
 291  1270.14
 292  1535.493
 293  1743.834
 294  1663.799
 295  1699.015
 296  1620.626
 297  1699.458
 298  1732.697
 299  1534.763
 300  2036.29
 301  1934.548
 302  1855.12
 303  1797.036
 304  1730.839
 305  2116.162
 306  2443.411
 307  2493.83
 308  2351.384
 309  2374.626
 310  2727.9
 311  2981.784
 312  3451.006
 313  3326.031
 314  2656.817
 315  2339.951
 316  2063.644
 317  1901.257
 318  2020.818
 319  2588.026
 320  2386.437
 321  2342.533
 322  2100.23
 323  1986.596
 324  1993.111
 325  2076.933
 326  2051.846
 327  2483.171
 328  2289.162
 329  1971.967
 330  1831.515
 331  1708.447
 332  2030.373
 333  2105.859
 334  2434.931
 335  2086.669
 336  2001.317
 337  1693.558
 338  1439.997
 339  1585.486
 340  1968.732
 341  1919.071
 342  2231.252
 343  2496.226
 344  2054.602
 345  1797.706
 346  1829.97
 347  1505.128
 348  1622.374
 349  1411.055
 350  1473.74
 351  1529.824
 352  1549.154
 353  1732.387
 354  1783.823
 355  1884.882
 356  1945.895
 357  1493.231
 358  1630.513
 359  1488.19
 360  2005.622
 361  2366.167
 362  2308.293
 363  2259.543
 364  2135.247
 365  1779.023
 366  1707.925
 367  2202.032
 368  2371.601
 369  2172.657
 370  2180.382
 371  1975.589
 372  2024.962
 373  1961.039
 374  1828.141
 375  1820.161
 376  2153.22
 377  2319.834
 378  2000.048
 379  1919.53
 380  1827.307
 381  1710.555
 382  1983.899
 383  1997.152
 384  2149.302
 385  2297.208
 386  2234.742
 387  2032.361
 388  1698.361
 389  1913.33
 390  1835.245
 391  1829.767
 392  2240.833
 393  2121.163
 394  1761.436
 395  1907.4
 396  2004.651
 397  2036.58
 398  1948.479
 399  2102.786
 400  1991.572
 401  2058.956
 402  2080.75
 403  1825.785
 404  1716.47
 405  1949.838
 406  2008.758
 407  1954.132
 408  1781.945
 409  1644.517
 410  1865.409
 411  2146.984
 412  1789.668
 413  1569.682
 414  1697.796
 415  1914.745
 416  1575.626
 417  1754.802
 418  1776.687
 419  2034.891
 420  1768.867
 421  1618.788
 422  1683.739
 423  1956.96
 424  1930.35
 425  1809.792
 426  2156.187
 427  1878.934
 428  1745.333
 429  1300.521
 430  1368.313
 431  1540.919
 432  1653.211
 433  1988.64
 434  1704.207
 435  2081.494
 436  2041.413
 437  1957.507
 438  2157.514
 439  2124.079
 440  1894.59
 441  1637.784
 442  1838.442
 443  2152.488
 444  2245.415
 445  2181.483
 446  2108.767
 447  1883.192
 448  1719.657
 449  1655.42
 450  2021.514
 451  2093.725
 452  2061.477
 453  1871.28
 454  1615.791
 455  1494.366
 456  1706.717
 457  1955.905
 458  1941.257
 459  1980.687
 460  2097.926
 461  1738.668
 462  1592.08
 463  1935.071
 464  1947.133
 465  1739.098
 466  1703.202
 467  1746.31
 468  1967.352
 469  2282.784
 470  1695.2
 471  1783.372
 472  1715.992
 473  1739.286
 474  1599.306
 475  1905.557
 476  2045.635
 477  1937.769
 478  2192.604
 479  2213.672
 480  1923.739
 481  1854.751
 482  1743.534
 483  1847.618
 484  1973.423
 485  1825.734
 486  1671.139
 487  2088.516
 488  2118.221
 489  2106.113
 490  2142.328
 491  2418.74
 492  2386.899
 493  2148.299
 494  1823.334
 495  1750.043
 496  1867.05
 497  1926.536
 498  2026.809
 499  2062.938
 500  2201.635
 501  2195.8
 502  1491.925
 503  1777.599
 504  1794.173
 505  1879.856
 506  2088.74
 507  2193.814
 508  2130.073
 509  1974.681
 510  2280.532
 511  2158.9
