# Input file       =  1197139048.114253_cleaned.dat
# Candidate        =  PSR_0332+5434
# Telescope        =  AR
# Epoch_topo       =  58099.776239748302
# Epoch_bary       =  N/A
# T_sample         =  0.002
# Data Folded      =  7340032
# Data Avg         =  0.0609373829851998
# Data StdDev      =  1.00019379598268 
# Profile Bins     =  512
# Profile Avg      =  873.444865152667 
# Profile StdDev   =  119.75624015821  
# Reduced chi-sqr  =  0.906
# Prob(Noise)      <  0.936   (~0.0 sigma)
# P_topo (ms)      =  714.537709130156  +/- 0.000357
# P'_topo (s/s)    =  -0                +/- 1.88e-10
# P''_topo (s/s^2) =  0                 +/- 8.31e-14
# P_bary (ms)      =  N/A
# P'_bary (s/s)    =  N/A
# P''_bary (s/s^2) =  N/A
# P_orb (s)        =  N/A
# asin(i)/c (s)    =  N/A
# eccentricity     =  N/A
# w (rad)          =  N/A
# T_peri           =  N/A
######################################################
   0  1291.072
   1  1262.542
   2  1162.105
   3  1069.114
   4  966.3621
   5  878.2316
   6  932.9904
   7  885.6321
   8  950.3926
   9  873.565
  10  806.556
  11  996.0703
  12  963.074
  13  833.8354
  14  1033.652
  15  1166.261
  16  1002.589
  17  927.2263
  18  966.7668
  19  904.9977
  20  932.9285
  21  1019.251
  22  874.7277
  23  796.6618
  24  716.8953
  25  815.809
  26  880.9973
  27  824.7954
  28  811.9849
  29  831.9471
  30  865.4263
  31  984.5613
  32  935.9973
  33  938.7473
  34  914.5453
  35  797.8896
  36  864.8021
  37  917.2611
  38  853.2454
  39  890.7588
  40  875.0485
  41  923.7305
  42  893.5162
  43  811.4532
  44  838.6895
  45  894.9355
  46  858.5397
  47  860.8369
  48  847.0279
  49  855.785
  50  964.5033
  51  897.2258
  52  799.3004
  53  677.7597
  54  682.0612
  55  840.6346
  56  800.7739
  57  903.4838
  58  886.1449
  59  859.1058
  60  733.3101
  61  795.0853
  62  919.4173
  63  988.7272
  64  849.6951
  65  837.2771
  66  903.4507
  67  843.8945
  68  739.9744
  69  787.5352
  70  735.8118
  71  721.918
  72  698.5594
  73  843.764
  74  929.6585
  75  841.2757
  76  862.8822
  77  840.5087
  78  772.6309
  79  794.0417
  80  859.3979
  81  837.8009
  82  837.5267
  83  813.8091
  84  805.7659
  85  709.962
  86  731.9488
  87  731.121
  88  811.3408
  89  809.0633
  90  909.2903
  91  917.2268
  92  870.9239
  93  838.2299
  94  825.827
  95  933.4836
  96  767.3019
  97  779.6067
  98  744.999
  99  762.0032
 100  834.3816
 101  813.5129
 102  799.6748
 103  891.0048
 104  818.8541
 105  795.4681
 106  772.6135
 107  901.0164
 108  882.0407
 109  783.6071
 110  905.2707
 111  884.4257
 112  723.2549
 113  757.3133
 114  811.6681
 115  760.4164
 116  692.1646
 117  789.5943
 118  871.2248
 119  929.2268
 120  788.7694
 121  852.7828
 122  886.0011
 123  869.2775
 124  901.1769
 125  815.3267
 126  748.9045
 127  739.6729
 128  805.1364
 129  863.1073
 130  872.1914
 131  967.1123
 132  1045.712
 133  982.5848
 134  892.2236
 135  860.7714
 136  907.624
 137  862.1561
 138  852.3657
 139  757.4143
 140  703.8577
 141  882.1371
 142  825.8968
 143  819.4426
 144  800.1077
 145  769.942
 146  803.3644
 147  789.2196
 148  922.2616
 149  907.8322
 150  853.0262
 151  889.7935
 152  908.8263
 153  864.1316
 154  863.3162
 155  820.068
 156  751.3845
 157  825.9008
 158  949.7407
 159  890.0956
 160  910.4731
 161  807.8649
 162  821.2333
 163  766.5859
 164  760.9791
 165  900.8376
 166  966.2891
 167  991.3699
 168  913.8754
 169  888.0629
 170  845.0905
 171  917.603
 172  811.5659
 173  853.7081
 174  842.6943
 175  872.0592
 176  850.8463
 177  813.3285
 178  880.6241
 179  885.0732
 180  874.4714
 181  962.9416
 182  825.9813
 183  804.9806
 184  865.9592
 185  944.6504
 186  909.5388
 187  828.2708
 188  806.3525
 189  776.815
 190  788.0787
 191  978.4996
 192  991.8409
 193  985.2265
 194  995.8297
 195  900.5556
 196  937.5748
 197  846.4053
 198  862.8636
 199  893.925
 200  891.5026
 201  916.774
 202  885.5338
 203  903.4689
 204  843.1504
 205  785.3539
 206  774.0947
 207  727.9005
 208  722.4603
 209  808.4075
 210  889.2562
 211  834.4413
 212  837.6135
 213  782.8171
 214  845.2834
 215  896.8714
 216  859.2018
 217  856.4958
 218  821.2816
 219  847.6095
 220  908.1106
 221  875.6781
 222  904.0848
 223  978.6076
 224  990.5285
 225  816.2007
 226  799.5823
 227  908.5463
 228  994.8167
 229  907.8517
 230  883.5404
 231  896.7232
 232  983.6052
 233  949.9425
 234  933.8961
 235  879.017
 236  873.4651
 237  869.713
 238  819.7307
 239  798.9166
 240  798.1069
 241  793.1699
 242  827.9083
 243  843.2985
 244  856.8668
 245  757.5458
 246  843.8282
 247  782.5913
 248  819.948
 249  816.8967
 250  789.2209
 251  940.3735
 252  918.1689
 253  883.1229
 254  830.4023
 255  911.941
 256  881.6551
 257  977.8703
 258  885.5319
 259  921.4714
 260  778.184
 261  749.0642
 262  811.0949
 263  991.5114
 264  1024.673
 265  949.4979
 266  866.7343
 267  846.6634
 268  754.2659
 269  814.4918
 270  847.4396
 271  903.944
 272  780.4203
 273  884.7634
 274  842.0156
 275  901.5557
 276  899.0072
 277  921.7052
 278  781.2366
 279  819.4826
 280  754.5051
 281  808.8065
 282  890.79
 283  780.8938
 284  708.984
 285  816.0634
 286  848.6918
 287  781.3632
 288  792.1391
 289  942.4601
 290  842.8134
 291  694.9305
 292  769.7035
 293  816.5259
 294  851.0018
 295  794.6656
 296  913.4946
 297  958.3368
 298  893.8738
 299  853.8329
 300  863.1027
 301  789.7649
 302  907.5103
 303  891.0534
 304  889.8658
 305  942.8802
 306  1045.286
 307  1070.066
 308  914.78
 309  829.9166
 310  867.3911
 311  835.6279
 312  872.5399
 313  875.0993
 314  994.8421
 315  984.6319
 316  962.8236
 317  994.8022
 318  934.2969
 319  858.438
 320  822.1133
 321  844.6392
 322  832.5909
 323  842.7648
 324  991.1678
 325  882.7188
 326  751.6664
 327  764.3902
 328  788.5316
 329  777.5087
 330  793.9043
 331  945.1829
 332  864.4144
 333  926.9372
 334  910.1703
 335  942.2642
 336  1005.476
 337  903.8992
 338  898.839
 339  862.1578
 340  815.2732
 341  897.3887
 342  1000.667
 343  1025.956
 344  953.9548
 345  956.1211
 346  995.0338
 347  992.2315
 348  1103.438
 349  967.71
 350  890.0031
 351  936.0114
 352  1050.389
 353  1057.542
 354  923.8484
 355  892.9498
 356  908.2417
 357  847.3809
 358  814.354
 359  840.4863
 360  939.7934
 361  924.6924
 362  926.2914
 363  903.6312
 364  915.3227
 365  936.5959
 366  940.776
 367  950.5651
 368  886.5566
 369  840.1723
 370  848.9651
 371  899.3224
 372  955.9235
 373  870.4265
 374  818.4781
 375  839.8868
 376  843.2454
 377  876.2648
 378  874.8642
 379  847.0657
 380  888.6584
 381  945.565
 382  1025.496
 383  1050.072
 384  1002.344
 385  846.3571
 386  858.6346
 387  895.6492
 388  914.8774
 389  892.9213
 390  936.0179
 391  1002.224
 392  938.5686
 393  909.0509
 394  863.1252
 395  904.2753
 396  951.4493
 397  905.9234
 398  857.1615
 399  870.2623
 400  1038.532
 401  969.1744
 402  883.6282
 403  894.9589
 404  902.8796
 405  888.9909
 406  911.1292
 407  795.6583
 408  825.3242
 409  949.6117
 410  871.0844
 411  842.4301
 412  898.4227
 413  812.6549
 414  931.1151
 415  874.7032
 416  809.8746
 417  853.0614
 418  944.4209
 419  950.0652
 420  856.6884
 421  860.0676
 422  813.1924
 423  865.5807
 424  830.5772
 425  842.5364
 426  801.8128
 427  901.759
 428  824.2881
 429  802.3087
 430  816.9434
 431  772.8348
 432  842.2396
 433  845.6771
 434  830.9953
 435  790.5197
 436  760.674
 437  825.1498
 438  861.5493
 439  905.5607
 440  818.7751
 441  674.7135
 442  734.5649
 443  926.5535
 444  898.2295
 445  848.5369
 446  797.7712
 447  848.5129
 448  889.3551
 449  880.0041
 450  878.2079
 451  958.343
 452  998.9979
 453  890.9559
 454  842.0152
 455  835.691
 456  850.8055
 457  854.8926
 458  903.8458
 459  947.1693
 460  903.8279
 461  892.5944
 462  891.6939
 463  852.7122
 464  905.0316
 465  941.5772
 466  829.5336
 467  817.7114
 468  916.1279
 469  903.3876
 470  1012.826
 471  949.0366
 472  818.5166
 473  908.4096
 474  823.3309
 475  859.6707
 476  903.1508
 477  905.3323
 478  846.6978
 479  785.4171
 480  775.3287
 481  813.4022
 482  773.0487
 483  763.4684
 484  833.3004
 485  867.2708
 486  774.5308
 487  732.5206
 488  805.7323
 489  889.8003
 490  911.4635
 491  983.2592
 492  955.5084
 493  924.617
 494  894.1509
 495  916.9584
 496  841.1862
 497  942.5308
 498  945.887
 499  915.2742
 500  909.2737
 501  945.8102
 502  793.4246
 503  909.1771
 504  932.7307
 505  925.3964
 506  847.4913
 507  852.7119
 508  912.2673
 509  1059.36
 510  1142.666
 511  1307.706
