# Input file       =  1197052844.123184_cleaned.dat
# Candidate        =  PSR_0332+5434
# Telescope        =  AR
# Epoch_topo       =  58098.778508370182
# Epoch_bary       =  N/A
# T_sample         =  0.002
# Data Folded      =  7340032
# Data Avg         =  0.0574370177729787
# Data StdDev      =  1.00018148777514 
# Profile Bins     =  512
# Profile Avg      =  822.771151502436 
# Profile StdDev   =  119.754766459149 
# Reduced chi-sqr  =  0.744
# Prob(Noise)      <  1   (~0.0 sigma)
# P_topo (ms)      =  714.536701950104  +/- 7.68e-05
# P'_topo (s/s)    =  -0                +/- 4.05e-11
# P''_topo (s/s^2) =  0                 +/- 1.79e-14
# P_bary (ms)      =  N/A
# P'_bary (s/s)    =  N/A
# P''_bary (s/s^2) =  N/A
# P_orb (s)        =  N/A
# asin(i)/c (s)    =  N/A
# eccentricity     =  N/A
# w (rad)          =  N/A
# T_peri           =  N/A
######################################################
   0  1045.101
   1  1040.041
   2  867.2963
   3  820.7842
   4  789.4266
   5  669.0184
   6  681.9567
   7  824.1345
   8  854.9467
   9  710.9639
  10  675.9018
  11  817.1909
  12  873.3297
  13  857.9734
  14  864.6205
  15  897.2199
  16  913.6495
  17  842.076
  18  829.4182
  19  830.0279
  20  808.5928
  21  807.9313
  22  851.1584
  23  817.4895
  24  755.0999
  25  781.6881
  26  767.5328
  27  794.2267
  28  781.6641
  29  830.3635
  30  819.9028
  31  852.0942
  32  801.0421
  33  799.9701
  34  742.0577
  35  838.5433
  36  854.7401
  37  743.4963
  38  749.737
  39  717.6783
  40  828.016
  41  834.6686
  42  896.0471
  43  961.3264
  44  907.5391
  45  826.1266
  46  775.0159
  47  887.535
  48  807.9952
  49  818.0246
  50  955.6399
  51  1015.419
  52  953.4611
  53  796.6188
  54  768.7455
  55  672.7213
  56  915.0151
  57  905.874
  58  907.2632
  59  851.8716
  60  823.8842
  61  869.0403
  62  826.104
  63  818.6806
  64  746.5101
  65  824.939
  66  798.4587
  67  786.702
  68  772.5472
  69  807.4754
  70  794.1283
  71  783.8897
  72  881.1022
  73  843.0601
  74  785.6902
  75  763.5371
  76  726.7953
  77  696.6234
  78  765.2544
  79  702.5424
  80  713.0026
  81  830.9073
  82  771.9733
  83  823.4236
  84  827.4787
  85  938.0784
  86  869.2887
  87  806.1905
  88  880.824
  89  891.7106
  90  904.5695
  91  861.5211
  92  950.5416
  93  937.705
  94  875.2577
  95  831.2235
  96  823.2828
  97  910.4358
  98  888.1035
  99  883.4258
 100  893.2831
 101  843.303
 102  803.9529
 103  824.1573
 104  853.0912
 105  804.2499
 106  805.0515
 107  838.9197
 108  864.325
 109  784.7506
 110  820.7145
 111  829.9981
 112  910.858
 113  860.712
 114  893.8504
 115  878.7964
 116  910.6915
 117  1031.994
 118  1000.586
 119  910.7632
 120  898.5311
 121  985.7933
 122  1000.241
 123  953.0611
 124  889.0594
 125  865.0936
 126  795.4898
 127  849.0054
 128  911.7006
 129  927.3227
 130  855.6254
 131  815.9038
 132  810.3505
 133  797.6354
 134  833.8284
 135  804.6571
 136  892.3318
 137  919.3255
 138  943.1842
 139  804.3273
 140  736.0773
 141  825.1536
 142  816.2044
 143  878.0974
 144  968.2353
 145  837.959
 146  710.1102
 147  782.3327
 148  738.2901
 149  840.9431
 150  863.4568
 151  874.9592
 152  830.1735
 153  779.0256
 154  771.3558
 155  774.4935
 156  798.8967
 157  829.3316
 158  775.9618
 159  746.3407
 160  847.5447
 161  971.5446
 162  935.3103
 163  815.0288
 164  812.571
 165  897.1831
 166  880.1924
 167  858.5558
 168  882.211
 169  817.9182
 170  861.4556
 171  811.3781
 172  855.2733
 173  863.4399
 174  952.0728
 175  993.0859
 176  989.4864
 177  918.0085
 178  845.2455
 179  871.8947
 180  902.9996
 181  805.0575
 182  778.3101
 183  861.1699
 184  780.3495
 185  716.4147
 186  756.6331
 187  710.784
 188  869.0668
 189  768.2372
 190  802.1298
 191  782.8402
 192  731.4689
 193  758.3375
 194  869.4337
 195  927.824
 196  857.4324
 197  778.4653
 198  812.8465
 199  853.3569
 200  970.0197
 201  897.0963
 202  922.6498
 203  842.5974
 204  795.5112
 205  763.8927
 206  833.2644
 207  785.7997
 208  837.2209
 209  877.9177
 210  951.3445
 211  751.4591
 212  738.9949
 213  800.488
 214  841.7576
 215  851.6784
 216  863.7014
 217  879.7213
 218  911.1049
 219  860.8869
 220  772.8356
 221  764.8405
 222  744.6281
 223  913.8859
 224  826.8671
 225  901.4071
 226  915.2087
 227  882.9676
 228  870.7519
 229  854.9438
 230  908.1674
 231  903.3989
 232  866.0484
 233  898.9378
 234  721.8402
 235  645.6547
 236  752.97
 237  925.7374
 238  978.7737
 239  849.2546
 240  785.2177
 241  736.6855
 242  731.7562
 243  789.7088
 244  886.132
 245  867.9614
 246  796.5824
 247  847.0393
 248  856.4697
 249  838.3454
 250  842.1082
 251  889.8051
 252  881.6176
 253  874.2336
 254  912.5471
 255  905.0101
 256  758.7534
 257  799.2102
 258  933.6777
 259  838.7635
 260  931.2784
 261  898.2266
 262  833.2061
 263  749.4914
 264  814.6052
 265  820.8461
 266  751.3367
 267  751.2238
 268  834.3445
 269  931.9413
 270  861.6907
 271  838.7773
 272  813.2458
 273  836.2103
 274  799.745
 275  748.0616
 276  833.2557
 277  972.1564
 278  861.2634
 279  831.1575
 280  847.2946
 281  824.0823
 282  841.0166
 283  885.1224
 284  786.7269
 285  694.5303
 286  715.5498
 287  680.5587
 288  727.3785
 289  821.7593
 290  948.4365
 291  880.1063
 292  770.4232
 293  804.5701
 294  808.8114
 295  822.1656
 296  886.9034
 297  808.4523
 298  883.1942
 299  932.0107
 300  871.9282
 301  890.6749
 302  828.3663
 303  767.4537
 304  817.9088
 305  757.0536
 306  704.4918
 307  699.1132
 308  773.3311
 309  721.9456
 310  758.338
 311  787.7084
 312  842.851
 313  760.3681
 314  780.4606
 315  832.7609
 316  767.5616
 317  800.2462
 318  827.1035
 319  874.274
 320  831.8721
 321  681.9203
 322  717.5347
 323  746.3429
 324  826.1874
 325  775.8453
 326  861.2975
 327  858.6305
 328  815.8293
 329  829.1569
 330  926.851
 331  878.4145
 332  833.9581
 333  852.8319
 334  866.6633
 335  789.0059
 336  776.9482
 337  751.2597
 338  821.3973
 339  836.1866
 340  838.5278
 341  781.8781
 342  786.8698
 343  871.8116
 344  762.7086
 345  728.5398
 346  828.6208
 347  953.9855
 348  867.5135
 349  724.8643
 350  754.4033
 351  781.3626
 352  915.6929
 353  847.4693
 354  701.1768
 355  709.9302
 356  758.5527
 357  736.2792
 358  771.9193
 359  805.8877
 360  742.9501
 361  857.9467
 362  856.5791
 363  652.1118
 364  610.9114
 365  697.4771
 366  813.2776
 367  772.7847
 368  840.1141
 369  887.4119
 370  781.362
 371  801.0698
 372  736.1404
 373  760.9423
 374  769.1527
 375  829.3275
 376  885.3057
 377  745.4131
 378  589.2814
 379  650.611
 380  787.0306
 381  725.7139
 382  732.462
 383  766.6308
 384  788.4868
 385  844.6057
 386  802.7272
 387  767.878
 388  799.353
 389  886.0788
 390  845.1073
 391  842.1538
 392  805.8115
 393  745.6583
 394  757.6925
 395  779.69
 396  761.909
 397  847.4442
 398  880.0512
 399  828.8778
 400  775.061
 401  758.7861
 402  691.2851
 403  684.2283
 404  770.1882
 405  851.5442
 406  913.0635
 407  855.5281
 408  798.629
 409  818.894
 410  845.4421
 411  845.6624
 412  900.6658
 413  865.5709
 414  762.4704
 415  833.4928
 416  775.8384
 417  778.0847
 418  806.5812
 419  838.1099
 420  804.0786
 421  792.2701
 422  747.5964
 423  804.398
 424  828.7692
 425  824.074
 426  882.948
 427  870.8612
 428  718.8402
 429  669.8032
 430  731.1855
 431  779.3505
 432  768.0389
 433  765.4681
 434  797.5679
 435  730.8074
 436  681.2659
 437  759.6829
 438  770.1566
 439  706.5457
 440  728.3655
 441  812.1153
 442  889.0963
 443  873.9417
 444  810.9318
 445  670.9748
 446  756.535
 447  828.5925
 448  861.4824
 449  881.9791
 450  722.0408
 451  647.1838
 452  685.3452
 453  742.5279
 454  744.2571
 455  700.0566
 456  728.3405
 457  706.3169
 458  700.4822
 459  657.0089
 460  604.9731
 461  686.1795
 462  785.1415
 463  803.1865
 464  722.7979
 465  762.2407
 466  738.7659
 467  646.1214
 468  715.3161
 469  807.5028
 470  766.2065
 471  813.8534
 472  726.1241
 473  796.3271
 474  742.1279
 475  792.4681
 476  845.0425
 477  934.0255
 478  887.8342
 479  844.8386
 480  921.2706
 481  969.9053
 482  825.0427
 483  801.8575
 484  884.5154
 485  874.9645
 486  815.1688
 487  837.5077
 488  796.7698
 489  881.3515
 490  877.6091
 491  868.793
 492  885.6811
 493  919.3393
 494  970.5016
 495  920.7053
 496  862.2094
 497  834.8826
 498  911.6658
 499  879.1032
 500  828.4914
 501  850.47
 502  847.084
 503  790.4363
 504  768.7416
 505  904.0531
 506  882.486
 507  879.7772
 508  917.7684
 509  957.2644
 510  1024.161
 511  985.7703
