# Input file       =  1197842978.102469_cleaned.dat
# Candidate        =  PSR_0332+5434
# Telescope        =  AR
# Epoch_topo       =  58107.923577574875
# Epoch_bary       =  N/A
# T_sample         =  0.002
# Data Folded      =  7340032
# Data Avg         =  0.0940738871743503
# Data StdDev      =  3.48522035279033 
# Profile Bins     =  512
# Profile Avg      =  1348.80622192575 
# Profile StdDev   =  417.296015281691 
# Reduced chi-sqr  =  0.607
# Prob(Noise)      <  1   (~0.0 sigma)
# P_topo (ms)      =  714.546064258474  +/- 0.00212
# P'_topo (s/s)    =  -0                +/- 1.12e-09
# P''_topo (s/s^2) =  0                 +/- 4.94e-13
# P_bary (ms)      =  N/A
# P'_bary (s/s)    =  N/A
# P''_bary (s/s^2) =  N/A
# P_orb (s)        =  N/A
# asin(i)/c (s)    =  N/A
# eccentricity     =  N/A
# w (rad)          =  N/A
# T_peri           =  N/A
######################################################
   0  1825.07
   1  1672.51
   2  1892.045
   3  2053.394
   4  2035.566
   5  1846.625
   6  1751.383
   7  1584.14
   8  1328.254
   9  1181.043
  10  1380.668
  11  1121.989
  12  1027.809
  13  1381.149
  14  1275.868
  15  1079.311
  16  1556.627
  17  1229.516
  18  1238.806
  19  1424.434
  20  1643.329
  21  1247.298
  22  1198.574
  23  1274.803
  24  967.2689
  25  940.1552
  26  1335.62
  27  1751.961
  28  1523.768
  29  1381.191
  30  1327.824
  31  1093.786
  32  1288.959
  33  1501.336
  34  1484.71
  35  1642.698
  36  1401.755
  37  1442.609
  38  1591.221
  39  1614.151
  40  1756.284
  41  1827.751
  42  1352.679
  43  1271.31
  44  1303.272
  45  1076.15
  46  1241.929
  47  1207.31
  48  1280.356
  49  1348.888
  50  1479.065
  51  1301.128
  52  1236.16
  53  1336.029
  54  1414.3
  55  1611.155
  56  1888.984
  57  2123.061
  58  1622.724
  59  1663.19
  60  1863.095
  61  1421.092
  62  1237.946
  63  1322.28
  64  1646.358
  65  1967.196
  66  1944.713
  67  1649.269
  68  1771.722
  69  1796.083
  70  1654.166
  71  1540.149
  72  1364.754
  73  1406.051
  74  1722.255
  75  1652.962
  76  1508.289
  77  1403.557
  78  1168.587
  79  1018.313
  80  1539.814
  81  1588.699
  82  1606.161
  83  1805.972
  84  1580.536
  85  1370.641
  86  1206.617
  87  1102.448
  88  954.5347
  89  1253.281
  90  1405.115
  91  1088.318
  92  937.6973
  93  1620.022
  94  1515.842
  95  1362.324
  96  1572.163
  97  1319.338
  98  1287.953
  99  1665.927
 100  1914.928
 101  1643.204
 102  1559.189
 103  1551.154
 104  1402.019
 105  1418.61
 106  1380.936
 107  1605.395
 108  1624.174
 109  1848.536
 110  1789.055
 111  1671.423
 112  1344.639
 113  1332.29
 114  1571.815
 115  1532.348
 116  1719.557
 117  1587.088
 118  1334.821
 119  1170.141
 120  1197.826
 121  1238.975
 122  1282.787
 123  1169.17
 124  896.6641
 125  1088.108
 126  1299.738
 127  1301.64
 128  1471.256
 129  1500.963
 130  1336.977
 131  1329.698
 132  1301.539
 133  1588.443
 134  1282.416
 135  1010.159
 136  1272.094
 137  1416.401
 138  1367.463
 139  1273.63
 140  1440.476
 141  1344.116
 142  1267.819
 143  1339.585
 144  1484.338
 145  1347.63
 146  1356.809
 147  1444.832
 148  1546.987
 149  1639.171
 150  1558.33
 151  1314.396
 152  1165.189
 153  1171.926
 154  1155.992
 155  990.2833
 156  1390.955
 157  1383.753
 158  1098.935
 159  1199.258
 160  1077.193
 161  1246.714
 162  1118.675
 163  1089.376
 164  1240.724
 165  1226.118
 166  1078.945
 167  983.4197
 168  849.0692
 169  987.7924
 170  1110.553
 171  948.0488
 172  1004.67
 173  1052.838
 174  1253.715
 175  1481.578
 176  1375.353
 177  1349.229
 178  1296.037
 179  1187.937
 180  1236.28
 181  1152.798
 182  1070.45
 183  1305.733
 184  1449.859
 185  1248.326
 186  1397.274
 187  1354.956
 188  1204.199
 189  981.8199
 190  1186.101
 191  1026.147
 192  1076.814
 193  1463.07
 194  1180.947
 195  683.8298
 196  921.0428
 197  974.4213
 198  908.0149
 199  1005.784
 200  1221.878
 201  903.592
 202  540.067
 203  767.787
 204  1027.825
 205  935.4219
 206  1213.62
 207  1444.807
 208  1702.71
 209  1444.178
 210  1105.665
 211  1513.879
 212  1216.522
 213  1059.111
 214  1208.303
 215  1290.116
 216  1705.392
 217  1646.523
 218  1659.856
 219  1620.933
 220  1528.905
 221  1434.155
 222  1505.438
 223  1235.417
 224  1093.974
 225  1139.727
 226  1119.712
 227  1333.861
 228  1349.542
 229  1161.974
 230  1186.479
 231  1444.511
 232  1596.074
 233  1499.076
 234  1145.217
 235  993.5739
 236  1090.236
 237  1379.591
 238  1243.352
 239  1353.281
 240  1329.197
 241  1424.906
 242  1249.937
 243  1191.781
 244  1327.469
 245  1503.07
 246  1087.863
 247  1476.388
 248  1345.002
 249  925.8096
 250  1636.514
 251  1710.057
 252  1481.387
 253  1391.995
 254  1423.097
 255  1437.489
 256  1349.807
 257  1394.247
 258  1466.283
 259  1618.95
 260  1592.307
 261  1556.777
 262  1500.403
 263  1444.315
 264  1309.788
 265  1553.805
 266  1738.882
 267  1538.13
 268  1479.001
 269  1798.9
 270  1652.974
 271  1301.435
 272  1505.277
 273  1223.31
 274  1374.045
 275  1441.654
 276  1354.949
 277  1106.538
 278  1081.161
 279  1355.193
 280  1631.788
 281  1491.359
 282  1257.752
 283  1278.737
 284  1219.013
 285  1546.708
 286  1643.771
 287  1375.833
 288  1364.799
 289  1550.939
 290  1435.876
 291  1513.219
 292  1193.212
 293  1241.227
 294  1185.698
 295  1001.608
 296  1192.588
 297  1145.058
 298  1327.049
 299  1407.867
 300  1187.037
 301  1116.803
 302  1208.17
 303  1034.754
 304  977.6204
 305  1104.12
 306  1177.626
 307  1191.986
 308  1537.611
 309  1334.162
 310  1154.089
 311  1486.26
 312  1198.711
 313  1179.493
 314  1145.872
 315  1218.64
 316  1010.443
 317  1127.938
 318  1516.304
 319  1380.509
 320  1352.489
 321  1284.865
 322  1221.283
 323  1462.476
 324  1497.696
 325  1028.766
 326  1042.738
 327  886.509
 328  911.3452
 329  1172.697
 330  1323.258
 331  1441.775
 332  1659.349
 333  1645.926
 334  1441.293
 335  1099.101
 336  1153.003
 337  1086.024
 338  1036.425
 339  1009.658
 340  973.8926
 341  1205.725
 342  1382.911
 343  1716.383
 344  1687.845
 345  1304.227
 346  1191.704
 347  1620.224
 348  1684.731
 349  1478.915
 350  1364.771
 351  1291.707
 352  1048.914
 353  1261.94
 354  1649.388
 355  1275.074
 356  1130.352
 357  1047.799
 358  1116.034
 359  1239.802
 360  974.5763
 361  1069.911
 362  1184.196
 363  1075.265
 364  1301.891
 365  1275.622
 366  1601.999
 367  1388.784
 368  1290.492
 369  1456.053
 370  1736.245
 371  1509.253
 372  1250.361
 373  1497.619
 374  1544.53
 375  1193.404
 376  1320.436
 377  1138.078
 378  1256.288
 379  1339.093
 380  1586.026
 381  1617.156
 382  1531.706
 383  1221.534
 384  1315.883
 385  1208.557
 386  1562.114
 387  1508.818
 388  1649.306
 389  1608.964
 390  1523.105
 391  1629.709
 392  1563.858
 393  1677.15
 394  1708.218
 395  1339.371
 396  1178.876
 397  1536.575
 398  1403.096
 399  1712.419
 400  1431.748
 401  1264.076
 402  1316.096
 403  1468.568
 404  1420.185
 405  1279.837
 406  1353.768
 407  1473.459
 408  1192.707
 409  1282.498
 410  1591.724
 411  1569.809
 412  1748.242
 413  1638.905
 414  1383.049
 415  1480.102
 416  1390.874
 417  1502.447
 418  1242.225
 419  1131.81
 420  962.3108
 421  1209.077
 422  1514.65
 423  1189.913
 424  1189.022
 425  1412.593
 426  1460.287
 427  1244.388
 428  1233.89
 429  1480.755
 430  1829.619
 431  1654.497
 432  1793.264
 433  1603.626
 434  1297.169
 435  1196.359
 436  1354.494
 437  1379.343
 438  1380.275
 439  1338.671
 440  1311.138
 441  1275.106
 442  1231.328
 443  1257.406
 444  1333.222
 445  1158.644
 446  723.5856
 447  1032.739
 448  1196.383
 449  1446.774
 450  1308.544
 451  1538.552
 452  1515.278
 453  1289.968
 454  1305.171
 455  1089.15
 456  1297.972
 457  1384.723
 458  1459.642
 459  1531.11
 460  1524.875
 461  1423.494
 462  1362.482
 463  958.465
 464  1063.373
 465  1013.035
 466  861.8114
 467  1044.144
 468  1346.602
 469  1727.846
 470  1456.436
 471  1101.13
 472  1132.917
 473  1050.788
 474  1307.459
 475  1552.392
 476  1389.814
 477  1280.877
 478  1430.498
 479  1395.832
 480  1286.614
 481  1629.99
 482  1601.184
 483  1337.451
 484  1433.703
 485  1270.001
 486  1193.832
 487  1503.017
 488  1205.995
 489  1372.59
 490  1578.002
 491  1629.013
 492  1348.122
 493  1300.957
 494  1233.796
 495  1259.345
 496  1346.394
 497  1527.864
 498  1642.764
 499  1309.672
 500  1090.391
 501  1278.914
 502  1206.995
 503  1042.46
 504  1246.46
 505  1088.094
 506  894.359
 507  647.5496
 508  1165.778
 509  1317.93
 510  1365.94
 511  1509.324
