# Input file       =  1197038256.128744_cleaned.dat
# Candidate        =  PSR_0332+5434
# Telescope        =  AR
# Epoch_topo       =  58098.609665841941
# Epoch_bary       =  N/A
# T_sample         =  0.002
# Data Folded      =  7143424
# Data Avg         =  0.0969767872011389
# Data StdDev      =  1.00054722412869 
# Profile Bins     =  512
# Profile Avg      =  1352.96410218598 
# Profile StdDev   =  118.183221821343 
# Reduced chi-sqr  =  0.943
# Prob(Noise)      <  0.82   (~0.0 sigma)
# P_topo (ms)      =  714.536516373774  +/- 9.19e-05
# P'_topo (s/s)    =  -0                +/- 4.98e-11
# P''_topo (s/s^2) =  0                 +/- 2.26e-14
# P_bary (ms)      =  N/A
# P'_bary (s/s)    =  N/A
# P''_bary (s/s^2) =  N/A
# P_orb (s)        =  N/A
# asin(i)/c (s)    =  N/A
# eccentricity     =  N/A
# w (rad)          =  N/A
# T_peri           =  N/A
######################################################
   0  1405.978
   1  1391.57
   2  1388.531
   3  1497.13
   4  1327.363
   5  1252.722
   6  1321.065
   7  1389.448
   8  1410.486
   9  1341.371
  10  1496.711
  11  1488.596
  12  1329.534
  13  1310.979
  14  1258.161
  15  1200.167
  16  1272.528
  17  1440.644
  18  1498.25
  19  1437.962
  20  1376.162
  21  1375.453
  22  1348.745
  23  1351.212
  24  1293.085
  25  1345.022
  26  1283.664
  27  1425.504
  28  1407.544
  29  1379.007
  30  1289.696
  31  1325.161
  32  1366.394
  33  1407.662
  34  1419.603
  35  1325.704
  36  1433.388
  37  1459.04
  38  1387.888
  39  1351.141
  40  1393.71
  41  1388.865
  42  1323.657
  43  1382.27
  44  1380.224
  45  1331.266
  46  1419.813
  47  1425.841
  48  1385.354
  49  1339.088
  50  1300.145
  51  1319.361
  52  1340.746
  53  1367.623
  54  1397.629
  55  1362.125
  56  1417.005
  57  1375.513
  58  1307.339
  59  1286.655
  60  1366.742
  61  1345.654
  62  1285.105
  63  1266.207
  64  1289.207
  65  1338.407
  66  1370.461
  67  1283.281
  68  1238.037
  69  1172.829
  70  1173.805
  71  1185.087
  72  1225.393
  73  1240.26
  74  1257.599
  75  1336.987
  76  1277.631
  77  1400.159
  78  1455.61
  79  1406.453
  80  1348.467
  81  1446.625
  82  1421.741
  83  1359.525
  84  1356.207
  85  1375.645
  86  1334.904
  87  1338.209
  88  1341.494
  89  1416.429
  90  1371.289
  91  1308.657
  92  1360.235
  93  1446.538
  94  1443.37
  95  1367.545
  96  1339.438
  97  1274.716
  98  1283.04
  99  1361.943
 100  1500.409
 101  1453.66
 102  1400.717
 103  1372.044
 104  1406.58
 105  1370.278
 106  1274.173
 107  1288.719
 108  1258.839
 109  1372.999
 110  1260.136
 111  1302.172
 112  1424.983
 113  1421.063
 114  1325.403
 115  1411.7
 116  1420.15
 117  1472.036
 118  1371.952
 119  1261.929
 120  1356.702
 121  1359.758
 122  1350.443
 123  1330.969
 124  1401.541
 125  1340.953
 126  1328.431
 127  1318.612
 128  1201.707
 129  1296.677
 130  1321.778
 131  1306.365
 132  1422.507
 133  1351.683
 134  1470.688
 135  1370.769
 136  1274.882
 137  1385.633
 138  1441.36
 139  1365.061
 140  1321.34
 141  1306.708
 142  1513.045
 143  1454.519
 144  1406.258
 145  1360.186
 146  1306.005
 147  1174.345
 148  1231.057
 149  1380.866
 150  1358.114
 151  1415.286
 152  1481.104
 153  1380.081
 154  1306.308
 155  1192.211
 156  1199.381
 157  1236.359
 158  1322.964
 159  1312.759
 160  1301.034
 161  1354.62
 162  1381.672
 163  1300.206
 164  1279.566
 165  1445.743
 166  1382.974
 167  1448.776
 168  1305.284
 169  1240.459
 170  1322.649
 171  1251.031
 172  1210.634
 173  1307.426
 174  1359.937
 175  1296.685
 176  1365.147
 177  1396.647
 178  1394.562
 179  1298.167
 180  1251.176
 181  1311.055
 182  1436.331
 183  1443.826
 184  1326.502
 185  1267.451
 186  1382.157
 187  1353.54
 188  1286.376
 189  1372.935
 190  1443.557
 191  1438.382
 192  1440.504
 193  1388.03
 194  1379.981
 195  1403.398
 196  1479.603
 197  1440.961
 198  1296.895
 199  1329.644
 200  1372.217
 201  1345.942
 202  1341.153
 203  1357.498
 204  1364.959
 205  1330.706
 206  1313.734
 207  1356.525
 208  1369.575
 209  1484.353
 210  1529.634
 211  1476.22
 212  1393.891
 213  1348.365
 214  1277.299
 215  1315.115
 216  1320.938
 217  1309.829
 218  1440.735
 219  1356.461
 220  1324.683
 221  1296.493
 222  1294.979
 223  1333.9
 224  1292.718
 225  1332.901
 226  1310.148
 227  1269.245
 228  1410.58
 229  1457.801
 230  1448.268
 231  1296.458
 232  1318.316
 233  1289.202
 234  1278.541
 235  1243.059
 236  1277.738
 237  1320.741
 238  1260.754
 239  1319.045
 240  1318.008
 241  1288.52
 242  1381.653
 243  1446.349
 244  1470.438
 245  1354.499
 246  1345.807
 247  1350.492
 248  1350.169
 249  1415.075
 250  1367.49
 251  1340.184
 252  1377.186
 253  1342.979
 254  1317.165
 255  1432.901
 256  1377.688
 257  1454.244
 258  1495.042
 259  1455.434
 260  1402.766
 261  1395.862
 262  1332.818
 263  1381.005
 264  1529.843
 265  1524.313
 266  1506.955
 267  1687.766
 268  1714.32
 269  1711.015
 270  1430.672
 271  1392.819
 272  1348.952
 273  1344.155
 274  1333.64
 275  1427.67
 276  1371.824
 277  1312.23
 278  1307.78
 279  1359.412
 280  1276.75
 281  1212.463
 282  1306.763
 283  1356.727
 284  1314.31
 285  1260.756
 286  1236.441
 287  1293.182
 288  1259.692
 289  1409.641
 290  1456.268
 291  1330.637
 292  1409.239
 293  1457.661
 294  1369.737
 295  1328.279
 296  1386.495
 297  1520.179
 298  1489.702
 299  1337.161
 300  1364.558
 301  1402.912
 302  1392.817
 303  1328.171
 304  1384.898
 305  1388.29
 306  1456.693
 307  1484.036
 308  1479.036
 309  1484.222
 310  1381.467
 311  1360.928
 312  1375.812
 313  1421.986
 314  1466.293
 315  1485.401
 316  1301.866
 317  1276.266
 318  1408.638
 319  1360.737
 320  1293.863
 321  1279.568
 322  1338.412
 323  1351.641
 324  1346.006
 325  1301.496
 326  1357.088
 327  1273.519
 328  1174.184
 329  1299.845
 330  1334.081
 331  1271.894
 332  1267.838
 333  1319.908
 334  1251.932
 335  1163.138
 336  1250.788
 337  1336.074
 338  1229.863
 339  1234.987
 340  1377.484
 341  1405.356
 342  1290.515
 343  1256.608
 344  1258.83
 345  1347.155
 346  1378.024
 347  1395.796
 348  1418.184
 349  1454.45
 350  1308.499
 351  1266.274
 352  1248.092
 353  1333.759
 354  1300.278
 355  1432.618
 356  1491.866
 357  1508.336
 358  1465.038
 359  1444.588
 360  1300.763
 361  1410.549
 362  1430.359
 363  1435.824
 364  1474.821
 365  1468.795
 366  1485.188
 367  1381.213
 368  1371.566
 369  1357.482
 370  1271.044
 371  1285.459
 372  1328.345
 373  1359.412
 374  1358.064
 375  1416.519
 376  1368.836
 377  1265.96
 378  1276.087
 379  1268.568
 380  1298.668
 381  1392.891
 382  1366.752
 383  1458.934
 384  1416.043
 385  1311.463
 386  1267.813
 387  1285.847
 388  1253.971
 389  1367.279
 390  1472.076
 391  1430.269
 392  1313.145
 393  1256.085
 394  1317.364
 395  1271.064
 396  1255.739
 397  1367.386
 398  1394.772
 399  1336.278
 400  1260.238
 401  1287.029
 402  1295.269
 403  1291.139
 404  1164.964
 405  1241.349
 406  1335.092
 407  1350.99
 408  1277.944
 409  1384.163
 410  1297.466
 411  1286.055
 412  1388.005
 413  1333.473
 414  1432.376
 415  1299.395
 416  1197.968
 417  1214.615
 418  1270.878
 419  1195.034
 420  1104.202
 421  1161.886
 422  1197.391
 423  1199.594
 424  1143.685
 425  1293.21
 426  1354.406
 427  1267.385
 428  1161.083
 429  1198.469
 430  1257.774
 431  1325.848
 432  1382.869
 433  1403.499
 434  1397.672
 435  1330.246
 436  1299.367
 437  1284.617
 438  1398.561
 439  1483.203
 440  1590.058
 441  1536.676
 442  1438.284
 443  1373.45
 444  1383.145
 445  1396.52
 446  1378.851
 447  1400.876
 448  1341.567
 449  1267.713
 450  1284.463
 451  1281.746
 452  1184.346
 453  1264.44
 454  1270.998
 455  1298.103
 456  1216.992
 457  1240.845
 458  1300.564
 459  1271.873
 460  1328.233
 461  1442.256
 462  1414.553
 463  1344.875
 464  1288.29
 465  1322.311
 466  1264.076
 467  1345.784
 468  1293.375
 469  1285.462
 470  1257.158
 471  1314.564
 472  1402.003
 473  1370.981
 474  1456.396
 475  1398.154
 476  1334.007
 477  1354.637
 478  1470.774
 479  1414.174
 480  1432.731
 481  1462.874
 482  1472.412
 483  1546.939
 484  1439.784
 485  1258.41
 486  1285.98
 487  1334.222
 488  1399.866
 489  1337.825
 490  1409.594
 491  1471.186
 492  1302.149
 493  1281.661
 494  1289.086
 495  1437.476
 496  1500.279
 497  1472.621
 498  1478.114
 499  1410.28
 500  1409.739
 501  1361.33
 502  1279.216
 503  1212.876
 504  1377.775
 505  1380.721
 506  1562.117
 507  1541.427
 508  1407.986
 509  1304.022
 510  1263.967
 511  1413.113
