# Input file       =  1197139048.114253_cleaned.dat
# Candidate        =  PSR_0332+5434
# Telescope        =  AR
# Epoch_topo       =  58099.776239748302
# Epoch_bary       =  N/A
# T_sample         =  0.002
# Data Folded      =  7340032
# Data Avg         =  0.0609373829851998
# Data StdDev      =  1.00019379598268 
# Profile Bins     =  512
# Profile Avg      =  873.444858895306 
# Profile StdDev   =  119.75624015821  
# Reduced chi-sqr  =  0.904
# Prob(Noise)      <  0.942   (~0.0 sigma)
# P_topo (ms)      =  714.537710553623  +/- 0.000352
# P'_topo (s/s)    =  -0                +/- 1.86e-10
# P''_topo (s/s^2) =  0                 +/- 8.19e-14
# P_bary (ms)      =  N/A
# P'_bary (s/s)    =  N/A
# P''_bary (s/s^2) =  N/A
# P_orb (s)        =  N/A
# asin(i)/c (s)    =  N/A
# eccentricity     =  N/A
# w (rad)          =  N/A
# T_peri           =  N/A
######################################################
   0  771.6411
   1  865.1804
   2  796.8928
   3  775.9313
   4  913.7534
   5  885.6221
   6  719.5137
   7  734.3799
   8  814.1592
   9  849.6986
  10  793.2209
  11  884.3194
  12  946.2671
  13  922.1893
  14  856.5718
  15  867.0527
  16  798.0825
  17  875.3784
  18  914.8765
  19  871.256
  20  931.761
  21  1011.677
  22  1091.548
  23  948.5677
  24  832.8839
  25  866.3298
  26  849.134
  27  858.2275
  28  871.9034
  29  950.8755
  30  1016.622
  31  939.5528
  32  1005.256
  33  947.6522
  34  892.3504
  35  813.5626
  36  838.3497
  37  839.7802
  38  831.7964
  39  962.8547
  40  935.6031
  41  762.392
  42  752.8378
  43  786.0565
  44  773.7526
  45  775.8641
  46  919.7081
  47  900.6127
  48  889.6393
  49  940.5869
  50  906.0866
  51  1015.837
  52  922.1364
  53  894.1292
  54  884.8419
  55  812.6533
  56  875.1346
  57  964.5191
  58  1041.458
  59  974.9598
  60  935.7839
  61  994.2221
  62  988.1843
  63  1089.5
  64  1015.555
  65  890.8322
  66  918.9717
  67  1009.431
  68  1080.08
  69  953.9185
  70  903.7292
  71  896.3815
  72  872.8488
  73  807.5556
  74  822.5993
  75  920.5974
  76  938.687
  77  927.9056
  78  913.8248
  79  901.4913
  80  938.9631
  81  935.4214
  82  952.5795
  83  903.2554
  84  849.2103
  85  836.1401
  86  891.5093
  87  941.0998
  88  908.0978
  89  810.9749
  90  854.3993
  91  820.7672
  92  880.1309
  93  872.2769
  94  859.0659
  95  877.7603
  96  923.1805
  97  1011.006
  98  1037.853
  99  1038.193
 100  866.4588
 101  852.8864
 102  885.0795
 103  915.7051
 104  901.2818
 105  908.2774
 106  998.5865
 107  957.1952
 108  912.9981
 109  876.6049
 110  883.6472
 111  955.6728
 112  915.2285
 113  880.4013
 114  835.8065
 115  1018.587
 116  991.9604
 117  898.7524
 118  870.916
 119  918.8506
 120  882.5214
 121  905.2565
 122  841.9409
 123  782.3609
 124  959.669
 125  882.5733
 126  838.959
 127  887.7044
 128  830.9241
 129  892.561
 130  918.5709
 131  809.7175
 132  825.0286
 133  948.5842
 134  937.0758
 135  887.9861
 136  840.4283
 137  825.2857
 138  864.0125
 139  844.9375
 140  854.7224
 141  793.0284
 142  866.5309
 143  855.2244
 144  784.5636
 145  843.5497
 146  762.9777
 147  837.9857
 148  839.0245
 149  844.2141
 150  797.2811
 151  769.3727
 152  800.2928
 153  853.9082
 154  899.2238
 155  856.197
 156  702.549
 157  690.1605
 158  904.6865
 159  909.4832
 160  861.3091
 161  796.6952
 162  833.5553
 163  885.4738
 164  879.7307
 165  870.7953
 166  944.0721
 167  1002.905
 168  919.9244
 169  842.685
 170  831.3079
 171  852.8959
 172  852.4168
 173  870.4587
 174  962.2653
 175  900.0791
 176  912.7549
 177  884.5619
 178  859.7889
 179  881.8772
 180  945.903
 181  867.0167
 182  797.0563
 183  916.1843
 184  894.2906
 185  978.2828
 186  988.8898
 187  827.874
 188  900.7027
 189  851.0559
 190  827.6124
 191  898.5433
 192  909.0378
 193  868.2084
 194  803.9039
 195  769.6299
 196  799.6601
 197  798.1379
 198  741.9058
 199  822.267
 200  861.8405
 201  817.2313
 202  718.6227
 203  782.5657
 204  872.5959
 205  908.2484
 206  970.9554
 207  962.8026
 208  932.7167
 209  883.2152
 210  951.8823
 211  828.7036
 212  920.8099
 213  945.8743
 214  931.3104
 215  901.4119
 216  959.5613
 217  816.4221
 218  872.5029
 219  945.0422
 220  911.9894
 221  874.1172
 222  838.9764
 223  899.6838
 224  1018.603
 225  1115.476
 226  1281.337
 227  1299.396
 228  1280.532
 229  1176.875
 230  1088.097
 231  1007.405
 232  889.1254
 233  929.2466
 234  880.437
 235  936.6797
 236  909.4907
 237  802.2734
 238  943.2701
 239  996.8664
 240  845.3126
 241  959.4623
 242  1178.107
 243  1029.396
 244  945.4425
 245  953.3552
 246  934.6752
 247  888.5053
 248  1025.647
 249  914.6834
 250  817.8846
 251  720.7678
 252  780.1034
 253  886.0031
 254  845.6715
 255  798.4169
 256  829.235
 257  849.4083
 258  975.0984
 259  944.2327
 260  931.4529
 261  937.7576
 262  816.391
 263  836.527
 264  917.5288
 265  865.2286
 266  885.9086
 267  869.6385
 268  909.8769
 269  908.9878
 270  825.9797
 271  834.4714
 272  882.5471
 273  890.3954
 274  831.4553
 275  870.7639
 276  813.587
 277  960.4542
 278  915.9446
 279  835.4865
 280  701.6932
 281  664.7823
 282  811.34
 283  816.2437
 284  862.35
 285  909.3448
 286  864.6844
 287  765.2466
 288  752.0193
 289  893.0103
 290  984.8254
 291  887.9395
 292  827.0702
 293  890.5676
 294  886.4661
 295  734.8956
 296  800.1841
 297  728.0301
 298  740.3256
 299  680.2263
 300  815.6583
 301  916.8781
 302  870.9629
 303  837.0726
 304  871.5355
 305  783.127
 306  777.4648
 307  849.2178
 308  836.8716
 309  849.2928
 310  806.145
 311  820.5692
 312  733.0787
 313  728.1238
 314  715.5113
 315  804.2303
 316  799.113
 317  890.3698
 318  913.2
 319  886.7905
 320  847.1069
 321  819.99
 322  913.3954
 323  817.0733
 324  761.4808
 325  769.9758
 326  746.2022
 327  819.9317
 328  823.8856
 329  780.058
 330  878.0909
 331  854.7248
 332  793.2552
 333  766.8103
 334  862.2075
 335  924.9028
 336  783.0908
 337  871.208
 338  910.5275
 339  753.1801
 340  738.6374
 341  800.8138
 342  786.5184
 343  687.2716
 344  779.0713
 345  830.35
 346  951.8307
 347  801.8954
 348  833.3878
 349  886.3039
 350  862.8217
 351  905.2324
 352  843.7084
 353  756.89
 354  736.3358
 355  784.1823
 356  859.3943
 357  872.6432
 358  926.9805
 359  1041.955
 360  1001.464
 361  923.3282
 362  853.1034
 363  899.637
 364  874.178
 365  848.1715
 366  803.912
 367  681.6495
 368  851.2927
 369  848.0917
 370  808.6449
 371  813.403
 372  764.6522
 373  801.0485
 374  784.6635
 375  895.8915
 376  915.7072
 377  864.3624
 378  881.3713
 379  907.1729
 380  881.1487
 381  847.0596
 382  859.1874
 383  748.4319
 384  782.7698
 385  941.2744
 386  909.4233
 387  913.0406
 388  823.0851
 389  803.8552
 390  809.8107
 391  734.6172
 392  871.6257
 393  942.7228
 394  1007.876
 395  924.347
 396  909.9522
 397  838.3921
 398  910.0826
 399  839.2037
 400  827.4121
 401  858.3992
 402  851.4122
 403  872.7612
 404  800.2242
 405  867.9527
 406  898.4177
 407  855.2448
 408  968.0329
 409  862.115
 410  790.1535
 411  847.909
 412  926.7477
 413  933.9136
 414  838.7847
 415  810.433
 416  795.8417
 417  770.6403
 418  925.6049
 419  1011.294
 420  964.02
 421  1025.815
 422  914.1833
 423  927.6343
 424  859.4651
 425  860.3547
 426  879.5557
 427  898.9567
 428  906.0516
 429  898.4929
 430  905.7413
 431  859.4391
 432  791.2047
 433  777.3235
 434  745.602
 435  710.9446
 436  783.5719
 437  881.5421
 438  847.1964
 439  839.3391
 440  788.8041
 441  825.128
 442  886.4022
 443  875.1385
 444  856.3376
 445  829.8914
 446  839.8625
 447  894.4932
 448  889.7991
 449  878.6013
 450  967.9807
 451  1004.298
 452  860.8077
 453  779.4945
 454  880.1823
 455  989.8088
 456  933.6589
 457  874.4557
 458  883.854
 459  968.6845
 460  965.8126
 461  943.8156
 462  882.4293
 463  869.3621
 464  889.8323
 465  828.2234
 466  810.9347
 467  780.0676
 468  804.3711
 469  809.6394
 470  841.9179
 471  864.787
 472  768.1143
 473  837.2505
 474  786.0166
 475  815.1107
 476  812.2781
 477  792.696
 478  897.7715
 479  947.8702
 480  887.056
 481  825.8185
 482  901.5044
 483  875.9315
 484  969.4196
 485  905.8765
 486  920.2454
 487  821.2621
 488  737.6708
 489  777.7533
 490  952.3504
 491  1035.724
 492  973.7482
 493  874.0242
 494  868.1272
 495  763.4421
 496  804.7933
 497  827.9669
 498  907.1418
 499  790.0742
 500  876.3862
 501  836.27
 502  898.5816
 503  894.5776
 504  934.4931
 505  799.779
 506  815.8056
 507  774.0339
 508  773.5786
 509  891.6564
 510  809.4142
 511  720.9862
