# Input file       =  1197741965.100548_cleaned.dat
# Candidate        =  PSR_0332+5434
# Telescope        =  AR
# Epoch_topo       =  58106.754445608196
# Epoch_bary       =  N/A
# T_sample         =  0.002
# Data Folded      =  7340032
# Data Avg         =  0.132132425620511
# Data StdDev      =  3.8758233240583  
# Profile Bins     =  1024
# Profile Avg      =  947.122196930738 
# Profile StdDev   =  328.142868514623 
# Reduced chi-sqr  =  0.605
# Prob(Noise)      <  1   (~0.0 sigma)
# P_topo (ms)      =  714.544607834013  +/- 0.000197
# P'_topo (s/s)    =  -0                +/- 1.04e-10
# P''_topo (s/s^2) =  0                 +/- 4.58e-14
# P_bary (ms)      =  N/A
# P'_bary (s/s)    =  N/A
# P''_bary (s/s^2) =  N/A
# P_orb (s)        =  N/A
# asin(i)/c (s)    =  N/A
# eccentricity     =  N/A
# w (rad)          =  N/A
# T_peri           =  N/A
######################################################
   0  1049.898
   1  1096.992
   2  1092.225
   3  1174.795
   4  1218.336
   5  1197.341
   6  1090.311
   7  981.8697
   8  927.9365
   9  1021.067
  10  1104.338
  11  1055.865
  12  958.2891
  13  1051.391
  14  1165.94
  15  1231.503
  16  1221.273
  17  1183.815
  18  1103.876
  19  1002.524
  20  1003.284
  21  1000.967
  22  911.6899
  23  880.4283
  24  1003.928
  25  1112.007
  26  1074.477
  27  875.631
  28  849.0603
  29  931.3038
  30  979.9507
  31  916.079
  32  864.2567
  33  1000.884
  34  1035.895
  35  1028.847
  36  945.0916
  37  1021.211
  38  924.8658
  39  828.6763
  40  711.4765
  41  854.9974
  42  1027.007
  43  1146.345
  44  1103.231
  45  1051.176
  46  1057.133
  47  1067.802
  48  1043.205
  49  1010.464
  50  916.9117
  51  872.4146
  52  884.7344
  53  909.0976
  54  977.1438
  55  1032.138
  56  1039.643
  57  989.6727
  58  961.6118
  59  891.4808
  60  913.5403
  61  961.0386
  62  1005.715
  63  1012.526
  64  976.4205
  65  1003.511
  66  1023.506
  67  1160.333
  68  1166.217
  69  1092.985
  70  897.8762
  71  919.9916
  72  1023.557
  73  1121.341
  74  1034.197
  75  979.8342
  76  951.2747
  77  964.817
  78  947.7186
  79  975.5041
  80  1064.688
  81  1138.837
  82  1115.415
  83  1125.415
  84  1023.897
  85  1010.338
  86  859.3759
  87  817.5101
  88  794.9849
  89  901.2133
  90  935.5507
  91  1020.026
  92  996.91
  93  1031.686
  94  973.6851
  95  844.1719
  96  842.5237
  97  888.9758
  98  949.9042
  99  997.7798
 100  933.4703
 101  962.3665
 102  929.7205
 103  1011.939
 104  1001.303
 105  872.6488
 106  724.5348
 107  657.804
 108  602.9702
 109  571.152
 110  532.4618
 111  616.4993
 112  717.5038
 113  714.8986
 114  639.3833
 115  656.2299
 116  705.6717
 117  759.5887
 118  746.7638
 119  751.6988
 120  730.8855
 121  725.703
 122  820.0928
 123  846.1943
 124  803.1231
 125  775.3488
 126  774.9742
 127  858.9183
 128  976.5563
 129  941.8859
 130  768.0256
 131  577.9706
 132  566.2688
 133  630.9079
 134  622.086
 135  622.9303
 136  631.2181
 137  626.918
 138  700.0674
 139  870.4548
 140  988.7089
 141  1048.271
 142  1089.399
 143  981.0672
 144  1043.767
 145  1006.119
 146  1180.908
 147  1129.926
 148  991.7278
 149  954.1385
 150  797.9478
 151  753.0543
 152  769.6926
 153  890.6154
 154  906.2714
 155  916.3696
 156  926.0399
 157  960.3867
 158  994.053
 159  1065.083
 160  1070.086
 161  1163.282
 162  1134.954
 163  1097.139
 164  983.0377
 165  904.5715
 166  909.8071
 167  846.7114
 168  814.0695
 169  822.3075
 170  908.7982
 171  959.6437
 172  894.0011
 173  905.2688
 174  896.6194
 175  941.379
 176  930.522
 177  895.2538
 178  943.8903
 179  913.4575
 180  902.4778
 181  780.1537
 182  810.6712
 183  822.063
 184  860.2545
 185  865.3278
 186  892.1553
 187  858.158
 188  962.1486
 189  1029.369
 190  998.9695
 191  882.4097
 192  909.9238
 193  914.5001
 194  985.1555
 195  1024.707
 196  1059.963
 197  997.8381
 198  941.3934
 199  966.4459
 200  1004.436
 201  1024.751
 202  1039.838
 203  1071.628
 204  1076.374
 205  1004.82
 206  1049.742
 207  1014.414
 208  964.3721
 209  946.4549
 210  964.9323
 211  850.1422
 212  691.0993
 213  646.1645
 214  846.0494
 215  993.5723
 216  1121.934
 217  1017.333
 218  919.1479
 219  785.0703
 220  801.4388
 221  921.3744
 222  943.0822
 223  928.6328
 224  873.1896
 225  938.5726
 226  902.0042
 227  932.928
 228  943.5495
 229  940.2115
 230  915.2411
 231  902.3808
 232  984.8344
 233  1035.058
 234  1064.536
 235  943.6943
 236  1005.267
 237  978.331
 238  1054.422
 239  970.7773
 240  922.0428
 241  898.0457
 242  882.1817
 243  951.7234
 244  845.7039
 245  910.236
 246  989.9282
 247  1151.88
 248  1237.267
 249  1159.572
 250  1039.757
 251  788.801
 252  750.3462
 253  729.0386
 254  795.259
 255  903.4949
 256  941.9985
 257  989.3875
 258  988.7865
 259  1003.669
 260  1053.742
 261  951.7814
 262  843.2363
 263  820.8798
 264  793.6171
 265  791.1087
 266  786.3687
 267  928.9931
 268  923.0299
 269  955.0323
 270  1016.349
 271  1074.267
 272  900.8275
 273  716.0466
 274  736.2401
 275  843.6053
 276  963.0239
 277  899.0934
 278  838.2719
 279  806.0959
 280  843.7861
 281  945.772
 282  989.6495
 283  974.402
 284  897.2365
 285  912.6428
 286  1031.836
 287  1176.273
 288  1262.464
 289  1150.497
 290  1037.039
 291  1028.726
 292  1051.321
 293  997.8372
 294  887.112
 295  836.0944
 296  923.5995
 297  940.6776
 298  980.1123
 299  930.7591
 300  1012.037
 301  1140.634
 302  1126.899
 303  1150.756
 304  1009.013
 305  984.1012
 306  876.36
 307  929.3182
 308  871.0429
 309  851.1041
 310  846.0377
 311  932.3906
 312  948.1895
 313  959.7834
 314  997.9584
 315  971.7108
 316  1005.294
 317  1030.067
 318  1056.654
 319  924.8659
 320  881.0795
 321  861.9733
 322  902.1596
 323  788.5922
 324  702.5305
 325  817.9879
 326  956.4244
 327  1011.575
 328  1022.892
 329  1041.522
 330  995.473
 331  1007.963
 332  992.9927
 333  952.1216
 334  839.9015
 335  858.6418
 336  865.1912
 337  787.3227
 338  707.9094
 339  638.4916
 340  712.597
 341  835.2565
 342  865.4836
 343  804.1681
 344  779.4973
 345  725.6608
 346  765.4036
 347  853.3102
 348  921.05
 349  978.1346
 350  966.7413
 351  934.83
 352  743.3621
 353  667.7073
 354  762.787
 355  849.6525
 356  910.2051
 357  866.999
 358  1038.624
 359  960.8554
 360  951.8987
 361  854.3768
 362  929.3757
 363  956.2523
 364  971.0494
 365  914.2789
 366  813.6328
 367  716.944
 368  821.4047
 369  926.6644
 370  932.1876
 371  885.6486
 372  932.5018
 373  1003.614
 374  1010.57
 375  1034.998
 376  1151.803
 377  1198.166
 378  1064.746
 379  845.8616
 380  781.0989
 381  804.7374
 382  865.4889
 383  879.4933
 384  810.4902
 385  794.5113
 386  800.0281
 387  796.6896
 388  621.4241
 389  687.9988
 390  808.1189
 391  908.4992
 392  874.0855
 393  925.1573
 394  953.2263
 395  1082.377
 396  1141.563
 397  1002.775
 398  825.9875
 399  870.9462
 400  964.0237
 401  936.4655
 402  737.9562
 403  744.6152
 404  794.2863
 405  829.0359
 406  764.441
 407  706.8756
 408  680.8054
 409  738.9096
 410  817.8602
 411  902.0636
 412  872.4894
 413  831.5933
 414  893.2689
 415  862.9399
 416  904.9291
 417  863.0631
 418  852.7205
 419  761.9789
 420  709.9414
 421  801.3292
 422  711.1055
 423  771.7948
 424  823.4489
 425  1016.244
 426  925.6693
 427  978.1819
 428  949.1739
 429  1031.927
 430  943.6851
 431  847.2354
 432  801.992
 433  805.1203
 434  909.7365
 435  1012.039
 436  1069.931
 437  1001.255
 438  987.5771
 439  980.101
 440  1085.46
 441  1040.993
 442  1033.666
 443  989.0988
 444  1048.432
 445  962.2834
 446  970.2099
 447  943.2592
 448  1096.14
 449  1166.055
 450  1186.973
 451  1146.076
 452  1204.793
 453  1216.189
 454  1185.874
 455  1126.056
 456  1080.147
 457  1006.388
 458  1087.991
 459  1153.061
 460  1067.641
 461  873.3824
 462  894.0347
 463  968.0785
 464  1008.279
 465  915.4526
 466  938.2429
 467  952.807
 468  1049.816
 469  1062.737
 470  996.4907
 471  851.0808
 472  787.4095
 473  854.8483
 474  895.7023
 475  916.123
 476  914.5977
 477  958.135
 478  990.6327
 479  1006.557
 480  922.2819
 481  888.0298
 482  880.844
 483  965.6342
 484  1033.412
 485  967.8089
 486  937.806
 487  892.3287
 488  945.0657
 489  890.268
 490  860.3869
 491  905.9373
 492  966.4119
 493  986.1699
 494  951.6514
 495  1031.008
 496  1122.658
 497  1179.282
 498  1015.2
 499  925.061
 500  852.7138
 501  859.5038
 502  840.7845
 503  916.6643
 504  878.583
 505  820.1274
 506  728.2864
 507  873.398
 508  920.5388
 509  914.2388
 510  824.4251
 511  894.4935
 512  998.0035
 513  1042.084
 514  1110.436
 515  1008.892
 516  939.5861
 517  844.1171
 518  787.8499
 519  774.1536
 520  905.8866
 521  1027.817
 522  1057.242
 523  949.6799
 524  873.7479
 525  872.1745
 526  879.432
 527  925.387
 528  903.905
 529  955.0306
 530  929.6363
 531  941.8974
 532  826.9442
 533  833.3931
 534  900.2841
 535  970.5922
 536  1004.598
 537  825.0511
 538  783.9777
 539  716.9332
 540  863.8318
 541  976.8564
 542  949.8078
 543  812.1351
 544  749.6858
 545  819.6348
 546  833.4498
 547  855.9432
 548  814.5768
 549  797.0887
 550  709.7529
 551  718.2151
 552  880.3444
 553  1018.103
 554  954.4949
 555  896.2659
 556  821.5659
 557  812.8333
 558  795.9719
 559  919.9256
 560  1008.053
 561  1001.122
 562  901.452
 563  881.4987
 564  936.1183
 565  949.7444
 566  892.3072
 567  828.0804
 568  797.1464
 569  764.1721
 570  702.5356
 571  804.6839
 572  808.1901
 573  818.8163
 574  696.808
 575  764.8122
 576  839.0345
 577  878.7542
 578  915.83
 579  951.5609
 580  976.4243
 581  759.517
 582  599.7484
 583  646.452
 584  764.2858
 585  892.9114
 586  840.3836
 587  890.8281
 588  810.5693
 589  834.0989
 590  858.852
 591  829.8213
 592  807.0132
 593  812.2404
 594  849.2689
 595  852.6544
 596  902.0957
 597  831.5051
 598  753.0234
 599  812.0118
 600  1048.489
 601  1074.352
 602  978.6735
 603  861.3331
 604  932.3322
 605  969.338
 606  897.1551
 607  843.041
 608  819.1542
 609  1001.243
 610  1047.715
 611  1130.486
 612  1223.246
 613  1280.508
 614  1254.012
 615  1215.032
 616  1164.236
 617  1129.445
 618  1215.023
 619  1263.419
 620  1382.451
 621  1392.708
 622  1498.583
 623  1579.414
 624  1749.888
 625  1794.819
 626  1654.52
 627  1470.575
 628  1332.986
 629  1252.02
 630  1154.048
 631  1116.481
 632  1005.656
 633  990.3036
 634  930.9061
 635  938.5994
 636  1000.018
 637  1175.115
 638  1300.126
 639  1302.544
 640  1182.772
 641  1147.89
 642  1157.853
 643  1173.682
 644  1038.455
 645  1023.492
 646  978.0771
 647  985.7819
 648  990.6364
 649  1026.046
 650  1041.871
 651  1019.328
 652  1002.1
 653  1127.197
 654  1276.4
 655  1238.87
 656  1173.226
 657  978.8477
 658  1039.479
 659  899.0534
 660  934.904
 661  847.0825
 662  862.9231
 663  933.7168
 664  993.7567
 665  1080.378
 666  1016.949
 667  1174.789
 668  1214.301
 669  1176.405
 670  1047.203
 671  989.0475
 672  983.3787
 673  968.2819
 674  845.4905
 675  754.7931
 676  716.1454
 677  728.7147
 678  790.7639
 679  877.4695
 680  1001.868
 681  998.7617
 682  930.9564
 683  995.1296
 684  1095.635
 685  1238.711
 686  1266.926
 687  1198.299
 688  1033.595
 689  862.2415
 690  910.64
 691  950.7879
 692  942.4399
 693  796.8229
 694  754.7694
 695  780.4542
 696  810.5368
 697  758.924
 698  710.7303
 699  682.746
 700  723.0581
 701  846.3126
 702  718.431
 703  748.3127
 704  763.1888
 705  834.5969
 706  859.9681
 707  883.7043
 708  912.6214
 709  868.4611
 710  950.9542
 711  1027.021
 712  994.2159
 713  824.3317
 714  722.1689
 715  775.5566
 716  835.5193
 717  752.6333
 718  732.269
 719  851.8123
 720  1004.809
 721  1098.461
 722  1198.551
 723  1212.719
 724  1169.732
 725  1095.954
 726  1136.467
 727  1101.555
 728  1102.743
 729  963.534
 730  915.1534
 731  794.9416
 732  847.9108
 733  951.0023
 734  1138.804
 735  1153.203
 736  1221.226
 737  1128.149
 738  1097.201
 739  1052.768
 740  1109.863
 741  1038.122
 742  981.1894
 743  1009.857
 744  1036.364
 745  946.3669
 746  996.0043
 747  999.9396
 748  923.5289
 749  817.8862
 750  895.0671
 751  1022.145
 752  1084.38
 753  1129.233
 754  1173.354
 755  1114.433
 756  996.6869
 757  901.1606
 758  956.222
 759  992.6689
 760  937.3109
 761  801.2222
 762  844.9937
 763  962.9282
 764  1014.631
 765  990.1832
 766  983.9561
 767  1015.475
 768  1053.433
 769  1182.595
 770  1137.433
 771  1115.492
 772  1072.744
 773  1169.027
 774  1019.454
 775  907.3497
 776  807.925
 777  909.858
 778  938.8642
 779  1006.371
 780  889.8266
 781  873.1088
 782  893.3912
 783  1041.622
 784  1120.261
 785  1129.581
 786  1074.669
 787  983.1637
 788  848.8451
 789  854.5047
 790  961.7328
 791  1024.705
 792  994.3959
 793  1018.769
 794  1049.304
 795  901.4265
 796  1004.786
 797  1035.929
 798  1079.649
 799  988.6494
 800  993.9872
 801  1039.477
 802  1008.135
 803  1025.638
 804  1038.744
 805  1073.074
 806  878.571
 807  810.0661
 808  828.2206
 809  1003.955
 810  952.1421
 811  962.0049
 812  1032.039
 813  990.1284
 814  976.6761
 815  955.3954
 816  888.8437
 817  838.6705
 818  796.3064
 819  858.7098
 820  926.8025
 821  1046.293
 822  1103.601
 823  998.1124
 824  893.7291
 825  782.2513
 826  820.2986
 827  786.0504
 828  840.409
 829  925.4473
 830  974.2497
 831  884.2225
 832  760.4318
 833  816.8808
 834  892.907
 835  861.6605
 836  851.2697
 837  997.9612
 838  1061.783
 839  926.8422
 840  874.1516
 841  887.682
 842  817.2104
 843  746.0564
 844  837.4453
 845  961.5383
 846  975.9796
 847  989.5344
 848  968.5837
 849  882.9934
 850  884.1501
 851  1040.46
 852  1118.148
 853  967.1782
 854  941.8986
 855  962.8463
 856  877.5878
 857  712.1539
 858  630.7045
 859  655.6235
 860  682.6144
 861  753.1227
 862  762.6719
 863  766.5464
 864  810.0924
 865  969.2429
 866  1034.659
 867  882.2661
 868  852.8209
 869  889.6988
 870  1075.694
 871  1052.182
 872  1038.694
 873  956.8934
 874  972.2924
 875  1010.764
 876  1099.361
 877  1099.037
 878  1051.767
 879  1028.606
 880  936.1366
 881  854.1252
 882  809.5283
 883  845.6627
 884  930.4098
 885  1011.71
 886  1081.589
 887  1104.62
 888  1128.107
 889  1121.919
 890  1085.945
 891  1077.799
 892  1061.321
 893  999.2908
 894  956.2389
 895  869.7831
 896  871.0729
 897  800.1584
 898  832.9341
 899  913.7104
 900  1014.451
 901  1066.2
 902  1036.033
 903  1063.008
 904  1023.079
 905  971.9662
 906  940.4049
 907  900.0541
 908  803.8542
 909  731.2131
 910  722.2732
 911  825.4775
 912  832.0719
 913  929.0086
 914  956.5344
 915  1019.3
 916  978.8425
 917  952.6613
 918  961.124
 919  1076.76
 920  1066.55
 921  986.2736
 922  837.4506
 923  780.0635
 924  800.5754
 925  854.8237
 926  1005.028
 927  976.121
 928  1020.195
 929  890.1708
 930  859.795
 931  882.276
 932  829.7224
 933  870.7906
 934  842.3237
 935  922.2045
 936  952.7723
 937  1138.505
 938  1182.308
 939  969.3238
 940  822.4129
 941  852.0419
 942  916.1123
 943  862.2078
 944  875.5209
 945  851.8953
 946  905.8921
 947  801.7902
 948  800.2101
 949  819.6074
 950  965.4468
 951  1031.009
 952  1005.197
 953  1000.134
 954  984.7604
 955  953.7119
 956  1125.307
 957  1156.303
 958  1140.331
 959  1018.681
 960  943.0197
 961  938.5386
 962  929.8598
 963  911.678
 964  869.7978
 965  831.3874
 966  943.2389
 967  976.4979
 968  994.6064
 969  977.4144
 970  897.669
 971  828.3885
 972  827.3167
 973  910.1647
 974  1059.051
 975  1110.127
 976  1038.386
 977  1077.262
 978  1027.688
 979  1075.118
 980  1055.936
 981  1145.072
 982  1220.827
 983  1192.874
 984  1214.536
 985  1156.106
 986  1068.929
 987  965.6879
 988  900.0494
 989  909.4413
 990  877.5934
 991  867.227
 992  933.9972
 993  1013.595
 994  947.2044
 995  927.1495
 996  1025.417
 997  1062.335
 998  1031.504
 999  1009.766
1000  1115.424
1001  1178.181
1002  1125.232
1003  898.5041
1004  696.8596
1005  795.8273
1006  883.8051
1007  962.7802
1008  850.0104
1009  891.173
1010  958.2566
1011  972.6772
1012  1063.35
1013  1045.967
1014  1115.844
1015  1083.847
1016  1068.088
1017  1040.247
1018  983.4933
1019  1022.244
1020  1162.847
1021  1168.419
1022  1063.717
1023  1040.011
