# Input file       =  1197929750.11364_cleaned.dat
# Candidate        =  PSR_0332+5434
# Telescope        =  AR
# Epoch_topo       =  58108.927883259727
# Epoch_bary       =  N/A
# T_sample         =  0.002
# Data Folded      =  7340032
# Data Avg         =  0.108025077875936
# Data StdDev      =  4.12030067593492 
# Profile Bins     =  1024
# Profile Avg      =  774.270487232454 
# Profile StdDev   =  348.841309290724 
# Reduced chi-sqr  =  0.530
# Prob(Noise)      <  1   (~0.0 sigma)
# P_topo (ms)      =  714.547037482114  +/- 0.00144
# P'_topo (s/s)    =  -0                +/- 7.58e-10
# P''_topo (s/s^2) =  0                 +/- 3.35e-13
# P_bary (ms)      =  N/A
# P'_bary (s/s)    =  N/A
# P''_bary (s/s^2) =  N/A
# P_orb (s)        =  N/A
# asin(i)/c (s)    =  N/A
# eccentricity     =  N/A
# w (rad)          =  N/A
# T_peri           =  N/A
######################################################
   0  796.3038
   1  795.0706
   2  741.0883
   3  829.6219
   4  822.827
   5  710.9551
   6  629.9322
   7  578.9053
   8  533.9899
   9  347.4035
  10  408.1013
  11  525.9158
  12  674.1733
  13  674.9175
  14  822.9474
  15  871.7015
  16  791.6301
  17  640.4661
  18  579.2379
  19  642.431
  20  736.2131
  21  759.9627
  22  775.8025
  23  738.6348
  24  701.6593
  25  740.3188
  26  649.2341
  27  681.5638
  28  636.0306
  29  763.8019
  30  823.2291
  31  672.3896
  32  696.809
  33  567.8929
  34  631.4844
  35  533.6349
  36  519.4932
  37  504.7793
  38  533.7483
  39  578.0125
  40  710.4818
  41  697.3096
  42  648.0645
  43  657.1205
  44  788.423
  45  919.3449
  46  883.4179
  47  799.2499
  48  753.7932
  49  758.6575
  50  738.076
  51  717.7442
  52  555.9164
  53  586.775
  54  628.6073
  55  650.9775
  56  699.9517
  57  776.4518
  58  743.713
  59  785.2573
  60  755.6071
  61  795.0869
  62  686.6458
  63  645.7488
  64  574.1215
  65  630.6143
  66  643.5651
  67  718.7408
  68  790.1359
  69  856.3341
  70  752.6378
  71  707.2678
  72  712.8685
  73  776.1733
  74  642.8903
  75  573.7622
  76  667.0163
  77  630.5521
  78  669.4187
  79  585.5272
  80  670.3267
  81  753.145
  82  745.6942
  83  823.6776
  84  790.0846
  85  717.519
  86  729.9304
  87  726.6223
  88  757.9611
  89  625.9244
  90  629.3329
  91  594.3163
  92  746.9842
  93  760.717
  94  733.6011
  95  657.5093
  96  684.4933
  97  830.7888
  98  867.9438
  99  768.7883
 100  714.2861
 101  767.3705
 102  831.1868
 103  818.8974
 104  652.5377
 105  654.1536
 106  631.8759
 107  758.8527
 108  715.2548
 109  726.0343
 110  726.0934
 111  781.9301
 112  671.7872
 113  681.1548
 114  614.4161
 115  626.1075
 116  729.0236
 117  818.0559
 118  944.1163
 119  993.1769
 120  1013.932
 121  914.1011
 122  662.0375
 123  617.4008
 124  742.5972
 125  808.0798
 126  730.4919
 127  636.2202
 128  710.0309
 129  791.5115
 130  801.7234
 131  841.6326
 132  978.2723
 133  1000.703
 134  980.8661
 135  1017.187
 136  1062.257
 137  994.5536
 138  841.9964
 139  813.3522
 140  715.5926
 141  693.1016
 142  755.6229
 143  921.2056
 144  898.9495
 145  869.7653
 146  832.0132
 147  988.4942
 148  1043.46
 149  1106.511
 150  1080.31
 151  996.3993
 152  909.5341
 153  857.098
 154  871.3005
 155  839.4614
 156  772.2816
 157  798.3145
 158  769.5371
 159  731.8037
 160  611.7405
 161  503.9572
 162  496.2963
 163  543.381
 164  509.4299
 165  510.8325
 166  511.2785
 167  640.4352
 168  683.4505
 169  618.8043
 170  612.3011
 171  622.3055
 172  673.2663
 173  682.1212
 174  664.9476
 175  669.817
 176  605.9904
 177  612.7281
 178  768.5497
 179  869.1711
 180  968.9176
 181  822.6013
 182  699.4542
 183  621.873
 184  612.0646
 185  696.2993
 186  689.3447
 187  699.4719
 188  681.723
 189  791.7925
 190  811.2079
 191  808.5432
 192  702.0585
 193  741.174
 194  812.9395
 195  779.536
 196  826.3578
 197  806.9067
 198  797.8873
 199  718.0737
 200  703.15
 201  636.1581
 202  678.288
 203  734.6063
 204  847.1039
 205  864.1553
 206  678.1099
 207  667.1503
 208  638.7745
 209  702.8503
 210  765.071
 211  843.3055
 212  852.5997
 213  798.2495
 214  736.6396
 215  782.2416
 216  792.4487
 217  706.4045
 218  687.7966
 219  607.0234
 220  603.9169
 221  626.2253
 222  672.1647
 223  783.867
 224  751.2809
 225  679.9718
 226  713.528
 227  725.7355
 228  793.5792
 229  762.9542
 230  643.9654
 231  559.7994
 232  489.5105
 233  589.1332
 234  569.4836
 235  599.432
 236  599.3323
 237  645.1002
 238  644.7836
 239  634.1698
 240  698.7177
 241  631.0866
 242  714.4727
 243  763.4519
 244  914.0859
 245  938.1562
 246  966.0049
 247  890.8243
 248  947.9254
 249  804.1757
 250  759.5791
 251  713.1171
 252  775.1257
 253  815.5525
 254  661.0196
 255  600.1252
 256  570.4244
 257  630.6652
 258  674.0648
 259  655.1916
 260  684.8996
 261  764.0158
 262  714.5267
 263  780.3208
 264  867.9808
 265  894.782
 266  837.9772
 267  658.2209
 268  631.1097
 269  570.2923
 270  599.1737
 271  727.803
 272  681.6135
 273  726.7357
 274  724.0955
 275  844.2328
 276  889.4396
 277  826.355
 278  772.4129
 279  704.2288
 280  767.3303
 281  733.0765
 282  777.525
 283  703.3729
 284  643.8052
 285  699.4016
 286  911.3686
 287  960.4997
 288  927.8901
 289  753.9015
 290  724.747
 291  735.7886
 292  790.4794
 293  798.9809
 294  785.0786
 295  780.3495
 296  830.2888
 297  793.5056
 298  861.1161
 299  792.3895
 300  783.2422
 301  876.1435
 302  868.4518
 303  906.1848
 304  903.9055
 305  926.0328
 306  888.7357
 307  733.8976
 308  621.2701
 309  732.4293
 310  840.3134
 311  855.3242
 312  794.5588
 313  722.9182
 314  752.6095
 315  692.9343
 316  765.1872
 317  814.3552
 318  820.9995
 319  778.1118
 320  795.9078
 321  782.7911
 322  816.0905
 323  779.0056
 324  765.827
 325  709.7397
 326  810.6592
 327  833.6445
 328  839.41
 329  837.9847
 330  903.8705
 331  983.6497
 332  897.6925
 333  883.7556
 334  918.1509
 335  923.1711
 336  917.4617
 337  801.5735
 338  754.5076
 339  743.4095
 340  839.2884
 341  897.2216
 342  889.1722
 343  717.3777
 344  784.2214
 345  777.0274
 346  779.7769
 347  720.0557
 348  733.5405
 349  797.1376
 350  782.8801
 351  690.3525
 352  674.8984
 353  660.5584
 354  870.1166
 355  1053.336
 356  1039.572
 357  951.5652
 358  833.8179
 359  801.7509
 360  731.4223
 361  764.3137
 362  751.1111
 363  788.5674
 364  754.4173
 365  604.1478
 366  505.814
 367  669.6742
 368  929.6971
 369  997.4044
 370  846.5179
 371  791.9628
 372  820.7643
 373  886.4006
 374  885.8746
 375  740.0237
 376  672.3633
 377  638.0863
 378  711.0491
 379  834.1709
 380  859.4971
 381  765.0916
 382  675.3393
 383  639.8742
 384  711.1846
 385  726.7631
 386  808.9742
 387  843.1527
 388  887.7248
 389  899.5112
 390  845.2542
 391  871.0331
 392  876.4554
 393  925.9708
 394  839.7139
 395  750.6159
 396  531.2228
 397  407.1064
 398  452.9425
 399  630.4902
 400  740.0754
 401  758.6671
 402  651.6673
 403  688.9067
 404  740.1747
 405  816.4151
 406  761.4719
 407  656.8781
 408  642.0405
 409  770.6308
 410  801.9883
 411  854.2255
 412  782.6919
 413  713.5037
 414  525.9695
 415  513.5094
 416  593.6046
 417  676.0986
 418  673.7287
 419  733.5377
 420  784.663
 421  783.778
 422  743.8316
 423  773.2656
 424  766.6707
 425  869.08
 426  788.3409
 427  772.718
 428  715.2422
 429  766.6383
 430  855.1757
 431  785.9116
 432  722.2296
 433  665.1636
 434  765.3158
 435  907.6191
 436  944.9438
 437  955.8478
 438  964.0645
 439  994.8308
 440  870.1642
 441  823.2083
 442  695.8802
 443  786.213
 444  785.4872
 445  805.3132
 446  869.6219
 447  735.1915
 448  689.1447
 449  644.0766
 450  695.0314
 451  669.2484
 452  657.7228
 453  638.7609
 454  682.5358
 455  640.2818
 456  685.3072
 457  660.2639
 458  637.5503
 459  632.3624
 460  559.6839
 461  492.657
 462  462.8684
 463  426.4625
 464  422.8653
 465  473.3607
 466  555.6063
 467  661.8854
 468  737.0261
 469  717.4331
 470  765.9322
 471  839.9805
 472  751.4512
 473  641.731
 474  552.1446
 475  710.9607
 476  708.0267
 477  689.6966
 478  731.2109
 479  839.9407
 480  831.4463
 481  802.9802
 482  830.5488
 483  934.9218
 484  943.4755
 485  892.6309
 486  834.759
 487  818.0766
 488  757.7451
 489  744.6445
 490  743.4535
 491  638.9783
 492  587.7819
 493  627.9581
 494  767.9769
 495  941.8679
 496  970.018
 497  941.4898
 498  842.1918
 499  786.1866
 500  833.3181
 501  777.4297
 502  702.9065
 503  664.0943
 504  746.3878
 505  826.1274
 506  652.6653
 507  607.4236
 508  621.3422
 509  863.2792
 510  875.8734
 511  820.5612
 512  703.4573
 513  599.9786
 514  671.2868
 515  695.7504
 516  756.0509
 517  799.0319
 518  804.7308
 519  719.5933
 520  591.3111
 521  619.4789
 522  793.1016
 523  879.7188
 524  881.1643
 525  739.6873
 526  703.4225
 527  661.6989
 528  630.0795
 529  561.4388
 530  631.9016
 531  636.5273
 532  642.1127
 533  547.563
 534  661.3967
 535  828.6995
 536  906.0822
 537  891.0289
 538  881.7874
 539  798.8744
 540  775.3965
 541  672.8019
 542  611.8572
 543  668.5302
 544  787.4858
 545  791.8625
 546  701.0621
 547  692.6477
 548  787.6601
 549  919.9429
 550  1010.666
 551  1222.145
 552  1206.092
 553  1103.53
 554  948.2308
 555  895.4693
 556  785.1091
 557  737.4242
 558  598.6489
 559  637.0527
 560  524.9022
 561  718.814
 562  884.2953
 563  947.1382
 564  837.0788
 565  752.7548
 566  760.3903
 567  809.2537
 568  835.4894
 569  877.1841
 570  848.14
 571  740.2908
 572  707.6196
 573  706.8862
 574  749.5836
 575  792.4701
 576  937.3816
 577  1024.335
 578  910.7884
 579  926.9796
 580  989.7682
 581  1210.175
 582  1071.746
 583  1155.762
 584  1142.401
 585  1184.74
 586  1075.317
 587  1061.808
 588  985.3038
 589  946.5615
 590  670.3986
 591  677.2526
 592  692.825
 593  763.996
 594  869.291
 595  838.2203
 596  772.2663
 597  726.65
 598  799.929
 599  915.5514
 600  1038.729
 601  1074.22
 602  1113.564
 603  920.97
 604  915.0932
 605  985.1183
 606  1098.566
 607  1033.971
 608  954.0975
 609  921.4454
 610  999.321
 611  1155.979
 612  1125.692
 613  1035.204
 614  901.4928
 615  933.175
 616  1047.543
 617  1052.077
 618  1100.691
 619  1137.205
 620  1159.86
 621  1346.141
 622  1408.573
 623  1465.354
 624  1489.359
 625  1496.145
 626  1402.478
 627  1238.445
 628  1007.349
 629  884.7928
 630  755.0634
 631  688.451
 632  671.9344
 633  682.1312
 634  749.8454
 635  771.1519
 636  842.4181
 637  810.4085
 638  803.5594
 639  705.1599
 640  658.3236
 641  703.5064
 642  730.1494
 643  799.4675
 644  843.7007
 645  949.4386
 646  856.341
 647  840.2535
 648  746.4853
 649  864.7704
 650  908.0755
 651  992.5869
 652  1021.435
 653  935.9243
 654  925.4669
 655  777.5526
 656  780.0146
 657  667.5273
 658  753.6658
 659  829.2679
 660  941.8864
 661  885.9127
 662  857.0211
 663  862.9357
 664  878.8929
 665  849.462
 666  792.465
 667  841.2435
 668  853.9821
 669  842.6493
 670  807.2039
 671  776.0178
 672  781.8367
 673  717.9683
 674  682.3894
 675  617.3342
 676  555.6015
 677  553.3816
 678  692.4935
 679  719.7403
 680  625.8955
 681  592.3345
 682  614.5023
 683  738.6459
 684  767.2401
 685  849.8948
 686  700.9482
 687  689.9857
 688  623.8267
 689  666.9225
 690  642.9473
 691  672.0076
 692  643.6499
 693  588.7665
 694  631.8889
 695  657.0092
 696  760.1666
 697  800.4127
 698  898.9318
 699  966.3939
 700  940.566
 701  832.3591
 702  793.7147
 703  720.9978
 704  769.9555
 705  667.7248
 706  691.5712
 707  701.0294
 708  778.6828
 709  842.3381
 710  820.1821
 711  765.2321
 712  754.1784
 713  824.135
 714  730.2183
 715  646.8372
 716  666.7779
 717  747.1543
 718  730.2728
 719  595.9713
 720  628.8111
 721  698.8575
 722  745.45
 723  728.7791
 724  655.9717
 725  598.4832
 726  606.1421
 727  708.0731
 728  772.4876
 729  958.323
 730  1011.611
 731  1033.982
 732  809.2164
 733  738.8928
 734  603.9298
 735  624.8389
 736  702.7028
 737  835.2056
 738  763.8678
 739  761.0277
 740  725.4671
 741  859.3987
 742  896.7529
 743  787.116
 744  669.2018
 745  718.3528
 746  849.4802
 747  966.7773
 748  887.4305
 749  958.9077
 750  977.1635
 751  1060.535
 752  931.4579
 753  790.2294
 754  655.4602
 755  682.7415
 756  753.2101
 757  834.892
 758  732.3257
 759  702.0259
 760  642.4736
 761  826.8613
 762  804.9943
 763  845.7929
 764  837.3252
 765  812.7524
 766  758.8865
 767  770.017
 768  848.9757
 769  877.0391
 770  763.6405
 771  747.0306
 772  849.4085
 773  908.8417
 774  989.8192
 775  931.3932
 776  942.8194
 777  812.4706
 778  770.4176
 779  684.3167
 780  648.2057
 781  711.21
 782  850.2911
 783  944.428
 784  996.4518
 785  1005.718
 786  831.6304
 787  730.0852
 788  752.0046
 789  936.5691
 790  1070.832
 791  999.1928
 792  981.6542
 793  1015.877
 794  1111.544
 795  1001.65
 796  838.0132
 797  728.1837
 798  870.4785
 799  847.559
 800  753.4545
 801  605.6327
 802  633.7834
 803  727.5273
 804  875.2875
 805  917.6794
 806  1006.483
 807  1039.814
 808  1050.224
 809  976.2833
 810  883.1741
 811  814.7499
 812  841.2993
 813  893.6479
 814  906.2451
 815  822.9609
 816  687.4729
 817  732.1307
 818  676.5299
 819  683.7259
 820  721.2053
 821  720.5513
 822  875.5276
 823  1009.88
 824  917.9161
 825  871.2801
 826  941.1711
 827  1034.432
 828  996.7967
 829  880.8218
 830  945.0621
 831  890.4523
 832  903.6243
 833  980.8016
 834  925.5147
 835  854.5688
 836  777.2589
 837  982.2006
 838  1015.24
 839  1026.742
 840  925.5217
 841  882.2113
 842  863.3666
 843  893.1833
 844  867.8808
 845  915.0098
 846  1017.5
 847  1088.189
 848  967.2286
 849  847.0636
 850  763.506
 851  744.7147
 852  814.5332
 853  790.6093
 854  749.4651
 855  719.9519
 856  709.1559
 857  816.6963
 858  791.6259
 859  829.4758
 860  857.0766
 861  848.6248
 862  863.543
 863  780.4528
 864  746.8117
 865  778.5847
 866  828.7519
 867  770.8116
 868  730.1624
 869  710.1197
 870  765.5332
 871  733.1999
 872  601.6111
 873  615.9249
 874  615.3631
 875  694.3543
 876  667.1584
 877  661.7864
 878  577.8986
 879  673.247
 880  678.3501
 881  781.7719
 882  716.8741
 883  690.4184
 884  761.5034
 885  743.3441
 886  732.1147
 887  721.7968
 888  769.3535
 889  765.0782
 890  768.299
 891  782.5872
 892  708.2708
 893  582.5281
 894  612.3531
 895  666.7624
 896  700.8803
 897  717.1125
 898  792.5389
 899  756.2038
 900  731.5249
 901  699.1321
 902  766.5123
 903  873.9484
 904  879.6714
 905  864.8732
 906  855.7134
 907  811.2155
 908  866.823
 909  845.9348
 910  754.6176
 911  622.4889
 912  748.6152
 913  810.6166
 914  778.7952
 915  759.9321
 916  781.0154
 917  806.5441
 918  748.7206
 919  751.8706
 920  700.0603
 921  627.8921
 922  571.6498
 923  558.3182
 924  598.878
 925  683.2177
 926  711.5864
 927  781.2819
 928  696.1116
 929  582.9255
 930  590.5763
 931  591.0817
 932  650.8132
 933  674.9562
 934  686.9692
 935  733.6375
 936  705.4168
 937  668.2257
 938  630.6146
 939  594.8959
 940  684.2708
 941  655.1154
 942  667.5711
 943  751.2701
 944  876.5396
 945  858.2122
 946  849.7944
 947  771.0283
 948  685.3525
 949  590.9604
 950  559.6533
 951  581.4612
 952  589.6656
 953  617.1567
 954  642.0009
 955  671.5564
 956  603.3557
 957  563.5331
 958  591.3178
 959  726.7567
 960  799.5615
 961  726.9543
 962  790.2271
 963  749.55
 964  711.87
 965  686.0443
 966  631.8096
 967  657.791
 968  589.6843
 969  651.4238
 970  675.2246
 971  782.7156
 972  622.3141
 973  537.8469
 974  444.1554
 975  505.8367
 976  607.1625
 977  633.4117
 978  666.0372
 979  609.472
 980  671.7664
 981  818.4003
 982  790.7455
 983  632.1266
 984  541.3
 985  572.7119
 986  645.4244
 987  695.0721
 988  727.389
 989  852.0435
 990  774.4144
 991  715.6944
 992  680.3636
 993  806.3791
 994  808.1233
 995  851.6807
 996  831.1725
 997  931.512
 998  821.774
 999  818.1561
1000  800.337
1001  873.7603
1002  993.2591
1003  974.8551
1004  954.0721
1005  896.8074
1006  808.3281
1007  661.0342
1008  641.5071
1009  722.9151
1010  878.5112
1011  810.4641
1012  769.4223
1013  859.9572
1014  899.5085
1015  911.3669
1016  826.0031
1017  827.9641
1018  866.966
1019  856.6943
1020  867.5458
1021  796.3886
1022  824.4521
1023  842.9827
