# Input file       =  1197067746.109697_cleaned.dat
# Candidate        =  PSR_0332+5434
# Telescope        =  AR
# Epoch_topo       =  58098.950985065938
# Epoch_bary       =  N/A
# T_sample         =  0.002
# Data Folded      =  7340032
# Data Avg         =  0.0513963236712931
# Data StdDev      =  1.00012614130438 
# Profile Bins     =  512
# Profile Avg      =  736.840246487609 
# Profile StdDev   =  119.748139658153 
# Reduced chi-sqr  =  0.811
# Prob(Noise)      <  0.999   (~0.0 sigma)
# P_topo (ms)      =  714.537212903552  +/- 0.000276
# P'_topo (s/s)    =  -0                +/- 1.46e-10
# P''_topo (s/s^2) =  0                 +/- 6.43e-14
# P_bary (ms)      =  N/A
# P'_bary (s/s)    =  N/A
# P''_bary (s/s^2) =  N/A
# P_orb (s)        =  N/A
# asin(i)/c (s)    =  N/A
# eccentricity     =  N/A
# w (rad)          =  N/A
# T_peri           =  N/A
######################################################
   0  687.4489
   1  720.2603
   2  735.2203
   3  651.0068
   4  637.1999
   5  546.8133
   6  637.1802
   7  618.3514
   8  625.499
   9  731.113
  10  729.7039
  11  731.1125
  12  697.3862
  13  676.9537
  14  666.6774
  15  658.7909
  16  676.989
  17  644.4864
  18  584.4399
  19  693.1597
  20  743.5379
  21  756.0059
  22  777.2139
  23  807.8646
  24  665.4186
  25  814.4507
  26  828.9178
  27  798.5157
  28  960.61
  29  1002.074
  30  1073.806
  31  984.0104
  32  752.3934
  33  699.0834
  34  743.272
  35  669.0904
  36  584.3441
  37  622.8316
  38  688.251
  39  702.1004
  40  677.4227
  41  739.2302
  42  736.4317
  43  732.6266
  44  663.0443
  45  757.7318
  46  785.2413
  47  801.8426
  48  811.8538
  49  808.9379
  50  751.4009
  51  808.2988
  52  869.9667
  53  722.5337
  54  605.7932
  55  709.697
  56  746.4428
  57  788.3406
  58  740.0883
  59  792.8183
  60  842.374
  61  825.3079
  62  758.7772
  63  756.1717
  64  861.9988
  65  937.0866
  66  763.7885
  67  691.2607
  68  670.1666
  69  714.8142
  70  683.8646
  71  672.6161
  72  716.9319
  73  791.9213
  74  748.0669
  75  726.193
  76  703.4423
  77  533.3121
  78  595.8032
  79  845.6357
  80  741.8892
  81  688.7222
  82  670.38
  83  771.1684
  84  798.0127
  85  725.5887
  86  801.8953
  87  908.4842
  88  836.8591
  89  748.8452
  90  836.3404
  91  890.2611
  92  796.1042
  93  716.0431
  94  859.5407
  95  769.3317
  96  781.6625
  97  826.1013
  98  663.7209
  99  699.0787
 100  718.1912
 101  773.928
 102  764.2435
 103  695.1726
 104  753.6945
 105  730.6783
 106  750.5018
 107  707.2299
 108  762.3648
 109  729.9684
 110  562.5738
 111  562.1478
 112  679.863
 113  732.4504
 114  798.5046
 115  842.3015
 116  807.4002
 117  782.2455
 118  742.9562
 119  678.7259
 120  595.4403
 121  770.5763
 122  815.2238
 123  792.8321
 124  771.7618
 125  772.2461
 126  658.3365
 127  624.2764
 128  708.8309
 129  722.1236
 130  770.9077
 131  721.7668
 132  808.1906
 133  747.1674
 134  642.0738
 135  758.0371
 136  828.2318
 137  831.4952
 138  651.1852
 139  766.0515
 140  711.7271
 141  636.0089
 142  778.2332
 143  872.0343
 144  775.8483
 145  807.6346
 146  743.1793
 147  703.3824
 148  701.5109
 149  732.0165
 150  660.3076
 151  750.3467
 152  729.1949
 153  663.4769
 154  805.8524
 155  750.6832
 156  792.1713
 157  794.4774
 158  872.0666
 159  824.8585
 160  762.8213
 161  817.251
 162  758.0626
 163  734.8824
 164  765.8705
 165  765.5051
 166  712.8835
 167  746.2495
 168  672.6268
 169  698.4891
 170  729.2828
 171  791.0794
 172  723.0255
 173  685.9843
 174  710.1436
 175  640.7733
 176  656.2751
 177  760.1196
 178  727.9376
 179  724.7151
 180  764.024
 181  775.7472
 182  718.6258
 183  859.8797
 184  842.6076
 185  602.8148
 186  669.7824
 187  720.2554
 188  703.4645
 189  731.9238
 190  755.3636
 191  679.6628
 192  721.484
 193  730.8745
 194  778.7336
 195  766.0129
 196  812.6282
 197  832.3212
 198  778.4886
 199  694.3951
 200  689.2304
 201  685.5721
 202  573.0546
 203  536.9296
 204  660.1036
 205  786.9672
 206  657.0787
 207  658.762
 208  689.6549
 209  775.9783
 210  777.5046
 211  834.8552
 212  868.0009
 213  827.2274
 214  802.5063
 215  720.1337
 216  567.7436
 217  692.5881
 218  787.3158
 219  704.4394
 220  695.4365
 221  783.7176
 222  822.6614
 223  801.3229
 224  812.1603
 225  718.657
 226  742.039
 227  681.3069
 228  771.0397
 229  778.3953
 230  923.0732
 231  913.0943
 232  806.1915
 233  853.7802
 234  800.8809
 235  760.6521
 236  801.0558
 237  774.6991
 238  761.0395
 239  756.0093
 240  709.3541
 241  598.3721
 242  703.8995
 243  672.5626
 244  695.6091
 245  676.4214
 246  716.127
 247  727.64
 248  662.7192
 249  535.2321
 250  647.4772
 251  671.2705
 252  643.252
 253  718.9825
 254  675.3377
 255  816.1299
 256  761.8663
 257  662.0751
 258  639.2977
 259  732.374
 260  748.3625
 261  656.8914
 262  706.0266
 263  770.6307
 264  716.4849
 265  783.8271
 266  845.9476
 267  778.585
 268  841.6784
 269  737.4196
 270  746.9616
 271  712.6523
 272  739.8913
 273  773.0997
 274  731.3342
 275  729.2514
 276  758.6103
 277  834.218
 278  775.9368
 279  605.0593
 280  741.6407
 281  790.0671
 282  699.6978
 283  713.3582
 284  778.559
 285  701.471
 286  785.5261
 287  849.0515
 288  853.3447
 289  798.0887
 290  834.2453
 291  733.582
 292  739.8864
 293  693.9249
 294  712.1998
 295  767.1217
 296  776.8522
 297  782.9067
 298  692.9955
 299  705.6842
 300  672.3309
 301  846.5817
 302  884.9057
 303  866.8654
 304  786.5068
 305  798.9203
 306  683.1404
 307  606.6199
 308  644.9836
 309  703.7
 310  623.444
 311  604.0827
 312  690.4031
 313  660.7073
 314  606.2963
 315  648.7344
 316  538.1507
 317  583.7633
 318  773.9024
 319  709.7186
 320  724.614
 321  750.27
 322  742.1055
 323  720.317
 324  720.9025
 325  794.7662
 326  776.994
 327  663.4462
 328  711.4431
 329  698.6721
 330  784.3556
 331  748.2742
 332  679.5523
 333  663.9485
 334  672.6172
 335  673.8334
 336  594.6653
 337  670.8945
 338  755.6971
 339  723.1003
 340  786.4619
 341  674.976
 342  765.8712
 343  781.6058
 344  624.0389
 345  581.4307
 346  662.5851
 347  742.2868
 348  704.7001
 349  702.7723
 350  661.8494
 351  630.92
 352  651.9402
 353  691.7083
 354  672.1172
 355  714.7117
 356  713.6039
 357  763.5257
 358  777.1521
 359  745.8444
 360  786.5656
 361  810.9629
 362  803.3107
 363  711.9359
 364  743.5236
 365  806.326
 366  825.0432
 367  708.8579
 368  757.3752
 369  807.4705
 370  706.8721
 371  694.3472
 372  822.9097
 373  731.9706
 374  692.6787
 375  757.1668
 376  911.7418
 377  928.315
 378  805.0422
 379  755.3866
 380  683.7767
 381  737.7435
 382  724.0065
 383  663.5051
 384  764.4366
 385  846.7971
 386  728.252
 387  743.554
 388  757.8544
 389  780.6777
 390  736.1627
 391  859.4847
 392  892.8188
 393  850.0728
 394  761.2327
 395  810.98
 396  795.3546
 397  777.2036
 398  830.6869
 399  810.22
 400  774.8511
 401  816.7455
 402  764.7756
 403  845.5603
 404  779.2529
 405  642.7634
 406  747.3158
 407  828.289
 408  889.3053
 409  815.1083
 410  759.1033
 411  803.9888
 412  747.4263
 413  860.2132
 414  900.794
 415  815.8087
 416  794.0972
 417  727.2216
 418  668.345
 419  642.078
 420  659.7087
 421  810.5792
 422  802.3886
 423  859.8883
 424  839.989
 425  804.216
 426  902.767
 427  750.6883
 428  709.3789
 429  705.6529
 430  677.1181
 431  546.7309
 432  638.3334
 433  769.1076
 434  774.0583
 435  819.8111
 436  808.1032
 437  700.8391
 438  631.9049
 439  701.2013
 440  683.9408
 441  705.1151
 442  797.311
 443  811.7909
 444  729.465
 445  554.873
 446  650.7962
 447  683.3907
 448  734.7844
 449  627.5691
 450  593.3254
 451  636.3958
 452  734.9617
 453  715.6862
 454  633.526
 455  753.9139
 456  760.5703
 457  698.8346
 458  687.6311
 459  711.0057
 460  680.7171
 461  671.3254
 462  690.6088
 463  723.0121
 464  636.5062
 465  702.5655
 466  756.4709
 467  715.817
 468  669.3491
 469  669.8736
 470  633.6044
 471  698.7579
 472  717.0615
 473  789.8238
 474  755.5165
 475  731.5684
 476  612.6154
 477  545.9017
 478  548.3983
 479  686.1568
 480  797.624
 481  756.1865
 482  784.7301
 483  924.0089
 484  846.3903
 485  750.8065
 486  773.3721
 487  665.2096
 488  685.0596
 489  665.8181
 490  747.039
 491  879.083
 492  724.2136
 493  702.6735
 494  704.0897
 495  602.0112
 496  737.5247
 497  870.5194
 498  689.2474
 499  662.5889
 500  757.9256
 501  798.5268
 502  657.2566
 503  593.6343
 504  812.1875
 505  833.777
 506  690.8956
 507  704.4003
 508  755.8932
 509  640.9677
 510  687.4988
 511  643.2521
