# Input file       =  1197641248.109297_cleaned.dat
# Candidate        =  PSR_0332+5434
# Telescope        =  AR
# Epoch_topo       =  58105.588739690938
# Epoch_bary       =  N/A
# T_sample         =  0.002
# Data Folded      =  7143424
# Data Avg         =  0.0437886650637009
# Data StdDev      =  1.00017262187894 
# Profile Bins     =  512
# Profile Avg      =  610.927622486625 
# Profile StdDev   =  118.138974333858 
# Reduced chi-sqr  =  1.284
# Prob(Noise)      <  1.37e-05   (~4.2 sigma)
# P_topo (ms)      =  714.543463087351  +/- 6.13e-05
# P'_topo (s/s)    =  -0                +/- 3.32e-11
# P''_topo (s/s^2) =  0                 +/- 1.51e-14
# P_bary (ms)      =  N/A
# P'_bary (s/s)    =  N/A
# P''_bary (s/s^2) =  N/A
# P_orb (s)        =  N/A
# asin(i)/c (s)    =  N/A
# eccentricity     =  N/A
# w (rad)          =  N/A
# T_peri           =  N/A
######################################################
   0  1030.16
   1  934.8466
   2  853.308
   3  781.4024
   4  739.6174
   5  782.6912
   6  776.6014
   7  757.44
   8  728.2082
   9  647.1892
  10  690.8654
  11  681.7068
  12  703.9389
  13  724.4133
  14  657.6885
  15  727.3862
  16  719.6774
  17  688.4507
  18  651.3032
  19  754.8752
  20  747.0758
  21  758.6368
  22  702.8572
  23  589.7808
  24  681.8079
  25  620.623
  26  655.3569
  27  584.1645
  28  633.5032
  29  614.4956
  30  561.6611
  31  613.5722
  32  696.2279
  33  613.1348
  34  604.2907
  35  600.1536
  36  592.4242
  37  560.1722
  38  528.7352
  39  633.4517
  40  647.2449
  41  622.9764
  42  521.0673
  43  502.7776
  44  538.15
  45  495.0773
  46  522.5408
  47  533.2297
  48  575.0471
  49  622.3054
  50  492.1471
  51  347.3361
  52  360.2184
  53  540.7055
  54  575.7496
  55  644.2542
  56  575.0127
  57  656.2173
  58  572.8544
  59  613.0084
  60  628.0336
  61  640.1855
  62  612.5879
  63  573.1998
  64  570.7388
  65  590.5016
  66  628.509
  67  685.1605
  68  603.2998
  69  596.0038
  70  663.8289
  71  772.4203
  72  737.6485
  73  648.8482
  74  618.619
  75  614.756
  76  597.9424
  77  723.0331
  78  706.2613
  79  600.6649
  80  678.5854
  81  755.06
  82  676.8231
  83  464.9705
  84  588.4464
  85  651.2386
  86  581.6268
  87  569.7242
  88  689.5753
  89  855.2233
  90  698.2321
  91  494.5789
  92  421.3571
  93  555.5942
  94  587.5686
  95  629.7464
  96  633.2888
  97  623.2581
  98  693.7432
  99  759.3795
 100  598.6909
 101  551.5128
 102  593.7944
 103  568.4782
 104  762.0452
 105  725.2349
 106  626.2215
 107  665.7361
 108  509.7312
 109  596.2776
 110  662.817
 111  624.4552
 112  666.1057
 113  768.436
 114  720.5551
 115  688.6248
 116  698.9237
 117  556.8448
 118  612.8873
 119  587.8377
 120  574.5151
 121  667.4056
 122  742.9784
 123  523.3952
 124  509.6402
 125  563.9064
 126  553.0566
 127  623.6486
 128  605.1608
 129  676.1525
 130  667.1262
 131  711.0019
 132  603.9142
 133  571.7737
 134  481.2889
 135  528.9772
 136  670.829
 137  592.9969
 138  661.7158
 139  645.2924
 140  743.9857
 141  660.3651
 142  545.2692
 143  540.7277
 144  494.765
 145  561.0724
 146  623.4871
 147  629.4457
 148  686.9832
 149  600.4681
 150  528.8229
 151  501.1609
 152  466.9573
 153  650.4467
 154  699.7263
 155  619.3197
 156  569.4046
 157  538.2131
 158  459.0577
 159  540.4871
 160  578.1283
 161  506.2766
 162  490.0237
 163  612.2031
 164  682.8999
 165  632.7594
 166  485.8995
 167  589.5345
 168  514.028
 169  408.1831
 170  460.8228
 171  559.1774
 172  538.8444
 173  579.203
 174  584.5676
 175  596.7572
 176  540.5235
 177  507.8496
 178  681.5406
 179  762.4636
 180  760.8081
 181  698.6071
 182  649.3496
 183  608.8691
 184  578.035
 185  619.8965
 186  671.8234
 187  545.7956
 188  615.0677
 189  746.6179
 190  590.626
 191  436.6878
 192  422.7935
 193  573.4331
 194  651.4686
 195  612.3292
 196  658.4475
 197  733.316
 198  604.3068
 199  513.5717
 200  451.8484
 201  565.8375
 202  602.2485
 203  600.8333
 204  646.4953
 205  590.0462
 206  561.304
 207  511.4784
 208  502.9467
 209  594.7782
 210  638.1619
 211  618.9704
 212  528.7439
 213  517.4729
 214  607.9605
 215  567.7156
 216  506.5951
 217  462.7033
 218  495.6515
 219  500.1171
 220  553.002
 221  643.9714
 222  663.4433
 223  540.0328
 224  398.4815
 225  615.4367
 226  687.2031
 227  631.7952
 228  711.4141
 229  611.062
 230  532.3119
 231  600.3599
 232  611.8757
 233  569.5558
 234  516.8555
 235  459.8141
 236  573.2533
 237  609.7635
 238  613.7983
 239  607.855
 240  554.1389
 241  647.3715
 242  642.0579
 243  577.0411
 244  579.4641
 245  636.4433
 246  685.312
 247  618.2989
 248  594.1049
 249  612.724
 250  695.4734
 251  572.1558
 252  485.5641
 253  592.4332
 254  690.6212
 255  672.3801
 256  480.1519
 257  489.899
 258  578.7767
 259  467.9735
 260  433.2804
 261  540.5334
 262  451.9963
 263  444.8326
 264  534.8909
 265  516.1704
 266  510.8411
 267  530.9993
 268  482.7581
 269  411.4508
 270  547.2574
 271  546.9049
 272  588.6807
 273  587.8665
 274  565.679
 275  649.4057
 276  532.9654
 277  574.6829
 278  618.1584
 279  664.2494
 280  629.3911
 281  498.4046
 282  559.6134
 283  586.7977
 284  626.8143
 285  521.8972
 286  535.1125
 287  526.7686
 288  593.2875
 289  631.6329
 290  578.392
 291  591.3608
 292  573.2346
 293  616.4448
 294  680.9428
 295  732.1083
 296  661.5032
 297  624.9805
 298  572.7043
 299  584.6163
 300  611.3044
 301  595.801
 302  757.8273
 303  745.4266
 304  668.0646
 305  639.04
 306  571.3907
 307  503.1542
 308  503.225
 309  536.6183
 310  535.3054
 311  536.5758
 312  583.1124
 313  614.666
 314  541.2052
 315  579.9311
 316  551.8528
 317  461.8426
 318  418.9115
 319  426.4987
 320  571.4833
 321  602.6759
 322  574.8353
 323  558.2736
 324  575.1192
 325  534.1695
 326  569.6888
 327  606.5594
 328  724.7736
 329  684.6456
 330  632.7545
 331  422.6683
 332  474.8124
 333  536.1569
 334  532.7484
 335  509.4516
 336  591.7489
 337  585.5097
 338  548.4655
 339  545.9987
 340  564.3459
 341  546.1384
 342  610.4997
 343  633.2889
 344  557.0591
 345  553.511
 346  649.42
 347  691.358
 348  666.5651
 349  569.7643
 350  560.9114
 351  477.7938
 352  590.5831
 353  670.2645
 354  601.0558
 355  553.573
 356  600.5126
 357  574.7183
 358  647.813
 359  569.9725
 360  562.3169
 361  589.5176
 362  597.321
 363  507.7168
 364  457.014
 365  411.1985
 366  493.4705
 367  635.6078
 368  584.2144
 369  561.0285
 370  565.6047
 371  469.0708
 372  282.9043
 373  443.7899
 374  534.5282
 375  560.8981
 376  690.4655
 377  699.3598
 378  637.8234
 379  578.7
 380  515.187
 381  539.1017
 382  529.7717
 383  539.0035
 384  539.6966
 385  563.1565
 386  615.3394
 387  591.8862
 388  636.8906
 389  633.4591
 390  570.441
 391  476.4774
 392  613.5322
 393  650.0505
 394  693.2585
 395  661.3959
 396  676.2935
 397  607.1993
 398  497.4996
 399  420.0214
 400  572.0715
 401  661.8651
 402  743.6429
 403  759.3116
 404  686.9348
 405  523.1733
 406  504.7155
 407  573.1628
 408  601.016
 409  667.7142
 410  618.1223
 411  705.4909
 412  710.0674
 413  617.6917
 414  498.8342
 415  561.5142
 416  583.3336
 417  564.6161
 418  547.4662
 419  559.7134
 420  505.5159
 421  461.0493
 422  569.041
 423  621.666
 424  721.8027
 425  670.3462
 426  691.6759
 427  739.3192
 428  762.8732
 429  589.5051
 430  623.015
 431  529.9612
 432  487.1716
 433  585.992
 434  612.6459
 435  530.1183
 436  640.1668
 437  717.3277
 438  608.9183
 439  524.4434
 440  608.6947
 441  612.4128
 442  572.4756
 443  551.2289
 444  764.7645
 445  624.4778
 446  483.017
 447  506.7546
 448  465.0829
 449  491.5031
 450  513.3169
 451  599.0802
 452  676.8869
 453  658.2844
 454  546.0626
 455  553.9887
 456  542.713
 457  683.6273
 458  789.0754
 459  843.2404
 460  816.9758
 461  866.0969
 462  720.6743
 463  643.169
 464  686.2886
 465  615.2148
 466  553.9882
 467  578.0013
 468  759.3311
 469  673.1242
 470  601.9742
 471  649.8717
 472  710.4338
 473  648.3538
 474  666.6674
 475  731.3346
 476  796.3066
 477  764.2932
 478  723.4727
 479  756.7538
 480  674.9027
 481  707.7333
 482  770.0621
 483  670.4208
 484  730.3349
 485  726.5278
 486  672.9222
 487  662.5195
 488  588.2127
 489  648.4109
 490  701.5948
 491  662.2669
 492  763.7818
 493  801.5551
 494  688.7965
 495  688.4934
 496  546.2104
 497  684.9855
 498  622.7968
 499  624.5512
 500  776.7036
 501  840.2124
 502  771.7307
 503  726.9165
 504  773.7323
 505  729.8387
 506  765.5655
 507  834.9503
 508  837.5116
 509  836.3405
 510  947.7363
 511  1147.989
