# Input file       =  1197067746.109697_cleaned.dat
# Candidate        =  PSR_0332+5434
# Telescope        =  AR
# Epoch_topo       =  58098.950985065938
# Epoch_bary       =  N/A
# T_sample         =  0.002
# Data Folded      =  7340032
# Data Avg         =  0.285988995203558
# Data StdDev      =  4.92869457241355 
# Profile Bins     =  256
# Profile Avg      =  8199.97860987124 
# Profile StdDev   =  834.566408115206 
# Reduced chi-sqr  =  0.658
# Prob(Noise)      <  1   (~0.0 sigma)
# P_topo (ms)      =  714.537213084829  +/- 0.00044
# P'_topo (s/s)    =  -0                +/- 2.32e-10
# P''_topo (s/s^2) =  0                 +/- 1.02e-13
# P_bary (ms)      =  N/A
# P'_bary (s/s)    =  N/A
# P''_bary (s/s^2) =  N/A
# P_orb (s)        =  N/A
# asin(i)/c (s)    =  N/A
# eccentricity     =  N/A
# w (rad)          =  N/A
# T_peri           =  N/A
######################################################
   0  8529.256
   1  9498.203
   2  9465.853
   3  8436.893
   4  8364.825
   5  8721.914
   6  7240.03
   7  7553.386
   8  7663.957
   9  8016.887
  10  7139.026
  11  7634.836
  12  7782.731
  13  8099.773
  14  7422.489
  15  7991.028
  16  7790.61
  17  8335.551
  18  8811.217
  19  8875.235
  20  8397.78
  21  7972.328
  22  8567.574
  23  7985.317
  24  8475.338
  25  7963.53
  26  8444.783
  27  7655.331
  28  7968.785
  29  9041.99
  30  8973.508
  31  8485.181
  32  8448.075
  33  8600.947
  34  8533.754
  35  8232.38
  36  9146.036
  37  9023.239
  38  8972.386
  39  7704.088
  40  7679.375
  41  7328.585
  42  7379.521
  43  6937.879
  44  7306.477
  45  8194.035
  46  8011.862
  47  7866.529
  48  8472.372
  49  7975.83
  50  8424.984
  51  8273.322
  52  7766.18
  53  7833.798
  54  8188.889
  55  8500.624
  56  8329.149
  57  8646.064
  58  7689.893
  59  8209.558
  60  7930.415
  61  7608.542
  62  7943.764
  63  7730.851
  64  7880.089
  65  8116.653
  66  8773.352
  67  8041.779
  68  8358.808
  69  8206.419
  70  8276.519
  71  7934.046
  72  8134.809
  73  8559.489
  74  9458.131
  75  8321.434
  76  7993.476
  77  8142.976
  78  9152.295
  79  8522.331
  80  8564.742
  81  9149.038
  82  8905.652
  83  8637.264
  84  8480.595
  85  9017.125
  86  8496.457
  87  8925.746
  88  8091.214
  89  9265.344
  90  9414.052
  91  8701.579
  92  8908.533
  93  8986.968
  94  8509.696
  95  7739.02
  96  9079.088
  97  9303.451
  98  8841.692
  99  8505.922
 100  7739.715
 101  6891.277
 102  7779.723
 103  8750.2
 104  8631.083
 105  7785.983
 106  7764.096
 107  8166.615
 108  6972.582
 109  7439.78
 110  7089.532
 111  7533.946
 112  7907.449
 113  7659.429
 114  7496.831
 115  8165.232
 116  8197.585
 117  8332.324
 118  8154.455
 119  8270.128
 120  7822.584
 121  8162.605
 122  8960.98
 123  8174.364
 124  7010.932
 125  7782.462
 126  8252.65
 127  8915.827
 128  8492.647
 129  7787.443
 130  8040.561
 131  9298.992
 132  8473.351
 133  8265.846
 134  9450.457
 135  8157.688
 136  9186.281
 137  7397.073
 138  8760.375
 139  8391.619
 140  7873.47
 141  7483.359
 142  7661.543
 143  7311.813
 144  6519.783
 145  6830.169
 146  7746.32
 147  7380.557
 148  7173.817
 149  7383.083
 150  7424.513
 151  7884.174
 152  8093.25
 153  8837.118
 154  8696.434
 155  8738.834
 156  10091.03
 157  9869.865
 158  7851.29
 159  7341.616
 160  6892.601
 161  7635.544
 162  7915.24
 163  8192.363
 164  8029.878
 165  8757.945
 166  8259.426
 167  8717.299
 168  8110.714
 169  7476.831
 170  8209.894
 171  8562.61
 172  8800.542
 173  8292.399
 174  9450.145
 175  8440.277
 176  7941.223
 177  7755.069
 178  8438.502
 179  8236.014
 180  7021.271
 181  8119.055
 182  7760.201
 183  8158.794
 184  7859.831
 185  8841.754
 186  7986.234
 187  8492.889
 188  7937.667
 189  8407.064
 190  8399.828
 191  7766.937
 192  8482.988
 193  8172.228
 194  8009.777
 195  7887.107
 196  7636.786
 197  7053.78
 198  8109.783
 199  8949.125
 200  8579.449
 201  8030.678
 202  8500.369
 203  8374.251
 204  8315.275
 205  7116.94
 206  8021.716
 207  7708.68
 208  8148.108
 209  8199.147
 210  8588.988
 211  7839.753
 212  7806.494
 213  9313.192
 214  8478.986
 215  7391.976
 216  7371.136
 217  8043.22
 218  8123.712
 219  8381.441
 220  8598.337
 221  9035.576
 222  8491.591
 223  7995.53
 224  8339.267
 225  8139.831
 226  7995.972
 227  8450.994
 228  8082.193
 229  7572.219
 230  8237.93
 231  8166.113
 232  8305.942
 233  9055.57
 234  7615.261
 235  8119.934
 236  8502.832
 237  8336.461
 238  8386.377
 239  8604.718
 240  9078.062
 241  8089.031
 242  8085.846
 243  7608.686
 244  8544.665
 245  7735.272
 246  8186.014
 247  8822.659
 248  8508.058
 249  7484.274
 250  7890.766
 251  8179.457
 252  8600.545
 253  8673.633
 254  8702.555
 255  8176.148
