# Input file       =  1197828070.101624_cleaned.dat
# Candidate        =  PSR_0332+5434
# Telescope        =  AR
# Epoch_topo       =  58107.751031268795
# Epoch_bary       =  N/A
# T_sample         =  0.002
# Data Folded      =  7340032
# Data Avg         =  0.121144001245349
# Data StdDev      =  3.58545024017168 
# Profile Bins     =  512
# Profile Avg      =  1736.86229016007 
# Profile StdDev   =  429.296844033561 
# Reduced chi-sqr  =  0.697
# Prob(Noise)      <  1   (~0.0 sigma)
# P_topo (ms)      =  714.545566329388  +/- 0.00011
# P'_topo (s/s)    =  -0                +/- 5.79e-11
# P''_topo (s/s^2) =  0                 +/- 2.56e-14
# P_bary (ms)      =  N/A
# P'_bary (s/s)    =  N/A
# P''_bary (s/s^2) =  N/A
# P_orb (s)        =  N/A
# asin(i)/c (s)    =  N/A
# eccentricity     =  N/A
# w (rad)          =  N/A
# T_peri           =  N/A
######################################################
   0  1914.425
   1  1744.969
   2  1558.569
   3  1859.746
   4  2026.657
   5  1714.332
   6  1718.995
   7  1534.795
   8  1427.287
   9  1533.776
  10  1644.057
  11  1599.181
  12  1547.398
  13  1572.008
  14  1711.716
  15  1882.292
  16  1844.286
  17  1373.831
  18  1307.977
  19  1562.951
  20  1574.69
  21  1456.448
  22  1349.422
  23  1657.744
  24  1749.123
  25  1493.808
  26  1147.313
  27  1206.454
  28  1610.08
  29  1975.224
  30  2183.633
  31  2040.062
  32  1583.314
  33  1548.102
  34  1864.261
  35  2088.803
  36  2047.145
  37  2101.388
  38  1879.593
  39  1619.422
  40  1696.354
  41  1895.528
  42  1899.18
  43  1885.358
  44  1773.004
  45  1877.051
  46  1641.077
  47  1655.796
  48  1489.462
  49  1469.906
  50  1399.059
  51  1612.493
  52  2072.7
  53  2078.036
  54  1683.321
  55  1756.816
  56  1427.784
  57  1302.344
  58  1626.926
  59  2070.82
  60  1937.948
  61  1786.069
  62  1754.477
  63  1804.286
  64  1746.723
  65  1763.135
  66  1695.006
  67  1607.453
  68  1377.945
  69  1377.656
  70  1432.882
  71  1534.851
  72  1274.928
  73  1200.469
  74  1522.103
  75  1338.814
  76  974.3713
  77  1232.347
  78  1437.351
  79  1333.75
  80  1586.417
  81  1466.222
  82  1465.065
  83  1457.312
  84  1754.159
  85  1708.329
  86  1700.993
  87  1794.952
  88  2007.012
  89  1836.76
  90  1528.442
  91  1424.804
  92  1699.128
  93  1715.335
  94  1981.05
  95  1928.148
  96  1682.579
  97  1394.868
  98  1396.891
  99  1343.262
 100  1488.255
 101  1329.128
 102  1419.597
 103  1341.832
 104  1377.517
 105  1289.47
 106  1160.767
 107  1321.586
 108  1523.509
 109  1889.663
 110  2114.321
 111  2174.951
 112  1718.941
 113  1290.471
 114  1095.723
 115  1309.026
 116  1545.929
 117  1587.741
 118  2014.922
 119  1670.772
 120  1695.968
 121  1839.208
 122  1662.825
 123  1464.973
 124  1671.525
 125  1841.22
 126  1689.119
 127  1583.899
 128  1588.104
 129  1835.316
 130  1543.712
 131  1374.533
 132  1603.296
 133  1607.703
 134  1619.003
 135  1669.106
 136  1625.033
 137  1326.484
 138  1452.214
 139  1735.685
 140  1886.373
 141  2064.879
 142  1977.419
 143  1833.651
 144  1535.495
 145  1419.641
 146  1439.118
 147  1702.757
 148  1654.601
 149  1587.268
 150  1673.125
 151  1667.232
 152  1457.468
 153  1602.587
 154  1303.448
 155  1149.588
 156  1135.53
 157  1059.91
 158  1391.824
 159  1692.308
 160  1581.208
 161  1403.208
 162  1286.494
 163  1464.375
 164  1478.535
 165  1539.621
 166  1896.569
 167  1806.947
 168  1747.135
 169  1564.424
 170  1492.213
 171  1778.336
 172  1657.931
 173  1889.382
 174  1856.048
 175  1665.912
 176  1569.803
 177  1289.815
 178  1720.84
 179  1866.106
 180  2247.432
 181  2104.654
 182  2216.671
 183  1987.19
 184  1405.489
 185  1386.504
 186  1253.659
 187  1577.055
 188  1756.426
 189  2013.164
 190  2146.323
 191  1876.059
 192  1926.852
 193  1672.934
 194  1812.855
 195  2111.676
 196  1965.429
 197  1796.733
 198  1738.325
 199  1605.645
 200  1693.391
 201  2015.101
 202  1653.953
 203  1609.473
 204  1824.112
 205  1775.877
 206  1670.304
 207  1495.362
 208  1475.032
 209  1547.208
 210  1718.827
 211  1928.402
 212  1818.437
 213  1362.128
 214  1244.124
 215  1750.969
 216  1941.763
 217  1805
 218  1557.788
 219  1489.08
 220  1444.14
 221  1614.675
 222  1628.239
 223  1617.36
 224  1317.41
 225  1725.884
 226  1937.931
 227  1766.404
 228  1362.595
 229  1519.917
 230  1607.859
 231  1845.495
 232  1692.004
 233  1716.703
 234  1459.7
 235  1556.804
 236  1727.904
 237  1621.305
 238  1829.609
 239  1774.973
 240  2013.597
 241  1825.918
 242  1389.001
 243  1517.902
 244  1717.281
 245  2227.837
 246  2105.845
 247  1867.006
 248  1866.493
 249  1746.513
 250  1621.868
 251  1889.325
 252  1896.088
 253  1838.186
 254  1600.679
 255  1566.093
 256  1681.606
 257  1891.8
 258  2009.821
 259  1878.128
 260  1664.594
 261  1619.896
 262  1682.222
 263  1687.974
 264  1481.265
 265  1508.733
 266  1722.106
 267  1631.646
 268  1529.863
 269  1751.855
 270  1687.885
 271  1649.926
 272  1533.918
 273  1655.029
 274  1605.792
 275  1817.905
 276  1769.105
 277  1717.848
 278  1679.508
 279  1630.046
 280  1722.463
 281  1858.806
 282  2104.095
 283  1929.485
 284  1824.974
 285  1843.721
 286  1576.135
 287  1556.968
 288  1504.805
 289  1549.735
 290  1711.075
 291  1766.342
 292  1988.806
 293  1542.938
 294  1271.514
 295  1673.271
 296  1606.955
 297  1454.885
 298  2026.458
 299  2044.258
 300  1614.673
 301  1730.222
 302  1879.309
 303  2000.371
 304  1931.809
 305  1736.862
 306  2008.526
 307  2015.549
 308  2315.17
 309  2472.501
 310  2453.87
 311  2856.646
 312  2907.149
 313  2712.581
 314  2299.939
 315  1804.003
 316  1866.608
 317  1872.169
 318  1750.535
 319  1887.681
 320  1995.3
 321  1655.857
 322  1594.113
 323  1994.107
 324  2078.093
 325  1785.347
 326  1668.691
 327  1920.444
 328  1780.934
 329  1351.19
 330  1789.488
 331  1876.01
 332  1980.279
 333  2181.724
 334  2330.232
 335  2071.808
 336  1697.508
 337  1787.688
 338  1976.411
 339  2043.383
 340  2001.229
 341  1867.252
 342  2094.35
 343  1883.995
 344  1756.35
 345  1778.577
 346  1804.908
 347  1664.961
 348  1942.41
 349  1888.303
 350  1720.636
 351  1817.654
 352  1820.763
 353  1684.211
 354  1735.109
 355  1674.007
 356  1585.973
 357  1653.25
 358  2027.256
 359  2014.143
 360  2116.081
 361  1908.103
 362  1927.251
 363  1651.514
 364  1749.536
 365  1804.617
 366  1737.233
 367  1731.621
 368  1571.553
 369  1724.413
 370  2073.659
 371  1898.113
 372  1839.716
 373  2059.601
 374  2095.986
 375  1859.358
 376  1901.246
 377  2033.582
 378  1658.626
 379  1748.003
 380  1769.184
 381  1803.16
 382  1692.281
 383  1629.033
 384  1386.76
 385  1221.221
 386  1298.297
 387  1428.756
 388  1877.961
 389  1738.142
 390  1632.948
 391  1581.142
 392  1656.849
 393  1519.484
 394  1834.339
 395  2035.655
 396  1907.495
 397  2013.535
 398  1746.189
 399  1581.514
 400  1823.801
 401  2022.955
 402  2051.88
 403  2232.418
 404  2163.929
 405  2216.154
 406  2176.638
 407  2019.389
 408  1822.088
 409  2046.847
 410  2098.304
 411  2153.747
 412  2104.562
 413  2071.161
 414  1605.278
 415  1602.505
 416  1917.166
 417  1814.564
 418  1664.098
 419  1743.645
 420  1819.711
 421  1588.471
 422  1574.733
 423  1341.726
 424  1544.878
 425  1984.311
 426  1769.46
 427  1530.359
 428  1748.662
 429  1545.314
 430  1524.628
 431  1714.71
 432  1555.714
 433  1716.81
 434  1805.656
 435  2043.738
 436  1791.846
 437  1582.104
 438  1588.215
 439  1733.496
 440  1703.854
 441  1896.04
 442  1842.52
 443  2075.272
 444  1667.268
 445  1683.373
 446  1971.593
 447  1884.998
 448  2018.751
 449  1942.11
 450  2172.455
 451  1696.027
 452  1657.784
 453  1960.039
 454  2102.825
 455  2306.2
 456  2120.007
 457  1999.48
 458  1966.317
 459  1731.12
 460  2107.32
 461  2050.13
 462  1690.043
 463  1839.615
 464  1889.531
 465  1581.438
 466  1595.234
 467  1313.546
 468  1551.645
 469  1743.644
 470  1772.117
 471  2101.648
 472  1981.939
 473  1860.806
 474  1957.722
 475  1779.862
 476  1806.193
 477  2132.73
 478  2061.659
 479  2303.725
 480  2240.547
 481  2112.829
 482  2179.535
 483  2073.287
 484  1806.376
 485  1880.589
 486  1630.7
 487  1706.265
 488  1723.239
 489  1855.307
 490  2061.817
 491  2054.973
 492  1997.433
 493  1562.578
 494  1624.787
 495  1543.47
 496  1598.958
 497  1533.605
 498  1471.434
 499  1838.522
 500  1787.293
 501  1592.575
 502  1455.319
 503  1250.06
 504  1470.068
 505  1968.405
 506  1775.971
 507  1649.283
 508  1810.43
 509  1849.825
 510  1467.566
 511  1857.461
