# Input file       =  1197727347.096942_cleaned.dat
# Candidate        =  PSR_0332+5434
# Telescope        =  AR
# Epoch_topo       =  58106.585255751641
# Epoch_bary       =  N/A
# T_sample         =  0.002
# Data Folded      =  7143424
# Data Avg         =  0.0963126794785396
# Data StdDev      =  5.62276229270993 
# Profile Bins     =  512
# Profile Avg      =  1343.83710164346 
# Profile StdDev   =  664.152722892915 
# Reduced chi-sqr  =  0.668
# Prob(Noise)      <  1   (~0.0 sigma)
# P_topo (ms)      =  714.544433289446  +/- 6.35e-05
# P'_topo (s/s)    =  -0                +/- 3.44e-11
# P''_topo (s/s^2) =  0                 +/- 1.56e-14
# P_bary (ms)      =  N/A
# P'_bary (s/s)    =  N/A
# P''_bary (s/s^2) =  N/A
# P_orb (s)        =  N/A
# asin(i)/c (s)    =  N/A
# eccentricity     =  N/A
# w (rad)          =  N/A
# T_peri           =  N/A
######################################################
   0  1399.171
   1  1162.788
   2  943.2716
   3  1129.141
   4  1398.925
   5  1326.864
   6  1087.661
   7  1563.963
   8  1689.344
   9  1150.975
  10  1442.49
  11  1419.042
  12  1112.705
  13  1389.29
  14  1933.262
  15  2082.167
  16  1474.827
  17  1015.723
  18  942.9219
  19  1300.933
  20  613.0123
  21  1454.675
  22  1685.238
  23  1800.279
  24  1896.543
  25  1459.952
  26  1228.888
  27  830.236
  28  939.5912
  29  1411.205
  30  1455.595
  31  1767.865
  32  1942.952
  33  1989.185
  34  1177.993
  35  952.7819
  36  962.0853
  37  1299.038
  38  627.2431
  39  1393.454
  40  2258.681
  41  2163.371
  42  1934.926
  43  1307.939
  44  1140.194
  45  1094.91
  46  1176.205
  47  1086.417
  48  1245.308
  49  1727.106
  50  1391.227
  51  1445.459
  52  1666.247
  53  1363.012
  54  1387.344
  55  1569.328
  56  1703.139
  57  1463.378
  58  1966.449
  59  1491.88
  60  1144.927
  61  921.6936
  62  746.1439
  63  548.5833
  64  532.9621
  65  1043.847
  66  924.3616
  67  1019.496
  68  1044.947
  69  1125.767
  70  1249.327
  71  1101.01
  72  1282.056
  73  1202.857
  74  1387.688
  75  1559.344
  76  1604.529
  77  1645.441
  78  1395.733
  79  996.6431
  80  668.0507
  81  1220.64
  82  1203.277
  83  1159.221
  84  1035.067
  85  1063.796
  86  1591.634
  87  1182.481
  88  1407.79
  89  1549.324
  90  1438.765
  91  895.0709
  92  648.6475
  93  1099.565
  94  1461.064
  95  1586.387
  96  1140.589
  97  1135.712
  98  1436.748
  99  1867.642
 100  1524.373
 101  1155.791
 102  1620.805
 103  1730.683
 104  1604.64
 105  1717.56
 106  2020.636
 107  2362.971
 108  1909.824
 109  780.9033
 110  782.4773
 111  1351.543
 112  1313.338
 113  837.6317
 114  1206.617
 115  1844.297
 116  1267.756
 117  600.9498
 118  826.6808
 119  983.5156
 120  1175.761
 121  1047.538
 122  1467.64
 123  1616.83
 124  1738.434
 125  1369.441
 126  818.0979
 127  995.1443
 128  924.6422
 129  1175.795
 130  1077.98
 131  1535.75
 132  1707.149
 133  1337.398
 134  1283.968
 135  1148.842
 136  1271.083
 137  1054.114
 138  1331.297
 139  1790.223
 140  1507.135
 141  1076.71
 142  836.0447
 143  945.1125
 144  921.8974
 145  748.2589
 146  990.5936
 147  1614.011
 148  1725.7
 149  1219.802
 150  971.0503
 151  966.1489
 152  690.6832
 153  995.9402
 154  1357.576
 155  1485.24
 156  1773.831
 157  1391.256
 158  1091.621
 159  1108.926
 160  1395.827
 161  1503.133
 162  1277.221
 163  907.8964
 164  1160.84
 165  1246.4
 166  693.7635
 167  904.0974
 168  1536.99
 169  1526.494
 170  1382.94
 171  1426.563
 172  1949.385
 173  2053.962
 174  1439.039
 175  1208.176
 176  1214.73
 177  1276.017
 178  1019.56
 179  1063.697
 180  1399.998
 181  1667.469
 182  1751.827
 183  1332.568
 184  1183.794
 185  1469.335
 186  1413.911
 187  1563.397
 188  1661.706
 189  2337.712
 190  2189.932
 191  1006.827
 192  1059.614
 193  1234.659
 194  1737.982
 195  1369.114
 196  1453.5
 197  1816.475
 198  1337.778
 199  847.4213
 200  996.1289
 201  1379.406
 202  1313.326
 203  1128.197
 204  973.0045
 205  1459.009
 206  1504.616
 207  1310.859
 208  1239.253
 209  722.3161
 210  942.5268
 211  887.5477
 212  1092.661
 213  1619.498
 214  1785.328
 215  1948.857
 216  809.785
 217  1144.583
 218  1264.512
 219  1621.699
 220  1611.755
 221  1734.527
 222  1514.724
 223  919.7687
 224  946.6228
 225  1021.547
 226  863.653
 227  716.3561
 228  669.3755
 229  936.9048
 230  1193.682
 231  1309.765
 232  1015.183
 233  798.9824
 234  970.9653
 235  1123.9
 236  1163.895
 237  924.4118
 238  1186.98
 239  1247.169
 240  1395.009
 241  541.2657
 242  625.1026
 243  647.8224
 244  1280.289
 245  1235.139
 246  1044.762
 247  1036.444
 248  826.6323
 249  631.5552
 250  956.4984
 251  1360.241
 252  1197.814
 253  995.1324
 254  1573.61
 255  1395.6
 256  1466.675
 257  1085.481
 258  1427.226
 259  1280.185
 260  1363.8
 261  1613.513
 262  1254.866
 263  1218.976
 264  1014.626
 265  1015.06
 266  646.4335
 267  1127.702
 268  1280.745
 269  1243.329
 270  1329.822
 271  1624.033
 272  1980.06
 273  1709.009
 274  1380.67
 275  1505.609
 276  1363.259
 277  1067.631
 278  737.3052
 279  1160.319
 280  1442.618
 281  1588.764
 282  1387.302
 283  1663.369
 284  1192.539
 285  1009.47
 286  1194.027
 287  1936.883
 288  2044.545
 289  1949.055
 290  1740.129
 291  1583.515
 292  1274.1
 293  1218.176
 294  1875.05
 295  1873.128
 296  1766.203
 297  1795.825
 298  1590.209
 299  1421.419
 300  1976.501
 301  1926.56
 302  1942.002
 303  2119.851
 304  3031.869
 305  3528.229
 306  3494.496
 307  3013.404
 308  1946.358
 309  1063.67
 310  920.1976
 311  1365.759
 312  1880.355
 313  1786.066
 314  1621.939
 315  1573.439
 316  1686.807
 317  1298.457
 318  1465.224
 319  1177.239
 320  1524.999
 321  1961.086
 322  1596.646
 323  1475.949
 324  902.4378
 325  1076.284
 326  1396.066
 327  1079.467
 328  1184.621
 329  1209.568
 330  1611.544
 331  1057.21
 332  668.074
 333  1297.578
 334  1456.179
 335  1325.849
 336  1099.935
 337  2057.708
 338  2104.205
 339  1077.67
 340  1139.472
 341  1212.582
 342  1267.658
 343  1129.939
 344  1378.056
 345  1246.637
 346  1579.32
 347  1703.052
 348  1324.394
 349  1453.061
 350  1681.535
 351  1751.551
 352  921.8461
 353  1162.256
 354  1256.284
 355  1175.856
 356  1332.427
 357  706.5671
 358  1344.885
 359  1432.035
 360  885.1843
 361  1085.854
 362  1851.113
 363  1268.048
 364  918.6757
 365  859.9072
 366  1163.166
 367  1286.214
 368  1365.811
 369  2331.556
 370  1970.683
 371  1747.163
 372  1340.499
 373  1090.734
 374  1411.797
 375  1641.12
 376  1943.475
 377  1635.818
 378  1088.048
 379  1220.76
 380  1358.568
 381  1470.388
 382  1377.794
 383  1650.32
 384  1320.552
 385  1377.705
 386  1444.301
 387  1727.016
 388  1689.921
 389  1399.61
 390  1371.255
 391  1225.443
 392  1374.605
 393  1102.95
 394  1320.538
 395  1736.341
 396  1456.143
 397  1384.432
 398  1190.607
 399  710.1704
 400  1073.475
 401  1076.458
 402  1226.032
 403  1759.867
 404  1765.365
 405  1689.332
 406  1115.381
 407  606.0265
 408  1323.76
 409  1428.611
 410  1327.57
 411  1658.51
 412  1377.09
 413  987.6741
 414  986.698
 415  1051.183
 416  1217.87
 417  996.3159
 418  1099.272
 419  1301.968
 420  1507.944
 421  1765.971
 422  1539.013
 423  1485.772
 424  1423.149
 425  1628.337
 426  1455.174
 427  1102.843
 428  1416.55
 429  1782.883
 430  2222.926
 431  1436.543
 432  1245.029
 433  1480.481
 434  1401.198
 435  1296.179
 436  1722.047
 437  2106.489
 438  1339.636
 439  1017.625
 440  846.3749
 441  1206.46
 442  1170.064
 443  996.0482
 444  685.0748
 445  1224.718
 446  1454.825
 447  1092.731
 448  1120.664
 449  830.5271
 450  1326.332
 451  1563.458
 452  1670.632
 453  1528.953
 454  1335.376
 455  1661.424
 456  1204.827
 457  1403.661
 458  1862.497
 459  2190.247
 460  1335.681
 461  1103.152
 462  1935.613
 463  1290.167
 464  916.1444
 465  1433.656
 466  2129.277
 467  1709.488
 468  1651.126
 469  1814.832
 470  1775.146
 471  1838.274
 472  1053.399
 473  1259.515
 474  533.4595
 475  546.6096
 476  1045.026
 477  1285.78
 478  1586.706
 479  1448.155
 480  1579.94
 481  1157.34
 482  1023.852
 483  957.1928
 484  790.2048
 485  973.0892
 486  1698.406
 487  1909.39
 488  1476.648
 489  1095.693
 490  1763.395
 491  1233.714
 492  666.871
 493  794.0633
 494  1455.357
 495  1320.49
 496  1483.901
 497  1390.459
 498  968.055
 499  795.6146
 500  820.5486
 501  1196.117
 502  1840.601
 503  1714.314
 504  1575.2
 505  1189.14
 506  1105.562
 507  1186.758
 508  1459.404
 509  1189.516
 510  1063.598
 511  1031.723
