# Input file       =  1197727347.096942_cleaned.dat
# Candidate        =  PSR_0332+5434
# Telescope        =  AR
# Epoch_topo       =  58106.585255751641
# Epoch_bary       =  N/A
# T_sample         =  0.002
# Data Folded      =  7143424
# Data Avg         =  0.0963126794785396
# Data StdDev      =  5.62276229270993 
# Profile Bins     =  512
# Profile Avg      =  1343.83710162288 
# Profile StdDev   =  664.152722892915 
# Reduced chi-sqr  =  0.673
# Prob(Noise)      <  1   (~0.0 sigma)
# P_topo (ms)      =  714.544433410727  +/- 6.38e-05
# P'_topo (s/s)    =  -0                +/- 3.46e-11
# P''_topo (s/s^2) =  0                 +/- 1.57e-14
# P_bary (ms)      =  N/A
# P'_bary (s/s)    =  N/A
# P''_bary (s/s^2) =  N/A
# P_orb (s)        =  N/A
# asin(i)/c (s)    =  N/A
# eccentricity     =  N/A
# w (rad)          =  N/A
# T_peri           =  N/A
######################################################
   0  1119.303
   1  1020.074
   2  1324.599
   3  1497.45
   4  1015.939
   5  1060.734
   6  1096.756
   7  1561.998
   8  888.2341
   9  1082.215
  10  1208.261
  11  1411.026
  12  1146.494
  13  1266.037
  14  1911.421
  15  1240.217
  16  1221.055
  17  1457.463
  18  1319.026
  19  1250.398
  20  1542.923
  21  2219.118
  22  1686.97
  23  1398.517
  24  631.0994
  25  1354.941
  26  852.8447
  27  941.1448
  28  1756.972
  29  1587.681
  30  2094.731
  31  1551.131
  32  1436.853
  33  894.5726
  34  892.0441
  35  1162.588
  36  1392.489
  37  1677.893
  38  1920.121
  39  2067.027
  40  1437.345
  41  1058.692
  42  902.7716
  43  1327.316
  44  877.9556
  45  742.127
  46  2120.75
  47  2160.694
  48  2169.217
  49  1478.377
  50  1320.927
  51  938.069
  52  1253.248
  53  1073.285
  54  1139.808
  55  1513.566
  56  1561.611
  57  1391.643
  58  1677.808
  59  1407.01
  60  1416.745
  61  1425.048
  62  1805.09
  63  1462.512
  64  1652.636
  65  1894.26
  66  1225.447
  67  1030.56
  68  799.942
  69  752.2842
  70  313.3481
  71  888.2736
  72  973.2588
  73  1087.775
  74  1000.281
  75  948.2891
  76  1235.38
  77  1208.731
  78  1297.822
  79  1092.12
  80  1361.973
  81  1494.771
  82  1612.307
  83  1551.008
  84  1532.967
  85  1240.352
  86  758.3165
  87  956.8799
  88  1285.049
  89  1164.814
  90  1085.849
  91  919.2424
  92  1497.102
  93  1421.631
  94  1254.564
  95  1367.93
  96  1658.799
  97  1119.075
  98  706.8381
  99  757.452
 100  1413.355
 101  1575.715
 102  1319.613
 103  1074.705
 104  1297.807
 105  1788.766
 106  1655.71
 107  1314.924
 108  1283.117
 109  1800.589
 110  1530.364
 111  1684.98
 112  2043.717
 113  2105.446
 114  2280.563
 115  1178.182
 116  738.2876
 117  1113.441
 118  1384.731
 119  966.5451
 120  914.0272
 121  1740.739
 122  1552.419
 123  936.1953
 124  560.1828
 125  1079.452
 126  927.1064
 127  1169.353
 128  1290.011
 129  1456.391
 130  1837.032
 131  1490.155
 132  1214.318
 133  670.918
 134  1021.802
 135  1034.092
 136  1223.059
 137  1236.169
 138  1619.408
 139  1543.257
 140  1257.564
 141  1334.633
 142  1146.778
 143  1273.362
 144  1001.577
 145  1534.951
 146  1850.951
 147  1206.455
 148  1051.185
 149  691.7081
 150  1040.335
 151  833.1707
 152  824.7375
 153  1275.152
 154  1674.914
 155  1660.812
 156  900.6317
 157  1079.187
 158  609.4548
 159  986.9156
 160  1205.249
 161  1378.579
 162  1674.699
 163  1592.97
 164  1286.562
 165  953.2658
 166  1378.135
 167  1426.883
 168  1447.24
 169  941.4836
 170  963.4863
 171  1468.017
 172  818.7723
 173  793.9142
 174  1082.064
 175  1890.858
 176  1188.652
 177  1502.42
 178  1531.656
 179  2255.586
 180  1724.27
 181  1244.737
 182  1201.318
 183  1236.058
 184  1124.495
 185  1010.496
 186  1309.057
 187  1535.449
 188  1706.533
 189  1543.861
 190  1228.795
 191  1454.787
 192  1292.291
 193  1528.731
 194  1519.529
 195  2107.121
 196  2428.162
 197  1445.862
 198  1000.23
 199  1057.755
 200  1603.566
 201  1517.176
 202  1410.095
 203  1700.4
 204  1598.67
 205  1020.649
 206  837.4739
 207  1264.971
 208  1271.061
 209  1257.465
 210  1037.793
 211  1316.812
 212  1470.266
 213  1313.431
 214  1439.523
 215  817.2131
 216  960.8018
 217  829.5602
 218  1036.165
 219  1281.174
 220  1705.325
 221  2004.5
 222  1420.161
 223  746.0781
 224  1286.504
 225  1464.048
 226  1739.711
 227  1549.049
 228  1631.938
 229  1291.226
 230  812.2677
 231  1063.649
 232  862.7434
 233  786.4114
 234  770.3666
 235  702.84
 236  1142.119
 237  1249.499
 238  1165.352
 239  821.3595
 240  901.1408
 241  1145.457
 242  1150.105
 243  917.4659
 244  1047.973
 245  1342.559
 246  1392.924
 247  882.8768
 248  499.1489
 249  588.1854
 250  1081.212
 251  1192.369
 252  1227.453
 253  966.8431
 254  1092.338
 255  543.7446
 256  779.6008
 257  1172.56
 258  1398.652
 259  989.9271
 260  1359.455
 261  1551.604
 262  1353.135
 263  1255.829
 264  1229.62
 265  1497.881
 266  1194.841
 267  1505.085
 268  1440.915
 269  1263.486
 270  1057.431
 271  1075.738
 272  774.0787
 273  891.5923
 274  1167.104
 275  1245.291
 276  1333.329
 277  1436.635
 278  1850.308
 279  1948.706
 280  1409.625
 281  1514.888
 282  1358.972
 283  1209.105
 284  988.2349
 285  850.8583
 286  1396.039
 287  1450.32
 288  1556.429
 289  1525.883
 290  1483.585
 291  987.9192
 292  1074.56
 293  1549.032
 294  2105.365
 295  1970.771
 296  1892.982
 297  1680.089
 298  1352.103
 299  1167.591
 300  1612.96
 301  1925.072
 302  1785.758
 303  1760.635
 304  1844.66
 305  1306.684
 306  1653.329
 307  2060.416
 308  1955.763
 309  2007.891
 310  2484.585
 311  3405.99
 312  3498.631
 313  3390.272
 314  2424.477
 315  1514.019
 316  873.9669
 317  1012.444
 318  1771.56
 319  1824.608
 320  1847.747
 321  1364.33
 322  1750.36
 323  1461.037
 324  1372.256
 325  1397.495
 326  1096.535
 327  2024.276
 328  1709.223
 329  1554.736
 330  1130.208
 331  914.1929
 332  1318.373
 333  1212.373
 334  1172.134
 335  1128.026
 336  1460.746
 337  1286.678
 338  880.3037
 339  960.9296
 340  1485.69
 341  1364.122
 342  1069.479
 343  1636.01
 344  2310.6
 345  1446.069
 346  999.7593
 347  1267.097
 348  1260.433
 349  1094.591
 350  1326.697
 351  1292.253
 352  1409.928
 353  1696.589
 354  1549.373
 355  1334.043
 356  1553.186
 357  1759.803
 358  1388.248
 359  965.8947
 360  1200.688
 361  1149.104
 362  1404.451
 363  986.1259
 364  869.9716
 365  1544.855
 366  1100.785
 367  909.8957
 368  1534.846
 369  1604.639
 370  1092.939
 371  795.9091
 372  1021.037
 373  1289.196
 374  1230.879
 375  1938.26
 376  2166.371
 377  1868.638
 378  1610.286
 379  1150.481
 380  1138.935
 381  1517.722
 382  1928.651
 383  1845.471
 384  1245.495
 385  1050.561
 386  1388.324
 387  1419.024
 388  1472.905
 389  1453.831
 390  1623.845
 391  1188.749
 392  1385.447
 393  1714.662
 394  1657.277
 395  1613.52
 396  1270.83
 397  1343.707
 398  1337.92
 399  1222.63
 400  1087.336
 401  1648.114
 402  1718.815
 403  1228.337
 404  1473.91
 405  722.4793
 406  990.7355
 407  1012.524
 408  1184.59
 409  1494.44
 410  1808.021
 411  1703.537
 412  1454.415
 413  853.6005
 414  845.5196
 415  1528.825
 416  1216.447
 417  1614.787
 418  1613.208
 419  954.3037
 420  1064.193
 421  888.795
 422  1395.725
 423  901.9227
 424  1107.014
 425  1142.178
 426  1439.912
 427  1780.224
 428  1517.809
 429  1698.195
 430  1198.127
 431  1726.482
 432  1483.325
 433  1348.861
 434  1042.201
 435  1651.622
 436  2106.406
 437  1942.932
 438  1201.217
 439  1282.032
 440  1511.672
 441  1322.808
 442  1491.052
 443  2008.217
 444  1720.78
 445  1156.405
 446  849.5318
 447  1086.312
 448  1216.4
 449  1150.925
 450  664.5251
 451  930.5832
 452  1513.706
 453  1245.77
 454  1077.192
 455  876.0736
 456  1186.705
 457  1406.173
 458  1687.89
 459  1469.798
 460  1485.03
 461  1559.709
 462  1343.597
 463  1324.671
 464  1527.029
 465  2318.02
 466  1669.355
 467  1100.608
 468  1588.459
 469  1740.364
 470  939.3091
 471  1025.302
 472  2066.369
 473  1852.472
 474  1643.543
 475  1677.432
 476  1949.424
 477  1779.882
 478  1371.808
 479  1174.243
 480  912.2533
 481  480.2122
 482  719.6512
 483  1259.298
 484  1421.755
 485  1541.558
 486  1513.102
 487  1458.292
 488  1033.846
 489  900.5549
 490  929.7922
 491  767.1074
 492  1523.047
 493  1691.3
 494  1847.38
 495  1138.938
 496  1459.667
 497  1618.177
 498  680.5465
 499  886.7431
 500  1053.786
 501  1565.646
 502  1172.773
 503  1622.293
 504  1080.944
 505  859.461
 506  822.3912
 507  992.639
 508  1548.288
 509  1722.138
 510  1757.939
 511  1407.594
