# Input file       =  1197484280.100448_cleaned.dat
# Candidate        =  PSR_0332+5434
# Telescope        =  AR
# Epoch_topo       =  58103.771980329257
# Epoch_bary       =  N/A
# T_sample         =  0.002
# Data Folded      =  7340032
# Data Avg         =  0.0571061034877985
# Data StdDev      =  1.00003353875265 
# Profile Bins     =  512
# Profile Avg      =  818.383547287116 
# Profile StdDev   =  119.737052073457 
# Reduced chi-sqr  =  0.832
# Prob(Noise)      <  0.998   (~0.0 sigma)
# P_topo (ms)      =  714.541704317403  +/- 0.000396
# P'_topo (s/s)    =  -0                +/- 2.09e-10
# P''_topo (s/s^2) =  0                 +/- 9.21e-14
# P_bary (ms)      =  N/A
# P'_bary (s/s)    =  N/A
# P''_bary (s/s^2) =  N/A
# P_orb (s)        =  N/A
# asin(i)/c (s)    =  N/A
# eccentricity     =  N/A
# w (rad)          =  N/A
# T_peri           =  N/A
######################################################
   0  1211.333
   1  1216.435
   2  1084.86
   3  939.9969
   4  931.6359
   5  938.9191
   6  913.4645
   7  828.0549
   8  743.1919
   9  685.4297
  10  762.7982
  11  751.5131
  12  793.9721
  13  834.6725
  14  841.4886
  15  910.8134
  16  916.8818
  17  962.5983
  18  911.1797
  19  763.5953
  20  806.0464
  21  703.3434
  22  727.6614
  23  853.7803
  24  900.6635
  25  836.0658
  26  818.135
  27  799.2916
  28  764.5742
  29  784.1381
  30  715.2552
  31  716.4473
  32  776.2386
  33  878.0359
  34  825.4438
  35  748.4696
  36  829.6782
  37  853.9661
  38  892.7972
  39  794.405
  40  834.9143
  41  745.8229
  42  753.9244
  43  875.1589
  44  893.7627
  45  910.9983
  46  824.1999
  47  904.7487
  48  939.784
  49  975.9663
  50  901.1238
  51  875.2049
  52  885.6556
  53  883.4425
  54  827.3736
  55  770.2842
  56  843.861
  57  891.716
  58  861.1482
  59  820.2427
  60  707.7881
  61  655.9417
  62  687.0909
  63  787.0554
  64  812.8073
  65  872.6276
  66  752.5897
  67  666.0648
  68  725.6725
  69  775.5251
  70  900.9415
  71  913.517
  72  881.4421
  73  916.4249
  74  801.3735
  75  832.0167
  76  905.6854
  77  938.0721
  78  819.9764
  79  744.5961
  80  706.7955
  81  769.5706
  82  778.4834
  83  741.865
  84  781.3096
  85  830.5419
  86  818.2453
  87  904.1509
  88  845.8535
  89  839.5195
  90  834.6293
  91  915.9659
  92  912.6096
  93  922.5061
  94  801.5248
  95  776.8395
  96  823.5396
  97  865.6508
  98  949.4105
  99  973.1899
 100  774.1874
 101  862.6282
 102  810.1495
 103  767.9882
 104  780.2701
 105  771.4976
 106  705.05
 107  757.7793
 108  714.4371
 109  696.5659
 110  753.1018
 111  757.1117
 112  724.8883
 113  769.5283
 114  753.6292
 115  785.2449
 116  886.7231
 117  835.1649
 118  799.2106
 119  872.6639
 120  875.4038
 121  881.587
 122  778.0246
 123  734.431
 124  777.8857
 125  788.0684
 126  798.6026
 127  805.1561
 128  788.7299
 129  782.5316
 130  771.9683
 131  740.6849
 132  771.5591
 133  925.1579
 134  859.1143
 135  712.8129
 136  746.0416
 137  798.6192
 138  747.0751
 139  727.6086
 140  748.2283
 141  760.9842
 142  782.308
 143  839.3077
 144  921.5298
 145  901.3135
 146  959.6168
 147  817.5887
 148  808.0067
 149  860.135
 150  931.3839
 151  883.7611
 152  854.9683
 153  821.3754
 154  886.9835
 155  814.4839
 156  823.1193
 157  830.3877
 158  948.0209
 159  903.4583
 160  849.0316
 161  918.8537
 162  843.0303
 163  770.9592
 164  721.3668
 165  822.8132
 166  843.9272
 167  798.7005
 168  872.3173
 169  937.5841
 170  840.9879
 171  824.3699
 172  765.1917
 173  693.0262
 174  802.23
 175  853.4714
 176  867.1813
 177  771.9088
 178  812.9481
 179  835.5294
 180  805.5649
 181  836.7227
 182  859.9925
 183  751.5326
 184  770.0247
 185  735.6801
 186  811.3462
 187  912.3139
 188  886.1374
 189  833.8995
 190  796.7212
 191  753.1155
 192  829.2904
 193  897.9794
 194  816.8668
 195  773.2213
 196  720.6102
 197  754.9839
 198  658.6112
 199  827.3079
 200  789.5392
 201  711.1672
 202  755.0226
 203  717.8157
 204  678.5233
 205  681.9224
 206  667.0459
 207  726.467
 208  745.0547
 209  704.0841
 210  736.6163
 211  652.0806
 212  731.2135
 213  672.413
 214  704.5579
 215  718.4413
 216  826.22
 217  860.1085
 218  915.8157
 219  902.5364
 220  773.2582
 221  693.9264
 222  763.6043
 223  818.4695
 224  803.067
 225  804.1588
 226  881.1414
 227  829.5116
 228  760.5229
 229  769.5052
 230  897.0161
 231  788.1798
 232  781.7366
 233  832.2347
 234  830.7111
 235  947.9584
 236  840.7833
 237  809.9856
 238  723.2731
 239  837.9264
 240  974.8603
 241  846.817
 242  704.759
 243  735.5293
 244  817.2008
 245  797.6343
 246  800.4241
 247  689.3755
 248  682.2563
 249  744.2271
 250  822.3119
 251  748.8487
 252  806.7748
 253  850.8438
 254  780.7401
 255  716.8444
 256  743.3499
 257  762.9596
 258  844.5236
 259  846.7182
 260  771.3665
 261  796.8899
 262  832.4434
 263  887.4935
 264  788.9661
 265  844.6172
 266  749.7294
 267  780.9053
 268  863.2126
 269  835.9791
 270  854.148
 271  824.909
 272  719.559
 273  779.2237
 274  739.8826
 275  782.85
 276  852.6767
 277  821.6754
 278  859.9941
 279  854.4902
 280  867.7296
 281  771.9242
 282  803.0727
 283  776.6506
 284  819.0875
 285  919.2935
 286  908.1624
 287  836.8935
 288  856.886
 289  885.863
 290  771.8041
 291  711.9766
 292  709.9645
 293  785.299
 294  732.4905
 295  811.4743
 296  849.6196
 297  828.3369
 298  815.2537
 299  802.4587
 300  737.7933
 301  867.4802
 302  872.4937
 303  815.3146
 304  758.7137
 305  737.498
 306  800.65
 307  796.2541
 308  877.1306
 309  792.2794
 310  705.3573
 311  780.6335
 312  839.705
 313  770.9389
 314  801.995
 315  788.0001
 316  877.2024
 317  845.2897
 318  924.6523
 319  804.8644
 320  740.0606
 321  808.2415
 322  833.7781
 323  804.407
 324  764.6612
 325  728.9858
 326  652.8449
 327  734.3933
 328  757.4139
 329  750.249
 330  733.8646
 331  815.1824
 332  795.2686
 333  779.6839
 334  774.8517
 335  833.6817
 336  836.7408
 337  852.5991
 338  727.418
 339  721.3781
 340  868.9147
 341  943.4459
 342  805.1993
 343  804.6615
 344  807.0548
 345  729.7211
 346  784.0061
 347  739.7808
 348  712.9513
 349  711.9675
 350  743.5248
 351  758.3232
 352  761.367
 353  728.5723
 354  727.5795
 355  751.5985
 356  740.7635
 357  708.5024
 358  827.4608
 359  860.0604
 360  811.8075
 361  734.8743
 362  675.7231
 363  681.3866
 364  742.6029
 365  780.5176
 366  721.842
 367  707.4935
 368  768.4173
 369  879.4408
 370  944.6888
 371  936.4123
 372  802.1923
 373  785.4805
 374  857.3934
 375  877.3824
 376  831.2731
 377  851.6556
 378  887.4595
 379  831.3008
 380  685.2874
 381  803.0474
 382  829.5562
 383  810.8791
 384  818.4448
 385  726.9524
 386  653.5231
 387  779.4323
 388  810.1344
 389  900.116
 390  785.9553
 391  790.9724
 392  817.2178
 393  818.2308
 394  714.436
 395  812.1208
 396  775.3907
 397  821.558
 398  822.5406
 399  736.7765
 400  801.3232
 401  815.0286
 402  806.0086
 403  810.1125
 404  867.3909
 405  835.8856
 406  772.3301
 407  865.1473
 408  848.7783
 409  830.278
 410  804.5273
 411  965.0321
 412  919.9073
 413  859.1522
 414  880.886
 415  901.819
 416  918.5942
 417  867.8613
 418  824.1395
 419  819.4034
 420  795.3402
 421  810.623
 422  830.8278
 423  837.6388
 424  765.5698
 425  809.938
 426  867.2282
 427  829.9612
 428  863.3264
 429  928.5975
 430  1004.808
 431  967.5424
 432  751.4249
 433  801.4039
 434  831.9896
 435  856.8419
 436  886.2349
 437  918.0207
 438  969.118
 439  897.0756
 440  795.13
 441  857.3457
 442  895.5372
 443  874.45
 444  935.9431
 445  736.5473
 446  672.4998
 447  647.9436
 448  844.2957
 449  870.7648
 450  809.4454
 451  820.4091
 452  788.6447
 453  817.7977
 454  856.9078
 455  867.3796
 456  868.7432
 457  825.727
 458  882.0563
 459  878.4439
 460  681.9399
 461  722.1927
 462  786.527
 463  757.7115
 464  843.6856
 465  866.4861
 466  921.9042
 467  878.5913
 468  792.7941
 469  754.6506
 470  800.8384
 471  736.4075
 472  762.5637
 473  855.8006
 474  865.1689
 475  903.3359
 476  879.2124
 477  805.7012
 478  756.7165
 479  736.4731
 480  853.5281
 481  783.0921
 482  771.358
 483  891.3362
 484  962.8922
 485  828.193
 486  749.9389
 487  798.0197
 488  855.2626
 489  955.1162
 490  945.9796
 491  912.6507
 492  828.5067
 493  816.1447
 494  989.7309
 495  1092.85
 496  931.5034
 497  885.6882
 498  844.9202
 499  848.6024
 500  923.3943
 501  903.0125
 502  909.5784
 503  848.603
 504  838.0882
 505  925.4996
 506  850.6157
 507  817.4856
 508  914.066
 509  1040.903
 510  1115.647
 511  1165.942
