# Input file       =  1197727347.096942_cleaned.dat
# Candidate        =  PSR_0332+5434
# Telescope        =  AR
# Epoch_topo       =  58106.585255751641
# Epoch_bary       =  N/A
# T_sample         =  0.002
# Data Folded      =  7143424
# Data Avg         =  0.0206193611158675
# Data StdDev      =  1.00019380968458 
# Profile Bins     =  512
# Profile Avg      =  287.717402821208 
# Profile StdDev   =  118.141477007469 
# Reduced chi-sqr  =  1.245
# Prob(Noise)      <  0.000131   (~3.7 sigma)
# P_topo (ms)      =  714.544432206965  +/- 9.62e-05
# P'_topo (s/s)    =  -0                +/- 5.21e-11
# P''_topo (s/s^2) =  0                 +/- 2.37e-14
# P_bary (ms)      =  N/A
# P'_bary (s/s)    =  N/A
# P''_bary (s/s^2) =  N/A
# P_orb (s)        =  N/A
# asin(i)/c (s)    =  N/A
# eccentricity     =  N/A
# w (rad)          =  N/A
# T_peri           =  N/A
######################################################
   0  821.0422
   1  858.827
   2  568.5836
   3  339.6812
   4  251.6858
   5  311.5603
   6  430.3632
   7  456.7634
   8  444.6352
   9  307.6341
  10  345.0703
  11  242.8689
  12  330.4565
  13  300.8798
  14  341.2452
  15  508.5023
  16  408.0377
  17  366.772
  18  242.3173
  19  242.5652
  20  292.5613
  21  242.0648
  22  281.7491
  23  282.0793
  24  304.8811
  25  236.245
  26  146.9766
  27  265.9493
  28  409.0457
  29  364.8514
  30  271.2997
  31  390.4669
  32  542.7297
  33  297.7975
  34  206.0866
  35  315.2252
  36  346.744
  37  273.0603
  38  326.4772
  39  237.8658
  40  349.1125
  41  340.7982
  42  243.0345
  43  285.05
  44  422.3476
  45  435.7115
  46  190.0234
  47  197.631
  48  240.1277
  49  111.4303
  50  219.4191
  51  185.8773
  52  228.1731
  53  392.7047
  54  197.5713
  55  202.0508
  56  380.6181
  57  340.5535
  58  272.2213
  59  182.4463
  60  269.4066
  61  279.6547
  62  224.7486
  63  399.085
  64  390.5326
  65  381.3524
  66  351.089
  67  244.0785
  68  311.3098
  69  408.778
  70  506.8212
  71  435.8754
  72  249.3249
  73  235.3929
  74  336.6605
  75  317.9612
  76  331.0079
  77  308.7305
  78  268.8878
  79  288.9391
  80  295.8859
  81  339.7339
  82  295.3191
  83  302.1157
  84  335.8005
  85  338.3958
  86  277.8822
  87  191.4966
  88  187.8353
  89  396.2076
  90  401.2645
  91  263.3963
  92  321.927
  93  160.1197
  94  209.3163
  95  230.1544
  96  307.7538
  97  362.0891
  98  364.8296
  99  317.2254
 100  305.4516
 101  189.0655
 102  210.3626
 103  286.9473
 104  282.6318
 105  366.605
 106  302.1929
 107  158.578
 108  217.5811
 109  170.5528
 110  232.399
 111  231.8124
 112  264.7636
 113  230.7537
 114  273.7217
 115  366.3019
 116  313.0373
 117  378.8025
 118  324.5428
 119  459.6919
 120  323.5207
 121  232.547
 122  257.7819
 123  344.1329
 124  415.9115
 125  318.4683
 126  258.2208
 127  355.912
 128  329.7747
 129  283.5489
 130  316.4142
 131  394.8983
 132  367.5554
 133  255.5148
 134  271.9518
 135  307.5195
 136  360.963
 137  304.5084
 138  172.4488
 139  223.8005
 140  293.915
 141  216.4356
 142  262.6797
 143  173.6356
 144  240.0527
 145  311.218
 146  317.029
 147  294.8977
 148  251.4064
 149  293.6203
 150  320.9019
 151  305.0183
 152  316.3824
 153  526.1182
 154  328.397
 155  227.1956
 156  361.5725
 157  308.8133
 158  181.4697
 159  197.4372
 160  384.9103
 161  316.9457
 162  266.9203
 163  265.901
 164  250.7637
 165  319.3427
 166  230.2298
 167  229.7521
 168  103.6947
 169  66.59982
 170  149.0341
 171  237.0859
 172  215.0172
 173  264.1353
 174  253.0683
 175  268.1292
 176  185.4801
 177  175.5787
 178  224.3192
 179  191.4794
 180  331.979
 181  207.3325
 182  250.6441
 183  177.05
 184  327.6846
 185  292.4355
 186  87.90442
 187  251.2249
 188  318.2196
 189  263.9079
 190  190.1992
 191  315.3789
 192  201.2487
 193  139.1402
 194  230.9636
 195  296.4143
 196  312.3344
 197  295.7422
 198  297.7719
 199  331.7827
 200  254.6456
 201  271.0377
 202  316.918
 203  308.1842
 204  259.3669
 205  242.9695
 206  184.8515
 207  254.437
 208  185.401
 209  247.54
 210  294.1022
 211  286.3323
 212  297.8132
 213  333.0248
 214  305.0234
 215  166.0237
 216  326.7788
 217  359.1283
 218  233.4514
 219  250.9489
 220  350.0053
 221  500.7114
 222  350.1891
 223  304.0025
 224  205.9545
 225  314.8697
 226  192.9322
 227  141.896
 228  313.8329
 229  388.138
 230  437.6199
 231  284.7669
 232  260.6479
 233  132.0674
 234  94.7602
 235  241.8157
 236  277.3978
 237  294.2825
 238  343.7586
 239  342.9409
 240  214.447
 241  205.1677
 242  170.134
 243  293.0552
 244  161.716
 245  114.9513
 246  399.9406
 247  411.6917
 248  408.6115
 249  264.4072
 250  263.7061
 251  232.3992
 252  227.6913
 253  218.3895
 254  227.3994
 255  310.1083
 256  259.5927
 257  298.4747
 258  369.9661
 259  295.751
 260  253.7745
 261  320.1272
 262  409.8567
 263  327.7889
 264  380.0053
 265  405.1816
 266  320.3468
 267  204.1789
 268  196.1166
 269  176.2505
 270  92.94754
 271  227.7514
 272  207.8461
 273  281.7757
 274  175.3847
 275  188.5636
 276  332.6401
 277  332.07
 278  327.1269
 279  256.4515
 280  317.5902
 281  321.3445
 282  358.5696
 283  339.1894
 284  299.9703
 285  219.1736
 286  131.6148
 287  261.259
 288  289.8026
 289  233.8548
 290  327.6048
 291  269.5895
 292  308.4281
 293  240.1696
 294  317.476
 295  397.9925
 296  480.9756
 297  300.0273
 298  214.0536
 299  185.9003
 300  290.976
 301  343.97
 302  239.7032
 303  210.9102
 304  272.6317
 305  381.2067
 306  401.3209
 307  355.348
 308  366.4519
 309  482.2758
 310  347.9875
 311  387.7367
 312  403.2839
 313  371.315
 314  374.8568
 315  183.7924
 316  151.0079
 317  219.0168
 318  284.1902
 319  202.9614
 320  224.1101
 321  312.1298
 322  212.2179
 323  184.8805
 324  235.4529
 325  256.8939
 326  294.0952
 327  274.6813
 328  244.541
 329  243.6521
 330  369.271
 331  293.5565
 332  205.1429
 333  117.4532
 334  187.1221
 335  236.6972
 336  219.1884
 337  290.9352
 338  340.5158
 339  247.4868
 340  204.2185
 341  301.0598
 342  290.455
 343  278.3429
 344  208.2514
 345  342.468
 346  343.902
 347  210.6696
 348  193.2279
 349  143.4062
 350  159.976
 351  159.0223
 352  242.0996
 353  252.8812
 354  349.3558
 355  345.4885
 356  219.3634
 357  244.9938
 358  130.9218
 359  245.6503
 360  310.1062
 361  325.2814
 362  423.752
 363  371.7373
 364  287.0617
 365  281.2167
 366  339.5521
 367  325.1878
 368  267.718
 369  171.7362
 370  280.038
 371  329.0089
 372  234.2191
 373  242.5391
 374  279.6969
 375  360.6686
 376  306.9148
 377  390.9907
 378  350.1824
 379  537.3723
 380  371.8734
 381  265.709
 382  266.1704
 383  259.9581
 384  243.7704
 385  187.2881
 386  220.4885
 387  292.4828
 388  372.2424
 389  335.7346
 390  338.8084
 391  410.7658
 392  303.1727
 393  326.6698
 394  330.9591
 395  422.5891
 396  383.9493
 397  135.5527
 398  232.666
 399  258.4221
 400  302.0273
 401  252.6814
 402  263.5631
 403  308.9527
 404  240.5403
 405  211.8656
 406  204.6859
 407  294.3712
 408  265.9148
 409  141.9718
 410  118.5368
 411  206.5567
 412  293.3929
 413  269.1193
 414  283.5746
 415  170.0725
 416  192.731
 417  150.6331
 418  214.0464
 419  322.908
 420  403.2395
 421  416.8716
 422  227.9768
 423  171.2718
 424  233.5748
 425  293.769
 426  345.1331
 427  365.4433
 428  387.9945
 429  249.3192
 430  126.7764
 431  262.9478
 432  234.1564
 433  134.606
 434  172.6054
 435  196.9082
 436  305.1677
 437  246.0256
 438  237.6889
 439  171.7626
 440  227.995
 441  273.4438
 442  278.654
 443  177.7746
 444  261.5221
 445  304.0707
 446  321.8376
 447  219.9533
 448  210.1501
 449  156.2493
 450  236.4243
 451  228.109
 452  207.1193
 453  193.616
 454  196.3852
 455  181.7103
 456  242.654
 457  299.4883
 458  307.7227
 459  212.9099
 460  274.1107
 461  192.7633
 462  287.612
 463  261.0323
 464  248.1497
 465  274.602
 466  227.7981
 467  325.0398
 468  374.5041
 469  240.4065
 470  93.70869
 471  141.1068
 472  147.3325
 473  230.4604
 474  296.0182
 475  267.5492
 476  225.8193
 477  219.0291
 478  338.0886
 479  392.9327
 480  318.8366
 481  366.1008
 482  286.8216
 483  266.6103
 484  232.0498
 485  251.5443
 486  238.9011
 487  338.5193
 488  353.8187
 489  372.8696
 490  307.6273
 491  206.4734
 492  179.009
 493  292.691
 494  492.8948
 495  436.69
 496  418.5249
 497  409.982
 498  355.9035
 499  210.6515
 500  298.1742
 501  383.207
 502  432.5325
 503  469.5566
 504  412.3921
 505  325.8632
 506  450.2104
 507  508.6536
 508  519.477
 509  573.6455
 510  735.0906
 511  832.7711
