# Input file       =  1197670746.104753_cleaned.dat
# Candidate        =  PSR_0332+5434
# Telescope        =  AR
# Epoch_topo       =  58105.930151675384
# Epoch_bary       =  N/A
# T_sample         =  0.002
# Data Folded      =  7340032
# Data Avg         =  0.110195002569526
# Data StdDev      =  3.95179162575184 
# Profile Bins     =  512
# Profile Avg      =  1579.98039500232 
# Profile StdDev   =  473.160010479545 
# Reduced chi-sqr  =  0.685
# Prob(Noise)      <  1   (~0.0 sigma)
# P_topo (ms)      =  714.544142693952  +/- 0.000625
# P'_topo (s/s)    =  -0                +/- 3.3e-10
# P''_topo (s/s^2) =  0                 +/- 1.45e-13
# P_bary (ms)      =  N/A
# P'_bary (s/s)    =  N/A
# P''_bary (s/s^2) =  N/A
# P_orb (s)        =  N/A
# asin(i)/c (s)    =  N/A
# eccentricity     =  N/A
# w (rad)          =  N/A
# T_peri           =  N/A
######################################################
   0  1697.977
   1  1531.088
   2  1892.454
   3  1769.972
   4  1763.856
   5  1869.87
   6  2011.11
   7  2001.491
   8  1556.24
   9  1542.781
  10  1535.678
  11  1377.552
  12  1381.379
  13  1216.762
  14  1345.64
  15  1529.899
  16  1369.372
  17  1142.733
  18  1001.72
  19  1163.168
  20  1415.509
  21  1566.941
  22  1681.612
  23  1199.535
  24  1344.226
  25  1664.482
  26  1595.328
  27  1530.754
  28  1276.866
  29  1447.068
  30  1517.605
  31  1273.199
  32  1176.897
  33  1153.988
  34  1187.683
  35  1526.641
  36  1733.802
  37  1573.653
  38  1362.878
  39  1395.996
  40  1094.354
  41  1258.933
  42  1260.192
  43  1611.921
  44  1672.171
  45  1167.733
  46  1111.01
  47  1102.59
  48  1239.374
  49  1453.291
  50  1242.196
  51  1377.428
  52  1899.637
  53  1816.933
  54  1723.992
  55  1439.182
  56  1502.667
  57  1628.408
  58  1627.321
  59  1319.981
  60  1203.55
  61  1398.915
  62  1547.194
  63  1674.511
  64  1355.196
  65  1441.521
  66  1511.61
  67  1288.039
  68  832.3749
  69  1113.378
  70  1637.96
  71  1575.464
  72  1592.738
  73  1234.557
  74  1239.887
  75  1654.279
  76  2011.703
  77  1898.097
  78  1414.116
  79  1404.025
  80  1456.031
  81  1838.767
  82  1933.491
  83  1769.715
  84  1656.66
  85  1676.825
  86  1494.08
  87  1858.434
  88  1369.764
  89  1210.815
  90  1358.165
  91  1239.07
  92  1342.699
  93  1570.12
  94  1565.958
  95  1774.021
  96  1375.119
  97  1021.797
  98  1253.633
  99  1701.321
 100  1527.975
 101  1558.162
 102  1664.68
 103  1583.228
 104  1224.424
 105  1224.651
 106  1306.2
 107  1474.821
 108  1559.33
 109  1530.323
 110  1100.226
 111  1304.175
 112  971.0145
 113  1135.368
 114  1421.009
 115  1623.719
 116  1650.189
 117  1467.949
 118  1511.205
 119  1588.235
 120  1382.499
 121  1176.531
 122  1438.436
 123  1624.844
 124  1890.491
 125  1910.802
 126  1792.06
 127  1615.057
 128  1366.525
 129  1310.781
 130  1099.264
 131  1138.35
 132  1250.166
 133  1488.402
 134  1667.941
 135  1417.487
 136  1515.31
 137  1465.222
 138  1447.884
 139  1176.577
 140  1556.694
 141  1306.555
 142  1386.782
 143  1532.335
 144  1351.628
 145  1306.683
 146  1623.442
 147  1982.226
 148  1659.512
 149  1616.127
 150  1677.953
 151  1746.276
 152  1394.911
 153  1412.046
 154  1699.677
 155  1860.07
 156  1851.384
 157  1567.805
 158  1433.687
 159  1586.266
 160  1332.098
 161  1060.095
 162  1294.039
 163  1369.735
 164  1329.841
 165  1363.283
 166  1244.086
 167  1087.375
 168  1431.742
 169  1654.45
 170  1530.876
 171  1472.297
 172  1288.107
 173  1344.327
 174  878.0311
 175  689.1599
 176  1076.089
 177  1570.859
 178  1808.375
 179  1500.548
 180  1520.788
 181  1382.007
 182  1220.38
 183  1320.532
 184  1483.608
 185  1953.381
 186  1801.658
 187  1657.72
 188  1290.685
 189  1391.256
 190  1520.377
 191  1799.186
 192  2004.734
 193  1517.658
 194  1434.133
 195  1590.571
 196  1980.942
 197  1953.746
 198  2131.499
 199  1968.411
 200  1795.361
 201  1735.315
 202  1804.886
 203  1765.56
 204  1752.789
 205  1993.888
 206  1861.142
 207  1934.813
 208  2043.385
 209  2070.149
 210  1787.433
 211  1800.021
 212  1492.326
 213  1386.069
 214  1764.288
 215  1879.2
 216  1710.678
 217  1899.27
 218  1742.529
 219  1659.147
 220  1745.178
 221  1784.116
 222  1795.889
 223  1959.17
 224  1739.628
 225  1538.728
 226  1753.271
 227  1360.199
 228  1558.413
 229  1647.015
 230  1693.176
 231  1905.075
 232  1890.35
 233  1839.844
 234  1852.399
 235  1930.551
 236  1613.766
 237  1866.678
 238  2159.499
 239  2125.844
 240  1769.492
 241  1982.619
 242  1639.822
 243  1533.562
 244  1728.021
 245  1491.656
 246  1377.537
 247  1488.893
 248  1509.327
 249  1295.755
 250  1617.062
 251  1640.983
 252  1509.521
 253  1575.173
 254  1697.441
 255  1374.964
 256  1175.56
 257  1325.153
 258  1220.312
 259  1421.34
 260  1799.175
 261  1438.656
 262  1466.574
 263  1562.233
 264  1642.527
 265  1655.704
 266  1979.941
 267  2106.448
 268  1673.429
 269  1576.573
 270  1865.621
 271  1683.04
 272  1673.113
 273  1764.209
 274  1448.406
 275  1168.07
 276  1173.142
 277  1234.286
 278  1152.73
 279  1332.112
 280  1419.56
 281  1134.72
 282  1058.307
 283  1513.986
 284  1618.651
 285  1483.513
 286  1349.484
 287  1210.155
 288  710.0264
 289  664.1849
 290  1170.042
 291  1660.656
 292  1510.184
 293  1408.745
 294  1627.048
 295  1662.113
 296  1493.863
 297  1407.584
 298  1561.635
 299  1248.841
 300  1096.878
 301  1196.513
 302  1163.136
 303  1394.015
 304  1255.459
 305  1373.428
 306  1392.565
 307  1764.153
 308  1699.39
 309  1807.656
 310  2134.856
 311  2993.67
 312  2511.78
 313  2287.24
 314  2285.218
 315  1891.383
 316  1810.006
 317  1723.264
 318  1631.322
 319  1809.67
 320  1565.036
 321  1452.3
 322  1572.55
 323  1691.034
 324  1727.959
 325  1486.024
 326  1783.619
 327  2062.358
 328  1732.508
 329  2171.588
 330  1724.496
 331  1453.017
 332  1739.158
 333  1943.208
 334  2097.824
 335  1589.435
 336  1398.407
 337  1509.004
 338  1533.618
 339  1188.644
 340  903.1909
 341  1288.257
 342  1825.198
 343  1858.671
 344  1651.112
 345  1405.87
 346  1235.183
 347  1455.842
 348  1712.304
 349  1724.411
 350  1564.763
 351  1469.253
 352  1590.622
 353  1720.88
 354  1273.135
 355  1228.487
 356  1510.051
 357  1573.692
 358  1600.081
 359  1546.323
 360  1592.486
 361  1183.724
 362  1743.55
 363  1773.535
 364  1392.38
 365  1463.894
 366  1488.183
 367  1604.437
 368  1655.001
 369  1584.226
 370  1643.399
 371  1376.257
 372  1156.257
 373  1190.516
 374  1539.188
 375  1814.975
 376  1782.403
 377  1949.481
 378  1515.054
 379  1408.249
 380  1457.723
 381  1644.056
 382  1562.111
 383  1554.393
 384  1674.588
 385  2036.103
 386  2098.677
 387  1826.58
 388  1722.856
 389  1275.897
 390  1352.831
 391  1327.815
 392  1549.148
 393  1636.329
 394  1545.709
 395  1346.573
 396  1364.928
 397  1738.2
 398  1618.711
 399  1674.177
 400  1746.408
 401  1668.707
 402  1454.012
 403  1590.04
 404  1558.486
 405  1724.431
 406  1823.928
 407  1557.646
 408  1522.664
 409  1775.701
 410  1615.145
 411  1891.589
 412  1788.007
 413  1765.855
 414  1403.95
 415  1646.136
 416  1869.628
 417  1779.09
 418  1524.609
 419  1478.649
 420  1730.894
 421  1503.775
 422  1305.46
 423  1504.135
 424  1469.966
 425  1923.842
 426  1963.948
 427  2113.6
 428  1649.217
 429  1526.317
 430  1716.199
 431  1744.012
 432  2214.349
 433  2100.875
 434  2176.464
 435  1927.589
 436  1802.973
 437  1594.993
 438  2292.748
 439  2353.288
 440  1778.359
 441  1641.214
 442  1536.45
 443  1672.25
 444  1862.35
 445  1730.708
 446  2033.946
 447  1982.689
 448  2119.701
 449  2033.823
 450  1976.935
 451  1871.405
 452  2221.6
 453  1963.891
 454  2003.611
 455  1894.035
 456  1711.852
 457  1704.7
 458  1967.912
 459  1824.427
 460  2214.249
 461  2068.785
 462  1659.06
 463  1883.897
 464  1617.895
 465  1848.431
 466  1708.361
 467  1744.194
 468  1773.91
 469  1492.251
 470  1852.769
 471  2000.492
 472  1874.177
 473  2040.467
 474  1691.293
 475  1876.926
 476  1799.404
 477  2012.538
 478  1591.756
 479  1200.612
 480  1628.598
 481  1497.769
 482  1762.067
 483  1324.816
 484  1502.54
 485  1708.622
 486  1458.634
 487  1109.904
 488  1514.983
 489  1794.757
 490  1366.068
 491  1410.228
 492  942.7372
 493  1296.234
 494  1495.856
 495  1587.912
 496  1577.534
 497  1415.157
 498  1498.397
 499  1288.519
 500  1390.93
 501  1583.029
 502  1349.459
 503  1572.269
 504  1710.889
 505  1496.483
 506  1612.06
 507  1377.785
 508  1513.612
 509  1750.968
 510  1569.113
 511  1820.978
