# Input file       =  1197038256.128744_cleaned.dat
# Candidate        =  PSR_0332+5434
# Telescope        =  AR
# Epoch_topo       =  58098.609665841941
# Epoch_bary       =  N/A
# T_sample         =  0.002
# Data Folded      =  7143424
# Data Avg         =  0.0969767872011389
# Data StdDev      =  1.00054722412869 
# Profile Bins     =  512
# Profile Avg      =  1352.96410086322 
# Profile StdDev   =  118.183221821343 
# Reduced chi-sqr  =  0.941
# Prob(Noise)      <  0.826   (~0.0 sigma)
# P_topo (ms)      =  714.536514835744  +/- 9.24e-05
# P'_topo (s/s)    =  -0                +/- 5.01e-11
# P''_topo (s/s^2) =  0                 +/- 2.27e-14
# P_bary (ms)      =  N/A
# P'_bary (s/s)    =  N/A
# P''_bary (s/s^2) =  N/A
# P_orb (s)        =  N/A
# asin(i)/c (s)    =  N/A
# eccentricity     =  N/A
# w (rad)          =  N/A
# T_peri           =  N/A
######################################################
   0  1714.777
   1  1431.538
   2  1395.186
   3  1350.724
   4  1343.746
   5  1332.386
   6  1426.049
   7  1374.6
   8  1311.745
   9  1307.379
  10  1358.831
  11  1280.303
  12  1211.489
  13  1305.585
  14  1356.488
  15  1315.982
  16  1260.459
  17  1236.259
  18  1291.559
  19  1261.364
  20  1405.269
  21  1458.989
  22  1329.705
  23  1407.694
  24  1459.422
  25  1370.706
  26  1328.174
  27  1384.823
  28  1518.375
  29  1493.116
  30  1338.105
  31  1363.114
  32  1403.107
  33  1393.519
  34  1327.123
  35  1384.49
  36  1389.317
  37  1454.711
  38  1484.891
  39  1477.313
  40  1485.989
  41  1382.709
  42  1360.36
  43  1376.254
  44  1420.925
  45  1465.841
  46  1486.832
  47  1304.383
  48  1273.969
  49  1406.683
  50  1363.099
  51  1293.861
  52  1280.193
  53  1336.447
  54  1352.759
  55  1346.131
  56  1303.05
  57  1353.89
  58  1278.129
  59  1172.385
  60  1298.617
  61  1334.912
  62  1272.896
  63  1266.832
  64  1318.481
  65  1254.86
  66  1162.908
  67  1248.504
  68  1335.424
  69  1234.006
  70  1231.73
  71  1376.673
  72  1406.608
  73  1292.238
  74  1256.321
  75  1257.905
  76  1345.412
  77  1376.785
  78  1396.245
  79  1416.669
  80  1456.067
  81  1310.456
  82  1266.682
  83  1247.118
  84  1333.666
  85  1299.309
  86  1430.253
  87  1492.546
  88  1508.761
  89  1464.608
  90  1445.739
  91  1302.461
  92  1407.823
  93  1431.046
  94  1434.848
  95  1475.989
  96  1467.783
  97  1487.02
  98  1380.743
  99  1372.229
 100  1356.795
 101  1274.498
 102  1283.528
 103  1328.551
 104  1358.087
 105  1358.005
 106  1415.592
 107  1371.766
 108  1266.271
 109  1275.066
 110  1269.86
 111  1297.573
 112  1392.9
 113  1364.6
 114  1457.474
 115  1419.352
 116  1312.185
 117  1267.779
 118  1286.182
 119  1254.206
 120  1363.533
 121  1472.62
 122  1430.49
 123  1316.508
 124  1255.213
 125  1317.01
 126  1272.371
 127  1254.329
 128  1366.273
 129  1394.369
 130  1338.277
 131  1259.954
 132  1286.611
 133  1294.36
 134  1293.858
 135  1166.152
 136  1239.38
 137  1332.65
 138  1352.348
 139  1277.239
 140  1383.467
 141  1300.656
 142  1282.652
 143  1388.886
 144  1334.472
 145  1430.738
 146  1302.523
 147  1198.214
 148  1212.943
 149  1271.617
 150  1197.487
 151  1102.8
 152  1162.347
 153  1195.91
 154  1202.36
 155  1142.436
 156  1289.709
 157  1355.312
 158  1269.343
 159  1162.92
 160  1196.537
 161  1257.234
 162  1324.285
 163  1381.195
 164  1404.46
 165  1398.693
 166  1330.434
 167  1299.258
 168  1282.963
 169  1397.555
 170  1481.854
 171  1589.374
 172  1537.932
 173  1438.456
 174  1375.801
 175  1382.688
 176  1396.181
 177  1379.094
 178  1400.702
 179  1344.089
 180  1267.671
 181  1283.283
 182  1282.87
 183  1185.519
 184  1261.924
 185  1272.316
 186  1298.008
 187  1218.252
 188  1239.211
 189  1299.652
 190  1272.556
 191  1325.285
 192  1442.214
 193  1416.874
 194  1344.836
 195  1288.62
 196  1323.154
 197  1264.355
 198  1344.033
 199  1293.714
 200  1286.156
 201  1257.319
 202  1313.026
 203  1400.725
 204  1371.781
 205  1455.193
 206  1399.233
 207  1335.719
 208  1353.67
 209  1470.405
 210  1414.92
 211  1431.129
 212  1462.244
 213  1471.882
 214  1546.624
 215  1443.522
 216  1258.996
 217  1284.281
 218  1335.674
 219  1398.116
 220  1338.983
 221  1407.407
 222  1472.989
 223  1303.625
 224  1281.747
 225  1287.953
 226  1435.584
 227  1500.241
 228  1472.285
 229  1478.302
 230  1411.5
 231  1408.743
 232  1362.729
 233  1280.359
 234  1213.123
 235  1376.388
 236  1380.049
 237  1557.792
 238  1543.677
 239  1411.006
 240  1305.494
 241  1263.044
 242  1411.648
 243  1406.724
 244  1392.26
 245  1386.139
 246  1495.703
 247  1333.082
 248  1252.513
 249  1319.131
 250  1386.949
 251  1412.447
 252  1340.897
 253  1493.62
 254  1490.087
 255  1332.047
 256  1311.522
 257  1259.9
 258  1200.356
 259  1269.04
 260  1440.49
 261  1498.351
 262  1439.533
 263  1374.446
 264  1376.772
 265  1347.791
 266  1352.095
 267  1293.093
 268  1344.861
 269  1284.307
 270  1423.191
 271  1409.019
 272  1378.874
 273  1292.76
 274  1322.715
 275  1365.73
 276  1405.853
 277  1421.886
 278  1324.811
 279  1432.3
 280  1459.132
 281  1389.589
 282  1350.747
 283  1392.944
 284  1390.42
 285  1323.607
 286  1381.015
 287  1380.849
 288  1330.121
 289  1418.458
 290  1427.919
 291  1386.28
 292  1340.196
 293  1298.807
 294  1319.464
 295  1341.059
 296  1366.222
 297  1397.547
 298  1362.2
 299  1416.321
 300  1377.611
 301  1308.947
 302  1284.514
 303  1365.129
 304  1347.338
 305  1285.164
 306  1266.464
 307  1288.491
 308  1340.076
 309  1369.225
 310  1285.873
 311  1238.585
 312  1173.047
 313  1173.388
 314  1184.922
 315  1222.613
 316  1242.568
 317  1255.292
 318  1339.028
 319  1276.471
 320  1397.06
 321  1455.806
 322  1409.02
 323  1347.332
 324  1445.487
 325  1422.817
 326  1360.706
 327  1354.916
 328  1376.768
 329  1334.783
 330  1338.542
 331  1340.438
 332  1414.929
 333  1373.852
 334  1308.607
 335  1359.374
 336  1444.872
 337  1443.981
 338  1368.369
 339  1340.238
 340  1276.618
 341  1280.889
 342  1360.698
 343  1499.322
 344  1455.15
 345  1400.695
 346  1371.597
 347  1404.979
 348  1372.875
 349  1275.024
 350  1288.943
 351  1259.882
 352  1371.715
 353  1262.572
 354  1298.203
 355  1423.834
 356  1422.778
 357  1325.986
 358  1409.29
 359  1422.275
 360  1469.192
 361  1375.891
 362  1261.243
 363  1355.476
 364  1359.906
 365  1352.166
 366  1329.37
 367  1401.64
 368  1342.251
 369  1328.492
 370  1318.61
 371  1203.58
 372  1293.473
 373  1323.861
 374  1304.491
 375  1422.137
 376  1352.092
 377  1468.566
 378  1374.987
 379  1273.136
 380  1383.972
 381  1440.766
 382  1367.107
 383  1322.314
 384  1305.196
 385  1511.481
 386  1455.431
 387  1406.825
 388  1360.566
 389  1308.207
 390  1175.638
 391  1228.359
 392  1379.398
 393  1359.271
 394  1412.548
 395  1481.03
 396  1382.401
 397  1307.082
 398  1194.667
 399  1198.699
 400  1236.363
 401  1321.305
 402  1314.413
 403  1298.007
 404  1354.377
 405  1380.891
 406  1303.371
 407  1277.106
 408  1445.631
 409  1382.187
 410  1449.211
 411  1307.716
 412  1240.937
 413  1321.561
 414  1252.921
 415  1209.778
 416  1305.68
 417  1360.53
 418  1296.305
 419  1364.872
 420  1397.133
 421  1394.332
 422  1300.103
 423  1249.968
 424  1309.256
 425  1435.039
 426  1445.57
 427  1329.369
 428  1266.555
 429  1379.926
 430  1355.566
 431  1285.898
 432  1371.35
 433  1442.507
 434  1439.218
 435  1440.858
 436  1388.908
 437  1379.542
 438  1402.582
 439  1479.509
 440  1441.583
 441  1299.779
 442  1327.717
 443  1372.239
 444  1345.582
 445  1342.002
 446  1356.045
 447  1365.93
 448  1332
 449  1312.566
 450  1355.31
 451  1370.009
 452  1480.778
 453  1531.413
 454  1476.372
 455  1395.54
 456  1349.527
 457  1277.585
 458  1315.091
 459  1321.205
 460  1308.726
 461  1437.7
 462  1360.718
 463  1323.547
 464  1298.454
 465  1294.083
 466  1332.458
 467  1293.426
 468  1331.287
 469  1312.906
 470  1267.699
 471  1408.574
 472  1456.835
 473  1451.375
 474  1297.456
 475  1318.49
 476  1289.4
 477  1278.981
 478  1242.188
 479  1277.115
 480  1322.256
 481  1259.578
 482  1319.227
 483  1317.074
 484  1289.934
 485  1378.896
 486  1445.474
 487  1469.764
 488  1356.887
 489  1345.58
 490  1351.619
 491  1349.887
 492  1413.799
 493  1369.478
 494  1339.177
 495  1376.385
 496  1343.544
 497  1316.749
 498  1431.707
 499  1378.713
 500  1452.202
 501  1495.39
 502  1455.849
 503  1403.235
 504  1396.158
 505  1335.681
 506  1376.943
 507  1528.484
 508  1525.545
 509  1505.067
 510  1686.261
 511  1712.868
