# Input file       =  1197670746.104753_cleaned.dat
# Candidate        =  PSR_0332+5434
# Telescope        =  AR
# Epoch_topo       =  58105.930151675384
# Epoch_bary       =  N/A
# T_sample         =  0.002
# Data Folded      =  7340032
# Data Avg         =  0.110195002569526
# Data StdDev      =  3.95179162575184 
# Profile Bins     =  1024
# Profile Avg      =  789.990197497442 
# Profile StdDev   =  334.574651996384 
# Reduced chi-sqr  =  0.639
# Prob(Noise)      <  1   (~0.0 sigma)
# P_topo (ms)      =  714.544142806383  +/- 0.000623
# P'_topo (s/s)    =  -0                +/- 3.29e-10
# P''_topo (s/s^2) =  0                 +/- 1.45e-13
# P_bary (ms)      =  N/A
# P'_bary (s/s)    =  N/A
# P''_bary (s/s^2) =  N/A
# P_orb (s)        =  N/A
# asin(i)/c (s)    =  N/A
# eccentricity     =  N/A
# w (rad)          =  N/A
# T_peri           =  N/A
######################################################
   0  844.0485
   1  762.3604
   2  753.0471
   3  859.4656
   4  944.6289
   5  1001.857
   6  844.6066
   7  847.6486
   8  881.226
   9  915.0708
  10  915.1862
  11  978.5213
  12  1030.764
  13  984.3886
  14  1004.781
  15  923.4767
  16  806.519
  17  696.2393
  18  742.947
  19  847.9836
  20  740.4691
  21  743.4772
  22  641.5667
  23  744.7484
  24  721.3407
  25  591.2985
  26  581.201
  27  671.1298
  28  661.6988
  29  712.2538
  30  767.1719
  31  773.4978
  32  675.7878
  33  632.2585
  34  555.6117
  35  560.4609
  36  454.4235
  37  508.3528
  38  595.6832
  39  669.1715
  40  720.2142
  41  688.9415
  42  791.3283
  43  883.1304
  44  819.2321
  45  734.7484
  46  605.9065
  47  563.7231
  48  667.4628
  49  767.7749
  50  852.3987
  51  837.306
  52  791.9244
  53  755.9829
  54  803.2845
  55  726.9446
  56  634.6492
  57  589.7041
  58  758.7051
  59  783.7375
  60  774.3881
  61  644.1191
  62  646.0291
  63  601.4315
  64  613.3635
  65  581.1845
  66  573.6065
  67  580.5007
  68  589.2329
  69  655.5609
  70  764.8069
  71  818.5566
  72  889.6517
  73  875.7897
  74  772.9194
  75  694.9567
  76  668.9398
  77  743.1271
  78  694.4672
  79  612.1601
  80  562.5663
  81  536.9462
  82  617.0408
  83  675.1056
  84  613.8026
  85  656.7406
  86  810.404
  87  892.0862
  88  879.0416
  89  664.472
  90  621.576
  91  483.3922
  92  575.607
  93  562.2427
  94  578.1588
  95  502.12
  96  622.4998
  97  755.7299
  98  735.1084
  99  644.5082
 100  602.8872
 101  622.9998
 102  672.4726
 103  860.8428
 104  959.6233
 105  974.6735
 106  873.2847
 107  940.5474
 108  858.5385
 109  758.1112
 110  725.7476
 111  717.7333
 112  755.0102
 113  767.3141
 114  785.8466
 115  880.471
 116  815.3558
 117  711.8775
 118  656.9961
 119  639.197
 120  628.0092
 121  563.5065
 122  698.9576
 123  785.1489
 124  773.872
 125  803.5441
 126  830.824
 127  823.7028
 128  650.4221
 129  669.6521
 130  690.0472
 131  723.5662
 132  792.7217
 133  760.1885
 134  656.7874
 135  488.0598
 136  389.7096
 137  453.3436
 138  540.035
 139  725.1947
 140  843.8832
 141  808.3567
 142  751.2623
 143  831.2339
 144  781.0673
 145  742.6209
 146  589.7009
 147  601.4934
 148  594.7863
 149  684.0138
 150  850.7256
 151  948.4412
 152  1011.119
 153  1012.456
 154  983.5015
 155  821.1252
 156  676.3298
 157  669.3574
 158  708.3696
 159  729.6169
 160  701.8184
 161  765.8005
 162  946.454
 163  973.0626
 164  992.2239
 165  920.8517
 166  896.8996
 167  862.8201
 168  785.3139
 169  899.7467
 170  807.4176
 171  775.0787
 172  718.9235
 173  878.7124
 174  939.8364
 175  854.1484
 176  652.0064
 177  617.5314
 178  572.49
 179  666.8047
 180  696.421
 181  626.7673
 182  601.1444
 183  657.7657
 184  689.9481
 185  692.2476
 186  786.5544
 187  822.7555
 188  805.1712
 189  769.7081
 190  908.8139
 191  869.5374
 192  668.6794
 193  582.8674
 194  492.3227
 195  526.7252
 196  639.0924
 197  742.9349
 198  882.2037
 199  796.956
 200  745.9592
 201  763.9988
 202  764.0471
 203  818.6203
 204  828.1199
 205  834.2357
 206  839.085
 207  697.437
 208  586.6323
 209  556.8422
 210  630.2339
 211  654.7271
 212  653.8376
 213  647.3457
 214  768.3028
 215  810.5591
 216  745.2901
 217  742.8235
 218  813.0919
 219  698.9396
 220  522.2986
 221  503.5857
 222  699.6006
 223  614.016
 224  439.8966
 225  499.2171
 226  561.1323
 227  669.7801
 228  722.5434
 229  758.8824
 230  844.7406
 231  799.4357
 232  848.4637
 233  761.7434
 234  710.6854
 235  734.9966
 236  786.0538
 237  765.7704
 238  771.4047
 239  809.5313
 240  725.4313
 241  513.527
 242  572.5048
 243  710.3455
 244  765.4224
 245  680.2346
 246  772.3831
 247  989.8322
 248  937.107
 249  894.5414
 250  932.3978
 251  1043.582
 252  873.857
 253  813.6854
 254  777.4507
 255  852.796
 256  630.5841
 257  652.1196
 258  663.9468
 259  648.188
 260  507.2913
 261  534.019
 262  543.2551
 263  643.9052
 264  573.7714
 265  698.3721
 266  752.5082
 267  810.8061
 268  854.4583
 269  792.8261
 270  721.0868
 271  657.2418
 272  750.8263
 273  784.2996
 274  731.5901
 275  727.7653
 276  740.4871
 277  608.009
 278  588.6476
 279  664.0619
 280  806.6435
 281  749.6151
 282  655.4361
 283  637.2133
 284  690.8496
 285  745.3226
 286  790.2438
 287  716.9931
 288  672.6964
 289  627.728
 290  638.1425
 291  729.0733
 292  788.4557
 293  970.2047
 294  969.9412
 295  924.0167
 296  840.218
 297  795.5336
 298  814.999
 299  798.5089
 300  866.9938
 301  890.4681
 302  875.9777
 303  763.2315
 304  714.5366
 305  645.278
 306  739.1254
 307  715.5373
 308  899.3531
 309  898.9495
 310  941.3295
 311  871.8443
 312  960.7733
 313  913.8802
 314  780.7958
 315  671.892
 316  711.1204
 317  807.955
 318  778.5806
 319  736.3038
 320  668.3519
 321  581.545
 322  535.4219
 323  590.1821
 324  635.3223
 325  680.0187
 326  671.1098
 327  696.6265
 328  658.3467
 329  639.1843
 330  712.2341
 331  679.8809
 332  613.0466
 333  557.1119
 334  577.6103
 335  527.3482
 336  752.7285
 337  792.1622
 338  893.1998
 339  742.5051
 340  764.27
 341  777.8529
 342  736.8721
 343  657.9005
 344  650.4327
 345  667.8175
 346  677.9996
 347  634.7631
 348  403.6973
 349  323.774
 350  306.9029
 351  455.8807
 352  573.9296
 353  595.7411
 354  816.7142
 355  898.5879
 356  941.5291
 357  815.6664
 358  722.9269
 359  691.7841
 360  805.0467
 361  798.8474
 362  671.2726
 363  589.2695
 364  588.3544
 365  683.6663
 366  646.7399
 367  662.1755
 368  733.6716
 369  904.7657
 370  992.9842
 371  953.5255
 372  847.8165
 373  930.5061
 374  838.3198
 375  700.848
 376  620.3329
 377  660.9231
 378  717.4979
 379  701.113
 380  708.7073
 381  855.0024
 382  896.3463
 383  1020.651
 384  1012.971
 385  890.4845
 386  744.1639
 387  732.6346
 388  705.818
 389  649.9724
 390  803.7216
 391  974.2051
 392  1019.044
 393  899.5369
 394  982.8702
 395  1098.209
 396  1049.259
 397  1004.396
 398  984.6987
 399  996.7339
 400  886.3867
 401  854.9701
 402  856.869
 403  899.4702
 404  887.2303
 405  930.9861
 406  882.0618
 407  808.0607
 408  899.2605
 409  962.8211
 410  1013.702
 411  937.2138
 412  956.1108
 413  922.3762
 414  981.2886
 415  964.7512
 416  1047.461
 417  1036.548
 418  1003.548
 419  1020.742
 420  861.3187
 421  897.1803
 422  887.296
 423  896.418
 424  751.959
 425  637.6469
 426  673.0579
 427  782.5175
 428  882.472
 429  952.5259
 430  968.9229
 431  865.9363
 432  847.6635
 433  897.1721
 434  955.8517
 435  937.9076
 436  854.9701
 437  852.9083
 438  856.998
 439  784.3544
 440  902.2369
 441  910.299
 442  907.7209
 443  797.3569
 444  881.7207
 445  1011.516
 446  998.1254
 447  941.631
 448  854.4637
 449  800.2651
 450  721.7835
 451  897.837
 452  895.1251
 453  732.2125
 454  659.4496
 455  709.9788
 456  791.3537
 457  798.17
 458  816.2607
 459  859.9999
 460  848.5693
 461  875.5373
 462  978.3587
 463  971.5811
 464  954.752
 465  909.9601
 466  914.3245
 467  871.4241
 468  959.413
 469  961.5995
 470  999.8768
 471  840.2627
 472  831.3615
 473  855.2206
 474  912.9986
 475  972.0748
 476  1094.516
 477  1168.36
 478  1059.102
 479  936.3779
 480  865.9642
 481  943.9518
 482  1003.702
 483  915.0014
 484  828.3676
 485  730.9772
 486  803.7172
 487  784.329
 488  878.4927
 489  877.9852
 490  740.5658
 491  649.8198
 492  690.9865
 493  710.3861
 494  771.4279
 495  759.3837
 496  762.3602
 497  656.016
 498  642.004
 499  730.1489
 500  805.539
 501  844.8742
 502  831.915
 503  801.0219
 504  737.5521
 505  742.1913
 506  772.9879
 507  829.5118
 508  877.8918
 509  795.8854
 510  690.9224
 511  575.4419
 512  578.8509
 513  676.3882
 514  660.7049
 515  616.3956
 516  619.9447
 517  633.9476
 518  688.0004
 519  833.1305
 520  902.1783
 521  901.4112
 522  642.3884
 523  684.017
 524  742.7037
 525  782.7213
 526  761.6846
 527  797.6801
 528  821.6434
 529  828.6888
 530  810.5012
 531  870.8679
 532  1022.539
 533  1100.48
 534  1069.238
 535  944.3651
 536  810.1724
 537  773.4608
 538  765.0612
 539  897.564
 540  964.8096
 541  858.3902
 542  833.3504
 543  871.3204
 544  794.4756
 545  878.0063
 546  858.8837
 547  909.4263
 548  668.6476
 549  634.2716
 550  581.9907
 551  601.5224
 552  536.6622
 553  611.1482
 554  617.374
 555  593.9128
 556  570.2481
 557  582.1779
 558  714.3373
 559  718.5043
 560  707.7751
 561  645.9206
 562  572.0244
 563  494.2011
 564  534.1057
 565  613.0294
 566  790.3491
 567  795.946
 568  831.4234
 569  753.3761
 570  782.7169
 571  673.1041
 572  704.1541
 573  640.2077
 574  640.3528
 575  455.8224
 576  347.9097
 577  284.6133
 578  342.0629
 579  385.3204
 580  623.7036
 581  759.3672
 582  855.6568
 583  797.3228
 584  756.407
 585  677.5861
 586  687.1293
 587  769.5676
 588  852.1936
 589  821.9126
 590  826.4727
 591  782.5068
 592  760.7322
 593  696.2672
 594  700.178
 595  736.1061
 596  802.5832
 597  744.6111
 598  617.1122
 599  542.0522
 600  546.2495
 601  590.294
 602  618.4524
 603  562.7886
 604  551.3815
 605  658.1668
 606  713.9171
 607  683.5024
 608  591.1407
 609  656.9679
 610  703.1376
 611  694.5488
 612  686.0746
 613  736.7585
 614  918.9177
 615  930.4529
 616  850.9265
 617  760.2789
 618  961.485
 619  986.8062
 620  1039.596
 621  1256.232
 622  1537.511
 623  1516.947
 624  1230.595
 625  1088.907
 626  1118.357
 627  1246.354
 628  1112.894
 629  1071.011
 630  872.4033
 631  922.4836
 632  917.6503
 633  900.6341
 634  884.4034
 635  794.4858
 636  805.1271
 637  890.9256
 638  903.77
 639  863.2525
 640  797.4832
 641  705.6803
 642  728.5258
 643  721.6511
 644  836.4888
 645  806.5261
 646  855.4993
 647  858.1653
 648  883.4493
 649  812.935
 650  714.163
 651  743.1156
 652  874.8339
 653  1073.422
 654  1016.898
 655  911.1307
 656  827.816
 657  990.5086
 658  1123.123
 659  1078.162
 660  840.7769
 661  702.7913
 662  720.1381
 663  813.1642
 664  874.6834
 665  875.4774
 666  990.3131
 667  1077.336
 668  1042.261
 669  913.9301
 670  796.082
 671  713.3717
 672  701.2331
 673  701.2352
 674  763.5189
 675  825.7432
 676  733.662
 677  693.4047
 678  597.6757
 679  510.8922
 680  467.2935
 681  461.3119
 682  626.4415
 683  825.8029
 684  940.0717
 685  924.5253
 686  937.1066
 687  875.9774
 688  852.3199
 689  745.1831
 690  676.8719
 691  682.6484
 692  592.2551
 693  652.047
 694  715.2304
 695  842.1331
 696  891.6661
 697  808.0168
 698  853.4291
 699  880.7183
 700  753.7529
 701  752.1974
 702  717.9563
 703  731.4752
 704  834.3549
 705  851.9354
 706  888.9636
 707  744.2446
 708  598.6302
 709  592.7244
 710  602.0516
 711  702.7589
 712  763.1121
 713  803.2939
 714  776.8286
 715  788.8757
 716  781.1386
 717  808.5302
 718  739.9957
 719  866.0739
 720  775.0405
 721  686.8376
 722  501.802
 723  788.3105
 724  817.0529
 725  991.0121
 726  872.8757
 727  804.4809
 728  681.1847
 729  639.6117
 730  753.4764
 731  785.7285
 732  728.7158
 733  718.7372
 734  826.9766
 735  853.3591
 736  854.6555
 737  736.8387
 738  801.522
 739  822.891
 740  813.3329
 741  826.6329
 742  647.7702
 743  576.7729
 744  606.7413
 745  588.8734
 746  595.1465
 747  622.0933
 748  782.277
 749  901.5619
 750  895.8574
 751  908.7479
 752  894.1057
 753  909.9164
 754  990.5679
 755  926.3871
 756  735.5348
 757  661.5186
 758  701.5063
 759  744.0913
 760  719.2264
 761  766.1921
 762  819.4686
 763  868.4148
 764  761.3043
 765  731.0659
 766  779.334
 767  805.5276
 768  863.6022
 769  852.9257
 770  1051.595
 771  1089.53
 772  1040.874
 773  977.9571
 774  903.4449
 775  908.5544
 776  854.0044
 777  790.7347
 778  621.8386
 779  578.4257
 780  675.0743
 781  686.4153
 782  701.3287
 783  669.0619
 784  778.6155
 785  872.7801
 786  803.8069
 787  792.7178
 788  740.3748
 789  758.0092
 790  701.1135
 791  572.4591
 792  690.2214
 793  803.7598
 794  865.7372
 795  880.1674
 796  768.9702
 797  838.884
 798  830.1265
 799  869.5477
 800  860.2246
 801  895.7177
 802  830.987
 803  738.1309
 804  744.3473
 805  733.2704
 806  821.7045
 807  831.2267
 808  769.1097
 809  763.6501
 810  827.4296
 811  943.5887
 812  947.6486
 813  827.6691
 814  770.5681
 815  722.0266
 816  760.0986
 817  881.4492
 818  865.9465
 819  850.252
 820  787.4705
 821  886.5486
 822  953.7959
 823  931.2155
 824  888.1172
 825  912.0588
 826  884.8176
 827  757.2866
 828  692.269
 829  756.4522
 830  835.7885
 831  869.9872
 832  936.8393
 833  951.2336
 834  901.7847
 835  791.6049
 836  787.6663
 837  647.7499
 838  780.1027
 839  866.9869
 840  847.8549
 841  820.6584
 842  739.559
 843  675.1849
 844  667.1401
 845  670.4092
 846  803.1151
 847  702.0734
 848  717.2352
 849  857.2515
 850  967.1816
 851  989.8842
 852  967.0641
 853  1044.155
 854  1059.168
 855  1011.066
 856  800.6704
 857  733.578
 858  731.4717
 859  852.0325
 860  903.85
 861  767.7912
 862  871.5257
 863  1017.411
 864  1109.901
 865  1092.656
 866  1012.953
 867  1092.702
 868  1117.106
 869  1053.671
 870  939.0241
 871  947.3673
 872  918.1791
 873  819.3535
 874  743.9377
 875  930.7859
 876  1158.693
 877  1286.709
 878  1159.306
 879  1055.764
 880  835.4636
 881  857.8776
 882  812.0498
 883  804.952
 884  762.627
 885  749.7451
 886  872.5254
 887  926.4066
 888  948.5592
 889  852.97
 890  878.6587
 891  889.8088
 892  1024.087
 893  1060.948
 894  1001.683
 895  963.9835
 896  1052.973
 897  1123.456
 898  1018.427
 899  944.365
 900  1008.457
 901  926.4692
 902  926.7795
 903  1072.051
 904  1112.151
 905  1026.002
 906  970.2912
 907  1015.347
 908  997.195
 909  978.8949
 910  947.1584
 911  912.2893
 912  826.8341
 913  812.0535
 914  855.2869
 915  926.4272
 916  1031.65
 917  962.0746
 918  884.7137
 919  964.1983
 920  1105.373
 921  1199.914
 922  1037.311
 923  815.3948
 924  835.7885
 925  949.5959
 926  965.4955
 927  802.8117
 928  791.5654
 929  871.8098
 930  956.8571
 931  867.9924
 932  873.1704
 933  858.3374
 934  851.6779
 935  915.8527
 936  884.6653
 937  803.3914
 938  719.7302
 939  813.2522
 940  917.9766
 941  1054.295
 942  981.7392
 943  964.5955
 944  892.1428
 945  1050.715
 946  1059.358
 947  870.9623
 948  844.8676
 949  838.2635
 950  965.6366
 951  920.4084
 952  874.5806
 953  951.092
 954  1047.179
 955  985.8701
 956  782.0796
 957  613.8574
 958  557.3247
 959  746.4396
 960  800.0912
 961  817.1655
 962  741.1982
 963  790.2717
 964  915.4596
 965  831.4174
 966  624.9097
 967  611.414
 968  765.668
 969  836.0577
 970  882.7141
 971  776.3414
 972  774.8676
 973  615.1328
 974  502.253
 975  644.2937
 976  736.6124
 977  936.7397
 978  890.3036
 979  762.7219
 980  678.3682
 981  739.4523
 982  714.0037
 983  521.6281
 984  482.2494
 985  515.5121
 986  691.1346
 987  665.1185
 988  796.5135
 989  775.7308
 990  764.7889
 991  806.5414
 992  804.6349
 993  748.0267
 994  714.4446
 995  663.3134
 996  782.5334
 997  732.6641
 998  641.5735
 999  591.9827
1000  664.0329
1001  822.9707
1002  790.4384
1003  774.8672
1004  661.356
1005  650.4003
1006  796.3895
1007  875.5519
1008  890.1596
1009  707.261
1010  782.5364
1011  813.6358
1012  799.3193
1013  742.7917
1014  675.377
1015  698.9591
1016  743.2437
1017  838.3207
1018  922.4506
1019  814.1846
1020  759.4958
1021  840.337
1022  908.9623
1023  934.1411
