# Input file       =  1197900169.093376_cleaned.dat
# Candidate        =  PSR_0332+5434
# Telescope        =  AR
# Epoch_topo       =  58108.585510340003
# Epoch_bary       =  N/A
# T_sample         =  0.002
# Data Folded      =  7208960
# Data Avg         =  0.160823882012416
# Data StdDev      =  4.95573811313422 
# Profile Bins     =  1024
# Profile Avg      =  1132.21800621931 
# Profile StdDev   =  415.809758581537 
# Reduced chi-sqr  =  0.664
# Prob(Noise)      <  1   (~0.0 sigma)
# P_topo (ms)      =  714.546347528837  +/- 3.52e-05
# P'_topo (s/s)    =  -0                +/- 1.89e-11
# P''_topo (s/s^2) =  0                 +/- 8.5e-15
# P_bary (ms)      =  N/A
# P'_bary (s/s)    =  N/A
# P''_bary (s/s^2) =  N/A
# P_orb (s)        =  N/A
# asin(i)/c (s)    =  N/A
# eccentricity     =  N/A
# w (rad)          =  N/A
# T_peri           =  N/A
######################################################
   0  1443.736
   1  1284.547
   2  1267.049
   3  1072.078
   4  1106.791
   5  1228.88
   6  1242.723
   7  1315.389
   8  1184.785
   9  1312.816
  10  1433.551
  11  1230.059
  12  1129.705
  13  1093.265
  14  1128.27
  15  1136.223
  16  933.6809
  17  984.6002
  18  1038.075
  19  1144.886
  20  1023.76
  21  951.356
  22  978.3152
  23  1109.074
  24  1159.784
  25  1112.032
  26  1193.686
  27  1250.377
  28  1239.015
  29  1252.811
  30  1071.133
  31  1179.689
  32  1153.544
  33  1169.265
  34  1112.041
  35  969.0436
  36  914.193
  37  863.7766
  38  871.2134
  39  812.7286
  40  711.9547
  41  654.5069
  42  663.0657
  43  835.3722
  44  1017.594
  45  1090.851
  46  1076.608
  47  1061.726
  48  1092.191
  49  1085.74
  50  990.8002
  51  908.5235
  52  929.283
  53  942.6827
  54  1045.79
  55  939.8682
  56  932.1283
  57  742.2629
  58  709.556
  59  810.1845
  60  1014.837
  61  1207.44
  62  1330.971
  63  1154.084
  64  1151.34
  65  1064.457
  66  948.7286
  67  921.2752
  68  808.6567
  69  900.4125
  70  873.6805
  71  751.7429
  72  835.9534
  73  755.8314
  74  805.6743
  75  813.7452
  76  892.8146
  77  1072.263
  78  943.7073
  79  842.4678
  80  935.3179
  81  931.6693
  82  1056.722
  83  967.4334
  84  1071.801
  85  1073.732
  86  1090.187
  87  1107.331
  88  998.1195
  89  993.5378
  90  1046.445
  91  1271.011
  92  1205.257
  93  1095.458
  94  888.4102
  95  848.6293
  96  921.9839
  97  926.5397
  98  1048.828
  99  1153.202
 100  1193.582
 101  1204.195
 102  1099.389
 103  1138.793
 104  1305.342
 105  1259.168
 106  1180.22
 107  1002.393
 108  1063.04
 109  1065.111
 110  1122.544
 111  1245.963
 112  1420.886
 113  1302.901
 114  1274.345
 115  1265.65
 116  1202.081
 117  1372.828
 118  1366.747
 119  1324.82
 120  1337.802
 121  1209.686
 122  1071.809
 123  787.2767
 124  912.4112
 125  1116.838
 126  1212.326
 127  1301.677
 128  1280.601
 129  1209.031
 130  1193.448
 131  1296.783
 132  1375.46
 133  1408.636
 134  1409.511
 135  1330.401
 136  1097.797
 137  874.3123
 138  997.5056
 139  1177.131
 140  1275.619
 141  1113.695
 142  1089.738
 143  1073.419
 144  1132.994
 145  1190.971
 146  1293.464
 147  1281.8
 148  1306.922
 149  1152.976
 150  1056.151
 151  875.9764
 152  982.1103
 153  1094.715
 154  1101.19
 155  1076.479
 156  963.6158
 157  997.4615
 158  1066.403
 159  1044.487
 160  1094.879
 161  968.1772
 162  1094.705
 163  1298.698
 164  1358.026
 165  1264.88
 166  1103.504
 167  1117.082
 168  1165.303
 169  1092.6
 170  1076.877
 171  1196.552
 172  1149.772
 173  911.953
 174  866.8843
 175  880.2964
 176  849.9999
 177  849.4083
 178  911.9665
 179  1063.688
 180  990.4478
 181  914.6091
 182  882.9753
 183  633.7964
 184  731.3283
 185  972.5662
 186  1180.396
 187  1308.205
 188  1246.957
 189  1189.826
 190  1159.094
 191  1080.719
 192  1092.457
 193  986.8415
 194  887.3851
 195  953.7854
 196  1002.968
 197  1056.624
 198  1194.738
 199  1104.251
 200  1264.724
 201  1232.442
 202  1310.704
 203  1335.738
 204  1306.595
 205  1387.907
 206  1330.696
 207  1232.662
 208  1188.651
 209  1075.643
 210  1109.635
 211  1128.947
 212  1263.185
 213  1316.42
 214  1175.376
 215  1065.436
 216  985.2552
 217  1096.867
 218  1181.97
 219  1205.923
 220  1208.59
 221  1148.349
 222  1136.369
 223  1168.004
 224  1191.029
 225  1429.475
 226  1510.16
 227  1590.111
 228  1552.815
 229  1325.453
 230  1168.639
 231  1083.444
 232  1181.965
 233  1363.412
 234  1326.38
 235  1295.608
 236  1346.597
 237  1307.106
 238  1271.664
 239  1248.134
 240  1209.638
 241  1222.491
 242  1194.983
 243  1074.099
 244  1113.208
 245  955.535
 246  1088.109
 247  1142.655
 248  1194.785
 249  1215.926
 250  1126.755
 251  1063.045
 252  1014.212
 253  953.48
 254  1021.276
 255  1235.991
 256  1195.462
 257  1162.763
 258  1093.65
 259  1055.124
 260  1173.983
 261  1143.416
 262  1114.839
 263  1183.096
 264  1128.478
 265  1228.627
 266  923.9361
 267  778.1325
 268  893.3467
 269  935.3337
 270  1041.712
 271  944.9402
 272  855.59
 273  913.2528
 274  851.1446
 275  1107.666
 276  1201.147
 277  1264.765
 278  1237.942
 279  1222.205
 280  1181.125
 281  1058.483
 282  974.8821
 283  1062.317
 284  1084.573
 285  1151.848
 286  1167.794
 287  1150.744
 288  952.884
 289  882.3281
 290  931.3472
 291  1080.454
 292  1261.315
 293  1247.413
 294  1061.104
 295  808.4749
 296  917.5414
 297  1080.958
 298  1049.717
 299  960.511
 300  949.5384
 301  1119.665
 302  1025.087
 303  977.4598
 304  932.9465
 305  1071.306
 306  1231.907
 307  1173.166
 308  997.9392
 309  749.1558
 310  785.2801
 311  987.6376
 312  1123.132
 313  1033.369
 314  818.8934
 315  838.7001
 316  758.9344
 317  728.1232
 318  717.5215
 319  803.0737
 320  1133.21
 321  1070.527
 322  1060.794
 323  1024.84
 324  1100.068
 325  1196.89
 326  1052.523
 327  1109.35
 328  1129.981
 329  904.6416
 330  962.6202
 331  920.2219
 332  1156.005
 333  1238.722
 334  1250.244
 335  1250.603
 336  1154.917
 337  1022.816
 338  973.8138
 339  1017.275
 340  1176.405
 341  1182.479
 342  984.9276
 343  982.6119
 344  954.2398
 345  991.2787
 346  1016.035
 347  1021.141
 348  1228.484
 349  1391.22
 350  1329.58
 351  1216.225
 352  882.7468
 353  1022.928
 354  1172.073
 355  1267.976
 356  1235.129
 357  1064.737
 358  906.1716
 359  892.0588
 360  822.966
 361  988.7327
 362  961.3196
 363  1025.639
 364  1127.813
 365  1237.34
 366  1190.245
 367  1170.994
 368  1360.351
 369  1498.066
 370  1354.199
 371  1051.466
 372  875.2792
 373  764.5577
 374  841.5239
 375  1163.008
 376  1385.824
 377  1370.098
 378  1219.218
 379  1031.409
 380  933.2012
 381  794.0225
 382  875.3956
 383  1052.781
 384  1111.288
 385  1066.351
 386  991.3002
 387  1037.57
 388  999.7345
 389  1079.942
 390  1152.757
 391  1271.048
 392  1228.687
 393  1227.068
 394  1132.939
 395  1116.217
 396  1106.309
 397  1130.585
 398  1009.4
 399  974.5493
 400  867.8253
 401  1026.114
 402  1120.071
 403  1218.952
 404  1149.32
 405  1084.603
 406  1266.43
 407  1203.503
 408  1195.487
 409  973.6685
 410  1019.59
 411  1136.32
 412  1106.685
 413  1069.839
 414  1019.754
 415  1007.133
 416  943.9975
 417  808.0339
 418  1052.916
 419  1255.255
 420  1272.806
 421  1348.03
 422  1183.333
 423  1106.089
 424  960.0044
 425  971.8032
 426  1245.077
 427  1271.974
 428  1345.261
 429  1178.089
 430  1027.558
 431  990.0697
 432  1111.939
 433  1034.867
 434  1038.569
 435  991.577
 436  1147.474
 437  1264.287
 438  1186.824
 439  1129.824
 440  1213.221
 441  1188.114
 442  1200.599
 443  1026.93
 444  1075.137
 445  1181.183
 446  1178.916
 447  1172.522
 448  1286.084
 449  1354.713
 450  1269.714
 451  1105.152
 452  854.1362
 453  880.4609
 454  1024.059
 455  1289.511
 456  1429.9
 457  1340.667
 458  1388.635
 459  1313.149
 460  1124.984
 461  1079.96
 462  1048.211
 463  1017.071
 464  1063.277
 465  1093.688
 466  1154.738
 467  1073.356
 468  1209.521
 469  1305.106
 470  1395.113
 471  1398.907
 472  1375.168
 473  1239.162
 474  1327.987
 475  1298.341
 476  1419.405
 477  1217.766
 478  1333.52
 479  1325.645
 480  1269.351
 481  1160.319
 482  1058.102
 483  1231.563
 484  1384.689
 485  1414.186
 486  1411.834
 487  1221.725
 488  1182.539
 489  1182.061
 490  1335.714
 491  1409.289
 492  1327.832
 493  1133.313
 494  1295.891
 495  1221.327
 496  1340.203
 497  1357.994
 498  1427.242
 499  1549.63
 500  1426.245
 501  1334.083
 502  1242.11
 503  1134.617
 504  1291.859
 505  1338.371
 506  1389.711
 507  1410.364
 508  1237.793
 509  1072.916
 510  862.0366
 511  957.5222
 512  1193.344
 513  1383.979
 514  1278.669
 515  1109.465
 516  1088.391
 517  1032.922
 518  1054.197
 519  1076.336
 520  1215.485
 521  1378.133
 522  1227.065
 523  1142.016
 524  1002.357
 525  932.7261
 526  1283.462
 527  1330.232
 528  1354.761
 529  1252.46
 530  1193.252
 531  1323.303
 532  1365.537
 533  1448.831
 534  1551.151
 535  1585.318
 536  1601.046
 537  1456.328
 538  1289.234
 539  1342.626
 540  1441.705
 541  1580.297
 542  1675.311
 543  1522.211
 544  1437.656
 545  1295.71
 546  1243.754
 547  1343.898
 548  1266.108
 549  1341.223
 550  1257.888
 551  1268.086
 552  1139.407
 553  1055.592
 554  1148.677
 555  1250.158
 556  1443.326
 557  1483.022
 558  1496.839
 559  1501.108
 560  1427.954
 561  1391.49
 562  1405.14
 563  1326.403
 564  1339.87
 565  1309.853
 566  1402.372
 567  1335.475
 568  1169.757
 569  1192.174
 570  1227.311
 571  1293.379
 572  1176.434
 573  1211.704
 574  1245.075
 575  1206.149
 576  1069.549
 577  1152.626
 578  1346.458
 579  1284.334
 580  1210.086
 581  973.8364
 582  954.2753
 583  1090.992
 584  1144.248
 585  1190.494
 586  1216.266
 587  1160.724
 588  1135.029
 589  970.342
 590  1061.035
 591  1129.508
 592  1093.891
 593  1041.797
 594  985.0181
 595  1011.91
 596  1174.179
 597  1268.636
 598  1395.603
 599  1474.161
 600  1253.069
 601  1191.923
 602  1205.597
 603  1318.72
 604  1333.569
 605  1200.394
 606  1269.101
 607  1363.828
 608  1306.228
 609  1298.617
 610  1191.722
 611  1402.947
 612  1695.181
 613  1750.956
 614  1605.196
 615  1418.301
 616  1498.223
 617  1692.205
 618  1650.574
 619  1607.871
 620  1617.1
 621  1636.287
 622  1744.101
 623  1793.389
 624  1748.472
 625  1789.08
 626  1763.457
 627  1869.599
 628  1652.792
 629  1505.16
 630  1280.728
 631  1199.299
 632  1150.373
 633  1289.996
 634  1190.735
 635  1199.177
 636  1113.604
 637  1147.514
 638  912.6042
 639  851.8503
 640  728.4207
 641  940.861
 642  1099.265
 643  1226.156
 644  1241.699
 645  1208.648
 646  1170.301
 647  1257.606
 648  1183.107
 649  1233.042
 650  1170.638
 651  1024.391
 652  969.6853
 653  834.2861
 654  965.0098
 655  1074.539
 656  1209.572
 657  1375.653
 658  1261.631
 659  1314.619
 660  1211.63
 661  1189.894
 662  1125.453
 663  1155.933
 664  1332.062
 665  1367.648
 666  1397.537
 667  1220.405
 668  1176.276
 669  1261.24
 670  1389.164
 671  1523.469
 672  1478.86
 673  1143.481
 674  1020.667
 675  892.8088
 676  1165.406
 677  1357.429
 678  1143.051
 679  1134.177
 680  929.3735
 681  1028.375
 682  1143.203
 683  1091.465
 684  1210.342
 685  1162.961
 686  1097.095
 687  1082.843
 688  973.7334
 689  1156.507
 690  1237.908
 691  1269.012
 692  1231.221
 693  1111.613
 694  926.3918
 695  853.0719
 696  688.5156
 697  828.2035
 698  1216.593
 699  1306.392
 700  1269.24
 701  1149.051
 702  1264.019
 703  1302.588
 704  1237.988
 705  1263.86
 706  1297.887
 707  1296.299
 708  1201.635
 709  1059.972
 710  921.6833
 711  1011.653
 712  1133.723
 713  1222.028
 714  1345.583
 715  1382.901
 716  1289.152
 717  1189.659
 718  1049.744
 719  1110.231
 720  988.267
 721  1055.334
 722  1072.88
 723  1082.992
 724  1097.549
 725  1142.979
 726  1124.413
 727  1306.963
 728  1512.186
 729  1549.718
 730  1407.666
 731  1037.568
 732  985.778
 733  1137.418
 734  1116.135
 735  1174.071
 736  1207.743
 737  1329.741
 738  1137.462
 739  976.8439
 740  1213.716
 741  1379.078
 742  1433.771
 743  1270.118
 744  1199.393
 745  1086.839
 746  1101.109
 747  1382.563
 748  1392.938
 749  1377.074
 750  1277.349
 751  1217.421
 752  1307.352
 753  1252.214
 754  1451.562
 755  1642.382
 756  1559.125
 757  1498.863
 758  1471.611
 759  1322.632
 760  1388.659
 761  1242.01
 762  1409.167
 763  1225.656
 764  1168.97
 765  1258.628
 766  1297.227
 767  1206.208
 768  1156.361
 769  1092.514
 770  1284.284
 771  1338.331
 772  1229.793
 773  1174.489
 774  1073.481
 775  1061.04
 776  1091.729
 777  912.1985
 778  925.7665
 779  988.6822
 780  1087.773
 781  1045.868
 782  989.471
 783  1009.659
 784  1265.09
 785  1340.013
 786  1395.598
 787  1253.743
 788  1149.412
 789  1211.869
 790  1253.495
 791  1412.932
 792  1382.369
 793  1216.883
 794  1048.339
 795  1121.383
 796  1054.364
 797  1032.294
 798  1044.92
 799  893.6882
 800  1033.116
 801  1066.499
 802  1196.771
 803  949.2686
 804  847.7685
 805  1102.418
 806  1144.338
 807  1234.603
 808  1180.789
 809  1220.735
 810  1143.309
 811  956.2572
 812  982.0565
 813  953.4012
 814  841.3908
 815  679.3331
 816  644.4166
 817  674.5402
 818  862.2747
 819  1093.214
 820  1264.975
 821  1113.134
 822  1105.514
 823  1230.758
 824  1164.121
 825  951.1628
 826  789.7765
 827  871.7479
 828  1018.245
 829  1154.802
 830  1326.292
 831  1152.077
 832  1052.414
 833  1012.786
 834  1045.665
 835  995.6815
 836  983.2638
 837  1081.042
 838  1159.661
 839  1081.104
 840  1177.88
 841  1282.149
 842  1283.811
 843  1289.576
 844  1199.74
 845  1145.109
 846  1046.918
 847  1015.687
 848  1131.693
 849  1089.629
 850  1056.254
 851  1108.954
 852  1108.945
 853  921.6548
 854  838.5546
 855  944.1792
 856  1021.362
 857  1292.813
 858  1218.913
 859  1208.985
 860  1060.038
 861  1071.167
 862  1172.731
 863  1077.999
 864  1000.272
 865  921.3001
 866  934.7515
 867  954.3351
 868  831.6467
 869  841.1041
 870  957.4033
 871  991.588
 872  934.0707
 873  807.9563
 874  838.5467
 875  940.1921
 876  1060.12
 877  1239.925
 878  1183.074
 879  1130.338
 880  1039.871
 881  1050.808
 882  992.0023
 883  1106.007
 884  1096.764
 885  1265.345
 886  1250.258
 887  1218.304
 888  1217.656
 889  1051.112
 890  982.9047
 891  958.4659
 892  1021.432
 893  1171.41
 894  1176.647
 895  1282.524
 896  1096.308
 897  956.6064
 898  1069.755
 899  1317.186
 900  1370.854
 901  1256.488
 902  1168.374
 903  1144.263
 904  1101.424
 905  1108.59
 906  1104.27
 907  1166.092
 908  1057.744
 909  1021.064
 910  963.0263
 911  872.6066
 912  911.0593
 913  1120.885
 914  1241.598
 915  1197.471
 916  896.0903
 917  704.1503
 918  761.2846
 919  953.9839
 920  1122.55
 921  1180.916
 922  1173.38
 923  1139.586
 924  1107.006
 925  910.474
 926  961.2617
 927  977.7029
 928  1063.609
 929  1144.922
 930  1011.59
 931  860.7334
 932  792.7463
 933  805.3188
 934  917.9454
 935  1019.636
 936  1131.924
 937  1246.706
 938  1239.518
 939  1139.547
 940  1003.397
 941  844.5298
 942  1084.295
 943  1296.137
 944  1138.501
 945  959.8627
 946  805.7941
 947  794.8964
 948  863.6721
 949  846.7757
 950  1129.689
 951  1204.969
 952  1265.227
 953  1233.163
 954  945.4307
 955  893.5591
 956  1010.579
 957  983.7522
 958  985.1245
 959  796.0673
 960  868.1484
 961  908.6921
 962  830.8358
 963  884.5191
 964  968.8828
 965  1119.216
 966  1170.56
 967  1168.075
 968  1040.994
 969  1023.534
 970  1029.795
 971  1017.353
 972  1091.519
 973  1075.313
 974  1067.584
 975  960.3026
 976  899.3323
 977  1019.623
 978  1038.475
 979  1035.812
 980  1020.605
 981  1039.623
 982  1006.572
 983  932.098
 984  996.7621
 985  1009.321
 986  1039.411
 987  948.6536
 988  1094.569
 989  962.808
 990  1028.315
 991  1137.147
 992  1139.554
 993  989.0392
 994  794.0436
 995  753.8235
 996  678.9098
 997  636.7388
 998  855.4977
 999  1005.458
1000  1150.662
1001  944.4897
1002  829.4211
1003  811.1758
1004  961.6937
1005  1088.942
1006  1026.573
1007  1045.417
1008  1055.058
1009  919.0166
1010  979.954
1011  829.14
1012  850.8325
1013  967.0585
1014  1024.084
1015  1077.709
1016  1036.75
1017  1049.155
1018  1238.195
1019  1175.159
1020  1364.037
1021  1365.44
1022  1329.37
1023  1356.372
