# Input file       =  1197469409.100829_cleaned.dat
# Candidate        =  PSR_0332+5434
# Telescope        =  AR
# Epoch_topo       =  58103.599862278112
# Epoch_bary       =  N/A
# T_sample         =  0.002
# Data Folded      =  7340032
# Data Avg         =  0.100062366330523
# Data StdDev      =  1.00051673900415 
# Profile Bins     =  512
# Profile Avg      =  1434.49657325096 
# Profile StdDev   =  119.794907106747 
# Reduced chi-sqr  =  0.874
# Prob(Noise)      <  0.981   (~0.0 sigma)
# P_topo (ms)      =  714.541504999111  +/- 8.73e-05
# P'_topo (s/s)    =  -0                +/- 4.6e-11
# P''_topo (s/s^2) =  0                 +/- 2.03e-14
# P_bary (ms)      =  N/A
# P'_bary (s/s)    =  N/A
# P''_bary (s/s^2) =  N/A
# P_orb (s)        =  N/A
# asin(i)/c (s)    =  N/A
# eccentricity     =  N/A
# w (rad)          =  N/A
# T_peri           =  N/A
######################################################
   0  1679.264
   1  1710.985
   2  1727.386
   3  1567.059
   4  1368.239
   5  1343.069
   6  1348.507
   7  1379.679
   8  1390.96
   9  1484.037
  10  1564.493
  11  1550.631
  12  1481.736
  13  1429.453
  14  1506.072
  15  1504.901
  16  1531.042
  17  1396.367
  18  1498.917
  19  1496.582
  20  1536.317
  21  1489.574
  22  1436.867
  23  1433.79
  24  1445.979
  25  1519.507
  26  1582.091
  27  1522.903
  28  1498.571
  29  1544.353
  30  1478.258
  31  1413.644
  32  1420.416
  33  1477.015
  34  1325.06
  35  1357.373
  36  1342.38
  37  1374.74
  38  1416.422
  39  1426.176
  40  1502.019
  41  1500.482
  42  1447.92
  43  1374.405
  44  1461.825
  45  1452.25
  46  1336.643
  47  1384.906
  48  1384.179
  49  1310.117
  50  1309.672
  51  1412.807
  52  1341.156
  53  1345.985
  54  1492.068
  55  1484.7
  56  1287.904
  57  1310.264
  58  1425.158
  59  1500.603
  60  1461.79
  61  1457.807
  62  1466.32
  63  1464.893
  64  1425.622
  65  1393.681
  66  1422.19
  67  1370.238
  68  1452.58
  69  1487.601
  70  1364.098
  71  1333.358
  72  1293.514
  73  1340.025
  74  1313.1
  75  1375.788
  76  1345.378
  77  1367.946
  78  1429.136
  79  1444.915
  80  1476.97
  81  1475.466
  82  1524.807
  83  1488.555
  84  1507.061
  85  1475.281
  86  1510.207
  87  1496.137
  88  1464.817
  89  1388.458
  90  1432.761
  91  1468.806
  92  1479.959
  93  1546.906
  94  1479.002
  95  1392.046
  96  1366.473
  97  1394.076
  98  1450.204
  99  1342.421
 100  1437.606
 101  1402.529
 102  1401.663
 103  1385.977
 104  1357.094
 105  1333.493
 106  1343.091
 107  1417.754
 108  1582.959
 109  1581.496
 110  1504.315
 111  1339.289
 112  1328.259
 113  1436.458
 114  1390.895
 115  1316.212
 116  1379.203
 117  1396.985
 118  1467.336
 119  1436.119
 120  1447.174
 121  1518.145
 122  1464.302
 123  1400.495
 124  1343.935
 125  1353.973
 126  1429.41
 127  1492.046
 128  1484.497
 129  1451.207
 130  1470.961
 131  1487.481
 132  1390.751
 133  1318.416
 134  1409.894
 135  1387.662
 136  1445.505
 137  1371.182
 138  1282.272
 139  1306.519
 140  1282.899
 141  1354.619
 142  1385.813
 143  1419.745
 144  1414.304
 145  1454.561
 146  1367.425
 147  1291.071
 148  1330.276
 149  1450.944
 150  1426.491
 151  1345.632
 152  1510.517
 153  1435.177
 154  1295.869
 155  1398.08
 156  1405.635
 157  1436.473
 158  1448.37
 159  1428.972
 160  1454.677
 161  1466.586
 162  1489.187
 163  1494.798
 164  1315.398
 165  1270.306
 166  1382.77
 167  1399.01
 168  1530.958
 169  1472.769
 170  1408.074
 171  1402.431
 172  1341.754
 173  1420.587
 174  1394.062
 175  1492.744
 176  1532.35
 177  1539.851
 178  1364.51
 179  1436.521
 180  1351.562
 181  1382.977
 182  1395.669
 183  1405.99
 184  1354.274
 185  1267.255
 186  1347.552
 187  1320.213
 188  1397.184
 189  1326.436
 190  1503.306
 191  1528.793
 192  1521.005
 193  1439.039
 194  1281.879
 195  1269.647
 196  1317.698
 197  1329.605
 198  1292.611
 199  1399.564
 200  1463.41
 201  1435.867
 202  1484.541
 203  1554.324
 204  1553.923
 205  1456.246
 206  1449.291
 207  1393.297
 208  1417.324
 209  1573.386
 210  1587.9
 211  1454.595
 212  1391.817
 213  1376.636
 214  1308.083
 215  1380.769
 216  1453.417
 217  1508.455
 218  1393.569
 219  1269.864
 220  1318.054
 221  1519.801
 222  1403.634
 223  1311.617
 224  1483.779
 225  1541.555
 226  1570.716
 227  1582.931
 228  1394.61
 229  1392.287
 230  1428.074
 231  1609.953
 232  1599.85
 233  1517.157
 234  1428.614
 235  1352.958
 236  1297.664
 237  1289.768
 238  1243.568
 239  1268.792
 240  1322.512
 241  1426.091
 242  1522.443
 243  1541.762
 244  1489.347
 245  1519.195
 246  1589.5
 247  1514.594
 248  1471.353
 249  1534.804
 250  1486.36
 251  1387.233
 252  1482.284
 253  1496.852
 254  1464.344
 255  1472.546
 256  1547.817
 257  1503.502
 258  1550.186
 259  1585.975
 260  1615.788
 261  1501.002
 262  1438.316
 263  1404.497
 264  1456.671
 265  1476.654
 266  1408.051
 267  1427.409
 268  1458.237
 269  1546.659
 270  1472.67
 271  1364.029
 272  1380.602
 273  1439.088
 274  1559.589
 275  1533.97
 276  1608.554
 277  1497.443
 278  1495.181
 279  1427.409
 280  1355.921
 281  1445.918
 282  1458.917
 283  1578.058
 284  1477.032
 285  1492.577
 286  1452.88
 287  1492.725
 288  1405.954
 289  1408.878
 290  1465.626
 291  1407.641
 292  1514.492
 293  1463.966
 294  1520.775
 295  1418.359
 296  1453.848
 297  1499.622
 298  1563.308
 299  1462.269
 300  1524.523
 301  1525.945
 302  1449.383
 303  1439.363
 304  1358.841
 305  1410.14
 306  1367.689
 307  1324.853
 308  1386.526
 309  1489.224
 310  1569.985
 311  1423.556
 312  1400.582
 313  1351.393
 314  1380.008
 315  1547.178
 316  1507.698
 317  1483.808
 318  1488.954
 319  1431.688
 320  1332.426
 321  1343.485
 322  1330.775
 323  1456.435
 324  1510.046
 325  1439.498
 326  1397.182
 327  1399.232
 328  1439.776
 329  1491.69
 330  1490.915
 331  1525.217
 332  1531.06
 333  1571.508
 334  1402.265
 335  1411.064
 336  1406.928
 337  1408.9
 338  1349.279
 339  1373.764
 340  1481.005
 341  1532.224
 342  1576.351
 343  1516.737
 344  1557.387
 345  1461.805
 346  1468.568
 347  1336.224
 348  1343.543
 349  1498.425
 350  1505.714
 351  1386.874
 352  1369.834
 353  1338.028
 354  1339.865
 355  1434.886
 356  1398.282
 357  1399.562
 358  1535.16
 359  1451.305
 360  1536.235
 361  1421.192
 362  1244.248
 363  1289.238
 364  1374.591
 365  1397.333
 366  1436.837
 367  1471.483
 368  1512.939
 369  1458.962
 370  1395.284
 371  1357.653
 372  1417.909
 373  1435.74
 374  1453.805
 375  1439.079
 376  1361.818
 377  1377.304
 378  1392.705
 379  1426.949
 380  1431.617
 381  1476.332
 382  1466.154
 383  1495.012
 384  1458.124
 385  1394.876
 386  1366.585
 387  1445.532
 388  1390.473
 389  1350.235
 390  1428.172
 391  1420.691
 392  1533.02
 393  1583.348
 394  1634.578
 395  1470.175
 396  1431.05
 397  1508.622
 398  1459.121
 399  1542.688
 400  1601.015
 401  1620.683
 402  1443.192
 403  1417.981
 404  1467.755
 405  1459.909
 406  1476.052
 407  1591.054
 408  1656.915
 409  1535.527
 410  1442.621
 411  1499.729
 412  1461.467
 413  1379.835
 414  1428.915
 415  1418.993
 416  1386.473
 417  1437.076
 418  1342.752
 419  1249.504
 420  1334.222
 421  1339.88
 422  1426.839
 423  1390.031
 424  1398.801
 425  1460.58
 426  1399.416
 427  1398.453
 428  1382.452
 429  1458.535
 430  1323.629
 431  1275.962
 432  1324.351
 433  1359.963
 434  1284.629
 435  1359.435
 436  1379.274
 437  1378.618
 438  1356.835
 439  1324.671
 440  1376.299
 441  1481.748
 442  1527.316
 443  1575.975
 444  1432.588
 445  1327.063
 446  1379.593
 447  1362.121
 448  1413.663
 449  1447.253
 450  1418.245
 451  1395.036
 452  1388.933
 453  1414.737
 454  1493.719
 455  1488.484
 456  1277.079
 457  1347.172
 458  1398.131
 459  1453.215
 460  1576.12
 461  1503.917
 462  1328.778
 463  1363.16
 464  1440.296
 465  1434.579
 466  1327.099
 467  1471.427
 468  1470.24
 469  1413.195
 470  1379.322
 471  1382.828
 472  1288.841
 473  1438.743
 474  1508.983
 475  1468.115
 476  1339.15
 477  1258.108
 478  1295.802
 479  1389.266
 480  1436.205
 481  1321.461
 482  1431.027
 483  1368.345
 484  1352.901
 485  1412.623
 486  1409.955
 487  1324.015
 488  1365.044
 489  1556.844
 490  1517.496
 491  1513.207
 492  1523.043
 493  1427.746
 494  1471.047
 495  1543.284
 496  1543.653
 497  1476.105
 498  1442.746
 499  1437.242
 500  1424.986
 501  1374.672
 502  1379.686
 503  1451.388
 504  1455.77
 505  1559.762
 506  1526.869
 507  1455.162
 508  1432.198
 509  1436.536
 510  1514.559
 511  1657.345
