# Input file       =  1197655838.099764_cleaned.dat
# Candidate        =  PSR_0332+5434
# Telescope        =  AR
# Epoch_topo       =  58105.757605321342
# Epoch_bary       =  N/A
# T_sample         =  0.002
# Data Folded      =  7340032
# Data Avg         =  0.317423586304356
# Data StdDev      =  11.4927437357342 
# Profile Bins     =  1024
# Profile Avg      =  2276.21672807072 
# Profile StdDev   =  973.02213780954  
# Reduced chi-sqr  =  1.052
# Prob(Noise)      <  0.122   (~1.2 sigma)
# P_topo (ms)      =  714.543641151877  +/- 0.000346
# P'_topo (s/s)    =  -0                +/- 1.83e-10
# P''_topo (s/s^2) =  0                 +/- 8.06e-14
# P_bary (ms)      =  N/A
# P'_bary (s/s)    =  N/A
# P''_bary (s/s^2) =  N/A
# P_orb (s)        =  N/A
# asin(i)/c (s)    =  N/A
# eccentricity     =  N/A
# w (rad)          =  N/A
# T_peri           =  N/A
######################################################
   0  2361.112
   1  2775.854
   2  2813.043
   3  3010.849
   4  3098.961
   5  3143.556
   6  3188.649
   7  2943.193
   8  2713.844
   9  2572.214
  10  2324.171
  11  2515.989
  12  2568.384
  13  2852.292
  14  3047.89
  15  3245.294
  16  3507.198
  17  3519.516
  18  3480.576
  19  3128.454
  20  2985.918
  21  2760.452
  22  2818.478
  23  2572.632
  24  2333.397
  25  2308.633
  26  2099.016
  27  2402.84
  28  2484.518
  29  2412.133
  30  2307.367
  31  2474.669
  32  2757.484
  33  2733.166
  34  2559.279
  35  2464.698
  36  2530.218
  37  2668.693
  38  2835.868
  39  2699.111
  40  2573.611
  41  2440.767
  42  2276.731
  43  2493.567
  44  2682.344
  45  2618.694
  46  2825.823
  47  2821.098
  48  3115.244
  49  2812.849
  50  2711.628
  51  2416.7
  52  2383.581
  53  2320.21
  54  2355.14
  55  2112.489
  56  1965.281
  57  2011.558
  58  2130.347
  59  2088.392
  60  2389.396
  61  2430.683
  62  2488.56
  63  2264.044
  64  2196.587
  65  2189.704
  66  2219.037
  67  2288.663
  68  2199.87
  69  2227.054
  70  1988.357
  71  2089.816
  72  2250.494
  73  2402.29
  74  2413.748
  75  2226.681
  76  2505.325
  77  2075.774
  78  1951.616
  79  2498.511
  80  3002.34
  81  3193.06
  82  2929.96
  83  2891.453
  84  2675.678
  85  2408.802
  86  2398.956
  87  2493.907
  88  2445.503
  89  2462.753
  90  2622.806
  91  2600.222
  92  2458.958
  93  2638.91
  94  2753.53
  95  2935.866
  96  2968.927
  97  3192.471
  98  3110.419
  99  3088.268
 100  3127.077
 101  2947.61
 102  2582.736
 103  2621.324
 104  2832.848
 105  3068.925
 106  2784.81
 107  2511.613
 108  2617.055
 109  2496.655
 110  2336.03
 111  2342.839
 112  2467.91
 113  2710.208
 114  2828.229
 115  3065.748
 116  2918.326
 117  2753.757
 118  2826.188
 119  2936.851
 120  2715.984
 121  2491.561
 122  2438.803
 123  2440.377
 124  2627.505
 125  2769.302
 126  2843.75
 127  2724.068
 128  2262.676
 129  2293.671
 130  2309.196
 131  2316.86
 132  2453.63
 133  2587.891
 134  2394.576
 135  2142.054
 136  1803.919
 137  1499.969
 138  1548.986
 139  1440.412
 140  1533.782
 141  1272.034
 142  1192.201
 143  1338.18
 144  1826.639
 145  2063.786
 146  1976.037
 147  1920
 148  1986.926
 149  1983.901
 150  1706.492
 151  1725.089
 152  1924.565
 153  1669.792
 154  1656.591
 155  1452.145
 156  1520.656
 157  1405.135
 158  1710.934
 159  2223.37
 160  2312.301
 161  2091.875
 162  1992.463
 163  1900.283
 164  1810.4
 165  1733.004
 166  1675.148
 167  1644.184
 168  1404.593
 169  1565.675
 170  1878.976
 171  1958.06
 172  1961.335
 173  2177.073
 174  2424.392
 175  2367.39
 176  2596.927
 177  2819.257
 178  2868.596
 179  2808.461
 180  2555.97
 181  2572.508
 182  2443.996
 183  2516.865
 184  2354.653
 185  2138.265
 186  2043.536
 187  2013.137
 188  1841.808
 189  1923.346
 190  2075.267
 191  2350.829
 192  2686.391
 193  2735.718
 194  3090.995
 195  2987.96
 196  2777.702
 197  2690.469
 198  2758.801
 199  2372.029
 200  2270.048
 201  2214.098
 202  2274.972
 203  2298.403
 204  2441.317
 205  2760.785
 206  2959.114
 207  2994.984
 208  3040.577
 209  3145.776
 210  3008.754
 211  3106.272
 212  3153.705
 213  2934.203
 214  2814.001
 215  2520.852
 216  2152.074
 217  1809.052
 218  1618.266
 219  1761.247
 220  1532.646
 221  1338.471
 222  1638.519
 223  1605.878
 224  1627.652
 225  1808.759
 226  2082.018
 227  2044.105
 228  1649.099
 229  1317.004
 230  1366.341
 231  1066.252
 232  1025.488
 233  962.1935
 234  1105.063
 235  1043.612
 236  1211.158
 237  1600.226
 238  1528.208
 239  1236.6
 240  1120.867
 241  1394.867
 242  1734.993
 243  1860.457
 244  1973.038
 245  2089.107
 246  2015.943
 247  1995.629
 248  2061.397
 249  2136.744
 250  2561.027
 251  2448.488
 252  2411.88
 253  2443.332
 254  2482.612
 255  2603.921
 256  2459.242
 257  2589.96
 258  2384.657
 259  2418.871
 260  2397.807
 261  2255.938
 262  2161.09
 263  2112.466
 264  2430.744
 265  2783.484
 266  2711.34
 267  2419.612
 268  2101.793
 269  2244.835
 270  1864.076
 271  1699.967
 272  1771.821
 273  1932.569
 274  1915.67
 275  1566.257
 276  1691.953
 277  1673.469
 278  1948.028
 279  2022.431
 280  2233.122
 281  2333.06
 282  2385.7
 283  2664.689
 284  2803.113
 285  2972.97
 286  3039.731
 287  2903.155
 288  2609.951
 289  2539.529
 290  2774.399
 291  2480.478
 292  2363.887
 293  2385.45
 294  2448.048
 295  2383.459
 296  2371.299
 297  2748.542
 298  2918.649
 299  2827.763
 300  2695.594
 301  2581.914
 302  2565.427
 303  2103.997
 304  2039.948
 305  2409.824
 306  2316.728
 307  2209.166
 308  2038.163
 309  2164.58
 310  2184.183
 311  2237.735
 312  2214.082
 313  2333.913
 314  2194.59
 315  2136.832
 316  1881.633
 317  1961.364
 318  1893.415
 319  2280.048
 320  2270.128
 321  2149.75
 322  2130.396
 323  2129.62
 324  2135.032
 325  2104.177
 326  1960.555
 327  1812.982
 328  2088.246
 329  2425.911
 330  2409.134
 331  1834.821
 332  1830.815
 333  1740.003
 334  2006.204
 335  1915.321
 336  1948.132
 337  1978.874
 338  1706.82
 339  1657.327
 340  1491.047
 341  1595.248
 342  1576.9
 343  1719.738
 344  1839.204
 345  1871.448
 346  2127.999
 347  1896.095
 348  1671.761
 349  1677.715
 350  1878.976
 351  1640.199
 352  1433.555
 353  1348.096
 354  1302.734
 355  1179.958
 356  1304.763
 357  1477.175
 358  1347.592
 359  1191.45
 360  1166.114
 361  1427.811
 362  1689.973
 363  1705.272
 364  2267.202
 365  2191.392
 366  1840.634
 367  1932.565
 368  2165.285
 369  2103.98
 370  1969.216
 371  1938.754
 372  1940.718
 373  1862.341
 374  1975.005
 375  2464.633
 376  2477.069
 377  2512.263
 378  2381.346
 379  2317.265
 380  2342.782
 381  2047.394
 382  1868.511
 383  1545.923
 384  1532.126
 385  1880.91
 386  2069.588
 387  2305.507
 388  2347.684
 389  2364.332
 390  2337.725
 391  2411.552
 392  2300.944
 393  2239.748
 394  2262.689
 395  2010.792
 396  1570.339
 397  1134.347
 398  1132.617
 399  1430.928
 400  1659.14
 401  1661.02
 402  1710.859
 403  1630.797
 404  2039.103
 405  2318.738
 406  2280.709
 407  2179.594
 408  1878.34
 409  2045.52
 410  1496.551
 411  1348.845
 412  1417.441
 413  1374.725
 414  1408.311
 415  1662.896
 416  2157.002
 417  1896.341
 418  1742.02
 419  1645.613
 420  1928.926
 421  1888.641
 422  1569.29
 423  1546.046
 424  1401.114
 425  1473.395
 426  1597.999
 427  1339.74
 428  1344.366
 429  1301.836
 430  1717.318
 431  1935.227
 432  1874.807
 433  2171.364
 434  1956.933
 435  2057.266
 436  1613.061
 437  1614.702
 438  1624.901
 439  1695.707
 440  1764.919
 441  1390.694
 442  1259.846
 443  1267.073
 444  1514.067
 445  1783.325
 446  1794.584
 447  1716.709
 448  1896.556
 449  1780.156
 450  2219.466
 451  2393.789
 452  2285.807
 453  2166.924
 454  1754.459
 455  1685.093
 456  1583.7
 457  1840.112
 458  1795.699
 459  1390.96
 460  1542.142
 461  1779.663
 462  1897.825
 463  1974.318
 464  2424.259
 465  2697.373
 466  2679.858
 467  2678.298
 468  2593.021
 469  2236.268
 470  2171.41
 471  2030.477
 472  1910.067
 473  1651.835
 474  1538.996
 475  1768.847
 476  1818.916
 477  1896.646
 478  1709.872
 479  1675.379
 480  1873.959
 481  1831.516
 482  1686.273
 483  1142.741
 484  724.2443
 485  831.8355
 486  954.3092
 487  1318.243
 488  1457.567
 489  1479.003
 490  1543.963
 491  1608.071
 492  1809.452
 493  1889.554
 494  1974.33
 495  1776.939
 496  1312.847
 497  1158.748
 498  1002.33
 499  832.3782
 500  598.8066
 501  428.9083
 502  687.6174
 503  619.9371
 504  656.8889
 505  629.7809
 506  820.4037
 507  1010.782
 508  897.4301
 509  1026.316
 510  1470.199
 511  1403.366
 512  1795.415
 513  1922.27
 514  2030.156
 515  1827.787
 516  1541.459
 517  1610.58
 518  1176.578
 519  1059.102
 520  1338.323
 521  1410.953
 522  1415.011
 523  1334.723
 524  1499.52
 525  1126.672
 526  1198.412
 527  1536.403
 528  2000.594
 529  1929.093
 530  1887.735
 531  1991.922
 532  1702.064
 533  1884.254
 534  1972.267
 535  2309.78
 536  2099.594
 537  1770.58
 538  1556.27
 539  1719.631
 540  1919.427
 541  2340.375
 542  2482.038
 543  2523.364
 544  2501.813
 545  2670.634
 546  2478.375
 547  2325.27
 548  2369.07
 549  2345.052
 550  2058.139
 551  1729.993
 552  1778.737
 553  1992.562
 554  2376.167
 555  2607.606
 556  2782.219
 557  2656.816
 558  2836.799
 559  3058.539
 560  2925.109
 561  2633.999
 562  2369.007
 563  2404.68
 564  2633.635
 565  2528.484
 566  2367.499
 567  2327.112
 568  2871.305
 569  3181.113
 570  3053.387
 571  2594.825
 572  2533.581
 573  2327.69
 574  2118.258
 575  2315.593
 576  2423.287
 577  2501.83
 578  2377.284
 579  2440.865
 580  2777.104
 581  2829.402
 582  2800.331
 583  2871.449
 584  2870.484
 585  2618.434
 586  2462.237
 587  2257.823
 588  2424.617
 589  2617.363
 590  2731.341
 591  2829.635
 592  2878.822
 593  2803.248
 594  2581.629
 595  2631.843
 596  3017.546
 597  3196.618
 598  2947.225
 599  2424.715
 600  2504.084
 601  2557.809
 602  2780.538
 603  2688.417
 604  2787.95
 605  2868.206
 606  2844.178
 607  2743.271
 608  2647.827
 609  2512.381
 610  2871.099
 611  3086.998
 612  3179.027
 613  3104.792
 614  2994.52
 615  2707.922
 616  2868.7
 617  3204.821
 618  3431.492
 619  3249.59
 620  3024.509
 621  3201.956
 622  3226.474
 623  3139.831
 624  3015.167
 625  2928.878
 626  2866.935
 627  2745.102
 628  2851.143
 629  2741.532
 630  2596.276
 631  2574.11
 632  2485.965
 633  2396.006
 634  2508.752
 635  2585.656
 636  2641.939
 637  2649.674
 638  2735.638
 639  2719.324
 640  2829.235
 641  3126.024
 642  3017.897
 643  2742.175
 644  2543.848
 645  2485.71
 646  2381.821
 647  2134.263
 648  2418.41
 649  2807.541
 650  2942.667
 651  2671.164
 652  2326.613
 653  2319.736
 654  2310.343
 655  2625.664
 656  2591.207
 657  2403.399
 658  2694.984
 659  3080.394
 660  3453.74
 661  3495.198
 662  3456.454
 663  3255.1
 664  3032.916
 665  2906.648
 666  2999.233
 667  2812.997
 668  2783.322
 669  2682.796
 670  2726.216
 671  2507.015
 672  2776.793
 673  2895.788
 674  3033.498
 675  3017.683
 676  2952.039
 677  2942.949
 678  2553.228
 679  2771.274
 680  2653.315
 681  2600.927
 682  2478.997
 683  2719.672
 684  2469.064
 685  2216.8
 686  2144.537
 687  2271.453
 688  2768.844
 689  2754.387
 690  2797.107
 691  2732.554
 692  2682.519
 693  2544.214
 694  2060.18
 695  1962.951
 696  2086.667
 697  2321.292
 698  2441.719
 699  2511.192
 700  2701.127
 701  2565.544
 702  2518.484
 703  2798.309
 704  2999.818
 705  2845.615
 706  2437.814
 707  2458.649
 708  2307.419
 709  2473.436
 710  2048.319
 711  2115.06
 712  2384.941
 713  2710.804
 714  2738.037
 715  2648.589
 716  2582.615
 717  2166.833
 718  2168.682
 719  2457.642
 720  2484.604
 721  2547.423
 722  2559.896
 723  3053.317
 724  3079.395
 725  3198.891
 726  3431.824
 727  3497.965
 728  3257.21
 729  2826.676
 730  2722.939
 731  2354.224
 732  1801.785
 733  1509.63
 734  1246.298
 735  1467.802
 736  1824.932
 737  2006.286
 738  2095.032
 739  2290.209
 740  2290.693
 741  2034.776
 742  1681.947
 743  1730.881
 744  1682.479
 745  1768.333
 746  1774.691
 747  1672.708
 748  1640.195
 749  1867.116
 750  2215.447
 751  2133.385
 752  2129.789
 753  2662.789
 754  2850.111
 755  2926.364
 756  2805.214
 757  2690.261
 758  2509.31
 759  2065.945
 760  2102.783
 761  2031.994
 762  2019.806
 763  1982
 764  1839.946
 765  2120.815
 766  2238.74
 767  2423.815
 768  2481.517
 769  2461.296
 770  2573.439
 771  2459.752
 772  2482.552
 773  2616.726
 774  2734.577
 775  2615.077
 776  2403.237
 777  2576.26
 778  2403.731
 779  2244.589
 780  2147.801
 781  2211.684
 782  1874.16
 783  2147.45
 784  2230.2
 785  2249.912
 786  1948.937
 787  2037.23
 788  2212.416
 789  2365.031
 790  2094.756
 791  2170.703
 792  2495.955
 793  2786.031
 794  2591.012
 795  2624.359
 796  2355.94
 797  2119.806
 798  2278.979
 799  2612.113
 800  2623.957
 801  2235.204
 802  2170.138
 803  2468.124
 804  2592.345
 805  2526.132
 806  2678.443
 807  2840.439
 808  2648.98
 809  2434.173
 810  2528.581
 811  2643.635
 812  2520.58
 813  2447.963
 814  2564.379
 815  2453.986
 816  2069.297
 817  1692.866
 818  1590.393
 819  1453.553
 820  1909.043
 821  2161.054
 822  2226.049
 823  1801.167
 824  1821.871
 825  1840.336
 826  1803.297
 827  1730.56
 828  1746.901
 829  1577.16
 830  1752.185
 831  1692.546
 832  1415.642
 833  986.2531
 834  777.3059
 835  935.761
 836  996.7396
 837  1086.623
 838  1008.661
 839  1036.13
 840  1047.743
 841  1419.601
 842  1692.653
 843  1617.399
 844  1529.262
 845  1694.464
 846  1899.74
 847  1877.149
 848  2240.583
 849  2245.042
 850  2364.037
 851  2399.613
 852  2409.933
 853  2362.36
 854  2074.341
 855  1822.626
 856  1614.412
 857  1835.424
 858  2216.156
 859  2522.687
 860  2611.288
 861  2569.317
 862  2511.051
 863  2625.145
 864  2853.046
 865  2848.418
 866  2976.156
 867  2717.678
 868  2782.663
 869  2659.795
 870  2559.842
 871  2673.172
 872  2471.321
 873  2535.06
 874  2277.902
 875  2059.213
 876  1723.651
 877  1779.507
 878  2143.063
 879  2361.204
 880  2478.223
 881  2662.735
 882  2637.275
 883  2675.14
 884  2442.191
 885  2325.865
 886  2191.427
 887  1981.377
 888  1729.429
 889  1719.337
 890  1942.721
 891  1994.374
 892  2215.051
 893  2128.544
 894  1959.211
 895  2094.219
 896  1986.131
 897  2101.018
 898  2062.318
 899  2349.353
 900  2248.525
 901  1878.286
 902  1744.173
 903  1790.233
 904  1920.377
 905  1828.437
 906  1834.714
 907  1881.718
 908  2042.922
 909  2201.243
 910  2339.974
 911  2374.827
 912  2241.745
 913  2277.755
 914  2478.168
 915  2401.839
 916  2415.204
 917  2460.38
 918  2696.975
 919  2824.071
 920  2582.686
 921  2774.763
 922  2809.514
 923  2927.415
 924  2934.958
 925  2918.469
 926  2936.869
 927  2804.769
 928  2703.811
 929  2761.886
 930  2814.433
 931  2694.491
 932  2509.294
 933  2544.842
 934  2528.207
 935  2620.112
 936  2977.437
 937  2929.938
 938  2951.957
 939  2879.611
 940  3015.048
 941  3115.551
 942  3252.925
 943  3210.324
 944  3165.275
 945  3246.476
 946  3198.134
 947  3030.095
 948  2946.194
 949  3017.265
 950  2986.083
 951  3136.743
 952  3417.859
 953  3383.057
 954  3482.311
 955  3545.292
 956  3279.938
 957  3319.624
 958  3288.902
 959  3326.54
 960  3149.407
 961  2987.123
 962  3012.545
 963  2650.424
 964  2402.099
 965  2359.86
 966  2498.608
 967  2604.261
 968  2674.399
 969  2613.583
 970  2602.003
 971  2701.46
 972  3075.751
 973  3253.974
 974  3007.397
 975  3079.224
 976  3172.596
 977  3171.561
 978  2994.366
 979  2887.852
 980  2424.516
 981  2081.684
 982  2067.059
 983  1919.716
 984  1819.092
 985  1826.32
 986  2119.382
 987  2154.062
 988  2108.959
 989  2140.697
 990  2193.377
 991  1962.521
 992  1958.231
 993  2135.844
 994  2534.489
 995  2674.667
 996  2719.568
 997  2720.352
 998  2600.138
 999  2906.779
1000  3159.954
1001  3166.483
1002  2740.402
1003  2348.303
1004  2292.009
1005  2536.821
1006  2823.791
1007  2718.446
1008  2862.009
1009  2956.029
1010  3066.115
1011  2754.882
1012  2766.194
1013  2554.372
1014  2642.746
1015  2299.138
1016  2452.735
1017  2387.871
1018  2266.731
1019  2528.089
1020  3059.081
1021  3107.121
1022  2513.202
1023  2258.301
