# Input file       =  1197067746.109697_cleaned.dat
# Candidate        =  PSR_0332+5434
# Telescope        =  AR
# Epoch_topo       =  58098.950985065938
# Epoch_bary       =  N/A
# T_sample         =  0.002
# Data Folded      =  7340032
# Data Avg         =  0.0513963236712931
# Data StdDev      =  1.00012614130438 
# Profile Bins     =  512
# Profile Avg      =  736.840255450757 
# Profile StdDev   =  119.748139658153 
# Reduced chi-sqr  =  0.808
# Prob(Noise)      <  0.999   (~0.0 sigma)
# P_topo (ms)      =  714.537211760772  +/- 0.000273
# P'_topo (s/s)    =  -0                +/- 1.44e-10
# P''_topo (s/s^2) =  0                 +/- 6.35e-14
# P_bary (ms)      =  N/A
# P'_bary (s/s)    =  N/A
# P''_bary (s/s^2) =  N/A
# P_orb (s)        =  N/A
# asin(i)/c (s)    =  N/A
# eccentricity     =  N/A
# w (rad)          =  N/A
# T_peri           =  N/A
######################################################
   0  1026.055
   1  1083.465
   2  864.3916
   3  709.4864
   4  713.9365
   5  736.4548
   6  612.1528
   7  593.0935
   8  653.2893
   9  712.6093
  10  681.5944
  11  700.8002
  12  729.512
  13  746.8679
  14  687.7758
  15  698.1869
  16  782.4504
  17  793.5345
  18  813.01
  19  823.9677
  20  765.7358
  21  767.447
  22  847.3229
  23  847.4808
  24  619.4173
  25  663.3781
  26  713.3736
  27  770.3101
  28  756.9618
  29  757.4688
  30  826.9146
  31  828.9768
  32  820.6551
  33  727.8648
  34  805.4429
  35  921.0784
  36  855.6683
  37  748.0389
  38  639.6946
  39  721.4014
  40  672.2735
  41  699.8921
  42  681.2906
  43  775.7706
  44  774.8708
  45  727.6723
  46  722.9382
  47  648.926
  48  497.3194
  49  719.4363
  50  826.8071
  51  704.3915
  52  682.6657
  53  704.3867
  54  804.4607
  55  759.2321
  56  738.5275
  57  870.6733
  58  895.3246
  59  778.5067
  60  774.6984
  61  860.341
  62  885.2037
  63  707.8836
  64  798.5858
  65  845.2234
  66  741.6456
  67  829.5398
  68  756.5524
  69  656.392
  70  717.3572
  71  727.7479
  72  794.4083
  73  719.6624
  74  719.0203
  75  742.022
  76  736.05
  77  749.7554
  78  706.1748
  79  790.0322
  80  637.3655
  81  547.0928
  82  605.5871
  83  711.6067
  84  761.2752
  85  825.2733
  86  837.8769
  87  776.4578
  88  774.6842
  89  725.782
  90  616.2933
  91  665.8491
  92  812.7103
  93  812.9906
  94  768.6506
  95  779.9096
  96  733.2188
  97  617.8472
  98  655.4747
  99  721.5181
 100  758.3611
 101  750.5303
 102  745.4503
 103  813.4057
 104  677.9333
 105  682.132
 106  777.566
 107  861.2885
 108  739.6208
 109  687.6796
 110  776.5709
 111  660.8154
 112  685.1403
 113  842.6494
 114  819.4312
 115  779.9448
 116  796.6826
 117  727.5217
 118  680.9634
 119  740.7097
 120  697.1157
 121  686.5485
 122  759.9286
 123  681.2844
 124  723.7175
 125  795.2084
 126  751.1415
 127  799.3852
 128  832.4633
 129  856.2842
 130  808.4659
 131  761.2589
 132  833.8024
 133  686.8325
 134  784.5116
 135  754.1719
 136  763.2452
 137  704.7701
 138  723.6415
 139  677.3899
 140  711.725
 141  750.7183
 142  786.6025
 143  684.0317
 144  706.0851
 145  683.0054
 146  618.1224
 147  736.7708
 148  734.6766
 149  730.2524
 150  727.4826
 151  797.0062
 152  736.4406
 153  746.0116
 154  903.0119
 155  720.9308
 156  602.9581
 157  717.6989
 158  706.1887
 159  727.5532
 160  733.4321
 161  733.5712
 162  678.8412
 163  733.4098
 164  737.0657
 165  780.2864
 166  785.8659
 167  829.8553
 168  831.4938
 169  715.3998
 170  695.1354
 171  691.187
 172  647.9933
 173  537.5135
 174  577.5769
 175  746.9249
 176  735.0153
 177  642.3164
 178  668.5233
 179  734.2358
 180  778.8282
 181  779.1694
 182  871.141
 183  859.6628
 184  794.7213
 185  803.9212
 186  621.3054
 187  605.5327
 188  765.7527
 189  740.9246
 190  702.1917
 191  709.7476
 192  825.5988
 193  800.7406
 194  815.1461
 195  779.3526
 196  724.7433
 197  724.9301
 198  703.033
 199  782.891
 200  805.8884
 201  971.1393
 202  850.3275
 203  811.3434
 204  852.475
 205  767.6103
 206  781.4009
 207  798.5616
 208  757.9443
 209  774.9188
 210  738.7704
 211  661.0174
 212  609.6823
 213  710.345
 214  665.3033
 215  686.3307
 216  705.4172
 217  720.6539
 218  733.2751
 219  575.3796
 220  579.7862
 221  688.4338
 222  633.6406
 223  677.1771
 224  693.6025
 225  722.0532
 226  841.3304
 227  692.012
 228  654.5805
 229  665.1437
 230  758.8399
 231  707.5559
 232  655.3154
 233  758.4443
 234  746.7789
 235  718.0232
 236  835.067
 237  810.5714
 238  794.6961
 239  820.9943
 240  717.8564
 241  757.3956
 242  707.2023
 243  761.1219
 244  758.8021
 245  718.9777
 246  749.9957
 247  770.4649
 248  851.7302
 249  687.8737
 250  623.4407
 251  804.9713
 252  742.7697
 253  697.9767
 254  746.519
 255  739.4924
 256  725.803
 257  832.6792
 258  870.9494
 259  800.935
 260  824.0756
 261  796.72
 262  730.2778
 263  722.1812
 264  693.0058
 265  745.277
 266  758.3248
 267  788.6483
 268  747.1487
 269  699.3007
 270  690.7669
 271  733.8671
 272  873.0946
 273  880.8522
 274  812.9267
 275  815.1046
 276  755.358
 277  655.0602
 278  594.8272
 279  690.965
 280  676.444
 281  594.7174
 282  637.8712
 283  697.3166
 284  617.6456
 285  630.0533
 286  616.3631
 287  514.9579
 288  688.0677
 289  765.4449
 290  683.9435
 291  750.3296
 292  755.9662
 293  736.6341
 294  716.6923
 295  729.5148
 296  821.9265
 297  701.439
 298  688.5008
 299  711.2275
 300  725.3151
 301  804.3523
 302  698.6307
 303  669.3459
 304  657.918
 305  687.598
 306  632.6477
 307  606.8398
 308  724.2528
 309  724.4421
 310  770.6125
 311  740.9096
 312  687.3197
 313  818.4448
 314  704.2722
 315  593.1253
 316  594.4508
 317  708.9374
 318  742.421
 319  698.7646
 320  684.2675
 321  644.9948
 322  626.0229
 323  696.6798
 324  669.864
 325  695.767
 326  711.1393
 327  738.2498
 328  771.9724
 329  756.5258
 330  757.2207
 331  807.2969
 332  817.9313
 333  743.7436
 334  722.4062
 335  763.4425
 336  853.4886
 337  761.3326
 338  727.5869
 339  787.3823
 340  774.605
 341  660.0879
 342  764.3615
 343  802.7372
 344  696.5237
 345  714.9855
 346  818.1351
 347  942.694
 348  866.6418
 349  781.881
 350  741.8879
 351  683.0219
 352  757.6223
 353  675.1049
 354  699.0254
 355  815.1491
 356  809.5176
 357  703.8489
 358  780.5095
 359  752.564
 360  767.3234
 361  745.6981
 362  903.5843
 363  885.0381
 364  798.8383
 365  788.6832
 366  806.8604
 367  789.9244
 368  782.7796
 369  855.0135
 370  777.5208
 371  793.6962
 372  792.9909
 373  780.852
 374  863.0486
 375  685.9619
 376  679.0989
 377  787.7661
 378  874.7666
 379  864.0467
 380  781.1335
 381  775.273
 382  783.468
 383  747.7375
 384  922.92
 385  850.3437
 386  818.3114
 387  770.9251
 388  698.2177
 389  662.7687
 390  626.7056
 391  718.2462
 392  827.6307
 393  809.8174
 394  882.3041
 395  788.6218
 396  861.7843
 397  850.0292
 398  712.1172
 399  715.6917
 400  698.8953
 401  626.9026
 402  542.835
 403  733.4758
 404  749.84
 405  818.2863
 406  795.6533
 407  799.3339
 408  640.5132
 409  684.9444
 410  678.363
 411  681.1095
 412  744.2999
 413  818.1398
 414  796.2634
 415  626.3873
 416  574.022
 417  687.5222
 418  701.3893
 419  711.5366
 420  593.4731
 421  609.7848
 422  675.3048
 423  749.8954
 424  667.815
 425  674.2543
 426  769.0525
 427  734.9938
 428  675.1962
 429  705.9316
 430  708.4896
 431  669.8284
 432  680.692
 433  718.9402
 434  672.4492
 435  649.504
 436  746.0707
 437  755.2759
 438  687.1139
 439  658.4112
 440  644.6742
 441  659.715
 442  713.5257
 443  745.7385
 444  800.8918
 445  730.255
 446  692.2166
 447  573.1312
 448  546.3115
 449  597.762
 450  741.8127
 451  792.9842
 452  741.5183
 453  851.5224
 454  915.2302
 455  789.4496
 456  770.8437
 457  714.939
 458  663.0529
 459  665.5125
 460  705.6304
 461  813.2369
 462  852.8474
 463  656.9089
 464  750.2324
 465  631.3884
 466  641.6407
 467  823.6325
 468  823.3452
 469  629.6072
 470  710.6901
 471  780.7067
 472  765.463
 473  589.8978
 474  673.538
 475  861.2676
 476  782.2893
 477  661.5002
 478  758.4387
 479  694.7938
 480  668.4078
 481  656.1288
 482  667.1803
 483  677.5497
 484  755.0376
 485  680.908
 486  654.3704
 487  603.1761
 488  564.7454
 489  644.8963
 490  599.3196
 491  685.1879
 492  745.419
 493  723.0494
 494  718.22
 495  694.9193
 496  659.8954
 497  671.4727
 498  649.1241
 499  692.1439
 500  593.7324
 501  625.1016
 502  719.9958
 503  761.9167
 504  742.4291
 505  824.362
 506  727.9714
 507  705.2843
 508  859.4592
 509  780.843
 510  877.4465
 511  987.9962
