# Input file       =  1197124404.102007_cleaned.dat
# Candidate        =  PSR_0332+5434
# Telescope        =  AR
# Epoch_topo       =  58099.606748865823
# Epoch_bary       =  N/A
# T_sample         =  0.002
# Data Folded      =  7208960
# Data Avg         =  1.23673788484567 
# Data StdDev      =  9.18186827613793 
# Profile Bins     =  1024
# Profile Avg      =  8706.30677995302 
# Profile StdDev   =  770.401975259702 
# Reduced chi-sqr  =  0.482
# Prob(Noise)      <  1   (~0.0 sigma)
# P_topo (ms)      =  714.537523003755  +/- 0.000548
# P'_topo (s/s)    =  -0                +/- 2.95e-10
# P''_topo (s/s^2) =  0                 +/- 1.32e-13
# P_bary (ms)      =  N/A
# P'_bary (s/s)    =  N/A
# P''_bary (s/s^2) =  N/A
# P_orb (s)        =  N/A
# asin(i)/c (s)    =  N/A
# eccentricity     =  N/A
# w (rad)          =  N/A
# T_peri           =  N/A
######################################################
   0  8585.48
   1  8613.034
   2  8417.398
   3  8310.5
   4  8324.465
   5  8590.312
   6  8409.848
   7  8075.571
   8  8351.67
   9  8685.681
  10  8802.906
  11  8690.071
  12  8426.747
  13  8423.207
  14  8529.109
  15  8954.584
  16  9253.019
  17  9193.461
  18  9235.854
  19  9232.919
  20  9123.491
  21  8680.674
  22  8414.635
  23  8585.743
  24  8789.215
  25  9029.754
  26  9091.661
  27  8709.345
  28  8371.298
  29  8415.201
  30  8736.6
  31  8617.454
  32  8466.735
  33  8444.732
  34  8464.964
  35  8506.385
  36  8457.989
  37  8766.398
  38  9038.504
  39  9002.158
  40  8643.37
  41  8499.497
  42  8632.832
  43  8901.795
  44  8687.51
  45  8049.366
  46  7861.713
  47  7929.748
  48  8251.59
  49  8323.455
  50  8482.38
  51  8736.867
  52  8638.299
  53  8501.796
  54  8735.553
  55  8659.46
  56  8534.481
  57  8359.007
  58  8324.785
  59  8309.335
  60  8167.356
  61  8227.609
  62  8558.833
  63  8564.706
  64  8763.879
  65  8728.438
  66  8698.976
  67  9134.528
  68  9065.312
  69  9054.288
  70  9063.582
  71  9156.096
  72  9187.442
  73  8613.619
  74  8239.148
  75  8250.009
  76  8428.956
  77  8570.618
  78  8687.11
  79  8600.423
  80  8901.271
  81  8962.704
  82  8921.216
  83  8606.896
  84  8238.562
  85  8367.099
  86  8458.653
  87  8467.683
  88  8263.529
  89  8007.972
  90  8064.475
  91  8292.718
  92  8450.048
  93  8512.115
  94  8415.28
  95  8708.315
  96  8935.971
  97  8914.781
  98  8509.249
  99  8676.576
 100  8707.916
 101  8644.586
 102  8649.441
 103  8722.685
 104  8744.832
 105  8823.717
 106  8926.118
 107  8880.577
 108  8799.977
 109  8704.016
 110  8670.635
 111  8529.544
 112  8501.19
 113  8392.472
 114  8530.645
 115  8693.098
 116  8801.061
 117  8593.679
 118  8421.487
 119  8382.82
 120  8427.57
 121  8521.818
 122  8550.055
 123  8442.401
 124  8572.081
 125  8435.988
 126  8620.771
 127  8696.148
 128  8781.232
 129  8811.342
 130  8764.411
 131  8859.079
 132  9166.882
 133  9066.162
 134  9268.819
 135  9193.057
 136  9053.414
 137  9029.556
 138  8871.48
 139  9009.535
 140  9026.625
 141  9010.74
 142  9109.907
 143  8994.14
 144  9041.69
 145  9327.306
 146  9102.589
 147  8979.594
 148  8946.39
 149  9129.493
 150  9017.683
 151  8647.506
 152  8614.587
 153  8630.25
 154  8346.163
 155  8159.579
 156  8565.759
 157  8852.795
 158  8799.907
 159  8505.074
 160  8381.34
 161  8651.007
 162  8713.957
 163  8784.404
 164  8773.034
 165  8367.087
 166  8544.03
 167  8547.022
 168  8740.53
 169  8669.442
 170  8450.94
 171  8429.166
 172  8430.443
 173  8371.641
 174  8173.367
 175  7882.18
 176  7827.721
 177  7918.811
 178  8113.196
 179  7881.413
 180  8128.497
 181  8233.169
 182  8493.165
 183  8453.071
 184  8438.918
 185  8753.576
 186  8759.577
 187  8749.264
 188  8634.804
 189  8602.511
 190  8603.685
 191  8436.599
 192  8324.235
 193  8440.562
 194  8629.939
 195  8548.372
 196  8365.359
 197  8419.647
 198  8511.365
 199  8585.853
 200  8424.463
 201  8347.112
 202  8440.668
 203  8477.399
 204  8769.826
 205  8815.019
 206  8854.403
 207  8658.004
 208  8504.69
 209  8559.611
 210  8597.504
 211  8693.084
 212  8784.623
 213  8771.263
 214  8720.717
 215  8692.248
 216  8764.036
 217  8913.001
 218  8828.189
 219  8598.493
 220  8554.06
 221  8856.264
 222  9110.088
 223  9308.012
 224  9192.491
 225  9054.969
 226  8978.386
 227  8731.507
 228  8850.51
 229  8879.472
 230  9008.742
 231  8949.149
 232  8764.589
 233  8861.85
 234  9024.464
 235  9202.422
 236  9302.733
 237  8851.823
 238  8640.279
 239  8664.313
 240  8678.94
 241  8517.798
 242  8706.968
 243  8831.633
 244  8814.68
 245  8652.304
 246  8479.76
 247  8705.222
 248  8630.774
 249  8736.838
 250  9056.759
 251  9114.532
 252  9231.093
 253  9306.423
 254  9056.582
 255  9124.505
 256  8831.879
 257  9020.23
 258  8810.968
 259  8647.627
 260  8658.574
 261  8663.303
 262  8885.528
 263  9126.535
 264  9269.567
 265  9470.521
 266  9254.53
 267  9294.733
 268  9177.988
 269  9085.961
 270  8962.607
 271  8877.634
 272  9082.989
 273  8825.785
 274  8790.015
 275  8588.578
 276  8585.247
 277  8630.502
 278  8424.201
 279  8667.677
 280  8889.022
 281  8770.423
 282  8655.827
 283  8513.116
 284  8494.578
 285  8326.86
 286  8247.361
 287  8344.99
 288  8445.53
 289  8393.509
 290  8405.042
 291  8476.079
 292  8610.807
 293  8579.573
 294  8263.839
 295  8139.742
 296  8438.113
 297  8403.756
 298  8397.816
 299  8238.493
 300  8579.971
 301  8651.259
 302  8269.369
 303  7809.234
 304  7998.298
 305  8281.944
 306  8347.82
 307  8325.228
 308  8012.213
 309  8130.669
 310  8260.642
 311  8811.39
 312  8989.962
 313  8658.389
 314  8583.549
 315  8599.6
 316  8617.859
 317  8633.651
 318  8370.667
 319  8452.808
 320  8476.149
 321  8443.869
 322  8454.415
 323  8525.291
 324  8651.073
 325  8713.75
 326  8686.538
 327  8644.899
 328  8508.403
 329  8312.4
 330  8594.855
 331  8587.328
 332  8742.818
 333  8843.229
 334  8831.822
 335  8452.405
 336  8216.454
 337  8044.864
 338  8125.536
 339  8214.353
 340  8127.017
 341  8221.881
 342  7959.608
 343  8260.774
 344  8330.355
 345  8468.395
 346  8483.095
 347  8654.547
 348  9098.783
 349  9094.28
 350  9038.27
 351  8927.865
 352  9049.233
 353  9173.508
 354  9381.484
 355  9111.297
 356  8969.736
 357  9021.181
 358  9031.598
 359  9197.83
 360  9228.737
 361  9323.095
 362  9269.852
 363  9313.182
 364  9159.657
 365  9059.885
 366  8954.047
 367  8804.594
 368  8849.164
 369  8753.272
 370  8694.281
 371  8617.96
 372  8719.972
 373  8736.784
 374  8635.543
 375  8701.514
 376  8866.89
 377  9037.595
 378  8801.986
 379  8853.764
 380  8872.972
 381  8906.417
 382  9017.235
 383  8964.688
 384  8874.538
 385  8636.183
 386  8486.167
 387  8736.318
 388  8647.957
 389  8488.439
 390  8648.275
 391  8834.713
 392  9060.594
 393  8959.783
 394  8821.911
 395  9024.172
 396  8810.422
 397  8638.361
 398  8963.912
 399  8928.92
 400  8640.252
 401  8462.018
 402  8515.321
 403  8510.629
 404  8216.32
 405  8438.086
 406  8627.62
 407  8653.062
 408  8633.923
 409  8441.109
 410  8475.75
 411  8595.091
 412  8745.204
 413  8657.75
 414  8652.299
 415  8735.678
 416  8892.98
 417  8797.893
 418  8650.758
 419  8986.425
 420  8925.405
 421  8899.244
 422  8722.763
 423  8745.118
 424  8719.574
 425  8634.01
 426  8835.111
 427  9004.835
 428  9075.112
 429  8824.191
 430  8753.688
 431  8666.528
 432  8385.176
 433  8177.633
 434  8505.672
 435  8838.304
 436  8905.033
 437  8927.437
 438  9059.746
 439  9076.739
 440  9153.041
 441  9084.173
 442  8786.195
 443  8659.42
 444  9014.812
 445  8992.63
 446  8897.564
 447  8641.648
 448  8799.009
 449  8713.714
 450  8454.032
 451  8322.884
 452  8189.1
 453  8328.935
 454  8380.73
 455  8615.871
 456  8673.978
 457  8920.593
 458  8834.053
 459  8978.015
 460  9165.888
 461  8949.782
 462  8625.862
 463  8422.709
 464  8494.342
 465  8773.883
 466  8781.384
 467  8861.699
 468  8807.249
 469  8778.698
 470  8610.434
 471  8705.748
 472  8849.915
 473  9011.458
 474  8665.52
 475  8579.194
 476  8841.545
 477  8628.672
 478  8499.278
 479  8305.784
 480  8261.534
 481  8548.184
 482  8598.93
 483  8463.987
 484  8413.459
 485  8390.39
 486  8673.188
 487  8866.533
 488  9002.16
 489  8951.492
 490  8546.101
 491  8493.327
 492  8915.313
 493  9004.935
 494  8925.754
 495  8712.967
 496  8687.693
 497  8757.132
 498  8859.51
 499  8998.868
 500  9049.857
 501  8869.8
 502  8858.868
 503  8514.829
 504  8474.135
 505  8633.821
 506  8858.201
 507  8888.508
 508  8855.599
 509  8692.264
 510  8840.082
 511  8918.378
 512  9167.495
 513  9325.718
 514  9096.164
 515  8848.468
 516  8703.571
 517  8685.04
 518  8693.726
 519  8634.271
 520  8825.216
 521  8978.726
 522  8854.62
 523  8638.537
 524  8744.112
 525  9020.332
 526  9150.091
 527  8829.7
 528  8615.436
 529  8606.366
 530  8658.05
 531  8470.974
 532  8485.546
 533  8283.607
 534  8312.464
 535  8479.88
 536  8771.675
 537  8818.224
 538  8757.186
 539  8531.123
 540  8393.804
 541  8649.314
 542  8654.879
 543  8374.082
 544  8062.26
 545  8298.537
 546  8722.283
 547  8780.312
 548  8610.474
 549  8654.764
 550  8554.936
 551  8765.076
 552  8643.054
 553  8383.42
 554  8294.74
 555  8407.842
 556  8589.856
 557  8719.149
 558  8820.012
 559  8806.147
 560  9021.466
 561  9075.874
 562  9173.684
 563  8959.334
 564  8970.624
 565  8836.579
 566  8692.069
 567  8618.352
 568  8650.775
 569  8523.335
 570  8457.575
 571  8468.757
 572  8634.278
 573  8804.344
 574  8829.25
 575  8845.169
 576  8484.028
 577  8610.51
 578  8928.169
 579  9213.66
 580  9085.97
 581  8881.863
 582  8639.754
 583  8621.893
 584  8511.47
 585  8502.478
 586  8558.71
 587  8502.412
 588  8293.484
 589  8218.891
 590  8431.938
 591  8904.979
 592  8950.298
 593  8809.978
 594  8850.093
 595  8865.522
 596  8981.044
 597  8779.371
 598  8674.171
 599  8802.788
 600  8847.042
 601  8594.552
 602  8439.476
 603  8659.656
 604  8867.649
 605  8822.892
 606  8893.215
 607  9268.147
 608  9318.774
 609  8880.765
 610  8496.568
 611  8678.158
 612  8884.55
 613  8795.607
 614  8650.003
 615  8587.975
 616  8588.512
 617  8629.439
 618  8927.76
 619  9230.902
 620  9392.774
 621  9393.212
 622  9277.056
 623  9379.249
 624  9590.42
 625  9494.995
 626  9419.739
 627  9420.563
 628  9590.968
 629  9489.981
 630  9383.691
 631  9294.107
 632  9255.739
 633  8942.079
 634  8713.529
 635  8691.048
 636  8761.418
 637  8876.406
 638  8945.986
 639  8957.925
 640  9005.986
 641  8929.322
 642  8592.211
 643  8467.538
 644  8707.779
 645  9233.201
 646  9280.164
 647  9107.591
 648  9230.287
 649  9007.241
 650  9017.699
 651  9148.456
 652  9255.775
 653  9151.799
 654  8770.531
 655  8862.582
 656  8784.935
 657  8413.646
 658  8421.049
 659  8624.196
 660  8805.729
 661  8916.711
 662  8795.118
 663  8632.35
 664  8726.819
 665  8892.002
 666  8944.431
 667  8798.838
 668  8673.959
 669  8717.613
 670  8544.787
 671  8453.295
 672  8519.942
 673  8309.824
 674  8710.884
 675  8729.782
 676  8770.435
 677  8906.139
 678  8898.069
 679  9216.254
 680  8996.989
 681  8795.138
 682  8454.64
 683  8402.395
 684  8844.842
 685  9002.14
 686  8746.417
 687  8617.008
 688  8986.029
 689  9302.638
 690  9329.966
 691  8828.679
 692  8616.844
 693  8560.626
 694  8785.224
 695  8809.245
 696  8884.244
 697  8916.211
 698  9074.827
 699  9039.056
 700  9127.551
 701  9202.335
 702  9221.95
 703  9277.209
 704  9054.01
 705  8856.948
 706  8622.221
 707  8556.142
 708  8841.643
 709  9045.371
 710  9105.54
 711  8844.234
 712  8745.113
 713  8804.621
 714  8869.631
 715  8998.306
 716  8959.868
 717  8844.505
 718  8500.182
 719  8255.796
 720  8182.696
 721  8397.034
 722  8584.071
 723  8705.565
 724  8760.541
 725  8760.928
 726  8916.615
 727  8918.475
 728  9027.897
 729  8875.997
 730  8599.324
 731  8623.215
 732  8652.306
 733  9097.517
 734  9110.062
 735  8838.82
 736  8658.944
 737  8797.084
 738  8911.532
 739  9121.177
 740  8966.289
 741  8925.479
 742  8512.126
 743  8260.017
 744  8580.941
 745  8727.312
 746  8786.635
 747  8946.407
 748  9045.189
 749  9002.926
 750  8792.112
 751  8550.603
 752  8599.456
 753  8370.505
 754  8611.787
 755  8689.477
 756  8917.881
 757  8716.443
 758  9023.542
 759  8901.685
 760  8743.437
 761  8611.024
 762  8648.462
 763  8851.812
 764  8650.796
 765  8602.573
 766  8634.468
 767  8505.742
 768  8489.782
 769  8421.761
 770  8546.613
 771  8562.285
 772  8610.888
 773  8740.192
 774  8629.152
 775  8665.94
 776  8659.951
 777  8865.876
 778  8938.006
 779  9141.719
 780  9285.823
 781  9111.644
 782  8981.682
 783  9025.155
 784  8948.906
 785  8679.148
 786  8531.571
 787  8777.881
 788  9147.672
 789  9045.04
 790  8879.915
 791  8813.175
 792  9002.152
 793  9133.239
 794  9089.821
 795  9234.972
 796  9009.375
 797  8862.702
 798  8739.957
 799  8711.368
 800  8512.606
 801  8644.562
 802  8784.368
 803  8879.975
 804  8497.686
 805  8235.591
 806  8120.078
 807  8117.811
 808  8266.483
 809  8265.672
 810  8467.259
 811  8709.943
 812  9171.386
 813  9036.301
 814  9045.441
 815  8832.864
 816  8906.066
 817  8985.543
 818  8710.219
 819  8661.241
 820  8437.593
 821  8561.164
 822  8653.769
 823  8695.063
 824  8490.64
 825  8419.312
 826  8340.978
 827  8645.06
 828  8722.688
 829  8643.353
 830  8701.074
 831  8709.814
 832  8712.705
 833  8760.701
 834  8922.267
 835  8831.386
 836  8870.8
 837  9154.075
 838  9193.683
 839  8901.997
 840  8264.959
 841  8532.513
 842  8574.569
 843  8603.67
 844  8544.026
 845  8390.061
 846  8487.468
 847  8445.192
 848  8711.604
 849  8634.282
 850  8381.935
 851  8411.042
 852  8847.384
 853  8839.821
 854  8910.23
 855  8889.467
 856  9015.348
 857  9000.599
 858  8861.582
 859  8861.95
 860  8634.329
 861  8665.434
 862  8753.782
 863  8923.564
 864  8829.251
 865  8859.477
 866  8839.38
 867  8806.63
 868  8706.588
 869  8824.959
 870  8847.262
 871  8552.274
 872  8490.287
 873  8395.354
 874  8576.99
 875  8201.602
 876  8343.724
 877  8440.935
 878  8461.177
 879  8384.46
 880  8410.79
 881  8674.456
 882  8574.628
 883  8201.428
 884  8188.866
 885  8192.907
 886  8112.854
 887  8100.193
 888  7988.49
 889  8315.129
 890  8309.668
 891  8262.577
 892  8374.124
 893  8636.279
 894  8698.803
 895  8615.983
 896  8451.908
 897  8141.394
 898  8237.564
 899  8372.837
 900  8355.174
 901  8312.058
 902  8324.564
 903  8799.553
 904  8731.948
 905  8808.685
 906  8904.883
 907  8728.487
 908  8704.551
 909  8527.845
 910  8848.598
 911  8939.892
 912  8923.79
 913  8727.832
 914  8979.642
 915  8762.396
 916  8515.99
 917  8211.472
 918  8282.18
 919  8385.201
 920  8690.308
 921  8872.89
 922  9074.74
 923  9083.312
 924  9250.093
 925  9303.306
 926  8949.108
 927  8920.403
 928  8725.944
 929  8741.139
 930  8909.968
 931  9034.475
 932  9124.511
 933  8926.967
 934  8759.342
 935  9041.92
 936  9171.148
 937  9005.083
 938  8537.742
 939  8566.656
 940  8742.858
 941  8761.457
 942  8735.041
 943  8901.404
 944  8917.56
 945  8790.144
 946  8792.479
 947  8752.475
 948  8611.092
 949  8345.079
 950  8542.59
 951  8651.261
 952  8596.794
 953  8388.502
 954  8377.062
 955  8449.368
 956  8633.403
 957  8621.854
 958  8576.78
 959  8789.703
 960  9123.926
 961  9050.457
 962  8853.225
 963  8876.627
 964  9062.085
 965  8821.787
 966  8820.223
 967  8785.141
 968  8893.223
 969  8589.76
 970  8604.773
 971  8693.802
 972  8784.999
 973  8920.32
 974  8834.518
 975  8978.885
 976  8889.578
 977  8812.868
 978  8735.729
 979  8458.884
 980  8545.109
 981  8534.112
 982  8454.707
 983  8170.867
 984  8181.067
 985  8304.855
 986  8409.421
 987  8553.481
 988  8749.218
 989  8896.042
 990  8814.926
 991  8850.534
 992  8897.848
 993  8893.049
 994  8660.221
 995  8749.278
 996  8695.444
 997  8801.061
 998  8298.672
 999  8126.639
1000  8177.53
1001  8244.851
1002  8384.467
1003  8298.017
1004  8339.11
1005  8396.942
1006  8417.035
1007  8607.229
1008  8758.259
1009  8554.682
1010  8469.257
1011  8474.315
1012  8275.674
1013  8350.178
1014  8084.701
1015  7965.641
1016  7635.363
1017  7649.104
1018  8040.728
1019  8192.665
1020  8382.703
1021  8701.577
1022  8969.353
1023  9019.379
