# Input file       =  1197914847.107016_cleaned.dat
# Candidate        =  PSR_0332+5434
# Telescope        =  AR
# Epoch_topo       =  58108.755394757129
# Epoch_bary       =  N/A
# T_sample         =  0.002
# Data Folded      =  7340032
# Data Avg         =  0.182591794140795
# Data StdDev      =  4.28612055921581 
# Profile Bins     =  1024
# Profile Avg      =  1308.8019069163  
# Profile StdDev   =  362.880290845636 
# Reduced chi-sqr  =  0.403
# Prob(Noise)      <  1   (~0.0 sigma)
# P_topo (ms)      =  714.546533922277  +/- 0.00172
# P'_topo (s/s)    =  -0                +/- 9.09e-10
# P''_topo (s/s^2) =  0                 +/- 4.01e-13
# P_bary (ms)      =  N/A
# P'_bary (s/s)    =  N/A
# P''_bary (s/s^2) =  N/A
# P_orb (s)        =  N/A
# asin(i)/c (s)    =  N/A
# eccentricity     =  N/A
# w (rad)          =  N/A
# T_peri           =  N/A
######################################################
   0  970.7135
   1  1031.149
   2  1108.73
   3  1203.2
   4  1304.56
   5  1352.125
   6  1423.295
   7  1355.785
   8  1230.439
   9  1234.046
  10  1290.63
  11  1341.376
  12  1318.249
  13  1371.404
  14  1299.199
  15  1200.011
  16  1070.669
  17  1204.224
  18  1264.412
  19  1222.765
  20  1223.298
  21  1267.82
  22  1419.178
  23  1452.939
  24  1427.099
  25  1388.127
  26  1364.189
  27  1303.682
  28  1336.98
  29  1276.71
  30  1356.34
  31  1279.55
  32  1349.414
  33  1368.761
  34  1334.489
  35  1317.939
  36  1274.982
  37  1214.879
  38  1178.847
  39  1193.279
  40  1191.913
  41  1166.473
  42  1211.742
  43  1232.666
  44  1281.774
  45  1327.196
  46  1298.588
  47  1223.643
  48  1143.128
  49  1195.99
  50  1308.873
  51  1340.286
  52  1350.254
  53  1256.411
  54  1321.226
  55  1335.433
  56  1280.168
  57  1242.489
  58  1312.069
  59  1369.348
  60  1342.714
  61  1335.162
  62  1408.139
  63  1531.823
  64  1524.456
  65  1458.837
  66  1431.213
  67  1458.24
  68  1473.703
  69  1395.598
  70  1335.256
  71  1300.248
  72  1331.342
  73  1293.568
  74  1362.288
  75  1385.151
  76  1425.08
  77  1388.213
  78  1382.547
  79  1342.35
  80  1333.428
  81  1279.161
  82  1389.157
  83  1433.989
  84  1383.451
  85  1291.304
  86  1275.017
  87  1320.686
  88  1315.427
  89  1282.657
  90  1331.763
  91  1281.58
  92  1416.51
  93  1470.121
  94  1567.201
  95  1558.958
  96  1552.198
  97  1537.231
  98  1440.856
  99  1325.244
 100  1306.226
 101  1325.87
 102  1360.619
 103  1205.278
 104  1142.45
 105  1056.12
 106  1142.466
 107  1195.494
 108  1323.849
 109  1387.244
 110  1406.677
 111  1368.862
 112  1287.048
 113  1235.852
 114  1239.424
 115  1319.742
 116  1330.847
 117  1221.627
 118  1201.603
 119  1281.157
 120  1243.708
 121  1217.941
 122  1289.637
 123  1437.959
 124  1376.147
 125  1257.056
 126  1330.36
 127  1427.074
 128  1377.794
 129  1285.691
 130  1225.773
 131  1147.468
 132  1035.024
 133  1066.623
 134  1201.77
 135  1133.587
 136  1104.689
 137  1123.425
 138  1203.222
 139  1014.31
 140  1045.117
 141  1128.017
 142  1321.086
 143  1374.43
 144  1333.678
 145  1294.601
 146  1172.578
 147  1189.182
 148  1229.412
 149  1247.474
 150  1179.361
 151  1120.454
 152  1119.563
 153  1114.316
 154  1112.375
 155  1153.87
 156  1158.496
 157  1306.659
 158  1374.618
 159  1341.22
 160  1205.379
 161  1132.735
 162  1195.415
 163  1220.262
 164  1297.948
 165  1267.627
 166  1265.579
 167  1254.249
 168  1299.592
 169  1328.801
 170  1243.788
 171  1271.239
 172  1295.71
 173  1303.545
 174  1211.934
 175  1139.668
 176  1246.931
 177  1326.301
 178  1386.544
 179  1299.995
 180  1308.6
 181  1366.037
 182  1333.868
 183  1269.777
 184  1349.581
 185  1427.595
 186  1478.295
 187  1375.895
 188  1345.978
 189  1326.979
 190  1352.182
 191  1262.828
 192  1197.414
 193  1228.275
 194  1374.822
 195  1468.705
 196  1374.546
 197  1317.658
 198  1287.485
 199  1354.375
 200  1439.707
 201  1398.29
 202  1480.906
 203  1567.491
 204  1653.84
 205  1598.547
 206  1429.005
 207  1323.581
 208  1235.514
 209  1235.53
 210  1334.785
 211  1435.566
 212  1461.84
 213  1380.394
 214  1278.481
 215  1334.261
 216  1408.18
 217  1458.347
 218  1327.907
 219  1258.45
 220  1310.992
 221  1405.755
 222  1422.922
 223  1421.501
 224  1405.465
 225  1430.34
 226  1316.396
 227  1298.091
 228  1241.85
 229  1260.302
 230  1245.778
 231  1270.293
 232  1332.486
 233  1297.036
 234  1315.401
 235  1291.907
 236  1314.294
 237  1349.58
 238  1412.316
 239  1345.066
 240  1375.862
 241  1436.588
 242  1564.042
 243  1437.543
 244  1365.571
 245  1278.451
 246  1411.112
 247  1460.304
 248  1513.319
 249  1460.968
 250  1444.106
 251  1361.678
 252  1225.727
 253  1136.202
 254  1205.886
 255  1338.323
 256  1310.84
 257  1282.55
 258  1331.491
 259  1399.623
 260  1269.048
 261  1129.768
 262  1139.495
 263  1240.433
 264  1313.012
 265  1327.667
 266  1332.92
 267  1319.703
 268  1279.16
 269  1244.303
 270  1189.592
 271  1217.391
 272  1236.474
 273  1244.457
 274  1270.688
 275  1358.294
 276  1443.756
 277  1366.501
 278  1367.042
 279  1446.762
 280  1514.717
 281  1497.83
 282  1485.797
 283  1514.501
 284  1388.253
 285  1259.765
 286  1192.589
 287  1241.705
 288  1184.589
 289  1259.507
 290  1425.933
 291  1548.312
 292  1481.661
 293  1386.583
 294  1252.016
 295  1228.606
 296  1230.196
 297  1366.87
 298  1448.404
 299  1448.196
 300  1438.868
 301  1377.424
 302  1389.245
 303  1395.72
 304  1341.666
 305  1268.473
 306  1143.957
 307  1211.064
 308  1218.096
 309  1231.643
 310  1175.175
 311  1299.953
 312  1309.134
 313  1354.941
 314  1217.481
 315  1297.885
 316  1360.022
 317  1524.954
 318  1468.332
 319  1419.617
 320  1313.679
 321  1257.842
 322  1223.718
 323  1214.921
 324  1300.601
 325  1500.102
 326  1510.759
 327  1375.206
 328  1234.134
 329  1247.163
 330  1263.19
 331  1327.43
 332  1402.306
 333  1396.99
 334  1380.086
 335  1344.564
 336  1361.452
 337  1264.343
 338  1323.094
 339  1403.385
 340  1452.43
 341  1348.517
 342  1331.534
 343  1368.934
 344  1365.736
 345  1256.988
 346  1209.286
 347  1228.218
 348  1337.306
 349  1370.469
 350  1318.245
 351  1235.641
 352  1228.125
 353  1264.828
 354  1305.785
 355  1336.91
 356  1401.202
 357  1408.101
 358  1299.051
 359  1283.599
 360  1218.78
 361  1350.391
 362  1394.8
 363  1504.371
 364  1515.481
 365  1378.911
 366  1345.118
 367  1336.3
 368  1339.872
 369  1316.291
 370  1320.678
 371  1259.874
 372  1238.464
 373  1340.859
 374  1436.606
 375  1459.467
 376  1405.433
 377  1386.719
 378  1353.233
 379  1241.522
 380  1247.837
 381  1275
 382  1318.002
 383  1251.966
 384  1220.807
 385  1303.23
 386  1338.395
 387  1319.715
 388  1264.109
 389  1269.104
 390  1391.65
 391  1489.672
 392  1462.098
 393  1386.266
 394  1379.165
 395  1425.865
 396  1526.278
 397  1589.524
 398  1539.633
 399  1486.427
 400  1481.265
 401  1531.759
 402  1491.828
 403  1480.51
 404  1475.678
 405  1411.921
 406  1451.822
 407  1429.831
 408  1394.96
 409  1204.223
 410  1153.726
 411  1270.049
 412  1499.568
 413  1495.838
 414  1438.522
 415  1423.388
 416  1443.22
 417  1492.393
 418  1474.807
 419  1507.878
 420  1366.215
 421  1192.413
 422  1096.932
 423  1059.546
 424  1064.146
 425  1153.202
 426  1341.293
 427  1414.137
 428  1547.762
 429  1596.293
 430  1619.241
 431  1548.617
 432  1446.739
 433  1338.751
 434  1325.128
 435  1225.504
 436  1227.305
 437  1125.661
 438  1164.964
 439  1197.968
 440  1260.982
 441  1374.964
 442  1426.278
 443  1462.057
 444  1447.179
 445  1266.017
 446  1188.219
 447  1191.176
 448  1347.94
 449  1243.262
 450  1235.225
 451  1234.945
 452  1434.551
 453  1509.836
 454  1600.146
 455  1700.132
 456  1739.465
 457  1593.133
 458  1474.921
 459  1469.714
 460  1414.113
 461  1277.35
 462  1189.819
 463  1348.36
 464  1423.284
 465  1440.801
 466  1431.44
 467  1475.491
 468  1435.112
 469  1383.183
 470  1381.761
 471  1437.405
 472  1282.608
 473  1250.693
 474  1177.95
 475  1188.302
 476  1186.885
 477  1175.656
 478  1250.101
 479  1236.755
 480  1364.456
 481  1478.175
 482  1439.756
 483  1389.951
 484  1485.946
 485  1603.203
 486  1649.112
 487  1485.915
 488  1400.557
 489  1306.336
 490  1214.661
 491  1128.789
 492  1195.308
 493  1272.321
 494  1317.128
 495  1347.835
 496  1392.025
 497  1437.208
 498  1509.819
 499  1553.427
 500  1441.455
 501  1399.681
 502  1388.276
 503  1268.807
 504  1111.686
 505  1091.924
 506  1230.419
 507  1278.345
 508  1228.178
 509  1230.815
 510  1139.285
 511  1219.75
 512  1218.444
 513  1286.283
 514  1245.457
 515  1221.118
 516  1209.396
 517  1208.089
 518  1170.839
 519  1151.844
 520  1167.899
 521  1207.413
 522  1175.479
 523  1199.023
 524  1192.844
 525  1246.895
 526  1272.06
 527  1362.63
 528  1387.089
 529  1466.136
 530  1459.211
 531  1338.281
 532  1232.191
 533  1223.553
 534  1271.325
 535  1311.416
 536  1305.4
 537  1326.023
 538  1329.729
 539  1384.042
 540  1255.831
 541  1244.409
 542  1242.901
 543  1323.885
 544  1250.933
 545  1136.458
 546  1169.751
 547  1213.253
 548  1263.478
 549  1230.062
 550  1197.4
 551  1174.621
 552  1033.733
 553  1005.492
 554  957.8568
 555  1099.518
 556  1222.944
 557  1404.578
 558  1342.888
 559  1238.123
 560  1268.031
 561  1365.548
 562  1428.178
 563  1358.352
 564  1379.742
 565  1337.938
 566  1353.107
 567  1303.04
 568  1259.202
 569  1202.106
 570  1125.762
 571  1138.604
 572  1171.862
 573  1313.602
 574  1335.229
 575  1289.806
 576  1406.902
 577  1460.27
 578  1500.757
 579  1291.378
 580  1217.999
 581  1130.555
 582  1195.396
 583  1311.446
 584  1393.967
 585  1358.021
 586  1206.636
 587  1195.192
 588  1364.424
 589  1464.123
 590  1440.465
 591  1389.009
 592  1402.112
 593  1373.817
 594  1284.351
 595  1304.761
 596  1357.152
 597  1330.412
 598  1287.479
 599  1287.563
 600  1238.723
 601  1278.975
 602  1370.781
 603  1469.51
 604  1460.334
 605  1294.311
 606  1260.341
 607  1279.574
 608  1304.196
 609  1273.434
 610  1232.54
 611  1249.223
 612  1250.435
 613  1397.442
 614  1472.677
 615  1568.126
 616  1660.882
 617  1704.514
 618  1686.245
 619  1683.47
 620  1649.485
 621  1649.617
 622  1678.769
 623  1729.586
 624  1677.912
 625  1601.605
 626  1533.862
 627  1538.4
 628  1662.872
 629  1658.078
 630  1579.27
 631  1555.436
 632  1520.969
 633  1480.299
 634  1428.246
 635  1414.296
 636  1310.514
 637  1237.891
 638  1292.37
 639  1399.09
 640  1500.704
 641  1536.624
 642  1467.545
 643  1518.241
 644  1495.858
 645  1345.162
 646  1096.891
 647  1013.376
 648  1125.486
 649  1315.872
 650  1437.222
 651  1286.971
 652  1173.341
 653  1099.86
 654  1193.379
 655  1303.087
 656  1396.558
 657  1464.297
 658  1453.689
 659  1505.803
 660  1426.751
 661  1394.071
 662  1399.477
 663  1458.946
 664  1457.126
 665  1303.578
 666  1232.355
 667  1197.727
 668  1146.534
 669  1191.812
 670  1280.817
 671  1491.604
 672  1498.919
 673  1514.589
 674  1457.16
 675  1378.906
 676  1356.151
 677  1375.82
 678  1401.311
 679  1386.655
 680  1363.012
 681  1411.82
 682  1388.292
 683  1343.974
 684  1381.522
 685  1382.363
 686  1266.431
 687  1228.358
 688  1195.741
 689  1252.075
 690  1287.271
 691  1437.737
 692  1523.952
 693  1572.174
 694  1476.312
 695  1435.668
 696  1493.753
 697  1519.978
 698  1494.706
 699  1437.729
 700  1449.577
 701  1439.182
 702  1396.529
 703  1374.077
 704  1412.99
 705  1476.274
 706  1530.74
 707  1313.653
 708  1262.597
 709  1236.42
 710  1303.31
 711  1170.006
 712  1172.005
 713  1241.597
 714  1402.205
 715  1345.758
 716  1304.06
 717  1351.86
 718  1391.593
 719  1253.397
 720  1128.688
 721  1171.009
 722  1239.623
 723  1249.678
 724  1208.221
 725  1217.855
 726  1271.096
 727  1338.171
 728  1316.018
 729  1250.805
 730  1284.908
 731  1402.947
 732  1439.736
 733  1311.188
 734  1376.319
 735  1370.158
 736  1410.397
 737  1291.744
 738  1284.753
 739  1365.591
 740  1444.572
 741  1414.575
 742  1383.764
 743  1370.038
 744  1361.278
 745  1412.797
 746  1409.074
 747  1421.796
 748  1309.318
 749  1301.694
 750  1260.163
 751  1306.021
 752  1276.705
 753  1264.149
 754  1299.333
 755  1367.537
 756  1379.309
 757  1275.091
 758  1201.343
 759  1138.306
 760  1159.569
 761  1255.019
 762  1314.397
 763  1270.833
 764  1172.797
 765  1102.013
 766  1150.594
 767  1238.085
 768  1230.707
 769  1235.966
 770  1278.443
 771  1337.671
 772  1245.923
 773  1123.771
 774  1073.385
 775  1149.229
 776  1172.765
 777  1180.949
 778  1282.269
 779  1392.347
 780  1485.326
 781  1403.233
 782  1258.058
 783  1209.83
 784  1209.844
 785  1190.279
 786  1160.965
 787  1105.945
 788  1125.32
 789  1107.69
 790  999.1455
 791  1078.142
 792  1095.122
 793  1138.505
 794  1004.77
 795  938.4252
 796  1003.344
 797  1101.347
 798  1211.141
 799  1257.817
 800  1303.85
 801  1242.409
 802  1220.305
 803  1135.953
 804  1212.561
 805  1207.792
 806  1274.45
 807  1146.271
 808  1141.215
 809  1094.081
 810  1199.36
 811  1288.084
 812  1318.996
 813  1358.323
 814  1326.427
 815  1340.865
 816  1295.478
 817  1302.158
 818  1234.445
 819  1203.456
 820  1227.563
 821  1311.889
 822  1316.584
 823  1282.014
 824  1187.294
 825  1147.98
 826  1255.764
 827  1430.719
 828  1556.438
 829  1490.137
 830  1396.468
 831  1367.041
 832  1375.65
 833  1313.975
 834  1299.255
 835  1363.032
 836  1378.201
 837  1444.024
 838  1488.417
 839  1472.309
 840  1391.812
 841  1288.674
 842  1290.011
 843  1275.777
 844  1261.205
 845  1211.079
 846  1214.17
 847  1187.561
 848  1145.834
 849  1050.778
 850  1034.255
 851  1143.908
 852  1317.747
 853  1394.083
 854  1331.763
 855  1287.839
 856  1232.423
 857  1257.829
 858  1218.931
 859  1142.21
 860  997.6295
 861  1067.979
 862  1226.012
 863  1342.643
 864  1364.479
 865  1309.006
 866  1217.371
 867  1159.223
 868  1189.271
 869  1335.386
 870  1314.563
 871  1252.054
 872  1121.485
 873  1157.052
 874  1365.534
 875  1479.047
 876  1428.233
 877  1309.451
 878  1414.977
 879  1466.078
 880  1342.033
 881  1266.427
 882  1168.528
 883  1222.281
 884  1148.814
 885  1256.375
 886  1286.414
 887  1309.523
 888  1369.585
 889  1328.124
 890  1296.015
 891  1166.995
 892  1160.919
 893  1295.938
 894  1366.487
 895  1376.323
 896  1339.463
 897  1231.875
 898  1170.412
 899  1234.895
 900  1218.923
 901  1258.36
 902  1316.539
 903  1505.442
 904  1348.524
 905  1210.851
 906  1144.755
 907  1172.627
 908  1097.649
 909  1091.108
 910  1066.905
 911  1083.088
 912  1070.429
 913  1189.475
 914  1206.357
 915  1262.297
 916  1181.283
 917  1198.119
 918  1129.044
 919  1195.6
 920  1176.133
 921  1143.549
 922  991.6934
 923  1021.782
 924  1087.869
 925  1237.528
 926  1230.096
 927  1166.859
 928  1276.559
 929  1372.442
 930  1526.164
 931  1447.661
 932  1312.865
 933  1179.451
 934  1114.984
 935  1212.046
 936  1341.337
 937  1401.087
 938  1363.493
 939  1231.463
 940  1298.112
 941  1406.749
 942  1457.892
 943  1375.479
 944  1232.853
 945  1228.709
 946  1191.814
 947  1334.455
 948  1303.144
 949  1216.404
 950  1113.825
 951  1082.125
 952  1160.82
 953  1210.132
 954  1280.807
 955  1183.794
 956  1077.243
 957  1064.503
 958  1145.505
 959  1294.13
 960  1340.328
 961  1333.56
 962  1250.136
 963  1327.215
 964  1364.114
 965  1232.515
 966  1032.671
 967  954.0686
 968  1087.959
 969  1125.697
 970  1137.785
 971  1057.906
 972  1157.95
 973  1269.756
 974  1381.158
 975  1318.018
 976  1260.862
 977  1230.57
 978  1199.933
 979  1276.609
 980  1299.094
 981  1323.107
 982  1256.807
 983  1183.753
 984  1239.461
 985  1338.6
 986  1408.568
 987  1400.482
 988  1295.048
 989  1224.006
 990  1244.615
 991  1198.126
 992  1323.326
 993  1412.042
 994  1445.44
 995  1252.741
 996  1223.062
 997  1327.66
 998  1289.813
 999  1240.39
1000  1232.873
1001  1173.66
1002  1120.452
1003  1050.739
1004  1168.328
1005  1157.252
1006  1181.557
1007  1152.444
1008  1188.601
1009  1249.255
1010  1172.83
1011  1156.047
1012  1127.961
1013  1322.95
1014  1391.987
1015  1447.849
1016  1444.098
1017  1365.204
1018  1344.966
1019  1243.452
1020  1309.579
1021  1259.953
1022  1242.839
1023  1067.176
