# Input file       =  1197756875.120159_cleaned.dat
# Candidate        =  PSR_0332+5434
# Telescope        =  AR
# Epoch_topo       =  58106.927015279616
# Epoch_bary       =  N/A
# T_sample         =  0.002
# Data Folded      =  7340032
# Data Avg         =  0.0965767566293445
# Data StdDev      =  3.91739124053967 
# Profile Bins     =  512
# Profile Avg      =  1384.27871719575 
# Profile StdDev   =  469.041147905561 
# Reduced chi-sqr  =  0.616
# Prob(Noise)      <  1   (~0.0 sigma)
# P_topo (ms)      =  714.545107715723  +/- 0.000148
# P'_topo (s/s)    =  -0                +/- 7.8e-11
# P''_topo (s/s^2) =  0                 +/- 3.44e-14
# P_bary (ms)      =  N/A
# P'_bary (s/s)    =  N/A
# P''_bary (s/s^2) =  N/A
# P_orb (s)        =  N/A
# asin(i)/c (s)    =  N/A
# eccentricity     =  N/A
# w (rad)          =  N/A
# T_peri           =  N/A
######################################################
   0  1553.783
   1  1273.935
   2  1368.038
   3  1348.66
   4  1496.147
   5  1465.149
   6  1563.651
   7  1596.328
   8  1517.754
   9  954.1353
  10  944.7474
  11  1250.769
  12  1342.256
  13  1716.929
  14  1680.547
  15  1216.433
  16  1752.306
  17  1493.685
  18  1395.581
  19  1217.942
  20  1613.973
  21  1473.733
  22  1374.145
  23  1363.936
  24  1204.817
  25  1322.467
  26  1014.737
  27  1244.019
  28  1378.229
  29  1544.452
  30  1414.987
  31  1561.691
  32  1461.912
  33  1218.062
  34  1212.184
  35  1244.578
  36  1482.169
  37  1578.192
  38  1822.352
  39  1352.118
  40  977.479
  41  1330.488
  42  1377.669
  43  1625.909
  44  1709.005
  45  1351.871
  46  1182.046
  47  1116.345
  48  885.1732
  49  1298.376
  50  1578.426
  51  1318.627
  52  1232.694
  53  1371.616
  54  1314.644
  55  1293.245
  56  1099.528
  57  1597.337
  58  1371.359
  59  1303.747
  60  1329.887
  61  1302.717
  62  1137.604
  63  1611.411
  64  1862.421
  65  1453.187
  66  993.8065
  67  1310.186
  68  1444.382
  69  1223.379
  70  1640.122
  71  1712.109
  72  1526.113
  73  1619.615
  74  1617.734
  75  1412.825
  76  1338.292
  77  1546.953
  78  1786.043
  79  1837.484
  80  1915.906
  81  1521.77
  82  1351.618
  83  1553.357
  84  1796.078
  85  1614.793
  86  1627.405
  87  1425.203
  88  1341.894
  89  1133.63
  90  1458.093
  91  1336.404
  92  1575.69
  93  1726.933
  94  1344.902
  95  1543.831
  96  1417.395
  97  1450.905
  98  1371.296
  99  1402.296
 100  1665.273
 101  1211.329
 102  1407.453
 103  1335.422
 104  1309.696
 105  1296.936
 106  1325.278
 107  1499.924
 108  1630.716
 109  1494.504
 110  1427.399
 111  1886.208
 112  1597.776
 113  1958.017
 114  1232.397
 115  924.9737
 116  1454.914
 117  1493.76
 118  1556.651
 119  1274.465
 120  1240.852
 121  1447.897
 122  1503.183
 123  1139.169
 124  1480.034
 125  1815.56
 126  1611.616
 127  1342.242
 128  1341.021
 129  1324.287
 130  1747.779
 131  1603.771
 132  1362.152
 133  1384.315
 134  1066.875
 135  775.8848
 136  1022.325
 137  1293.511
 138  1515.559
 139  1644.634
 140  1819.081
 141  1391.427
 142  1467.267
 143  1547.835
 144  1437.214
 145  1358.125
 146  1249.516
 147  1185.117
 148  1190.934
 149  1169.948
 150  1372.839
 151  1433.245
 152  1416.074
 153  1140.422
 154  1120.643
 155  1371.459
 156  1204.686
 157  1270.337
 158  1338.113
 159  1545.613
 160  1651.141
 161  1472.578
 162  1284.855
 163  1114.134
 164  1152.555
 165  1539.843
 166  1574.247
 167  1336.669
 168  1294.218
 169  1279.182
 170  1557.976
 171  1826.16
 172  2075.644
 173  1942.467
 174  2212.122
 175  2181.62
 176  2171.134
 177  2173.588
 178  2084.479
 179  1914.12
 180  1770.032
 181  1900.215
 182  1648.47
 183  1436.859
 184  1555.294
 185  1616.94
 186  1452.374
 187  1497.38
 188  1694.303
 189  1580.985
 190  1339.634
 191  1291.836
 192  1187.639
 193  1509.907
 194  1526.097
 195  1518.628
 196  1482.026
 197  1133.306
 198  1202.594
 199  1276.651
 200  968.2452
 201  1152.419
 202  1591.313
 203  1770.19
 204  1607.396
 205  1535.529
 206  1517.003
 207  1357.253
 208  1189.221
 209  1494.956
 210  1364.363
 211  1576.177
 212  1508.559
 213  1463.172
 214  1395.152
 215  1042.518
 216  1412.637
 217  1732.719
 218  1289.232
 219  1276.903
 220  1100.015
 221  1017.141
 222  963.3599
 223  975.9297
 224  1587.07
 225  1871.257
 226  1374.127
 227  950.9179
 228  1200.898
 229  1283.543
 230  1142.753
 231  1220.76
 232  1128.99
 233  1480.469
 234  951.6154
 235  1036.016
 236  1332.173
 237  1080.702
 238  1160.122
 239  1255.543
 240  959.5523
 241  733.6371
 242  795.6378
 243  1171.189
 244  973.8004
 245  967.3735
 246  1152.861
 247  1290.139
 248  844.9675
 249  988.8087
 250  1002.511
 251  771.2883
 252  883.0245
 253  1215.545
 254  1458.643
 255  1586.301
 256  1179.785
 257  986.6954
 258  1117.798
 259  1528.692
 260  1602.475
 261  1359.184
 262  933.7006
 263  840.7575
 264  780.9764
 265  1092.055
 266  878.3086
 267  1105.146
 268  1496.441
 269  1142.835
 270  1169.1
 271  1016.686
 272  1262.794
 273  1247.132
 274  1197.452
 275  1272.781
 276  1323.411
 277  1381.621
 278  1414.597
 279  1205.458
 280  949.3232
 281  1047.563
 282  995.851
 283  943.8418
 284  1333.017
 285  1647.66
 286  2040.099
 287  1588.156
 288  1490.828
 289  1239.992
 290  1025.597
 291  1054.337
 292  1283.5
 293  702.3411
 294  835.9401
 295  1243.04
 296  1457.162
 297  1621.533
 298  1487.218
 299  1662.15
 300  1663.652
 301  1498.19
 302  1223.999
 303  975.9482
 304  1046.624
 305  1130.33
 306  1271.294
 307  1669.441
 308  1568.918
 309  1323.305
 310  1187.153
 311  1069.621
 312  889.5728
 313  1000.354
 314  1201.76
 315  1371.821
 316  1074.464
 317  867.5301
 318  1144.354
 319  1439.844
 320  1428.193
 321  1585.789
 322  1435.936
 323  1105.255
 324  1365.883
 325  1269.302
 326  1526.69
 327  1433.559
 328  1283.022
 329  1165.229
 330  970.7441
 331  1322.549
 332  1462.412
 333  1340.775
 334  1245.196
 335  975.4402
 336  1164.26
 337  1579.99
 338  1631.619
 339  1496.727
 340  1545.99
 341  1655.154
 342  1437.387
 343  1547.741
 344  1240.032
 345  1594.933
 346  1503.868
 347  1212.553
 348  925.2248
 349  1360.277
 350  1351.244
 351  1717.873
 352  1637.146
 353  1697.689
 354  2031.437
 355  1673.274
 356  1483.836
 357  1777.354
 358  1966.191
 359  1637.113
 360  1208.161
 361  936.7133
 362  1078.071
 363  1236.711
 364  1516.032
 365  1411.956
 366  1405.21
 367  1249.578
 368  1135.32
 369  929.9278
 370  1023.577
 371  1172.107
 372  1088.39
 373  1228.746
 374  1212.334
 375  1353.061
 376  1282.772
 377  1131.279
 378  1108.155
 379  1562.788
 380  1497.066
 381  1529.452
 382  1657.718
 383  1699.162
 384  1746.622
 385  1559.752
 386  1382.859
 387  1576.027
 388  842.0975
 389  939.7759
 390  1422.139
 391  1454.855
 392  1372.315
 393  1386.465
 394  1249.346
 395  1088.282
 396  1149.936
 397  1493.974
 398  1207.777
 399  1247.052
 400  1344.498
 401  1397.397
 402  1139.571
 403  1190.953
 404  1058.539
 405  1363.673
 406  1615.937
 407  1534.737
 408  1378.431
 409  1365.021
 410  1630.694
 411  1208.723
 412  1321.198
 413  1436.121
 414  1168.716
 415  1262.292
 416  1368.576
 417  1667.703
 418  1532.596
 419  1704.772
 420  1137.236
 421  833.7048
 422  852.0253
 423  1596.82
 424  1824.132
 425  1593.415
 426  1411.493
 427  1259.488
 428  1319.084
 429  1324.382
 430  1441.026
 431  1395.381
 432  1673.222
 433  1993.316
 434  1740.144
 435  1834.917
 436  1473.26
 437  1153.159
 438  1324.785
 439  1232.807
 440  1467.529
 441  1434.182
 442  1562.863
 443  1533.576
 444  1465.767
 445  1467.765
 446  1801.34
 447  1858.459
 448  1232.192
 449  992.5129
 450  1115.23
 451  1224.392
 452  1323.54
 453  1789.028
 454  1469.037
 455  1079.014
 456  1365.204
 457  1707.245
 458  1406.939
 459  1468.496
 460  1731.142
 461  1599.622
 462  1539.796
 463  1452.626
 464  1720.016
 465  1989.895
 466  2012.116
 467  1976.343
 468  1559.165
 469  1609.394
 470  1301.299
 471  1208.545
 472  1640.676
 473  1811.417
 474  1601.684
 475  1630.543
 476  1600.551
 477  1617.901
 478  1486.91
 479  1315.56
 480  1484.11
 481  1803.116
 482  2151.541
 483  1649.331
 484  1509.924
 485  1443.264
 486  1175.821
 487  1466.543
 488  1487.536
 489  1574.151
 490  1433.161
 491  1212.864
 492  1318.948
 493  1211.038
 494  1255.558
 495  1432.172
 496  1753.517
 497  1673.924
 498  1662.498
 499  1220.203
 500  1307.866
 501  1172.467
 502  1384.009
 503  1197.919
 504  1077.011
 505  1159.09
 506  1131.275
 507  981.923
 508  1179.305
 509  1360.815
 510  1313.08
 511  1659.625
