# Input file       =  1197929750.11364_cleaned.dat
# Candidate        =  PSR_0332+5434
# Telescope        =  AR
# Epoch_topo       =  58108.927883259727
# Epoch_bary       =  N/A
# T_sample         =  0.002
# Data Folded      =  7340032
# Data Avg         =  0.108025077875936
# Data StdDev      =  4.12030067593492 
# Profile Bins     =  512
# Profile Avg      =  1548.54097446491 
# Profile StdDev   =  493.33611071493  
# Reduced chi-sqr  =  0.574
# Prob(Noise)      <  1   (~0.0 sigma)
# P_topo (ms)      =  714.547037482114  +/- 0.00144
# P'_topo (s/s)    =  -0                +/- 7.58e-10
# P''_topo (s/s^2) =  0                 +/- 3.35e-13
# P_bary (ms)      =  N/A
# P'_bary (s/s)    =  N/A
# P''_bary (s/s^2) =  N/A
# P_orb (s)        =  N/A
# asin(i)/c (s)    =  N/A
# eccentricity     =  N/A
# w (rad)          =  N/A
# T_peri           =  N/A
######################################################
   0  1489.2
   1  1608.27
   2  1475.139
   3  1484.616
   4  1265.672
   5  1307.888
   6  1520.05
   7  1328.228
   8  1657.407
   9  1533.29
  10  1553.286
  11  1532.898
  12  1267.782
  13  1478.592
  14  1440.331
  15  1484.255
  16  1308.856
  17  1313.917
  18  1693.099
  19  1984.306
  20  1710.809
  21  1307.344
  22  1574.921
  23  1323.994
  24  1558.214
  25  1760.958
  26  1998.425
  27  2061.6
  28  1907.578
  29  1571.422
  30  1408.621
  31  1798.65
  32  1701.272
  33  1972.389
  34  2196.304
  35  1954.289
  36  1718.954
  37  1667.715
  38  1594.838
  39  1373.877
  40  998.3554
  41  1064.367
  42  1021.105
  43  1265.761
  44  1252.572
  45  1283.412
  46  1360.473
  47  1286.996
  48  1311.783
  49  1799.074
  50  1615.412
  51  1239.261
  52  1363.373
  53  1380.276
  54  1558.719
  55  1547.815
  56  1516.348
  57  1612.268
  58  1605.782
  59  1447.411
  60  1319.714
  61  1545.955
  62  1597.696
  63  1286.712
  64  1432.779
  65  1709.371
  66  1557.984
  67  1551.06
  68  1440.44
  69  1243.83
  70  1255.667
  71  1505.931
  72  1418.003
  73  1491.173
  74  1465.71
  75  1063.169
  76  1155.114
  77  1187.972
  78  1265.6
  79  1314.854
  80  1333.861
  81  1624.485
  82  1904.781
  83  1841.388
  84  1612.096
  85  1487.306
  86  1513.991
  87  1190.363
  88  1279.457
  89  1330.432
  90  1471.379
  91  1599.118
  92  1743.296
  93  1371.096
  94  1159.164
  95  1376.248
  96  1436.684
  97  1683.569
  98  1644.578
  99  1476.021
 100  1506.784
 101  1387.632
 102  1526.649
 103  1912.439
 104  1526.52
 105  1507.161
 106  1578.94
 107  1598.724
 108  1644.198
 109  1605.463
 110  1699.865
 111  1799.115
 112  1837.083
 113  1435.504
 114  1473.957
 115  1685.193
 116  1506.075
 117  1445.062
 118  1602.42
 119  1602.453
 120  1584.432
 121  1562.686
 122  1472.778
 123  1698.079
 124  1721.608
 125  1882.604
 126  1790.431
 127  1860.08
 128  1590.458
 129  1518.653
 130  1825.506
 131  1516.823
 132  1577.396
 133  1430.516
 134  1578.93
 135  1392.074
 136  1455.149
 137  2076.092
 138  1839.92
 139  1574.463
 140  1502.568
 141  1550.465
 142  1164.795
 143  1465.725
 144  1882.115
 145  1601.668
 146  1758.94
 147  1504.181
 148  1298.262
 149  1668.121
 150  1500.557
 151  1347.468
 152  1503.22
 153  1698.124
 154  1760.525
 155  1735.974
 156  1779.886
 157  1368.962
 158  860.3707
 159  1304.551
 160  1442.492
 161  1382.798
 162  1607.403
 163  1300.267
 164  1556.009
 165  1644.342
 166  1307.71
 167  1074.721
 168  1331.265
 169  1482.794
 170  1536.539
 171  1542.67
 172  1651.041
 173  1508.588
 174  1568.306
 175  1574.71
 176  1390.542
 177  1814.828
 178  1904.111
 179  1912.976
 180  1545.481
 181  1543.004
 182  1675.62
 183  1482.5
 184  1318.332
 185  1333.887
 186  1329.78
 187  1323.179
 188  1309.683
 189  1220.978
 190  985.2097
 191  838.5403
 192  968.4727
 193  1356.474
 194  1490.879
 195  1619.932
 196  1204.25
 197  1402.243
 198  1393.548
 199  1661.862
 200  1609.244
 201  1866.011
 202  1781.167
 203  1607.183
 204  1460.973
 205  1275.996
 206  1322.901
 207  1862.877
 208  1823.974
 209  1624.734
 210  1525.012
 211  1376.754
 212  1533.001
 213  1213.816
 214  1691.334
 215  1564.83
 216  1273.274
 217  1423.721
 218  1600.888
 219  1376.256
 220  1328.296
 221  1776.675
 222  1487.69
 223  1296.343
 224  1184.498
 225  1303.344
 226  1161.271
 227  1663.679
 228  1791.553
 229  1624.117
 230  1325.287
 231  1399.937
 232  1529.759
 233  1443.194
 234  1854.283
 235  2394.119
 236  2128.188
 237  1737.923
 238  1373.38
 239  1178.866
 240  1481.586
 241  1827.774
 242  1518.63
 243  1618.462
 244  1747.883
 245  1480.192
 246  1442.751
 247  1646.138
 248  1986.704
 249  1852.729
 250  2282.63
 251  2268.147
 252  2298.361
 253  2073.284
 254  1707.151
 255  1342.978
 256  1589.938
 257  1676.093
 258  1474.679
 259  1891.542
 260  2171.219
 261  1884.688
 262  2017.959
 263  2042.634
 264  1887.056
 265  2282.426
 266  1985.238
 267  1937.095
 268  2134.884
 269  2274.704
 270  2665.231
 271  2943.86
 272  2950.211
 273  2365.228
 274  1707.952
 275  1365.328
 276  1411.872
 277  1585.431
 278  1631.877
 279  1414.067
 280  1421.457
 281  1608.945
 282  1803.929
 283  1597.941
 284  1720.759
 285  1995.948
 286  1870.076
 287  1621.364
 288  1429.185
 289  1732.42
 290  1735.657
 291  1764.606
 292  1650.751
 293  1681.393
 294  1662.987
 295  1568.787
 296  1423.402
 297  1206.933
 298  1200.866
 299  1373.92
 300  1215.34
 301  1433.717
 302  1589.194
 303  1332.069
 304  1305.317
 305  1324.003
 306  1205.314
 307  1393.393
 308  1666.263
 309  1904.825
 310  1674.138
 311  1490.235
 312  1367.861
 313  1438.906
 314  1654.474
 315  1544.811
 316  1585.351
 317  1305.649
 318  1480.28
 319  1236.078
 320  1412.413
 321  1417.792
 322  1197.737
 323  1437.354
 324  1895.075
 325  1943.493
 326  1384.1
 327  1271.901
 328  1619.961
 329  1475.612
 330  1727.808
 331  1518.374
 332  1483.376
 333  1859.235
 334  1903.338
 335  2026.272
 336  1514.509
 337  1389.402
 338  1609.687
 339  1344.136
 340  1586.904
 341  1669.324
 342  1606.944
 343  1593.056
 344  1667.266
 345  1548.223
 346  1873.414
 347  1911.451
 348  1611.615
 349  1363.487
 350  1500.771
 351  1893.625
 352  1916.448
 353  1477.242
 354  1928.643
 355  1997.542
 356  2089.154
 357  1925.407
 358  1580.503
 359  1658.393
 360  1269.447
 361  1521.037
 362  1888.674
 363  2077.109
 364  1910.809
 365  1640.143
 366  1826.655
 367  1568.034
 368  1392.402
 369  1397.396
 370  1538.89
 371  1946.36
 372  1767.94
 373  2047.96
 374  1810.875
 375  1815.925
 376  1914.038
 377  1649.744
 378  1946.458
 379  1978.377
 380  1755.465
 381  1781.165
 382  1860.361
 383  2091.653
 384  1656.773
 385  1553.057
 386  1564.423
 387  1425.17
 388  1582.419
 389  1663.187
 390  1741.123
 391  1539.511
 392  1602.828
 393  1539.143
 394  1453.993
 395  1363.36
 396  1202.367
 397  1367.526
 398  1265.186
 399  1328.647
 400  1501.182
 401  1442.588
 402  1487.005
 403  1475.787
 404  1508.098
 405  1545.507
 406  1190.732
 407  1353.001
 408  1479.182
 409  1505.029
 410  1439.838
 411  1740.734
 412  1746.391
 413  1653.601
 414  1645.869
 415  1335.361
 416  1602.236
 417  1529.764
 418  1579.06
 419  1452.335
 420  1263.816
 421  1138.541
 422  1344.469
 423  1510.936
 424  1198.29
 425  1242.245
 426  1332.39
 427  1424.762
 428  1329.017
 429  1244.589
 430  1324.21
 431  1578.921
 432  1719.274
 433  1518.325
 434  1174.557
 435  1143.663
 436  1255.376
 437  1314.788
 438  1133.412
 439  1467.337
 440  1515.319
 441  1490.892
 442  1343.347
 443  1260.229
 444  1289.211
 445  1435.683
 446  1026.368
 447  1067.631
 448  1293.477
 449  1244.146
 450  1594.854
 451  1250.175
 452  1175.495
 453  1392.909
 454  1642.018
 455  1409.233
 456  1579.768
 457  1677.306
 458  1745.939
 459  1617.353
 460  1820.364
 461  1963.304
 462  1745.387
 463  1345.267
 464  1538.612
 465  1596.988
 466  1711.269
 467  1761.178
 468  1687.104
 469  1723.956
 470  1632.651
 471  1661.051
 472  1549.255
 473  1636.459
 474  1396.776
 475  1150.884
 476  770.8493
 477  1120.823
 478  1425.145
 479  1687.734
 480  1277.735
 481  1346.836
 482  1533.769
 483  1474.073
 484  1385.995
 485  1308.994
 486  1561.408
 487  1417.094
 488  1203.759
 489  1088.544
 490  1013.099
 491  1245.035
 492  1374.522
 493  1359.407
 494  1822.739
 495  1574.028
 496  1507.202
 497  1329.372
 498  1171.932
 499  1352.088
 500  1502.641
 501  1525.443
 502  1533.543
 503  1243.681
 504  1233.376
 505  1445.665
 506  1655.136
 507  1418.418
 508  1461.585
 509  1210.726
 510  1300.068
 511  1236.091
