# Input file       =  1197585260.104582_cleaned.dat
# Candidate        =  PSR_0332+5434
# Telescope        =  AR
# Epoch_topo       =  58104.940730377108
# Epoch_bary       =  N/A
# T_sample         =  0.002
# Data Folded      =  7340032
# Data Avg         =  0.144268066646223
# Data StdDev      =  3.7846681052033  
# Profile Bins     =  1024
# Profile Avg      =  1034.1090464881  
# Profile StdDev   =  320.425299241151 
# Reduced chi-sqr  =  0.727
# Prob(Noise)      <  1   (~0.0 sigma)
# P_topo (ms)      =  714.543194755029  +/- 0.000174
# P'_topo (s/s)    =  -0                +/- 9.16e-11
# P''_topo (s/s^2) =  0                 +/- 4.04e-14
# P_bary (ms)      =  N/A
# P'_bary (s/s)    =  N/A
# P''_bary (s/s^2) =  N/A
# P_orb (s)        =  N/A
# asin(i)/c (s)    =  N/A
# eccentricity     =  N/A
# w (rad)          =  N/A
# T_peri           =  N/A
######################################################
   0  1161.419
   1  1153.32
   2  1076.753
   3  954.8904
   4  794.5308
   5  928.1405
   6  1145.495
   7  1221.534
   8  1164.586
   9  1049.21
  10  966.2334
  11  955.8444
  12  888.4734
  13  938.3702
  14  921.9727
  15  977.807
  16  1023.626
  17  961.499
  18  968.411
  19  1053.768
  20  1133.892
  21  1065.443
  22  961.0012
  23  1002.797
  24  1166.807
  25  1179.181
  26  1149.254
  27  1173.09
  28  1261.893
  29  1366.217
  30  1436.939
  31  1424.975
  32  1320.942
  33  1239.238
  34  1206.216
  35  1248.368
  36  1163.729
  37  1171.552
  38  1148.671
  39  1162.475
  40  1146.396
  41  1193.765
  42  1217.23
  43  1299.226
  44  1283.66
  45  1196.837
  46  1097.829
  47  956.6442
  48  1027.447
  49  1219.857
  50  1308.987
  51  1252.12
  52  1067.563
  53  1039.369
  54  1036.375
  55  1028.734
  56  1065.511
  57  1054.921
  58  941.5413
  59  890.6477
  60  876.6904
  61  1062.68
  62  1007.304
  63  1011.184
  64  963.9733
  65  1031.983
  66  939.0732
  67  843.2277
  68  887.3966
  69  928.1659
  70  941.8222
  71  906.0044
  72  941.944
  73  980.9238
  74  963.2768
  75  1074.206
  76  1084.042
  77  1108.214
  78  964.5969
  79  916.5655
  80  925.5318
  81  944.5905
  82  880.9002
  83  798.0152
  84  793.1199
  85  878.4636
  86  1034.482
  87  1096.461
  88  1141.887
  89  1137.179
  90  1149.185
  91  1056.32
  92  937.0021
  93  865.3665
  94  926.0168
  95  999.6762
  96  1028.717
  97  953.2693
  98  917.309
  99  896.4122
 100  985.0037
 101  1065.745
 102  1130.624
 103  1031.825
 104  1023.417
 105  1076.388
 106  1113.456
 107  1054.377
 108  1029.519
 109  1014.971
 110  1011.147
 111  1080.954
 112  1151.583
 113  1224.619
 114  1166.859
 115  1086.918
 116  1008.633
 117  946.7571
 118  1033.563
 119  1063.984
 120  1098.199
 121  1078.271
 122  1072.743
 123  950.2472
 124  1035.714
 125  1074.03
 126  1151.434
 127  1115.411
 128  998.6718
 129  906.3721
 130  878.5685
 131  913.2875
 132  862.5756
 133  838.6194
 134  886.673
 135  958.4869
 136  1020.285
 137  1152.42
 138  1190.523
 139  1085.581
 140  1011.504
 141  930.5671
 142  990.6123
 143  972.4947
 144  1057.621
 145  1185.568
 146  1171.445
 147  1066.897
 148  894.6733
 149  723.8104
 150  828.4772
 151  969.0455
 152  1160.999
 153  1123.913
 154  979.4879
 155  894.3885
 156  957.3357
 157  992.9847
 158  1005.849
 159  994.4938
 160  1017.697
 161  1025.313
 162  1009.566
 163  1153.44
 164  1267.723
 165  1134.695
 166  1001.903
 167  854.3465
 168  829.4974
 169  813.3701
 170  936.9484
 171  1033.374
 172  1111.637
 173  1031.843
 174  1054.666
 175  1083.568
 176  1160.259
 177  1230.481
 178  1121.396
 179  1002.064
 180  892.5038
 181  975.504
 182  949.4924
 183  787.445
 184  816.1033
 185  917.3754
 186  1069.649
 187  958.2526
 188  935.5829
 189  948.442
 190  959.6943
 191  920.4896
 192  1012.116
 193  1087.864
 194  1152.829
 195  1048.837
 196  982.1052
 197  996.6427
 198  846.3694
 199  817.2956
 200  742.3378
 201  793.6455
 202  899.8696
 203  899.9827
 204  956.1356
 205  746.8265
 206  752.8046
 207  772.0092
 208  799.1498
 209  769.3909
 210  957.1232
 211  1122.417
 212  1203.793
 213  1107.291
 214  1087.628
 215  974.6642
 216  959.0618
 217  882.8961
 218  884.1169
 219  888.4124
 220  878.1497
 221  804.6064
 222  712.7206
 223  759.3987
 224  786.2617
 225  891.1219
 226  1023.379
 227  1090.019
 228  1124.79
 229  1075.356
 230  1094.093
 231  977.8091
 232  951.5862
 233  942.3584
 234  1202.992
 235  1180.89
 236  1171.048
 237  1143.439
 238  1204.902
 239  1195.167
 240  1132.665
 241  1124.101
 242  1069.204
 243  987.344
 244  1075.335
 245  949.7308
 246  957.9141
 247  962.643
 248  1059.635
 249  1010.419
 250  1015.157
 251  954.5649
 252  984.839
 253  960.7894
 254  993.675
 255  1013.934
 256  967.3721
 257  1001.002
 258  997.5723
 259  1022.127
 260  937.0291
 261  891.7982
 262  1010.863
 263  1146.329
 264  1179.095
 265  1116.522
 266  1108.565
 267  1202.916
 268  1307.871
 269  1193.268
 270  1108.609
 271  944.6154
 272  990.0511
 273  899.1632
 274  882.1475
 275  967.2438
 276  1045.776
 277  1087.21
 278  1027.877
 279  1044.452
 280  1094.235
 281  1049.272
 282  1043.491
 283  1153.33
 284  1128.879
 285  1070.293
 286  1005.82
 287  1035.559
 288  1134.064
 289  1006.203
 290  1053.973
 291  961.0714
 292  950.7955
 293  1034.652
 294  1026.135
 295  1036.676
 296  1037.141
 297  1121.351
 298  1144.06
 299  1061.396
 300  1090.239
 301  1049.859
 302  950.8206
 303  851.3819
 304  892.8147
 305  944.6294
 306  983.8825
 307  996.1731
 308  937.4764
 309  954.5316
 310  1020.652
 311  1159.775
 312  1224.522
 313  1233.814
 314  1134.672
 315  1006.703
 316  913.9505
 317  1068.241
 318  1109.613
 319  1160.056
 320  1063.367
 321  1090.133
 322  1009.426
 323  947.7152
 324  921.4852
 325  1089.255
 326  1158.14
 327  1197.995
 328  1121.079
 329  1133.541
 330  1153.524
 331  1155.367
 332  1107.73
 333  1058.268
 334  1092.585
 335  1069.711
 336  1027.886
 337  1064.856
 338  1083.217
 339  1094.349
 340  994.8934
 341  1058.71
 342  1174.664
 343  1256.277
 344  1167.74
 345  1088.533
 346  1034.297
 347  1125.686
 348  1066.628
 349  1061.999
 350  979.2076
 351  946.0607
 352  1053.603
 353  1252.95
 354  1270.252
 355  1114.962
 356  1026.138
 357  933.7396
 358  1088.74
 359  956.5594
 360  969.0521
 361  933.7905
 362  1130.704
 363  1184.931
 364  1110.976
 365  1072.966
 366  1014.749
 367  918.9553
 368  988.9066
 369  1161.717
 370  1238.402
 371  1139.97
 372  1083.356
 373  1026.43
 374  1116.203
 375  1123.142
 376  1225.599
 377  1260.376
 378  1197.564
 379  1098.413
 380  950.4519
 381  969.0988
 382  927.2856
 383  1061.426
 384  1193.682
 385  1274.021
 386  1200.438
 387  1120.962
 388  1116.27
 389  1093.111
 390  1165.346
 391  1181.636
 392  1244.639
 393  1304.762
 394  1376.131
 395  1355.162
 396  1286.695
 397  1172.809
 398  1143.738
 399  1043.683
 400  936.3438
 401  910.9739
 402  1004.208
 403  999.0815
 404  1003.8
 405  980.5381
 406  932.1083
 407  840.7735
 408  782.1227
 409  904.4027
 410  998.1755
 411  1215.514
 412  1168.263
 413  1244.307
 414  1150.078
 415  1238.86
 416  1328.005
 417  1227.086
 418  1092.537
 419  1077.165
 420  1283.49
 421  1188.895
 422  1007.356
 423  910.7501
 424  1030.428
 425  1181.704
 426  1217.884
 427  1171.435
 428  1014.31
 429  952.0417
 430  953.6846
 431  1037.17
 432  1046.954
 433  1112.542
 434  1032.686
 435  938.9816
 436  903.9777
 437  911.5195
 438  913.1571
 439  763.3008
 440  838.6631
 441  904.9223
 442  983.1337
 443  931.9868
 444  1033.627
 445  995.4489
 446  971.4957
 447  956.7614
 448  994.1804
 449  1080.404
 450  1140.994
 451  1213.436
 452  1260.591
 453  1139.735
 454  1122.114
 455  952.553
 456  908.3205
 457  776.4151
 458  902.5
 459  1106
 460  1184.882
 461  1149.939
 462  1024.345
 463  1000.138
 464  961.0014
 465  1000.692
 466  979.5176
 467  909.2491
 468  898.4185
 469  874.0432
 470  966.0418
 471  1011.015
 472  1076.832
 473  1199.922
 474  1186.836
 475  1045.135
 476  944.2625
 477  975.8856
 478  1152.204
 479  1203.839
 480  1272.08
 481  1385.5
 482  1393.891
 483  1245.699
 484  1094.12
 485  1115.47
 486  1073.221
 487  986.4564
 488  831.7762
 489  850.4472
 490  917.6375
 491  1074.724
 492  1232.207
 493  1147.934
 494  1143.166
 495  1065.062
 496  1069.867
 497  1046.262
 498  1096.04
 499  1140.923
 500  1016.34
 501  951.2141
 502  982.8615
 503  1034.319
 504  994.9171
 505  959.043
 506  1004.298
 507  1028.742
 508  1014.75
 509  1007.807
 510  979.0325
 511  970.7304
 512  1000.725
 513  930.3442
 514  787.1721
 515  689.5784
 516  823.0816
 517  976.0056
 518  1023.491
 519  1114.496
 520  1132.161
 521  1239.968
 522  1208.278
 523  1201.557
 524  1086.971
 525  988.2253
 526  1080.533
 527  1001.886
 528  954.8268
 529  857.5759
 530  1035.574
 531  1027.454
 532  1021.812
 533  1116.053
 534  1122.543
 535  1147.558
 536  1030.32
 537  1054.274
 538  1063.594
 539  1032.625
 540  1052.108
 541  1065.215
 542  1040.988
 543  960.6378
 544  956.9003
 545  881.1378
 546  961.7763
 547  902.8056
 548  1023.816
 549  1072.859
 550  1277.545
 551  1373.96
 552  1196.601
 553  1141.96
 554  1136.138
 555  1232.464
 556  1244.535
 557  1135.973
 558  1028.911
 559  1054.901
 560  1152.25
 561  1161.984
 562  1191.161
 563  1102.363
 564  1094.903
 565  964.8424
 566  983.7107
 567  1001.358
 568  1010.935
 569  1040.516
 570  1112.283
 571  1029.882
 572  925.9428
 573  817.1337
 574  932.8763
 575  966.5144
 576  996.9554
 577  1006.884
 578  1096.998
 579  1162.273
 580  1163.676
 581  1101.745
 582  1123.801
 583  1099.495
 584  1120.622
 585  1069.57
 586  1082.727
 587  1113.457
 588  1183.782
 589  1142.832
 590  1140.55
 591  1215.049
 592  1323.884
 593  1325.765
 594  1202.519
 595  1188.531
 596  1122.341
 597  1073.156
 598  975.5181
 599  972.043
 600  932.0565
 601  813.1299
 602  774.184
 603  815.9719
 604  991.5339
 605  1075.055
 606  1206.137
 607  1356.01
 608  1425.265
 609  1386.948
 610  1372.855
 611  1299.241
 612  1241.976
 613  1194.191
 614  1186.228
 615  1123.581
 616  1069.7
 617  1113.888
 618  1268.76
 619  1403.969
 620  1595.099
 621  1795.055
 622  1735.845
 623  1672.552
 624  1604.901
 625  1663.188
 626  1570.157
 627  1601.803
 628  1513.84
 629  1423.541
 630  1268.476
 631  1177.03
 632  1146.508
 633  1008.831
 634  991.3203
 635  976.3741
 636  952.053
 637  1035.933
 638  1137.202
 639  1188.161
 640  1072.737
 641  964.5339
 642  969.6165
 643  939.021
 644  847.7394
 645  812.744
 646  767.2544
 647  784.0632
 648  799.8191
 649  829.5139
 650  907.5424
 651  893.2758
 652  848.6854
 653  876.0713
 654  886.5176
 655  947.0559
 656  990.7513
 657  1002.841
 658  985.9502
 659  956.4088
 660  1005.605
 661  1041.541
 662  953.999
 663  877.7933
 664  925.892
 665  1010.82
 666  1013.734
 667  1124.842
 668  1173.127
 669  1186
 670  1149.194
 671  1060.683
 672  961.4863
 673  927.9056
 674  941.1276
 675  958.2035
 676  982.3008
 677  1013.569
 678  1095.518
 679  1066.388
 680  1089.257
 681  1000.752
 682  947.9502
 683  945.48
 684  938.9897
 685  1013.217
 686  1047.802
 687  957.6949
 688  900.5243
 689  839.3495
 690  849.3281
 691  889.3738
 692  917.9022
 693  935.7419
 694  974.5134
 695  1151.993
 696  1165.307
 697  984.174
 698  772.7355
 699  831.5869
 700  920.9492
 701  986.8208
 702  963.0962
 703  800.809
 704  675.9838
 705  675.2258
 706  853.801
 707  968.2795
 708  909.9645
 709  855.074
 710  911.4039
 711  953.6044
 712  854.2418
 713  825.476
 714  768.8113
 715  742.1075
 716  762.0353
 717  867.6248
 718  933.4982
 719  842.2658
 720  787.5558
 721  811.7637
 722  853.3047
 723  972.8726
 724  987.0627
 725  974.3887
 726  1000.327
 727  983.6685
 728  991.5958
 729  780.1963
 730  753.4946
 731  694.8571
 732  788.3989
 733  886.0633
 734  977.251
 735  874.6102
 736  811.2888
 737  894.4903
 738  968.3932
 739  906.0102
 740  883.1771
 741  923.2003
 742  923.5761
 743  826.8946
 744  808.4632
 745  752.1897
 746  722.7439
 747  738.148
 748  841.2951
 749  962.4728
 750  982.3529
 751  914.9286
 752  922.402
 753  885.5945
 754  1000.193
 755  1078.855
 756  1128.359
 757  1068.967
 758  1045.012
 759  954.6167
 760  878.0242
 761  919.0695
 762  1011.704
 763  1134.217
 764  1181.761
 765  1204.26
 766  1159.636
 767  1095.76
 768  1034.579
 769  996.6966
 770  1059.735
 771  1195.579
 772  1170.649
 773  1000.438
 774  932.7673
 775  974.5783
 776  991.7634
 777  832.45
 778  787.0591
 779  750.0485
 780  902.8739
 781  976.0394
 782  1115.675
 783  1186.68
 784  1110.745
 785  1103.451
 786  1024.992
 787  1004.266
 788  976.8413
 789  974.7781
 790  981.5058
 791  1010.085
 792  887.2493
 793  774.8365
 794  768.9078
 795  857.7284
 796  993.9888
 797  888.8604
 798  892.4768
 799  919.5151
 800  860.6664
 801  842.6168
 802  909.1241
 803  1128.986
 804  1084.414
 805  974.665
 806  925.5936
 807  1007.675
 808  968.8472
 809  930.0957
 810  885.1581
 811  786.8422
 812  786.9773
 813  758.019
 814  903.1147
 815  976.2329
 816  965.334
 817  929.611
 818  883.4116
 819  825.0136
 820  869.5785
 821  970.7739
 822  1014.883
 823  889.0582
 824  795.1234
 825  717.8204
 826  691.0945
 827  736.8735
 828  911.276
 829  979.5049
 830  928.6104
 831  913.1947
 832  885.2485
 833  799.3346
 834  611.3403
 835  619.6182
 836  763.1169
 837  838.5781
 838  893.6934
 839  987.2447
 840  965.722
 841  938.925
 842  898.436
 843  1028.584
 844  925.0197
 845  980.6461
 846  1003.521
 847  1073.624
 848  1062.349
 849  1045.25
 850  1045.227
 851  1066.917
 852  1143.863
 853  1138.613
 854  1054.147
 855  971.038
 856  1065.744
 857  1133.186
 858  1204.048
 859  1226.065
 860  1244.064
 861  1195.807
 862  1061.52
 863  974.4212
 864  927.0674
 865  930.8446
 866  942.0207
 867  953.3696
 868  874.3401
 869  898.06
 870  841.5828
 871  950.4847
 872  1010.385
 873  1061.041
 874  1137.745
 875  1281.574
 876  1287.92
 877  1167.465
 878  1025.093
 879  1013.499
 880  1054.183
 881  991.4271
 882  1055.9
 883  1002.015
 884  1047.838
 885  945.1691
 886  893.0152
 887  833.826
 888  834.7359
 889  837.3257
 890  873.5361
 891  813.0164
 892  803.1473
 893  853.578
 894  972.5487
 895  1080.029
 896  1040.348
 897  954.1438
 898  818.1416
 899  840.2482
 900  969.7933
 901  961.7726
 902  943.8282
 903  905.7491
 904  894.3895
 905  859.6688
 906  867.8641
 907  955.6322
 908  1011.559
 909  1051.373
 910  990.2131
 911  954.1995
 912  938.4789
 913  1079.909
 914  1045.088
 915  1002.768
 916  983.3703
 917  1056.758
 918  1049.121
 919  1130.72
 920  1157.38
 921  1212.244
 922  1143.985
 923  1050.352
 924  883.6238
 925  808.4829
 926  926.2234
 927  981.1318
 928  905.0569
 929  821.7256
 930  884.5096
 931  982.2881
 932  949.4136
 933  896.4213
 934  885.891
 935  955.387
 936  1106.539
 937  1179.424
 938  1085.176
 939  948.506
 940  809.9127
 941  867.3348
 942  860.6182
 943  955.4831
 944  1107.879
 945  1232.046
 946  1227.378
 947  1113.382
 948  1114.832
 949  1267.942
 950  1291.494
 951  1131.224
 952  958.8943
 953  1001.925
 954  1052.572
 955  1059.943
 956  1025.302
 957  1092.367
 958  1103.083
 959  1043.496
 960  1045.103
 961  1063.046
 962  1085.995
 963  1083.714
 964  1082.024
 965  1235.429
 966  1234.878
 967  1187.698
 968  1096.37
 969  1002.607
 970  1030.854
 971  1028.458
 972  1064.42
 973  1100.838
 974  979.416
 975  870.3625
 976  807.7405
 977  962.8542
 978  1074.246
 979  1280.942
 980  1345.708
 981  1228.141
 982  1026.451
 983  1058.821
 984  1200.529
 985  1259.571
 986  1356.058
 987  1468.091
 988  1423.972
 989  1344.287
 990  1258.491
 991  1216.727
 992  1198.491
 993  1200.666
 994  1259.935
 995  1269.669
 996  1279.44
 997  1357.347
 998  1425.304
 999  1541.443
1000  1429.892
1001  1411.946
1002  1384.003
1003  1287.961
1004  1119.212
1005  1066.622
1006  1067.477
1007  1023.436
1008  1016.039
1009  1042.047
1010  1234.613
1011  1336.165
1012  1207.032
1013  1247.89
1014  1162.156
1015  1222.567
1016  1098.345
1017  1106.337
1018  1015.837
1019  865.512
1020  896.6812
1021  992.6299
1022  1153.262
1023  1169.63
