# Input file       =  1197407269.136531_cleaned.dat
# Candidate        =  PSR_0332+5434
# Telescope        =  AR
# Epoch_topo       =  58102.880649728366
# Epoch_bary       =  N/A
# T_sample         =  0.002
# Data Folded      =  7340032
# Data Avg         =  0.331038113212605
# Data StdDev      =  5.46858030137397 
# Profile Bins     =  512
# Profile Avg      =  4746.26104526454 
# Profile StdDev   =  654.769724153676 
# Reduced chi-sqr  =  0.456
# Prob(Noise)      <  1   (~0.0 sigma)
# P_topo (ms)      =  714.541016358362  +/- 0.000896
# P'_topo (s/s)    =  -0                +/- 4.73e-10
# P''_topo (s/s^2) =  0                 +/- 2.09e-13
# P_bary (ms)      =  N/A
# P'_bary (s/s)    =  N/A
# P''_bary (s/s^2) =  N/A
# P_orb (s)        =  N/A
# asin(i)/c (s)    =  N/A
# eccentricity     =  N/A
# w (rad)          =  N/A
# T_peri           =  N/A
######################################################
   0  4810.9
   1  4761.255
   2  4599.896
   3  5127.514
   4  5268.382
   5  4999.896
   6  4292.825
   7  4267.014
   8  3960.821
   9  4111.47
  10  4266.608
  11  4576.895
  12  4713.506
  13  4698.847
  14  4776.879
  15  4593.298
  16  4578.874
  17  4206.729
  18  4269.326
  19  4552.994
  20  4670.839
  21  5020.34
  22  5103.26
  23  4992.405
  24  4598.314
  25  4503.64
  26  4492.408
  27  4292.589
  28  4542.69
  29  4781.567
  30  4441.75
  31  4215.091
  32  4294.623
  33  4220.584
  34  4547.684
  35  4545.669
  36  4409.863
  37  4162.437
  38  3994.32
  39  4141.019
  40  4473.02
  41  4158.817
  42  4491.602
  43  4178.402
  44  4174.081
  45  4279.645
  46  4527.257
  47  4812.957
  48  4743.36
  49  4356.087
  50  4786.187
  51  4766.341
  52  4986.963
  53  5355.717
  54  5174.496
  55  4911.987
  56  4650.32
  57  4352.847
  58  4972.224
  59  4936.338
  60  4727.08
  61  4509.6
  62  4477.026
  63  4334.005
  64  4292.287
  65  4358.494
  66  4496.748
  67  4645.25
  68  4899.158
  69  4994.069
  70  4438.372
  71  4041.691
  72  4133.386
  73  4627.063
  74  4780.357
  75  4713.33
  76  5049.302
  77  4977.895
  78  4770.273
  79  4956.478
  80  4647.002
  81  4186.182
  82  4041.56
  83  4365.59
  84  4666.368
  85  4799.907
  86  4870.916
  87  4520.959
  88  4517.049
  89  4901.316
  90  5139.061
  91  5064.237
  92  5077.355
  93  4891.112
  94  4604.923
  95  4614.161
  96  4734.069
  97  4751.153
  98  4649.27
  99  4629.505
 100  4474.772
 101  4833.598
 102  4600.676
 103  4719.312
 104  4707.865
 105  4545.842
 106  4726.321
 107  4725.485
 108  4971.47
 109  5034.414
 110  4442.725
 111  4533.336
 112  4452.566
 113  4618.981
 114  5193.859
 115  5502.551
 116  5331.837
 117  4976.603
 118  4942.851
 119  4517.442
 120  4299.784
 121  4361.887
 122  5033.109
 123  5070.868
 124  4796.3
 125  4715.56
 126  4607.994
 127  4477.546
 128  4571.439
 129  5007.386
 130  4977.281
 131  4807.112
 132  4620.484
 133  4939.419
 134  4986.273
 135  5078.705
 136  4942.347
 137  5029.107
 138  4930.029
 139  4681.2
 140  4965.151
 141  4909.103
 142  4853.447
 143  4789.553
 144  4815.495
 145  4344.839
 146  4126.835
 147  4234.102
 148  4300.54
 149  4349.918
 150  5062.589
 151  5092.396
 152  4811.071
 153  4880.729
 154  4551.154
 155  4567.096
 156  4362.317
 157  4564.875
 158  4931.053
 159  4966.365
 160  5034.843
 161  5067.671
 162  4701.426
 163  4443.629
 164  4857.336
 165  5065.666
 166  5433.483
 167  5299.875
 168  4879.175
 169  4866.339
 170  5080.222
 171  5373.816
 172  5073.96
 173  4987.428
 174  4940.556
 175  5312.619
 176  5287.232
 177  5290.124
 178  4572.497
 179  5010.807
 180  5186.58
 181  4911.694
 182  4829.149
 183  5023.265
 184  5253.386
 185  5257.397
 186  5234.306
 187  5253.84
 188  4953.048
 189  5005.345
 190  5211.364
 191  5442.492
 192  5346.774
 193  5477.319
 194  5435.299
 195  5424.062
 196  5025.566
 197  4600.865
 198  4485.476
 199  4830.676
 200  5257.05
 201  5246.313
 202  4975.823
 203  5069.574
 204  4915.698
 205  4769.418
 206  4627.138
 207  4844.116
 208  5191.466
 209  5063.441
 210  4631.113
 211  4592.835
 212  4611.741
 213  4671.729
 214  4706.182
 215  4720.191
 216  4741.695
 217  4592.914
 218  4696.031
 219  4450.872
 220  4365.695
 221  4535.477
 222  4523.017
 223  4294.797
 224  4235.613
 225  4060.802
 226  4523.762
 227  4549.324
 228  4811.291
 229  4608.02
 230  4663.744
 231  4103.97
 232  4628.201
 233  4778.316
 234  4616.299
 235  4654.465
 236  5062.557
 237  5049.799
 238  4908.692
 239  4557.737
 240  4879.297
 241  5025.435
 242  5188.407
 243  4927.527
 244  4716.599
 245  4756.582
 246  4664.926
 247  4653.475
 248  4557.351
 249  4855.165
 250  4812.295
 251  4626.113
 252  4685.727
 253  4236.354
 254  4407.673
 255  4379.853
 256  4280
 257  4627.485
 258  4504.163
 259  4761.043
 260  4371.393
 261  4332.511
 262  4377.471
 263  4414.229
 264  4580.328
 265  5158.883
 266  4940.481
 267  5013.391
 268  4944.709
 269  5194.644
 270  5026.029
 271  5108.177
 272  5363.376
 273  5247.786
 274  5245.827
 275  4955.162
 276  4847.549
 277  4823.098
 278  4999.398
 279  5329.519
 280  5291.979
 281  4990.282
 282  5136.096
 283  5159.201
 284  5467.958
 285  5322.655
 286  5102.267
 287  5074.893
 288  4818.774
 289  5039.141
 290  5236.395
 291  5256.169
 292  4925.664
 293  4939.265
 294  5306.153
 295  4789.75
 296  4461.514
 297  4506.426
 298  5023.125
 299  5021.894
 300  5349.145
 301  5083.023
 302  4839.099
 303  4626.45
 304  4644.099
 305  4924.853
 306  5166.871
 307  5475.678
 308  5428.506
 309  5086.192
 310  5079.411
 311  5043.99
 312  5500.663
 313  5474.1
 314  5261.022
 315  5164.031
 316  4964.922
 317  4696.92
 318  4604.149
 319  4606.837
 320  4586.05
 321  4575.669
 322  4591.375
 323  5002.274
 324  4872.778
 325  4828.558
 326  4838.294
 327  4658.509
 328  4626.976
 329  4661.956
 330  4737.67
 331  4428.8
 332  4544.408
 333  4865.71
 334  4606.66
 335  4056.299
 336  4222.425
 337  4397.007
 338  4487.424
 339  4837.051
 340  4625.215
 341  4616.778
 342  4589.43
 343  4863.332
 344  4747.848
 345  4874.388
 346  4443.464
 347  4592.412
 348  4517.26
 349  4786.469
 350  4639.067
 351  4537.449
 352  4343.762
 353  4540.791
 354  4698.381
 355  4530.075
 356  4458.423
 357  4464.063
 358  4623.648
 359  4851.267
 360  4686.785
 361  4155.572
 362  4247.547
 363  4415.145
 364  4599.947
 365  4417.19
 366  4214.709
 367  4457.878
 368  4290.849
 369  4323.293
 370  4319.527
 371  4294.295
 372  4619.356
 373  5043.641
 374  5000.972
 375  4504.408
 376  4356.218
 377  4547.639
 378  4552.752
 379  4994.158
 380  5054.257
 381  4595.185
 382  4758.978
 383  4646.634
 384  4418.061
 385  4261.436
 386  4424.815
 387  4446.68
 388  4594.918
 389  4698.25
 390  4945.155
 391  4629.634
 392  5121.538
 393  4990.203
 394  4828.307
 395  4475.392
 396  4339.011
 397  4670.169
 398  4935.896
 399  4787.449
 400  4642.494
 401  5085.239
 402  5366.234
 403  4858.021
 404  4530.092
 405  4710.374
 406  4505.565
 407  4713.416
 408  4774.972
 409  4913.167
 410  5245.063
 411  4966.295
 412  5295.574
 413  5190.457
 414  5198.806
 415  5028.723
 416  4845.867
 417  4511.103
 418  4723.232
 419  4971.508
 420  5115.161
 421  5348.607
 422  4994.646
 423  4574.102
 424  4542.293
 425  4392.439
 426  4736.557
 427  4857.319
 428  4596.921
 429  4988.758
 430  4964.074
 431  5258.635
 432  5115.156
 433  4813.44
 434  4722.48
 435  4935.141
 436  4856.225
 437  4921.646
 438  4874.461
 439  4766.292
 440  4887.8
 441  5014.664
 442  5056.329
 443  4935.362
 444  5019.164
 445  5120.948
 446  4688.781
 447  4643.637
 448  4671.161
 449  4704.562
 450  4315.413
 451  4322.274
 452  4521.719
 453  4516.075
 454  4824.465
 455  4851.412
 456  4697.207
 457  4457.925
 458  4909.38
 459  4978.262
 460  4654.436
 461  4846.951
 462  4726.905
 463  5115.678
 464  4765.29
 465  4821.9
 466  4698.194
 467  4649.602
 468  4406.788
 469  4015.93
 470  4118.182
 471  4204.64
 472  4295.038
 473  4486.728
 474  4437.489
 475  4353.634
 476  4241.352
 477  4469.659
 478  4549.024
 479  4659.323
 480  4965.23
 481  4448.177
 482  4044.089
 483  4063.11
 484  4310.362
 485  4646.148
 486  4360.758
 487  4404.036
 488  4749.736
 489  4200.213
 490  4613.041
 491  4838.311
 492  4693.283
 493  4498.223
 494  4247.544
 495  4570.45
 496  4707.715
 497  5164.388
 498  4885.721
 499  5040.812
 500  4811.587
 501  4834.036
 502  4907.958
 503  4883.673
 504  4907.104
 505  4775.745
 506  5228.734
 507  5015.953
 508  4928.917
 509  4961.432
 510  4876.814
 511  4930.55
