# Input file       =  1197756875.120159_cleaned.dat
# Candidate        =  PSR_0332+5434
# Telescope        =  AR
# Epoch_topo       =  58106.927015279616
# Epoch_bary       =  N/A
# T_sample         =  0.002
# Data Folded      =  7340032
# Data Avg         =  0.0965767566293445
# Data StdDev      =  3.91739124053967 
# Profile Bins     =  1024
# Profile Avg      =  692.139358597875 
# Profile StdDev   =  331.662176339545 
# Reduced chi-sqr  =  0.580
# Prob(Noise)      <  1   (~0.0 sigma)
# P_topo (ms)      =  714.545107715723  +/- 0.00015
# P'_topo (s/s)    =  -0                +/- 7.91e-11
# P''_topo (s/s^2) =  0                 +/- 3.49e-14
# P_bary (ms)      =  N/A
# P'_bary (s/s)    =  N/A
# P''_bary (s/s^2) =  N/A
# P_orb (s)        =  N/A
# asin(i)/c (s)    =  N/A
# eccentricity     =  N/A
# w (rad)          =  N/A
# T_peri           =  N/A
######################################################
   0  526.7588
   1  588.2355
   2  553.9702
   3  581.46
   4  824.2703
   5  804.954
   6  766.5129
   7  669.6322
   8  769.0094
   9  838.7734
  10  822.9053
  11  853.5147
  12  880.8859
  13  823.6737
  14  857.5732
  15  918.1373
  16  789.2844
  17  581.0028
  18  681.0426
  19  860.3624
  20  856.9478
  21  566.3354
  22  406.1582
  23  357.205
  24  455.6685
  25  623.7444
  26  686.3054
  27  821.7623
  28  691.6968
  29  696.1744
  30  668.1986
  31  692.2169
  32  680.0428
  33  675.5774
  34  650.106
  35  547.8414
  36  546.8456
  37  577.7908
  38  548.8358
  39  605.4991
  40  776.7719
  41  764.4315
  42  615.8535
  43  519.2753
  44  628.0938
  45  726.4515
  46  663.3653
  47  625.2336
  48  733.2266
  49  660.8195
  50  565.4643
  51  527.1179
  52  591.3298
  53  607.6041
  54  507.5283
  55  567.1563
  56  687.4291
  57  772.7003
  58  841.348
  59  771.1493
  60  776.9094
  61  722.3494
  62  689.9645
  63  648.3167
  64  660.3293
  65  779.6357
  66  860.6106
  67  708.5664
  68  624.1832
  69  553.9443
  70  665.2234
  71  727.0746
  72  743.6488
  73  648.5382
  74  568.9626
  75  602.6784
  76  621.9169
  77  650.2025
  78  651.4014
  79  789.4983
  80  866.2937
  81  731.2613
  82  797.0479
  83  794.2686
  84  925.4623
  85  679.8015
  86  561.9565
  87  542.0668
  88  426.3324
  89  311.8819
  90  420.0033
  91  634.8627
  92  799.8987
  93  842.9798
  94  933.6805
  95  881.2318
  96  830.6892
  97  700.2106
  98  742.8059
  99  608.7252
 100  658.5906
 101  638.0225
 102  667.3189
 103  631.9498
 104  683.5222
 105  686.361
 106  737.1191
 107  706.4596
 108  696.0654
 109  695.9446
 110  824.4402
 111  994.0826
 112  1032.311
 113  896.2978
 114  867.1448
 115  880.8096
 116  942.9884
 117  856.5541
 118  743.7396
 119  630.1216
 120  599.0948
 121  538.7571
 122  686.649
 123  699.226
 124  593.4971
 125  584.756
 126  727.2888
 127  813.9502
 128  707.0868
 129  727.9051
 130  771.5052
 131  875.7081
 132  722.9842
 133  731.2032
 134  705.9919
 135  761.8513
 136  695.9081
 137  792.4605
 138  877.2785
 139  1025.008
 140  897.5329
 141  843.634
 142  608.7568
 143  498.4839
 144  513.3541
 145  521.3921
 146  546.7333
 147  582.3743
 148  588.7094
 149  641.4099
 150  644.1465
 151  772.2523
 152  924.9195
 153  864.957
 154  733.9277
 155  630.3245
 156  511.7828
 157  534.8132
 158  659.6401
 159  858.098
 160  882.8602
 161  760.022
 162  730.96
 163  645.5861
 164  749.8715
 165  814.4484
 166  906.483
 167  765.479
 168  832.7009
 169  765.6479
 170  779.6388
 171  756.1576
 172  694.6096
 173  762.1422
 174  856.5809
 175  998.1826
 176  999.7417
 177  956.2683
 178  995.6351
 179  1022.013
 180  1009.832
 181  904.3878
 182  779.0222
 183  741.9549
 184  823.7435
 185  803.8382
 186  637.7404
 187  532.4125
 188  581.0421
 189  725.1419
 190  849.9654
 191  866.3238
 192  945.2324
 193  840.1608
 194  812.8511
 195  743.6418
 196  830.147
 197  830.9901
 198  807.4016
 199  788.1766
 200  819.7474
 201  795.9922
 202  721.1629
 203  692.6809
 204  649.3997
 205  675.7325
 206  752.3802
 207  802.2964
 208  882.6051
 209  1052.072
 210  1106.722
 211  967.5191
 212  831.1696
 213  714.8003
 214  766.4725
 215  765.4937
 216  728.7523
 217  667.5155
 218  536.5687
 219  671.8124
 220  711.3859
 221  813.3976
 222  696.5085
 223  795.6028
 224  772.508
 225  786.7175
 226  709.6174
 227  655.6076
 228  624.0426
 229  554.7484
 230  689.321
 231  650.6641
 232  613.2156
 233  571.6465
 234  637.808
 235  661.4526
 236  725.408
 237  773.7958
 238  896.954
 239  853.668
 240  821.4071
 241  883.5469
 242  817.8608
 243  738.8674
 244  570.8252
 245  633.9147
 246  684.8973
 247  614.8331
 248  586.0508
 249  647.079
 250  675.8955
 251  654.2759
 252  605.0618
 253  588.0864
 254  574.7488
 255  446.2971
 256  597.3775
 257  644.5673
 258  555.0198
 259  487.0699
 260  470.9745
 261  580.1752
 262  573.4857
 263  660.152
 264  657.0138
 265  657.0048
 266  604.4675
 267  729.3314
 268  885.2501
 269  835.4742
 270  793.7932
 271  732.06
 272  605.7872
 273  608.6619
 274  684.3142
 275  702.0834
 276  701.2583
 277  666.1233
 278  754.59
 279  754.6438
 280  734.1245
 281  743.3001
 282  777.8781
 283  787.4873
 284  792.2
 285  853.5991
 286  762.686
 287  645.2684
 288  428.1599
 289  404.1981
 290  458.7025
 291  554.6043
 292  663.6387
 293  646.3179
 294  688.6177
 295  704.0402
 296  868.1679
 297  932.5902
 298  881.3207
 299  610.3318
 300  602.7534
 301  732.883
 302  905.291
 303  882.2736
 304  691.674
 305  717.1664
 306  694.003
 307  666.7094
 308  584.9127
 309  726.0977
 310  802.6562
 311  816.4544
 312  693.2067
 313  732.3138
 314  701.2192
 315  670.0922
 316  685.3541
 317  625.1458
 318  578.0406
 319  685.1198
 320  671.2813
 321  566.9009
 322  485.0557
 323  557.8568
 324  660.6937
 325  593.6788
 326  668.2915
 327  820.703
 328  758.6699
 329  696.9661
 330  704.7791
 331  771.2142
 332  805.4642
 333  715.7671
 334  726.2083
 335  712.3278
 336  591.3409
 337  603.6506
 338  589.1799
 339  642.2007
 340  622.5496
 341  646.947
 342  757.9026
 343  740.4045
 344  778.8582
 345  887.9081
 346  960.7308
 347  779.7791
 348  703.1711
 349  565.0299
 350  454.7425
 351  514.415
 352  648.7619
 353  775.0989
 354  657.2036
 355  738.5582
 356  823.3413
 357  860.0164
 358  851.8903
 359  797.5833
 360  681.7762
 361  550.7586
 362  583.8474
 363  657.6494
 364  565.4259
 365  455.4519
 366  413.7713
 367  531.0955
 368  627.8002
 369  751.4774
 370  806.0264
 371  779.0221
 372  659.4242
 373  577.9341
 374  586.0418
 375  692.7371
 376  664.09
 377  673.71
 378  643.2688
 379  702.8091
 380  656.1595
 381  571.9511
 382  511.9387
 383  645.9985
 384  824.4411
 385  807.0904
 386  694.3854
 387  611.7173
 388  670.5683
 389  628.967
 390  673.9188
 391  702.1188
 392  670.858
 393  543.2412
 394  566.6743
 395  663.0133
 396  802.2869
 397  911.705
 398  935.0305
 399  905.2101
 400  743.1753
 401  545.568
 402  474.8852
 403  521.861
 404  649.5899
 405  795.84
 406  742.959
 407  613.0301
 408  594.619
 409  675.9134
 410  858.2316
 411  824.7631
 412  880.224
 413  821.1808
 414  754.2971
 415  746.6432
 416  791.975
 417  856.9723
 418  829.8522
 419  752.4349
 420  679.4635
 421  729.7429
 422  643.961
 423  693.2255
 424  760.6174
 425  858.638
 426  900.0252
 427  884.485
 428  947.2637
 429  921.159
 430  948.8311
 431  927.3174
 432  782.6185
 433  643.8807
 434  670.426
 435  769.1376
 436  779.3975
 437  748.3351
 438  899.8032
 439  940.8807
 440  825.5918
 441  706.9846
 442  824.4517
 443  868.07
 444  678.9669
 445  683.0945
 446  675.7647
 447  600.2259
 448  552.0936
 449  641.7308
 450  776.8873
 451  642.1262
 452  682.0118
 453  702.1762
 454  780.5335
 455  858.2864
 456  889.0454
 457  787.8871
 458  646.6811
 459  707.5813
 460  768.7508
 461  751.1517
 462  699.2007
 463  713.7328
 464  746.8765
 465  709.4974
 466  663.8899
 467  720.6225
 468  685.9255
 469  756.5164
 470  855.5306
 471  744.4518
 472  600.2368
 473  569.436
 474  708.1178
 475  758.6655
 476  648.2125
 477  646.3268
 478  649.8446
 479  636.1205
 480  660.6773
 481  685.6682
 482  655.4073
 483  646.6073
 484  718.321
 485  876.9924
 486  830.2772
 487  769.127
 488  745.7253
 489  686.0488
 490  681.9085
 491  886.6285
 492  950.5776
 493  860.2745
 494  742.2899
 495  911.3322
 496  1041.958
 497  838.3121
 498  612.2346
 499  498.2883
 500  441.9486
 501  544.4896
 502  720.54
 503  828.8698
 504  736.7585
 505  713.8191
 506  781.5432
 507  801.4811
 508  603.2924
 509  590.6528
 510  610.8801
 511  661.0895
 512  729.7731
 513  790.6145
 514  779.2856
 515  594.7021
 516  513.164
 517  696.7908
 518  728.797
 519  825.8766
 520  915.2218
 521  934.2057
 522  802.7334
 523  670.4091
 524  677.5831
 525  658.3965
 526  689.9326
 527  633.2458
 528  663.9263
 529  759.44
 530  879.2213
 531  930.675
 532  785.9252
 533  687.6691
 534  666.5252
 535  726.2547
 536  720.3548
 537  593.868
 538  524.5024
 539  513.6016
 540  350.2838
 541  381.6211
 542  516.5914
 543  579.983
 544  677.0612
 545  695.4767
 546  786.1448
 547  708.0051
 548  801.325
 549  950.3673
 550  933.1742
 551  805.8514
 552  663.1577
 553  724.5447
 554  695.8336
 555  767.6338
 556  764.1681
 557  789.7314
 558  730.2401
 559  679.2231
 560  682.3787
 561  668.2895
 562  625.8359
 563  588.2861
 564  577.7578
 565  587.4951
 566  598.0806
 567  600.5084
 568  595.4173
 569  589.4531
 570  700.936
 571  727.4388
 572  744.1169
 573  662.6905
 574  749.6036
 575  654.0003
 576  564.8678
 577  508.9255
 578  549.556
 579  649.5514
 580  691.312
 581  688.1215
 582  598.8224
 583  557.342
 584  640.45
 585  679.8705
 586  671.5856
 587  679.0377
 588  761.668
 589  867.3406
 590  814.2438
 591  783.6108
 592  708.2121
 593  754.9848
 594  603.9196
 595  607.5715
 596  539.3842
 597  548.6563
 598  561.8309
 599  679.8807
 600  732.4511
 601  861.3372
 602  754.461
 603  777.6588
 604  654.2506
 605  608.3424
 606  664.5045
 607  667.2913
 608  636.6953
 609  598.7531
 610  798.4364
 611  884.6711
 612  922.711
 613  955.7377
 614  1062.577
 615  1020.724
 616  946.9247
 617  1023.525
 618  1094.494
 619  1137.92
 620  1088.418
 621  1099.11
 622  1087.011
 623  1077.569
 624  1093.71
 625  1072.646
 626  1049.125
 627  950.605
 628  1016.351
 629  900.5579
 630  910.5483
 631  892.5054
 632  966.8692
 633  915.9418
 634  821.6472
 635  715.6118
 636  735.0486
 637  683.6323
 638  806.051
 639  832.1473
 640  820.0602
 641  720.9347
 642  727.0487
 643  758.7021
 644  741.3644
 645  785.4566
 646  828.7303
 647  936.0812
 648  763.2086
 649  719.8146
 650  645.6451
 651  658.4607
 652  655.4066
 653  594.2158
 654  579.3466
 655  633.5201
 656  764.2256
 657  836.9292
 658  795.9601
 659  685.1461
 660  768.007
 661  776.6376
 662  769.7934
 663  656.1482
 664  555.7836
 665  523.8947
 666  615.7914
 667  642.5956
 668  675.7024
 669  517.3196
 670  495.7744
 671  474.2446
 672  549.892
 673  719.8394
 674  799.2814
 675  861.9875
 676  880.0952
 677  862.2765
 678  800.3471
 679  788.1061
 680  772.5909
 681  750.0341
 682  757.4456
 683  734.6006
 684  703.8802
 685  597.7193
 686  550.3174
 687  712.382
 688  741.6254
 689  729.1863
 690  661.0321
 691  728.0522
 692  805.3815
 693  814.6411
 694  746.4996
 695  680.147
 696  758.3983
 697  743.9901
 698  743.7283
 699  550.1556
 700  539.9832
 701  544.8321
 702  700.4327
 703  820.4069
 704  911.9963
 705  742.4771
 706  659.423
 707  600.7457
 708  669.29
 709  561.4186
 710  549.4134
 711  548.2693
 712  512.2104
 713  465.7485
 714  517.6859
 715  459.6624
 716  470.6451
 717  597.7417
 718  773.1375
 719  911.893
 720  907.8068
 721  937.5276
 722  690.1812
 723  526.0891
 724  445.788
 725  571.7755
 726  559.0396
 727  666.2831
 728  613.5912
 729  642.0049
 730  528.1947
 731  625.4996
 732  624.9124
 733  568.4339
 734  538.9504
 735  664.4261
 736  799.4249
 737  600.1307
 738  489.8235
 739  386.4088
 740  514.8484
 741  625.7308
 742  647.0599
 743  682.865
 744  514.1578
 745  513.2965
 746  572.8463
 747  693.837
 748  610.3789
 749  516.3307
 750  469.3443
 751  479.2922
 752  377.3936
 753  285.8049
 754  405.8449
 755  522.5411
 756  600.66
 757  582.9575
 758  473.9196
 759  437.0018
 760  469.3843
 761  530.5311
 762  540.1744
 763  673.5798
 764  663.2459
 765  563.4221
 766  421.2937
 767  375.2481
 768  504.0411
 769  527.009
 770  521.0187
 771  471.1104
 772  332.4584
 773  371.4143
 774  370.9849
 775  637.5315
 776  605.7354
 777  628.9975
 778  731.2133
 779  803.0391
 780  815.3919
 781  683.7065
 782  602.4985
 783  498.0892
 784  526.0474
 785  461.5108
 786  585.5046
 787  644.1514
 788  769.6974
 789  793.1812
 790  823.1094
 791  751.2518
 792  724.7378
 793  564.9194
 794  444.6285
 795  400.552
 796  447.9685
 797  374.9577
 798  382.6719
 799  449.6381
 800  593.0122
 801  522.3842
 802  414.4015
 803  436.5519
 804  516.9511
 805  711.5806
 806  757.0585
 807  690.3304
 808  552.6509
 809  575.0765
 810  603.1168
 811  539.1754
 812  521.1104
 813  511.7433
 814  637.9858
 815  652.6337
 816  633.1393
 817  603.8499
 818  574.0088
 819  655.4438
 820  621.6688
 821  656.9669
 822  666.3064
 823  634.9839
 824  701.8745
 825  705.2588
 826  718.0165
 827  671.1603
 828  590.5763
 829  541.6757
 830  454.8968
 831  537.6572
 832  512.381
 833  531.0359
 834  497.8152
 835  462.9948
 836  472.9551
 837  500.65
 838  691.3704
 839  742.4135
 840  789.3024
 841  966.9448
 842  1015.514
 843  998.8917
 844  775.7006
 845  715.2341
 846  746.8563
 847  749.5984
 848  618.3264
 849  524.5279
 850  501.6827
 851  505.2881
 852  493.3008
 853  634.2652
 854  670.9629
 855  521.0781
 856  375.0052
 857  279.8365
 858  425.5739
 859  526.3041
 860  620.1043
 861  665.3372
 862  736.6932
 863  747.537
 864  851.5981
 865  766.4657
 866  750.2015
 867  708.291
 868  822.4005
 869  918.8959
 870  839.9135
 871  786.231
 872  749.9778
 873  718.7149
 874  605.6048
 875  547.5042
 876  492.8673
 877  452.9091
 878  536.1562
 879  562.5407
 880  577.3109
 881  515.3979
 882  636.6109
 883  739.7902
 884  856.4806
 885  831.7676
 886  813.3818
 887  727.7211
 888  653.5772
 889  639.6619
 890  579.0156
 891  578.5026
 892  535.73
 893  484.5165
 894  452.0182
 895  419.5995
 896  540.9802
 897  537.4189
 898  598.0355
 899  635.4701
 900  691.8093
 901  656.811
 902  514.4153
 903  459.2781
 904  420.6594
 905  497.0467
 906  565.1772
 907  652.2936
 908  754.2958
 909  701.956
 910  699.5654
 911  723.8642
 912  812.087
 913  802.8632
 914  734.2768
 915  610.7121
 916  546.2534
 917  569.2571
 918  712.7869
 919  685.4777
 920  622.0607
 921  674.7796
 922  753.4407
 923  796.951
 924  728.6931
 925  609.4646
 926  694.8002
 927  610.9711
 928  604.6005
 929  496.5698
 930  453.4044
 931  558.2846
 932  673.6006
 933  722.3771
 934  755.2936
 935  691.7242
 936  678.8912
 937  632.989
 938  620.3998
 939  600.3798
 940  490.9686
 941  424.8575
 942  578.5619
 943  741.6855
 944  802.8854
 945  784.3389
 946  810.7654
 947  812.5229
 948  748.3892
 949  735.7048
 950  776.7073
 951  822.1353
 952  822.9819
 953  794.0099
 954  670.8659
 955  742.5239
 956  814.5025
 957  677.4788
 958  641.8888
 959  656.9476
 960  822.5469
 961  795.7549
 962  722.466
 963  717.2751
 964  628.5483
 965  493.5516
 966  435.2882
 967  563.2335
 968  695.7642
 969  683.3954
 970  665.8883
 971  714.1404
 972  901.0375
 973  882.6144
 974  833.2105
 975  749.7412
 976  819.4573
 977  979.9639
 978  1019.759
 979  1015.188
 980  834.5904
 981  726.7917
 982  750.949
 983  794.5196
 984  857.2562
 985  951.3869
 986  969.8226
 987  944.1252
 988  816.0075
 989  771.0791
 990  589.8144
 991  515.2882
 992  423.8917
 993  558.4449
 994  527.8708
 995  530.857
 996  595.8104
 997  746.128
 998  770.5139
 999  716.882
1000  668.4341
1001  748.3936
1002  693.4191
1003  686.4598
1004  621.4719
1005  591.7823
1006  578.4629
1007  545.7933
1008  461.1836
1009  406.9216
1010  510.0324
1011  606.1872
1012  608.6558
1013  520.8416
1014  530.4191
1015  619.479
1016  597.4624
1017  585.0485
1018  610.5588
1019  624.3656
1020  674.1143
1021  726.588
1022  624.831
1023  602.0505
