# Input file       =  1197828070.101624_cleaned.dat
# Candidate        =  PSR_0332+5434
# Telescope        =  AR
# Epoch_topo       =  58107.751031268795
# Epoch_bary       =  N/A
# T_sample         =  0.002
# Data Folded      =  7340032
# Data Avg         =  0.121144001245349
# Data StdDev      =  3.58545024017168 
# Profile Bins     =  512
# Profile Avg      =  1736.86229017869 
# Profile StdDev   =  429.296844033561 
# Reduced chi-sqr  =  0.707
# Prob(Noise)      <  1   (~0.0 sigma)
# P_topo (ms)      =  714.545566187411  +/- 0.000107
# P'_topo (s/s)    =  -0                +/- 5.66e-11
# P''_topo (s/s^2) =  0                 +/- 2.5e-14
# P_bary (ms)      =  N/A
# P'_bary (s/s)    =  N/A
# P''_bary (s/s^2) =  N/A
# P_orb (s)        =  N/A
# asin(i)/c (s)    =  N/A
# eccentricity     =  N/A
# w (rad)          =  N/A
# T_peri           =  N/A
######################################################
   0  1930.817
   1  1897.59
   2  1582.94
   3  1658.582
   4  1976.898
   5  1944.153
   6  1642.257
   7  1694.131
   8  1499.546
   9  1500.764
  10  1539.557
  11  1613.055
  12  1592.081
  13  1564.701
  14  1576.666
  15  1749.728
  16  1947.664
  17  1752.112
  18  1260.135
  19  1368.489
  20  1543.365
  21  1623.504
  22  1372.255
  23  1402.256
  24  1706.613
  25  1730.307
  26  1387.378
  27  1088.701
  28  1302.31
  29  1771.086
  30  2085.409
  31  2170.252
  32  1861.87
  33  1526.652
  34  1664.283
  35  1919.713
  36  2081.878
  37  2031.177
  38  2163.411
  39  1740.984
  40  1638.694
  41  1703.892
  42  1954.574
  43  1894.223
  44  1822.044
  45  1797.456
  46  1836.447
  47  1629.836
  48  1643.796
  49  1421.233
  50  1468.72
  51  1417.603
  52  1786.542
  53  2136.793
  54  1897.079
  55  1699.982
  56  1751.564
  57  1271.35
  58  1403.451
  59  1754.905
  60  2150.654
  61  1838.631
  62  1760.513
  63  1738.452
  64  1836.558
  65  1737.977
  66  1720.832
  67  1699.839
  68  1548.42
  69  1373.434
  70  1345.792
  71  1458.558
  72  1519.469
  73  1200.197
  74  1267.365
  75  1532.718
  76  1188.335
  77  1060.848
  78  1315.607
  79  1362.194
  80  1414.933
  81  1609.6
  82  1475.307
  83  1392.685
  84  1559.418
  85  1802.048
  86  1694.276
  87  1700.556
  88  1863.993
  89  2010.798
  90  1739.915
  91  1420.052
  92  1497.426
  93  1708.202
  94  1802.759
  95  2040.404
  96  1804.059
  97  1615.476
  98  1358.003
  99  1425.88
 100  1344.382
 101  1441.283
 102  1320.256
 103  1458.94
 104  1346.885
 105  1321.502
 106  1238.314
 107  1196.086
 108  1412.266
 109  1596.617
 110  1996.254
 111  2183.435
 112  2064.308
 113  1542.601
 114  1143.715
 115  1210.074
 116  1426.426
 117  1525.468
 118  1712.877
 119  1971.836
 120  1629.579
 121  1774.733
 122  1799.304
 123  1545.223
 124  1577.487
 125  1718.001
 126  1808.397
 127  1600.433
 128  1584.847
 129  1699.511
 130  1756.582
 131  1409.8
 132  1498.053
 133  1605.389
 134  1635.649
 135  1549.838
 136  1735.086
 137  1528.672
 138  1303.668
 139  1519.706
 140  1794.961
 141  1954.959
 142  2151.375
 143  1877.27
 144  1750.362
 145  1441.332
 146  1446.651
 147  1508.105
 148  1713.803
 149  1643.389
 150  1576.943
 151  1723.775
 152  1546.483
 153  1500.258
 154  1571.576
 155  1210.697
 156  1157.029
 157  1088.958
 158  1144.184
 159  1537.066
 160  1647.449
 161  1519.724
 162  1353.913
 163  1364.724
 164  1491.459
 165  1414.447
 166  1662.03
 167  1918.518
 168  1808.492
 169  1677.86
 170  1485.105
 171  1603.757
 172  1735.204
 173  1707.613
 174  1928.228
 175  1797.997
 176  1707.16
 177  1407.79
 178  1372.06
 179  1758.965
 180  2005.318
 181  2260.703
 182  2064.506
 183  2242.372
 184  1794.134
 185  1370.502
 186  1354.91
 187  1285.253
 188  1668.87
 189  1870.525
 190  2072.406
 191  2051.151
 192  1856.821
 193  1920.882
 194  1653.341
 195  1900.458
 196  2106.387
 197  1885.936
 198  1832.478
 199  1666.088
 200  1555.288
 201  1869.118
 202  1953.875
 203  1532.802
 204  1663.13
 205  1841.37
 206  1784.663
 207  1628.697
 208  1430.07
 209  1485.775
 210  1595.326
 211  1823.383
 212  1915.031
 213  1692.771
 214  1227.385
 215  1422.549
 216  1862.881
 217  1901.012
 218  1726.802
 219  1537.222
 220  1465.553
 221  1471.273
 222  1624.108
 223  1663.712
 224  1480.362
 225  1382.141
 226  1834.079
 227  1959.792
 228  1612.408
 229  1396.979
 230  1492.118
 231  1742.713
 232  1837.366
 233  1665.244
 234  1665.669
 235  1389.997
 236  1703.098
 237  1702.202
 238  1620.446
 239  1836.6
 240  1801.927
 241  2092.23
 242  1594.721
 243  1393.187
 244  1613.927
 245  1870.409
 246  2302.221
 247  1946.14
 248  1865.336
 249  1879.88
 250  1651.259
 251  1655.912
 252  1924.19
 253  1943.19
 254  1730.666
 255  1544.871
 256  1580.193
 257  1765.976
 258  1971.452
 259  1985.037
 260  1802.236
 261  1623.855
 262  1684.445
 263  1659.116
 264  1630.032
 265  1442.799
 266  1564.331
 267  1809.786
 268  1463.745
 269  1650.183
 270  1733.311
 271  1736.587
 272  1550.02
 273  1579.766
 274  1606.908
 275  1723.722
 276  1814.451
 277  1725.931
 278  1708.987
 279  1671.979
 280  1665.635
 281  1715.577
 282  1944.755
 283  2099.368
 284  1902.037
 285  1784.595
 286  1791.999
 287  1554.794
 288  1560.843
 289  1499.951
 290  1549.968
 291  1754.717
 292  1870.455
 293  1954.62
 294  1329.642
 295  1351.502
 296  1778.207
 297  1438.534
 298  1639.297
 299  2084.677
 300  1954.077
 301  1593.821
 302  1795.665
 303  1893.518
 304  1986.77
 305  1887.476
 306  1770.113
 307  2063.057
 308  2056.016
 309  2451.582
 310  2423.349
 311  2502.614
 312  2995.512
 313  2769.775
 314  2730.942
 315  1998.617
 316  1842.755
 317  1865.753
 318  1891.009
 319  1715.036
 320  1992.853
 321  1867.679
 322  1625.479
 323  1697.207
 324  2068.097
 325  1978.119
 326  1712.835
 327  1750.752
 328  1922.464
 329  1596.222
 330  1435.772
 331  1927.176
 332  1847.795
 333  2015.926
 334  2263.128
 335  2334.52
 336  1937.835
 337  1621.281
 338  1874.185
 339  1985.519
 340  2093.383
 341  1887.802
 342  1957.678
 343  2101.002
 344  1819.293
 345  1680.18
 346  1830.467
 347  1738.037
 348  1775.845
 349  1970.688
 350  1798.43
 351  1708.855
 352  1831.566
 353  1819.693
 354  1651.687
 355  1761.318
 356  1639.265
 357  1612.573
 358  1743.109
 359  1987.024
 360  2078.112
 361  2081.236
 362  1966.1
 363  1794.265
 364  1635.935
 365  1806.003
 366  1823.846
 367  1672.445
 368  1719.255
 369  1561.66
 370  1888.651
 371  2047.559
 372  1792.681
 373  1924.123
 374  2105.903
 375  2054.739
 376  1759.636
 377  1991.394
 378  2006.887
 379  1543.658
 380  1856.028
 381  1700.382
 382  1891.181
 383  1621.72
 384  1602.427
 385  1218.678
 386  1299.07
 387  1300.017
 388  1546.724
 389  1881.418
 390  1667.268
 391  1668.464
 392  1634.508
 393  1581.216
 394  1543.817
 395  1963.28
 396  2031.114
 397  1890.925
 398  2012.21
 399  1587.062
 400  1716.56
 401  1837.69
 402  2062.421
 403  2096.765
 404  2261.325
 405  2168.742
 406  2157.869
 407  2164.087
 408  1942.22
 409  1910.383
 410  2034.825
 411  2136.395
 412  2140.748
 413  2144.077
 414  1930.331
 415  1469.269
 416  1708.3
 417  1989.33
 418  1705.499
 419  1671.472
 420  1784.654
 421  1775.435
 422  1604.31
 423  1454.372
 424  1359.149
 425  1701.435
 426  2053.846
 427  1614.881
 428  1539.394
 429  1778.603
 430  1473.464
 431  1575.494
 432  1657.426
 433  1594.944
 434  1794.36
 435  1855.417
 436  2049.898
 437  1614.569
 438  1630.942
 439  1663.56
 440  1680.611
 441  1767.635
 442  1877.616
 443  1935.615
 444  2026.839
 445  1484.16
 446  1885.505
 447  1947.734
 448  1966.89
 449  1914.9
 450  2029.897
 451  2082.406
 452  1623.561
 453  1700.953
 454  2058.092
 455  2176.987
 456  2337.116
 457  1978.468
 458  2001.301
 459  1872.688
 460  1877.779
 461  2130.954
 462  1875.497
 463  1686.247
 464  1946.378
 465  1791.325
 466  1545.183
 467  1500.34
 468  1346.823
 469  1656.868
 470  1757.661
 471  1804.804
 472  2230.59
 473  1850.601
 474  1912.728
 475  1904.126
 476  1713.001
 477  1941.799
 478  2143.297
 479  2092.091
 480  2369.247
 481  2149.711
 482  2163.8
 483  2129.953
 484  1975.679
 485  1813.175
 486  1863.552
 487  1576.332
 488  1752.619
 489  1702.795
 490  1991.78
 491  2035.098
 492  2043.29
 493  1877.235
 494  1563.3
 495  1650.61
 496  1483.54
 497  1639.272
 498  1483.695
 499  1584.414
 500  1853.073
 501  1679.871
 502  1617.055
 503  1375.547
 504  1274.961
 505  1611.174
 506  1985.569
 507  1690.598
 508  1683.415
 509  1863.752
 510  1695.477
 511  1563.656
