# Input file       =  1197828070.101624_cleaned.dat
# Candidate        =  PSR_0332+5434
# Telescope        =  AR
# Epoch_topo       =  58107.751031268795
# Epoch_bary       =  N/A
# T_sample         =  0.002
# Data Folded      =  7340032
# Data Avg         =  0.121144001245349
# Data StdDev      =  3.58545024017168 
# Profile Bins     =  1024
# Profile Avg      =  868.431145089347 
# Profile StdDev   =  303.558709558115 
# Reduced chi-sqr  =  0.655
# Prob(Noise)      <  1   (~0.0 sigma)
# P_topo (ms)      =  714.545566187411  +/- 0.000105
# P'_topo (s/s)    =  -0                +/- 5.53e-11
# P''_topo (s/s^2) =  0                 +/- 2.44e-14
# P_bary (ms)      =  N/A
# P'_bary (s/s)    =  N/A
# P''_bary (s/s^2) =  N/A
# P_orb (s)        =  N/A
# asin(i)/c (s)    =  N/A
# eccentricity     =  N/A
# w (rad)          =  N/A
# T_peri           =  N/A
######################################################
   0  946.8338
   1  953.0694
   2  919.1417
   3  701.1196
   4  769.2062
   5  863.9873
   6  923.9744
   7  1036.014
   8  1003.701
   9  954.6133
  10  847.7144
  11  807.0261
  12  859.7924
  13  843.7939
  14  760.6493
  15  748.1454
  16  704.3178
  17  769.4835
  18  764.3622
  19  775.3232
  20  844.9156
  21  781.2416
  22  785.8704
  23  804.0084
  24  796.4785
  25  773.2089
  26  778.1418
  27  780.623
  28  862.7559
  29  894.3529
  30  933.1406
  31  1000.377
  32  904.9783
  33  867.7809
  34  659.7741
  35  625.7971
  36  644.3563
  37  706.4412
  38  776.7363
  39  765.332
  40  788.8387
  41  834.9484
  42  731.4573
  43  641.5735
  44  672.2206
  45  727.4782
  46  854.7521
  47  835.2056
  48  873.1353
  49  873.8367
  50  748.2474
  51  661.7379
  52  541.8254
  53  555.1458
  54  621.9574
  55  650.3331
  56  820.2209
  57  913.1366
  58  1015.335
  59  1059.901
  60  1071.972
  61  1096.739
  62  1035.129
  63  877.6329
  64  779.1755
  65  753.0155
  66  769.9234
  67  861.9866
  68  939.3302
  69  959.2766
  70  1073.107
  71  1024.129
  72  1041.302
  73  988.9379
  74  1046.747
  75  1117.404
  76  919.1631
  77  841.9346
  78  800.5131
  79  825.0574
  80  898.9714
  81  798.4737
  82  976.5444
  83  978.6375
  84  945.3548
  85  949.9922
  86  948.2011
  87  887.5006
  88  895.2812
  89  896.9675
  90  948.3773
  91  901.8961
  92  806.5278
  93  817.2428
  94  843.8654
  95  811.9243
  96  732.0567
  97  694.6678
  98  759.1588
  99  722.7622
 100  656.0312
 101  748.4664
 102  794.3521
 103  948.588
 104  1027.635
 105  1100.448
 106  1062.499
 107  884.0077
 108  809.4803
 109  871.7
 110  903.675
 111  858.3797
 112  713.7988
 113  582.1035
 114  657.0219
 115  738.5775
 116  799.3438
 117  909.8236
 118  1029.772
 119  1117.759
 120  957.9653
 121  898.2625
 122  889.0694
 123  871.219
 124  891.9319
 125  848.8282
 126  904.0104
 127  933.2675
 128  878.5984
 129  852.0156
 130  905.4106
 131  827.3126
 132  891.364
 133  810.5984
 134  818.4167
 135  741.5836
 136  705.2842
 137  679.5311
 138  667.8702
 139  673.3566
 140  737.2844
 141  720.1747
 142  790.5504
 143  729.7452
 144  632.8527
 145  587.4772
 146  585.3654
 147  659.8431
 148  793.3976
 149  743.9294
 150  685.1631
 151  536.0924
 152  462.335
 153  583.009
 154  596.1812
 155  694.2392
 156  724.0496
 157  659.843
 158  673.9979
 159  711.9977
 160  809.3345
 161  811.0974
 162  704.0123
 163  768.8001
 164  704.7863
 165  696.0181
 166  747.2498
 167  790.1913
 168  857.932
 169  938.944
 170  813.1774
 171  885.5877
 172  834.9891
 173  861.3632
 174  906.3776
 175  936.4307
 176  1013.817
 177  999.7498
 178  901.8441
 179  868.0464
 180  758.3135
 181  673.6918
 182  733.0897
 183  745.9677
 184  885.0384
 185  826.8895
 186  844.7651
 187  934.1532
 188  1005.759
 189  1025.146
 190  956.5313
 191  877.3679
 192  850.1145
 193  785.4549
 194  676.2849
 195  684.3318
 196  691.3665
 197  731.4284
 198  634.0385
 199  698.8854
 200  785.2307
 201  678.4575
 202  655.0767
 203  656.2742
 204  740.7672
 205  722.3307
 206  651.5786
 207  681.6465
 208  705.3358
 209  630.0954
 210  667.3001
 211  586.1913
 212  598.1623
 213  594.4869
 214  686.0458
 215  698.9829
 216  755.9956
 217  825.9332
 218  967.4948
 219  1003.346
 220  1043.186
 221  1117.431
 222  1102.44
 223  1007.094
 224  842.7969
 225  739.177
 226  630.0372
 227  543.2074
 228  532.9061
 229  649.2961
 230  630.4969
 231  764.8251
 232  771.8722
 233  757.1837
 234  780.5907
 235  896.1353
 236  1041.24
 237  951.1625
 238  810.6835
 239  829.6077
 240  837.4981
 241  915.901
 242  927.373
 243  877.9105
 244  860.5698
 245  709.1442
 246  704.602
 247  856.5551
 248  817.952
 249  889.8644
 250  888.7075
 251  924.7737
 252  848.2031
 253  764.5083
 254  802.0689
 255  793.4467
 256  781.3573
 257  888.0692
 258  928.2441
 259  844.201
 260  818.5132
 261  619.3518
 262  707.166
 263  765.5678
 264  781.2422
 265  830.8987
 266  758.1313
 267  872.6026
 268  794.2676
 269  762.9342
 270  841.0656
 271  880.7921
 272  793.9861
 273  768.88
 274  636.4673
 275  657.025
 276  721.8365
 277  783.6724
 278  903.5311
 279  878.6319
 280  957.2011
 281  982.9081
 282  1056.68
 283  1075.344
 284  980.2683
 285  918.5471
 286  932.8813
 287  845.3236
 288  736.1223
 289  719.3105
 290  712.6024
 291  729.0161
 292  706.8686
 293  771.9625
 294  893.8969
 295  832.1225
 296  834.768
 297  805.69
 298  790.19
 299  790.0215
 300  813.0906
 301  902.0939
 302  824.7054
 303  755.1034
 304  717.9189
 305  763.1682
 306  787.3748
 307  803.1874
 308  642.6929
 309  584.4321
 310  553.2339
 311  595.5834
 312  581.6011
 313  518.3868
 314  516.3537
 315  607.5474
 316  679.5854
 317  829.7343
 318  835.4078
 319  820.0834
 320  794.5615
 321  741.5986
 322  701.0296
 323  656.4166
 324  620.9147
 325  736.6791
 326  708.7202
 327  763.036
 328  745.6363
 329  682.2736
 330  799.7696
 331  835.928
 332  952.46
 333  969.8285
 334  893.1695
 335  916.5234
 336  878.2701
 337  806.2708
 338  816.1663
 339  689.4468
 340  730.3693
 341  849.9548
 342  904.9084
 343  842.2202
 344  828.5838
 345  855.3243
 346  1011.334
 347  926.8041
 348  936.5095
 349  869.0123
 350  813.2888
 351  885.0831
 352  792.3755
 353  648.7706
 354  632.777
 355  712.4763
 356  907.6777
 357  850.2854
 358  924.6491
 359  1043.531
 360  1160.934
 361  1105.373
 362  1059.69
 363  1009.394
 364  1128.045
 365  1123.035
 366  987.3591
 367  853.1755
 368  673.7829
 369  691.3869
 370  688.9684
 371  676.4144
 372  602.9709
 373  668.3562
 374  785.2962
 375  870.5087
 376  846.6879
 377  1000.109
 378  984.8235
 379  1067.149
 380  1078.534
 381  1001.264
 382  905.866
 383  940.6623
 384  981.2922
 385  957.146
 386  795.3323
 387  841.1697
 388  875.033
 389  1020.272
 390  1069.458
 391  1041.188
 392  959.2584
 393  942.7516
 394  895.7528
 395  928.7999
 396  833.31
 397  844.0161
 398  819.0745
 399  750.605
 400  825.0654
 401  999.0248
 402  1024.152
 403  957.8284
 404  789.8272
 405  749.3656
 406  834.7089
 407  821.792
 408  962.8259
 409  874.8607
 410  908.3687
 411  884.3575
 412  830.2297
 413  800.7433
 414  738.6932
 415  705.6431
 416  755.8837
 417  725.1561
 418  769.0278
 419  825.5215
 420  837.4265
 421  956.7871
 422  954.4594
 423  964.3604
 424  944.9297
 425  782.8964
 426  682.4191
 427  568.2596
 428  626.1071
 429  752.6943
 430  867.1658
 431  975.0076
 432  979.2492
 433  935.2471
 434  893.4691
 435  849.3746
 436  738.8994
 437  806.3301
 438  709.8307
 439  761.9873
 440  675.4593
 441  780.1074
 442  796.2752
 443  835.9571
 444  785.2917
 445  869.723
 446  819.5908
 447  682.1669
 448  642.4243
 449  718.8124
 450  898.5116
 451  920.7792
 452  950.6899
 453  1009.819
 454  902.5281
 455  738.9913
 456  681.1233
 457  695.1044
 458  830.1947
 459  674.9078
 460  814.1488
 461  901.8383
 462  924.9597
 463  920.5356
 464  808.8129
 465  857.7665
 466  863.4413
 467  814.6344
 468  723.5648
 469  671.2783
 470  781.2467
 471  907.1808
 472  854.9106
 473  840.9279
 474  782.0943
 475  835.3155
 476  938.1259
 477  909.4254
 478  863.8884
 479  923.9184
 480  1019.693
 481  1066.485
 482  896.9426
 483  740.2787
 484  709.7351
 485  679.9002
 486  769.4796
 487  822.8319
 488  848.7661
 489  984.9603
 490  1107.423
 491  1180.868
 492  1030.418
 493  956.416
 494  929.7024
 495  930.6431
 496  907.6194
 497  977.9272
 498  856.0133
 499  812.7836
 500  803.8592
 501  835.1712
 502  988.845
 503  930.6548
 504  952.97
 505  983.2581
 506  937.8065
 507  815.9546
 508  805.4677
 509  749.222
 510  825.524
 511  753.103
 512  832.7081
 513  912.7975
 514  933.651
 515  1026.094
 516  1021.409
 517  963.2941
 518  975.2347
 519  844.452
 520  846.8627
 521  786.4601
 522  804.2289
 523  876.7236
 524  834.7873
 525  818.3043
 526  854.0755
 527  789.8715
 528  744.5723
 529  704.6936
 530  753.2071
 531  804.0491
 532  868.7894
 533  921.3141
 534  826.1396
 535  669.8156
 536  808.8043
 537  815.0236
 538  896.762
 539  842.5386
 540  849.8353
 541  873.5733
 542  825.0573
 543  743.585
 544  796.5994
 545  776.139
 546  832.4832
 547  790.592
 548  785.9185
 549  911.5273
 550  901.6783
 551  907.9937
 552  887.5409
 553  851.1197
 554  844.9752
 555  868.6552
 556  832.8234
 557  843.4182
 558  782.0568
 559  865.4731
 560  872.8699
 561  853.0239
 562  936.5828
 563  985.3329
 564  1039.359
 565  1067.449
 566  949.1806
 567  958.1348
 568  879.8075
 569  908.6158
 570  947.0432
 571  865.445
 572  765.6404
 573  787.3351
 574  770.2492
 575  794.3847
 576  721.1905
 577  767.3889
 578  796.8024
 579  754.7438
 580  890.2939
 581  852.9365
 582  869.4693
 583  981.9363
 584  999.6548
 585  970.5721
 586  736.6869
 587  627.4564
 588  634.8915
 589  708.0256
 590  813.2538
 591  944.9349
 592  787.5824
 593  681.3845
 594  712.6667
 595  871.9354
 596  1060.658
 597  1023.629
 598  1052.849
 599  932.7401
 600  770.8298
 601  812.1067
 602  872.5038
 603  917.5753
 604  954.7783
 605  926.4659
 606  1016.055
 607  972.4138
 608  980.2871
 609  931.4196
 610  833.7587
 611  916.8388
 612  995.8828
 613  1068.059
 614  992.0911
 615  1045.81
 616  1137.756
 617  1293.583
 618  1216.319
 619  1204.701
 620  1210.008
 621  1278.234
 622  1450.282
 623  1529.01
 624  1441.914
 625  1351.077
 626  1360.221
 627  1372.14
 628  1154.639
 629  904.9604
 630  931.3112
 631  904.0107
 632  942.3545
 633  920.4436
 634  939.5062
 635  953.2288
 636  874.2687
 637  830.1807
 638  956.9769
 639  1023.916
 640  1022.979
 641  884.0854
 642  797.8379
 643  832.2744
 644  771.7075
 645  895.2359
 646  980.0806
 647  1074.396
 648  1055.934
 649  947.205
 650  906.2564
 651  819.1863
 652  838.355
 653  890.3999
 654  969.8559
 655  953.5182
 656  919.1353
 657  729.2604
 658  660.7188
 659  740.8694
 660  916.7727
 661  989.5092
 662  926.7619
 663  925.0062
 664  997.7226
 665  1014.032
 666  1108.743
 667  1125.98
 668  1163.905
 669  1182.081
 670  1013.392
 671  954.8139
 672  814.2838
 673  817.6263
 674  900.9725
 675  951.801
 676  985.2757
 677  1005.219
 678  1024.392
 679  1052.248
 680  1009.393
 681  901.1238
 682  939.5809
 683  1000.256
 684  1047.895
 685  1063.401
 686  921.3589
 687  900.8049
 688  871.3497
 689  810.2744
 690  949.2302
 691  886.3767
 692  917.4701
 693  841.5051
 694  774.3594
 695  973.2834
 696  948.5147
 697  1014.768
 698  936.2626
 699  885.6458
 700  853.9552
 701  852.7632
 702  911.3366
 703  914.5046
 704  935.0378
 705  888.817
 706  846.9295
 707  812.0635
 708  882.8309
 709  875.7285
 710  820.3541
 711  821.1884
 712  787.6494
 713  819.7045
 714  799.7691
 715  919.0706
 716  1032.943
 717  966.7383
 718  1011.233
 719  1050.376
 720  1087.129
 721  1015.141
 722  932.8446
 723  1007.932
 724  978.1596
 725  852.7689
 726  825.7878
 727  800.4334
 728  873.345
 729  926.2897
 730  910.1102
 731  915.5892
 732  834.264
 733  842.621
 734  890.3321
 735  844.3171
 736  767.4019
 737  785.3403
 738  852.4083
 739  1003.282
 740  1021.053
 741  1032.694
 742  977.1731
 743  832.6343
 744  930.6302
 745  973.1429
 746  1037.587
 747  1067.922
 748  1045.97
 749  1018.537
 750  930.8387
 751  839.8272
 752  988.8117
 753  985.9447
 754  1024.127
 755  1008.845
 756  807.5087
 757  746.6732
 758  879.8052
 759  951.3162
 760  913.7109
 761  799.1751
 762  888.7288
 763  998.951
 764  807.0889
 765  819.7253
 766  792.4058
 767  819.7389
 768  699.5144
 769  549.679
 770  587.0032
 771  698.353
 772  641.0528
 773  659.8364
 774  698.1311
 775  803.4581
 776  996.0203
 777  901.1664
 778  882.3301
 779  793.6583
 780  828.5521
 781  840.8299
 782  799.6481
 783  809.0684
 784  858.6021
 785  755.16
 786  758.6252
 787  766.5439
 788  914.0195
 789  1029.685
 790  1041.546
 791  989.4411
 792  929.2995
 793  961.3917
 794  1031.343
 795  996.7985
 796  835.7343
 797  774.025
 798  765.0135
 799  923.0798
 800  902.082
 801  926.5883
 802  1032.038
 803  1025.446
 804  1021.727
 805  1054.675
 806  1136.089
 807  1134.585
 808  1056.425
 809  1097.107
 810  1111.174
 811  1072.919
 812  1087.802
 813  1079.034
 814  1009.312
 815  953.507
 816  884.5609
 817  998.8062
 818  1015.62
 819  1021.655
 820  1046.227
 821  1083.172
 822  1052.918
 823  1089.772
 824  1032.088
 825  1110.166
 826  1001.933
 827  964.8146
 828  790.0013
 829  696.7014
 830  804.1479
 831  881.6661
 832  965.0656
 833  1022.302
 834  868.1786
 835  850.7888
 836  818.6218
 837  856.2249
 838  881.5853
 839  880.1992
 840  916.365
 841  877.2297
 842  787.1635
 843  808.5835
 844  821.2784
 845  664.3049
 846  698.704
 847  647.0555
 848  765.632
 849  909.4442
 850  1002.493
 851  1049.374
 852  847.8658
 853  784.5111
 854  773.1371
 855  766.4106
 856  888.7729
 857  887.0063
 858  756.0737
 859  731.6526
 860  752.5211
 861  801.0625
 862  882.5273
 863  793.4922
 864  795.6216
 865  793.8661
 866  851.8683
 867  928.9691
 868  903.0447
 869  928.5322
 870  1039.183
 871  1022.695
 872  907.1447
 873  741.1501
 874  782.0403
 875  844.4565
 876  761.4166
 877  878.7012
 878  859.2784
 879  838.3005
 880  851.7698
 881  895.7004
 882  942.3571
 883  943.6436
 884  917.1087
 885  1001.251
 886  1044.022
 887  985.9665
 888  821.1069
 889  701.2166
 890  854.3235
 891  992.4658
 892  985.2065
 893  977.4134
 894  899.7883
 895  1037.236
 896  1012.141
 897  931.7524
 898  961.8691
 899  1031.807
 900  1108.856
 901  1018.368
 902  837.2219
 903  791.1806
 904  810.9709
 905  879.3086
 906  1004.065
 907  1032.198
 908  1021.527
 909  1132.844
 910  1159.668
 911  1179.262
 912  1062.637
 913  936.123
 914  1044.083
 915  961.6885
 916  1008.052
 917  889.5019
 918  847.4044
 919  998.169
 920  1020.722
 921  1104.797
 922  1031.432
 923  881.1426
 924  876.6452
 925  805.1492
 926  938.4592
 927  992.7421
 928  958.1574
 929  858.1078
 930  784.6902
 931  759.8549
 932  852.5769
 933  673.1241
 934  650.8424
 935  687.0581
 936  798.8893
 937  837.9912
 938  850.6732
 939  901.8279
 940  908.6158
 941  885.118
 942  1041.033
 943  1165.731
 944  955.7053
 945  925.2647
 946  916.0577
 947  977.5609
 948  1000.807
 949  919.4643
 950  894.7189
 951  833.8912
 952  871.3364
 953  1036.974
 954  1079.228
 955  1063.764
 956  1026.922
 957  1055.455
 958  1167.895
 959  1191.437
 960  1109.767
 961  1062.46
 962  1060.106
 963  1084.874
 964  1108.217
 965  1032.984
 966  1086.983
 967  913.6699
 968  912.8198
 969  892.2358
 970  959.358
 971  925.1566
 972  794.2607
 973  779.0275
 974  846.6767
 975  905.7868
 976  854.5049
 977  847.3865
 978  898.452
 979  1066.567
 980  1026.113
 981  1010.02
 982  1035.985
 983  1012.41
 984  1041.909
 985  862.2295
 986  777.0717
 987  785.6171
 988  824.3204
 989  824.9374
 990  761.1025
 991  725.8704
 992  819.1728
 993  821.6265
 994  758.1887
 995  730.6641
 996  717.7982
 997  839.856
 998  914.1013
 999  933.55
1000  910.0935
1001  797.2386
1002  817.9631
1003  790.8751
1004  728.5805
1005  672.5363
1006  591.5093
1007  670.8079
1008  697.0256
1009  876.876
1010  1009.694
1011  985.8641
1012  875.8498
1013  830.9729
1014  837.035
1015  830.8006
1016  908.0146
1017  942.7971
1018  963.9821
1019  779.0466
1020  683.2948
1021  852.7592
1022  913.1892
1023  1002.27
