# Input file       =  1197499180.084148_cleaned.dat
# Candidate        =  PSR_0332+5434
# Telescope        =  AR
# Epoch_topo       =  58103.944433844306
# Epoch_bary       =  N/A
# T_sample         =  0.002
# Data Folded      =  7340032
# Data Avg         =  0.213645165219662
# Data StdDev      =  4.67481686169751 
# Profile Bins     =  1024
# Profile Avg      =  1531.41837080247 
# Profile StdDev   =  395.788890906337 
# Reduced chi-sqr  =  0.667
# Prob(Noise)      <  1   (~0.0 sigma)
# P_topo (ms)      =  714.542217860717  +/- 0.000164
# P'_topo (s/s)    =  -0                +/- 8.65e-11
# P''_topo (s/s^2) =  0                 +/- 3.82e-14
# P_bary (ms)      =  N/A
# P'_bary (s/s)    =  N/A
# P''_bary (s/s^2) =  N/A
# P_orb (s)        =  N/A
# asin(i)/c (s)    =  N/A
# eccentricity     =  N/A
# w (rad)          =  N/A
# T_peri           =  N/A
######################################################
   0  1326.418
   1  1227.032
   2  1203.515
   3  1222.329
   4  1342.255
   5  1397.699
   6  1434.122
   7  1602.783
   8  1535.134
   9  1397.521
  10  1339.859
  11  1344.206
  12  1487.166
  13  1517.432
  14  1485.301
  15  1589.202
  16  1508.445
  17  1408.344
  18  1270.379
  19  1361.436
  20  1482.508
  21  1519.592
  22  1556.696
  23  1471.391
  24  1382.231
  25  1295.995
  26  1357.911
  27  1243.028
  28  1406.978
  29  1429.69
  30  1535.462
  31  1618.304
  32  1628.623
  33  1596.683
  34  1478.018
  35  1395.045
  36  1474.282
  37  1403.979
  38  1411.313
  39  1467.812
  40  1617.118
  41  1581.463
  42  1525.354
  43  1419.499
  44  1465.816
  45  1450.184
  46  1516.286
  47  1483.576
  48  1429.241
  49  1342.772
  50  1459.008
  51  1394.878
  52  1431.002
  53  1395.628
  54  1550.908
  55  1727.23
  56  1839.014
  57  1763.641
  58  1635.497
  59  1552.5
  60  1416.241
  61  1466.075
  62  1480.56
  63  1506.424
  64  1438.234
  65  1387.318
  66  1514.452
  67  1630.954
  68  1760.641
  69  1849.54
  70  1758.949
  71  1595.089
  72  1412.661
  73  1363.431
  74  1478.276
  75  1564.91
  76  1730.671
  77  1678.574
  78  1508.922
  79  1257.432
  80  1275.267
  81  1285.291
  82  1442.719
  83  1548.964
  84  1534.624
  85  1377.121
  86  1234.669
  87  1378.49
  88  1367.266
  89  1355.123
  90  1439.336
  91  1576.829
  92  1661.054
  93  1652.107
  94  1671.803
  95  1604.115
  96  1414.477
  97  1374.779
  98  1496.328
  99  1501.74
 100  1546.178
 101  1574.838
 102  1617.408
 103  1543.496
 104  1577.961
 105  1579.833
 106  1567.666
 107  1580.295
 108  1552.327
 109  1511.776
 110  1399.716
 111  1550.576
 112  1719.299
 113  1730.7
 114  1551.845
 115  1514.683
 116  1423.97
 117  1375.407
 118  1231.347
 119  1268.642
 120  1325.496
 121  1375.716
 122  1460.331
 123  1537.204
 124  1427.002
 125  1295.74
 126  1355.258
 127  1366.243
 128  1284.149
 129  1188.202
 130  1335.779
 131  1389.511
 132  1315.635
 133  1381.518
 134  1490.514
 135  1562.092
 136  1540.43
 137  1558.797
 138  1479.398
 139  1414.303
 140  1335.494
 141  1410.635
 142  1397.736
 143  1480.028
 144  1403.404
 145  1332.417
 146  1155.137
 147  1102.38
 148  1199.923
 149  1334.018
 150  1421.295
 151  1502.771
 152  1529.361
 153  1538.751
 154  1542.165
 155  1536.344
 156  1445.308
 157  1316.542
 158  1154.487
 159  1209.129
 160  1302.647
 161  1402.205
 162  1534.391
 163  1635.835
 164  1640.68
 165  1563.047
 166  1490.54
 167  1467.138
 168  1465.12
 169  1595.327
 170  1574.097
 171  1630.876
 172  1615.983
 173  1687.437
 174  1450.145
 175  1257.251
 176  1309.793
 177  1615.474
 178  1653.8
 179  1614.526
 180  1557.173
 181  1504.945
 182  1500.734
 183  1552.482
 184  1679.697
 185  1553.456
 186  1466.411
 187  1397.646
 188  1223.595
 189  1286.966
 190  1605.66
 191  1696.253
 192  1541.417
 193  1462.518
 194  1520.664
 195  1527.759
 196  1423.454
 197  1663.633
 198  1798.62
 199  1675.369
 200  1491.606
 201  1495.056
 202  1559.539
 203  1651.983
 204  1714.93
 205  1792.789
 206  1816.112
 207  1668.608
 208  1718.096
 209  1588.806
 210  1692.733
 211  1584.499
 212  1667.463
 213  1623.53
 214  1609.12
 215  1438.025
 216  1456.202
 217  1493.058
 218  1564.574
 219  1562.361
 220  1529.76
 221  1598.29
 222  1742.916
 223  1810.158
 224  1740.207
 225  1596.329
 226  1499.98
 227  1596.188
 228  1651.857
 229  1650.685
 230  1601.958
 231  1539.265
 232  1544.778
 233  1613.804
 234  1673.94
 235  1769.312
 236  1698.576
 237  1666.405
 238  1532.267
 239  1417.986
 240  1383.194
 241  1562.223
 242  1570.236
 243  1575.705
 244  1601.011
 245  1645.831
 246  1546.594
 247  1466.809
 248  1493.095
 249  1435.358
 250  1250.072
 251  1207.02
 252  1195.581
 253  1103.008
 254  1290.636
 255  1509.017
 256  1657.705
 257  1456.341
 258  1316.794
 259  1328.009
 260  1354.44
 261  1502.531
 262  1582.897
 263  1667.964
 264  1576.432
 265  1520.742
 266  1314.106
 267  1337.494
 268  1357.714
 269  1579.879
 270  1600.743
 271  1551.494
 272  1394.623
 273  1510.984
 274  1555.327
 275  1500.646
 276  1637.342
 277  1624.589
 278  1556.245
 279  1284.068
 280  1247.528
 281  1429.295
 282  1430.417
 283  1363.441
 284  1427.763
 285  1496.371
 286  1510.427
 287  1355.2
 288  1369.793
 289  1458.556
 290  1440.527
 291  1481.784
 292  1521.339
 293  1400.182
 294  1325.794
 295  1257.683
 296  1201.232
 297  1336.947
 298  1427.649
 299  1440.617
 300  1348.392
 301  1217.414
 302  1225.323
 303  1211.695
 304  1163.86
 305  1440.82
 306  1645.807
 307  1688.146
 308  1623.906
 309  1561.693
 310  1615.101
 311  1559.487
 312  1575.62
 313  1586.572
 314  1506.037
 315  1568.377
 316  1494.741
 317  1342.634
 318  1187.16
 319  1171.631
 320  1272.633
 321  1288.188
 322  1242.381
 323  1294.343
 324  1363.982
 325  1336.226
 326  1380.859
 327  1617.977
 328  1706.832
 329  1686.799
 330  1565.736
 331  1561.419
 332  1488.268
 333  1334.499
 334  1417.157
 335  1372.843
 336  1345.169
 337  1507.299
 338  1549.181
 339  1515.808
 340  1363.389
 341  1600.583
 342  1752.126
 343  1574.531
 344  1250.39
 345  1233.906
 346  1387.698
 347  1476.135
 348  1365.214
 349  1333.96
 350  1337.368
 351  1351.319
 352  1435.149
 353  1367.663
 354  1394.35
 355  1350.843
 356  1500.566
 357  1576.26
 358  1453.729
 359  1438.527
 360  1393.29
 361  1498.264
 362  1643.673
 363  1676.858
 364  1559.303
 365  1365.153
 366  1262.404
 367  1419.186
 368  1452.292
 369  1414.026
 370  1453.731
 371  1477.866
 372  1532.578
 373  1468.841
 374  1405.231
 375  1435.583
 376  1472.688
 377  1633.992
 378  1597.293
 379  1440.909
 380  1409.462
 381  1498.512
 382  1592.439
 383  1580.586
 384  1510.405
 385  1492.726
 386  1552.514
 387  1593.989
 388  1602.12
 389  1586.67
 390  1610.424
 391  1602.253
 392  1625.589
 393  1630.373
 394  1590.074
 395  1521.948
 396  1473.346
 397  1362.078
 398  1257.482
 399  1153.94
 400  1074.911
 401  1091.87
 402  1241.969
 403  1326.738
 404  1278.204
 405  1372.673
 406  1549.097
 407  1563.57
 408  1442.268
 409  1377.568
 410  1375.648
 411  1240.012
 412  1161.746
 413  1290.191
 414  1337.362
 415  1269.509
 416  1040.709
 417  1052.092
 418  1262.393
 419  1478.084
 420  1532.389
 421  1543.845
 422  1354.275
 423  1428.888
 424  1443.767
 425  1477.154
 426  1409.622
 427  1410.225
 428  1300.444
 429  1305.979
 430  1346.079
 431  1627.183
 432  1736.226
 433  1848.885
 434  1851.564
 435  1806.839
 436  1704.544
 437  1643.215
 438  1724.37
 439  1765.724
 440  1819.735
 441  1685.849
 442  1681.101
 443  1656.202
 444  1642.148
 445  1665.46
 446  1803.154
 447  1910.834
 448  1897.207
 449  1746.665
 450  1715.041
 451  1619.975
 452  1594.41
 453  1580.958
 454  1504.58
 455  1540.747
 456  1520.343
 457  1443.356
 458  1388.379
 459  1405.156
 460  1456.664
 461  1557.08
 462  1604.557
 463  1608.174
 464  1456.45
 465  1338.344
 466  1368.51
 467  1569.682
 468  1529.254
 469  1552.487
 470  1505.875
 471  1543.134
 472  1465.518
 473  1363.076
 474  1434.579
 475  1617.081
 476  1811.118
 477  1898.257
 478  1792.833
 479  1652.038
 480  1457.25
 481  1400.658
 482  1408.15
 483  1347.554
 484  1262.826
 485  1384.892
 486  1570.128
 487  1811.86
 488  1877.822
 489  1951.521
 490  1714.077
 491  1562.078
 492  1361.51
 493  1428.185
 494  1586.935
 495  1700.303
 496  1638.936
 497  1519.361
 498  1542.456
 499  1628.893
 500  1628.358
 501  1732.474
 502  1801.084
 503  1837.344
 504  1729.857
 505  1722.744
 506  1757.712
 507  1765.983
 508  1646.367
 509  1727.646
 510  1889.552
 511  1918.812
 512  2017.046
 513  1916.154
 514  1826.767
 515  1671.632
 516  1512.839
 517  1429.577
 518  1417.038
 519  1584.464
 520  1732.906
 521  1820.08
 522  1735.673
 523  1704.767
 524  1650.034
 525  1698.682
 526  1759.678
 527  1794.826
 528  1756.532
 529  1678.753
 530  1489.664
 531  1573.643
 532  1605.887
 533  1713.79
 534  1782.319
 535  1789.388
 536  1680.429
 537  1587.028
 538  1430.547
 539  1316.049
 540  1250.699
 541  1235.159
 542  1330.371
 543  1209.542
 544  1320.338
 545  1302.267
 546  1412.61
 547  1474.006
 548  1647.324
 549  1809.977
 550  1847.77
 551  1772.024
 552  1609.348
 553  1334.656
 554  1165.081
 555  1243.392
 556  1345.344
 557  1393.081
 558  1449.583
 559  1436.57
 560  1539.312
 561  1531.615
 562  1628.236
 563  1661.932
 564  1638.082
 565  1580.533
 566  1541.686
 567  1593.205
 568  1677.324
 569  1591.432
 570  1569.837
 571  1659.582
 572  1686.759
 573  1615.842
 574  1450.031
 575  1563.511
 576  1620.16
 577  1587.192
 578  1512.938
 579  1538.989
 580  1594.069
 581  1592.774
 582  1781.322
 583  1803.002
 584  1825.535
 585  1808.451
 586  1733.157
 587  1669.27
 588  1660.048
 589  1635.276
 590  1523.661
 591  1421.139
 592  1551.868
 593  1575.479
 594  1536.496
 595  1560.026
 596  1664.22
 597  1796.914
 598  1772.825
 599  1783.394
 600  1599.426
 601  1471.089
 602  1467.045
 603  1590.487
 604  1520.844
 605  1441.781
 606  1516.5
 607  1556.292
 608  1552.719
 609  1528.701
 610  1533.845
 611  1594.061
 612  1678.881
 613  1718.067
 614  1758.925
 615  1789.492
 616  1708.127
 617  1579.865
 618  1498.005
 619  1588.279
 620  1881.681
 621  2020.109
 622  2228.436
 623  2298.203
 624  2380.355
 625  2292.103
 626  2327.045
 627  2232.057
 628  2194.599
 629  1979.051
 630  1899.223
 631  1884.345
 632  1690.962
 633  1625.35
 634  1506.157
 635  1611.296
 636  1618.329
 637  1595.444
 638  1721.818
 639  1597.089
 640  1558.323
 641  1441.849
 642  1626.445
 643  1692.248
 644  1662.737
 645  1489.152
 646  1461.491
 647  1484.587
 648  1571.052
 649  1729.763
 650  1882.844
 651  1806.428
 652  1810.015
 653  1688.806
 654  1741.543
 655  1690.144
 656  1554.229
 657  1426.333
 658  1322.346
 659  1336.289
 660  1393.695
 661  1397.728
 662  1429.742
 663  1497.755
 664  1495.787
 665  1423.742
 666  1344.098
 667  1436.014
 668  1376.059
 669  1372.021
 670  1454.069
 671  1598.042
 672  1544.83
 673  1635.069
 674  1664.97
 675  1575.227
 676  1601.066
 677  1648.137
 678  1596.574
 679  1317.018
 680  1270.71
 681  1381.474
 682  1340.566
 683  1214.388
 684  1184.8
 685  1242.805
 686  1232.014
 687  1179.612
 688  1229.59
 689  1362.798
 690  1568.005
 691  1658.338
 692  1794.555
 693  1696.903
 694  1600.28
 695  1436.002
 696  1327.756
 697  1390.761
 698  1501.517
 699  1461.879
 700  1494.809
 701  1562.956
 702  1627.978
 703  1630.078
 704  1573.792
 705  1632.149
 706  1766.876
 707  1798.886
 708  1702.836
 709  1628.299
 710  1601.049
 711  1631.008
 712  1583.876
 713  1596.977
 714  1681.94
 715  1621.287
 716  1644.084
 717  1552.5
 718  1383.505
 719  1402.019
 720  1481.557
 721  1430.505
 722  1329.658
 723  1192.556
 724  1508.251
 725  1528.288
 726  1544.868
 727  1475.515
 728  1740.233
 729  1784.137
 730  1746.522
 731  1491.453
 732  1458.51
 733  1401.564
 734  1492.852
 735  1560.493
 736  1514.909
 737  1488.011
 738  1509.941
 739  1590.165
 740  1674.691
 741  1804.759
 742  1746.819
 743  1693.939
 744  1581.38
 745  1518.917
 746  1427.476
 747  1394.482
 748  1474.308
 749  1544.643
 750  1552.865
 751  1527.772
 752  1596.272
 753  1731.922
 754  1632.961
 755  1454.008
 756  1464.225
 757  1648.647
 758  1618.567
 759  1476.175
 760  1388.708
 761  1426.665
 762  1566.565
 763  1777.384
 764  1860.541
 765  1880.195
 766  1789.829
 767  1823.637
 768  1741.762
 769  1740.427
 770  1693.893
 771  1696.424
 772  1642.002
 773  1722.308
 774  1755.797
 775  1914.552
 776  1869.503
 777  1883.473
 778  1807.963
 779  1981.922
 780  1852.251
 781  1887.618
 782  1761.058
 783  1707.879
 784  1742.011
 785  1676.665
 786  1743.046
 787  1552.4
 788  1524.677
 789  1601.7
 790  1692.894
 791  1745.42
 792  1783.76
 793  1760.917
 794  1596.169
 795  1437.109
 796  1505.398
 797  1670.368
 798  1656.485
 799  1646.038
 800  1689.508
 801  1615.619
 802  1573.12
 803  1537.588
 804  1650.32
 805  1736.904
 806  1796.139
 807  1773.156
 808  1661.128
 809  1516.338
 810  1517.651
 811  1600.303
 812  1577.243
 813  1525.815
 814  1471.542
 815  1489.76
 816  1496.386
 817  1488.862
 818  1625.672
 819  1613.52
 820  1557.138
 821  1503.569
 822  1613.98
 823  1707.991
 824  1761.852
 825  1633.41
 826  1611.156
 827  1588.302
 828  1698.965
 829  1630.533
 830  1569.195
 831  1563.343
 832  1649.839
 833  1610.881
 834  1553.123
 835  1602.304
 836  1527.301
 837  1574.892
 838  1583.473
 839  1689.375
 840  1705.907
 841  1610.523
 842  1495.368
 843  1393.495
 844  1416.472
 845  1459.519
 846  1580.491
 847  1619.419
 848  1576.337
 849  1651.779
 850  1750.04
 851  1935.384
 852  2052.361
 853  2138.233
 854  2095.334
 855  1943.031
 856  1807.567
 857  1678.562
 858  1684.295
 859  1621.129
 860  1562.427
 861  1498.797
 862  1393.832
 863  1299.474
 864  1298.618
 865  1378.322
 866  1351.329
 867  1428.545
 868  1626.267
 869  1646.787
 870  1568.657
 871  1489.482
 872  1564.106
 873  1613.712
 874  1617.266
 875  1736.474
 876  1711.313
 877  1725.685
 878  1672.629
 879  1742.708
 880  1750.521
 881  1628.599
 882  1599.402
 883  1570.621
 884  1546.162
 885  1472.097
 886  1446.84
 887  1496.349
 888  1498.833
 889  1524.233
 890  1593.633
 891  1599.276
 892  1625.64
 893  1593.401
 894  1550.839
 895  1502.136
 896  1522.706
 897  1512.648
 898  1391.455
 899  1429.654
 900  1413.721
 901  1477.605
 902  1517.009
 903  1615.032
 904  1658.923
 905  1652.925
 906  1571.275
 907  1587.191
 908  1578.963
 909  1446.835
 910  1353.745
 911  1348.858
 912  1424.025
 913  1476.788
 914  1499.586
 915  1475.516
 916  1435.492
 917  1441.914
 918  1414.109
 919  1453.476
 920  1474.114
 921  1596.502
 922  1600.054
 923  1541.638
 924  1432.724
 925  1362.004
 926  1438.871
 927  1444.338
 928  1438.333
 929  1445.729
 930  1338.785
 931  1422.347
 932  1403.268
 933  1529.966
 934  1547.397
 935  1611.76
 936  1599.832
 937  1639.967
 938  1443.297
 939  1310.216
 940  1328.793
 941  1513
 942  1660.942
 943  1738.151
 944  1661.853
 945  1604.416
 946  1591.936
 947  1479.717
 948  1319.693
 949  1124.73
 950  1257.004
 951  1322.31
 952  1370.572
 953  1295.698
 954  1180.656
 955  1398.906
 956  1546.455
 957  1537.204
 958  1523.199
 959  1564.409
 960  1548.667
 961  1506.424
 962  1588.168
 963  1765.388
 964  1956.141
 965  1782.847
 966  1658.335
 967  1676.221
 968  1639.987
 969  1553.938
 970  1476.275
 971  1552.011
 972  1563.245
 973  1471.292
 974  1546.833
 975  1524.55
 976  1438.425
 977  1543.98
 978  1619.23
 979  1728.342
 980  1670.622
 981  1552.48
 982  1477.006
 983  1480.612
 984  1501.3
 985  1375.704
 986  1225.619
 987  1255.542
 988  1341.762
 989  1340.165
 990  1442.319
 991  1438.234
 992  1556.778
 993  1519.07
 994  1454.861
 995  1419.441
 996  1349.319
 997  1318.293
 998  1214.064
 999  1254.421
1000  1230.872
1001  1190.845
1002  1231.244
1003  1219.747
1004  1203.916
1005  1116.063
1006  1160.298
1007  1471.762
1008  1408.488
1009  1450.059
1010  1264.581
1011  1302.101
1012  1301.412
1013  1330.807
1014  1299.554
1015  1343.484
1016  1349.158
1017  1357.73
1018  1301.177
1019  1172.326
1020  1207.023
1021  1294.495
1022  1454.449
1023  1349.187
