# Input file       =  1197407269.136531_cleaned.dat
# Candidate        =  PSR_0332+5434
# Telescope        =  AR
# Epoch_topo       =  58102.880649728366
# Epoch_bary       =  N/A
# T_sample         =  0.002
# Data Folded      =  7340032
# Data Avg         =  0.0582776629906075
# Data StdDev      =  0.999972112360673
# Profile Bins     =  512
# Profile Avg      =  835.531815770368 
# Profile StdDev   =  119.729697305032 
# Reduced chi-sqr  =  0.479
# Prob(Noise)      <  1   (~0.0 sigma)
# P_topo (ms)      =  714.541016462229  +/- 0.00148
# P'_topo (s/s)    =  -0                +/- 7.82e-10
# P''_topo (s/s^2) =  0                 +/- 3.45e-13
# P_bary (ms)      =  N/A
# P'_bary (s/s)    =  N/A
# P''_bary (s/s^2) =  N/A
# P_orb (s)        =  N/A
# asin(i)/c (s)    =  N/A
# eccentricity     =  N/A
# w (rad)          =  N/A
# T_peri           =  N/A
######################################################
   0  783.6096
   1  817.1703
   2  766.6562
   3  823.1251
   4  806.6547
   5  799.6554
   6  817.266
   7  803.4643
   8  857.6719
   9  842.8531
  10  751.1182
  11  809.9452
  12  795.1687
  13  809.259
  14  921.972
  15  981.8425
  16  942.1331
  17  865.3892
  18  899.6314
  19  837.8958
  20  752.1801
  21  779.2108
  22  919.121
  23  933.6649
  24  893.536
  25  895.6876
  26  846.7441
  27  809.2776
  28  817.1204
  29  863.5341
  30  878.7317
  31  847.1434
  32  787.7668
  33  854.4865
  34  891.1075
  35  896.9731
  36  852.5409
  37  879.16
  38  857.8116
  39  816.9214
  40  866.5016
  41  835.8507
  42  837.7237
  43  834.2009
  44  876.9778
  45  780.4003
  46  730.7427
  47  764.17
  48  740.9526
  49  734.8209
  50  831.0801
  51  845.278
  52  835.7465
  53  826.4943
  54  783.0565
  55  765.0367
  56  760.2473
  57  810.7733
  58  855.6379
  59  805.9925
  60  865.7741
  61  889.3602
  62  823.0452
  63  763.6414
  64  828.4795
  65  830.9047
  66  898.4213
  67  912.124
  68  807.5623
  69  805.9285
  70  840.1456
  71  889.5518
  72  863.6897
  73  835.0301
  74  817.0011
  75  862.8052
  76  892.8971
  77  919.8322
  78  734.8644
  79  847.9371
  80  908.0214
  81  848.8623
  82  848.9427
  83  864.8137
  84  908.6778
  85  902.6771
  86  937.1582
  87  914.7307
  88  821.8903
  89  836.4578
  90  897.29
  91  943.5046
  92  922.8977
  93  942.6603
  94  905.1588
  95  902.8308
  96  851.5114
  97  779.2229
  98  762.8226
  99  818.9177
 100  905.4965
 101  914.2729
 102  834.5514
 103  862.0621
 104  900.4678
 105  846.8995
 106  801.7309
 107  826.3091
 108  899.7971
 109  874.2266
 110  818.8457
 111  833.4922
 112  835.8329
 113  828.4592
 114  834.9464
 115  843.7092
 116  788.8959
 117  764.5568
 118  782.386
 119  744.1159
 120  753.6824
 121  802.2504
 122  784.0887
 123  761.5425
 124  778.0512
 125  713.2839
 126  797.0062
 127  819.6687
 128  858.4012
 129  825.9748
 130  813.7039
 131  692.2382
 132  798.1277
 133  824.8527
 134  777.9594
 135  792.0605
 136  884.6817
 137  904.9017
 138  875.2804
 139  800.8433
 140  851.1462
 141  829.4125
 142  857.2244
 143  836.5658
 144  843.5089
 145  862.5446
 146  827.2046
 147  837.0547
 148  792.1274
 149  837.4225
 150  830.4168
 151  807.6462
 152  798.2212
 153  729.2888
 154  779.0805
 155  780.9897
 156  775.6472
 157  812.0248
 158  786.7216
 159  820.2578
 160  767.0312
 161  783.6604
 162  799.8429
 163  813.7706
 164  832.915
 165  918.922
 166  857.5087
 167  900.1274
 168  872.441
 169  955.8929
 170  885.3604
 171  889.2407
 172  919.7939
 173  882.3032
 174  905.1104
 175  825.2103
 176  788.8571
 177  798.3622
 178  854.8703
 179  920.2259
 180  949.9023
 181  861.8537
 182  897.3045
 183  860.4562
 184  909.0001
 185  875.2217
 186  851.5347
 187  857.5782
 188  825.1278
 189  846.3961
 190  922.1738
 191  930.4404
 192  904.6121
 193  913.5345
 194  958.4131
 195  876.9928
 196  818.4571
 197  814.4233
 198  889.5904
 199  923.4004
 200  952.2212
 201  867.1641
 202  831.6994
 203  806.9669
 204  787.0443
 205  880.4569
 206  945.0859
 207  1010.64
 208  972.696
 209  926.1922
 210  975.7647
 211  952.1216
 212  1076.02
 213  1063.541
 214  1002.465
 215  932.3831
 216  860.402
 217  850.9904
 218  833.0159
 219  811.5903
 220  838.9095
 221  787.3608
 222  803.884
 223  871.0887
 224  872.6367
 225  866.1169
 226  876.1125
 227  861.554
 228  853.5957
 229  835.0612
 230  864.8058
 231  800.4612
 232  812.5434
 233  904.8693
 234  863.3975
 235  771.3425
 236  803.4075
 237  803.879
 238  810.4529
 239  855.8591
 240  818.4413
 241  854.4382
 242  859.6606
 243  895.9858
 244  866.7166
 245  901.1634
 246  824.722
 247  839.2922
 248  831.3875
 249  855.8585
 250  806.2123
 251  767.1216
 252  748.1749
 253  851.7466
 254  875.6133
 255  844.0426
 256  807.264
 257  797.1199
 258  795.8796
 259  850.9589
 260  850.1927
 261  735.2718
 262  792.5181
 263  873.6216
 264  855.7584
 265  764.5511
 266  755.6559
 267  809.3101
 268  764.611
 269  813.4935
 270  785.4178
 271  754.3646
 272  824.9935
 273  938.1588
 274  915.7415
 275  788.0854
 276  761.5303
 277  794.7338
 278  749.077
 279  826.3173
 280  847.8392
 281  781.4312
 282  824.8899
 283  834.6976
 284  731.7279
 285  705.4813
 286  773.4443
 287  818.346
 288  856.5273
 289  894.2123
 290  877.9333
 291  868.7166
 292  928.9802
 293  865.4801
 294  872.6417
 295  757.8533
 296  783.6393
 297  896.0414
 298  942.776
 299  856.5054
 300  795.6136
 301  881.1597
 302  945.7747
 303  869.4907
 304  816.434
 305  888.9472
 306  816.3217
 307  837.4299
 308  808.6958
 309  867.5504
 310  975.0697
 311  897.3136
 312  946.3085
 313  912.075
 314  933.5019
 315  851.8926
 316  819.2407
 317  738.9946
 318  846.255
 319  913.4807
 320  926.4249
 321  934.0009
 322  863.4747
 323  773.121
 324  785.0155
 325  819.9156
 326  902.1629
 327  886.1925
 328  836.917
 329  926.1976
 330  902.2001
 331  950.1169
 332  908.4225
 333  835.879
 334  840.9993
 335  884.2828
 336  856.9543
 337  821.2914
 338  806.4487
 339  847.6837
 340  845.6246
 341  835.4474
 342  862.2036
 343  849.7011
 344  855.312
 345  900.2067
 346  860.3318
 347  807.9898
 348  778.4904
 349  784.8754
 350  766.9915
 351  750.3906
 352  787.3627
 353  768.0121
 354  816.4177
 355  869.7973
 356  851.4749
 357  784.1915
 358  903.4946
 359  902.8351
 360  810.3732
 361  800.2033
 362  818.6553
 363  938.0458
 364  873.5426
 365  868.1766
 366  815.4686
 367  805.9178
 368  755.1066
 369  722.7522
 370  758.3535
 371  748.4821
 372  787.515
 373  809.2081
 374  773.0071
 375  748.5869
 376  757.5021
 377  838.3808
 378  817.7745
 379  828.8073
 380  887.5224
 381  772.1614
 382  699.7068
 383  676.8383
 384  761.0348
 385  807.4514
 386  720.8987
 387  736.2925
 388  813.6553
 389  736.7072
 390  798.3066
 391  861.442
 392  831.5026
 393  783.6061
 394  751.9686
 395  793.0092
 396  865.1539
 397  902.3076
 398  870.8577
 399  920.1141
 400  812.0845
 401  811.1205
 402  826.2516
 403  806.8623
 404  859.2808
 405  800.7864
 406  912.0997
 407  874.9028
 408  866.9742
 409  892.3992
 410  881.4918
 411  890.3472
 412  849.2256
 413  827.9933
 414  795.7274
 415  885.0471
 416  919.1541
 417  877.4603
 418  760.1259
 419  746.2051
 420  683.6794
 421  700.4799
 422  731.8297
 423  764.8454
 424  814.3901
 425  837.794
 426  868.7613
 427  843.1214
 428  834.7368
 429  737.1661
 430  773.8492
 431  824.7383
 432  827.1375
 433  885.1639
 434  871.7799
 435  910.1509
 436  850.9016
 437  808.9146
 438  787.5552
 439  741.1123
 440  835.1889
 441  856.2427
 442  765.8063
 443  746.6781
 444  759.4471
 445  740.9084
 446  817.6668
 447  790.4755
 448  747.0529
 449  719.6548
 450  735.1123
 451  756.5482
 452  824.2622
 453  770.1395
 454  808.8459
 455  751.7742
 456  761.2317
 457  778.4614
 458  802.0676
 459  859.6592
 460  842.9246
 461  826.9494
 462  904.8588
 463  825.3908
 464  868.1891
 465  937.8267
 466  907.4968
 467  833.2283
 468  801.0814
 469  738.7899
 470  833.9375
 471  803.7144
 472  793.1076
 473  801.8353
 474  775.3653
 475  753.8611
 476  735.4498
 477  729.1138
 478  786.354
 479  796.1819
 480  850.3542
 481  850.2194
 482  780.071
 483  732.4219
 484  763.361
 485  852.4681
 486  858.4155
 487  850.1864
 488  903.0538
 489  896.8726
 490  818.1475
 491  891.1859
 492  832.5057
 493  768.5433
 494  705.7028
 495  729.4701
 496  794.9163
 497  816.1199
 498  842.8929
 499  798.6257
 500  786.2053
 501  841.9438
 502  881.257
 503  903.218
 504  925.1282
 505  892.5596
 506  811.8829
 507  820.9226
 508  846.3212
 509  861.7339
 510  842.0012
 511  823.1395
