# Input file       =  1197407269.136531_cleaned.dat
# Candidate        =  PSR_0332+5434
# Telescope        =  AR
# Epoch_topo       =  58102.880649728366
# Epoch_bary       =  N/A
# T_sample         =  0.002
# Data Folded      =  7340032
# Data Avg         =  0.331038113212605
# Data StdDev      =  5.46858030137397 
# Profile Bins     =  1024
# Profile Avg      =  2373.13052263411 
# Profile StdDev   =  462.99211206471  
# Reduced chi-sqr  =  0.421
# Prob(Noise)      <  1   (~0.0 sigma)
# P_topo (ms)      =  714.541016462229  +/- 0.000895
# P'_topo (s/s)    =  -0                +/- 4.72e-10
# P''_topo (s/s^2) =  0                 +/- 2.08e-13
# P_bary (ms)      =  N/A
# P'_bary (s/s)    =  N/A
# P''_bary (s/s^2) =  N/A
# P_orb (s)        =  N/A
# asin(i)/c (s)    =  N/A
# eccentricity     =  N/A
# w (rad)          =  N/A
# T_peri           =  N/A
######################################################
   0  2423.967
   1  2405.324
   2  2427.28
   3  2291.792
   4  2283.584
   5  2424.034
   6  2566.079
   7  2589.308
   8  2643.335
   9  2678.543
  10  2541.126
  11  2176.391
  12  2117.636
  13  2258.083
  14  2136.923
  15  1962.472
  16  1963.683
  17  2078.339
  18  2049.502
  19  2050.105
  20  2149.842
  21  2180.884
  22  2290.851
  23  2349.633
  24  2347.198
  25  2375.075
  26  2319.226
  27  2410.976
  28  2388.708
  29  2355.029
  30  2286.555
  31  2294.395
  32  2306.189
  33  2182.356
  34  2136.232
  35  2024.848
  36  2154.998
  37  2242.072
  38  2289.006
  39  2252.849
  40  2355.115
  41  2389.843
  42  2555.216
  43  2543.213
  44  2552.979
  45  2519.631
  46  2488.985
  47  2454.28
  48  2266.752
  49  2247.745
  50  2245.308
  51  2245.165
  52  2267.062
  53  2228.374
  54  2106.281
  55  2180.106
  56  2278.569
  57  2317.549
  58  2422.144
  59  2403.011
  60  2235.22
  61  2025.309
  62  2096.084
  63  2195.071
  64  2175.831
  65  2038.53
  66  2117.569
  67  2191.657
  68  2271.817
  69  2325.787
  70  2273.815
  71  2253.453
  72  2185.432
  73  2144.593
  74  2072.066
  75  2039.577
  76  1992.783
  77  1987.119
  78  2041.364
  79  2240.31
  80  2242.103
  81  2145.98
  82  2046.518
  83  2186.948
  84  2218.683
  85  2207.294
  86  2095.396
  87  2057.295
  88  2107.162
  89  2098.554
  90  2134.438
  91  2165.25
  92  2267.888
  93  2366.766
  94  2408.686
  95  2440.824
  96  2394.074
  97  2206.905
  98  2150.346
  99  2325.219
 100  2368.756
 101  2432.73
 102  2320.554
 103  2417.075
 104  2507.698
 105  2600.914
 106  2693.809
 107  2677.025
 108  2572.657
 109  2549.105
 110  2448.268
 111  2431.237
 112  2286.738
 113  2228.582
 114  2123.155
 115  2290.815
 116  2533.43
 117  2544.953
 118  2493.19
 119  2301.628
 120  2393.842
 121  2365.217
 122  2239.676
 123  2208.279
 124  2231.719
 125  2254.033
 126  2169.388
 127  2094.13
 128  2200.037
 129  2129.863
 130  2161.53
 131  2206.871
 132  2244.898
 133  2352.522
 134  2307.216
 135  2284.733
 136  2468.233
 137  2563.712
 138  2551.327
 139  2335.828
 140  2197.85
 141  2104.674
 142  1997.367
 143  2031.94
 144  2027.839
 145  2228.543
 146  2274.486
 147  2436.384
 148  2351.321
 149  2380.773
 150  2354.429
 151  2436.348
 152  2532.612
 153  2505.385
 154  2515.022
 155  2446.521
 156  2337.031
 157  2481.45
 158  2471.727
 159  2375.654
 160  2356.259
 161  2262.219
 162  2119.955
 163  1884.229
 164  1995.379
 165  2173.701
 166  2177.502
 167  2195.079
 168  2364.221
 169  2407.49
 170  2410.821
 171  2396.309
 172  2492.754
 173  2327.926
 174  2252.702
 175  2216.627
 176  2273.506
 177  2318.806
 178  2440.378
 179  2588.866
 180  2520.16
 181  2580.946
 182  2498.52
 183  2569.441
 184  2538.609
 185  2515.327
 186  2425.596
 187  2359.934
 188  2310.876
 189  2290.09
 190  2315.265
 191  2354.52
 192  2346.687
 193  2379.751
 194  2370.608
 195  2384.671
 196  2286.882
 197  2347.739
 198  2335.502
 199  2231.125
 200  2210.549
 201  2363.463
 202  2437.438
 203  2358.961
 204  2264.773
 205  2283.664
 206  2408.701
 207  2415.026
 208  2342.178
 209  2259.542
 210  2240.674
 211  2369.61
 212  2361.733
 213  2403.853
 214  2346.688
 215  2355.597
 216  2510.521
 217  2538.01
 218  2583.38
 219  2348.804
 220  2210.562
 221  2154.345
 222  2312.517
 223  2260.587
 224  2229.496
 225  2224.049
 226  2273.304
 227  2445.415
 228  2629.53
 229  2698.031
 230  2776.828
 231  2684.378
 232  2697.92
 233  2550.816
 234  2486.346
 235  2493.696
 236  2478.858
 237  2393.802
 238  2229.333
 239  2209.078
 240  2161.793
 241  2116.686
 242  2116.131
 243  2360.998
 244  2522.29
 245  2634.044
 246  2529.008
 247  2400.32
 248  2360.445
 249  2448.04
 250  2344.222
 251  2359.199
 252  2263.219
 253  2321.557
 254  2223.953
 255  2199.096
 256  2317.708
 257  2363.721
 258  2530.574
 259  2542.766
 260  2440.631
 261  2459.042
 262  2379.323
 263  2469.762
 264  2248.588
 265  2312.925
 266  2493.841
 267  2517.348
 268  2512.033
 269  2454.996
 270  2568.673
 271  2512.657
 272  2443.452
 273  2515.337
 274  2499.752
 275  2539.829
 276  2482.006
 277  2353.719
 278  2336.698
 279  2352.406
 280  2514.431
 281  2512.085
 282  2465.457
 283  2403.284
 284  2434.09
 285  2453.995
 286  2353.071
 287  2434.286
 288  2382.309
 289  2334.302
 290  2179.855
 291  2078.04
 292  2057.319
 293  2045.553
 294  2080.803
 295  2213.033
 296  2158.902
 297  2126.271
 298  2149.563
 299  2355.431
 300  2560.948
 301  2591.433
 302  2591.154
 303  2420.905
 304  2379.554
 305  2438.172
 306  2458.89
 307  2341.772
 308  2275.71
 309  2284.471
 310  2310.581
 311  2178.6
 312  2159.928
 313  2243.962
 314  2286.791
 315  2351.28
 316  2467.681
 317  2501.588
 318  2514.444
 319  2460.115
 320  2501.203
 321  2550.066
 322  2532.224
 323  2479.024
 324  2369.76
 325  2238.875
 326  2183.404
 327  2300.684
 328  2444.549
 329  2483.166
 330  2544.522
 331  2635.956
 332  2732.998
 333  2718.579
 334  2638.196
 335  2562.76
 336  2414.068
 337  2396.288
 338  2432.563
 339  2473.729
 340  2551.967
 341  2648.645
 342  2716.283
 343  2594.801
 344  2502.171
 345  2514.979
 346  2480.881
 347  2466.181
 348  2474.664
 349  2632.564
 350  2627.299
 351  2619.649
 352  2620.06
 353  2770.325
 354  2657.885
 355  2434.883
 356  2248.684
 357  2274.031
 358  2526.071
 359  2682.589
 360  2591.698
 361  2450.573
 362  2438.821
 363  2533.676
 364  2405.123
 365  2367.187
 366  2515.337
 367  2623.147
 368  2613.622
 369  2583.435
 370  2657.772
 371  2677.46
 372  2587.853
 373  2641.17
 374  2624.349
 375  2600.806
 376  2441.044
 377  2437.271
 378  2517.527
 379  2513.269
 380  2615.347
 381  2686.158
 382  2745.942
 383  2730.319
 384  2648.132
 385  2695.408
 386  2757.101
 387  2710.854
 388  2723.773
 389  2712.978
 390  2743.418
 391  2621.925
 392  2538.116
 393  2378.983
 394  2308.006
 395  2196.988
 396  2213.637
 397  2350.019
 398  2406.8
 399  2546.314
 400  2612.088
 401  2679.989
 402  2621.57
 403  2541.293
 404  2475.557
 405  2522.675
 406  2536.601
 407  2477.774
 408  2449.01
 409  2467.542
 410  2397.512
 411  2331.794
 412  2286.697
 413  2334.732
 414  2413.798
 415  2502.651
 416  2671.486
 417  2536.625
 418  2576.488
 419  2364.614
 420  2311.632
 421  2303.486
 422  2298.655
 423  2299.968
 424  2294.055
 425  2294.849
 426  2353.597
 427  2431.373
 428  2330.698
 429  2324.16
 430  2357.575
 431  2397.22
 432  2389.014
 433  2277.776
 434  2282.134
 435  2355.15
 436  2363.028
 437  2253.083
 438  2253.851
 439  2210.932
 440  2181.323
 441  2160.868
 442  2263.886
 443  2343.557
 444  2272.9
 445  2183.306
 446  2102.411
 447  2180.269
 448  2113.969
 449  2095.715
 450  1960.743
 451  2160.449
 452  2225.439
 453  2318.056
 454  2276.205
 455  2315.476
 456  2444.566
 457  2404.276
 458  2256.913
 459  2309.54
 460  2361.417
 461  2211.515
 462  2012.916
 463  2048.073
 464  2346.809
 465  2460.956
 466  2388.816
 467  2338.75
 468  2267.532
 469  2304.721
 470  2330.725
 471  2431.328
 472  2581.696
 473  2528.346
 474  2511.382
 475  2475.248
 476  2434.319
 477  2403.518
 478  2253.811
 479  2317.544
 480  2438.079
 481  2556.837
 482  2489.536
 483  2553.818
 484  2584.362
 485  2585.292
 486  2433.154
 487  2390.349
 488  2366.234
 489  2382.211
 490  2353.501
 491  2426.631
 492  2303.937
 493  2257.644
 494  2342.297
 495  2378.07
 496  2256.057
 497  2278.342
 498  2431.305
 499  2473.544
 500  2448.519
 501  2284.268
 502  2329.363
 503  2328.909
 504  2379.231
 505  2226.67
 506  2095.727
 507  2144.727
 508  2204.763
 509  2226.918
 510  2213.23
 511  2069.985
 512  2171.235
 513  2234.381
 514  2338.872
 515  2245.321
 516  2267.272
 517  2268.229
 518  2440.554
 519  2337.265
 520  2207.181
 521  2061.243
 522  2180.229
 523  2216.857
 524  2187.606
 525  2164.217
 526  2211.885
 527  2200.929
 528  2300.77
 529  2480.27
 530  2587.369
 531  2535.694
 532  2439.823
 533  2483.412
 534  2544.431
 535  2478.319
 536  2432.317
 537  2516.816
 538  2602.333
 539  2619.614
 540  2499.946
 541  2491.814
 542  2547.255
 543  2656.668
 544  2666.904
 545  2687.361
 546  2604.829
 547  2649.828
 548  2602.346
 549  2548.845
 550  2476.195
 551  2460.332
 552  2393.478
 553  2461.133
 554  2359.597
 555  2434.702
 556  2491.573
 557  2662.859
 558  2650.455
 559  2695.402
 560  2631.176
 561  2555.448
 562  2501.794
 563  2531.666
 564  2580.91
 565  2518.769
 566  2579.546
 567  2649.915
 568  2752.122
 569  2774.494
 570  2615.756
 571  2584.777
 572  2530.356
 573  2560.064
 574  2563.904
 575  2456.796
 576  2404.187
 577  2399.643
 578  2526.519
 579  2623.714
 580  2624.761
 581  2626.72
 582  2636.173
 583  2569.614
 584  2457.23
 585  2341.734
 586  2481.288
 587  2593.881
 588  2713.329
 589  2520.148
 590  2415.241
 591  2279.376
 592  2243.914
 593  2166.531
 594  2224.886
 595  2437.926
 596  2532.215
 597  2536.899
 598  2475.061
 599  2586.212
 600  2697.299
 601  2646.883
 602  2536.458
 603  2500.653
 604  2415.76
 605  2318.517
 606  2298.956
 607  2332.005
 608  2331.624
 609  2359.681
 610  2461.96
 611  2511.837
 612  2585.417
 613  2705.066
 614  2738.825
 615  2727.724
 616  2717.36
 617  2676.681
 618  2512.787
 619  2507.861
 620  2524.808
 621  2561.241
 622  2475.396
 623  2595.159
 624  2777.848
 625  2851.245
 626  2729.014
 627  2613.846
 628  2614.939
 629  2647.623
 630  2582.992
 631  2541.749
 632  2473.963
 633  2456.604
 634  2331.153
 635  2293.89
 636  2311.686
 637  2311.99
 638  2284.221
 639  2248.67
 640  2301.225
 641  2354.093
 642  2294.565
 643  2250.507
 644  2249.612
 645  2431.782
 646  2510.995
 647  2545.574
 648  2411.35
 649  2381.018
 650  2427.01
 651  2424.082
 652  2416.335
 653  2388.75
 654  2324.327
 655  2326.547
 656  2301.103
 657  2267.928
 658  2344.609
 659  2372.052
 660  2386.377
 661  2287.432
 662  2224.772
 663  2153.823
 664  2276.311
 665  2425.716
 666  2422.626
 667  2385.49
 668  2329.358
 669  2149.654
 670  2046.12
 671  2005.824
 672  2108.134
 673  2149.348
 674  2222.977
 675  2232.5
 676  2217.37
 677  2325.183
 678  2412.293
 679  2443.179
 680  2305.738
 681  2241.991
 682  2306.588
 683  2318.712
 684  2260.623
 685  2394.991
 686  2451.262
 687  2404.925
 688  2326.119
 689  2463.246
 690  2430.887
 691  2307.52
 692  2209.411
 693  2343.343
 694  2278.775
 695  2171.053
 696  2253.742
 697  2393.529
 698  2413.975
 699  2364.229
 700  2320.686
 701  2281.295
 702  2251.938
 703  2239.77
 704  2177.479
 705  2160.463
 706  2282.347
 707  2301.84
 708  2376.468
 709  2322.706
 710  2258.11
 711  2268.464
 712  2197.413
 713  2189.862
 714  2209.78
 715  2351.342
 716  2286.882
 717  2398.136
 718  2406.417
 719  2427.945
 720  2360.517
 721  2207.083
 722  2100.268
 723  1965.039
 724  2120.74
 725  2204.031
 726  2212.469
 727  2278.851
 728  2282.268
 729  2340.428
 730  2171.069
 731  2113.479
 732  2092.861
 733  2238.982
 734  2222.679
 735  2170.213
 736  2134.093
 737  2129.466
 738  2202.786
 739  2153.758
 740  2149.902
 741  2148.409
 742  2096.728
 743  2204.964
 744  2315.974
 745  2461.812
 746  2518.978
 747  2524.957
 748  2532.079
 749  2402.368
 750  2244.036
 751  2156.928
 752  2143.12
 753  2218.09
 754  2308.163
 755  2307.89
 756  2250.893
 757  2327.221
 758  2509.773
 759  2600.603
 760  2525.092
 761  2421.818
 762  2282.905
 763  2298.875
 764  2366.65
 765  2391.724
 766  2368.242
 767  2244.408
 768  2205.598
 769  2092.811
 770  2125.672
 771  2208.53
 772  2231.879
 773  2168.518
 774  2230.145
 775  2310.009
 776  2278.999
 777  2310.698
 778  2309.354
 779  2548.173
 780  2428.216
 781  2333.928
 782  2298.156
 783  2441.776
 784  2606.951
 785  2548.428
 786  2489.862
 787  2430.613
 788  2409.827
 789  2349.387
 790  2236.308
 791  2199.019
 792  2104.74
 793  2289.888
 794  2307.016
 795  2463.184
 796  2440.669
 797  2475.986
 798  2406.015
 799  2270.395
 800  2332.044
 801  2442.847
 802  2521.305
 803  2628.328
 804  2691.537
 805  2674.261
 806  2431.502
 807  2240.398
 808  2242.332
 809  2349.668
 810  2336.611
 811  2320.995
 812  2232.43
 813  2272.439
 814  2323.956
 815  2420.384
 816  2427.435
 817  2360.332
 818  2446.505
 819  2614.648
 820  2620.951
 821  2523.622
 822  2475.012
 823  2570.373
 824  2679.501
 825  2638.586
 826  2569.699
 827  2583.907
 828  2590.119
 829  2623.995
 830  2496.892
 831  2445.766
 832  2412.914
 833  2359.57
 834  2251.281
 835  2238.178
 836  2371.586
 837  2429.091
 838  2530.658
 839  2475.863
 840  2567.401
 841  2681.247
 842  2641.645
 843  2596.064
 844  2526.193
 845  2361.557
 846  2300.032
 847  2257.945
 848  2259.175
 849  2234.05
 850  2157.28
 851  2264.736
 852  2349.344
 853  2517.034
 854  2415.959
 855  2315.993
 856  2283.538
 857  2417.561
 858  2517.325
 859  2444.933
 860  2482.3
 861  2567.245
 862  2665.455
 863  2619.944
 864  2549.71
 865  2501.438
 866  2377.903
 867  2357.377
 868  2340.705
 869  2435.256
 870  2465.106
 871  2478.664
 872  2399.059
 873  2436.153
 874  2457.205
 875  2515.677
 876  2416.878
 877  2357.11
 878  2373.266
 879  2476.3
 880  2432.096
 881  2422.328
 882  2520.741
 883  2543.476
 884  2548.384
 885  2435.615
 886  2506.107
 887  2481.49
 888  2469.546
 889  2600.516
 890  2557.352
 891  2547.785
 892  2286.901
 893  2271.771
 894  2320.515
 895  2322.018
 896  2328.336
 897  2428.536
 898  2331.651
 899  2241.706
 900  2119.646
 901  2141.716
 902  2202.798
 903  2212.611
 904  2284.325
 905  2168.811
 906  2289.081
 907  2369.422
 908  2435.068
 909  2393.469
 910  2410.389
 911  2444.847
 912  2337.846
 913  2241.267
 914  2221.217
 915  2308.356
 916  2468.344
 917  2510.458
 918  2516.652
 919  2413.041
 920  2307.233
 921  2361.128
 922  2404.639
 923  2386.961
 924  2349.354
 925  2509.756
 926  2589.005
 927  2441.179
 928  2369.227
 929  2382.914
 930  2449.937
 931  2371.598
 932  2363.855
 933  2304.161
 934  2337.683
 935  2295.847
 936  2204.485
 937  2084.978
 938  1978.97
 939  2003.908
 940  2068.533
 941  2120.946
 942  2105.029
 943  2110.579
 944  2144.202
 945  2152.003
 946  2299.269
 947  2219.392
 948  2232.493
 949  2189.426
 950  2163.897
 951  2148.944
 952  2094.558
 953  2202.433
 954  2199.795
 955  2332.432
 956  2242.71
 957  2273.018
 958  2298.268
 959  2474.915
 960  2499.537
 961  2406.525
 962  2210.9
 963  2032.876
 964  2038.169
 965  2025.146
 966  2025.554
 967  2021.468
 968  2174.647
 969  2310.732
 970  2337.514
 971  2259.676
 972  2182.07
 973  2084.025
 974  2213.41
 975  2382.032
 976  2417.786
 977  2215.976
 978  2039.261
 979  2144.642
 980  2345.074
 981  2378.908
 982  2452.177
 983  2396.277
 984  2351.882
 985  2230.288
 986  2264.802
 987  2226.713
 988  2109.91
 989  2147.074
 990  2272.29
 991  2387.567
 992  2314.953
 993  2467.874
 994  2615.079
 995  2512.182
 996  2435.859
 997  2486.813
 998  2556.237
 999  2441.542
1000  2374.455
1001  2424.654
1002  2448.465
1003  2370.664
1004  2482.034
1005  2488.745
1006  2407.531
1007  2436.616
1008  2440.204
1009  2451.941
1010  2363.194
1011  2522.52
1012  2600.175
1013  2614.056
1014  2507.807
1015  2476.605
1016  2443.331
1017  2483.752
1018  2456.445
1019  2468.752
1020  2439.905
1021  2455.421
1022  2484.836
1023  2372.289
