# Input file       =  1197499180.084148_cleaned.dat
# Candidate        =  PSR_0332+5434
# Telescope        =  AR
# Epoch_topo       =  58103.944433844306
# Epoch_bary       =  N/A
# T_sample         =  0.002
# Data Folded      =  7340032
# Data Avg         =  0.0492249471367914
# Data StdDev      =  1.00005261894729 
# Profile Bins     =  512
# Profile Avg      =  705.697382079863 
# Profile StdDev   =  119.739336603097 
# Reduced chi-sqr  =  0.937
# Prob(Noise)      <  0.845   (~0.0 sigma)
# P_topo (ms)      =  714.542217860717  +/- 0.000129
# P'_topo (s/s)    =  -0                +/- 6.81e-11
# P''_topo (s/s^2) =  0                 +/- 3.01e-14
# P_bary (ms)      =  N/A
# P'_bary (s/s)    =  N/A
# P''_bary (s/s^2) =  N/A
# P_orb (s)        =  N/A
# asin(i)/c (s)    =  N/A
# eccentricity     =  N/A
# w (rad)          =  N/A
# T_peri           =  N/A
######################################################
   0  677.412
   1  832.3311
   2  764.5902
   3  707.1564
   4  703.0928
   5  673.5739
   6  642.4311
   7  608.6447
   8  662.717
   9  742.9683
  10  614.4926
  11  663.7682
  12  650.9371
  13  651.6273
  14  616.4453
  15  742.8405
  16  893.3038
  17  768.884
  18  635.7422
  19  619.1476
  20  637.5446
  21  838.6334
  22  938.1578
  23  741.7279
  24  657.9164
  25  798.7025
  26  749.1536
  27  761.6394
  28  781.4238
  29  848.421
  30  803.1812
  31  816.8655
  32  794.3466
  33  882.7553
  34  891.0132
  35  735.6635
  36  640.6315
  37  705.2852
  38  819.6487
  39  796.8124
  40  746.2243
  41  789.4056
  42  744.9491
  43  693.2835
  44  804.1138
  45  866.1268
  46  705.4633
  47  564.2708
  48  593.6367
  49  619.0257
  50  644.8422
  51  712.3065
  52  884.6627
  53  827.5793
  54  627.9478
  55  541.9022
  56  655.0187
  57  726.5581
  58  759.326
  59  789.2111
  60  765.6964
  61  714.1604
  62  666.8536
  63  713.7064
  64  696.4808
  65  666.3243
  66  654.212
  67  637.5258
  68  661.2236
  69  776.1779
  70  823.8648
  71  754.9182
  72  767.0905
  73  698.1997
  74  706.474
  75  734.0795
  76  818.9368
  77  805.4265
  78  629.1917
  79  761.8378
  80  734.3209
  81  721.0133
  82  720.4654
  83  735.9385
  84  790.6287
  85  828.1307
  86  764.5643
  87  759.4483
  88  918.8464
  89  1115.316
  90  1136.061
  91  1070.348
  92  951.4407
  93  912.2437
  94  752.1802
  95  716.9027
  96  711.153
  97  723.8897
  98  679.5043
  99  732.6542
 100  677.369
 101  666.4194
 102  770.2265
 103  800.6173
 104  778.3208
 105  750.9418
 106  645.6699
 107  629.3877
 108  672.3954
 109  696.4145
 110  623.8392
 111  604.3773
 112  597.0259
 113  708.033
 114  776.2355
 115  761.8492
 116  773.3261
 117  604.6838
 118  578.1815
 119  534.2403
 120  531.1892
 121  529.6508
 122  594.1443
 123  736.2608
 124  778.5726
 125  592.8258
 126  630.7472
 127  680.8239
 128  674.1494
 129  759.0634
 130  767.2845
 131  831.9249
 132  729.2603
 133  734.2082
 134  677.0566
 135  688.5739
 136  724.1864
 137  681.549
 138  649.7972
 139  583.9374
 140  691.42
 141  666.8156
 142  793.1356
 143  683.9814
 144  614.2365
 145  659.0659
 146  648.0048
 147  727.6896
 148  795.3668
 149  731.7453
 150  645.3057
 151  639.4172
 152  752.4633
 153  731.7166
 154  826.4832
 155  691.6063
 156  689.7705
 157  660.2982
 158  690.6293
 159  822.6418
 160  828.9237
 161  823.3264
 162  779.6852
 163  758.8782
 164  700.3548
 165  805.0657
 166  820.8277
 167  809.9578
 168  808.0359
 169  710.222
 170  751.6567
 171  675.212
 172  673.6534
 173  811.7835
 174  801.1467
 175  672.6158
 176  735.2469
 177  791.3937
 178  761.4966
 179  683.8611
 180  768.2833
 181  782.3766
 182  670.7575
 183  686.8171
 184  675.4481
 185  620.6735
 186  643.2997
 187  701.9244
 188  641.4401
 189  715.4611
 190  704.9644
 191  680.1398
 192  718.8857
 193  704.9837
 194  751.4438
 195  704.0806
 196  619.0445
 197  683.1537
 198  717.1139
 199  642.8396
 200  690.6989
 201  772.7947
 202  755.5931
 203  890.4265
 204  991.4172
 205  952.7861
 206  821.7422
 207  754.1735
 208  720.2714
 209  613.2919
 210  600.2159
 211  658.6602
 212  756.3484
 213  720.4471
 214  784.8745
 215  835.3004
 216  828.1402
 217  792.3119
 218  809.1314
 219  713.322
 220  680.7156
 221  699.0291
 222  704.0011
 223  777.9065
 224  788.8912
 225  698.4347
 226  689.8419
 227  690.0647
 228  672.3512
 229  755.8925
 230  783.0558
 231  713.4798
 232  647.6606
 233  603.1981
 234  643.9485
 235  685.6663
 236  638.509
 237  702.8178
 238  767.5217
 239  743.2174
 240  674.72
 241  702.1699
 242  677.3301
 243  626.2076
 244  660.4694
 245  720.5333
 246  728.9635
 247  608.17
 248  669.6305
 249  793.87
 250  740.2175
 251  718.9357
 252  519.1713
 253  582.3959
 254  599.8606
 255  662.2516
 256  744.3447
 257  710.5662
 258  709.369
 259  796.4857
 260  803.6458
 261  750.5592
 262  684.4513
 263  692.1514
 264  744.0128
 265  717.4712
 266  697.8249
 267  736.7247
 268  668.9167
 269  646.9659
 270  638.6202
 271  624.8513
 272  710.7873
 273  728.0109
 274  777.0238
 275  690.6306
 276  619.817
 277  582.5113
 278  532.4185
 279  596.8343
 280  545.9775
 281  619.3032
 282  668.2711
 283  611.1405
 284  620.3372
 285  660.884
 286  685.2432
 287  614.2494
 288  638.8689
 289  646.9026
 290  579.5845
 291  571.3937
 292  676.3335
 293  772.0825
 294  658.9885
 295  629.178
 296  683.9747
 297  698.5008
 298  642.9175
 299  602.0389
 300  728.1908
 301  705.9327
 302  643.0562
 303  613.9736
 304  695.7567
 305  755.4099
 306  734.4878
 307  651.2065
 308  671.7437
 309  723.847
 310  778.0189
 311  720.1038
 312  712.9542
 313  700.5504
 314  633.5883
 315  636.6057
 316  645.009
 317  835.4042
 318  857.7191
 319  765.2574
 320  712.3192
 321  741.8272
 322  669.1091
 323  735.6229
 324  844.1611
 325  728.7971
 326  641.2538
 327  725.0089
 328  795.2789
 329  601.0974
 330  596.0571
 331  762.4574
 332  676.8422
 333  636.3451
 334  631.0645
 335  714.5797
 336  760.1607
 337  699.2705
 338  602.0439
 339  687.4042
 340  768.6024
 341  756.1144
 342  731.2165
 343  765.043
 344  692.2894
 345  718.9952
 346  802.5803
 347  712.899
 348  649.0828
 349  592.4409
 350  646.3946
 351  725.9531
 352  625.7886
 353  661.6081
 354  639.0422
 355  720.9505
 356  680.616
 357  747.0469
 358  772.9105
 359  694.9954
 360  658.8486
 361  713.4611
 362  629.3972
 363  501.5151
 364  611.5908
 365  699.2988
 366  737.8047
 367  722.0633
 368  602.2697
 369  552.4097
 370  676.6739
 371  768.9601
 372  711.0194
 373  677.897
 374  732.3513
 375  749.2257
 376  788.5638
 377  616.5104
 378  736.2556
 379  741.3708
 380  696.6266
 381  730.3008
 382  728.9868
 383  645.3972
 384  592.9233
 385  778.4387
 386  695.4037
 387  674.0697
 388  767.9052
 389  802.8749
 390  713.7038
 391  769.6094
 392  832.907
 393  772.8363
 394  763.623
 395  773.5264
 396  734.5867
 397  684.1277
 398  674.6568
 399  753.2831
 400  757.9827
 401  861.9199
 402  737.408
 403  689.4189
 404  719.633
 405  716.4301
 406  710.8468
 407  772.9235
 408  738.8984
 409  635.9194
 410  661.4968
 411  697.1789
 412  705.5489
 413  664.4443
 414  648.1738
 415  543.1221
 416  510.4611
 417  655.5607
 418  656.8787
 419  551.7679
 420  675.6989
 421  742.1003
 422  691.5613
 423  586.1168
 424  723.0685
 425  702.2001
 426  702.766
 427  745.4288
 428  789.1844
 429  622.0521
 430  672.5369
 431  688.5627
 432  718.5065
 433  670.2384
 434  659.0813
 435  711.8541
 436  727.2686
 437  610.3236
 438  650.5457
 439  703.5922
 440  626.9527
 441  565.675
 442  631.012
 443  777.5573
 444  772.5601
 445  769.5352
 446  762.8719
 447  742.3699
 448  643.3954
 449  551.1307
 450  601.3635
 451  636.5996
 452  701.6203
 453  781.195
 454  819.321
 455  779.0407
 456  673.8268
 457  634.6294
 458  701.1977
 459  745.8358
 460  795.4738
 461  763.8951
 462  566.4036
 463  648.0078
 464  558.7466
 465  579.902
 466  593.5561
 467  628.3574
 468  722.5001
 469  675.3582
 470  669.9122
 471  750.835
 472  622.2756
 473  637.3917
 474  655.701
 475  705.2922
 476  670.7068
 477  643.7356
 478  729.2307
 479  659.9456
 480  656.4784
 481  660.6819
 482  639.2111
 483  752.9333
 484  707.8287
 485  706.9233
 486  730.1664
 487  713.1899
 488  609.0845
 489  518.5209
 490  504.2568
 491  626.8054
 492  612.7859
 493  742.1899
 494  670.8545
 495  609.3769
 496  597.8697
 497  565.3701
 498  456.7111
 499  628.4308
 500  730.8259
 501  663.7836
 502  662.8264
 503  599.6571
 504  539.8954
 505  703.7471
 506  839.1743
 507  823.4938
 508  742.6975
 509  809.914
 510  826.121
 511  732.1195
