# Input file       =  1197469409.100829_cleaned.dat
# Candidate        =  PSR_0332+5434
# Telescope        =  AR
# Epoch_topo       =  58103.599862278112
# Epoch_bary       =  N/A
# T_sample         =  0.002
# Data Folded      =  7340032
# Data Avg         =  1.22583669433308 
# Data StdDev      =  11.1925205892649 
# Profile Bins     =  1024
# Profile Avg      =  8786.80294763678 
# Profile StdDev   =  947.604032741278 
# Reduced chi-sqr  =  0.709
# Prob(Noise)      <  1   (~0.0 sigma)
# P_topo (ms)      =  714.541506076875  +/- 5.05e-05
# P'_topo (s/s)    =  -0                +/- 2.66e-11
# P''_topo (s/s^2) =  0                 +/- 1.18e-14
# P_bary (ms)      =  N/A
# P'_bary (s/s)    =  N/A
# P''_bary (s/s^2) =  N/A
# P_orb (s)        =  N/A
# asin(i)/c (s)    =  N/A
# eccentricity     =  N/A
# w (rad)          =  N/A
# T_peri           =  N/A
######################################################
   0  8823.88
   1  8928.736
   2  9009.672
   3  8423.614
   4  8446.015
   5  8853.777
   6  9268.131
   7  9470.577
   8  9601.429
   9  9485.508
  10  9183.688
  11  8614.781
  12  8591.16
  13  8607.599
  14  8532.777
  15  8647.5
  16  8773.757
  17  8934.344
  18  9129.047
  19  9235.72
  20  9533.202
  21  9594.456
  22  9246.162
  23  9249.422
  24  8827.081
  25  8796.479
  26  8833.243
  27  8927.113
  28  8750.282
  29  8420.773
  30  8487.154
  31  8951.102
  32  8744.639
  33  8988.909
  34  9266.038
  35  9032.091
  36  9156.058
  37  9166.759
  38  9129.666
  39  8819.917
  40  8334.955
  41  8677.999
  42  9160.929
  43  9012.839
  44  9308.904
  45  8896.536
  46  8703.873
  47  8479.733
  48  8816.731
  49  9619.439
  50  9471.399
  51  9299.412
  52  9460.022
  53  9266.859
  54  9253.073
  55  9382.967
  56  9294.516
  57  8976.169
  58  8975.861
  59  9190.253
  60  9109.706
  61  8647.378
  62  9040.253
  63  9638.915
  64  9746.693
  65  9663.835
  66  9580.024
  67  9585.846
  68  8863.938
  69  8562.815
  70  8831.678
  71  8699.071
  72  8374.968
  73  8503.021
  74  8527.368
  75  8409.585
  76  8192.785
  77  8333.853
  78  8086.97
  79  8051.748
  80  8453.571
  81  8672.005
  82  8583.076
  83  8712.806
  84  8958.874
  85  9104.605
  86  9199.155
  87  9336.334
  88  9403.435
  89  8753.913
  90  8591.419
  91  9088.157
  92  9234.156
  93  9296.011
  94  8929.646
  95  8985.33
  96  8853.179
  97  8645.857
  98  8885.173
  99  9261.837
 100  9117.572
 101  9138.775
 102  8750.011
 103  8417.534
 104  8386.268
 105  8544.833
 106  8825.101
 107  8564.854
 108  8383.982
 109  8893.032
 110  9105.788
 111  9166.212
 112  9391.169
 113  9561.157
 114  9631.051
 115  9442.022
 116  9464.898
 117  9668.667
 118  9417.378
 119  9331.272
 120  9638.716
 121  9543.608
 122  9302.631
 123  9249.031
 124  9366.754
 125  9244.507
 126  8588
 127  8463.126
 128  8915.085
 129  8803.114
 130  9120.402
 131  8831.595
 132  8768.865
 133  8399.9
 134  8342.84
 135  8631.012
 136  8497.155
 137  8465.075
 138  8777.021
 139  8768.985
 140  8650.943
 141  8563.489
 142  8635.302
 143  8474.057
 144  8366.567
 145  8677.25
 146  8854.877
 147  8823.671
 148  9171.781
 149  9233.682
 150  9252.922
 151  9022.891
 152  9306.965
 153  9267.211
 154  9004.595
 155  8728.942
 156  8827.228
 157  8957.713
 158  8667.393
 159  8583.771
 160  7986.454
 161  7868.308
 162  7657.122
 163  8254.046
 164  8381.281
 165  8406.328
 166  8989.389
 167  9342.176
 168  9008.676
 169  8851.604
 170  8936.348
 171  9225.312
 172  8857.208
 173  8984.988
 174  9116.745
 175  8608.905
 176  8136.363
 177  8616.783
 178  9029.878
 179  9087.905
 180  9092.599
 181  9242.755
 182  9120.562
 183  8589.646
 184  8883.05
 185  9433.763
 186  9016.292
 187  9187.57
 188  9401.75
 189  9332.686
 190  9082.891
 191  8734.258
 192  9240.949
 193  8980.656
 194  8603.431
 195  9228.247
 196  9430.232
 197  9558.744
 198  9237.127
 199  8965.606
 200  9073.711
 201  8803.49
 202  8869.695
 203  9034.653
 204  8644.461
 205  8848.291
 206  9380.581
 207  9192.99
 208  9048.23
 209  8578.729
 210  8961.104
 211  8781.634
 212  8591.736
 213  8559.843
 214  8923.183
 215  8787.104
 216  9079.857
 217  8884.192
 218  8799.971
 219  8966.748
 220  9410.12
 221  9426.779
 222  8985.87
 223  8630.021
 224  8531.457
 225  8262.229
 226  8183.136
 227  8088.312
 228  8164.079
 229  8262.28
 230  8593.668
 231  9035.974
 232  8989.028
 233  9028.265
 234  9179.381
 235  9313.464
 236  9231.562
 237  9261.797
 238  9240.128
 239  9119.091
 240  8325.104
 241  8124.866
 242  8116.974
 243  7805.029
 244  7609.321
 245  8114.158
 246  8506.732
 247  8635.247
 248  8805.144
 249  9253.092
 250  9429.261
 251  9132.047
 252  9411.218
 253  9176.329
 254  8800.424
 255  8763.101
 256  8868.716
 257  8933.63
 258  8962.995
 259  9145.701
 260  9403.886
 261  9359.674
 262  9456.444
 263  9796.213
 264  9663.426
 265  9617.116
 266  9438.755
 267  9270.542
 268  8778.331
 269  7988.537
 270  8193.854
 271  8890.611
 272  9061.087
 273  8978.993
 274  9000.144
 275  8906.518
 276  9162.828
 277  8690.223
 278  8705.3
 279  8651.756
 280  8725.53
 281  9201.618
 282  8956.902
 283  8941.626
 284  9363.821
 285  9521.378
 286  9540.573
 287  9336.979
 288  9510.235
 289  9549.254
 290  8829.606
 291  8672.691
 292  9124.133
 293  9028.487
 294  9115.449
 295  8581.894
 296  8802.213
 297  8558.995
 298  8706.889
 299  8960.618
 300  9081.786
 301  9076.53
 302  9158.111
 303  8928.329
 304  8804.017
 305  8453.49
 306  8082.171
 307  8313.667
 308  8353.268
 309  8579.186
 310  8864.036
 311  8833.061
 312  8591.106
 313  8599.857
 314  8668.99
 315  8932.329
 316  9002.135
 317  9373.994
 318  9116.36
 319  8718.719
 320  8825.548
 321  9542.879
 322  9465.741
 323  8881.73
 324  8312.771
 325  8283.455
 326  8335.525
 327  8270.462
 328  8603.238
 329  8793.885
 330  8961.682
 331  8929.681
 332  9045.859
 333  9202.99
 334  9095.501
 335  9066.394
 336  8986.287
 337  9112.739
 338  9119.464
 339  8956.569
 340  8495.29
 341  8896.027
 342  8578.89
 343  8736.064
 344  8596.491
 345  8773.816
 346  9027.881
 347  8737.439
 348  8534.51
 349  8929.64
 350  8916.46
 351  9003.154
 352  8833.795
 353  8717.6
 354  8776.795
 355  8384.136
 356  8786.336
 357  9025.745
 358  8788.643
 359  8965.806
 360  8883.739
 361  8936.298
 362  8736.233
 363  8839.596
 364  9142.439
 365  9062.805
 366  8793.885
 367  9153.289
 368  9014.577
 369  8994.564
 370  8773.989
 371  8611.333
 372  8756.924
 373  8593.595
 374  8768.943
 375  8941.024
 376  8560.549
 377  8497.86
 378  8471.852
 379  8528.896
 380  8630.874
 381  9007.111
 382  8969.67
 383  8803.021
 384  8817.086
 385  9327.995
 386  9494.588
 387  9424.67
 388  9585.158
 389  9473.704
 390  8668.478
 391  8601.207
 392  8645.363
 393  8849.75
 394  8906.904
 395  9099.678
 396  9421.062
 397  9103.488
 398  9048.072
 399  9482.655
 400  9549.305
 401  9597.077
 402  9508.81
 403  9556.363
 404  9216.046
 405  9070.983
 406  9375.402
 407  9680.215
 408  9616.016
 409  9567.744
 410  9314.824
 411  9133.992
 412  9055.26
 413  9133.53
 414  9667.539
 415  9600.564
 416  9671.678
 417  9995.125
 418  9958.544
 419  9471.138
 420  8978.973
 421  9153.864
 422  9368.503
 423  9293.179
 424  9297.17
 425  8933.865
 426  8744.867
 427  9147.412
 428  9232.615
 429  9146.847
 430  8923.775
 431  9200.716
 432  9540.38
 433  8842.13
 434  8495.363
 435  8660.624
 436  8786.881
 437  8540.601
 438  8023.523
 439  7941.704
 440  8206.995
 441  7956.938
 442  8277.019
 443  8794.871
 444  8990.537
 445  9506.156
 446  9240.019
 447  8840.979
 448  8702.898
 449  8609.122
 450  8959.611
 451  8947.088
 452  8775.772
 453  8809.1
 454  8506.405
 455  8534.542
 456  8697.869
 457  8670.946
 458  9075.518
 459  9143.949
 460  8930.607
 461  8402.141
 462  8017.568
 463  7993.415
 464  7944.12
 465  7708.946
 466  7998.544
 467  8023.513
 468  7864.861
 469  7859.527
 470  8158.127
 471  8027.784
 472  7901.927
 473  8084.474
 474  8510.02
 475  8380.409
 476  7868.295
 477  7994.945
 478  8148.749
 479  8307.38
 480  8192.716
 481  8516.804
 482  9082.736
 483  8916.643
 484  8987.613
 485  9084.329
 486  8957.835
 487  9131.952
 488  8883.261
 489  8647.591
 490  7796.611
 491  7613.608
 492  8109.348
 493  8381.392
 494  8341.059
 495  8430.78
 496  8437.023
 497  8434.768
 498  8311.68
 499  8567.424
 500  8644.822
 501  8736.897
 502  8823.189
 503  8628.439
 504  7981.439
 505  7809.012
 506  7878.507
 507  8159.955
 508  8401.582
 509  8650.369
 510  8981.654
 511  8690.524
 512  8482.798
 513  8524.872
 514  8718.23
 515  8914.023
 516  8958.867
 517  8974.154
 518  8964.858
 519  8732.79
 520  8891.614
 521  9399.616
 522  9205.354
 523  9095.925
 524  8736.687
 525  8463.895
 526  8452.361
 527  8385.742
 528  8650.165
 529  8735.463
 530  8571.3
 531  8861.213
 532  8500.35
 533  8342.444
 534  8452.796
 535  8822.512
 536  8872.909
 537  8380.372
 538  8134.917
 539  8349.285
 540  8195.417
 541  8116.309
 542  8539.667
 543  8493.284
 544  8503.479
 545  8244.494
 546  8520.847
 547  8646.34
 548  8470.228
 549  8604.006
 550  8956.426
 551  8427.261
 552  8350.083
 553  7967.673
 554  7821.5
 555  7834.075
 556  7788.217
 557  7987.393
 558  8069.434
 559  8262.215
 560  8936.131
 561  8741.279
 562  8236.148
 563  8204.793
 564  8534.22
 565  8799.827
 566  8711.379
 567  8454.643
 568  8438.771
 569  8251.657
 570  8224.917
 571  8515.466
 572  8491.502
 573  8587.572
 574  8353.052
 575  8224.425
 576  7807.032
 577  8035.474
 578  8794.006
 579  9334.963
 580  9337.019
 581  9375.646
 582  9228.902
 583  9211.832
 584  8967.683
 585  8971.894
 586  9015.352
 587  8814.269
 588  9038.959
 589  9191.25
 590  8942.594
 591  8763.641
 592  8864.527
 593  9226.25
 594  9164.128
 595  8884.709
 596  9089.641
 597  8729.265
 598  8394.335
 599  8565.731
 600  9041.923
 601  8906.409
 602  8669.9
 603  8454.793
 604  8769.704
 605  8107.428
 606  8399.532
 607  8716.013
 608  8821.43
 609  8920.322
 610  9006.188
 611  9098.895
 612  9097.59
 613  9049.771
 614  9234.798
 615  9141.636
 616  8608.15
 617  9013.098
 618  8846.823
 619  8454.561
 620  8224.73
 621  8563.753
 622  8970.164
 623  8951.955
 624  9147.467
 625  9292.4
 626  9077.404
 627  9078.603
 628  9453.269
 629  9409.888
 630  9414.064
 631  9306.553
 632  8892.224
 633  8641.12
 634  8166.126
 635  8134.343
 636  8201.923
 637  7971.218
 638  8313.578
 639  8444.483
 640  8508.824
 641  8443.298
 642  8449.376
 643  9010.373
 644  9209.217
 645  9599.134
 646  9908.96
 647  9756.15
 648  9381.49
 649  9261.302
 650  9176.534
 651  9257.276
 652  8964.261
 653  9230.063
 654  9105.628
 655  8805.368
 656  8905.188
 657  9107.421
 658  9021.967
 659  9019.974
 660  9388.147
 661  9660.322
 662  9285.336
 663  9279.51
 664  9295.28
 665  9803.58
 666  9479.022
 667  9504.765
 668  9210.15
 669  9058.782
 670  8735.226
 671  9018.436
 672  9228.092
 673  9065.514
 674  9186.696
 675  9615.781
 676  9567.887
 677  9753.501
 678  9339.043
 679  9247.845
 680  8839.686
 681  9114.783
 682  9681.455
 683  9433.562
 684  9310.501
 685  9353.086
 686  9194.847
 687  9136.035
 688  8592.604
 689  8677.007
 690  8635.062
 691  8664.823
 692  8592.578
 693  8836.163
 694  8393.985
 695  8676.293
 696  8836.979
 697  8903.416
 698  8684.854
 699  8540.201
 700  8707.686
 701  8784.439
 702  8488.801
 703  8940.505
 704  9119.425
 705  8864.983
 706  8575.759
 707  8342.94
 708  8720.86
 709  8853.828
 710  8871.825
 711  9052.076
 712  8631.994
 713  8684.097
 714  9024.489
 715  8843.26
 716  8678.565
 717  8599.801
 718  8549.998
 719  8610.235
 720  8053.207
 721  8094.981
 722  8014.903
 723  7896.556
 724  8247.322
 725  8153.468
 726  8179.244
 727  8392.572
 728  8421.921
 729  8730.818
 730  8663.094
 731  8837.425
 732  9224.587
 733  9391.724
 734  9300.024
 735  9218.451
 736  8928.453
 737  8914.21
 738  8540.15
 739  8824.944
 740  9013.797
 741  8823.469
 742  9079.154
 743  9291.02
 744  9783.966
 745  9674.375
 746  9677.738
 747  9411.665
 748  8968.091
 749  8685.848
 750  8863.78
 751  8770.583
 752  8797.594
 753  8821.921
 754  8717.504
 755  8493.709
 756  8411.495
 757  8565.751
 758  8762.037
 759  8480.592
 760  8649.015
 761  8844.12
 762  8747.933
 763  8381.414
 764  8229.396
 765  8297.891
 766  8241.832
 767  8010.343
 768  8082.232
 769  8054.142
 770  7991.499
 771  8396.954
 772  8510.736
 773  8337.199
 774  8411.636
 775  8788.472
 776  9199.455
 777  8438.479
 778  8595.503
 779  9152.062
 780  9328.824
 781  9304.83
 782  9233.338
 783  9122.604
 784  9053.631
 785  8516.046
 786  8388.651
 787  8484.727
 788  8537.67
 789  8941.468
 790  8732.618
 791  8655.354
 792  8823.355
 793  8969.526
 794  9087.463
 795  8784.78
 796  8880.348
 797  9082.188
 798  8856.389
 799  8675.283
 800  8772.58
 801  8816.677
 802  8739.102
 803  8715.16
 804  8929.729
 805  9141.706
 806  8938.06
 807  8918.531
 808  9235.978
 809  9404.627
 810  9462.754
 811  9337.746
 812  9464.091
 813  8824.51
 814  8171.225
 815  8098.679
 816  8207.547
 817  8122.264
 818  8157.462
 819  8004.091
 820  8133.479
 821  7895.848
 822  7813.11
 823  8149.324
 824  8384.023
 825  8551.527
 826  8606.783
 827  8299.972
 828  8088.435
 829  8061.965
 830  8158.007
 831  8093.48
 832  7964.439
 833  8115.302
 834  8224.059
 835  8028.091
 836  7898.174
 837  7981.808
 838  8030.012
 839  8250.392
 840  8190.107
 841  8537.391
 842  8499.542
 843  8780.991
 844  8872.852
 845  8641.855
 846  8400.51
 847  8124.712
 848  8001.405
 849  8136.173
 850  8273.379
 851  8578.668
 852  8602.057
 853  7983.187
 854  7934.075
 855  7667.571
 856  7826.34
 857  8124.669
 858  8073.799
 859  8242.719
 860  8337.741
 861  8919.009
 862  8930.048
 863  8133.285
 864  7904.891
 865  8517.371
 866  8932.368
 867  9134.447
 868  9090.435
 869  8465.438
 870  8340.469
 871  7794.204
 872  8303.245
 873  8196.522
 874  8229.201
 875  8386.799
 876  8322.13
 877  8425.673
 878  8600.529
 879  8900.91
 880  9299.983
 881  9093.91
 882  9004.016
 883  9100.885
 884  8781.722
 885  8632.019
 886  8776.271
 887  8716.536
 888  8813.177
 889  8524.427
 890  8163.098
 891  7936.607
 892  7948.62
 893  8474.566
 894  8901.48
 895  8603.696
 896  8944.065
 897  8889.017
 898  8922.156
 899  8614.553
 900  8270.482
 901  8141.847
 902  7825.882
 903  7856.795
 904  8065.199
 905  7843.632
 906  7724.878
 907  8194.164
 908  8710.925
 909  8805.482
 910  8809.302
 911  8828.293
 912  8921.961
 913  8559.241
 914  8730.356
 915  9005.56
 916  8964.657
 917  8716.435
 918  8248.236
 919  8177.037
 920  7858.762
 921  7902.849
 922  8321.791
 923  8970.595
 924  9113.622
 925  8975.31
 926  8702.379
 927  8671.562
 928  8714.096
 929  8900.85
 930  8833.231
 931  8486.005
 932  8231.202
 933  8390.816
 934  8510.269
 935  8711.96
 936  8874.047
 937  9127.763
 938  9177.095
 939  9153.938
 940  9501.538
 941  9062.61
 942  8767.529
 943  8985.148
 944  9128.656
 945  9154.076
 946  9023.961
 947  9085.033
 948  9212.44
 949  8748.72
 950  8841.249
 951  8875.08
 952  8436.434
 953  8317.142
 954  8332.435
 955  8392.183
 956  8511.334
 957  8278.737
 958  8443.655
 959  8566.276
 960  8949.711
 961  9487.836
 962  9296.347
 963  8843.42
 964  9158.909
 965  8875.513
 966  9093.966
 967  8636.626
 968  8590.135
 969  8796.348
 970  8606.607
 971  8821.875
 972  9108.52
 973  8964.989
 974  9044.367
 975  9092.486
 976  9371.323
 977  9316.91
 978  9028.084
 979  9148.395
 980  8853.377
 981  8776.057
 982  9243.881
 983  9149.191
 984  8600.259
 985  8222.93
 986  8360.41
 987  8261.104
 988  8220.955
 989  8427.068
 990  8979.822
 991  8778.412
 992  8833.283
 993  8851.343
 994  8782.989
 995  8507.278
 996  8525.248
 997  8559.896
 998  8360.826
 999  8087.105
1000  8427.188
1001  8731.506
1002  8462.517
1003  8349.723
1004  8737.14
1005  9459.075
1006  9284.891
1007  9190.216
1008  9017.407
1009  8983.705
1010  8674.666
1011  8853.023
1012  8643.829
1013  8426.974
1014  8004.925
1015  8217.104
1016  8355.286
1017  8435.784
1018  8700.268
1019  8688.991
1020  8299.735
1021  8215.241
1022  8337.422
1023  8823.018
