# Input file       =  1198431712.104709_cleaned.dat
# Candidate        =  PSR_0332+5434
# Telescope        =  AR
# Epoch_topo       =  58114.737628526724
# Epoch_bary       =  N/A
# T_sample         =  0.002
# Data Folded      =  7340032
# Data Avg         =  0.15280342645253 
# Data StdDev      =  4.34759447553793 
# Profile Bins     =  1024
# Profile Avg      =  1095.28005058562 
# Profile StdDev   =  368.084921076213 
# Reduced chi-sqr  =  0.509
# Prob(Noise)      <  1   (~0.0 sigma)
# P_topo (ms)      =  714.552053586202  +/- 0.000826
# P'_topo (s/s)    =  -0                +/- 4.36e-10
# P''_topo (s/s^2) =  0                 +/- 1.93e-13
# P_bary (ms)      =  N/A
# P'_bary (s/s)    =  N/A
# P''_bary (s/s^2) =  N/A
# P_orb (s)        =  N/A
# asin(i)/c (s)    =  N/A
# eccentricity     =  N/A
# w (rad)          =  N/A
# T_peri           =  N/A
######################################################
   0  1166.074
   1  1271.779
   2  1234.708
   3  1071.258
   4  1013.988
   5  1037.683
   6  1104.552
   7  1072.907
   8  1056.988
   9  1098.764
  10  1127.782
  11  1070.288
  12  926.6458
  13  837.038
  14  928.985
  15  961.6999
  16  1013.944
  17  1011.555
  18  1121.806
  19  1118.904
  20  1042.399
  21  955.6913
  22  942.0798
  23  1028.653
  24  989.9907
  25  1080.259
  26  1163.202
  27  1166.497
  28  1123.981
  29  1062.676
  30  1197.479
  31  1182.493
  32  1125.711
  33  914.7029
  34  958.9504
  35  910.4823
  36  1047.069
  37  1115.856
  38  1096.944
  39  1080.253
  40  1043.456
  41  1131.846
  42  1030.464
  43  971.0302
  44  834.7454
  45  792.5836
  46  890.228
  47  1076.141
  48  1110.465
  49  1091.274
  50  1032.135
  51  1059.396
  52  1042.753
  53  901.5503
  54  900.0745
  55  1000.5
  56  1094.741
  57  1122.671
  58  1202.047
  59  1236.125
  60  1191.442
  61  1053.752
  62  973.1472
  63  889.7137
  64  990.8201
  65  1054.989
  66  1101.223
  67  1031.038
  68  910.855
  69  878.1584
  70  902.1893
  71  932.5906
  72  1039.365
  73  1068.146
  74  1129.486
  75  1116.416
  76  1216.777
  77  1180.761
  78  1062.498
  79  1000.886
  80  1093.453
  81  1121.38
  82  1170.479
  83  1236.854
  84  1144.45
  85  1161.049
  86  1065.296
  87  1097.345
  88  996.4792
  89  932.9689
  90  1010.821
  91  1097.974
  92  1017.873
  93  1061.845
  94  1132.12
  95  1219.822
  96  1177.108
  97  1087.405
  98  1118.409
  99  1165.742
 100  1248.839
 101  1395.428
 102  1320.385
 103  1211.253
 104  1144.146
 105  1111.384
 106  1286.656
 107  1329.142
 108  1320.838
 109  1274.484
 110  1119.115
 111  1048.697
 112  1010.582
 113  938.6259
 114  832.3655
 115  844.0629
 116  968.7935
 117  1083.344
 118  1113.137
 119  1136.571
 120  1297.951
 121  1295.41
 122  1275.114
 123  1209.683
 124  1083.28
 125  1143.174
 126  1173.752
 127  1274.032
 128  1221.672
 129  1230.805
 130  1218.915
 131  1273.512
 132  1357.282
 133  1433.824
 134  1323.151
 135  1153.094
 136  1071.18
 137  1037.978
 138  1044.948
 139  1019.179
 140  1052.134
 141  1056.784
 142  1091.25
 143  1148.071
 144  1260.491
 145  1274.159
 146  1277.891
 147  1320.344
 148  1319.781
 149  1355.907
 150  1350.796
 151  1309.771
 152  1149.018
 153  940.5941
 154  828.7031
 155  987.0602
 156  1155.62
 157  1230.265
 158  1257.166
 159  1317.078
 160  1379.326
 161  1395.884
 162  1301.664
 163  1204.659
 164  1123.011
 165  1136.068
 166  1210.169
 167  1204.149
 168  1191.379
 169  1138.191
 170  1239.383
 171  1325.433
 172  1226.929
 173  1223.392
 174  1307.168
 175  1324.072
 176  1324.375
 177  1325.851
 178  1331.762
 179  1382.578
 180  1439.919
 181  1325.686
 182  1160.308
 183  1001.148
 184  940.3825
 185  853.2819
 186  799.4341
 187  887.4752
 188  967.2151
 189  989.621
 190  930.3826
 191  914.5255
 192  1020.667
 193  1099.998
 194  1153.725
 195  1187.42
 196  1140.594
 197  1044.211
 198  1055.718
 199  1003.627
 200  962.1067
 201  864.6309
 202  883.6609
 203  1057.5
 204  1179.294
 205  1187.981
 206  1045.762
 207  959.5316
 208  1023.472
 209  1030.382
 210  1035.471
 211  983.1861
 212  948.8787
 213  951.7393
 214  1095.323
 215  1173.926
 216  1200.293
 217  1083.515
 218  1040.147
 219  992.5355
 220  1013.914
 221  931.4778
 222  916.1587
 223  954.5963
 224  1045.972
 225  1170.049
 226  1207.638
 227  1125.626
 228  1041.091
 229  1008.715
 230  1229.779
 231  1274.225
 232  1146.848
 233  957.0452
 234  981.0484
 235  971.959
 236  1025.902
 237  1016.362
 238  1157.62
 239  1098.965
 240  1004.505
 241  1038.089
 242  1116.701
 243  1219.662
 244  1255.69
 245  1162.831
 246  1043.751
 247  992.9095
 248  1030.117
 249  1070.531
 250  958.3241
 251  816.7769
 252  739.7166
 253  727.6319
 254  806.3358
 255  839.7802
 256  1001.112
 257  1117.929
 258  1090.176
 259  1002.685
 260  939.8181
 261  868.4512
 262  897.411
 263  1041.394
 264  1117.183
 265  1069.971
 266  846.6012
 267  828.4415
 268  915.7878
 269  930.1635
 270  990.3559
 271  957.1689
 272  1083.53
 273  1107.349
 274  1180.871
 275  1183.751
 276  1228.671
 277  1197.692
 278  1145.968
 279  1146.588
 280  1081.387
 281  1074.539
 282  993.394
 283  1058.734
 284  1096.81
 285  1117.055
 286  1162.908
 287  1209.295
 288  1220.165
 289  1178.917
 290  1157.301
 291  1106.832
 292  1084.017
 293  1121.517
 294  1208.557
 295  1114.538
 296  974.0255
 297  1029.607
 298  1081.748
 299  1138.906
 300  1128.84
 301  1130.887
 302  1181.687
 303  1258.645
 304  1332.933
 305  1321.344
 306  1191.078
 307  1099.587
 308  1062.013
 309  1044.115
 310  1015.748
 311  989.2615
 312  1105.931
 313  1128.101
 314  1145.05
 315  1096.466
 316  1002.652
 317  1009.45
 318  1096.703
 319  1298.642
 320  1322.305
 321  1261.964
 322  1197.608
 323  1116.309
 324  1125.424
 325  1180.514
 326  1214.703
 327  1193.379
 328  1185.243
 329  1194.627
 330  1224.312
 331  1228.057
 332  1279.799
 333  1357.724
 334  1309.057
 335  1295.645
 336  1155.207
 337  1137.623
 338  1059.512
 339  1022.932
 340  993.3713
 341  1042.606
 342  1075.917
 343  1157.801
 344  1096.268
 345  1026.862
 346  999.6993
 347  953.5865
 348  1048.166
 349  1051.04
 350  973.323
 351  897.4442
 352  882.2326
 353  903.1997
 354  909.2026
 355  873.0314
 356  938.6201
 357  1012.043
 358  1152.874
 359  1219.104
 360  1203.673
 361  1069.144
 362  912.2686
 363  869.4916
 364  1007.547
 365  1170.712
 366  1172.888
 367  1211.102
 368  1221.965
 369  1194.995
 370  1263.915
 371  1248.093
 372  1261.752
 373  1121.878
 374  1120.907
 375  1120.269
 376  1162.47
 377  1240.873
 378  1362.634
 379  1404.564
 380  1276.368
 381  1229.67
 382  1222.307
 383  1143.166
 384  1030.472
 385  1118.923
 386  1281.62
 387  1411.313
 388  1337.283
 389  1349.999
 390  1296.078
 391  1353.8
 392  1411.902
 393  1583.342
 394  1497.558
 395  1432.145
 396  1152.379
 397  1033.037
 398  910.2041
 399  1012.87
 400  1123.346
 401  1225.225
 402  1380.917
 403  1380.577
 404  1268.266
 405  1207.319
 406  1230.729
 407  1277.38
 408  1261.039
 409  1263.723
 410  1260.185
 411  1262.151
 412  1275.388
 413  1306.201
 414  1256.346
 415  1147.13
 416  1069.616
 417  983.4896
 418  921.2189
 419  970.8585
 420  1017.021
 421  1110.349
 422  1194.287
 423  1233.375
 424  1255.529
 425  1149.39
 426  1177.594
 427  993.0947
 428  920.9975
 429  1000.89
 430  1137.165
 431  1222.516
 432  1199.312
 433  1168.373
 434  994.5779
 435  953.6578
 436  865.3608
 437  1004.626
 438  1052.853
 439  1147.696
 440  1138.376
 441  1103.018
 442  1039.49
 443  1044.695
 444  1035.17
 445  1082.126
 446  1075.029
 447  1074.412
 448  983.8516
 449  993.3156
 450  906.7756
 451  817.4777
 452  808.2238
 453  912.4947
 454  970.342
 455  971.9166
 456  1064.731
 457  1022.27
 458  1142.049
 459  1069.093
 460  1059.405
 461  956.3452
 462  957.6094
 463  1006.33
 464  986.215
 465  909.0131
 466  895.3961
 467  917.4334
 468  1006.989
 469  1102.836
 470  1123.629
 471  1086.819
 472  1130.349
 473  1105.529
 474  1095.164
 475  1119.745
 476  1118.147
 477  1137.581
 478  1066.483
 479  1104.795
 480  1099.916
 481  1072.911
 482  1073.78
 483  1085.504
 484  1031.44
 485  1027.245
 486  1071.62
 487  1222.461
 488  1256.591
 489  1302.48
 490  1145.01
 491  1061.11
 492  959.7251
 493  986.1699
 494  1040.321
 495  1113.692
 496  1187.369
 497  1200.346
 498  1113.061
 499  1046.301
 500  929.3903
 501  1024.212
 502  1037.443
 503  904.303
 504  874.6621
 505  861.9388
 506  878.9204
 507  919.8569
 508  981.3732
 509  1061.787
 510  1136.428
 511  1074.284
 512  1098.328
 513  1142.936
 514  1196.836
 515  1181.668
 516  998.551
 517  944.2405
 518  925.7029
 519  898.0797
 520  937.1323
 521  913.5482
 522  900.6204
 523  972.3341
 524  1001.004
 525  1085.584
 526  1158.532
 527  1116.737
 528  1187.118
 529  1085.915
 530  1074.683
 531  1089.711
 532  1112.12
 533  1066.836
 534  1024.884
 535  998.7388
 536  1005.635
 537  1004.139
 538  1096.226
 539  1167.457
 540  1167.864
 541  1245.549
 542  1342.354
 543  1277.746
 544  1240.02
 545  1350.514
 546  1294.096
 547  1161.307
 548  952.2379
 549  1063.06
 550  1146.067
 551  1218.362
 552  1123.811
 553  1138.034
 554  1068.492
 555  1108.011
 556  1065.023
 557  1142.383
 558  1212.999
 559  1282.936
 560  1307.668
 561  1282.068
 562  1207.404
 563  1114.307
 564  1080.596
 565  1085.811
 566  1126.022
 567  1159.326
 568  1196.961
 569  1284.214
 570  1263.731
 571  1282.877
 572  1287.694
 573  1371.611
 574  1420.238
 575  1279.138
 576  1174.449
 577  1152.157
 578  1178.719
 579  1147.17
 580  1159.276
 581  1017.996
 582  1047.499
 583  1005.597
 584  1133.909
 585  1107.587
 586  1167.764
 587  1150.235
 588  1209.394
 589  1234.799
 590  1245.722
 591  1167.846
 592  1031.605
 593  1005.809
 594  1013.769
 595  1076.125
 596  1091.867
 597  1063.852
 598  1166.671
 599  1234.184
 600  1177.764
 601  1145.338
 602  1029.034
 603  1093.755
 604  1150.318
 605  1064.83
 606  1163.882
 607  1125.117
 608  1157.594
 609  1142.986
 610  1305.234
 611  1437.41
 612  1360.809
 613  1117.621
 614  1168.74
 615  1330.34
 616  1421.177
 617  1585.447
 618  1622.297
 619  1673.602
 620  1656.427
 621  1666.596
 622  1851.184
 623  1832.339
 624  1820.042
 625  1777.387
 626  1667.121
 627  1507.99
 628  1423.353
 629  1284.964
 630  1260.897
 631  1137.789
 632  1059.247
 633  1063.794
 634  990.4401
 635  936.2807
 636  942.4036
 637  961.7921
 638  1074.092
 639  1060.551
 640  1046.953
 641  1140.113
 642  1161.868
 643  1093.561
 644  1028.605
 645  1213.034
 646  1220.689
 647  1277.845
 648  1175.557
 649  1225.407
 650  1169.018
 651  1105.866
 652  1108.203
 653  1043.324
 654  1013.46
 655  998.2477
 656  990.7999
 657  1024.548
 658  1014.73
 659  1009.511
 660  1114.841
 661  1049.511
 662  1017.055
 663  951.5453
 664  1038.217
 665  1114.31
 666  1128.728
 667  1016.652
 668  957.9084
 669  971.4744
 670  1001.779
 671  993.1622
 672  841.5011
 673  776.2892
 674  902.3889
 675  1029.989
 676  1106.255
 677  1209.708
 678  1181.535
 679  1271.232
 680  1133.615
 681  1166.928
 682  1179.235
 683  1157.133
 684  1100.343
 685  1084.138
 686  1192.798
 687  1190.228
 688  1029.77
 689  892.7571
 690  909.0908
 691  933.7923
 692  938.6748
 693  974.0719
 694  960.4103
 695  1028.187
 696  1026.713
 697  1039.063
 698  1043.313
 699  1061.454
 700  1067.742
 701  1056.14
 702  940.3801
 703  838.9454
 704  746.4561
 705  919.0139
 706  1141.147
 707  1269.979
 708  1209.325
 709  1209.281
 710  1190.375
 711  1109.318
 712  1003.268
 713  1014.153
 714  1102.335
 715  1117.758
 716  1161.018
 717  1174.561
 718  1223.496
 719  1247.913
 720  1153.682
 721  1069.882
 722  1032.925
 723  1076.863
 724  1054.255
 725  1058.833
 726  984.7067
 727  996.1953
 728  926.3183
 729  962.6163
 730  1055.621
 731  1160.307
 732  1303.839
 733  1353.137
 734  1260.612
 735  1072.837
 736  1027.859
 737  997.2589
 738  995.233
 739  937.7648
 740  909.2669
 741  938.8885
 742  930.6328
 743  923.1632
 744  927.9727
 745  980.7236
 746  1127.905
 747  1094.026
 748  1036.832
 749  1022.273
 750  928.7214
 751  738.938
 752  721.0865
 753  811.415
 754  967.6959
 755  1006.479
 756  1054.755
 757  1042.912
 758  1010.297
 759  1046.909
 760  1021.545
 761  1106.7
 762  1192.669
 763  1192.09
 764  1084.397
 765  1024.792
 766  1056.263
 767  1029.186
 768  1078.414
 769  1028.674
 770  1075.776
 771  1020.249
 772  1004.676
 773  1138.482
 774  1054.077
 775  1065.594
 776  999.0311
 777  1016.404
 778  1017.538
 779  998.077
 780  1042.761
 781  1123.644
 782  1083.49
 783  1151.187
 784  1203.82
 785  1166.344
 786  1071.211
 787  1070.552
 788  1080.482
 789  1080.139
 790  1097.432
 791  1275.051
 792  1373.689
 793  1250.253
 794  1148.136
 795  1092.54
 796  1195.663
 797  1163.506
 798  1121.743
 799  1025.263
 800  1071.002
 801  1046.773
 802  1014.76
 803  972.3326
 804  992.2654
 805  1031.914
 806  1032.276
 807  1077.49
 808  1073.131
 809  1071.144
 810  1006.626
 811  1082.656
 812  1152.368
 813  1255.342
 814  1105.541
 815  953.7385
 816  872.8641
 817  874.1407
 818  896.5984
 819  838.7307
 820  893.7719
 821  910.1843
 822  854.7863
 823  829.5818
 824  847.282
 825  994.3547
 826  1006.891
 827  928.3738
 828  848.8649
 829  963.0342
 830  1183.877
 831  1240.789
 832  1197.378
 833  1170.049
 834  1155
 835  1119.581
 836  951.6952
 837  893.6108
 838  1000.937
 839  999.3112
 840  878.5638
 841  837.407
 842  912.6664
 843  1099.645
 844  1149.315
 845  988.7617
 846  896.5583
 847  865.394
 848  1002.648
 849  877.1627
 850  882.371
 851  865.3575
 852  920.2401
 853  951.3857
 854  1060.118
 855  1069.108
 856  1052.96
 857  917.4953
 858  862.567
 859  845.1912
 860  850.1541
 861  847.3947
 862  953.663
 863  866.2924
 864  894.7935
 865  885.3507
 866  980.33
 867  1028.609
 868  1007.597
 869  1007.307
 870  1039.195
 871  1025.076
 872  989.6413
 873  957.0541
 874  1045.968
 875  1123.545
 876  1134.579
 877  1095.92
 878  1059.709
 879  873.8814
 880  876.611
 881  869.8976
 882  942.2544
 883  988.5677
 884  1076.651
 885  1156.298
 886  1175.925
 887  1079.967
 888  1038.244
 889  1087.015
 890  1140.598
 891  1163.958
 892  1151.441
 893  1133.957
 894  1015.572
 895  961.7526
 896  981.0597
 897  1007.827
 898  1047.08
 899  1038.178
 900  1008.706
 901  918.7151
 902  841.4705
 903  897.908
 904  836.2565
 905  838.0859
 906  820.353
 907  911.1414
 908  959.821
 909  942.3681
 910  997.4119
 911  971.9394
 912  950.3876
 913  976.3104
 914  1077.607
 915  1152.659
 916  1164.178
 917  1107.31
 918  1097.349
 919  1172.931
 920  1103.967
 921  1139.774
 922  1000.336
 923  949.9588
 924  881.0961
 925  865.29
 926  981.374
 927  1069.544
 928  1194.44
 929  1237.274
 930  1152.355
 931  995.9682
 932  1037.885
 933  1067.847
 934  1100.995
 935  1118.985
 936  1071.989
 937  1113.154
 938  1051.611
 939  1130.23
 940  1071.88
 941  1074.309
 942  1067.453
 943  1110.719
 944  979.2172
 945  1008.723
 946  1020.884
 947  1187.078
 948  1280.764
 949  1250.822
 950  1229.775
 951  1115.314
 952  1027.734
 953  1066.467
 954  1202.927
 955  1189.008
 956  1072.201
 957  919.2344
 958  1024.663
 959  1002.635
 960  998.6787
 961  1055.81
 962  1021.09
 963  1006.854
 964  1114.242
 965  1165.375
 966  1131.185
 967  1009.153
 968  1079.694
 969  1210.228
 970  1241.374
 971  1259.025
 972  1267.433
 973  1189.855
 974  1193.607
 975  1210.917
 976  1128.237
 977  1133.088
 978  1103.6
 979  1186.02
 980  1155.479
 981  1238.058
 982  1330.128
 983  1369.862
 984  1281.92
 985  1268.383
 986  1280.503
 987  1148.093
 988  980.6441
 989  1028.755
 990  1162.223
 991  1282.693
 992  1282.48
 993  1354.198
 994  1213.613
 995  1225.88
 996  1243.689
 997  1341.266
 998  1243.212
 999  1173.066
1000  1153.368
1001  1107.642
1002  1073.832
1003  972.0703
1004  1061.088
1005  1146.051
1006  1135.057
1007  1085.46
1008  1039.178
1009  1020.224
1010  1050.105
1011  1124.583
1012  1090.497
1013  934.0806
1014  801.0464
1015  904.8274
1016  1075.534
1017  1176.954
1018  1264.326
1019  1177.973
1020  1159.493
1021  1009.615
1022  1028.085
1023  1080.016
