# Input file       =  1198274299.108217_cleaned.dat
# Candidate        =  PSR_0332+5434
# Telescope        =  AR
# Epoch_topo       =  58112.915718845106
# Epoch_bary       =  N/A
# T_sample         =  0.002
# Data Folded      =  7340032
# Data Avg         =  0.0507687657090378
# Data StdDev      =  1.00070146316563 
# Profile Bins     =  512
# Profile Avg      =  727.825314206925 
# Profile StdDev   =  119.817024691494 
# Reduced chi-sqr  =  0.758
# Prob(Noise)      <  1   (~0.0 sigma)
# P_topo (ms)      =  714.550746241179  +/- 0.000197
# P'_topo (s/s)    =  -0                +/- 1.04e-10
# P''_topo (s/s^2) =  0                 +/- 4.58e-14
# P_bary (ms)      =  N/A
# P'_bary (s/s)    =  N/A
# P''_bary (s/s^2) =  N/A
# P_orb (s)        =  N/A
# asin(i)/c (s)    =  N/A
# eccentricity     =  N/A
# w (rad)          =  N/A
# T_peri           =  N/A
######################################################
   0  1088.61
   1  1091.684
   2  1092.972
   3  838.6121
   4  702.5741
   5  809.7148
   6  831.8993
   7  749.5069
   8  829.6248
   9  796.5163
  10  727.5856
  11  749.2934
  12  812.5256
  13  747.6246
  14  808.6907
  15  776.27
  16  713.8221
  17  800.1562
  18  855.2055
  19  921.7531
  20  825.3341
  21  740.169
  22  659.8792
  23  682.3593
  24  647.9343
  25  671.1584
  26  706.4452
  27  672.8981
  28  677.9677
  29  657.1169
  30  706.4673
  31  664.9641
  32  807.7498
  33  752.3017
  34  754.33
  35  731.6431
  36  743.039
  37  726.809
  38  740.7311
  39  810.5107
  40  781.5716
  41  733.446
  42  704.7388
  43  649.6363
  44  642.0962
  45  610.3004
  46  730.6406
  47  716.5396
  48  730.7985
  49  746.2155
  50  783.6181
  51  773.7177
  52  681.8805
  53  685.5331
  54  579.1873
  55  659.0261
  56  733.5583
  57  817.4984
  58  814.9836
  59  651.98
  60  700.975
  61  775.2549
  62  761.4424
  63  741.5481
  64  767.2342
  65  828.3575
  66  809.0301
  67  694.8488
  68  747.5356
  69  741.5933
  70  718.0176
  71  764.7275
  72  640.9326
  73  635.5912
  74  757.0804
  75  820.2747
  76  856.8788
  77  772.5923
  78  728.0865
  79  665.8042
  80  641.1232
  81  613.7468
  82  700.6949
  83  696.2057
  84  682.3907
  85  711.1898
  86  804.3085
  87  757.3115
  88  678.1807
  89  771.8678
  90  694.7281
  91  676.6279
  92  697.0466
  93  680.862
  94  698.4399
  95  737.0453
  96  665.4971
  97  698.879
  98  719.2185
  99  719.9734
 100  662.8019
 101  718.849
 102  704.5797
 103  660.1747
 104  793.1859
 105  681.2546
 106  732.9874
 107  701.0121
 108  662.1202
 109  697.5344
 110  679.9538
 111  741.6638
 112  761.1096
 113  868.6292
 114  853.1375
 115  765.5944
 116  694.4052
 117  725.1772
 118  717.915
 119  648.9697
 120  560.3563
 121  544.0005
 122  625.1662
 123  662.2613
 124  691.4713
 125  802.1284
 126  717.7388
 127  660.668
 128  676.7884
 129  699.5013
 130  598.8016
 131  605.8284
 132  649.5054
 133  663.8253
 134  592.0516
 135  640.7321
 136  725.2671
 137  677.4374
 138  604.1984
 139  665.095
 140  749.5718
 141  643.697
 142  613.9525
 143  652.9509
 144  680.1728
 145  619.7532
 146  657.5891
 147  704.379
 148  665.2165
 149  811.3159
 150  794.0596
 151  738.1452
 152  724.7095
 153  693.4049
 154  681.7444
 155  722.0497
 156  693.4227
 157  757.2247
 158  695.3709
 159  703.1207
 160  651.9247
 161  607.8672
 162  664.3335
 163  759.1477
 164  715.5704
 165  794.9606
 166  827.773
 167  768.3922
 168  663.595
 169  630.1427
 170  708.273
 171  830.4277
 172  767.9776
 173  754.5532
 174  737.3365
 175  601.8477
 176  702.7836
 177  760.8812
 178  753.1212
 179  625.7639
 180  759.7694
 181  795.7368
 182  762.7404
 183  773.6688
 184  764.3474
 185  723.2983
 186  675.4038
 187  664.2603
 188  704.448
 189  797.0555
 190  758.9711
 191  736.4409
 192  820.178
 193  732.8483
 194  638.256
 195  593.3591
 196  707.9849
 197  848.2117
 198  778.5506
 199  825.7255
 200  743.6517
 201  707.9161
 202  661.2957
 203  734.1078
 204  631.9518
 205  695.4244
 206  818.191
 207  786.9237
 208  736.4742
 209  652.7132
 210  681.9974
 211  647.2079
 212  663.0948
 213  769.4522
 214  779.204
 215  785.0077
 216  814.4026
 217  758.12
 218  781.7053
 219  753.5457
 220  730.9843
 221  729.0467
 222  632.0389
 223  750.4135
 224  738.5295
 225  789.8855
 226  792.8623
 227  795.4309
 228  860.309
 229  782.9241
 230  649.2272
 231  709.6572
 232  675.3854
 233  692.5836
 234  748.2917
 235  632.198
 236  621.9873
 237  631.2961
 238  662.1382
 239  681.5843
 240  687.0664
 241  689.8804
 242  597.6055
 243  593.4018
 244  639.8605
 245  687.7186
 246  795.1519
 247  771.2889
 248  674.7934
 249  743.137
 250  778.2811
 251  703.8325
 252  649.1193
 253  641.1761
 254  663.1829
 255  725.2672
 256  693.0471
 257  672.7186
 258  699.6413
 259  681.2182
 260  684.2989
 261  764.2097
 262  726.9407
 263  688.2447
 264  708.5894
 265  667.4632
 266  669.4955
 267  739.45
 268  877.3136
 269  768.5657
 270  703.6547
 271  590.837
 272  583.928
 273  620.4597
 274  748.5584
 275  874.7234
 276  855.2163
 277  786.6057
 278  724.2191
 279  801.1442
 280  773.8895
 281  698.7043
 282  698.7209
 283  712.1388
 284  742.9227
 285  708.132
 286  773.0445
 287  753.0825
 288  702.4119
 289  818.0878
 290  820.1877
 291  741.6069
 292  758.3038
 293  698.8294
 294  735.7746
 295  751.0699
 296  766.4405
 297  771.2699
 298  660.1696
 299  635.6201
 300  705.0981
 301  719.0544
 302  791.4719
 303  724.0642
 304  766.4799
 305  715.4424
 306  696.1635
 307  834.8725
 308  900.5956
 309  834.4985
 310  857.6862
 311  843.6573
 312  843.7731
 313  792.1854
 314  854.438
 315  780.0315
 316  786.2733
 317  802.6265
 318  751.0723
 319  732.1398
 320  641.7734
 321  728.2977
 322  713.8542
 323  801.5615
 324  804.2602
 325  744.0178
 326  674.7543
 327  687.9543
 328  752.7864
 329  766.0801
 330  761.1185
 331  646.6823
 332  736.8434
 333  773.0521
 334  761.0264
 335  715.6742
 336  690.8932
 337  706.5853
 338  625.6682
 339  602.9612
 340  580.2259
 341  624.4661
 342  806.5414
 343  793.9801
 344  850.3489
 345  763.1097
 346  621.3842
 347  676.7557
 348  668.8343
 349  575.2195
 350  683.1487
 351  662.7244
 352  694.2053
 353  724.5428
 354  709.8196
 355  635.4286
 356  665.5131
 357  665.0081
 358  616.9986
 359  689.8148
 360  700.7321
 361  664.0884
 362  691.7271
 363  711.0911
 364  688.5062
 365  590.1629
 366  655.3474
 367  724.2132
 368  817.002
 369  743.1493
 370  666.7895
 371  756.7675
 372  695.804
 373  656.2865
 374  648
 375  714.0187
 376  696.3264
 377  828.2547
 378  798.9668
 379  732.439
 380  749.7112
 381  755.5295
 382  793.3004
 383  759.4506
 384  714.8057
 385  617.9078
 386  699.9093
 387  697.97
 388  648.6907
 389  693.3393
 390  788.16
 391  779.7781
 392  751.1448
 393  725.2782
 394  762.8101
 395  713.8913
 396  706.2629
 397  743.9562
 398  796.2432
 399  875.4161
 400  906.1094
 401  834.7383
 402  772.8956
 403  779.2418
 404  747.932
 405  684.9993
 406  721.6498
 407  709.0959
 408  658.0377
 409  678.313
 410  738.5775
 411  604.9628
 412  671.0925
 413  729.7247
 414  777.5276
 415  824.3447
 416  797.5463
 417  678.858
 418  618.5464
 419  630.0808
 420  696.0486
 421  709.5933
 422  647.7599
 423  708.9727
 424  705.1035
 425  660.6021
 426  789.9532
 427  745.8957
 428  741.2197
 429  753.9342
 430  791.9942
 431  845.9965
 432  771.9069
 433  804.2391
 434  761.7339
 435  758.2934
 436  744.4941
 437  713.613
 438  649.3635
 439  661.5081
 440  669.6176
 441  652.2652
 442  761.9073
 443  763.63
 444  882.9297
 445  804.4503
 446  720.299
 447  724.4138
 448  822.2246
 449  719.6049
 450  693.2567
 451  744.1122
 452  716.8182
 453  673.4715
 454  679.6719
 455  745.7533
 456  692.8016
 457  592.9122
 458  700.9142
 459  703.5874
 460  642.55
 461  585.7584
 462  702.5828
 463  744.4805
 464  675.6956
 465  616.7402
 466  677.3268
 467  734.9109
 468  775.608
 469  817.7943
 470  781.8068
 471  731.3326
 472  728.4318
 473  711.1597
 474  708.906
 475  799.259
 476  756.1971
 477  755.6747
 478  684.6846
 479  694.3939
 480  748.2112
 481  688.3367
 482  715.7847
 483  732.8806
 484  737.0875
 485  647.4539
 486  744.3219
 487  735.3807
 488  704.1805
 489  626.1274
 490  616.3657
 491  740.7506
 492  808.8554
 493  836.9512
 494  751.7637
 495  709.4104
 496  750.2661
 497  721.8987
 498  815.147
 499  810.179
 500  748.0828
 501  735.5919
 502  745.7478
 503  778.8304
 504  816.9578
 505  764.3488
 506  795.523
 507  789.8678
 508  897.0614
 509  925.1572
 510  1058.09
 511  1155.658
