# Input file       =  1198173788.111938_cleaned.dat
# Candidate        =  PSR_0332+5434
# Telescope        =  AR
# Epoch_topo       =  58111.752397128912
# Epoch_bary       =  N/A
# T_sample         =  0.002
# Data Folded      =  7340032
# Data Avg         =  0.154741338917769
# Data StdDev      =  3.84192678504389 
# Profile Bins     =  1024
# Profile Avg      =  1109.17507452518 
# Profile StdDev   =  325.273050513409 
# Reduced chi-sqr  =  0.558
# Prob(Noise)      <  1   (~0.0 sigma)
# P_topo (ms)      =  714.549349780547  +/- 0.0009
# P'_topo (s/s)    =  -0                +/- 4.75e-10
# P''_topo (s/s^2) =  0                 +/- 2.1e-13
# P_bary (ms)      =  N/A
# P'_bary (s/s)    =  N/A
# P''_bary (s/s^2) =  N/A
# P_orb (s)        =  N/A
# asin(i)/c (s)    =  N/A
# eccentricity     =  N/A
# w (rad)          =  N/A
# T_peri           =  N/A
######################################################
   0  1133.71
   1  1063.533
   2  1203.355
   3  1188.872
   4  1224.344
   5  1111.704
   6  1031.425
   7  1088.377
   8  1062.094
   9  1084.379
  10  1045.28
  11  1106.738
  12  1128.445
  13  1199.874
  14  1296.121
  15  1429.88
  16  1363.718
  17  1227.393
  18  1091.104
  19  1114.023
  20  1134.438
  21  1176.882
  22  1190.281
  23  1265.18
  24  1308.31
  25  1229.395
  26  1294.704
  27  1338.155
  28  1577.323
  29  1479.122
  30  1305.558
  31  1068.225
  32  998.4916
  33  1008.238
  34  1088.311
  35  1174.624
  36  1338.183
  37  1331.7
  38  1197.934
  39  1032.627
  40  1099.427
  41  1202.274
  42  1170.851
  43  1031.616
  44  1022.149
  45  1041.644
  46  1051.674
  47  1059.66
  48  1001.713
  49  1004.36
  50  953.3956
  51  1028.204
  52  1077.513
  53  1173.167
  54  1141.368
  55  1199.165
  56  1204.477
  57  1099.465
  58  1038.408
  59  987.3025
  60  1017.252
  61  898.0922
  62  1030.181
  63  1114.867
  64  1177.277
  65  1117.649
  66  1167.881
  67  1150.393
  68  1127.684
  69  1098.765
  70  1151.11
  71  1217.71
  72  1208.353
  73  1206.618
  74  1205.376
  75  1105.394
  76  987.1897
  77  947.8397
  78  1012.952
  79  1139.025
  80  1208.856
  81  1185.666
  82  1098.547
  83  1043.573
  84  1022.033
  85  1018.385
  86  931.5416
  87  901.4858
  88  989.3219
  89  1153.464
  90  1102.81
  91  963.0458
  92  954.1995
  93  938.5976
  94  1014.423
  95  926.1
  96  962.9954
  97  938.7847
  98  998.8514
  99  1075.972
 100  1129.2
 101  1218.449
 102  1114.774
 103  1040.655
 104  965.2325
 105  1013.082
 106  1026.832
 107  1017.476
 108  1046.223
 109  1146.665
 110  1140.656
 111  1149.629
 112  1093.698
 113  1067.757
 114  1049.145
 115  1008.77
 116  1035.882
 117  1094.614
 118  1068.205
 119  1006.88
 120  911.3822
 121  906.009
 122  939.4272
 123  1011.518
 124  1029.737
 125  1023.417
 126  1034.168
 127  976.8229
 128  1032.772
 129  953.404
 130  917.5663
 131  866.1418
 132  960.0195
 133  1001.52
 134  993.1266
 135  1039.875
 136  1091.964
 137  1206.371
 138  1250.201
 139  1135.302
 140  1100.404
 141  1203.25
 142  1248.442
 143  1175.231
 144  1155.759
 145  1160.217
 146  1233.791
 147  1190.948
 148  1061.309
 149  1127.67
 150  1175.541
 151  1332.779
 152  1339.632
 153  1440.651
 154  1434.502
 155  1409.639
 156  1321.837
 157  1195.757
 158  1076.773
 159  1109.65
 160  1078.913
 161  1002.247
 162  995.558
 163  1051.603
 164  1074.796
 165  1076.204
 166  1113.896
 167  1138.077
 168  1146.947
 169  1110.809
 170  1133.717
 171  1154.57
 172  1249.725
 173  1316.391
 174  1376.86
 175  1308.142
 176  1231.846
 177  1180.455
 178  1159.46
 179  1149.627
 180  1109.371
 181  1144.937
 182  1110.14
 183  1112.037
 184  1179.36
 185  1226.229
 186  1315.223
 187  1300.573
 188  1223.947
 189  1166.28
 190  1108.446
 191  1021.817
 192  1046.484
 193  1033.856
 194  1104.823
 195  1088.48
 196  1105.778
 197  1045.204
 198  1083.201
 199  1094.465
 200  1139.923
 201  1067.324
 202  1046.683
 203  1086.909
 204  1078.962
 205  1093.82
 206  1139.672
 207  1223.002
 208  1270.134
 209  1161.938
 210  1155.222
 211  1148.859
 212  1145.91
 213  1181.073
 214  1162.989
 215  1186.307
 216  1133.758
 217  1127.32
 218  1172.073
 219  1220.225
 220  1166.65
 221  1150.467
 222  1139.352
 223  1044.521
 224  1085.79
 225  1028.509
 226  1099.252
 227  1093.825
 228  1132.713
 229  1120.25
 230  1185.401
 231  1192.031
 232  1365.974
 233  1297.51
 234  1422.719
 235  1266.374
 236  1341.238
 237  1366.816
 238  1388.159
 239  1327.164
 240  1228.59
 241  1301.881
 242  1241.41
 243  1355.854
 244  1248.842
 245  1126.714
 246  1060.888
 247  1177.635
 248  1231.535
 249  1196.412
 250  1156.745
 251  1155.398
 252  1155.019
 253  1200.824
 254  1188.453
 255  1232.359
 256  1219.123
 257  1169.189
 258  1145.123
 259  1028.892
 260  1012.794
 261  981.0842
 262  1053.372
 263  1097.543
 264  1157.562
 265  1135.008
 266  1171.355
 267  1279.214
 268  1371.11
 269  1230.269
 270  1121.615
 271  1067.917
 272  1107.255
 273  1207.158
 274  1250.312
 275  1200.585
 276  1110.927
 277  946.7403
 278  921.1483
 279  923.3212
 280  945.5373
 281  968.8494
 282  1080.278
 283  1234.713
 284  1248.445
 285  1230.057
 286  1297.954
 287  1272.098
 288  1304.6
 289  1217.573
 290  1135.301
 291  1008.797
 292  1034.042
 293  1076.393
 294  1154.022
 295  1130.742
 296  1185.966
 297  1177.413
 298  1185.589
 299  1221.147
 300  1274.769
 301  1293.498
 302  1290.913
 303  1189.392
 304  1079.607
 305  995.7064
 306  919.4435
 307  1076.551
 308  1017.004
 309  1047.843
 310  1094.022
 311  1120.913
 312  1123.975
 313  1154.421
 314  1122.69
 315  1051.364
 316  950.3147
 317  1048.964
 318  1039.64
 319  1030.668
 320  1031.824
 321  1059.976
 322  1121.94
 323  1190.176
 324  1149.765
 325  1039.6
 326  952.8263
 327  949.4362
 328  1007.247
 329  1015.244
 330  1129.446
 331  1091.403
 332  1119.234
 333  1021.399
 334  1067.706
 335  1008.87
 336  911.9844
 337  845.5219
 338  807.717
 339  876.5193
 340  902.8068
 341  959.5196
 342  976.2559
 343  1012
 344  927.2139
 345  962.7969
 346  873.0789
 347  854.2275
 348  883.185
 349  982.6975
 350  1013.057
 351  1070.372
 352  1063.379
 353  1130.635
 354  1067.635
 355  1026.472
 356  975.1123
 357  1076.251
 358  1107.712
 359  986.7385
 360  888.6373
 361  806.5753
 362  860.7993
 363  797.7471
 364  868.7646
 365  933.5966
 366  1038.999
 367  1142.362
 368  1130.976
 369  1126.133
 370  1104.037
 371  1095.471
 372  1164.834
 373  1224.559
 374  1341.664
 375  1413.963
 376  1293.473
 377  1209.254
 378  1055.095
 379  1005.44
 380  977.3539
 381  1024.18
 382  1060.438
 383  1067.856
 384  954.8112
 385  923.8785
 386  898.8746
 387  918.4953
 388  1062.936
 389  1052.788
 390  1051.753
 391  905.1771
 392  947.4008
 393  980.4456
 394  1139.216
 395  1017.761
 396  926.0629
 397  837.6707
 398  840.7617
 399  848.5994
 400  988.5403
 401  1050.069
 402  1049.068
 403  930.8489
 404  912.8058
 405  914.905
 406  900.4536
 407  937.5556
 408  962.6839
 409  1130.142
 410  1127.436
 411  1053.154
 412  1013.641
 413  970.961
 414  990.7518
 415  1047.431
 416  1029.861
 417  1022.66
 418  1045.63
 419  1069.867
 420  1114.561
 421  1142.476
 422  1183.432
 423  1126.691
 424  1088.593
 425  1036.383
 426  1002.535
 427  1052.207
 428  1144.375
 429  1103.574
 430  1214.849
 431  1183.891
 432  1196.07
 433  1143.671
 434  1289.814
 435  1277.823
 436  1301.6
 437  1293.853
 438  1234.247
 439  1146.599
 440  1006.188
 441  1051.599
 442  1093.167
 443  1240.1
 444  1168.108
 445  1128.253
 446  1078.422
 447  1156.021
 448  1283.182
 449  1206.71
 450  1174.635
 451  1236.541
 452  1363.8
 453  1327.063
 454  1243.228
 455  1125.98
 456  1074.186
 457  1030.433
 458  1075.698
 459  987.4673
 460  1009.009
 461  993.4697
 462  1128.189
 463  1121.813
 464  1200.823
 465  1166.594
 466  1265.411
 467  1169.867
 468  1120.258
 469  1021.681
 470  1028.431
 471  1049.368
 472  1131.054
 473  1204.796
 474  1107.21
 475  989.5168
 476  1001.845
 477  1123.248
 478  1078.528
 479  941.303
 480  882.1119
 481  1007.004
 482  1063.847
 483  914.1272
 484  899.2716
 485  1001.979
 486  1036.921
 487  1075.348
 488  1136.675
 489  1224.814
 490  1132.771
 491  1048.296
 492  1076.584
 493  1030.006
 494  1048.966
 495  1005.494
 496  1190.821
 497  1161.062
 498  1265.444
 499  1115.7
 500  1125.881
 501  1042.889
 502  1043.298
 503  1065.89
 504  980.2442
 505  1065.773
 506  1059.268
 507  1145.959
 508  1077.073
 509  1128.69
 510  1066.191
 511  1092.479
 512  1057.507
 513  1180.127
 514  1145.841
 515  1275.323
 516  1172.685
 517  1043.343
 518  1008.573
 519  990.3651
 520  1082.531
 521  951.83
 522  922.4351
 523  915.3601
 524  999.3685
 525  971.149
 526  953.6432
 527  867.0845
 528  954.8214
 529  989.5676
 530  1046.98
 531  876.8754
 532  901.3661
 533  998.6909
 534  1055.902
 535  947.0239
 536  876.6535
 537  860.2114
 538  901.1694
 539  938.8021
 540  897.8162
 541  938.5482
 542  1061.624
 543  1104.243
 544  957.4465
 545  938.5569
 546  1020.042
 547  1046.378
 548  1045.124
 549  1078.018
 550  1093.303
 551  1129.693
 552  1173.7
 553  1175.464
 554  1026.887
 555  894.6503
 556  906.7823
 557  889.4857
 558  928.9429
 559  955.1489
 560  1038.623
 561  897.6091
 562  864.0057
 563  832.2978
 564  929.1139
 565  925.78
 566  1074.099
 567  1197.439
 568  1177.001
 569  973.095
 570  948.3571
 571  1030.385
 572  1152.391
 573  1191.985
 574  1132.078
 575  1063.252
 576  946.9019
 577  879.7935
 578  847.2148
 579  807.3079
 580  871.879
 581  948.265
 582  1002.985
 583  1053.967
 584  1108.304
 585  1211.93
 586  1275.417
 587  1335.296
 588  1317.832
 589  1153.033
 590  1057.709
 591  1095.206
 592  1107.431
 593  1148.143
 594  1095.93
 595  1066.51
 596  1050.752
 597  1055.731
 598  1113.098
 599  1143.323
 600  1225.73
 601  1307.771
 602  1358.554
 603  1336.834
 604  1248.463
 605  1196.837
 606  1208.685
 607  1250.154
 608  1210.613
 609  1104.059
 610  1009.485
 611  975.0406
 612  1003.721
 613  1087.681
 614  1124.981
 615  1255.076
 616  1329.786
 617  1383.575
 618  1413.143
 619  1428.767
 620  1512.448
 621  1543.626
 622  1624.817
 623  1686.134
 624  1635.395
 625  1496.13
 626  1323.536
 627  1250.569
 628  1254.389
 629  1233.179
 630  1265.495
 631  1197.245
 632  1147.267
 633  1178.856
 634  1181.233
 635  1254.975
 636  1209.076
 637  1199.504
 638  1086.132
 639  1084.932
 640  956.521
 641  878.691
 642  859.546
 643  1049.84
 644  1066.799
 645  1162.297
 646  1241.317
 647  1248.775
 648  1183.214
 649  1045.063
 650  941.2429
 651  899.4583
 652  875.3217
 653  908.1153
 654  893.4774
 655  933.7997
 656  951.6009
 657  945.8344
 658  1031.7
 659  1002.868
 660  1106.852
 661  956.9592
 662  956.5053
 663  882.1899
 664  993.6155
 665  1013.424
 666  1188.593
 667  1180.991
 668  1178.656
 669  1080.377
 670  985.168
 671  879.5087
 672  916.7223
 673  1128.151
 674  1164.858
 675  1197.654
 676  1105.259
 677  1218.15
 678  1287.239
 679  1254.78
 680  1161.051
 681  1161.391
 682  1069.271
 683  1016.487
 684  979.086
 685  1019.869
 686  1078.414
 687  1164.623
 688  1251.311
 689  1161.264
 690  1131.86
 691  1133.723
 692  1187.522
 693  1093.517
 694  1018.028
 695  904.2697
 696  939.0478
 697  872.6973
 698  865.2249
 699  856.6707
 700  1026.209
 701  1021.558
 702  926.4327
 703  924.3241
 704  909.0712
 705  920.6439
 706  875.2116
 707  912.5905
 708  1001.123
 709  1082.269
 710  1004.483
 711  1041.223
 712  854.9409
 713  835.7369
 714  851.3517
 715  1059.885
 716  1130.343
 717  1134.668
 718  1130.138
 719  1143.606
 720  1084.031
 721  1046.3
 722  977.4702
 723  937.618
 724  917.7634
 725  838.2187
 726  774.7404
 727  723.5642
 728  801.2669
 729  829.1357
 730  925.9782
 731  981.6838
 732  1043.05
 733  1055.777
 734  1092.565
 735  1129.308
 736  1086.218
 737  1004.639
 738  950.6993
 739  923.9191
 740  883.8162
 741  920.506
 742  944.5113
 743  1143.706
 744  1253.355
 745  1361.053
 746  1377.657
 747  1424.336
 748  1424.143
 749  1322.463
 750  1236.185
 751  1249.853
 752  1285.198
 753  1288.496
 754  1278.083
 755  1150.358
 756  1098.373
 757  962.2716
 758  1040.067
 759  1051.068
 760  1147.897
 761  1214.985
 762  1197.465
 763  1155.892
 764  1155.489
 765  1166.18
 766  1219.745
 767  1219.519
 768  1204.193
 769  1161.732
 770  1053.567
 771  1181.504
 772  1258.661
 773  1350.022
 774  1198.734
 775  1211.283
 776  1185.385
 777  1179.297
 778  1139.487
 779  1122.838
 780  1103.799
 781  1103.62
 782  1063.278
 783  1090.86
 784  1023.061
 785  987.9622
 786  1028.315
 787  1116.698
 788  1204.044
 789  1143.518
 790  1189.299
 791  1099.728
 792  1154.306
 793  1053.094
 794  1100.071
 795  1104.947
 796  1228.952
 797  1213.41
 798  1175.103
 799  1172.229
 800  1200.793
 801  1114.995
 802  1121.804
 803  1141.879
 804  1290.784
 805  1285.306
 806  1255.372
 807  1252.769
 808  1254.381
 809  1351.866
 810  1239.627
 811  1129.147
 812  1014.783
 813  1075.645
 814  1231.461
 815  1222.966
 816  1133.685
 817  1017.279
 818  1051.795
 819  1034.589
 820  1077.282
 821  1069.763
 822  1171.66
 823  1193.018
 824  1245.755
 825  1229.143
 826  1309.823
 827  1260.417
 828  1271.104
 829  1302.568
 830  1263.662
 831  1151.242
 832  1097.551
 833  1121.407
 834  1090.414
 835  1121.549
 836  1093.385
 837  1180.978
 838  1072.955
 839  1183.731
 840  1277.064
 841  1371.365
 842  1305.986
 843  1307.364
 844  1328.822
 845  1392.194
 846  1304.538
 847  1318.625
 848  1252.934
 849  1284.348
 850  1232.503
 851  1182.205
 852  1026.326
 853  1131.083
 854  1281.512
 855  1261.972
 856  1212.405
 857  1171.507
 858  1299.713
 859  1363.878
 860  1489.001
 861  1288.497
 862  1234.455
 863  1137.226
 864  1311.183
 865  1268.734
 866  1252.525
 867  1161.771
 868  1213.136
 869  1177.475
 870  1219.733
 871  1250.745
 872  1229.688
 873  1229.276
 874  1324.046
 875  1449.853
 876  1407.899
 877  1331.446
 878  1301.838
 879  1356.681
 880  1264.27
 881  1283.258
 882  1252.797
 883  1219.51
 884  1220.927
 885  1201.396
 886  1278.098
 887  1109.075
 888  1043.217
 889  886.4573
 890  992.3169
 891  1021.097
 892  1166.312
 893  1237.636
 894  1290.7
 895  1270.785
 896  1291.988
 897  1196.373
 898  1073.265
 899  1071.007
 900  1123.439
 901  1290.502
 902  1398.543
 903  1361.048
 904  1153.693
 905  1143.534
 906  1098.11
 907  1190.346
 908  1115.123
 909  1213.784
 910  1146.027
 911  1164.037
 912  1093.006
 913  1056.029
 914  1079.471
 915  1028.593
 916  1062.269
 917  992.4803
 918  1061.242
 919  1016.348
 920  1127.073
 921  1088.667
 922  1064.414
 923  1139.469
 924  1200.394
 925  1215.803
 926  1153.515
 927  1100.993
 928  1053.184
 929  1023.708
 930  1030.988
 931  1164.06
 932  1184.759
 933  1130.486
 934  1080.349
 935  1083.467
 936  1042.304
 937  956.0261
 938  944.0302
 939  1007.298
 940  986.564
 941  943.2072
 942  930.8422
 943  967.2739
 944  1024.261
 945  1172.944
 946  1169.076
 947  1154.577
 948  1079.496
 949  1049.535
 950  1078.233
 951  1100.474
 952  1179.536
 953  1101.94
 954  989.2265
 955  842.8462
 956  860.9893
 957  832.0789
 958  898.8815
 959  976.822
 960  1090.142
 961  1157.793
 962  1221.916
 963  1157.342
 964  1017.102
 965  860.3751
 966  964.197
 967  959.517
 968  1061.66
 969  1044.033
 970  1097.303
 971  1094.073
 972  1093.64
 973  1016.653
 974  973.359
 975  974.7828
 976  956.8306
 977  945.3859
 978  956.0668
 979  1014.794
 980  1117.312
 981  1188.237
 982  1264.134
 983  1204.03
 984  1290.611
 985  1249.309
 986  1145.822
 987  1036.883
 988  1095.95
 989  1070.918
 990  1025.118
 991  972.2433
 992  1167.397
 993  1253.8
 994  1352.779
 995  1320.148
 996  1289.772
 997  1127.997
 998  1082.926
 999  1088.258
1000  1105.02
1001  1179.073
1002  1265.184
1003  1329.421
1004  1198.988
1005  1182.877
1006  1225.769
1007  1374.868
1008  1271.644
1009  1167.167
1010  1051.653
1011  1167.667
1012  1153.391
1013  1090.422
1014  1013.226
1015  936.0115
1016  975.5482
1017  1095.916
1018  1102.578
1019  1057.803
1020  1042.823
1021  1075.862
1022  1107.151
1023  1080.685
