# Input file       =  1198015849.104194_cleaned.dat
# Candidate        =  PSR_0332+5434
# Telescope        =  AR
# Epoch_topo       =  58109.924399354095
# Epoch_bary       =  N/A
# T_sample         =  0.002
# Data Folded      =  7340032
# Data Avg         =  0.121574662649696
# Data StdDev      =  3.90990503911733 
# Profile Bins     =  512
# Profile Avg      =  1742.85677890871 
# Profile StdDev   =  468.144802278337 
# Reduced chi-sqr  =  0.538
# Prob(Noise)      <  1   (~0.0 sigma)
# P_topo (ms)      =  714.547977352135  +/- 0.000896
# P'_topo (s/s)    =  -0                +/- 4.73e-10
# P''_topo (s/s^2) =  0                 +/- 2.09e-13
# P_bary (ms)      =  N/A
# P'_bary (s/s)    =  N/A
# P''_bary (s/s^2) =  N/A
# P_orb (s)        =  N/A
# asin(i)/c (s)    =  N/A
# eccentricity     =  N/A
# w (rad)          =  N/A
# T_peri           =  N/A
######################################################
   0  1532.611
   1  1756.842
   2  1647.559
   3  1472.829
   4  1337.861
   5  1425.261
   6  1689.733
   7  1460.321
   8  1632.953
   9  1614.938
  10  1914.814
  11  1905.569
  12  1589.502
  13  1518.453
  14  1535.762
  15  1414.745
  16  1332.318
  17  1306.348
  18  1428.69
  19  1424.672
  20  1089.391
  21  1531.997
  22  1355.204
  23  1715.612
  24  1697.143
  25  1631.132
  26  1711.281
  27  1522.279
  28  1547.703
  29  1440.533
  30  1734.702
  31  1692.11
  32  1427.059
  33  1875.454
  34  1893.109
  35  1423.367
  36  1411.69
  37  1705.874
  38  1950.384
  39  1331.234
  40  1414.951
  41  1709.864
  42  1936.306
  43  1927.278
  44  1988.612
  45  1875.189
  46  2048.966
  47  2339.005
  48  2388.027
  49  2047.252
  50  2134.24
  51  2405.936
  52  2310.696
  53  1870.91
  54  1647.82
  55  1930.345
  56  1830.326
  57  1226.374
  58  1302.276
  59  1574
  60  1823.857
  61  1701.069
  62  1630.865
  63  1593.737
  64  1681.228
  65  1617.816
  66  2043.694
  67  1927.499
  68  1511.099
  69  1530.033
  70  1699.496
  71  1966.226
  72  1670.603
  73  1470.383
  74  1590.459
  75  1894.27
  76  1935.782
  77  1762.548
  78  1872.401
  79  1511.613
  80  1717.743
  81  1661.814
  82  1641.306
  83  1830.12
  84  1927.129
  85  1826.206
  86  1619.337
  87  1834.885
  88  1836
  89  1312.445
  90  1699.295
  91  1552.455
  92  1771.355
  93  1779.283
  94  1797.143
  95  1699.722
  96  1528.245
  97  1781.496
  98  1702.032
  99  1483.23
 100  1677.378
 101  1648.981
 102  1666.91
 103  1875.707
 104  1566.802
 105  1836.897
 106  1770.836
 107  1929.543
 108  1795.189
 109  1771.545
 110  1679.836
 111  1771.524
 112  1889.366
 113  1814.003
 114  1654.147
 115  1669.366
 116  1645.469
 117  1779.058
 118  1748.494
 119  1820.772
 120  1711.324
 121  1799.384
 122  1743.562
 123  2005.229
 124  2010.283
 125  2131.365
 126  1701.137
 127  1580.258
 128  1599.907
 129  1577.677
 130  1660.549
 131  1651.238
 132  1840.826
 133  2055.093
 134  2090.557
 135  2062.527
 136  1971.693
 137  1502.994
 138  1566.993
 139  1738.886
 140  1907.126
 141  1992.279
 142  1772.488
 143  1449.785
 144  1656.068
 145  1416.002
 146  1392.787
 147  1493.338
 148  1559.467
 149  1431.208
 150  1546.63
 151  1683.618
 152  1712.96
 153  1495.174
 154  1587.806
 155  1757.833
 156  1627.079
 157  1446.222
 158  1423.512
 159  1357.713
 160  1389.458
 161  1431.673
 162  1454.917
 163  1692.236
 164  1815.351
 165  1870.549
 166  1811.272
 167  1828.471
 168  1736.118
 169  1864.831
 170  1896.079
 171  1809.71
 172  1916.901
 173  1708.777
 174  1885.972
 175  1503.963
 176  1158.136
 177  1444.958
 178  1659.158
 179  1560.449
 180  1724.573
 181  1844.265
 182  1612.009
 183  1341.445
 184  1334.235
 185  1634.022
 186  1654.193
 187  1397.983
 188  1302.546
 189  1323.002
 190  1539.626
 191  1812.254
 192  1619.578
 193  1539.005
 194  1998.471
 195  2124.362
 196  1953.756
 197  2159.224
 198  2088.394
 199  2047.703
 200  1519.719
 201  1553.53
 202  1899.61
 203  1694.611
 204  1678.386
 205  1929.354
 206  2029.829
 207  2016.522
 208  2128.787
 209  2167.565
 210  1861.454
 211  1547.38
 212  1492.834
 213  1487.224
 214  1474.888
 215  1436.109
 216  1643.057
 217  2001.754
 218  2247.102
 219  2242.492
 220  1961.035
 221  1749.563
 222  1641.665
 223  1980.457
 224  2172.154
 225  1881.456
 226  1619.505
 227  1805.145
 228  1870.039
 229  1363.464
 230  1425.252
 231  1662.31
 232  1822.526
 233  2231.172
 234  2376.28
 235  1752.754
 236  1502.529
 237  1390.314
 238  1614.183
 239  1705.672
 240  1849.288
 241  2168.78
 242  2013.689
 243  1514.957
 244  1448.748
 245  1503.317
 246  1561.691
 247  1469.768
 248  1684.468
 249  1900.008
 250  1902.41
 251  1953.211
 252  1871.879
 253  1779.657
 254  1794.172
 255  1839.509
 256  1827.168
 257  1642.683
 258  1951.075
 259  2115.164
 260  2158.949
 261  1937.373
 262  1715.444
 263  1952.718
 264  2006.054
 265  2038.093
 266  1891.083
 267  1926.25
 268  2014.996
 269  2184.297
 270  1905.27
 271  1866.446
 272  1803.59
 273  1919.961
 274  1870.251
 275  2023.638
 276  2141.296
 277  2097.078
 278  1907.942
 279  2152.374
 280  2348.018
 281  2711.839
 282  2323.414
 283  1864.883
 284  1793.432
 285  2239.281
 286  1830.026
 287  1744.888
 288  1887.211
 289  1880.348
 290  2173.74
 291  2003.401
 292  1975.483
 293  2093.135
 294  1953.673
 295  2012.354
 296  2020.784
 297  2051.223
 298  1985.69
 299  1730.9
 300  1822.993
 301  1947.351
 302  2013.231
 303  1667.303
 304  1500.109
 305  1510.962
 306  1537.269
 307  1486.519
 308  1568.474
 309  1589.292
 310  1665.156
 311  1501.856
 312  1715.559
 313  1871.68
 314  1844.472
 315  2078.475
 316  2025.3
 317  2194.384
 318  2157.704
 319  2214.018
 320  2002.78
 321  1514.255
 322  1425.271
 323  1796.466
 324  1826.342
 325  1592.642
 326  1567.159
 327  1397.038
 328  1765.344
 329  1693.905
 330  1529.498
 331  2172.9
 332  2179.268
 333  1599.173
 334  1813.395
 335  1859.92
 336  1415.853
 337  1402.288
 338  2031.784
 339  2137.789
 340  2045.184
 341  1801.197
 342  1691.935
 343  1374.99
 344  1385.401
 345  1576.962
 346  1535.88
 347  1524.81
 348  1756.266
 349  1628.878
 350  1309.56
 351  1685.971
 352  1863.053
 353  1786.403
 354  1562.337
 355  1620.541
 356  1855.099
 357  2153.445
 358  2117.642
 359  2087.78
 360  1742.71
 361  1588.121
 362  1970.867
 363  1895.9
 364  2032.472
 365  1762.997
 366  1685.264
 367  1944.439
 368  1551.421
 369  1606.32
 370  1489.628
 371  1744.63
 372  1508.187
 373  1758.326
 374  1747.558
 375  1904.098
 376  1854.506
 377  1990.9
 378  1648.741
 379  1498.295
 380  1626.517
 381  1676.051
 382  1410.306
 383  1561.089
 384  1826.147
 385  1762.74
 386  1291.203
 387  1465.397
 388  1500.985
 389  1474.584
 390  1680.929
 391  1825.13
 392  1900.717
 393  1471.859
 394  1405.108
 395  1500.186
 396  1598.425
 397  1670.913
 398  1675.169
 399  1757.096
 400  1862.185
 401  1904.75
 402  1890.729
 403  1429.856
 404  1630.512
 405  1987.727
 406  2422.1
 407  1894.099
 408  1847.606
 409  1916.907
 410  1795.538
 411  1703.677
 412  2251.052
 413  1898.341
 414  1722.243
 415  1974.506
 416  1904.158
 417  2101.587
 418  2173.632
 419  1995.309
 420  2249.121
 421  2159.545
 422  1953.616
 423  1835.08
 424  2080.134
 425  1897.57
 426  1663.805
 427  1526.798
 428  1471.375
 429  1797.714
 430  1857.372
 431  1915.198
 432  1973.282
 433  2168.474
 434  1892.256
 435  1467.57
 436  1346.861
 437  1153.612
 438  1310.658
 439  1893.611
 440  1827.401
 441  1982.67
 442  1608.085
 443  1290.104
 444  1109.213
 445  1083.485
 446  1729.515
 447  1787.415
 448  1762.948
 449  1892.521
 450  1878.217
 451  1770.76
 452  1592.973
 453  1413.11
 454  1648.95
 455  1692.516
 456  1904.951
 457  1765.252
 458  1705.449
 459  1771.232
 460  1534.53
 461  1594.113
 462  1648.249
 463  1696.255
 464  1695.578
 465  1576.837
 466  1476.907
 467  1791.339
 468  2115.637
 469  1920.069
 470  1568.003
 471  1755.48
 472  1581.835
 473  1864.161
 474  1804.339
 475  1649.956
 476  1736.365
 477  1860.732
 478  1809.707
 479  1567.568
 480  1479.949
 481  1398.724
 482  1339.261
 483  1507.955
 484  1435.15
 485  1510.3
 486  1480.939
 487  1096.017
 488  1315.711
 489  1489.973
 490  1494.775
 491  1475.206
 492  1484.232
 493  1941.197
 494  1748.454
 495  1760.648
 496  1744.541
 497  1404.992
 498  1722.282
 499  1722.444
 500  2049.819
 501  2052.176
 502  2103.932
 503  1930.313
 504  1473.603
 505  1754.987
 506  1854.815
 507  1891.044
 508  2060.298
 509  1624.497
 510  1535.719
 511  1376.186
