# Input file       =  1198259396.105565_cleaned.dat
# Candidate        =  PSR_0332+5434
# Telescope        =  AR
# Epoch_topo       =  58112.743230388485
# Epoch_bary       =  N/A
# T_sample         =  0.002
# Data Folded      =  7340032
# Data Avg         =  0.0565921973290945
# Data StdDev      =  1.00007870841925 
# Profile Bins     =  512
# Profile Avg      =  811.51772267785  
# Profile StdDev   =  119.742460374792 
# Reduced chi-sqr  =  0.785
# Prob(Noise)      <  1   (~0.0 sigma)
# P_topo (ms)      =  714.550251594708  +/- 6.28e-05
# P'_topo (s/s)    =  -0                +/- 3.31e-11
# P''_topo (s/s^2) =  0                 +/- 1.46e-14
# P_bary (ms)      =  N/A
# P'_bary (s/s)    =  N/A
# P''_bary (s/s^2) =  N/A
# P_orb (s)        =  N/A
# asin(i)/c (s)    =  N/A
# eccentricity     =  N/A
# w (rad)          =  N/A
# T_peri           =  N/A
######################################################
   0  801.9232
   1  781.2966
   2  809.6008
   3  768.0779
   4  712.23
   5  755.617
   6  840.041
   7  810.2807
   8  796.5269
   9  834.9957
  10  798.8815
  11  856.8602
  12  886.2546
  13  888.0922
  14  771.9269
  15  772.7321
  16  869.2492
  17  831.2018
  18  808.8998
  19  874.2377
  20  754.1796
  21  781.1812
  22  812.5805
  23  822.5315
  24  922.3151
  25  949.0764
  26  1121.511
  27  1245.127
  28  1179.867
  29  1012.417
  30  1043.256
  31  936.4854
  32  985.3005
  33  894.8314
  34  905.0631
  35  866.4266
  36  824.4971
  37  819.1714
  38  881.9297
  39  821.9871
  40  791.5981
  41  808.5919
  42  801.3351
  43  837.6159
  44  792.4285
  45  814.9824
  46  759.9344
  47  697.5908
  48  740.8289
  49  773.5223
  50  779.4084
  51  770.2887
  52  848.8204
  53  827.2141
  54  785.5419
  55  744.3506
  56  658.6212
  57  685.6545
  58  783.5541
  59  781.3868
  60  764.5901
  61  812.311
  62  896.1671
  63  850.1793
  64  736.4759
  65  715.6204
  66  813.999
  67  824.6656
  68  864.0084
  69  743.3101
  70  786.1641
  71  827.9535
  72  838.5197
  73  775.1641
  74  835.1458
  75  880.3504
  76  880.8216
  77  928.3686
  78  835.5289
  79  767.3475
  80  747.1658
  81  877.0629
  82  973.9363
  83  891.3536
  84  851.3185
  85  878.211
  86  841.139
  87  828.5171
  88  718.0794
  89  698.975
  90  737.2952
  91  807.1037
  92  823.9995
  93  699.0483
  94  686.173
  95  797.5385
  96  875.8858
  97  875.1193
  98  804.295
  99  735.3445
 100  729.9014
 101  738.7128
 102  719.8518
 103  677.5884
 104  647.5015
 105  802.3403
 106  909.8757
 107  829.8881
 108  691.2067
 109  702.8531
 110  802.3928
 111  799.1752
 112  663.3566
 113  694.7346
 114  824.222
 115  782.0893
 116  792.9229
 117  825.8972
 118  810.7833
 119  836.1793
 120  774.1534
 121  828.1474
 122  702.4923
 123  794.5286
 124  921.7741
 125  861.8889
 126  831.7084
 127  929.2067
 128  864.1002
 129  820.191
 130  757.5505
 131  772.6309
 132  837.3841
 133  830.2324
 134  770.4753
 135  696.4875
 136  692.9274
 137  796.2184
 138  789.3343
 139  851.0267
 140  861.2513
 141  826.5079
 142  783.6372
 143  868.1111
 144  824.8375
 145  805.4484
 146  865.041
 147  791.9477
 148  853.2437
 149  804.3066
 150  734.5665
 151  740.0847
 152  798.9202
 153  798.8228
 154  797.6208
 155  775.8845
 156  716.8173
 157  802.0256
 158  745.0026
 159  724.4099
 160  763.2977
 161  680.0388
 162  824.3699
 163  1009.397
 164  937.5987
 165  864.5579
 166  914.4592
 167  955.3637
 168  884.3642
 169  796.7327
 170  893.3575
 171  951.0349
 172  829.6467
 173  877.7413
 174  837.7527
 175  872.4197
 176  882.8146
 177  899.4016
 178  826.914
 179  805.9891
 180  778.9635
 181  775.272
 182  878.0993
 183  791.8514
 184  684.7921
 185  736.062
 186  735.2776
 187  842.305
 188  763.5076
 189  750.0135
 190  734.3521
 191  726.9569
 192  806.5654
 193  804.0458
 194  722.7473
 195  821.9787
 196  871.8881
 197  817.0516
 198  757.9598
 199  833.8131
 200  882.5147
 201  874.0166
 202  833.6672
 203  810.8881
 204  820.6377
 205  819.7507
 206  914.4219
 207  833.4941
 208  867.8546
 209  759.4971
 210  891.7633
 211  887.1717
 212  771.0261
 213  736.1538
 214  780.7178
 215  872.8203
 216  856.3545
 217  818.4083
 218  834.7883
 219  815.2455
 220  777.3078
 221  808.6215
 222  820.5001
 223  787.0804
 224  772.642
 225  823.7595
 226  842.22
 227  790.675
 228  831.4293
 229  874.7927
 230  941.0353
 231  807.6067
 232  799.9458
 233  769.4258
 234  742.1939
 235  797.7913
 236  793.1295
 237  743.3077
 238  802.3571
 239  816.1442
 240  806.936
 241  810.5735
 242  749.6476
 243  770.4208
 244  799.555
 245  800.1838
 246  786.2289
 247  770.7119
 248  838.2736
 249  830.7965
 250  813.259
 251  740.0472
 252  816.0223
 253  852.2134
 254  870.6176
 255  848.3549
 256  820.2407
 257  880.6957
 258  678.2104
 259  719.9813
 260  813.1725
 261  777.2685
 262  817.2394
 263  795.9427
 264  773.3663
 265  722.8145
 266  696.5236
 267  835.266
 268  793.9612
 269  818.5594
 270  802.5984
 271  685.8622
 272  735.7312
 273  845.8876
 274  800.0273
 275  732.6602
 276  791.3274
 277  878.7651
 278  801.5058
 279  772.8452
 280  692.1437
 281  673.9436
 282  826.7076
 283  900.8117
 284  819.9603
 285  685.8276
 286  698.6957
 287  717.9777
 288  858.3925
 289  906.7721
 290  759.6422
 291  696.822
 292  832.5261
 293  893.3884
 294  774.2627
 295  630.0143
 296  697.9229
 297  805.4357
 298  797.9232
 299  738.6715
 300  664.2137
 301  755.0008
 302  800.7391
 303  690.4601
 304  577.4462
 305  686.8921
 306  847.4993
 307  875.4064
 308  777.8663
 309  713.1389
 310  742.9727
 311  901.8418
 312  862.2836
 313  843.3828
 314  767.0312
 315  685.8539
 316  725.1487
 317  732.0344
 318  703.9991
 319  751.1191
 320  753.396
 321  745.0158
 322  701.9509
 323  728.7988
 324  889.3133
 325  821.353
 326  817.3182
 327  873.5571
 328  793.85
 329  778.0074
 330  827.1829
 331  788.2548
 332  805.1456
 333  760.3522
 334  790.4197
 335  979.2582
 336  903.6367
 337  783.869
 338  761.9948
 339  735.9674
 340  771.0109
 341  814.7529
 342  848.2509
 343  754.0793
 344  686.4235
 345  813.6414
 346  819.1522
 347  768.8918
 348  790.093
 349  835.5948
 350  853.3911
 351  842.9391
 352  810.7485
 353  848.4826
 354  908.1478
 355  933.9601
 356  827.465
 357  896.6353
 358  884.1171
 359  889.8808
 360  867.8541
 361  807.7603
 362  781.1252
 363  859.072
 364  880.8599
 365  810.9583
 366  771.6365
 367  750.6837
 368  816.9214
 369  836.5074
 370  854.126
 371  864.4816
 372  924.1351
 373  892.4666
 374  869.9758
 375  872.405
 376  830.9768
 377  821.2809
 378  860.9171
 379  891.8987
 380  850.0112
 381  773.4035
 382  890.0458
 383  941.9529
 384  885.851
 385  904.6866
 386  873.7246
 387  851.9635
 388  833.825
 389  892.9218
 390  855.4796
 391  843.0353
 392  854.1476
 393  868.8044
 394  848.4318
 395  918.7303
 396  947.2294
 397  895.4698
 398  840.1094
 399  821.9319
 400  906.6364
 401  868.9619
 402  952.8207
 403  883.1149
 404  841.7145
 405  878.9295
 406  800.3856
 407  744.5107
 408  743.8091
 409  644.0945
 410  740.0856
 411  762.5555
 412  720.5443
 413  742.8108
 414  749.3765
 415  737.9227
 416  755.7683
 417  741.5519
 418  752.8384
 419  707.4813
 420  735.0233
 421  798.9086
 422  914.2372
 423  866.5096
 424  703.9608
 425  699.3284
 426  760.5745
 427  752.4814
 428  727.9345
 429  868.7754
 430  906.2736
 431  882.9432
 432  838.4033
 433  778.1627
 434  795.0273
 435  780.0645
 436  793.6016
 437  777.5836
 438  755.057
 439  830.6601
 440  946.7731
 441  875.5281
 442  940.6353
 443  835.8942
 444  755.8175
 445  745.8873
 446  762.8795
 447  810.6111
 448  782.5733
 449  897.5846
 450  864.5113
 451  888.2556
 452  826.978
 453  791.8545
 454  782.612
 455  772.858
 456  802.1728
 457  742.0416
 458  782.5411
 459  905.9584
 460  904.051
 461  844.9258
 462  822.7841
 463  950.9673
 464  1099.906
 465  1030.735
 466  948.7623
 467  904.9979
 468  800.5691
 469  760.445
 470  828.713
 471  858.5904
 472  882.948
 473  991.8004
 474  884.8559
 475  810.3292
 476  855.2416
 477  792.6201
 478  938.2767
 479  936.4948
 480  836.3167
 481  814.577
 482  727.9056
 483  804.582
 484  799.7763
 485  740.8461
 486  793.9139
 487  867.2057
 488  897.2585
 489  776.6793
 490  807.3722
 491  752.0624
 492  764.4071
 493  714.2386
 494  805.7679
 495  702.819
 496  649.7603
 497  659.8119
 498  654.1199
 499  694.1255
 500  773.9484
 501  840.5338
 502  801.7854
 503  832.6051
 504  766.8234
 505  716.3355
 506  707.178
 507  689.5975
 508  793.9729
 509  766.2013
 510  711.9467
 511  786.1171
