# Input file       =  1198330917.113058_cleaned.dat
# Candidate        =  PSR_0332+5434
# Telescope        =  AR
# Epoch_topo       =  58113.571019827061
# Epoch_bary       =  N/A
# T_sample         =  0.002
# Data Folded      =  7143424
# Data Avg         =  0.0760017913471294
# Data StdDev      =  1.00031765667259 
# Profile Bins     =  512
# Profile Avg      =  1060.33446115866 
# Profile StdDev   =  118.156105638385 
# Reduced chi-sqr  =  1.199
# Prob(Noise)      <  0.0013   (~3.0 sigma)
# P_topo (ms)      =  714.550981984733  +/- 0.000239
# P'_topo (s/s)    =  -0                +/- 1.3e-10
# P''_topo (s/s^2) =  0                 +/- 5.88e-14
# P_bary (ms)      =  N/A
# P'_bary (s/s)    =  N/A
# P''_bary (s/s^2) =  N/A
# P_orb (s)        =  N/A
# asin(i)/c (s)    =  N/A
# eccentricity     =  N/A
# w (rad)          =  N/A
# T_peri           =  N/A
######################################################
   0  1021.09
   1  950.7431
   2  1007.642
   3  1049.285
   4  1039.916
   5  1120.078
   6  1209.686
   7  1264.31
   8  1253.078
   9  1134.896
  10  1113.209
  11  1008.88
  12  1020.289
  13  1107.668
  14  1146.973
  15  1054.655
  16  1067.855
  17  1174.826
  18  1113.014
  19  1147.172
  20  1126.647
  21  1154.818
  22  1277.338
  23  1141.435
  24  992.3043
  25  1084.931
  26  1165.923
  27  1061.309
  28  983.9392
  29  1106.118
  30  1081.727
  31  1090.908
  32  1062.491
  33  1031.06
  34  986.4171
  35  1127.772
  36  1108.321
  37  996.858
  38  1068.238
  39  1159.073
  40  1181.59
  41  1041.276
  42  1036.548
  43  1137.421
  44  958.9175
  45  966.2697
  46  1032.066
  47  1069.948
  48  1078.959
  49  1059.899
  50  1056.647
  51  1094.59
  52  984.2708
  53  924.1351
  54  1051.299
  55  1134.148
  56  1041.145
  57  1118.691
  58  1167.805
  59  1072.106
  60  1101.455
  61  1162.83
  62  1041.801
  63  1117.242
  64  1268.647
  65  1161.905
  66  1141.682
  67  1111.627
  68  1190.825
  69  1172.187
  70  1073.173
  71  1040.912
  72  1089.725
  73  1150.629
  74  1053.08
  75  934.6628
  76  1002.45
  77  1021.314
  78  973.1388
  79  1065.061
  80  1180.601
  81  1124.503
  82  1091.121
  83  1127.865
  84  1222.272
  85  1071.136
  86  1073.73
  87  1214.04
  88  1213.352
  89  1146.24
  90  1145.264
  91  1142.4
  92  1054.642
  93  1054.939
  94  1045.258
  95  1003.389
  96  1076.776
  97  1082.858
  98  1090.476
  99  991.0499
 100  903.3878
 101  1021.056
 102  970.4445
 103  1027.091
 104  1135.462
 105  1092.456
 106  1015.385
 107  1021.295
 108  882.374
 109  919.9077
 110  910.4262
 111  1027.691
 112  1002.768
 113  1029.576
 114  1103.036
 115  1032.218
 116  961.5943
 117  1073.07
 118  1027.729
 119  1031.589
 120  1037.729
 121  1011.619
 122  995.8486
 123  1011.201
 124  1091.459
 125  1020.829
 126  955.9941
 127  967.9923
 128  972.9318
 129  1018.078
 130  1097.632
 131  1083.112
 132  975.6682
 133  945.6901
 134  1107.332
 135  1191.88
 136  1140.47
 137  999.2834
 138  1029.704
 139  1100.243
 140  1060.137
 141  1070.334
 142  990.2325
 143  1022.343
 144  985.6119
 145  916.3788
 146  1087.494
 147  1058.309
 148  960.9605
 149  1031.738
 150  1121.132
 151  1107.314
 152  946.0586
 153  1033.792
 154  1126.493
 155  1125.407
 156  1038.252
 157  997.9438
 158  907.5976
 159  994.3067
 160  993.5603
 161  1056.658
 162  965.8643
 163  1091.072
 164  1126.565
 165  969.4451
 166  907.5721
 167  958.3368
 168  1020.928
 169  1098.103
 170  949.3041
 171  949.4742
 172  1083.985
 173  1038.79
 174  955.6769
 175  1009.355
 176  1052.844
 177  1022.283
 178  1070.943
 179  1083.723
 180  1094.617
 181  1178.845
 182  1178.025
 183  1179.77
 184  1150.717
 185  1056.433
 186  1070.218
 187  1103.301
 188  1021.976
 189  1077.813
 190  1057.983
 191  967.4706
 192  1017.237
 193  1058.255
 194  1183.615
 195  1140.975
 196  1032.509
 197  1040.495
 198  1048.01
 199  1032.952
 200  1026.73
 201  971.4922
 202  1006.744
 203  1129.439
 204  1081.521
 205  1082.007
 206  1038.13
 207  1132.901
 208  1052.567
 209  1034.096
 210  1183.693
 211  1247.394
 212  1134.107
 213  982.8692
 214  977.04
 215  869.9086
 216  872.9982
 217  885.3524
 218  1166.152
 219  1197.363
 220  1218.871
 221  1090.728
 222  1109.043
 223  1156.082
 224  1077.435
 225  1079.847
 226  1083.845
 227  935.3123
 228  1055.871
 229  995.9467
 230  1051.081
 231  1064.416
 232  973.0944
 233  1007.278
 234  1058.485
 235  1117.916
 236  1125.042
 237  1128.526
 238  1100.712
 239  1070.749
 240  994.639
 241  980.3964
 242  1025.181
 243  939.662
 244  1008.103
 245  990.6325
 246  901.75
 247  1028.382
 248  1021.659
 249  1106.772
 250  1160.867
 251  1009.42
 252  1053.529
 253  887.3275
 254  862.5342
 255  1052.527
 256  1147.626
 257  1047.326
 258  966.9286
 259  989.2634
 260  1006.936
 261  1062.691
 262  907.9907
 263  1037.984
 264  1073.762
 265  1086.196
 266  1043.847
 267  911.0493
 268  1045.738
 269  1176.595
 270  1187.911
 271  1085.616
 272  1097.858
 273  1079.412
 274  953.0577
 275  1048.358
 276  1168.178
 277  1087.929
 278  980.848
 279  1009.232
 280  1074.149
 281  1025.69
 282  980.509
 283  989.9689
 284  1114.626
 285  1117.584
 286  1039.555
 287  1045.186
 288  1024.918
 289  1079.841
 290  1092.356
 291  1011.178
 292  1083.632
 293  1053.44
 294  978.4958
 295  1057.344
 296  1034.653
 297  932.1196
 298  970.5118
 299  896.3022
 300  860.4808
 301  933.2475
 302  959.5938
 303  982.9462
 304  1044.748
 305  1020.625
 306  1049.53
 307  979.8764
 308  1017.634
 309  1047.437
 310  919.5251
 311  942.5151
 312  1135.355
 313  1109.61
 314  1078.279
 315  1013.784
 316  957.4725
 317  856.549
 318  926.7966
 319  1061.329
 320  939.6852
 321  913.8456
 322  987.648
 323  1051.599
 324  979.5518
 325  981.5101
 326  915.3784
 327  869.1001
 328  929.902
 329  1037.639
 330  1000.003
 331  1047.038
 332  951.9797
 333  897.6452
 334  937.8232
 335  1055.269
 336  1076.049
 337  1074.594
 338  953.3184
 339  996.5162
 340  1103.818
 341  1160.735
 342  1173.969
 343  1199.042
 344  1132.924
 345  1025.142
 346  1078.696
 347  1160.994
 348  1086.679
 349  1017.57
 350  1116.323
 351  1204.13
 352  1300.495
 353  1254.885
 354  1195.121
 355  1176.277
 356  1172.358
 357  1033.797
 358  956.8006
 359  1000.554
 360  1012.539
 361  1076.745
 362  1044.337
 363  1009.442
 364  1009.483
 365  942.8783
 366  944.1017
 367  1047.916
 368  983.3946
 369  1081.512
 370  1150.562
 371  1055.273
 372  906.2683
 373  913.3794
 374  1111.233
 375  1067.851
 376  1153.787
 377  1110.459
 378  992.3342
 379  969.8832
 380  1114.25
 381  1059.647
 382  996.0723
 383  990.4609
 384  1050.501
 385  1017.113
 386  952.9209
 387  890.3257
 388  875.3237
 389  945.3629
 390  920.4944
 391  967.1681
 392  1079.806
 393  1058.144
 394  954.8253
 395  1033.735
 396  934.2551
 397  964.6805
 398  1074.248
 399  1088.244
 400  1082.154
 401  1008.577
 402  970.3979
 403  1068.603
 404  1056.383
 405  976.4947
 406  1090.454
 407  1095.38
 408  1213.587
 409  1256.419
 410  1198.478
 411  1100.731
 412  1205.761
 413  1204.267
 414  1170.947
 415  1366.059
 416  1535.992
 417  1540.921
 418  1555.822
 419  1509.084
 420  1366.409
 421  1258.989
 422  1194.892
 423  1107.065
 424  1017.913
 425  980.3661
 426  1026.374
 427  959.9036
 428  942.7382
 429  1092.741
 430  1055.688
 431  1013.772
 432  1099.255
 433  945.6799
 434  1127.433
 435  1102.963
 436  1112.839
 437  1046.249
 438  1029.683
 439  1008.807
 440  1027.737
 441  1064.225
 442  1016.836
 443  977.4474
 444  1119.78
 445  1079.804
 446  1143.566
 447  1163.229
 448  1037.587
 449  1115.477
 450  1067.114
 451  1069.255
 452  992.3137
 453  1144.726
 454  1204.721
 455  1005.731
 456  967.8223
 457  1027.335
 458  1188.471
 459  1208.684
 460  1149.412
 461  1025.688
 462  1118.3
 463  1130.941
 464  960.3347
 465  960.9054
 466  1119.87
 467  1130.366
 468  1128.64
 469  1249.037
 470  1154.49
 471  1057.403
 472  1001.122
 473  956.7957
 474  1051.657
 475  1081.721
 476  965.9838
 477  1068.1
 478  1014.505
 479  1012.74
 480  1063.476
 481  1072.967
 482  1060.5
 483  1034.751
 484  1124.134
 485  983.9348
 486  999.6726
 487  937.9189
 488  1059.435
 489  1133.138
 490  1155.618
 491  1169.172
 492  1052.002
 493  1019.757
 494  1045.36
 495  1080.825
 496  1103.54
 497  1180.485
 498  1176.861
 499  1165.289
 500  1143.389
 501  1095.394
 502  1105.917
 503  1069.584
 504  1147.433
 505  1103.623
 506  991.9996
 507  986.8892
 508  1061.291
 509  1145.325
 510  1037.315
 511  1065.177
