# Input file       =  1198072487.096268_cleaned.dat
# Candidate        =  PSR_0332+5434
# Telescope        =  AR
# Epoch_topo       =  58110.579931669767
# Epoch_bary       =  N/A
# T_sample         =  0.002
# Data Folded      =  7143424
# Data Avg         =  0.07432329505944 
# Data StdDev      =  1.00078269335744 
# Profile Bins     =  512
# Profile Avg      =  1036.84212567075 
# Profile StdDev   =  118.211035113332 
# Reduced chi-sqr  =  0.793
# Prob(Noise)      <  1   (~0.0 sigma)
# P_topo (ms)      =  714.548227865035  +/- 6.82e-05
# P'_topo (s/s)    =  -0                +/- 3.7e-11
# P''_topo (s/s^2) =  0                 +/- 1.68e-14
# P_bary (ms)      =  N/A
# P'_bary (s/s)    =  N/A
# P''_bary (s/s^2) =  N/A
# P_orb (s)        =  N/A
# asin(i)/c (s)    =  N/A
# eccentricity     =  N/A
# w (rad)          =  N/A
# T_peri           =  N/A
######################################################
   0  1291.312
   1  1214.528
   2  1200.139
   3  1202.625
   4  1112.502
   5  1050.531
   6  1060.545
   7  1127.254
   8  1103.695
   9  1145.636
  10  1204.484
  11  1064.469
  12  965.9367
  13  1029.803
  14  960.4669
  15  974.5657
  16  1089.277
  17  1074.287
  18  1018.991
  19  1138.564
  20  1070.993
  21  1022.708
  22  1041.528
  23  1022.186
  24  1044.735
  25  1005.531
  26  1006.495
  27  951.7557
  28  978.1103
  29  979.3012
  30  1007.739
  31  1116.947
  32  1091.634
  33  977.7252
  34  1020.18
  35  1077.372
  36  959.3498
  37  870.3874
  38  884.3914
  39  911.7513
  40  881.2538
  41  924.8735
  42  1008.855
  43  1041.441
  44  954.3699
  45  912.9962
  46  958.2888
  47  1057.281
  48  1025.369
  49  1047.846
  50  1034.245
  51  993.8144
  52  1055.323
  53  1034.894
  54  1010.189
  55  1104.925
  56  1138.521
  57  1130.494
  58  1115.441
  59  1069.034
  60  1037.921
  61  975.3353
  62  1086.862
  63  1068.833
  64  1052.694
  65  1089.91
  66  1233.506
  67  1121.554
  68  1009.666
  69  1127.824
  70  1038.465
  71  903.3824
  72  904.4962
  73  854.7592
  74  1052
  75  946.8242
  76  901.2558
  77  985.166
  78  1080.144
  79  1028.25
  80  1022.479
  81  1135.634
  82  1037.252
  83  950.8061
  84  909.7069
  85  1048.009
  86  969.5298
  87  992.6768
  88  1029.868
  89  1116.724
  90  1055.718
  91  1012.488
  92  991.0536
  93  1001.829
  94  943.4195
  95  975.4216
  96  1019.529
  97  1031.408
  98  1015.353
  99  1089.828
 100  1093.403
 101  1031.634
 102  1114.484
 103  1111.929
 104  980.2736
 105  1018.57
 106  1122.89
 107  1148.524
 108  1129.185
 109  1072.165
 110  920.8671
 111  892.6068
 112  911.2042
 113  931.485
 114  1122.859
 115  1171.292
 116  1079.073
 117  1062.123
 118  1069.983
 119  1057.663
 120  1047.978
 121  1072.815
 122  1037.517
 123  1025.866
 124  1075.554
 125  1044.447
 126  1090.563
 127  1057.042
 128  984.6341
 129  1023.569
 130  979.1208
 131  1055.725
 132  1078.385
 133  1020.885
 134  1005.365
 135  1008.455
 136  1019.419
 137  1027.091
 138  1031.003
 139  1065.953
 140  1067.692
 141  1028.554
 142  1128.326
 143  1061.917
 144  970.3771
 145  991.3006
 146  994.0121
 147  1036.646
 148  1077.153
 149  1025.529
 150  1088.36
 151  1089.616
 152  997.4233
 153  1017.565
 154  966.2856
 155  902.7357
 156  1064.424
 157  1114.059
 158  1035.09
 159  994.6917
 160  963.3647
 161  872.3669
 162  892.6078
 163  929.4274
 164  1036.109
 165  931.8025
 166  937.3795
 167  1008.323
 168  973.9333
 169  946.4842
 170  1009.821
 171  1025.836
 172  910.0334
 173  894.4141
 174  943.176
 175  898.9198
 176  1045.454
 177  980.9393
 178  992.509
 179  1042.955
 180  1113.119
 181  1107.489
 182  1048.432
 183  977.0954
 184  1051.421
 185  1064.473
 186  1072.782
 187  959.7805
 188  1011.385
 189  1084.398
 190  984.0777
 191  1026.764
 192  1017.326
 193  926.1721
 194  882.2742
 195  935.8561
 196  1008.881
 197  1079.602
 198  1001.178
 199  1053.144
 200  1045.618
 201  1013.646
 202  906.6387
 203  1029.621
 204  1025.161
 205  1117.911
 206  1137.481
 207  1096.122
 208  958.0737
 209  986.5013
 210  1071.542
 211  1043.052
 212  1071.962
 213  1036.133
 214  1041.953
 215  1064.847
 216  1100.307
 217  1033.555
 218  1057.423
 219  1035.886
 220  1003.914
 221  930.1019
 222  803.0054
 223  1005.543
 224  1108.96
 225  1027.236
 226  897.8515
 227  1029.39
 228  1121.375
 229  1028.489
 230  1037.124
 231  1075.605
 232  982.3341
 233  1006.656
 234  1001.022
 235  1015.584
 236  993.0366
 237  1014.968
 238  1090.278
 239  1114.796
 240  1003.301
 241  839.3085
 242  965.3709
 243  952.6771
 244  909.1766
 245  993.0117
 246  1087.006
 247  916.8177
 248  899.2409
 249  992.1002
 250  1089.439
 251  1079.982
 252  1038.676
 253  1061.443
 254  1046.508
 255  1004.521
 256  1073.596
 257  1023.474
 258  983.8098
 259  996.696
 260  1088.197
 261  1128.25
 262  1061.607
 263  1140.872
 264  1129.848
 265  1013.162
 266  928.5762
 267  1102.06
 268  1029.462
 269  989.0086
 270  1081.079
 271  1218.755
 272  979.9323
 273  866.6821
 274  1057.531
 275  1089.894
 276  1079.884
 277  1030.232
 278  1020.921
 279  984.1726
 280  1116.614
 281  1107.901
 282  1034.784
 283  1042.224
 284  1031.287
 285  1086.662
 286  1097.315
 287  1096.151
 288  1058.656
 289  1074.724
 290  1019.352
 291  975.6508
 292  961.9318
 293  999.3776
 294  1067.22
 295  1056.465
 296  1109.521
 297  1058.936
 298  1045.144
 299  1015.349
 300  1019.58
 301  1019.568
 302  960.5707
 303  1063.13
 304  1220.462
 305  1112.582
 306  1036.408
 307  1090.267
 308  1037.786
 309  956.9249
 310  1032.846
 311  1107.738
 312  1044.478
 313  1144.686
 314  1185.817
 315  1043.75
 316  950.0502
 317  1087.182
 318  1105.528
 319  1093.098
 320  1127.323
 321  1060.945
 322  1056.646
 323  1030.22
 324  958.1277
 325  986.3777
 326  1082.915
 327  1103.745
 328  990.2981
 329  958.192
 330  1002.401
 331  1129.138
 332  1192.372
 333  1067.527
 334  1060.447
 335  1032.024
 336  1019.274
 337  986.0392
 338  978.0461
 339  985.7064
 340  880.6825
 341  909.024
 342  976.2386
 343  981.4493
 344  1093.979
 345  983.9911
 346  955.3056
 347  881.9724
 348  979.0987
 349  1009.245
 350  965.9969
 351  942.2496
 352  1002.807
 353  1056.468
 354  1029.191
 355  902.5781
 356  915.037
 357  971.2376
 358  928.1586
 359  976.8962
 360  1039.308
 361  1012.128
 362  940.0896
 363  903.6636
 364  959.7151
 365  984.1016
 366  1046.157
 367  1048.489
 368  1029.418
 369  901.975
 370  956.294
 371  1052.787
 372  988.3411
 373  997.9432
 374  1063.751
 375  1053.631
 376  994.4432
 377  949.0947
 378  1038.962
 379  1108.735
 380  1027.652
 381  972.3074
 382  1071.39
 383  1046.043
 384  1067.577
 385  1073.475
 386  1158.906
 387  987.4097
 388  906.4312
 389  1007.752
 390  945.4053
 391  952.9167
 392  1034.857
 393  1099.718
 394  1062.278
 395  1078.743
 396  1078.455
 397  977.7869
 398  1016.064
 399  1023.669
 400  1083.238
 401  1117.563
 402  1006.184
 403  902.0816
 404  1065.141
 405  1021.58
 406  937.3987
 407  1019.127
 408  863.0748
 409  838.5814
 410  1016.499
 411  1067.781
 412  1009.948
 413  1039.324
 414  1118.601
 415  1132.198
 416  1073.342
 417  1085.484
 418  1031.683
 419  1010.741
 420  1135.499
 421  1022.849
 422  937.9748
 423  1019.919
 424  1013.85
 425  1068.94
 426  978.2218
 427  1003.875
 428  1051.837
 429  1097.276
 430  1023.848
 431  1118.081
 432  1093.16
 433  1113.968
 434  1098.884
 435  1157.169
 436  1183.966
 437  1102.747
 438  1106.861
 439  1185.655
 440  1041.801
 441  1034.161
 442  1096.901
 443  1181.803
 444  1163.909
 445  1056.16
 446  1034.118
 447  953.8074
 448  1029.084
 449  1074.432
 450  966.0165
 451  999.4203
 452  1111.547
 453  1001.186
 454  1015.857
 455  1115.887
 456  1003.237
 457  909.7849
 458  1090.479
 459  1111.163
 460  1099.77
 461  1069.074
 462  1121.701
 463  1304.833
 464  1301.945
 465  1069.698
 466  1110.654
 467  1191.804
 468  1119.292
 469  1070.65
 470  1052.068
 471  1027.495
 472  935.0135
 473  973.7977
 474  1043.076
 475  1010
 476  1075.826
 477  1098.62
 478  1084.847
 479  1194.528
 480  1154.627
 481  1038.215
 482  1161.407
 483  1114.432
 484  983.8046
 485  1056.782
 486  1218.573
 487  1210.757
 488  1092.611
 489  1070.424
 490  1146.832
 491  1080.436
 492  1116.922
 493  1168.934
 494  1061.343
 495  1106.137
 496  1185.052
 497  1133.82
 498  1100.012
 499  1039.364
 500  1053.404
 501  936.6129
 502  997.4093
 503  1030.181
 504  1016.908
 505  944.275
 506  1036.14
 507  1129.019
 508  1111.184
 509  1175.412
 510  1234.011
 511  1242.265
