# Input file       =  1198360408.106056_cleaned.dat
# Candidate        =  PSR_0332+5434
# Telescope        =  AR
# Epoch_topo       =  58113.912350764534
# Epoch_bary       =  N/A
# T_sample         =  0.002
# Data Folded      =  7340032
# Data Avg         =  0.0445592170250597
# Data StdDev      =  0.999755625975602
# Profile Bins     =  512
# Profile Avg      =  638.64346298578  
# Profile StdDev   =  119.703776732813 
# Reduced chi-sqr  =  0.889
# Prob(Noise)      <  0.966   (~0.0 sigma)
# P_topo (ms)      =  714.55164986434   +/- 0.000163
# P'_topo (s/s)    =  -0                +/- 8.62e-11
# P''_topo (s/s^2) =  0                 +/- 3.8e-14
# P_bary (ms)      =  N/A
# P'_bary (s/s)    =  N/A
# P''_bary (s/s^2) =  N/A
# P_orb (s)        =  N/A
# asin(i)/c (s)    =  N/A
# eccentricity     =  N/A
# w (rad)          =  N/A
# T_peri           =  N/A
######################################################
   0  651.1682
   1  704.1531
   2  577.6434
   3  600.4132
   4  610.6962
   5  678.7198
   6  639.7047
   7  656.8605
   8  782.6698
   9  575.1418
  10  613.5374
  11  619.7003
  12  629.796
  13  670.8957
  14  674.1088
  15  680.02
  16  691.403
  17  624.6815
  18  609.1489
  19  602.0792
  20  710.5488
  21  699.7087
  22  718.0624
  23  692.202
  24  697.7568
  25  703.8225
  26  638.9806
  27  606.8629
  28  705.9601
  29  734.4505
  30  680.6735
  31  599.4988
  32  711.2738
  33  743.3792
  34  751.3502
  35  660.2422
  36  654.7444
  37  656.0655
  38  639.3048
  39  732.1506
  40  707.5908
  41  747.4232
  42  708.2782
  43  681.4464
  44  774.0958
  45  775.7617
  46  689.144
  47  680.5196
  48  743.5684
  49  722.3839
  50  676.8638
  51  717.2191
  52  741.5786
  53  660.3409
  54  579.3658
  55  591.4351
  56  578.5401
  57  744.322
  58  769.7458
  59  592.8145
  60  541.3853
  61  592.0122
  62  676.5125
  63  637.6492
  64  542.9509
  65  627.0312
  66  720.5997
  67  629.3864
  68  666.2629
  69  718.2087
  70  732.0112
  71  661.1879
  72  479.175
  73  483.3734
  74  633.121
  75  577.8499
  76  577.9788
  77  670.6874
  78  754.7375
  79  705.3904
  80  639.6871
  81  711.2767
  82  740.6281
  83  713.3643
  84  672.2651
  85  629.6109
  86  725.5641
  87  750.0817
  88  607.6076
  89  632.9821
  90  787.9885
  91  618.1435
  92  595.7936
  93  724.1797
  94  735.2021
  95  587.2842
  96  598.8593
  97  733.3598
  98  722.2298
  99  696.7467
 100  558.2704
 101  599.6885
 102  576.5925
 103  560.1645
 104  501.0457
 105  543.8604
 106  643.3347
 107  635.2729
 108  600.6384
 109  670.8516
 110  561.1644
 111  652.0974
 112  702.5025
 113  747.2713
 114  718.8803
 115  732.3329
 116  667.6182
 117  569.0026
 118  620.0423
 119  602.8249
 120  673.5513
 121  602.0325
 122  649.294
 123  662.1899
 124  652.6339
 125  528.6412
 126  589.1895
 127  632.2104
 128  490.0946
 129  589.571
 130  694.238
 131  618.6104
 132  477.5685
 133  604.6095
 134  636.8198
 135  682.4089
 136  638.1893
 137  566.3826
 138  569.5814
 139  597.056
 140  695.3528
 141  658.8033
 142  589.5959
 143  549.3228
 144  522.4292
 145  492.0515
 146  492.225
 147  516.6747
 148  517.3428
 149  513.7346
 150  524.1874
 151  686.1877
 152  687.262
 153  630.2008
 154  637.1046
 155  675.3429
 156  738.5002
 157  694.8992
 158  621.1464
 159  595.0095
 160  462.5774
 161  590.1204
 162  650.6633
 163  585.2401
 164  581.4323
 165  552.1832
 166  554.8519
 167  464.7158
 168  527.6923
 169  578.0379
 170  646.1162
 171  637.3538
 172  670.2267
 173  599.6171
 174  529.0785
 175  565.8801
 176  642.3387
 177  554.8895
 178  636.8675
 179  558.0809
 180  572.8021
 181  572.3329
 182  527.3172
 183  466.7572
 184  488.455
 185  632.5242
 186  667.6058
 187  560.4774
 188  719.3622
 189  759.5959
 190  746.1486
 191  540.1368
 192  481.2297
 193  480.4434
 194  538.5938
 195  653.0361
 196  559.6932
 197  578.0527
 198  638.7346
 199  509.6336
 200  474.4048
 201  559.0211
 202  511.2069
 203  446.636
 204  473.577
 205  580.5551
 206  560.132
 207  553.386
 208  581.7786
 209  610.1724
 210  602.0037
 211  618.7245
 212  579.397
 213  642.536
 214  583.6819
 215  605.7184
 216  618.1793
 217  581.0131
 218  551.7438
 219  681.9335
 220  759.2526
 221  846.977
 222  678.6699
 223  675.0845
 224  505.1539
 225  546.2664
 226  620.2463
 227  535.6589
 228  650.7177
 229  650.3616
 230  586.9847
 231  688.9571
 232  584.5217
 233  718.9865
 234  689.0464
 235  595.2928
 236  655.1151
 237  693.197
 238  738.6972
 239  747.8
 240  611.543
 241  606.9211
 242  629.3977
 243  701.2985
 244  629.5005
 245  609.662
 246  587.8328
 247  673.273
 248  580.103
 249  600.6072
 250  658.6362
 251  796.2106
 252  689.8876
 253  651.1188
 254  725.5034
 255  717.2974
 256  624.0103
 257  565.3278
 258  589.6818
 259  595.6093
 260  573.2324
 261  696.2015
 262  795.3536
 263  693.4345
 264  692.8882
 265  639.4412
 266  552.5317
 267  476.9464
 268  629.5734
 269  707.3503
 270  748.9661
 271  800.0447
 272  774.0095
 273  637.8964
 274  601.2664
 275  669.1169
 276  773.9398
 277  801.1382
 278  818.1818
 279  727.7328
 280  644.4421
 281  635.7793
 282  565.8361
 283  587.0563
 284  643.9581
 285  589.4357
 286  540.5392
 287  563.9025
 288  649.1429
 289  625.4744
 290  570.4328
 291  646.7986
 292  548.5753
 293  528.7319
 294  513.7742
 295  460.9828
 296  545.041
 297  621.6304
 298  577.5948
 299  674.8688
 300  667.8329
 301  650.476
 302  584.7313
 303  562.8661
 304  578.5102
 305  593.4544
 306  628.4836
 307  620.8608
 308  549.4746
 309  596.5604
 310  653.3457
 311  561.3133
 312  634.3796
 313  659.369
 314  564.207
 315  550.7462
 316  699.1941
 317  641.2316
 318  680.2166
 319  726.7816
 320  684.2208
 321  593.3755
 322  564.2958
 323  707.2734
 324  837.3595
 325  728.6829
 326  673.5213
 327  716.1693
 328  670.5551
 329  733.4769
 330  725.4642
 331  637.2602
 332  615.4738
 333  556.8298
 334  580.9555
 335  652.2303
 336  660.1047
 337  632.8474
 338  611.1215
 339  560.4388
 340  626.2021
 341  658.4633
 342  647.0622
 343  637.2383
 344  609.2352
 345  661.5837
 346  694.5208
 347  509.7015
 348  613.1365
 349  588.3948
 350  528.98
 351  580.7528
 352  647.6141
 353  632.779
 354  622.9133
 355  689.6634
 356  679.1696
 357  652.4126
 358  747.5283
 359  648.3909
 360  699.6102
 361  604.1819
 362  687.8531
 363  641.8676
 364  638.9149
 365  554.5502
 366  584.3819
 367  636.3936
 368  677.1239
 369  680.522
 370  644.0727
 371  550.4984
 372  638.1926
 373  552.5455
 374  528.4719
 375  515.3733
 376  579.6055
 377  580.4547
 378  645.8936
 379  792.9041
 380  761.2368
 381  677.4094
 382  636.5698
 383  773.4097
 384  813.4644
 385  783.3863
 386  775.8353
 387  781.7938
 388  718.835
 389  745.5702
 390  874.9945
 391  976.2563
 392  1041.528
 393  1088.583
 394  885.1819
 395  722.4918
 396  674.0787
 397  591.1406
 398  557.6866
 399  624.3296
 400  597.8638
 401  537.4312
 402  664.7296
 403  614.0497
 404  546.0938
 405  624.398
 406  601.7841
 407  626.8123
 408  588.554
 409  467.4788
 410  488.5869
 411  620.0674
 412  639.6901
 413  586.4211
 414  654.6748
 415  549.0216
 416  563.6804
 417  599.2031
 418  634.2805
 419  589.7677
 420  600.7431
 421  655.8373
 422  526.822
 423  470.3551
 424  651.0306
 425  665.0613
 426  684.395
 427  723.378
 428  632.8256
 429  621.6315
 430  591.6906
 431  706.0569
 432  701.2469
 433  634.1683
 434  729.7751
 435  758.8566
 436  770.7825
 437  639.5045
 438  610.4807
 439  563.7342
 440  667.5081
 441  738.8787
 442  628.3851
 443  619.587
 444  606.4517
 445  661.2542
 446  612.4652
 447  620.7911
 448  759.2941
 449  805.1934
 450  764.9697
 451  735.5921
 452  763.0042
 453  754.5665
 454  660.554
 455  611.67
 456  616.6626
 457  649.4444
 458  687.5781
 459  591.4961
 460  571.9371
 461  613.5242
 462  565.0777
 463  694.1327
 464  672.9976
 465  628.3077
 466  616.8027
 467  650.4569
 468  559.7897
 469  679.3519
 470  768.2009
 471  680.8938
 472  668.1935
 473  653.4825
 474  657.9822
 475  579.2974
 476  598.784
 477  723.3188
 478  657.3589
 479  629.933
 480  523.1486
 481  542.1063
 482  611.7183
 483  716.721
 484  687.2329
 485  663.0769
 486  578.697
 487  630.7847
 488  621.8572
 489  590.2257
 490  644.3806
 491  733.6597
 492  727.1329
 493  629.0573
 494  771.8683
 495  612.2031
 496  539.2109
 497  581.1108
 498  583.3823
 499  589.5488
 500  611.075
 501  707.1499
 502  707.7845
 503  588.2394
 504  620.9122
 505  661.4499
 506  656.6417
 507  604.2557
 508  576.8073
 509  547.7134
 510  551.0519
 511  590.053
