# Input file       =  1198417033.10782_cleaned.dat
# Candidate        =  PSR_0332+5434
# Telescope        =  AR
# Epoch_topo       =  58114.567732729396
# Epoch_bary       =  N/A
# T_sample         =  0.002
# Data Folded      =  7208960
# Data Avg         =  0.137582515544173
# Data StdDev      =  6.16096450052154 
# Profile Bins     =  1024
# Profile Avg      =  968.644444277486 
# Profile StdDev   =  516.933926512735 
# Reduced chi-sqr  =  0.727
# Prob(Noise)      <  1   (~0.0 sigma)
# P_topo (ms)      =  714.551879921904  +/- 3.15e-05
# P'_topo (s/s)    =  -0                +/- 1.69e-11
# P''_topo (s/s^2) =  0                 +/- 7.6e-15
# P_bary (ms)      =  N/A
# P'_bary (s/s)    =  N/A
# P''_bary (s/s^2) =  N/A
# P_orb (s)        =  N/A
# asin(i)/c (s)    =  N/A
# eccentricity     =  N/A
# w (rad)          =  N/A
# T_peri           =  N/A
######################################################
   0  1324.074
   1  1255.978
   2  1157.067
   3  1110.806
   4  1126.123
   5  863.6857
   6  1041.673
   7  999.0715
   8  984.0698
   9  938.0651
  10  988.0175
  11  1192.058
  12  927.5246
  13  875.2278
  14  892.9037
  15  631.9787
  16  494.861
  17  520.6218
  18  810.1466
  19  965.61
  20  876.6841
  21  1125.38
  22  1277.471
  23  993.382
  24  909.4338
  25  740.0863
  26  855.4024
  27  821.1224
  28  939.6337
  29  1180.079
  30  1039.296
  31  1037.213
  32  1011.492
  33  712.5132
  34  787.2281
  35  1157.332
  36  1629.129
  37  1746.868
  38  1357.999
  39  1127.024
  40  827.4575
  41  908.3395
  42  910.953
  43  745.2193
  44  812.2796
  45  881.9971
  46  1082.677
  47  1130.012
  48  1058.894
  49  1283.912
  50  1334.206
  51  1448.066
  52  1244.755
  53  1029.64
  54  1128.522
  55  981.2499
  56  941.3354
  57  922.1676
  58  852.5772
  59  982.5461
  60  738.7261
  61  915.5046
  62  971.3414
  63  1084.452
  64  1173.974
  65  1121.303
  66  1085.917
  67  1240.959
  68  1099.033
  69  1021.276
  70  633.9155
  71  777.3192
  72  871.0191
  73  722.361
  74  807.5596
  75  809.8679
  76  1040.467
  77  1132.731
  78  1161.51
  79  1225.869
  80  965.2582
  81  891.2108
  82  951.4438
  83  888.1086
  84  970.1944
  85  975.1738
  86  1251.917
  87  1264.039
  88  955.8661
  89  974.5823
  90  1095.881
  91  1188.3
  92  979.1772
  93  868.5043
  94  1204.901
  95  1386.396
  96  1480.213
  97  1555.461
  98  1332.033
  99  1305.67
 100  1235.595
 101  1369.57
 102  1336.266
 103  1035.578
 104  1177.616
 105  1072.047
 106  990.6085
 107  710.114
 108  447.2289
 109  506.7248
 110  731.1077
 111  906.0284
 112  1024.874
 113  834.309
 114  926.0924
 115  1075.65
 116  986.1019
 117  1037.246
 118  921.1306
 119  1055.261
 120  892.7977
 121  799.6743
 122  973.7646
 123  926.0499
 124  1251.442
 125  1340.472
 126  1419.885
 127  1281.994
 128  1054.778
 129  1242.678
 130  1191.762
 131  1141.114
 132  1256.198
 133  1370.825
 134  1554.847
 135  1367.118
 136  1259.603
 137  1368.704
 138  1239.324
 139  1122.7
 140  1024.215
 141  922.8312
 142  1012.531
 143  930.2034
 144  1018.132
 145  849.0929
 146  727.2567
 147  831.2234
 148  792.0605
 149  748.8326
 150  815.2565
 151  853.7045
 152  1077.976
 153  983.9025
 154  1031.642
 155  700.3566
 156  555.3522
 157  620.379
 158  633.4729
 159  707.2515
 160  707.7931
 161  723.6813
 162  798.3026
 163  760.2928
 164  832.6367
 165  832.5975
 166  647.6276
 167  957.3954
 168  1023.93
 169  1378.103
 170  1204.139
 171  1040.363
 172  1045.262
 173  856.489
 174  857.3854
 175  820.3853
 176  704.7566
 177  808.548
 178  770.2786
 179  995.0134
 180  930.2316
 181  710.44
 182  650.1535
 183  602.1865
 184  546.8512
 185  556.0269
 186  490.6707
 187  837.4955
 188  851.8257
 189  959.9673
 190  992.6588
 191  976.8529
 192  1213.706
 193  1130.937
 194  1245.403
 195  1040.688
 196  973.3616
 197  1047.594
 198  962.9486
 199  816.8564
 200  838.34
 201  801.5121
 202  1060.685
 203  1012.202
 204  1056.65
 205  919.7573
 206  748.0069
 207  1010.949
 208  942.2199
 209  1069.727
 210  1169.552
 211  1083.432
 212  1108.774
 213  826.1327
 214  832.5859
 215  926.1327
 216  864.9882
 217  939.2549
 218  929.3489
 219  933.9515
 220  1058.752
 221  963.2637
 222  1048.107
 223  1007.181
 224  896.4704
 225  912.4865
 226  847.5378
 227  935.9976
 228  988.3927
 229  893.4374
 230  783.0831
 231  597.8878
 232  649.2454
 233  774.2073
 234  814.0582
 235  717.4293
 236  477.1469
 237  621.3341
 238  657.8235
 239  741.3483
 240  658.1693
 241  490.2377
 242  424.4309
 243  452.6134
 244  599.6416
 245  743.1055
 246  401.2856
 247  560.3016
 248  888.3221
 249  1105.058
 250  909.7342
 251  653.7299
 252  1028.592
 253  1230.654
 254  979.2673
 255  954.4017
 256  847.9049
 257  1096.336
 258  934.1211
 259  876.2983
 260  763.2681
 261  792.6826
 262  1027.158
 263  1257.206
 264  1107.017
 265  1137.422
 266  1044.414
 267  1091.963
 268  1020.43
 269  1040.734
 270  1116.97
 271  932.5987
 272  945.6182
 273  866.5048
 274  680.4816
 275  654.6752
 276  746.7836
 277  975.4026
 278  893.4399
 279  706.5374
 280  783.3109
 281  794.4885
 282  994.991
 283  1257.777
 284  1176.262
 285  1162.414
 286  853.5089
 287  676.959
 288  670.4534
 289  486.3893
 290  656.0313
 291  466.7036
 292  575.1329
 293  751.2584
 294  935.7673
 295  970.5626
 296  829.9297
 297  801.449
 298  927.8526
 299  965.7669
 300  1138.49
 301  1230.872
 302  1167.361
 303  842.7457
 304  749.208
 305  921.089
 306  912.4637
 307  868.0175
 308  923.2324
 309  870.3325
 310  999.9454
 311  827.5591
 312  1007.337
 313  994.3143
 314  1029.365
 315  1254.518
 316  1110.811
 317  1050.869
 318  926.1412
 319  865.868
 320  869.4162
 321  782.6624
 322  939.1833
 323  977.9404
 324  739.5632
 325  901.3369
 326  952.8282
 327  1081.297
 328  863.2347
 329  807.3406
 330  1049.109
 331  1126.918
 332  1139.425
 333  1183.096
 334  1171.428
 335  1230.019
 336  920.1154
 337  798.4019
 338  938.4966
 339  1011.472
 340  970.7454
 341  790.4422
 342  679.9041
 343  636.1706
 344  451.0055
 345  546.8008
 346  542.0268
 347  863.1358
 348  1104.122
 349  1303.814
 350  1172.981
 351  1060.237
 352  1101.593
 353  1196.617
 354  1016.546
 355  676.3183
 356  334.813
 357  307.1516
 358  608.3065
 359  928.3354
 360  1163.158
 361  1056.498
 362  945.3565
 363  1110.359
 364  1254.16
 365  1394.649
 366  1293.182
 367  1170.193
 368  1164.417
 369  986.8433
 370  997.2307
 371  880.4634
 372  777.9264
 373  787.5546
 374  604.4603
 375  670.0288
 376  560.8956
 377  615.3721
 378  917.0955
 379  1105.246
 380  1306.331
 381  1190.849
 382  1196.473
 383  1130.05
 384  1006.556
 385  1093.182
 386  1303.309
 387  1078.873
 388  1112.756
 389  899.095
 390  1263.362
 391  1203.82
 392  1344.332
 393  1352.162
 394  1304.742
 395  1328.859
 396  1440.298
 397  1396.797
 398  1519.102
 399  1190.967
 400  1392.181
 401  1505.875
 402  1557.193
 403  1430.627
 404  1255.696
 405  1331.821
 406  1147.672
 407  844.1577
 408  886.9619
 409  750.4865
 410  968.9891
 411  1161.907
 412  1150.67
 413  1229.953
 414  1171.792
 415  1275.206
 416  1187.198
 417  1125.193
 418  1367.99
 419  1315.896
 420  1301.746
 421  1128.933
 422  1091.293
 423  1333.17
 424  1264.781
 425  1368.447
 426  1214.581
 427  1252.37
 428  1239.711
 429  1225.573
 430  1356.704
 431  1407.741
 432  1629.203
 433  1613.851
 434  1372.333
 435  1106.612
 436  957.4235
 437  703.0219
 438  781.5085
 439  881.9932
 440  1144.225
 441  1266.111
 442  1023.209
 443  1067.654
 444  948.4068
 445  1048.593
 446  1209.829
 447  1060.059
 448  1220.505
 449  1153.189
 450  1203.976
 451  1080.981
 452  802.8835
 453  839.153
 454  934.1525
 455  1065.209
 456  1039.296
 457  993.0244
 458  1091.222
 459  1165.534
 460  1266.593
 461  1247.942
 462  995.517
 463  942.9227
 464  974.1794
 465  1193.42
 466  1330.839
 467  1174.874
 468  1393.594
 469  1113.086
 470  898.5861
 471  558.4078
 472  243.7116
 473  350.5078
 474  321.6278
 475  456.5386
 476  758.7916
 477  580.8171
 478  688.3856
 479  444.1292
 480  456.3756
 481  728.766
 482  712.4094
 483  950.5467
 484  823.575
 485  503.817
 486  689.4799
 487  619.6207
 488  927.572
 489  901.4096
 490  870.1069
 491  910.2966
 492  595.1757
 493  696.1448
 494  769.9613
 495  694.3519
 496  801.302
 497  776.237
 498  1124.27
 499  1210.134
 500  1325.357
 501  1571.726
 502  1266.934
 503  1343.468
 504  1116.311
 505  1258.879
 506  1063.087
 507  806.495
 508  760.4468
 509  631.0998
 510  565.1553
 511  675.0568
 512  569.3829
 513  836.8631
 514  931.2643
 515  1113.405
 516  1124.763
 517  750.1422
 518  848.7184
 519  1013.788
 520  956.4779
 521  932.2167
 522  793.5109
 523  898.7485
 524  919.5942
 525  830.8286
 526  946.8528
 527  746.9276
 528  782.0381
 529  969.9425
 530  1119.244
 531  1307.016
 532  1273.145
 533  1397.563
 534  1291.49
 535  1236.486
 536  1339.988
 537  1093.364
 538  1043.837
 539  648.8657
 540  516.6287
 541  532.8878
 542  393.5194
 543  702.1858
 544  842.2588
 545  772.5842
 546  905.1386
 547  1026.435
 548  1451.098
 549  1207.468
 550  999.2658
 551  1126.474
 552  897.2689
 553  669.7616
 554  677.5844
 555  804.2339
 556  992.6338
 557  718.9072
 558  727.405
 559  875.1036
 560  1049.567
 561  1317.811
 562  1264.536
 563  1114.047
 564  901.1331
 565  938.8305
 566  1230.278
 567  1231.432
 568  1150.158
 569  1180.276
 570  938.7916
 571  751.5144
 572  525.7358
 573  698.4962
 574  724.9399
 575  618.4045
 576  670.8578
 577  523.1243
 578  604.6132
 579  701.4976
 580  793.3467
 581  777.187
 582  714.4374
 583  889.1098
 584  1035.217
 585  770.6127
 586  640.2744
 587  473.792
 588  675.6268
 589  821.0372
 590  801.1553
 591  818.1269
 592  894.7646
 593  1163.128
 594  1424.496
 595  1059.978
 596  1103.487
 597  1018.443
 598  1236.937
 599  1333.12
 600  1216.829
 601  1325.871
 602  1085.057
 603  912.2073
 604  684.4742
 605  641.8099
 606  910.1436
 607  1124.737
 608  1300.548
 609  1432.844
 610  1323.844
 611  1405.363
 612  1294.518
 613  1165.269
 614  1300.495
 615  1394.634
 616  1690.579
 617  1569.127
 618  1417.953
 619  1443.795
 620  1497.3
 621  1747.115
 622  1752.361
 623  1795.638
 624  1712.174
 625  1447.276
 626  1430.884
 627  1405.539
 628  1217.526
 629  1275.553
 630  1192.87
 631  1301.674
 632  1006.617
 633  905.5239
 634  1035.941
 635  908.1723
 636  824.2856
 637  851.5316
 638  847.0662
 639  910.4979
 640  647.791
 641  835.3077
 642  808.1235
 643  785.3176
 644  659.1552
 645  528.8369
 646  607.8231
 647  883.4493
 648  972.3707
 649  1176.463
 650  881.0197
 651  935.6935
 652  953.7073
 653  1058.801
 654  1104.232
 655  952.7608
 656  1051.033
 657  1090.886
 658  955.4535
 659  1209.021
 660  1048.709
 661  1280.086
 662  1161.997
 663  1218.066
 664  1119.821
 665  760.6396
 666  738.025
 667  742.5698
 668  807.4976
 669  1135.523
 670  1139.792
 671  1201.967
 672  1001.201
 673  888.3192
 674  1174.184
 675  956.1185
 676  827.2657
 677  824.5604
 678  791.5691
 679  953.3461
 680  972.085
 681  1267.677
 682  1486.956
 683  1208.535
 684  1253.866
 685  1043.133
 686  1024.422
 687  805.262
 688  754.0741
 689  954.4767
 690  839.8625
 691  964.0999
 692  933.7815
 693  890.1812
 694  994.0562
 695  933.2672
 696  1264.067
 697  1368.163
 698  1325.27
 699  1358.355
 700  1149.653
 701  1150.104
 702  1049.905
 703  634.3355
 704  693.0364
 705  370.289
 706  514.8165
 707  725.0455
 708  822.9512
 709  1108.75
 710  1087.293
 711  1111.333
 712  1159.712
 713  1037.953
 714  1204.179
 715  1194.794
 716  1077.878
 717  949.6166
 718  633.7193
 719  670.6752
 720  606.6767
 721  785.2736
 722  970.8126
 723  1166.775
 724  1247.921
 725  1154.344
 726  1104.505
 727  1161.606
 728  1306.833
 729  1359.006
 730  1064.214
 731  1105.965
 732  1278.261
 733  1470.829
 734  1536.421
 735  1262.834
 736  1088.83
 737  1130.702
 738  1035.082
 739  1207.143
 740  1212.463
 741  1149.864
 742  1140.779
 743  891.4097
 744  1038.115
 745  930.4587
 746  951.7483
 747  1203.534
 748  1120.265
 749  1180.744
 750  1075.098
 751  937.1486
 752  938.2939
 753  639.8571
 754  750.6527
 755  599.4934
 756  653.5978
 757  707.5527
 758  772.0182
 759  927.6418
 760  979.6398
 761  1002.652
 762  1083.96
 763  957.9006
 764  1060.773
 765  937.1685
 766  964.2022
 767  953.1343
 768  877.2296
 769  971.2005
 770  935.6694
 771  985.3486
 772  966.7133
 773  861.9417
 774  985.1555
 775  884.3911
 776  800.7903
 777  799.307
 778  734.6483
 779  919.6758
 780  958.1064
 781  795.1158
 782  952.6458
 783  798.6473
 784  992.6142
 785  925.8107
 786  821.4375
 787  976.8128
 788  1035.795
 789  1162.546
 790  1063.714
 791  743.6604
 792  923.0787
 793  882.5543
 794  959.6677
 795  879.1294
 796  932.2022
 797  1185.922
 798  1303.826
 799  1247.347
 800  1020.51
 801  838.0743
 802  1056.756
 803  899.4408
 804  850.6683
 805  706.754
 806  870.9277
 807  1037.018
 808  814.7874
 809  840.9658
 810  735.1985
 811  596.4022
 812  710.338
 813  770.1386
 814  966.7393
 815  927.6299
 816  720.2374
 817  756.7441
 818  583.089
 819  897.2227
 820  993.7706
 821  875.8245
 822  843.2106
 823  965.8138
 824  1069.4
 825  1119.219
 826  1027.637
 827  1431.723
 828  1403.759
 829  1474.685
 830  1501.237
 831  1319.028
 832  1265.624
 833  870.9472
 834  811.5171
 835  693.6346
 836  651.41
 837  790.1553
 838  783.983
 839  745.9446
 840  843.1609
 841  794.3317
 842  989.8486
 843  912.8507
 844  962.8889
 845  815.7647
 846  679.2597
 847  903.0352
 848  907.4979
 849  870.5739
 850  650.3003
 851  484.1999
 852  736.6439
 853  648.9106
 854  793.1841
 855  953.1584
 856  1091.971
 857  1216.343
 858  1063.956
 859  1050.364
 860  1126.507
 861  1065.37
 862  1238.034
 863  1202.569
 864  1287.51
 865  1344.337
 866  1115.526
 867  1122.83
 868  996.2991
 869  1075.672
 870  1175.261
 871  1222.979
 872  1189.193
 873  1039.258
 874  861.762
 875  780.4863
 876  804.0477
 877  895.7743
 878  922.564
 879  970.0984
 880  1056.21
 881  931.0031
 882  933.0725
 883  1028.415
 884  1187.082
 885  1287.011
 886  1063.109
 887  1063.196
 888  1008.256
 889  978.3858
 890  1141.047
 891  1011.537
 892  1108.544
 893  1068.686
 894  1077.995
 895  1361.646
 896  1103.142
 897  1144.326
 898  997.6877
 899  895.5796
 900  1081.527
 901  844.8287
 902  774.3051
 903  638.0817
 904  808.517
 905  1075.497
 906  877.8414
 907  690.9579
 908  686.3032
 909  717.8913
 910  690.4874
 911  692.1767
 912  968.2021
 913  1053.764
 914  835.5157
 915  800.9521
 916  765.5801
 917  795.8973
 918  713.9836
 919  675.5657
 920  785.0132
 921  675.7958
 922  1014.385
 923  1012.337
 924  911.5693
 925  902.2042
 926  966.0936
 927  1079.378
 928  1020.416
 929  962.6536
 930  1138.41
 931  1000.492
 932  972.9774
 933  704.6212
 934  453.8348
 935  557.7601
 936  629.5698
 937  869.0146
 938  806.2542
 939  611.0175
 940  737.7538
 941  529.9124
 942  457.7009
 943  427.4644
 944  645.2469
 945  1023.813
 946  1150.541
 947  1122.886
 948  1194.914
 949  842.825
 950  911.0589
 951  664.4484
 952  858.0143
 953  682.2166
 954  581.4116
 955  483.7779
 956  476.472
 957  692.4933
 958  907.7877
 959  1013.25
 960  1111.229
 961  969.3572
 962  1038.919
 963  1021.209
 964  843.6702
 965  918.4454
 966  831.7123
 967  1057.24
 968  1111.655
 969  873.0325
 970  934.077
 971  960.5964
 972  1055.568
 973  1208.391
 974  865.2182
 975  884.3576
 976  709.8226
 977  925.3035
 978  1179.642
 979  1029.987
 980  1069.799
 981  1047.755
 982  818.1446
 983  722.5633
 984  597.975
 985  908.7872
 986  801.5974
 987  500.7451
 988  230.5592
 989  327.4085
 990  736.6649
 991  1024.379
 992  1087.828
 993  1106.471
 994  1076.197
 995  1224.188
 996  1183.567
 997  954.2441
 998  897.334
 999  715.5223
1000  846.4003
1001  663.8813
1002  647.1997
1003  727.8025
1004  704.4218
1005  888.8177
1006  882.7334
1007  735.043
1008  718.572
1009  648.5674
1010  972.9588
1011  957.5412
1012  1077.266
1013  1080.151
1014  757.3276
1015  635.9086
1016  634.5406
1017  864.4044
1018  1051.316
1019  943.6523
1020  992.3085
1021  895.064
1022  1044.186
1023  1279.83
