# Input file       =  1198761694.129448_cleaned.dat
# Candidate        =  PSR_0332+5434
# Telescope        =  AR
# Epoch_topo       =  58118.556864924169
# Epoch_bary       =  N/A
# T_sample         =  0.002
# Data Folded      =  7405568
# Data Avg         =  0.126849606224188
# Data StdDev      =  4.22270049762779 
# Profile Bins     =  1024
# Profile Avg      =  917.39581884011  
# Profile StdDev   =  359.103376106324 
# Reduced chi-sqr  =  1.078
# Prob(Noise)      <  0.0406   (~1.7 sigma)
# P_topo (ms)      =  714.555366844508  +/- 2.63e-05
# P'_topo (s/s)    =  -0                +/- 1.37e-11
# P''_topo (s/s^2) =  0                 +/- 6.01e-15
# P_bary (ms)      =  N/A
# P'_bary (s/s)    =  N/A
# P''_bary (s/s^2) =  N/A
# P_orb (s)        =  N/A
# asin(i)/c (s)    =  N/A
# eccentricity     =  N/A
# w (rad)          =  N/A
# T_peri           =  N/A
######################################################
   0  1143.127
   1  1167.694
   2  1141.442
   3  1085.941
   4  1069.911
   5  954.7528
   6  755.5731
   7  687.1472
   8  583.6499
   9  661.0638
  10  677.2639
  11  760.0168
  12  909.2547
  13  816.8767
  14  883.5851
  15  957.2166
  16  1190.606
  17  1134.742
  18  1008.414
  19  1060.536
  20  1243.443
  21  1199.738
  22  912.949
  23  635.3721
  24  642.6071
  25  696.6882
  26  694.0024
  27  659.5102
  28  707.2947
  29  834.7947
  30  985.2926
  31  1104.715
  32  1157.743
  33  1192.452
  34  1216.596
  35  1193.653
  36  1224.268
  37  1173.268
  38  1135.256
  39  937.9285
  40  865.7662
  41  906.6571
  42  895.2679
  43  870.0011
  44  942.4358
  45  1103.827
  46  1174.024
  47  1176.834
  48  1249.264
  49  1324.173
  50  1239.198
  51  1145.469
  52  1224.287
  53  1003.917
  54  877.6474
  55  653.1063
  56  735.4813
  57  739.7709
  58  833.1823
  59  976.1708
  60  980.6224
  61  951.728
  62  909.539
  63  935.6127
  64  1224.449
  65  1250.607
  66  1340.663
  67  1155.45
  68  1040.468
  69  1151.894
  70  1085.696
  71  881.12
  72  592.6635
  73  561.2403
  74  640.3077
  75  687.3713
  76  810.8738
  77  878.7744
  78  852.7148
  79  703.5961
  80  767.6727
  81  855.563
  82  996.9621
  83  1071.893
  84  1138.614
  85  1082.518
  86  808.6858
  87  605.3763
  88  462.311
  89  590.1301
  90  704.2631
  91  797.465
  92  892.0043
  93  877.2722
  94  850.3075
  95  959.9607
  96  1081.825
  97  1120.59
  98  1135.985
  99  1209.86
 100  1195.726
 101  1098.545
 102  1161.072
 103  1271.667
 104  1226.558
 105  936.1998
 106  872.1266
 107  737.0885
 108  846.608
 109  964.4081
 110  1103.341
 111  954.5612
 112  787.6937
 113  782.92
 114  904.182
 115  984.6877
 116  1152.478
 117  1247.458
 118  1173.156
 119  988.2801
 120  814.4361
 121  770.4052
 122  774.4623
 123  673.4871
 124  758.2457
 125  779.6038
 126  795.5568
 127  821.0941
 128  778.6727
 129  927.9454
 130  997.8398
 131  1106.221
 132  1095.35
 133  1076.349
 134  1199.44
 135  1162.142
 136  962.5475
 137  847.1251
 138  863.6427
 139  838.6591
 140  848.7355
 141  775.4365
 142  975.7625
 143  926.3574
 144  995.2576
 145  1087.864
 146  1011.606
 147  893.7843
 148  851.3466
 149  1045.77
 150  1111.853
 151  1083.698
 152  1238.327
 153  1088.738
 154  1048.949
 155  816.5766
 156  748.1173
 157  667.0242
 158  695.2704
 159  910.5638
 160  968.8613
 161  933.9165
 162  884.0615
 163  986.3578
 164  1021.55
 165  1151.587
 166  1227.505
 167  1298.688
 168  1058.538
 169  953.791
 170  930.8572
 171  904.1407
 172  794.4809
 173  766.6829
 174  921.8932
 175  930.3437
 176  1150.648
 177  1140.759
 178  1265.736
 179  1146.809
 180  1212.347
 181  1235.336
 182  1199.448
 183  1065.467
 184  1074.759
 185  1021.972
 186  850.9675
 187  667.4208
 188  578.2172
 189  529.904
 190  457.6512
 191  531.8527
 192  748.1204
 193  740.5243
 194  825.9391
 195  1062.722
 196  1190.18
 197  1102.938
 198  1039.859
 199  1207.323
 200  1241.693
 201  1139.297
 202  1033.771
 203  846.842
 204  690.1458
 205  625.8223
 206  546.8348
 207  608.7428
 208  799.0392
 209  1026.791
 210  1298.947
 211  1250.386
 212  1139.56
 213  1047.122
 214  1052.654
 215  1086.622
 216  1020.448
 217  1054.644
 218  1100.111
 219  1025.519
 220  867.609
 221  622.5256
 222  499.1184
 223  522.741
 224  672.4536
 225  1014.609
 226  982.9631
 227  992.4246
 228  935.3886
 229  992.3788
 230  1137.345
 231  1144.968
 232  1304.67
 233  1115.736
 234  1120.286
 235  1006.348
 236  1011.281
 237  829.2126
 238  796.6442
 239  675.0152
 240  750.9587
 241  699.1326
 242  721.3206
 243  595.9061
 244  514.1068
 245  540.1828
 246  786.6158
 247  891.4326
 248  874.4066
 249  872.9064
 250  906.0311
 251  864.8401
 252  846.5986
 253  867.12
 254  813.5884
 255  673.7248
 256  591.4706
 257  619.3297
 258  623.8456
 259  705.8295
 260  878.3232
 261  842.9668
 262  1061.101
 263  1172.751
 264  1258.452
 265  1179.636
 266  1039.082
 267  1247.204
 268  1175.245
 269  1062.057
 270  917.5535
 271  729.0176
 272  585.9334
 273  605.3494
 274  704.3929
 275  976.9883
 276  874.5693
 277  964.2183
 278  890.0867
 279  789.642
 280  885.9402
 281  1085.615
 282  1236.363
 283  1207.559
 284  980.2645
 285  904.0679
 286  795.4271
 287  801.9459
 288  778.4358
 289  677.2668
 290  639.4082
 291  477.107
 292  539.9528
 293  704.2371
 294  977.2036
 295  995.9547
 296  1012.413
 297  1116.448
 298  1113.346
 299  1071.586
 300  995.2248
 301  900.9162
 302  817.6373
 303  723.2883
 304  679.0362
 305  646.9258
 306  649.8699
 307  697.6205
 308  889.5481
 309  824.9762
 310  795.1144
 311  756.9136
 312  887.2045
 313  888.4503
 314  939.9393
 315  994.3354
 316  1056.529
 317  935.4435
 318  866.214
 319  765.4499
 320  762.9439
 321  641.407
 322  615.61
 323  677.2023
 324  760.0164
 325  767.6772
 326  634.1124
 327  654.8932
 328  746.0775
 329  804.8252
 330  888.604
 331  859.09
 332  904.1397
 333  910.9621
 334  802.4791
 335  691.6229
 336  475.5673
 337  519.4942
 338  680.914
 339  767.1848
 340  749.0292
 341  757.3517
 342  777.2025
 343  975.765
 344  1061.979
 345  1034.099
 346  902.2977
 347  836.454
 348  947.5717
 349  809.7585
 350  843.5477
 351  812.5474
 352  799.6216
 353  820.1641
 354  762.7496
 355  765.1614
 356  857.2857
 357  901.6498
 358  951.1675
 359  765.8489
 360  894.7405
 361  975.8326
 362  956.9362
 363  881.0778
 364  817.6821
 365  902.8522
 366  826.372
 367  883.8214
 368  890.7192
 369  766.2537
 370  522.7512
 371  369.2469
 372  462.9939
 373  582.3304
 374  773.8574
 375  875.5358
 376  914.8224
 377  881.2242
 378  848.4218
 379  855.3145
 380  891.6997
 381  936.3874
 382  887.7126
 383  884.8453
 384  770.6747
 385  724.1711
 386  635.846
 387  613.2485
 388  583.1186
 389  686.324
 390  803.5893
 391  820.0396
 392  754.1075
 393  811.8616
 394  814.79
 395  880.2985
 396  884.1509
 397  939.0457
 398  1014.117
 399  1020.836
 400  975.3265
 401  745.7349
 402  596.8258
 403  522.428
 404  520.4415
 405  495.9303
 406  575.3651
 407  673.0804
 408  887.5554
 409  923.0101
 410  851.5508
 411  878.0521
 412  1018.036
 413  1158.879
 414  1138.072
 415  865.2526
 416  841.2999
 417  774.2576
 418  896.2531
 419  775.0912
 420  632.174
 421  720.8071
 422  724.7845
 423  844.4886
 424  589.839
 425  772.65
 426  822.6819
 427  922.8869
 428  853.3091
 429  912.2587
 430  1015.48
 431  1109.137
 432  1122.95
 433  1127.98
 434  986.0566
 435  725.1046
 436  633.8476
 437  652.4734
 438  752.5613
 439  697.9037
 440  769.6115
 441  911.0112
 442  969.0565
 443  916.5258
 444  937.4216
 445  1152.485
 446  1221.77
 447  1117.694
 448  1030.731
 449  975.1711
 450  930.3022
 451  727.8958
 452  705.963
 453  753.1264
 454  666.971
 455  672.131
 456  794.532
 457  782.491
 458  875.2335
 459  856.1652
 460  927.9189
 461  955.6586
 462  1046.614
 463  1139.039
 464  919.3313
 465  841.1639
 466  938.4323
 467  1075.602
 468  979.2549
 469  676.675
 470  536.0593
 471  645.6254
 472  578.7477
 473  684.8853
 474  750.0163
 475  907.9595
 476  817.932
 477  748.2005
 478  859.4249
 479  887.3248
 480  911.4276
 481  1048.506
 482  871.0266
 483  670.4485
 484  527.9835
 485  519.7584
 486  577.5925
 487  573.1656
 488  775.0736
 489  694.1195
 490  433.4287
 491  473.7126
 492  583.3307
 493  803.4142
 494  832.7859
 495  1075.703
 496  1203.37
 497  1060.756
 498  1017.494
 499  929.7479
 500  870.8128
 501  749.717
 502  825.81
 503  880.7543
 504  824.4821
 505  718.7065
 506  784.3597
 507  713.2415
 508  769.1444
 509  889.8748
 510  1023.292
 511  940.6948
 512  847.3734
 513  844.4911
 514  940.3948
 515  951.1633
 516  859.6803
 517  754.9789
 518  604.11
 519  540.8594
 520  498.8257
 521  567.3023
 522  601.7704
 523  777.2787
 524  840.2285
 525  917.7903
 526  823.9332
 527  816.9992
 528  848.5444
 529  772.9962
 530  891.3698
 531  1081.249
 532  947.6214
 533  798.0009
 534  667.9817
 535  664.4594
 536  643.2474
 537  622.0472
 538  925.0558
 539  997.5066
 540  976.3385
 541  864.6985
 542  813.94
 543  912.0047
 544  905.6907
 545  890.3719
 546  957.8101
 547  942.6639
 548  725.0755
 549  674.437
 550  529.3937
 551  501.7895
 552  491.7739
 553  670.4365
 554  818.7574
 555  832.1502
 556  954.2984
 557  945.0032
 558  861.4926
 559  809.9087
 560  825.7023
 561  936.137
 562  942.5817
 563  1085.148
 564  1167.717
 565  987.9437
 566  908.4039
 567  960.3797
 568  926.2526
 569  781.632
 570  600.7355
 571  621.626
 572  690.4593
 573  788.5485
 574  988.4327
 575  990.5672
 576  952.4204
 577  866.0756
 578  1029.532
 579  997.2253
 580  827.9719
 581  708.5203
 582  833.7209
 583  923.3773
 584  883.0054
 585  675.4445
 586  568.8511
 587  495.9393
 588  701.7716
 589  795.3271
 590  846.4744
 591  941.7186
 592  1076.027
 593  1292.197
 594  1324.819
 595  1385.433
 596  1360.073
 597  1187.15
 598  1035.363
 599  867.0356
 600  810.5838
 601  761.5289
 602  589.8676
 603  500.5529
 604  556.1619
 605  698.4218
 606  787.4218
 607  778.9625
 608  725.5958
 609  846.2781
 610  941.0696
 611  1136.53
 612  1177.68
 613  1205.224
 614  1311.605
 615  1090.066
 616  924.9802
 617  756.4526
 618  836.3423
 619  1009.988
 620  1220.794
 621  1321.906
 622  1265.33
 623  1136.705
 624  1218.695
 625  1320.645
 626  1384.247
 627  1272.055
 628  1212.042
 629  1237.751
 630  1080.791
 631  896.5297
 632  773.1635
 633  780.8146
 634  855.7311
 635  811.3356
 636  829.9834
 637  794.1404
 638  819.6715
 639  1003.773
 640  1043.096
 641  1089.994
 642  1124.868
 643  1130.818
 644  1134.031
 645  999.6602
 646  1185.131
 647  1145.051
 648  1044.909
 649  875.3221
 650  955.5306
 651  975.5547
 652  1040.674
 653  891.578
 654  1079.41
 655  1036.72
 656  1187.831
 657  1075.828
 658  1053.711
 659  1009.179
 660  1138.624
 661  1265.692
 662  1160.905
 663  972.7161
 664  832.0005
 665  798.5079
 666  768.7949
 667  632.9582
 668  555.9577
 669  689.987
 670  791.7261
 671  1040.359
 672  1010.29
 673  1025.068
 674  968.0355
 675  1084.162
 676  1009.613
 677  900.9797
 678  675.0521
 679  817.2971
 680  738.8781
 681  896.1409
 682  889.6576
 683  765.5877
 684  633.2509
 685  548.2386
 686  678.6629
 687  854.2498
 688  858.9188
 689  911.9009
 690  978.8823
 691  1076.78
 692  1248.929
 693  1173.052
 694  1201.516
 695  1069.014
 696  995.916
 697  985.3171
 698  794.2917
 699  577.2025
 700  455.8256
 701  577.046
 702  807.5811
 703  856.2741
 704  952.0176
 705  1043.364
 706  1106.544
 707  1164.036
 708  1297.347
 709  1348.817
 710  1205.222
 711  1169.395
 712  1297.172
 713  1234.818
 714  1047.196
 715  959.6125
 716  968.1699
 717  959.5431
 718  1002.174
 719  1058.521
 720  911.509
 721  860.4516
 722  804.4607
 723  823.4356
 724  931.5641
 725  1025.969
 726  1102.169
 727  886.4021
 728  804.2217
 729  876.1495
 730  935.5945
 731  956.9341
 732  904.9581
 733  705.219
 734  571.5894
 735  542.007
 736  771.3566
 737  899.9948
 738  1104.323
 739  1303.329
 740  1278.79
 741  1079.648
 742  1029.332
 743  1037.388
 744  1116.359
 745  1056.245
 746  1095.356
 747  991.0866
 748  909.7755
 749  956.4372
 750  857.3793
 751  595.2438
 752  461.9839
 753  576.4338
 754  694.2059
 755  664.9094
 756  736.6045
 757  894.5724
 758  879.6298
 759  756.1208
 760  754.7384
 761  898.4089
 762  1065.244
 763  1075.205
 764  990.6085
 765  879.9002
 766  692.3738
 767  688.7368
 768  707.0119
 769  834.9543
 770  823.8554
 771  791.8559
 772  825.1004
 773  925.7751
 774  1081.665
 775  1143.923
 776  1246.224
 777  1296.636
 778  1321.351
 779  1224.323
 780  1163.73
 781  1069.204
 782  1092.12
 783  961.8627
 784  1082.904
 785  1075.504
 786  1154.837
 787  1203.322
 788  1161.458
 789  1356.758
 790  1458.154
 791  1433.646
 792  1329.268
 793  1319.881
 794  1405.502
 795  1366.179
 796  1234.287
 797  1160.636
 798  1018.439
 799  1053.854
 800  1057.048
 801  879.2989
 802  823.5482
 803  865.6756
 804  1054.156
 805  1101.326
 806  1216.257
 807  1182.51
 808  1002.042
 809  883.6051
 810  938.4406
 811  952.6428
 812  1043.216
 813  973.2751
 814  1133.773
 815  1101.851
 816  875.6823
 817  775.1493
 818  758.6226
 819  913.7421
 820  966.0098
 821  873.0389
 822  855.5095
 823  701.0999
 824  841.1354
 825  961.4054
 826  1210.217
 827  1320.087
 828  1302.955
 829  998.3729
 830  877.7104
 831  750.668
 832  851.1509
 833  743.5505
 834  687.7397
 835  746.5771
 836  721.3463
 837  702.8444
 838  541.3092
 839  650.705
 840  798.6545
 841  972.5999
 842  993.1092
 843  1067.784
 844  1105.622
 845  1125.675
 846  1073.127
 847  997.6186
 848  939.4202
 849  839.2798
 850  827.215
 851  614.0616
 852  537.8912
 853  480.0878
 854  746.7606
 855  810.1488
 856  932.7266
 857  1003.085
 858  1169.515
 859  1336.408
 860  1258.055
 861  1122.896
 862  1135.381
 863  1082.35
 864  1085.827
 865  888.5814
 866  882.4202
 867  680.088
 868  699.3984
 869  731.1215
 870  887.5778
 871  810.9331
 872  807.1461
 873  874.9972
 874  993.3255
 875  1128.484
 876  1151.238
 877  1207.791
 878  1212.071
 879  1018.539
 880  876.7296
 881  604.9125
 882  583.1357
 883  589.3248
 884  620.8795
 885  669.4732
 886  499.8387
 887  714.9395
 888  898.8265
 889  1016.486
 890  1067.406
 891  1086.664
 892  1067.711
 893  1084.428
 894  985.903
 895  990.841
 896  929.6613
 897  933.0758
 898  810.7522
 899  560.2626
 900  629.1285
 901  771.9061
 902  989.9765
 903  1095.514
 904  1123.364
 905  1175.363
 906  1246.789
 907  1324.68
 908  1508.532
 909  1451.725
 910  1363.818
 911  1212.625
 912  1114.528
 913  969.3109
 914  750.211
 915  685.8244
 916  596.6028
 917  611.1404
 918  713.225
 919  928.7835
 920  1001.399
 921  907.8071
 922  1061.606
 923  1087.354
 924  1202.18
 925  1083.48
 926  1244.033
 927  1288.321
 928  1184.391
 929  1060.549
 930  982.9978
 931  933.6357
 932  871.4843
 933  601.605
 934  567.9901
 935  574.2056
 936  745.7757
 937  869.7193
 938  968.5074
 939  976.6719
 940  1035.649
 941  1048.208
 942  1310.724
 943  1229.226
 944  1195.32
 945  984.5632
 946  892.215
 947  974.6353
 948  1069.422
 949  953.1118
 950  802.5253
 951  696.8403
 952  822.3609
 953  863.6785
 954  959.6341
 955  1097.137
 956  1177.631
 957  1289.831
 958  1379.941
 959  1298.136
 960  1251.017
 961  1264.837
 962  1115.028
 963  1076.522
 964  1027.099
 965  1059.319
 966  977.3691
 967  860.5343
 968  954.9227
 969  981.7819
 970  1036.641
 971  1177.828
 972  1185.911
 973  1218.064
 974  1095.527
 975  1153.419
 976  1255.846
 977  1281.252
 978  1129.13
 979  847.8213
 980  686.2281
 981  477.3393
 982  468.3961
 983  604.7061
 984  798.5603
 985  791.1168
 986  683.792
 987  661.6834
 988  912.1333
 989  1089.148
 990  1144.3
 991  1093.696
 992  1031.462
 993  1021.156
 994  993.9188
 995  992.3484
 996  957.2743
 997  919.8497
 998  887.9927
 999  752.4075
1000  717.0418
1001  861.8958
1002  1122.585
1003  1229.483
1004  983.8849
1005  916.8275
1006  922.4437
1007  1221.508
1008  1389.365
1009  1237.374
1010  1263.099
1011  1127.513
1012  1053.294
1013  840.588
1014  748.1401
1015  880.9355
1016  941.9737
1017  967.1659
1018  897.947
1019  786.7643
1020  841.9768
1021  1086.336
1022  1210.973
1023  1248.073
