# Input file       =  1198690143.109693_cleaned.dat
# Candidate        =  PSR_0332+5434
# Telescope        =  AR
# Epoch_topo       =  58117.728728121445
# Epoch_bary       =  N/A
# T_sample         =  0.002
# Data Folded      =  7340032
# Data Avg         =  0.212208112524032
# Data StdDev      =  5.49765318072155 
# Profile Bins     =  1024
# Profile Avg      =  1521.20126567503 
# Profile StdDev   =  465.453539541518 
# Reduced chi-sqr  =  0.511
# Prob(Noise)      <  1   (~0.0 sigma)
# P_topo (ms)      =  714.554677405752  +/- 0.000542
# P'_topo (s/s)    =  -0                +/- 2.86e-10
# P''_topo (s/s^2) =  0                 +/- 1.26e-13
# P_bary (ms)      =  N/A
# P'_bary (s/s)    =  N/A
# P''_bary (s/s^2) =  N/A
# P_orb (s)        =  N/A
# asin(i)/c (s)    =  N/A
# eccentricity     =  N/A
# w (rad)          =  N/A
# T_peri           =  N/A
######################################################
   0  1570.823
   1  1742.2
   2  1873.43
   3  1806.539
   4  1798.966
   5  1709.337
   6  1787.307
   7  1704.443
   8  1736.257
   9  1632.5
  10  1618.909
  11  1667.479
  12  1685.128
  13  1706.138
  14  1584.926
  15  1560.92
  16  1628.853
  17  1660.855
  18  1609.708
  19  1584.19
  20  1589.088
  21  1556.713
  22  1472.584
  23  1554.834
  24  1587.521
  25  1584.602
  26  1492.666
  27  1553.583
  28  1511.708
  29  1369.391
  30  1322.609
  31  1506.516
  32  1599.316
  33  1653.442
  34  1617.688
  35  1611.764
  36  1548.471
  37  1526.086
  38  1537.682
  39  1584.004
  40  1601.207
  41  1657.993
  42  1764.74
  43  1844.91
  44  1832.96
  45  1716.833
  46  1643.658
  47  1637.211
  48  1678.766
  49  1650.278
  50  1666.29
  51  1675.582
  52  1725.602
  53  1708.224
  54  1738.964
  55  1639.544
  56  1594.342
  57  1575.028
  58  1653.411
  59  1573.089
  60  1323.799
  61  1233.494
  62  1305.711
  63  1286.516
  64  1290.833
  65  1287.019
  66  1334.042
  67  1336.863
  68  1484.301
  69  1545.694
  70  1435.073
  71  1424.38
  72  1531.188
  73  1529.245
  74  1574.732
  75  1425.427
  76  1449.699
  77  1472.083
  78  1563.037
  79  1552.137
  80  1546.203
  81  1592.776
  82  1613.835
  83  1567.649
  84  1506.294
  85  1601.495
  86  1700.934
  87  1652.241
  88  1696.74
  89  1689.238
  90  1648.535
  91  1559.326
  92  1384.449
  93  1378.092
  94  1364.909
  95  1408.663
  96  1407.28
  97  1320.695
  98  1401.996
  99  1427.719
 100  1528.059
 101  1458.883
 102  1479.572
 103  1402.373
 104  1437.42
 105  1407.012
 106  1354.017
 107  1394.219
 108  1354.817
 109  1386.167
 110  1416.554
 111  1384.667
 112  1358.707
 113  1315.51
 114  1217.035
 115  1285.765
 116  1296.263
 117  1301.27
 118  1345.465
 119  1283.857
 120  1271.776
 121  1229.256
 122  1161.595
 123  1220.394
 124  1312.954
 125  1417.119
 126  1420.132
 127  1195.652
 128  1199.203
 129  1188.101
 130  1176.449
 131  1176.461
 132  1207.442
 133  1140.832
 134  1187.873
 135  1255.133
 136  1199.726
 137  1092.087
 138  1058.622
 139  1057.797
 140  1120.742
 141  1097.372
 142  1192.757
 143  1239.564
 144  1289.399
 145  1222.69
 146  1063.699
 147  1021.98
 148  1043.147
 149  1132.389
 150  1167.848
 151  1221.206
 152  1291.993
 153  1275.105
 154  1225.438
 155  1287.434
 156  1323.801
 157  1249.299
 158  1231.707
 159  1354.27
 160  1511.473
 161  1447.59
 162  1430.772
 163  1478.599
 164  1503.995
 165  1425.866
 166  1278.212
 167  1233.178
 168  1404.196
 169  1495.341
 170  1508.51
 171  1458.961
 172  1465.533
 173  1476.616
 174  1586.239
 175  1580.416
 176  1582.791
 177  1672.641
 178  1588.012
 179  1595.409
 180  1588.75
 181  1782.26
 182  1828.056
 183  1810.129
 184  1646.686
 185  1514.692
 186  1594.776
 187  1712.004
 188  1820.833
 189  1872.553
 190  1895.199
 191  1900.065
 192  1879.021
 193  1792.27
 194  1730.689
 195  1745.17
 196  1786.087
 197  1739.094
 198  1633.318
 199  1600.87
 200  1596.431
 201  1616.559
 202  1586.828
 203  1628.362
 204  1748.145
 205  1875.602
 206  1891.428
 207  2006.695
 208  2052.631
 209  1956.764
 210  1802.132
 211  1828.27
 212  1879.912
 213  1823.246
 214  1658.262
 215  1634.744
 216  1586.781
 217  1548.055
 218  1431.632
 219  1417.269
 220  1511.944
 221  1559.193
 222  1669.936
 223  1562.83
 224  1562.691
 225  1588.544
 226  1689.977
 227  1761.09
 228  1643.449
 229  1593.694
 230  1619.503
 231  1633.473
 232  1621.691
 233  1544.333
 234  1555.806
 235  1517.816
 236  1513.546
 237  1583.474
 238  1766.459
 239  1711.481
 240  1695.914
 241  1711.78
 242  1710.061
 243  1686.869
 244  1720.503
 245  1743.472
 246  1852.986
 247  1705.526
 248  1637.89
 249  1712.21
 250  1777.531
 251  1784.439
 252  1673.951
 253  1632.364
 254  1557.619
 255  1517.248
 256  1573.219
 257  1537.068
 258  1349.374
 259  1245.759
 260  1374.687
 261  1534.6
 262  1499.756
 263  1383.082
 264  1324.388
 265  1386.618
 266  1230.467
 267  1204.99
 268  1088.619
 269  1011.714
 270  988.4885
 271  1127.203
 272  1306.349
 273  1441.238
 274  1437.625
 275  1398.62
 276  1400.352
 277  1490.358
 278  1458.172
 279  1404.494
 280  1430.436
 281  1507.361
 282  1525.883
 283  1451.752
 284  1479.918
 285  1474.85
 286  1567.801
 287  1686.686
 288  1787.541
 289  1782.965
 290  1732.932
 291  1779.079
 292  1827.547
 293  1824.239
 294  1728.5
 295  1789.185
 296  1818.757
 297  1735.667
 298  1602.052
 299  1500.949
 300  1550.261
 301  1658.892
 302  1582.127
 303  1568.327
 304  1701.946
 305  1872.923
 306  1868.505
 307  1709.294
 308  1606.111
 309  1603.76
 310  1684.12
 311  1631.497
 312  1516.766
 313  1506.955
 314  1595.928
 315  1668.225
 316  1663.402
 317  1618.666
 318  1503.328
 319  1493.936
 320  1519.058
 321  1630.408
 322  1601.479
 323  1642.406
 324  1651.032
 325  1716.012
 326  1695.262
 327  1606.456
 328  1564.687
 329  1493.647
 330  1537.654
 331  1515.455
 332  1674.56
 333  1744.741
 334  1878.757
 335  1821.092
 336  1857.659
 337  1792.887
 338  1795.255
 339  1849.622
 340  1918
 341  1931.222
 342  1835.71
 343  1706.125
 344  1710.975
 345  1723.666
 346  1604.472
 347  1571.069
 348  1677.132
 349  1812.666
 350  1727.488
 351  1684.499
 352  1654.597
 353  1687.685
 354  1614.189
 355  1647.932
 356  1668.821
 357  1695.414
 358  1737.566
 359  1764.574
 360  1854.522
 361  1815.447
 362  1858.291
 363  1740.75
 364  1705.796
 365  1640.355
 366  1564.436
 367  1498.66
 368  1610.783
 369  1725.806
 370  1675.076
 371  1618.578
 372  1714.168
 373  1835.31
 374  1849.549
 375  1790.841
 376  1705.69
 377  1700.722
 378  1707.841
 379  1753.435
 380  1660.976
 381  1602.138
 382  1575.422
 383  1637.848
 384  1668.647
 385  1617.911
 386  1521.617
 387  1578.626
 388  1648.854
 389  1628.715
 390  1496.257
 391  1503.254
 392  1508.028
 393  1533.963
 394  1444.293
 395  1404.238
 396  1444.534
 397  1475.929
 398  1424.428
 399  1315.477
 400  1330.039
 401  1490.147
 402  1549.079
 403  1558.503
 404  1557.467
 405  1537.282
 406  1588.61
 407  1548.712
 408  1620.106
 409  1656.788
 410  1648.989
 411  1723.286
 412  1581.51
 413  1664.888
 414  1524.808
 415  1610.903
 416  1635.295
 417  1684.416
 418  1630.56
 419  1475.377
 420  1451.79
 421  1489.494
 422  1489.401
 423  1453.038
 424  1335.776
 425  1394.402
 426  1398.841
 427  1548.757
 428  1515.272
 429  1485.321
 430  1454.452
 431  1451.77
 432  1447.833
 433  1366.408
 434  1512.417
 435  1461.507
 436  1420.06
 437  1352.013
 438  1418.522
 439  1504.113
 440  1416.31
 441  1363.336
 442  1358.379
 443  1293.106
 444  1293.393
 445  1387.066
 446  1334.769
 447  1393.048
 448  1263.167
 449  1383.874
 450  1272.764
 451  1240.553
 452  1230.56
 453  1222.701
 454  1267.948
 455  1308.534
 456  1406.915
 457  1483.572
 458  1465.126
 459  1410.292
 460  1426.91
 461  1498.303
 462  1560.412
 463  1580.548
 464  1593.455
 465  1576.614
 466  1450.111
 467  1256.868
 468  1347.567
 469  1445.167
 470  1590.407
 471  1493.688
 472  1406.007
 473  1372.252
 474  1471.778
 475  1495.531
 476  1459.341
 477  1454.23
 478  1474.717
 479  1496.512
 480  1531.329
 481  1494.765
 482  1505.568
 483  1467.422
 484  1462.457
 485  1497.869
 486  1493.953
 487  1468.169
 488  1518.982
 489  1443.477
 490  1419.035
 491  1381.348
 492  1400.054
 493  1445.717
 494  1414.736
 495  1477.465
 496  1430.084
 497  1398.715
 498  1437.233
 499  1435.928
 500  1468.623
 501  1388.132
 502  1430.708
 503  1411.535
 504  1413.425
 505  1393.135
 506  1454.048
 507  1597.432
 508  1651.798
 509  1648.707
 510  1468.527
 511  1555.695
 512  1666.299
 513  1584.126
 514  1551.104
 515  1526.983
 516  1621.72
 517  1612.845
 518  1549.365
 519  1521.732
 520  1545.81
 521  1658.046
 522  1564.719
 523  1480.067
 524  1387.411
 525  1414.031
 526  1509.63
 527  1455.463
 528  1326.124
 529  1302.839
 530  1378.858
 531  1409.278
 532  1383.877
 533  1426.146
 534  1335.614
 535  1363.477
 536  1385.024
 537  1431.306
 538  1375.968
 539  1462.099
 540  1529.018
 541  1425.637
 542  1358.449
 543  1287.941
 544  1327.599
 545  1342.324
 546  1234.158
 547  1241.12
 548  1238.315
 549  1085.424
 550  1032.479
 551  1069.198
 552  1138.692
 553  1091.05
 554  1047.365
 555  1124.435
 556  1312.668
 557  1340.38
 558  1373.444
 559  1281.909
 560  1341.545
 561  1322.362
 562  1276.215
 563  1256.398
 564  1297.726
 565  1290.911
 566  1470.8
 567  1471.048
 568  1500.631
 569  1527.498
 570  1550.257
 571  1521.851
 572  1516.561
 573  1492.241
 574  1443.814
 575  1254.426
 576  1072.787
 577  1045.725
 578  1213.363
 579  1379.928
 580  1483.645
 581  1380.287
 582  1433.577
 583  1557.588
 584  1657.754
 585  1578.835
 586  1486.432
 587  1429.881
 588  1468.735
 589  1285.732
 590  1334.513
 591  1335.756
 592  1332.983
 593  1230.108
 594  1147.995
 595  1226.945
 596  1388.553
 597  1478.919
 598  1510.508
 599  1438.66
 600  1481.813
 601  1471.512
 602  1418.832
 603  1536.066
 604  1580.399
 605  1662.869
 606  1446.946
 607  1443.495
 608  1520.349
 609  1496.832
 610  1531.213
 611  1606.912
 612  1698.944
 613  1638.285
 614  1547.614
 615  1694.819
 616  1812.188
 617  1849.64
 618  1836.434
 619  1872.099
 620  1796.629
 621  1897.991
 622  1966.269
 623  2084.606
 624  2027.142
 625  1919.313
 626  1972.219
 627  1937.966
 628  1777.309
 629  1638.97
 630  1469.204
 631  1596.628
 632  1596.131
 633  1791.834
 634  1796.361
 635  1685.141
 636  1581.954
 637  1616.853
 638  1604.653
 639  1589.67
 640  1515.769
 641  1637.758
 642  1702.747
 643  1806.966
 644  1818.337
 645  1750.877
 646  1771.262
 647  1724.157
 648  1747.013
 649  1611.85
 650  1563.567
 651  1680.656
 652  1739.032
 653  1774.165
 654  1792.603
 655  1828.322
 656  1818.816
 657  1754.248
 658  1832.851
 659  1789.818
 660  1836.65
 661  1852.032
 662  1830.178
 663  1703.698
 664  1737.33
 665  1695.167
 666  1701.595
 667  1651.543
 668  1653.11
 669  1623.072
 670  1681.547
 671  1672.8
 672  1775.066
 673  1832.709
 674  1641.776
 675  1470.418
 676  1317.036
 677  1327.28
 678  1316.427
 679  1302.859
 680  1357.927
 681  1343.079
 682  1293.42
 683  1395.39
 684  1523.405
 685  1489.965
 686  1510.009
 687  1412.231
 688  1428.254
 689  1377.804
 690  1336.999
 691  1285.06
 692  1231.154
 693  1093.993
 694  1151.17
 695  1053.011
 696  1148.739
 697  1202.991
 698  1280.601
 699  1256.888
 700  1254.251
 701  1380.191
 702  1345.011
 703  1402.381
 704  1450.435
 705  1586.238
 706  1519.374
 707  1421.548
 708  1315.648
 709  1246.662
 710  1252.484
 711  1298.27
 712  1422.544
 713  1513.053
 714  1530.746
 715  1436.788
 716  1489.265
 717  1483.118
 718  1555.731
 719  1457.33
 720  1397.544
 721  1360.389
 722  1321.028
 723  1326.329
 724  1401.243
 725  1447.623
 726  1439.542
 727  1441.311
 728  1513.469
 729  1591.999
 730  1678.513
 731  1588.482
 732  1532.372
 733  1494.298
 734  1607.741
 735  1589.686
 736  1570.687
 737  1518.443
 738  1423.51
 739  1284.884
 740  1133.608
 741  1217.695
 742  1193.581
 743  1127.726
 744  1099.286
 745  1312.63
 746  1436.08
 747  1458.912
 748  1555.061
 749  1520.765
 750  1513.844
 751  1486.114
 752  1456.867
 753  1383.052
 754  1550.199
 755  1532.596
 756  1516.928
 757  1402.257
 758  1400.255
 759  1385.392
 760  1404.336
 761  1485.955
 762  1499.861
 763  1413.637
 764  1394.425
 765  1425.196
 766  1483.479
 767  1469.472
 768  1481.73
 769  1457.896
 770  1509.473
 771  1512.403
 772  1508.782
 773  1487.969
 774  1502.316
 775  1551.701
 776  1622.3
 777  1581.301
 778  1502.121
 779  1405.229
 780  1468.214
 781  1501.282
 782  1407.615
 783  1373.656
 784  1371.684
 785  1425.188
 786  1416.514
 787  1444.789
 788  1534.116
 789  1488.086
 790  1531.271
 791  1543.43
 792  1621.062
 793  1535.514
 794  1427.67
 795  1543.87
 796  1573.395
 797  1619.526
 798  1531.501
 799  1635.503
 800  1825.124
 801  1948.26
 802  2001.706
 803  1951.321
 804  1940.538
 805  1800.368
 806  1722.338
 807  1656.077
 808  1623.469
 809  1559.94
 810  1539.285
 811  1575.144
 812  1678.15
 813  1722.319
 814  1734.699
 815  1587.947
 816  1491.516
 817  1442.354
 818  1506.93
 819  1623.17
 820  1541.27
 821  1520.909
 822  1394.684
 823  1344.646
 824  1426.746
 825  1479.714
 826  1481.762
 827  1427.242
 828  1364.626
 829  1359.54
 830  1372.945
 831  1414.512
 832  1407.314
 833  1395.001
 834  1326.799
 835  1361.952
 836  1352.224
 837  1328.237
 838  1291.994
 839  1338.199
 840  1426.58
 841  1344.057
 842  1394.613
 843  1405.782
 844  1466.835
 845  1421.932
 846  1410.038
 847  1567.027
 848  1702.046
 849  1812.143
 850  1726.341
 851  1763.906
 852  1745.446
 853  1680.046
 854  1566.343
 855  1532.89
 856  1492.377
 857  1580.44
 858  1528.254
 859  1481.107
 860  1452.752
 861  1388.049
 862  1522.982
 863  1569.539
 864  1725.799
 865  1622.074
 866  1550.975
 867  1441.676
 868  1320.261
 869  1295.27
 870  1283.582
 871  1356.184
 872  1313.787
 873  1419.228
 874  1470.399
 875  1518.145
 876  1623.244
 877  1484.784
 878  1422.392
 879  1355.109
 880  1394.839
 881  1558.85
 882  1539.461
 883  1533.934
 884  1369.905
 885  1260.781
 886  1204.861
 887  1224.248
 888  1293.643
 889  1194.098
 890  1286.354
 891  1331.602
 892  1429.684
 893  1301.314
 894  1210.337
 895  1317.961
 896  1447.483
 897  1405.606
 898  1364.1
 899  1217.718
 900  1295.136
 901  1302.614
 902  1328.06
 903  1286.148
 904  1210.531
 905  1271.808
 906  1406.168
 907  1597.221
 908  1711.852
 909  1579.29
 910  1423.606
 911  1423.786
 912  1611.215
 913  1689.681
 914  1671.463
 915  1631.281
 916  1673.504
 917  1772.622
 918  1674.437
 919  1642.325
 920  1536.635
 921  1537.59
 922  1651.862
 923  1678.872
 924  1612.274
 925  1511.953
 926  1554.903
 927  1709.54
 928  1727.176
 929  1762.503
 930  1624.777
 931  1671.804
 932  1690.784
 933  1805.28
 934  1767.491
 935  1721.844
 936  1705.421
 937  1706.944
 938  1611.698
 939  1540.058
 940  1424.08
 941  1492.066
 942  1520.824
 943  1548.707
 944  1539.557
 945  1503.803
 946  1522.786
 947  1413.148
 948  1496.373
 949  1491.624
 950  1549.568
 951  1417.959
 952  1313.059
 953  1291.312
 954  1453.045
 955  1624.299
 956  1770.519
 957  1848.808
 958  1896.963
 959  1883.706
 960  1721.486
 961  1620.78
 962  1608.989
 963  1644.023
 964  1551.7
 965  1558.683
 966  1696.457
 967  1719.948
 968  1717.276
 969  1615.692
 970  1713.685
 971  1687.328
 972  1747.998
 973  1742.427
 974  1728.481
 975  1646.035
 976  1747.7
 977  1873.163
 978  1682.758
 979  1479.505
 980  1378.031
 981  1451.169
 982  1484.674
 983  1546.526
 984  1599.216
 985  1516.087
 986  1446.039
 987  1427.937
 988  1310.124
 989  1324.077
 990  1336.375
 991  1411.369
 992  1476.627
 993  1477.628
 994  1573.664
 995  1631.635
 996  1627.527
 997  1517.068
 998  1452.022
 999  1473.399
1000  1490.109
1001  1509.471
1002  1544.73
1003  1584.772
1004  1482.514
1005  1425.403
1006  1341.406
1007  1339.104
1008  1461.663
1009  1677.252
1010  1753.433
1011  1617.416
1012  1637.085
1013  1684.765
1014  1686.907
1015  1673.76
1016  1662.059
1017  1690.109
1018  1611.437
1019  1617.2
1020  1682.869
1021  1701.117
1022  1580.645
1023  1578.725
