# Input file       =  1198360408.106056_cleaned.dat
# Candidate        =  PSR_0332+5434
# Telescope        =  AR
# Epoch_topo       =  58113.912350764534
# Epoch_bary       =  N/A
# T_sample         =  0.002
# Data Folded      =  7340032
# Data Avg         =  0.242403713799181
# Data StdDev      =  4.90219571197057 
# Profile Bins     =  1024
# Profile Avg      =  1737.35469874081 
# Profile StdDev   =  415.039703425324 
# Reduced chi-sqr  =  0.632
# Prob(Noise)      <  1   (~0.0 sigma)
# P_topo (ms)      =  714.55164986434   +/- 0.000144
# P'_topo (s/s)    =  -0                +/- 7.59e-11
# P''_topo (s/s^2) =  0                 +/- 3.35e-14
# P_bary (ms)      =  N/A
# P'_bary (s/s)    =  N/A
# P''_bary (s/s^2) =  N/A
# P_orb (s)        =  N/A
# asin(i)/c (s)    =  N/A
# eccentricity     =  N/A
# w (rad)          =  N/A
# T_peri           =  N/A
######################################################
   0  1895.5
   1  1938.246
   2  1814.274
   3  1776.266
   4  1852.927
   5  1847.59
   6  1730.426
   7  1705.956
   8  1707.859
   9  1879.002
  10  1965.938
  11  2128.527
  12  1950.867
  13  1849.244
  14  1718.099
  15  1780.662
  16  1858.089
  17  2006.105
  18  2028.177
  19  1945.504
  20  1765.212
  21  1695.758
  22  1684.523
  23  1847.715
  24  1987.814
  25  2082.032
  26  2009.844
  27  1793.412
  28  1677.278
  29  1798.677
  30  1842.116
  31  1917.108
  32  1903.849
  33  1805.07
  34  1830.53
  35  1910.605
  36  1904.369
  37  1655.619
  38  1518.03
  39  1593.215
  40  1720.875
  41  1657.937
  42  1569.761
  43  1609.514
  44  1575.935
  45  1508.898
  46  1433.651
  47  1442.765
  48  1445.788
  49  1512.677
  50  1668.897
  51  1804.846
  52  1800.893
  53  1801.089
  54  1878.428
  55  1997.746
  56  1934.168
  57  1584.739
  58  1642.994
  59  1642.158
  60  1808.347
  61  1815.939
  62  1870.371
  63  1867.712
  64  1853.992
  65  1819.95
  66  1863.072
  67  1862.68
  68  2005.156
  69  1983.033
  70  1811.769
  71  1620.577
  72  1678.725
  73  1737.659
  74  1866.452
  75  1836.734
  76  1799.838
  77  1833.604
  78  1778.327
  79  1783.943
  80  1559.43
  81  1646.283
  82  1770.38
  83  1893.218
  84  1787.925
  85  1766.202
  86  1723.691
  87  1697.87
  88  1464.417
  89  1502.379
  90  1562.255
  91  1686.277
  92  1574.459
  93  1524.933
  94  1440.402
  95  1561.951
  96  1688.207
  97  1824.76
  98  1828.974
  99  1791.494
 100  1732.115
 101  1532.691
 102  1425.103
 103  1476.082
 104  1653.689
 105  1716.371
 106  1668.69
 107  1706.188
 108  1830.948
 109  1820.407
 110  1695.468
 111  1525.034
 112  1624.968
 113  1618.021
 114  1562.437
 115  1517.311
 116  1717.497
 117  1835.896
 118  1849.355
 119  1818.567
 120  1838.493
 121  1754.979
 122  1639.505
 123  1601.576
 124  1525.851
 125  1537.579
 126  1542.198
 127  1457.107
 128  1442.149
 129  1430.699
 130  1462.789
 131  1524.384
 132  1532.239
 133  1458.965
 134  1429.213
 135  1369.53
 136  1389.914
 137  1444.403
 138  1446.967
 139  1612.793
 140  1725.527
 141  1769.291
 142  1741.956
 143  1640.126
 144  1714.728
 145  1591.54
 146  1566.395
 147  1549.372
 148  1730.518
 149  1867.814
 150  1915.984
 151  1819.103
 152  1782.421
 153  1704.127
 154  1689.48
 155  1725.596
 156  1619.863
 157  1566.685
 158  1359.309
 159  1512.914
 160  1579.027
 161  1633.069
 162  1638.079
 163  1636.483
 164  1550.367
 165  1629.646
 166  1621.735
 167  1542.474
 168  1544.201
 169  1648.483
 170  1571.839
 171  1392.567
 172  1316.219
 173  1492.786
 174  1361.402
 175  1405.224
 176  1518.576
 177  1594.798
 178  1696.5
 179  1669.36
 180  1753.413
 181  1790.037
 182  1751.935
 183  1724.727
 184  1604.518
 185  1508.418
 186  1359.964
 187  1380.763
 188  1439.381
 189  1611.875
 190  1794.768
 191  1795.735
 192  1753.572
 193  1752.305
 194  1708.404
 195  1579.883
 196  1461.589
 197  1629.526
 198  1680.869
 199  1696.646
 200  1651.71
 201  1683.922
 202  1560.126
 203  1455.925
 204  1332.512
 205  1344.378
 206  1478.283
 207  1650.643
 208  1636.105
 209  1601.77
 210  1653.963
 211  1590.982
 212  1530.827
 213  1674.609
 214  1886.344
 215  1930.998
 216  1840.785
 217  1927.781
 218  1821.038
 219  1564.291
 220  1425.26
 221  1328.081
 222  1360.016
 223  1270.707
 224  1286.458
 225  1344.68
 226  1455.091
 227  1661.201
 228  1666.522
 229  1475.216
 230  1344.858
 231  1323.55
 232  1503.309
 233  1534.453
 234  1624.074
 235  1394.965
 236  1379.986
 237  1200.366
 238  1278.018
 239  1365.489
 240  1427.542
 241  1509.323
 242  1419.694
 243  1322.304
 244  1257.577
 245  1209.155
 246  1364.019
 247  1511.817
 248  1587.857
 249  1614.376
 250  1535.589
 251  1566.312
 252  1572.371
 253  1518.012
 254  1514.906
 255  1591.367
 256  1635.236
 257  1645.242
 258  1610.243
 259  1699.309
 260  1675.253
 261  1602.924
 262  1608.285
 263  1653.779
 264  1760.102
 265  1699.598
 266  1612.143
 267  1606.077
 268  1685.573
 269  1687.639
 270  1770.435
 271  1716.55
 272  1679.475
 273  1554.426
 274  1594.611
 275  1687.845
 276  1799.351
 277  1834.867
 278  1850.133
 279  1977.104
 280  2073.09
 281  1933.384
 282  1856.954
 283  1951.454
 284  1882.58
 285  1659.911
 286  1357.425
 287  1331.522
 288  1587.749
 289  1684.819
 290  1660.523
 291  1445.341
 292  1417.188
 293  1556.327
 294  1666.648
 295  1754.5
 296  1652.959
 297  1542.521
 298  1738.444
 299  1775.357
 300  1784.563
 301  1498.717
 302  1516.092
 303  1773.109
 304  2003.367
 305  1998.39
 306  1835.411
 307  1653.968
 308  1668.924
 309  1769.081
 310  1837.223
 311  1912.726
 312  1884.762
 313  1973.369
 314  2057.409
 315  1998.458
 316  1959.09
 317  1768.662
 318  1707.156
 319  1739.311
 320  1688.839
 321  1710.445
 322  1756.796
 323  1869.593
 324  1847.844
 325  1724.709
 326  1684.802
 327  1744.49
 328  1794.357
 329  1691.503
 330  1628.826
 331  1724.702
 332  1873.736
 333  1741.253
 334  1680.396
 335  1703.469
 336  1659.988
 337  1619.824
 338  1729.274
 339  1922.721
 340  2083.502
 341  2032.304
 342  1829.68
 343  1748.986
 344  1825.778
 345  1946.598
 346  2006.829
 347  1876.309
 348  1902.797
 349  1778.604
 350  1723.505
 351  1611.644
 352  1631.834
 353  1739.687
 354  1729.287
 355  1806.155
 356  1757.31
 357  1650.402
 358  1604.198
 359  1677.716
 360  1925.199
 361  1993.038
 362  2085.56
 363  2021.988
 364  1909.159
 365  1883.231
 366  1928.754
 367  1910.672
 368  1761.14
 369  1758.952
 370  1751.48
 371  1608.52
 372  1423.559
 373  1601.328
 374  1749.064
 375  1739.433
 376  1838.707
 377  1877.17
 378  1978.819
 379  1896.327
 380  2037.292
 381  2081.47
 382  1998.883
 383  1941.682
 384  1862.947
 385  1727.618
 386  1693.507
 387  1757.347
 388  1783.466
 389  1867.957
 390  2057.853
 391  2121.469
 392  2126.342
 393  2036.157
 394  2115.157
 395  2045.329
 396  1897.668
 397  1829.746
 398  1861.161
 399  1799.941
 400  1742.038
 401  1578.463
 402  1523.421
 403  1573.455
 404  1582.042
 405  1744.62
 406  1661.316
 407  1756.973
 408  1694.69
 409  1563.138
 410  1536.938
 411  1437.308
 412  1565.349
 413  1625.731
 414  1730.897
 415  1706.3
 416  1646.839
 417  1556.715
 418  1657.665
 419  1725.546
 420  1712.713
 421  1540.924
 422  1402.46
 423  1520.127
 424  1460.716
 425  1400.251
 426  1426.005
 427  1475.582
 428  1472.778
 429  1521.98
 430  1562.039
 431  1616.583
 432  1763.272
 433  1748.623
 434  1844.596
 435  1742.547
 436  1898.54
 437  1785.015
 438  1699.521
 439  1718.048
 440  1798.215
 441  1857.831
 442  1809.155
 443  1726.746
 444  1705.464
 445  1633.087
 446  1553.912
 447  1545.927
 448  1682.975
 449  1761.276
 450  1689.161
 451  1655.287
 452  1642.11
 453  1640.177
 454  1435.474
 455  1565.775
 456  1672.445
 457  1781.002
 458  1653.927
 459  1541.992
 460  1449.898
 461  1562.456
 462  1684.308
 463  1798.864
 464  1677.471
 465  1684.564
 466  1546.809
 467  1507.146
 468  1554.531
 469  1750.22
 470  1923.225
 471  1770.085
 472  1683.118
 473  1687.124
 474  1701.891
 475  1795.587
 476  1828.403
 477  1908.034
 478  1818.336
 479  1676.33
 480  1666.115
 481  1633.401
 482  1645.971
 483  1813.043
 484  1930.218
 485  2110.411
 486  2042.167
 487  1943.06
 488  1819.363
 489  1744.42
 490  1850.248
 491  1971.039
 492  1923.13
 493  1823.186
 494  1859.455
 495  1919.258
 496  1917.655
 497  1982.032
 498  1962.202
 499  1821.785
 500  1708.217
 501  1711.872
 502  1773.592
 503  1698.195
 504  1669.159
 505  1656.996
 506  1624.73
 507  1651.11
 508  1670.566
 509  1821.219
 510  1796.158
 511  1705.419
 512  1745.985
 513  1732.682
 514  1647.994
 515  1502.809
 516  1357.419
 517  1556.185
 518  1612.955
 519  1778.878
 520  1791.317
 521  1758.566
 522  1742.375
 523  1715.967
 524  1762.091
 525  1741.088
 526  1767.898
 527  1681.32
 528  1816.427
 529  1850.766
 530  1783.583
 531  1515.382
 532  1352.46
 533  1541.972
 534  1704.442
 535  1761.214
 536  1625.344
 537  1566.142
 538  1558.393
 539  1594.387
 540  1651.042
 541  1807.73
 542  1691.522
 543  1679.9
 544  1546.888
 545  1677.727
 546  1737.971
 547  1900.843
 548  1935.531
 549  1932.724
 550  1777.693
 551  1751.849
 552  1748.42
 553  1970.783
 554  1912.635
 555  1889.753
 556  1788.383
 557  1804.858
 558  1816.519
 559  1716.032
 560  1621.835
 561  1705.755
 562  1888.364
 563  1811.744
 564  1725.971
 565  1686.564
 566  1801.969
 567  1671.791
 568  1464.079
 569  1511.904
 570  1564.038
 571  1709.529
 572  1716.248
 573  1719.57
 574  1799.033
 575  1774.625
 576  1803.63
 577  1834.836
 578  1752.275
 579  1673.529
 580  1677.431
 581  1793.461
 582  1923.414
 583  1778.683
 584  1602.518
 585  1436.675
 586  1531.541
 587  1561.721
 588  1652.23
 589  1650.953
 590  1848.405
 591  1905.407
 592  1893.174
 593  1896.839
 594  1926.709
 595  2177.426
 596  2147.353
 597  2123.664
 598  2016.853
 599  2031.133
 600  1898.695
 601  1742.876
 602  1679.456
 603  1868.233
 604  2076.157
 605  2190.68
 606  2112.484
 607  2009.753
 608  1958.172
 609  1903.881
 610  2008.437
 611  2066.963
 612  2110.341
 613  2045.559
 614  1967.918
 615  1838.327
 616  1914.355
 617  2037.749
 618  2230.922
 619  2438.138
 620  2519.435
 621  2495.4
 622  2511.592
 623  2588.27
 624  2487.758
 625  2326.752
 626  2086.971
 627  2021.374
 628  1902.403
 629  1824.94
 630  1714.048
 631  1676.383
 632  1683.936
 633  1588.93
 634  1661.929
 635  1701.239
 636  1756.924
 637  1700.266
 638  1639.192
 639  1584.4
 640  1531.239
 641  1626.127
 642  1808.493
 643  1721.769
 644  1562.254
 645  1479.632
 646  1632.24
 647  1833.5
 648  1879.905
 649  1776.634
 650  1690.475
 651  1653.629
 652  1783.837
 653  1830.385
 654  1653.899
 655  1493.392
 656  1353.866
 657  1478.609
 658  1526.353
 659  1589.092
 660  1667.208
 661  1811.337
 662  1737.13
 663  1759.063
 664  1710.083
 665  1799.686
 666  1748.17
 667  1617.444
 668  1514.531
 669  1547.683
 670  1679.789
 671  1723.533
 672  1713.87
 673  1791.533
 674  1815.125
 675  1656.689
 676  1820.506
 677  1748.596
 678  1750.183
 679  1677.133
 680  1739.301
 681  1720.366
 682  1451.744
 683  1400.604
 684  1451.807
 685  1613.45
 686  1739.924
 687  1748.447
 688  1697.73
 689  1712.043
 690  1897.275
 691  2004.96
 692  1966.718
 693  1676.013
 694  1714.869
 695  1712.217
 696  1739.771
 697  1526.222
 698  1575.633
 699  1610.255
 700  1808.047
 701  1826.762
 702  1838.286
 703  1737.445
 704  1725.183
 705  1886.459
 706  2038.533
 707  2088.794
 708  2050.852
 709  2116.299
 710  2043.279
 711  1879.504
 712  1713.562
 713  1762.324
 714  1704.789
 715  1648.609
 716  1595.627
 717  1621.498
 718  1788.82
 719  1939.067
 720  1991.014
 721  1864.825
 722  1690.724
 723  1886.557
 724  1837.801
 725  1893.295
 726  1770.28
 727  1934.334
 728  1926.907
 729  1839.361
 730  1662.726
 731  1643.007
 732  1554.739
 733  1770.905
 734  1919.588
 735  2041.048
 736  1990.675
 737  1867.563
 738  1954.742
 739  2021.436
 740  1968.836
 741  1998.462
 742  2036.002
 743  2080.409
 744  2010.29
 745  1748.164
 746  1801.695
 747  1713.302
 748  1709.82
 749  1711.747
 750  1783.635
 751  1907.685
 752  1897.806
 753  1913.512
 754  1870.519
 755  1780.263
 756  1604.088
 757  1588.153
 758  1626.514
 759  1750.696
 760  1647.99
 761  1555.212
 762  1586.686
 763  1800.632
 764  1832.668
 765  1814.104
 766  1740.401
 767  1756.688
 768  1741.325
 769  1619.558
 770  1678.584
 771  1778.366
 772  1898.46
 773  1736.167
 774  1575.509
 775  1712.231
 776  1833.483
 777  2017.935
 778  2022.363
 779  1998.963
 780  1911.727
 781  1933.747
 782  1913.05
 783  1917.95
 784  1933.851
 785  1905.621
 786  1833.895
 787  1635.111
 788  1446.087
 789  1394.463
 790  1559.414
 791  1806.668
 792  1948.227
 793  1871.601
 794  1818.356
 795  1868.767
 796  1764.571
 797  1604.887
 798  1508.256
 799  1495.512
 800  1566.21
 801  1605.522
 802  1618.819
 803  1773.902
 804  1846.739
 805  1813.04
 806  1783.568
 807  1776.372
 808  1842.014
 809  1751.024
 810  1753.577
 811  1844.382
 812  1797.76
 813  1761.476
 814  1735.986
 815  1645.322
 816  1620.642
 817  1648.88
 818  1702.141
 819  1754.355
 820  1924.168
 821  2081.716
 822  1982.277
 823  1785.847
 824  1804.588
 825  1919.63
 826  1941.77
 827  1874.215
 828  1723.8
 829  1551.157
 830  1589.552
 831  1597.387
 832  1613.36
 833  1554.158
 834  1623.803
 835  1661.866
 836  1670.116
 837  1626.488
 838  1695.189
 839  1741.649
 840  1853.334
 841  1846.505
 842  1741.408
 843  1628.965
 844  1529.543
 845  1591.877
 846  1629.214
 847  1580.485
 848  1805.13
 849  1832.941
 850  1773.515
 851  1619.342
 852  1596.784
 853  1709
 854  1615.297
 855  1567.864
 856  1541.848
 857  1553.486
 858  1535.362
 859  1554.199
 860  1556.113
 861  1613.382
 862  1699.495
 863  1836.191
 864  1783.889
 865  1567.621
 866  1554.154
 867  1674.377
 868  1737.678
 869  1755.745
 870  1715.616
 871  1770.745
 872  1795.558
 873  1835.65
 874  1657.84
 875  1700.17
 876  1795.418
 877  2103.57
 878  2080.843
 879  1813.833
 880  1501.728
 881  1605.655
 882  1742.819
 883  1628.465
 884  1532.776
 885  1599.934
 886  1800.164
 887  1829.919
 888  1864.285
 889  1940.15
 890  1922.844
 891  1935.802
 892  1976.612
 893  1921.572
 894  1888.323
 895  1817.018
 896  1835.684
 897  1838.125
 898  1812.048
 899  1752.572
 900  1786.324
 901  1796.846
 902  1907.962
 903  1805.466
 904  1698.296
 905  1802.983
 906  1901.292
 907  1880.581
 908  1912.197
 909  1858.572
 910  1897.171
 911  1887.01
 912  1863.248
 913  1788.586
 914  1667.093
 915  1686.53
 916  1734.005
 917  1804.208
 918  1857.381
 919  1906.389
 920  1920.264
 921  1997.819
 922  1873.277
 923  1706.152
 924  1696.979
 925  1775.979
 926  1974.085
 927  1928.277
 928  1939.917
 929  1881.965
 930  1862.53
 931  1815.204
 932  1701.351
 933  1589.454
 934  1793.986
 935  1825.725
 936  1759.686
 937  1569.305
 938  1644.961
 939  1852.763
 940  1810.845
 941  1754.86
 942  1915.248
 943  2027.135
 944  2065.354
 945  2025.964
 946  2021.913
 947  1986.28
 948  1911.013
 949  2028.554
 950  2029.559
 951  2018.075
 952  1923.696
 953  1882.988
 954  1838.334
 955  1810.104
 956  1736.329
 957  1825.967
 958  1891.276
 959  2017.642
 960  1905.4
 961  1808.146
 962  1916.01
 963  2028.932
 964  2041.067
 965  2041.719
 966  1900.193
 967  1795.77
 968  1686.663
 969  1597.237
 970  1545.613
 971  1575.06
 972  1599.02
 973  1609.957
 974  1614.179
 975  1858.906
 976  1956.287
 977  2080.071
 978  1966.286
 979  1814.742
 980  1538.192
 981  1386.373
 982  1376.965
 983  1507.768
 984  1503.821
 985  1567.989
 986  1617.809
 987  1561.607
 988  1594.159
 989  1492.136
 990  1544.962
 991  1653.032
 992  1845.013
 993  2039.784
 994  2000.948
 995  1759.334
 996  1672.359
 997  1610.99
 998  1741.155
 999  1792.725
1000  1777.726
1001  1736.042
1002  1793.305
1003  1744.04
1004  1809.819
1005  1633.617
1006  1608.604
1007  1456.887
1008  1501.589
1009  1616.792
1010  1847.457
1011  1735.243
1012  1718.2
1013  1598.3
1014  1716.253
1015  1703.151
1016  1798.332
1017  1881.998
1018  1916.76
1019  1875.237
1020  1903.33
1021  1857.751
1022  1812.135
1023  1822.729
