# Input file       =  1198330917.113058_cleaned.dat
# Candidate        =  PSR_0332+5434
# Telescope        =  AR
# Epoch_topo       =  58113.571019827061
# Epoch_bary       =  N/A
# T_sample         =  0.002
# Data Folded      =  7143424
# Data Avg         =  0.711819965360311
# Data StdDev      =  6.87012725320889 
# Profile Bins     =  512
# Profile Avg      =  9931.00220418852 
# Profile StdDev   =  811.489706359332 
# Reduced chi-sqr  =  0.807
# Prob(Noise)      <  1   (~0.0 sigma)
# P_topo (ms)      =  714.550981984733  +/- 5.64e-05
# P'_topo (s/s)    =  -0                +/- 3.06e-11
# P''_topo (s/s^2) =  0                 +/- 1.39e-14
# P_bary (ms)      =  N/A
# P'_bary (s/s)    =  N/A
# P''_bary (s/s^2) =  N/A
# P_orb (s)        =  N/A
# asin(i)/c (s)    =  N/A
# eccentricity     =  N/A
# w (rad)          =  N/A
# T_peri           =  N/A
######################################################
   0  9701.396
   1  9912.043
   2  9803.717
   3  9497.07
   4  10062.43
   5  11047.44
   6  11134.06
   7  11216.26
   8  10818.18
   9  10497.93
  10  9982.669
  11  9575.609
  12  9583.809
  13  10240.99
  14  10425.99
  15  10106.11
  16  10194.21
  17  10072.17
  18  9856.083
  19  10653.83
  20  10609.92
  21  10499.98
  22  10750.94
  23  10538.87
  24  9931.149
  25  10135.75
  26  10552.47
  27  9975.954
  28  9661.008
  29  11094.46
  30  11047.11
  31  10415.47
  32  10008.5
  33  9985.694
  34  9984.396
  35  10060.02
  36  10070.77
  37  10151.96
  38  10378.96
  39  10444.48
  40  10843.68
  41  9776.572
  42  9346.416
  43  9908.117
  44  9492.1
  45  9843.612
  46  10537.18
  47  10758.87
  48  10993.74
  49  10575.09
  50  9939.305
  51  9559.986
  52  9589.467
  53  9495.77
  54  10407.84
  55  11074.74
  56  10346.91
  57  10268.13
  58  10731.36
  59  10532.21
  60  10468.87
  61  10616.45
  62  10294.61
  63  10631.63
  64  10844.86
  65  10873.76
  66  10430.71
  67  10139.05
  68  10212.58
  69  10590.46
  70  10223.35
  71  10429.11
  72  10550.04
  73  10400.08
  74  9841.89
  75  9595.763
  76  9744.378
  77  9390.781
  78  9675.604
  79  10337.37
  80  10374.21
  81  10193.65
  82  10101.23
  83  10200.24
  84  10264.2
  85  9977.04
  86  10269.14
  87  10680.3
  88  11175.11
  89  10926.91
  90  11229.4
  91  10809.74
  92  9938.089
  93  9834.523
  94  9896.412
  95  9652.046
  96  10391.11
  97  10414.34
  98  9942.558
  99  9222.406
 100  8750.628
 101  9384.959
 102  9413.541
 103  9704.983
 104  10456.28
 105  10448.15
 106  10222.08
 107  9974.264
 108  9390.598
 109  9551.578
 110  9587.641
 111  10292.42
 112  10605.74
 113  10270.6
 114  9929.22
 115  9658.506
 116  9339.797
 117  9819.261
 118  9595.965
 119  9644.725
 120  9958.566
 121  10162.23
 122  10102.82
 123  9666.29
 124  9862.723
 125  9555.861
 126  9533.623
 127  9992.2
 128  10064.34
 129  10484.5
 130  10311.18
 131  10399.44
 132  9679.146
 133  9272.984
 134  9968.278
 135  10284.01
 136  9938.446
 137  10017.79
 138  10039.97
 139  9988.837
 140  9669.155
 141  9711.492
 142  9314.556
 143  9359.644
 144  9739.1
 145  10078.67
 146  10570.89
 147  10724.58
 148  10017.15
 149  9739.866
 150  10067.75
 151  9956.397
 152  9439.87
 153  9905.18
 154  10503.55
 155  10835.46
 156  9982.924
 157  9892.027
 158  9704.819
 159  9818.521
 160  9295.938
 161  9650.457
 162  9909.963
 163  10343.14
 164  10433.48
 165  9789.233
 166  9207.397
 167  9183.235
 168  9454.989
 169  10368.94
 170  10359.64
 171  10018.55
 172  10426.86
 173  10140.39
 174  9522.896
 175  9231.097
 176  9560.187
 177  9472.223
 178  10089.92
 179  10124.98
 180  10009.44
 181  10114.52
 182  10092.46
 183  10005.75
 184  9814.82
 185  9238.44
 186  9476.518
 187  10052.71
 188  9784.509
 189  9580.272
 190  9260.462
 191  8982.577
 192  8869.146
 193  9211.377
 194  10065.74
 195  9706.751
 196  9508.645
 197  9613.986
 198  9837.549
 199  9552.48
 200  9976.946
 201  9637.521
 202  9737.088
 203  10041.04
 204  9999.295
 205  10145.75
 206  9998.121
 207  10331.07
 208  9914.892
 209  10100.89
 210  10456.44
 211  10772.24
 212  10466.87
 213  9855.261
 214  9637.756
 215  9218.38
 216  9101.722
 217  8899.697
 218  10157.71
 219  10795.46
 220  10744.24
 221  10259.98
 222  10147.84
 223  10184.67
 224  9945.364
 225  10261.2
 226  9960.241
 227  9270.465
 228  10211.21
 229  10326.67
 230  10459.17
 231  9989.047
 232  9627.096
 233  10035.08
 234  9656.888
 235  10110.38
 236  10201.72
 237  9861.259
 238  9832.643
 239  9852.544
 240  9898.146
 241  9631.553
 242  9084.432
 243  8751.258
 244  9630.203
 245  9355.48
 246  8953.319
 247  9360.324
 248  8987.36
 249  9205.106
 250  9499.1
 251  9219.962
 252  9612.669
 253  9347.372
 254  9590.591
 255  9444.286
 256  9864.966
 257  9522.103
 258  9274.256
 259  9487.874
 260  9549.004
 261  9867.894
 262  9327.039
 263  9648.023
 264  9948.65
 265  9771.922
 266  9626.24
 267  8735.164
 268  9624.646
 269  10483.28
 270  10673.57
 271  9931.866
 272  10143.65
 273  10305.09
 274  9438.63
 275  9428.938
 276  10274.82
 277  10461.67
 278  9901.938
 279  9533.454
 280  9788.463
 281  9216.821
 282  9273.565
 283  9883.252
 284  10319.64
 285  10338.07
 286  9806.905
 287  9232.695
 288  8871.508
 289  9719.629
 290  9896.016
 291  9645.106
 292  9415.056
 293  9369.126
 294  9606.165
 295  9669.418
 296  9435.067
 297  9314.873
 298  9673.199
 299  9187.088
 300  8606.807
 301  8964.084
 302  9788.065
 303  10385.85
 304  10527.44
 305  10195.8
 306  9401.194
 307  8823.727
 308  9440.984
 309  9792.434
 310  9687.188
 311  10127.12
 312  10937.58
 313  10268.19
 314  9884.424
 315  9549.881
 316  9650.909
 317  9209.472
 318  9423.975
 319  10280.3
 320  10042.18
 321  9313.865
 322  9153.719
 323  9604.728
 324  8897.612
 325  9349.075
 326  9592.113
 327  9748.374
 328  9502.819
 329  9408.003
 330  9246.607
 331  9506.776
 332  9041.332
 333  8804.47
 334  9048.551
 335  9691.328
 336  9505.601
 337  9311.224
 338  9225.907
 339  9052.528
 340  9677.808
 341  10332.15
 342  10547.13
 343  10469.84
 344  10411.81
 345  9627.304
 346  9676.007
 347  10216.3
 348  10214.7
 349  9835.074
 350  10370.33
 351  10495.95
 352  11128.95
 353  10917.86
 354  10450.27
 355  10565.31
 356  10011.37
 357  9528.459
 358  9415.4
 359  9631.891
 360  10043.07
 361  10091.42
 362  9612.883
 363  8935.653
 364  8607.452
 365  8825.191
 366  9385.309
 367  10063.81
 368  10100.95
 369  10226.98
 370  10065.51
 371  9621.288
 372  8898.311
 373  8693.65
 374  9803.253
 375  10314.1
 376  10985.24
 377  10514.48
 378  9774.905
 379  9293.646
 380  9888.381
 381  9859.464
 382  9392.799
 383  8998.82
 384  9655.321
 385  9603.007
 386  9492.471
 387  9116.563
 388  8854.353
 389  9209.406
 390  9357.646
 391  9826.675
 392  9849.951
 393  9776.551
 394  9781.608
 395  9835.58
 396  8886.413
 397  9286.004
 398  9717.665
 399  9413.433
 400  9186.666
 401  9373.425
 402  9711.788
 403  9826.559
 404  9818.375
 405  9839.78
 406  9915.172
 407  9733.084
 408  10663.99
 409  10948.21
 410  10635.07
 411  10076.39
 412  10657.38
 413  10365.12
 414  10382.63
 415  11430.57
 416  11957.95
 417  11553.11
 418  11573.2
 419  11275.21
 420  10825.78
 421  10300.91
 422  10055.98
 423  9587.595
 424  9469.477
 425  9953.475
 426  10434.83
 427  9957.488
 428  9302.142
 429  9430.318
 430  9458.305
 431  9855.684
 432  10362.93
 433  9782.769
 434  10949.93
 435  10439.64
 436  10628.42
 437  10299.81
 438  10089.98
 439  9966.725
 440  10055.42
 441  10027.65
 442  10109.83
 443  10299.4
 444  10884.18
 445  10791.86
 446  10443.24
 447  10335.15
 448  10089.52
 449  10064.81
 450  9929.38
 451  10352.96
 452  10693.88
 453  10643.29
 454  10142.92
 455  9435.498
 456  9353.881
 457  9870.781
 458  10566.35
 459  10622.74
 460  9728.229
 461  9861.926
 462  10015.3
 463  9984.137
 464  9312.651
 465  9562.291
 466  10409.39
 467  10189.78
 468  9938.209
 469  9957.061
 470  10068.7
 471  9981.314
 472  9514
 473  9092.253
 474  9496.317
 475  9904.57
 476  9370.19
 477  10213.73
 478  9714.451
 479  9684.643
 480  10024
 481  9953.435
 482  9921.517
 483  9698.791
 484  10385.36
 485  10010.86
 486  9721.146
 487  9368.493
 488  9744.251
 489  9976.114
 490  10298.82
 491  10004.05
 492  10170.45
 493  10456.59
 494  10445.62
 495  10259.49
 496  9844.375
 497  10002.39
 498  9659.229
 499  9418.479
 500  10162.52
 501  10233.61
 502  9892.766
 503  9837.622
 504  10409.44
 505  10129.91
 506  9676.935
 507  9437.913
 508  9946.689
 509  10279.71
 510  10029.97
 511  9867.704
