# Input file       =  1198604022.114768_cleaned.dat
# Candidate        =  PSR_0332+5434
# Telescope        =  AR
# Epoch_topo       =  58116.731957346856
# Epoch_bary       =  N/A
# T_sample         =  0.002
# Data Folded      =  7340032
# Data Avg         =  0.215981151826522
# Data StdDev      =  5.47812712940709 
# Profile Bins     =  1024
# Profile Avg      =  1547.63246095904 
# Profile StdDev   =  463.800385113834 
# Reduced chi-sqr  =  0.376
# Prob(Noise)      <  1   (~0.0 sigma)
# P_topo (ms)      =  714.553813888299  +/- 0.000935
# P'_topo (s/s)    =  -0                +/- 4.94e-10
# P''_topo (s/s^2) =  0                 +/- 2.18e-13
# P_bary (ms)      =  N/A
# P'_bary (s/s)    =  N/A
# P''_bary (s/s^2) =  N/A
# P_orb (s)        =  N/A
# asin(i)/c (s)    =  N/A
# eccentricity     =  N/A
# w (rad)          =  N/A
# T_peri           =  N/A
######################################################
   0  1515.767
   1  1542.584
   2  1562.833
   3  1486.271
   4  1461.495
   5  1384.876
   6  1569.823
   7  1627.493
   8  1804.995
   9  1743.15
  10  1616.895
  11  1563.474
  12  1582.736
  13  1731.754
  14  1631.889
  15  1542.524
  16  1557.79
  17  1446.798
  18  1401.471
  19  1349.8
  20  1582.16
  21  1652.446
  22  1734.067
  23  1673.72
  24  1580.177
  25  1498.168
  26  1600.299
  27  1686.614
  28  1698.996
  29  1666.378
  30  1633.411
  31  1574.025
  32  1519.23
  33  1587.36
  34  1715.758
  35  1713.238
  36  1678.559
  37  1674.417
  38  1661.583
  39  1575.292
  40  1637.703
  41  1686.213
  42  1705.49
  43  1699.311
  44  1726.234
  45  1712.911
  46  1678.839
  47  1568.586
  48  1510.492
  49  1455.439
  50  1550.172
  51  1646.135
  52  1651.931
  53  1699.907
  54  1713.636
  55  1727.368
  56  1879.216
  57  1824.726
  58  1745.229
  59  1648.415
  60  1667.089
  61  1620.137
  62  1492.74
  63  1418.336
  64  1408.403
  65  1434.899
  66  1502.48
  67  1534.297
  68  1518.97
  69  1521.443
  70  1466.755
  71  1434.332
  72  1353.781
  73  1409.022
  74  1446.828
  75  1543.672
  76  1412.889
  77  1293.267
  78  1256.357
  79  1315.539
  80  1442.341
  81  1623.319
  82  1705.043
  83  1810.026
  84  1851.199
  85  1829.218
  86  1767.975
  87  1634.805
  88  1608.345
  89  1491.986
  90  1478.782
  91  1349.738
  92  1293.468
  93  1313.842
  94  1418.618
  95  1514.297
  96  1581.271
  97  1642.755
  98  1578.22
  99  1580.389
 100  1456.761
 101  1484.727
 102  1524.506
 103  1517.383
 104  1386.422
 105  1402.562
 106  1384.226
 107  1366.339
 108  1394.775
 109  1384.415
 110  1335.547
 111  1287.639
 112  1356.157
 113  1380.375
 114  1389.973
 115  1363.515
 116  1443.215
 117  1396.849
 118  1442.781
 119  1388.586
 120  1415.087
 121  1358.08
 122  1343.35
 123  1450.473
 124  1456.187
 125  1355.04
 126  1395.632
 127  1490.161
 128  1632.326
 129  1613.445
 130  1620.077
 131  1595.196
 132  1540.707
 133  1418.41
 134  1369.367
 135  1493.659
 136  1605.109
 137  1694.658
 138  1714.853
 139  1640.911
 140  1626.456
 141  1570.269
 142  1573.913
 143  1513.086
 144  1517.965
 145  1615.143
 146  1760.137
 147  1763.891
 148  1779.199
 149  1706.152
 150  1766.479
 151  1693.322
 152  1823.536
 153  1708.909
 154  1702.272
 155  1673.533
 156  1777.133
 157  1844.023
 158  1810.397
 159  1709.165
 160  1702.106
 161  1623.17
 162  1550.878
 163  1506.902
 164  1545.678
 165  1444.851
 166  1450.529
 167  1570.397
 168  1668.274
 169  1570.602
 170  1427.429
 171  1417.988
 172  1544.825
 173  1511.652
 174  1525.43
 175  1436.304
 176  1496.829
 177  1432.408
 178  1371.492
 179  1458.273
 180  1536.356
 181  1638.755
 182  1603.091
 183  1673.668
 184  1639.353
 185  1559.698
 186  1408.166
 187  1424.029
 188  1494.004
 189  1548.161
 190  1559.752
 191  1508.439
 192  1385.52
 193  1304.421
 194  1410.02
 195  1460.307
 196  1475.66
 197  1566.643
 198  1728.934
 199  1840.559
 200  1768.26
 201  1720.139
 202  1698.032
 203  1745.439
 204  1626.08
 205  1540.687
 206  1494.528
 207  1519.826
 208  1519.535
 209  1477.51
 210  1424.662
 211  1373.665
 212  1419.778
 213  1558.667
 214  1477.091
 215  1459.677
 216  1498.576
 217  1687.449
 218  1709.42
 219  1769.907
 220  1653.986
 221  1644.805
 222  1552.136
 223  1666.478
 224  1670.266
 225  1613.363
 226  1621.683
 227  1610.267
 228  1604.899
 229  1311.722
 230  1342.366
 231  1301.434
 232  1415.323
 233  1373.616
 234  1385.526
 235  1437.776
 236  1572.293
 237  1702.165
 238  1729.67
 239  1505.066
 240  1409.378
 241  1376.715
 242  1368.046
 243  1286.624
 244  1301.85
 245  1413.218
 246  1453.645
 247  1609.715
 248  1657.422
 249  1684.767
 250  1458.496
 251  1494.805
 252  1555.449
 253  1604.585
 254  1533.679
 255  1531.539
 256  1597.845
 257  1622.053
 258  1639.513
 259  1682.041
 260  1813.883
 261  1790.885
 262  1731.055
 263  1660.232
 264  1659.801
 265  1605.308
 266  1543.592
 267  1390.64
 268  1404.512
 269  1416.876
 270  1510.25
 271  1418.312
 272  1377.215
 273  1423.047
 274  1431.075
 275  1401.683
 276  1295.873
 277  1327.41
 278  1377.36
 279  1395.745
 280  1373.215
 281  1460.137
 282  1387.353
 283  1343.421
 284  1446.849
 285  1650.484
 286  1742.342
 287  1787.247
 288  1773.426
 289  1730.524
 290  1686.752
 291  1624.974
 292  1723.415
 293  1737.675
 294  1640.537
 295  1485.815
 296  1490.386
 297  1464.278
 298  1394.968
 299  1462.153
 300  1457.8
 301  1560.079
 302  1633.171
 303  1648.744
 304  1572.211
 305  1571.22
 306  1609.335
 307  1626.993
 308  1671.021
 309  1775.742
 310  1707.563
 311  1525.504
 312  1416.009
 313  1480.655
 314  1441.295
 315  1303.568
 316  1260.048
 317  1254.403
 318  1277.586
 319  1388.275
 320  1391.754
 321  1383.594
 322  1419.433
 323  1597.956
 324  1638.798
 325  1564.902
 326  1504.539
 327  1544.072
 328  1561.774
 329  1569.539
 330  1646.158
 331  1682.889
 332  1755.456
 333  1806.526
 334  1803.005
 335  1684.011
 336  1545.4
 337  1615.468
 338  1703.352
 339  1689.055
 340  1677.568
 341  1626.283
 342  1781.788
 343  1781.752
 344  1745.118
 345  1593.795
 346  1554.84
 347  1440.314
 348  1421.466
 349  1417.066
 350  1427.105
 351  1392.502
 352  1509.565
 353  1520.674
 354  1491.785
 355  1303.437
 356  1253.983
 357  1337.593
 358  1366.703
 359  1397.535
 360  1397.07
 361  1479.881
 362  1547.069
 363  1477.629
 364  1383.991
 365  1266.417
 366  1200.145
 367  1268.773
 368  1177.262
 369  1302.369
 370  1392.826
 371  1532.062
 372  1477.107
 373  1453.684
 374  1382.507
 375  1518.138
 376  1367.351
 377  1271.906
 378  1234.749
 379  1398.358
 380  1516.015
 381  1364.504
 382  1443.16
 383  1492.706
 384  1687.791
 385  1670.097
 386  1568.256
 387  1544.756
 388  1492.704
 389  1448.372
 390  1483.523
 391  1538.274
 392  1521.499
 393  1403.299
 394  1385.131
 395  1379.273
 396  1395.299
 397  1572.901
 398  1628.683
 399  1689.752
 400  1565.864
 401  1529.039
 402  1432.788
 403  1238.712
 404  1181.065
 405  1230.782
 406  1353.695
 407  1251.966
 408  1300.055
 409  1291.948
 410  1415.46
 411  1330.458
 412  1387.33
 413  1312.809
 414  1440.998
 415  1371.666
 416  1451.111
 417  1426.59
 418  1561.829
 419  1494.352
 420  1557.658
 421  1486.521
 422  1445.512
 423  1400.926
 424  1387.945
 425  1421.237
 426  1459.377
 427  1506.158
 428  1565.999
 429  1641.587
 430  1725.05
 431  1866.97
 432  1846.628
 433  1875.225
 434  1667.39
 435  1610.393
 436  1498.304
 437  1393.98
 438  1309.962
 439  1238.084
 440  1271.224
 441  1294.512
 442  1247.74
 443  1235.357
 444  1211.851
 445  1344.107
 446  1315.309
 447  1393.906
 448  1417.541
 449  1641.785
 450  1635.363
 451  1636.478
 452  1650.385
 453  1654.967
 454  1472.631
 455  1390.721
 456  1473.107
 457  1645.178
 458  1656.587
 459  1712.486
 460  1707.906
 461  1656.241
 462  1673.162
 463  1766.208
 464  1696.184
 465  1566.212
 466  1595.553
 467  1742.471
 468  1658.295
 469  1595.518
 470  1515.308
 471  1529.837
 472  1545.694
 473  1606.101
 474  1690.8
 475  1549.537
 476  1400.896
 477  1383.521
 478  1505.695
 479  1592.22
 480  1624.359
 481  1500.865
 482  1402.207
 483  1437.118
 484  1613.185
 485  1689.608
 486  1598.363
 487  1534.101
 488  1533.11
 489  1477.464
 490  1404.575
 491  1390.414
 492  1573.148
 493  1666.648
 494  1667.332
 495  1560.141
 496  1552.536
 497  1590.31
 498  1625.116
 499  1580.63
 500  1647.747
 501  1567.493
 502  1543.033
 503  1578.837
 504  1626.347
 505  1663.955
 506  1506.349
 507  1471.711
 508  1392.276
 509  1470.883
 510  1419.259
 511  1485.282
 512  1532.606
 513  1654.67
 514  1628.258
 515  1480.828
 516  1497.692
 517  1529.71
 518  1650.688
 519  1713.186
 520  1671.098
 521  1620.967
 522  1586.842
 523  1630.643
 524  1661.739
 525  1648.279
 526  1653.355
 527  1587.285
 528  1590.732
 529  1558.417
 530  1501.332
 531  1555.423
 532  1582.737
 533  1653.283
 534  1632.148
 535  1623.614
 536  1483.938
 537  1488.976
 538  1515.762
 539  1579.056
 540  1586.366
 541  1654.369
 542  1596.983
 543  1506.65
 544  1419.211
 545  1499.281
 546  1495.958
 547  1481.508
 548  1433.271
 549  1415.747
 550  1292.372
 551  1184.03
 552  1262.528
 553  1448.627
 554  1509.941
 555  1500.809
 556  1629.386
 557  1861.934
 558  1871.938
 559  1739.024
 560  1693.701
 561  1636.531
 562  1677.25
 563  1561.287
 564  1505.781
 565  1316.513
 566  1234.891
 567  1356.231
 568  1452.007
 569  1574.599
 570  1543.313
 571  1563.039
 572  1695.213
 573  1760.677
 574  1830.234
 575  1863.599
 576  1743.317
 577  1549.431
 578  1376.564
 579  1326.05
 580  1316.745
 581  1435.34
 582  1472.852
 583  1457.773
 584  1356.275
 585  1368.265
 586  1546.238
 587  1633.686
 588  1755.796
 589  1859.357
 590  1900.792
 591  1862.925
 592  1747.97
 593  1630.429
 594  1455.333
 595  1332.859
 596  1354.823
 597  1421.324
 598  1507.638
 599  1531.101
 600  1614.611
 601  1643.777
 602  1627.745
 603  1605.296
 604  1674.992
 605  1755.962
 606  1725.547
 607  1756.96
 608  1678.577
 609  1658.865
 610  1650.377
 611  1679.599
 612  1597.555
 613  1575.139
 614  1582.253
 615  1611.324
 616  1669.785
 617  1770.775
 618  1891.024
 619  1989.543
 620  2062.474
 621  2200.259
 622  2177.288
 623  2181.908
 624  2202.652
 625  2194.944
 626  2100.34
 627  1848.181
 628  1753.706
 629  1826.954
 630  1860.592
 631  1847.85
 632  1695.008
 633  1645.838
 634  1606.949
 635  1608.771
 636  1591.132
 637  1547.214
 638  1506.547
 639  1484.09
 640  1472.803
 641  1437.183
 642  1560.382
 643  1730.27
 644  1815.176
 645  1696.463
 646  1713.083
 647  1658.682
 648  1694.116
 649  1512.775
 650  1448.377
 651  1370.354
 652  1334.626
 653  1365.915
 654  1491.607
 655  1604.738
 656  1628.039
 657  1592.154
 658  1642.802
 659  1634.415
 660  1665.884
 661  1678.587
 662  1561.367
 663  1384.387
 664  1374.915
 665  1313.393
 666  1374.763
 667  1350.449
 668  1406.857
 669  1440.031
 670  1493.789
 671  1649.049
 672  1716.854
 673  1661.504
 674  1556.943
 675  1480.252
 676  1458.792
 677  1517.596
 678  1575.214
 679  1552.682
 680  1410.341
 681  1377.553
 682  1471.519
 683  1584.381
 684  1559.284
 685  1554.578
 686  1542.793
 687  1475.494
 688  1444.424
 689  1552.48
 690  1543.131
 691  1562.763
 692  1520.119
 693  1527.599
 694  1512.315
 695  1492.336
 696  1423.755
 697  1357.635
 698  1412.935
 699  1581.658
 700  1611.535
 701  1534.679
 702  1594.018
 703  1784.489
 704  1838.939
 705  1831.197
 706  1746.471
 707  1617.792
 708  1530.29
 709  1497.262
 710  1612.003
 711  1610.277
 712  1553.823
 713  1588.564
 714  1549.611
 715  1499.474
 716  1463.717
 717  1579.591
 718  1693.9
 719  1654.978
 720  1569.381
 721  1588.252
 722  1632.048
 723  1660.81
 724  1699.758
 725  1540.215
 726  1505.909
 727  1498.488
 728  1567.256
 729  1566.886
 730  1499.321
 731  1477.558
 732  1444.842
 733  1531.05
 734  1614.8
 735  1676.34
 736  1766.735
 737  1708.25
 738  1663.866
 739  1588.434
 740  1531.922
 741  1604.618
 742  1677.158
 743  1760.829
 744  1776.826
 745  1785.38
 746  1838.489
 747  1808.173
 748  1908.958
 749  2001.661
 750  1933.478
 751  1792.824
 752  1639.985
 753  1604.601
 754  1626.187
 755  1545.896
 756  1417.96
 757  1361.184
 758  1375.894
 759  1535.38
 760  1621.922
 761  1590.105
 762  1500.562
 763  1326.172
 764  1366.368
 765  1355.925
 766  1441.928
 767  1422.068
 768  1370.728
 769  1393.746
 770  1342.366
 771  1336.773
 772  1152.722
 773  1159.031
 774  1262.741
 775  1382.555
 776  1375.805
 777  1246.297
 778  1216.045
 779  1373.516
 780  1402.644
 781  1411.377
 782  1361.798
 783  1301.859
 784  1229.84
 785  1182.961
 786  1435.761
 787  1427.957
 788  1447.073
 789  1519.669
 790  1652.369
 791  1710.623
 792  1596.453
 793  1589.806
 794  1528.026
 795  1433.64
 796  1352.751
 797  1348.151
 798  1375.035
 799  1347.561
 800  1397.035
 801  1494.754
 802  1510.322
 803  1574.088
 804  1491.294
 805  1447.6
 806  1374.839
 807  1543.067
 808  1562.707
 809  1477.627
 810  1429.795
 811  1415.05
 812  1378.258
 813  1341.068
 814  1350.285
 815  1345.906
 816  1407.33
 817  1353.462
 818  1245.236
 819  1185.06
 820  1194.712
 821  1301.502
 822  1328.381
 823  1373.74
 824  1420.601
 825  1479.746
 826  1430.549
 827  1411.259
 828  1387.573
 829  1482.443
 830  1481.481
 831  1490.917
 832  1392.448
 833  1280.196
 834  1359.099
 835  1432.946
 836  1526.762
 837  1543.747
 838  1600.247
 839  1536.307
 840  1493.512
 841  1493.557
 842  1387.162
 843  1432.202
 844  1412.265
 845  1599.011
 846  1684.958
 847  1657.218
 848  1721.817
 849  1664.21
 850  1685.933
 851  1557.736
 852  1579.277
 853  1686.267
 854  1652.853
 855  1657.501
 856  1559.974
 857  1588.664
 858  1593.284
 859  1626.213
 860  1680.126
 861  1658.499
 862  1673.041
 863  1588.49
 864  1533.923
 865  1509.208
 866  1491.861
 867  1420.046
 868  1414.18
 869  1474.066
 870  1574.42
 871  1515.836
 872  1572.947
 873  1552.38
 874  1564.787
 875  1525.854
 876  1583.13
 877  1668.234
 878  1633.442
 879  1475.077
 880  1310.136
 881  1295.25
 882  1213.987
 883  1154.728
 884  1238.839
 885  1372.314
 886  1471.697
 887  1458.761
 888  1533.351
 889  1589.381
 890  1658.442
 891  1703.311
 892  1709.33
 893  1557.036
 894  1486.445
 895  1428.013
 896  1558.501
 897  1468.03
 898  1396.179
 899  1373.111
 900  1420.519
 901  1438.555
 902  1404.013
 903  1536.464
 904  1676.993
 905  1892.486
 906  1951.254
 907  1917.375
 908  1897.023
 909  1892.831
 910  1948.876
 911  1906.006
 912  1792.464
 913  1782.88
 914  1768.761
 915  1774.291
 916  1754.134
 917  1800.507
 918  1855.638
 919  1979.096
 920  1992.393
 921  1892.671
 922  1733.131
 923  1676.487
 924  1664.897
 925  1743.344
 926  1720.998
 927  1671.82
 928  1628.601
 929  1525.782
 930  1596.158
 931  1481.573
 932  1418.751
 933  1362.765
 934  1432.088
 935  1546.675
 936  1523.208
 937  1583.351
 938  1594.766
 939  1579.109
 940  1637.094
 941  1645.412
 942  1704.518
 943  1649.671
 944  1573.141
 945  1510.926
 946  1534.3
 947  1551.603
 948  1592.588
 949  1621.882
 950  1582.015
 951  1484.684
 952  1413.356
 953  1501.583
 954  1649.514
 955  1618.377
 956  1543.212
 957  1464.253
 958  1543.339
 959  1549.125
 960  1540.053
 961  1548.155
 962  1527.893
 963  1536.814
 964  1532.853
 965  1586.828
 966  1498.862
 967  1351.004
 968  1349.045
 969  1360.97
 970  1513.016
 971  1585.372
 972  1550.172
 973  1516.209
 974  1563.988
 975  1644.932
 976  1624.273
 977  1636.011
 978  1637.085
 979  1503.807
 980  1314.177
 981  1274.442
 982  1336.398
 983  1534.667
 984  1566.502
 985  1631.193
 986  1554.305
 987  1582.532
 988  1602.653
 989  1631.329
 990  1594.147
 991  1552.108
 992  1615.352
 993  1599.077
 994  1612.976
 995  1612.208
 996  1608.337
 997  1534.83
 998  1569.44
 999  1501.332
1000  1464.396
1001  1467.288
1002  1521.345
1003  1527.202
1004  1533.356
1005  1523.603
1006  1495.719
1007  1436.96
1008  1558.261
1009  1621.163
1010  1753.81
1011  1612.515
1012  1523.045
1013  1397.271
1014  1633.73
1015  1728.285
1016  1893.89
1017  1760.568
1018  1812.377
1019  1728.114
1020  1698.707
1021  1613.399
1022  1578.18
1023  1569.201
