# Input file       =  1198188690.116503_cleaned.dat
# Candidate        =  PSR_0332+5434
# Telescope        =  AR
# Epoch_topo       =  58111.924874033597
# Epoch_bary       =  N/A
# T_sample         =  0.002
# Data Folded      =  7340032
# Data Avg         =  0.156147858089493
# Data StdDev      =  4.69597052145801 
# Profile Bins     =  1024
# Profile Avg      =  1119.28600488189 
# Profile StdDev   =  397.579845243782 
# Reduced chi-sqr  =  0.506
# Prob(Noise)      <  1   (~0.0 sigma)
# P_topo (ms)      =  714.549853406222  +/- 0.00127
# P'_topo (s/s)    =  -0                +/- 6.68e-10
# P''_topo (s/s^2) =  0                 +/- 2.95e-13
# P_bary (ms)      =  N/A
# P'_bary (s/s)    =  N/A
# P''_bary (s/s^2) =  N/A
# P_orb (s)        =  N/A
# asin(i)/c (s)    =  N/A
# eccentricity     =  N/A
# w (rad)          =  N/A
# T_peri           =  N/A
######################################################
   0  1022.433
   1  1233.826
   2  1325.212
   3  1229.987
   4  1192.764
   5  1174.232
   6  1270.259
   7  1163.346
   8  1121.574
   9  1180.41
  10  1193.062
  11  1125.037
  12  1167.308
  13  1245.738
  14  1283.561
  15  1221.241
  16  1249.073
  17  1163.356
  18  1145.313
  19  1116.081
  20  1345.735
  21  1381.743
  22  1367.848
  23  1366.02
  24  1212.315
  25  1134.394
  26  1226.541
  27  1467.047
  28  1503.295
  29  1329.774
  30  1238.023
  31  1325.961
  32  1202.22
  33  1106.797
  34  1186.054
  35  1329.502
  36  1325.481
  37  1233.343
  38  1235.235
  39  1231.208
  40  1028.087
  41  1117.986
  42  1198.362
  43  1275.427
  44  1142.724
  45  1052.51
  46  962.4732
  47  960.398
  48  965.4495
  49  1018.932
  50  979.4323
  51  951.1319
  52  1076.528
  53  1136.71
  54  1130.093
  55  1177.206
  56  1149.105
  57  1138.414
  58  1244.122
  59  1247.826
  60  1303.62
  61  1354.95
  62  1379.014
  63  1463.118
  64  1394.505
  65  1374.654
  66  1257.786
  67  1112.052
  68  1053.661
  69  1061.218
  70  1047.238
  71  1127.312
  72  1058.216
  73  1038.844
  74  1083.086
  75  1045.03
  76  1197.326
  77  1210.892
  78  1336.888
  79  1418.303
  80  1348.161
  81  1243.027
  82  1095.562
  83  1118.919
  84  1155.014
  85  1133.137
  86  1232.57
  87  1322.171
  88  1304.478
  89  1175.481
  90  1097.3
  91  1125.756
  92  1204.484
  93  1332.514
  94  1246.713
  95  1130.451
  96  1132.626
  97  1090.499
  98  1242.236
  99  1203.76
 100  1227.448
 101  1090.849
 102  1066.522
 103  1135.789
 104  1088.895
 105  988.558
 106  1031.241
 107  1083.023
 108  1213.936
 109  1148.743
 110  1107.449
 111  1057.06
 112  1129.485
 113  1208.027
 114  1227.514
 115  1176.996
 116  1112.211
 117  1340.619
 118  1443.332
 119  1446.854
 120  1302.587
 121  1301.878
 122  1251.458
 123  1202.86
 124  1160.227
 125  1225.205
 126  1132.487
 127  1155.576
 128  1159.196
 129  1079.646
 130  1079.301
 131  1210.422
 132  1246.723
 133  1260.633
 134  1142.61
 135  1045.018
 136  988.9255
 137  1013.801
 138  1281.719
 139  1386.299
 140  1361.144
 141  1316.137
 142  1390.444
 143  1310.251
 144  1194.69
 145  1068.537
 146  1271.169
 147  1343.914
 148  1332.982
 149  1284.548
 150  1195.026
 151  1199.186
 152  1172.722
 153  1147.036
 154  1140.049
 155  1193.044
 156  1349.051
 157  1405.548
 158  1437.473
 159  1271.581
 160  1201.872
 161  1103.282
 162  1114.354
 163  1090.584
 164  1121.522
 165  1250.454
 166  1327.039
 167  1352.459
 168  1307.721
 169  1091.876
 170  984.0236
 171  833.1866
 172  735.7431
 173  882.0858
 174  926.4752
 175  878.0663
 176  901.1089
 177  1000.765
 178  1106.994
 179  1073.029
 180  1122.584
 181  1085.358
 182  1220.621
 183  1162.621
 184  1275.59
 185  1072.665
 186  1073.582
 187  1117.352
 188  1030.13
 189  951.05
 190  919.2219
 191  1085.726
 192  1164.553
 193  1122.535
 194  1127.89
 195  1082.025
 196  706.0893
 197  646.5233
 198  782.2089
 199  1086.822
 200  1089.374
 201  1119.7
 202  1122.65
 203  1049.392
 204  945.7442
 205  897.7305
 206  1036.453
 207  1073.601
 208  1207.14
 209  1293.299
 210  1194.469
 211  1117.881
 212  1084.818
 213  1256.099
 214  1260.693
 215  977.8682
 216  898.0694
 217  993.8754
 218  1034.118
 219  990.8709
 220  922.849
 221  1003.987
 222  1143.109
 223  1287.14
 224  1402.467
 225  1372.354
 226  1175.332
 227  1123.918
 228  1084.783
 229  983.2829
 230  938.9049
 231  819.6945
 232  891.5196
 233  820.1316
 234  810.5117
 235  804.529
 236  867.8481
 237  1069.482
 238  1185.139
 239  1145.199
 240  962.9733
 241  871.3779
 242  884.0728
 243  913.8118
 244  1104.186
 245  1159.449
 246  1253.538
 247  1098.605
 248  1073.742
 249  1067.854
 250  1043.323
 251  1082.408
 252  1178.698
 253  1129.396
 254  1087.956
 255  972.4453
 256  1175.926
 257  1166.794
 258  1134.689
 259  1065.008
 260  1171.545
 261  1116.76
 262  1213.091
 263  1265.567
 264  1334.653
 265  1301.583
 266  1148.156
 267  1110.709
 268  1095.271
 269  954.5645
 270  944.7175
 271  900.7556
 272  1041.579
 273  1182.934
 274  1176.13
 275  1162.275
 276  1093.127
 277  1166.39
 278  1234.279
 279  1279.751
 280  1236.29
 281  1255.14
 282  1206.488
 283  1117.623
 284  1101.383
 285  1155.895
 286  1262.235
 287  1216.359
 288  1192.206
 289  1186.389
 290  1080.56
 291  1039.469
 292  1074.573
 293  999.7076
 294  1055.456
 295  1052.568
 296  1045.119
 297  1027.823
 298  984.8351
 299  1088.703
 300  1124.616
 301  1009.496
 302  979.9311
 303  1051.005
 304  1088.675
 305  1205.368
 306  1322.099
 307  1385.767
 308  1208.215
 309  1026.667
 310  1034.721
 311  1073.803
 312  1037.425
 313  1000.802
 314  1095.104
 315  1112.187
 316  1149.76
 317  1141.591
 318  1189.787
 319  1281.623
 320  1207.196
 321  1204.289
 322  1175.182
 323  1260.331
 324  1335.698
 325  1160.258
 326  1011.936
 327  935.6877
 328  1025.795
 329  1112.417
 330  1238.79
 331  1207.967
 332  1213.335
 333  974.1198
 334  947.5241
 335  985.705
 336  1105.08
 337  1106.798
 338  1036.194
 339  812.9263
 340  693.0121
 341  623.5949
 342  733.9702
 343  798.4945
 344  966.9413
 345  1142.523
 346  1158.938
 347  975.6102
 348  894.5124
 349  868.4542
 350  881.5423
 351  905.9538
 352  840.095
 353  723.217
 354  809.3494
 355  953.7866
 356  1162.827
 357  1116.786
 358  1137.436
 359  954.5673
 360  828.3163
 361  749.0463
 362  851.8765
 363  880.2573
 364  985.455
 365  1104.62
 366  1238.638
 367  1199.636
 368  1023.478
 369  996.7056
 370  1002.379
 371  1101.741
 372  969.2341
 373  854.7006
 374  880.7339
 375  1040.61
 376  1097.02
 377  956.2512
 378  972.7111
 379  945.7558
 380  996.7607
 381  1046.747
 382  959.1851
 383  1045.818
 384  1022.623
 385  1064.856
 386  1026.21
 387  998.5281
 388  1037.57
 389  1073.995
 390  937.1744
 391  1135.389
 392  1187.224
 393  1223.496
 394  1005.037
 395  887.6876
 396  1002.408
 397  1087.31
 398  1139.964
 399  1200.257
 400  1152.176
 401  972.3903
 402  995.1926
 403  1026.224
 404  1091.049
 405  1044.951
 406  1150.873
 407  1370.963
 408  1531.197
 409  1400.991
 410  1340.482
 411  1158.401
 412  1257.622
 413  1398.773
 414  1405.846
 415  1383.425
 416  1269.986
 417  1191.059
 418  1205.025
 419  1067.503
 420  1142.546
 421  1247.653
 422  1282.984
 423  1354.828
 424  1365.104
 425  1358.579
 426  1223.149
 427  1128.012
 428  1155.867
 429  1290.629
 430  1200.699
 431  1231.337
 432  1225.27
 433  1224.292
 434  1209.956
 435  1140.583
 436  1172.788
 437  1072.068
 438  1015.599
 439  953.2694
 440  934.3879
 441  883.9532
 442  1202.963
 443  1270.757
 444  1261.341
 445  1172.437
 446  1155.836
 447  1201.638
 448  1108.951
 449  948.5942
 450  1048.017
 451  1136.573
 452  1222.755
 453  1236.487
 454  979.8508
 455  997.9053
 456  1008.005
 457  1141.788
 458  1017.831
 459  983.885
 460  1072.26
 461  1200.756
 462  1038.442
 463  1024.605
 464  1026.336
 465  978.2902
 466  729.2676
 467  645.0833
 468  642.9297
 469  785.2429
 470  907.0146
 471  1084.803
 472  1265.505
 473  1207.609
 474  1292.255
 475  1339.096
 476  1195.214
 477  931.3447
 478  784.2872
 479  786.8594
 480  906.4036
 481  908.5923
 482  1066.953
 483  1052.669
 484  1040.976
 485  1082.69
 486  1076.153
 487  1176.673
 488  1102.617
 489  1034.399
 490  979.8207
 491  968.9991
 492  985.3868
 493  1027.158
 494  1113.557
 495  1101.329
 496  1083.026
 497  848.879
 498  1049.562
 499  1177.943
 500  1168.798
 501  933.2797
 502  944.4913
 503  928.9824
 504  1071.911
 505  970.9097
 506  1176.307
 507  1166.214
 508  1105.162
 509  1005.758
 510  902.5285
 511  1049.52
 512  1082.513
 513  1052.5
 514  956.4393
 515  1016.8
 516  1027.709
 517  1036.658
 518  894.7702
 519  858.2432
 520  928.1153
 521  954.4492
 522  1039.969
 523  1092.835
 524  1098.826
 525  1148.338
 526  1162.112
 527  1019.251
 528  848.9944
 529  835.9181
 530  896.4501
 531  934.4851
 532  913.7495
 533  979.905
 534  969.8252
 535  1038.834
 536  1113.152
 537  1074.009
 538  936.742
 539  1071.563
 540  1092.289
 541  1101.457
 542  1036.926
 543  1132.501
 544  1074.514
 545  1074.359
 546  1033.63
 547  1120.063
 548  1043.148
 549  1090.336
 550  1141.961
 551  1106.07
 552  941.3826
 553  955.7996
 554  1049.582
 555  1153.999
 556  1180.139
 557  994.8702
 558  911.685
 559  914.5037
 560  995.2322
 561  1074.256
 562  1028.245
 563  1103.236
 564  1189.226
 565  1219.666
 566  1248.949
 567  1111.641
 568  1158.88
 569  1115.317
 570  1100.063
 571  1215.52
 572  1390.14
 573  1455.823
 574  1411.689
 575  1253.792
 576  1042.485
 577  975.5731
 578  827.6311
 579  948.4656
 580  1017.138
 581  1235.877
 582  1333.299
 583  1191.405
 584  1045.235
 585  1063.171
 586  1159.616
 587  1301.711
 588  1279
 589  1175.961
 590  1153.406
 591  1000.42
 592  1124.863
 593  1156.011
 594  1202.643
 595  1164.403
 596  1100.685
 597  1132.576
 598  1061.708
 599  1090.718
 600  1166.09
 601  1187.412
 602  1041.356
 603  983.1381
 604  1149.589
 605  1137.887
 606  1170.781
 607  1262.305
 608  1385.097
 609  1331.007
 610  1171.737
 611  1232.467
 612  1125.315
 613  1089.72
 614  1218.123
 615  1380.43
 616  1427.668
 617  1462.608
 618  1351.896
 619  1312.623
 620  1325.579
 621  1552.724
 622  1753.797
 623  1805.267
 624  1762.166
 625  1739.208
 626  1619.445
 627  1547.137
 628  1506.481
 629  1527.047
 630  1376.876
 631  1231.653
 632  1187.631
 633  1124.848
 634  1017.861
 635  969.9092
 636  986.7481
 637  1097.447
 638  1126.838
 639  1109.064
 640  899.314
 641  922.1202
 642  962.5683
 643  1035.243
 644  1129.9
 645  1058.229
 646  1094.408
 647  1047.051
 648  1048.788
 649  1071.901
 650  1190.118
 651  1317.787
 652  1282.901
 653  1152.33
 654  1064.894
 655  992.9164
 656  948.9683
 657  942.6966
 658  1001.141
 659  1021.933
 660  997.2576
 661  832.1093
 662  803.8127
 663  837.5114
 664  939.0859
 665  1052.898
 666  1108.827
 667  1023.669
 668  1104.036
 669  960.307
 670  989.2904
 671  991.2255
 672  1134.85
 673  1133.771
 674  1074.23
 675  878.7809
 676  816.8267
 677  726.5427
 678  875.2064
 679  969.3247
 680  952.5293
 681  936.4326
 682  916.7043
 683  782.2718
 684  756.6136
 685  850.1291
 686  1110.565
 687  1239.292
 688  1194.201
 689  1150.705
 690  1162.02
 691  1040.648
 692  1082.364
 693  987.6826
 694  1057.01
 695  1114.592
 696  1076.072
 697  1049.076
 698  1027.499
 699  1042.618
 700  1128.952
 701  1066.76
 702  1073.903
 703  1085.282
 704  1092.163
 705  1079.819
 706  1170.532
 707  1239.989
 708  1226.171
 709  1135.351
 710  1007.249
 711  1014.629
 712  980.5339
 713  1133.658
 714  1342.956
 715  1385.521
 716  1197.596
 717  1037.699
 718  953.1859
 719  1023.677
 720  1025.901
 721  1060.797
 722  970.5883
 723  942.1448
 724  1001.152
 725  1131.791
 726  1110.898
 727  1074.565
 728  1023.305
 729  1040.043
 730  920.9288
 731  885.9324
 732  838.3683
 733  913.9567
 734  790.4977
 735  903.042
 736  948.1054
 737  988.9739
 738  1034.632
 739  1011.592
 740  1035.436
 741  984.6497
 742  913.4655
 743  972.6155
 744  1090.21
 745  1260.248
 746  1266.072
 747  1144.672
 748  979.9903
 749  858.5685
 750  935.4228
 751  1171.292
 752  1345.866
 753  1164.351
 754  1107.951
 755  1001.181
 756  1091.933
 757  1135.234
 758  1250.012
 759  1352.145
 760  1288.002
 761  1183.331
 762  1064.879
 763  913.1797
 764  1004.691
 765  1065.15
 766  1088.388
 767  1091.399
 768  1146.205
 769  1075.978
 770  972.8304
 771  888.9805
 772  945.9128
 773  1001.19
 774  939.8209
 775  990.8997
 776  1081.979
 777  1173.948
 778  1143.483
 779  1014.519
 780  955.4186
 781  927.5573
 782  952.5184
 783  1004.309
 784  994.4811
 785  1045.737
 786  1141.934
 787  1233.683
 788  1220.344
 789  1170.651
 790  1131.143
 791  1115.514
 792  1080.485
 793  958.919
 794  1014.566
 795  955.427
 796  943.6233
 797  980.7866
 798  954.0299
 799  898.6595
 800  788.4001
 801  901.3743
 802  1011.725
 803  1128.515
 804  1059.5
 805  1197.36
 806  1169.724
 807  1235.88
 808  1123.97
 809  1042.056
 810  953.1088
 811  944.075
 812  893.0714
 813  983.2408
 814  984.3271
 815  1061.061
 816  1061.174
 817  923.7449
 818  951.8809
 819  860.8134
 820  790.8852
 821  808.8963
 822  882.8937
 823  889.6757
 824  888.7874
 825  1081.033
 826  1174.758
 827  1043.716
 828  864.9609
 829  998.184
 830  1120.855
 831  1118.86
 832  1079.558
 833  1011.597
 834  1148.03
 835  1211.146
 836  1227.856
 837  1192.649
 838  1124.799
 839  1100.334
 840  1139.471
 841  1055.067
 842  1097.966
 843  989.5913
 844  1026.029
 845  1093.598
 846  1316.139
 847  1374.59
 848  1335.661
 849  1232.077
 850  1306.638
 851  1373.397
 852  1400.976
 853  1439.487
 854  1403.663
 855  1252.363
 856  1161.92
 857  960.5634
 858  1046.118
 859  1216.591
 860  1167.359
 861  1251.753
 862  1246.251
 863  1432.665
 864  1493.812
 865  1340.921
 866  1288.021
 867  1254.803
 868  1247.672
 869  1190.158
 870  1131.666
 871  1168.341
 872  1215.357
 873  1244.247
 874  1211.884
 875  1209.19
 876  1144.34
 877  1148.325
 878  1117.937
 879  1205.363
 880  1220.453
 881  1180.864
 882  1199.892
 883  1326.474
 884  1179.567
 885  1069.136
 886  1060.015
 887  1251.55
 888  1270.343
 889  1171.217
 890  997.8937
 891  1050.921
 892  1071.328
 893  1221.071
 894  1238.66
 895  1123.618
 896  1101.704
 897  1103.604
 898  1132.677
 899  1101.582
 900  1097.433
 901  1253.221
 902  1336.758
 903  1271.453
 904  1150.815
 905  1052.435
 906  968.2261
 907  1080.881
 908  1088.743
 909  1149.863
 910  1125.68
 911  1144.042
 912  1252.174
 913  1279.561
 914  1274.539
 915  1201.29
 916  1108.271
 917  1020.063
 918  1104.236
 919  1057.968
 920  1171.103
 921  1182.799
 922  1236.101
 923  1237.351
 924  1203.94
 925  1065.06
 926  1130.147
 927  1223.337
 928  1343.465
 929  1338.245
 930  1162.884
 931  1202.413
 932  1209.321
 933  1299.39
 934  1353.257
 935  1089.124
 936  1085.328
 937  1041.988
 938  1255.576
 939  1205.8
 940  1240.088
 941  1183.708
 942  1363.889
 943  1381.273
 944  1381.621
 945  1367.323
 946  1368.564
 947  1371.48
 948  1259.645
 949  1099.149
 950  1041.841
 951  1028.283
 952  1262.427
 953  1392.232
 954  1400.358
 955  1175.856
 956  995.0501
 957  908.472
 958  1108.459
 959  1256.83
 960  1359.488
 961  1329.608
 962  1189.26
 963  1105.189
 964  1186.047
 965  1128.246
 966  1154.925
 967  1183.239
 968  1345.804
 969  1371.868
 970  1268.198
 971  1229.765
 972  1256.887
 973  1289.719
 974  1282.041
 975  1304.685
 976  1242.462
 977  1311.622
 978  1359.421
 979  1553.845
 980  1527.402
 981  1376.396
 982  1241.568
 983  1141.217
 984  987.6443
 985  944.1653
 986  1019.84
 987  1192.921
 988  1248.741
 989  1167.141
 990  1102.77
 991  1042.057
 992  1106.689
 993  1305.088
 994  1347.87
 995  1374.642
 996  1292.839
 997  1263.904
 998  1209.11
 999  1025.267
1000  977.4425
1001  1050.067
1002  1051.372
1003  1029.021
1004  1064.772
1005  1034.623
1006  1036.571
1007  1129.649
1008  1264.156
1009  1274.912
1010  1273.935
1011  1335.078
1012  1447.65
1013  1334.486
1014  1256.152
1015  1199.572
1016  1200.156
1017  1239.157
1018  1260.04
1019  1171.692
1020  1079.543
1021  987.5292
1022  1033.377
1023  1083.7
