# Input file       =  1198158626.106533_cleaned.dat
# Candidate        =  PSR_0332+5434
# Telescope        =  AR
# Epoch_topo       =  58111.576910955242
# Epoch_bary       =  N/A
# T_sample         =  0.002
# Data Folded      =  7471104
# Data Avg         =  0.182447717612887
# Data StdDev      =  7.09331029257156 
# Profile Bins     =  1024
# Profile Avg      =  1331.226387818   
# Profile StdDev   =  605.886632477805 
# Reduced chi-sqr  =  0.463
# Prob(Noise)      <  1   (~0.0 sigma)
# P_topo (ms)      =  714.549156213518  +/- 3.58e-05
# P'_topo (s/s)    =  -0                +/- 1.85e-11
# P''_topo (s/s^2) =  0                 +/- 8.04e-15
# P_bary (ms)      =  N/A
# P'_bary (s/s)    =  N/A
# P''_bary (s/s^2) =  N/A
# P_orb (s)        =  N/A
# asin(i)/c (s)    =  N/A
# eccentricity     =  N/A
# w (rad)          =  N/A
# T_peri           =  N/A
######################################################
   0  1421.692
   1  1257.08
   2  1147.006
   3  1117.794
   4  1249.777
   5  1516.817
   6  1473.64
   7  1494.13
   8  1340.593
   9  1477.794
  10  1423.957
  11  1488.007
  12  1430.255
  13  1301.305
  14  1461.513
  15  1604.847
  16  1773.129
  17  1794.816
  18  1662.849
  19  1808.921
  20  1797.117
  21  1694.693
  22  1560.606
  23  1675.485
  24  1682.1
  25  1738.96
  26  1570.126
  27  1712.969
  28  1786.686
  29  1550.166
  30  1507.889
  31  1310.633
  32  1307.704
  33  1562.124
  34  1440.887
  35  1508.795
  36  1308.37
  37  1245.74
  38  1269.173
  39  1114.004
  40  1144.465
  41  1165.302
  42  1320.716
  43  1334.006
  44  1274.479
  45  1300.946
  46  1512.093
  47  1433.593
  48  1376.405
  49  1527.856
  50  1522.664
  51  1422.075
  52  1396.456
  53  1346.119
  54  1380.693
  55  1476.229
  56  1583.958
  57  1628.449
  58  1343.525
  59  1041.854
  60  1255.155
  61  1207.238
  62  1486.596
  63  1603.15
  64  1593.918
  65  1623.562
  66  1441.237
  67  1442.976
  68  1496.124
  69  1226.554
  70  1362.788
  71  1254.552
  72  1325.013
  73  1310.179
  74  1244.348
  75  1191.059
  76  1514.323
  77  1443.266
  78  1511.792
  79  1274.258
  80  1338.118
  81  1477.418
  82  1377.253
  83  1392.83
  84  1477.976
  85  1613.498
  86  1617.98
  87  1462.12
  88  1339.841
  89  1410.619
  90  1546.755
  91  1589.667
  92  1716.552
  93  1581.029
  94  1283.739
  95  1340.406
  96  1105.83
  97  1251.618
  98  1394.212
  99  1626.245
 100  1731.059
 101  1541.874
 102  1330.446
 103  1373.349
 104  1329.794
 105  1595.787
 106  1528.861
 107  1511.351
 108  1433.534
 109  1451.04
 110  1675.482
 111  1782.84
 112  1708.148
 113  1909.028
 114  1826.217
 115  1594.495
 116  1328.716
 117  1325.606
 118  1461.192
 119  1670.019
 120  1669.784
 121  1751.95
 122  1617.012
 123  1423.094
 124  1295.695
 125  1472.06
 126  1401.427
 127  1338.927
 128  1451.515
 129  1615.149
 130  1495.357
 131  1281.071
 132  1403.826
 133  1612.892
 134  1593.472
 135  1770.92
 136  1501.665
 137  1259.592
 138  1567.687
 139  1674.854
 140  1810.748
 141  1661.06
 142  1586.265
 143  1560.201
 144  1284.113
 145  1169.661
 146  1301.6
 147  1195.912
 148  1474.895
 149  1338.473
 150  1201.649
 151  1087.858
 152  1009.639
 153  1301.544
 154  1442.608
 155  1428.851
 156  1496.273
 157  1593.357
 158  1539.415
 159  1430.44
 160  1469.158
 161  1361.295
 162  1350.855
 163  1205.826
 164  1156.45
 165  974.3936
 166  768.2136
 167  751.2156
 168  867.7843
 169  864.8806
 170  1166.292
 171  1279.889
 172  1422.953
 173  1374.296
 174  1068.038
 175  1179.389
 176  1122.836
 177  1227.856
 178  1698.727
 179  1754.562
 180  1608.24
 181  1455.42
 182  1183.947
 183  1255.45
 184  1294.032
 185  1424.684
 186  1623.524
 187  1462.263
 188  1395.899
 189  1199.62
 190  1070.917
 191  1390.868
 192  1511.311
 193  1728.363
 194  1607.936
 195  1601.301
 196  1507.539
 197  1555.701
 198  1674.734
 199  1847.882
 200  1873.438
 201  1622.297
 202  1376.665
 203  1363.723
 204  1268.06
 205  1437.508
 206  1374.651
 207  1291.94
 208  1374.947
 209  1177.813
 210  1151.528
 211  1094.57
 212  1228.016
 213  1544.952
 214  1538.422
 215  1477.288
 216  1328.227
 217  1158.547
 218  1212.873
 219  1141.92
 220  1164.311
 221  1401.378
 222  1225.244
 223  1206.174
 224  1142.729
 225  977.5639
 226  1057.498
 227  1200.041
 228  1615.896
 229  1708.677
 230  1607.881
 231  1385.373
 232  1230.63
 233  1111.166
 234  1302.03
 235  1467.51
 236  1427.933
 237  1248.293
 238  1309.194
 239  1371.295
 240  1425.321
 241  1289.121
 242  1388.804
 243  1585.788
 244  1530.327
 245  1378.977
 246  1305.24
 247  1165.044
 248  1349.608
 249  1259.23
 250  1345.862
 251  1184.426
 252  1063.411
 253  1232.455
 254  1289.138
 255  1072.373
 256  1200.211
 257  1158.627
 258  1546.626
 259  1442.235
 260  1388.426
 261  1520.861
 262  1594.867
 263  1723.022
 264  1768.259
 265  1550.534
 266  1340.26
 267  1234.843
 268  1108.191
 269  1131.758
 270  1002.699
 271  1080.72
 272  991.1178
 273  897.0842
 274  919.4114
 275  901.1552
 276  946.6885
 277  1076.597
 278  1201.458
 279  1322.682
 280  1174.454
 281  1105.385
 282  904.0067
 283  1018.264
 284  936.0035
 285  1158.622
 286  1313.8
 287  1098.176
 288  887.5762
 289  982.1567
 290  957.2389
 291  1276.889
 292  1158.35
 293  1295.51
 294  1321.559
 295  1295.106
 296  1351.219
 297  1129.623
 298  1154.448
 299  1394.743
 300  1313.935
 301  1416.416
 302  1215.334
 303  1203.391
 304  1213.308
 305  1151.485
 306  1240.721
 307  1153.3
 308  1152.38
 309  1115.667
 310  1168.019
 311  1085.627
 312  1061.484
 313  1199.37
 314  1171.081
 315  1118.404
 316  1182.7
 317  1126.04
 318  1338.643
 319  1282.138
 320  1451.768
 321  1463.815
 322  1173.419
 323  1220.35
 324  1206.255
 325  1351.005
 326  1571.011
 327  1389.349
 328  1515.615
 329  1469.727
 330  1254.464
 331  1251.473
 332  1009.598
 333  932.1388
 334  1262.773
 335  1244.436
 336  1521.698
 337  1232.677
 338  1223.794
 339  1192.006
 340  1187.896
 341  1216.93
 342  1420.49
 343  1400.748
 344  1497.822
 345  1404.17
 346  1306.188
 347  1197.608
 348  1314.639
 349  1450.916
 350  1648.094
 351  1608.543
 352  1503.56
 353  1487.448
 354  1330.287
 355  1339.295
 356  1453.088
 357  1338.263
 358  1354.172
 359  1291.024
 360  1086.367
 361  1244.729
 362  1061.353
 363  1392.954
 364  1463.319
 365  1379.403
 366  1361.706
 367  1162.852
 368  1047.83
 369  1144.854
 370  901.5413
 371  1161.552
 372  1316.448
 373  1450.368
 374  1435.418
 375  1266.48
 376  1147.801
 377  1244.135
 378  1191.15
 379  1387.064
 380  1319.715
 381  1220.038
 382  1166.619
 383  1266.58
 384  1392.915
 385  1287.067
 386  1335.672
 387  1438.411
 388  1555.593
 389  1351.287
 390  1492.369
 391  1763.817
 392  1858.821
 393  1780.83
 394  1708.687
 395  1467.044
 396  1565.399
 397  1336.332
 398  1311.211
 399  1320.112
 400  1189.586
 401  1474.018
 402  1324.35
 403  1081.258
 404  1113.356
 405  1118.634
 406  1615.039
 407  1563.414
 408  1472.593
 409  1451.162
 410  1366.014
 411  1468.749
 412  1590.795
 413  1480.543
 414  1621.296
 415  1742.593
 416  1811.526
 417  1737.679
 418  1648.747
 419  1608.237
 420  1738.032
 421  1652.963
 422  1680.729
 423  1473.721
 424  1379.718
 425  1218.409
 426  1335.819
 427  1561.572
 428  1871.24
 429  1973.76
 430  1837.7
 431  1755.69
 432  1471.723
 433  1488.472
 434  1507.394
 435  1542.497
 436  1562.911
 437  1390.178
 438  1168.125
 439  1406.771
 440  1283.933
 441  1405.29
 442  1415.634
 443  1370.755
 444  1555.883
 445  1520.062
 446  1476.442
 447  1499.208
 448  1433.387
 449  1656.236
 450  1585.995
 451  1580.835
 452  1611.343
 453  1525.376
 454  1568.45
 455  1669.258
 456  1545.923
 457  1519.127
 458  1516.614
 459  1633.757
 460  1548.838
 461  1435.877
 462  1224.988
 463  1235.146
 464  1264.092
 465  1316.174
 466  1233.752
 467  1056.994
 468  868.7311
 469  928.3853
 470  854.4824
 471  916.8245
 472  945.0742
 473  1052.194
 474  1273.299
 475  1219.497
 476  1289.686
 477  1331.322
 478  1478.605
 479  1715.315
 480  1337.472
 481  1203.833
 482  1433.824
 483  1359.395
 484  1528.503
 485  1401.162
 486  1441.852
 487  1352.709
 488  1192.797
 489  1226.451
 490  1094.495
 491  1051.399
 492  1367.096
 493  1536.779
 494  1728.859
 495  1638.847
 496  1592.003
 497  1553.259
 498  1558.858
 499  1394.044
 500  1279.367
 501  1215.208
 502  992.024
 503  926.1577
 504  1010.484
 505  1145.783
 506  1289.199
 507  1286.06
 508  1384.263
 509  1503.44
 510  1401.726
 511  1393.009
 512  1325.906
 513  1240.241
 514  1471.741
 515  1415.285
 516  1533.288
 517  1627.436
 518  1360.868
 519  1390.444
 520  1399.422
 521  1581.711
 522  1787.545
 523  1558.545
 524  1403.073
 525  1375.824
 526  1190.194
 527  1469.018
 528  1404.8
 529  1707.32
 530  1665.404
 531  1571.742
 532  1296.493
 533  913.5031
 534  776.5233
 535  1201.459
 536  1514.34
 537  1643.171
 538  1546.324
 539  1536.698
 540  1374.394
 541  1336.763
 542  1398.862
 543  1426.057
 544  1595.861
 545  1529.343
 546  1545.756
 547  1441.891
 548  1351.245
 549  1453.852
 550  1355.686
 551  1319.791
 552  1359.032
 553  1348.647
 554  1550.039
 555  1489.294
 556  1573.997
 557  1752.178
 558  1634.489
 559  1533.497
 560  1476.943
 561  1304.171
 562  1332.082
 563  1163.298
 564  1116.839
 565  1299.733
 566  1343.295
 567  1314.807
 568  1225.94
 569  1328.547
 570  1558.875
 571  1535.298
 572  1472.933
 573  1375.965
 574  1370.105
 575  1435.194
 576  1362.622
 577  1174.043
 578  1023.894
 579  1204.156
 580  1393.407
 581  1461.698
 582  1332.016
 583  1346.69
 584  1599.037
 585  1629.841
 586  1488.384
 587  1401.991
 588  1066.34
 589  958.202
 590  1015.649
 591  1079.119
 592  1280.929
 593  1108.679
 594  1369.517
 595  1336.515
 596  1151.309
 597  1379.041
 598  1273.537
 599  1378.593
 600  1475.594
 601  1426.699
 602  1342.409
 603  1146.74
 604  1000.646
 605  1076.272
 606  1227.866
 607  1258.645
 608  1339.246
 609  1266.115
 610  1320.698
 611  1287.993
 612  1435.194
 613  1631.809
 614  1725.495
 615  1610.656
 616  1622.991
 617  1596.903
 618  1519.132
 619  1504.502
 620  1553.951
 621  1793.994
 622  2050.688
 623  1960.093
 624  1969.739
 625  1762.434
 626  1500.167
 627  1649.207
 628  1596.652
 629  1804.168
 630  1854.638
 631  1603.817
 632  1502.968
 633  1445.12
 634  1401.25
 635  1597.446
 636  1510.403
 637  1607.642
 638  1424.859
 639  1292.787
 640  1218.607
 641  1145.357
 642  1215.678
 643  1524.524
 644  1552.899
 645  1443.063
 646  1335.832
 647  1264.218
 648  1499.9
 649  1755.735
 650  1791.668
 651  1694.838
 652  1508.048
 653  1239.861
 654  1129.147
 655  997.3334
 656  1156.993
 657  1385.845
 658  1513.553
 659  1632.794
 660  1463.098
 661  1230.927
 662  1289.258
 663  1391.654
 664  1710.082
 665  1925.51
 666  1807.986
 667  1722.193
 668  1418.663
 669  1112.598
 670  1275.271
 671  1053.14
 672  1193.531
 673  1248.023
 674  1309.398
 675  1307.743
 676  981.8035
 677  1220.582
 678  1359.29
 679  1360.571
 680  1475.685
 681  1446.776
 682  1435.166
 683  1338.662
 684  1279.441
 685  1380.775
 686  1566.377
 687  1702.277
 688  1616.243
 689  1469.151
 690  1140.561
 691  1056.465
 692  976.0061
 693  1027.769
 694  1252.825
 695  1330.877
 696  1179.483
 697  1364.065
 698  1265.126
 699  1351.843
 700  1407.883
 701  1410.676
 702  1384.521
 703  1172.747
 704  1140.425
 705  1370.248
 706  1479.327
 707  1843.877
 708  1909.537
 709  1760.526
 710  1720.966
 711  1485.606
 712  1330.167
 713  1313.678
 714  1231.06
 715  1426.374
 716  1437.349
 717  1274.769
 718  1258.573
 719  1277.693
 720  1484.589
 721  1615.675
 722  1720.362
 723  1711.188
 724  1502.313
 725  1295.708
 726  1194.828
 727  986.3677
 728  943.5596
 729  1129.03
 730  1139.918
 731  1131.493
 732  1186.171
 733  1075.421
 734  1051.855
 735  1129.23
 736  1125.094
 737  1128.1
 738  1042.206
 739  1040.862
 740  1078.324
 741  962.0162
 742  1083.123
 743  1116.286
 744  1044.289
 745  1145.518
 746  1227.95
 747  1307.968
 748  1392.102
 749  1246.773
 750  1562.26
 751  1562.588
 752  1387.982
 753  1078.457
 754  893.6456
 755  956.7979
 756  1090.44
 757  999.1959
 758  1068.668
 759  1023.337
 760  935.3993
 761  886.6507
 762  798.7554
 763  1010.98
 764  1133.629
 765  1212.369
 766  1348.306
 767  1338.858
 768  1247.875
 769  1051.649
 770  1117.811
 771  1108.505
 772  1310
 773  1512.276
 774  1517.618
 775  1421.319
 776  1091.008
 777  1276.522
 778  1430.049
 779  1463.124
 780  1786.782
 781  1622.046
 782  1705.051
 783  1616.225
 784  1458.512
 785  1532.107
 786  1424.814
 787  1524.475
 788  1544.331
 789  1447.116
 790  1390.857
 791  1218.891
 792  1144.284
 793  1526.986
 794  1621.495
 795  1474.955
 796  1225.237
 797  1293.953
 798  1337.72
 799  1329.752
 800  1169.136
 801  1411.63
 802  1373.407
 803  1349.663
 804  1198.771
 805  1138.549
 806  1146.21
 807  1355.412
 808  1278.98
 809  1161.29
 810  891.1609
 811  929.1192
 812  1078.756
 813  1194.127
 814  1326.845
 815  1542.882
 816  1336.976
 817  1118.857
 818  1130.863
 819  1170.163
 820  1206.542
 821  1166.736
 822  1063.574
 823  1133.091
 824  998.732
 825  971.1038
 826  962.9395
 827  913.274
 828  1101.884
 829  1107.217
 830  1243.12
 831  1349.693
 832  1334.917
 833  1221.779
 834  1137.637
 835  913.9491
 836  1008.772
 837  1159.458
 838  1222.576
 839  1143.755
 840  977.8428
 841  905.6025
 842  1083.669
 843  986.3423
 844  964.6697
 845  1014.311
 846  1098.681
 847  1229.868
 848  1219.999
 849  1209.079
 850  1367.469
 851  1265.134
 852  1275.532
 853  1257.443
 854  1024.88
 855  1238.55
 856  1154.986
 857  1323.191
 858  1268.648
 859  1157.211
 860  1151.383
 861  1295.29
 862  1204.856
 863  1374.717
 864  1397.557
 865  1225.134
 866  1176.027
 867  929.2595
 868  921.1864
 869  1151.411
 870  1148.367
 871  1456.214
 872  1276.816
 873  1441.723
 874  1405.952
 875  1446.552
 876  1223.008
 877  1108.916
 878  1082.173
 879  1273.308
 880  1336.49
 881  1280.757
 882  1071.649
 883  1029.459
 884  859.4763
 885  1049.547
 886  1043.958
 887  1087.229
 888  1162.69
 889  1065.994
 890  1094.605
 891  1141.023
 892  1228.119
 893  1445.767
 894  1336.725
 895  1338.484
 896  1132.824
 897  917.8018
 898  997.596
 899  1051.101
 900  1069.072
 901  1353.899
 902  1490.81
 903  1338.812
 904  1147.571
 905  723.3721
 906  775.7933
 907  740.1766
 908  991.2414
 909  1067.955
 910  1067.182
 911  943.1469
 912  1086.944
 913  1227.709
 914  1497.663
 915  1477.491
 916  1549.404
 917  1641.527
 918  1388.37
 919  1270.518
 920  1374.775
 921  1386.605
 922  1440.871
 923  1538.87
 924  1480.564
 925  1261.549
 926  1030.148
 927  836.5827
 928  1223.657
 929  1249.035
 930  1302.125
 931  1218.83
 932  1077.868
 933  1266.454
 934  1182.482
 935  1339.527
 936  1461.1
 937  1370.152
 938  1130.218
 939  949.5759
 940  667.4889
 941  771.1917
 942  724.7602
 943  1001.288
 944  1254.743
 945  1234.297
 946  1262.852
 947  1329.527
 948  1190.201
 949  1173.35
 950  1211.451
 951  1474.154
 952  1617.058
 953  1498.926
 954  1188.339
 955  1074.259
 956  954.001
 957  1205.269
 958  1319.005
 959  1609.823
 960  1684.431
 961  1588.827
 962  1363.05
 963  1347.056
 964  1345.108
 965  1479.856
 966  1451.16
 967  1233.598
 968  1146.61
 969  1021.476
 970  935.0241
 971  1070.843
 972  1147.373
 973  1270.47
 974  1251.849
 975  1209.036
 976  1227.672
 977  1164.531
 978  1226.792
 979  1499.797
 980  1507.989
 981  1490.268
 982  1255.699
 983  955.793
 984  1017.291
 985  1146.675
 986  1411.632
 987  1363.375
 988  1320.248
 989  1151.863
 990  1092.312
 991  838.122
 992  796.6248
 993  1027.366
 994  1171.901
 995  1096.236
 996  1079.291
 997  914.591
 998  897.765
 999  585.357
1000  839.6033
1001  982.8855
1002  1077.845
1003  1093.417
1004  1109.854
1005  960.0507
1006  1050.756
1007  979.5712
1008  1265.414
1009  1366.106
1010  1286.547
1011  1201.918
1012  1072.796
1013  1076.776
1014  1296.651
1015  1037.891
1016  1082.138
1017  1150.47
1018  1283.359
1019  1563.378
1020  1394.213
1021  1514.154
1022  1343.185
1023  1309.332
