# Input file       =  1198087057.13162_cleaned.dat
# Candidate        =  PSR_0332+5434
# Telescope        =  AR
# Epoch_topo       =  58110.748566338196
# Epoch_bary       =  N/A
# T_sample         =  0.002
# Data Folded      =  7340032
# Data Avg         =  0.204082046629212
# Data StdDev      =  4.13768793966869 
# Profile Bins     =  1024
# Profile Avg      =  1462.85993651735 
# Profile StdDev   =  350.313385316946 
# Reduced chi-sqr  =  0.505
# Prob(Noise)      <  1   (~0.0 sigma)
# P_topo (ms)      =  714.548409576203  +/- 0.0027
# P'_topo (s/s)    =  -0                +/- 1.42e-09
# P''_topo (s/s^2) =  0                 +/- 6.28e-13
# P_bary (ms)      =  N/A
# P'_bary (s/s)    =  N/A
# P''_bary (s/s^2) =  N/A
# P_orb (s)        =  N/A
# asin(i)/c (s)    =  N/A
# eccentricity     =  N/A
# w (rad)          =  N/A
# T_peri           =  N/A
######################################################
   0  1576.037
   1  1601.694
   2  1537.726
   3  1396.468
   4  1366.782
   5  1392.234
   6  1383.519
   7  1373.201
   8  1354.072
   9  1249.136
  10  1238.714
  11  1232.391
  12  1355.867
  13  1418.886
  14  1495.619
  15  1534.628
  16  1462.057
  17  1382.228
  18  1276.6
  19  1220.334
  20  1248.88
  21  1330.56
  22  1373.563
  23  1434.787
  24  1307.537
  25  1318.013
  26  1293.704
  27  1254.532
  28  1217.702
  29  1302.518
  30  1372.773
  31  1353.387
  32  1358.376
  33  1407.397
  34  1431.984
  35  1346.084
  36  1282.589
  37  1258.533
  38  1240.092
  39  1357.136
  40  1403.627
  41  1318.869
  42  1252.696
  43  1232.283
  44  1294.083
  45  1285.289
  46  1243.366
  47  1156.486
  48  1054.098
  49  1033.93
  50  1127.284
  51  1209.349
  52  1191.183
  53  1158.625
  54  1219.926
  55  1192.24
  56  1174.738
  57  1290.767
  58  1509.584
  59  1494.552
  60  1302.603
  61  1248.792
  62  1254.926
  63  1289.705
  64  1287.693
  65  1318.667
  66  1282.227
  67  1389.678
  68  1539.32
  69  1519.8
  70  1294.711
  71  1339.788
  72  1507.119
  73  1572.347
  74  1487.926
  75  1365.221
  76  1338.362
  77  1338.059
  78  1390.019
  79  1425.131
  80  1443.207
  81  1481.186
  82  1527.679
  83  1495.815
  84  1515.639
  85  1531.701
  86  1540.475
  87  1603.798
  88  1499.466
  89  1467.346
  90  1368.381
  91  1332.53
  92  1389.02
  93  1472.797
  94  1572.375
  95  1532.437
  96  1486.811
  97  1461.195
  98  1407.107
  99  1352.946
 100  1295.206
 101  1338.918
 102  1415.534
 103  1415.444
 104  1419.869
 105  1478.735
 106  1531.17
 107  1511.19
 108  1511.984
 109  1507.951
 110  1537.177
 111  1562.272
 112  1535.826
 113  1425.638
 114  1340.86
 115  1423.647
 116  1421.331
 117  1452.665
 118  1423.478
 119  1300.839
 120  1257.209
 121  1293.806
 122  1349.787
 123  1430.083
 124  1370.546
 125  1568.292
 126  1671.606
 127  1658.071
 128  1539.103
 129  1390.778
 130  1386.756
 131  1359.842
 132  1338.959
 133  1287.327
 134  1295.406
 135  1275.483
 136  1389.073
 137  1437.561
 138  1437.413
 139  1457.435
 140  1486.827
 141  1622.155
 142  1533.32
 143  1559.055
 144  1382.326
 145  1370.182
 146  1438.852
 147  1448.863
 148  1385.625
 149  1309.782
 150  1362.08
 151  1371.704
 152  1382.66
 153  1442.435
 154  1451.217
 155  1465.996
 156  1480.734
 157  1489.26
 158  1382.675
 159  1301.399
 160  1288.519
 161  1334.463
 162  1296.249
 163  1224.627
 164  1085.916
 165  1176.089
 166  1230.239
 167  1395.712
 168  1462.889
 169  1499.773
 170  1403.937
 171  1224.354
 172  1297.337
 173  1462.268
 174  1532.157
 175  1594.419
 176  1655.776
 177  1647.187
 178  1556.115
 179  1454.175
 180  1510.696
 181  1489.44
 182  1494.626
 183  1432.767
 184  1390.742
 185  1330.405
 186  1286.438
 187  1404.461
 188  1554.844
 189  1604.232
 190  1592.958
 191  1552.817
 192  1443.276
 193  1453.171
 194  1448.929
 195  1449.123
 196  1403.189
 197  1278.04
 198  1332.977
 199  1270.783
 200  1288.541
 201  1311.633
 202  1303.565
 203  1255.704
 204  1261.087
 205  1154.617
 206  1233.976
 207  1306.506
 208  1360.318
 209  1433.187
 210  1421.929
 211  1533.874
 212  1532.998
 213  1503.417
 214  1538.601
 215  1470.994
 216  1336.188
 217  1318.652
 218  1361.564
 219  1508.027
 220  1522.311
 221  1551.118
 222  1558.402
 223  1507.672
 224  1458.638
 225  1442.178
 226  1410.847
 227  1519.495
 228  1495.854
 229  1535.914
 230  1563.283
 231  1579.693
 232  1614.875
 233  1588.305
 234  1571.378
 235  1641.341
 236  1701.417
 237  1731.906
 238  1568.633
 239  1523.906
 240  1466.406
 241  1482.198
 242  1409.477
 243  1459.915
 244  1478.902
 245  1542.302
 246  1492.055
 247  1446.404
 248  1358.369
 249  1390.101
 250  1369.843
 251  1449.663
 252  1345.239
 253  1361.036
 254  1444.877
 255  1516.92
 256  1479.465
 257  1476.27
 258  1498.832
 259  1518.603
 260  1517.75
 261  1560.385
 262  1462.475
 263  1408.891
 264  1345.113
 265  1434.523
 266  1389.773
 267  1413.651
 268  1354.204
 269  1411.932
 270  1396.718
 271  1438.131
 272  1450.318
 273  1464.519
 274  1437.925
 275  1338.828
 276  1434.126
 277  1559.445
 278  1554.052
 279  1511.742
 280  1503.669
 281  1549.998
 282  1497.83
 283  1450.759
 284  1592.468
 285  1582.188
 286  1542.254
 287  1497.5
 288  1475.427
 289  1476.02
 290  1580.059
 291  1556.338
 292  1486.475
 293  1351.757
 294  1335.051
 295  1438.28
 296  1445.009
 297  1446.174
 298  1459.397
 299  1498.542
 300  1599.693
 301  1546.262
 302  1597.109
 303  1505.434
 304  1501.808
 305  1500.98
 306  1335.894
 307  1245.696
 308  1340.702
 309  1421.685
 310  1395.567
 311  1357.193
 312  1426.298
 313  1412.457
 314  1423.116
 315  1451.412
 316  1559.714
 317  1589.893
 318  1600.431
 319  1587.729
 320  1517.599
 321  1484.754
 322  1468.362
 323  1473.109
 324  1499.203
 325  1518.632
 326  1512.018
 327  1494.449
 328  1462.085
 329  1554.539
 330  1616.744
 331  1495.271
 332  1428.52
 333  1391.006
 334  1474.839
 335  1428.099
 336  1550.073
 337  1674.382
 338  1671.173
 339  1443.641
 340  1389.288
 341  1452.346
 342  1471.98
 343  1529.245
 344  1630.914
 345  1729.977
 346  1647.281
 347  1658.305
 348  1633.015
 349  1536.6
 350  1393.086
 351  1498.553
 352  1703.066
 353  1699.415
 354  1577.023
 355  1581.919
 356  1572.202
 357  1617.835
 358  1611.379
 359  1536.304
 360  1480.244
 361  1465.68
 362  1668.415
 363  1642.35
 364  1490.347
 365  1511.789
 366  1535.071
 367  1561.648
 368  1498.344
 369  1580.465
 370  1675.699
 371  1607.332
 372  1478.275
 373  1525.61
 374  1551.758
 375  1661.18
 376  1719.713
 377  1691.347
 378  1616.809
 379  1596.992
 380  1670.172
 381  1701.123
 382  1613.415
 383  1670.409
 384  1607.434
 385  1499.375
 386  1469.186
 387  1488.757
 388  1490.398
 389  1472.331
 390  1532.956
 391  1596.525
 392  1528.236
 393  1514.178
 394  1468.476
 395  1468.51
 396  1414.085
 397  1503.227
 398  1495.787
 399  1492.013
 400  1443.505
 401  1467.981
 402  1513.016
 403  1439.77
 404  1381.054
 405  1372.918
 406  1339.135
 407  1195.316
 408  1242.76
 409  1427.697
 410  1560.111
 411  1517.689
 412  1487.835
 413  1477.836
 414  1622.164
 415  1582.698
 416  1643.643
 417  1576.955
 418  1530.329
 419  1458.461
 420  1445.441
 421  1463.896
 422  1459.25
 423  1505.038
 424  1575.597
 425  1504.559
 426  1431.708
 427  1359.267
 428  1375.081
 429  1429.777
 430  1523.833
 431  1580.034
 432  1627.316
 433  1655.578
 434  1710.796
 435  1580.108
 436  1512.312
 437  1437.805
 438  1435.861
 439  1528.825
 440  1602.827
 441  1453.641
 442  1335.236
 443  1403.043
 444  1504.457
 445  1534.323
 446  1489.911
 447  1474.775
 448  1509.902
 449  1491.85
 450  1476.096
 451  1437.895
 452  1417.464
 453  1497.993
 454  1453.796
 455  1450.304
 456  1392.672
 457  1321.116
 458  1351.015
 459  1394.266
 460  1380.127
 461  1321.443
 462  1192.676
 463  1148.589
 464  1288.635
 465  1420.154
 466  1390.265
 467  1344.526
 468  1278.869
 469  1345.732
 470  1410.458
 471  1389.139
 472  1412.927
 473  1411.656
 474  1469.68
 475  1420.391
 476  1348.721
 477  1379.907
 478  1267.78
 479  1131.868
 480  1034.418
 481  1143.711
 482  1144.409
 483  1203.449
 484  1202.486
 485  1360.702
 486  1445.543
 487  1411.454
 488  1355.107
 489  1293.173
 490  1286.946
 491  1249.113
 492  1263.076
 493  1370.303
 494  1482.327
 495  1523.394
 496  1463.125
 497  1460.705
 498  1426.881
 499  1512.414
 500  1397.188
 501  1465.192
 502  1444.299
 503  1529.46
 504  1502.589
 505  1461.68
 506  1346.249
 507  1297.005
 508  1396.994
 509  1426.558
 510  1398.387
 511  1408.833
 512  1468.204
 513  1511.85
 514  1486.538
 515  1479.129
 516  1419.163
 517  1469.959
 518  1494.116
 519  1559.433
 520  1472.254
 521  1417.887
 522  1341.358
 523  1358.878
 524  1458.533
 525  1472.746
 526  1467.667
 527  1348.825
 528  1268.465
 529  1185.646
 530  1119.871
 531  1306.319
 532  1402.614
 533  1503.247
 534  1504.546
 535  1466.594
 536  1413.668
 537  1356.929
 538  1377.265
 539  1477.367
 540  1483.685
 541  1470.063
 542  1409.588
 543  1339.567
 544  1284.313
 545  1377.849
 546  1447.577
 547  1503.39
 548  1374.023
 549  1362.619
 550  1453.993
 551  1565.431
 552  1612.061
 553  1542.049
 554  1507.218
 555  1450.638
 556  1358.67
 557  1397.559
 558  1504.012
 559  1621.517
 560  1591.382
 561  1608.118
 562  1474.735
 563  1359.843
 564  1359.558
 565  1290.872
 566  1404.124
 567  1496.963
 568  1667.37
 569  1618.272
 570  1501.902
 571  1408.527
 572  1368.168
 573  1364.889
 574  1467.414
 575  1512.237
 576  1524.353
 577  1442.587
 578  1430.627
 579  1445.843
 580  1510.321
 581  1534.697
 582  1576.467
 583  1590.553
 584  1588.843
 585  1537.274
 586  1429.743
 587  1389.488
 588  1488.591
 589  1480.731
 590  1522.959
 591  1430.136
 592  1358.428
 593  1359.106
 594  1441.652
 595  1438.669
 596  1413.391
 597  1396.889
 598  1459.605
 599  1388.815
 600  1402.661
 601  1450.285
 602  1524.311
 603  1447.861
 604  1430.44
 605  1364.871
 606  1372.174
 607  1408.9
 608  1488.235
 609  1554.126
 610  1604.242
 611  1500.422
 612  1594.025
 613  1749.88
 614  1747.29
 615  1625.387
 616  1535.565
 617  1598.776
 618  1749.626
 619  1946.86
 620  2125.724
 621  2064.721
 622  1996.038
 623  1889.639
 624  1931.583
 625  1960.412
 626  2096.103
 627  1960.333
 628  1912.651
 629  1804.413
 630  1730.204
 631  1691.524
 632  1513.228
 633  1552.328
 634  1538.467
 635  1526.52
 636  1426.092
 637  1411.095
 638  1520.965
 639  1560.105
 640  1624.547
 641  1813.523
 642  1831.474
 643  1653.716
 644  1565.995
 645  1694.953
 646  1767.095
 647  1670.365
 648  1595.892
 649  1500.585
 650  1458.79
 651  1447.333
 652  1537.102
 653  1519.575
 654  1510.501
 655  1557.354
 656  1535.595
 657  1445.151
 658  1400.842
 659  1531.13
 660  1634.696
 661  1662.815
 662  1752.574
 663  1700.838
 664  1489.998
 665  1341.51
 666  1385.568
 667  1449.587
 668  1493.806
 669  1528.171
 670  1514.324
 671  1400.762
 672  1328.129
 673  1389.515
 674  1462.724
 675  1489.521
 676  1579.27
 677  1575.595
 678  1603.031
 679  1550.536
 680  1643.186
 681  1812.181
 682  1759.697
 683  1620.353
 684  1346.676
 685  1391.647
 686  1450.78
 687  1668.469
 688  1595.291
 689  1450.784
 690  1420.231
 691  1525.395
 692  1470.354
 693  1472.144
 694  1521.147
 695  1646.263
 696  1700.485
 697  1670.362
 698  1771.061
 699  1795.808
 700  1732.872
 701  1638.465
 702  1629.06
 703  1665.824
 704  1709.238
 705  1778.115
 706  1786.765
 707  1668.668
 708  1443.468
 709  1465.121
 710  1519.454
 711  1535.308
 712  1585.4
 713  1613.218
 714  1710.808
 715  1608.454
 716  1607.401
 717  1602.855
 718  1559.369
 719  1535.013
 720  1552.7
 721  1513.26
 722  1537.655
 723  1587.41
 724  1622.406
 725  1549.142
 726  1507.972
 727  1537.984
 728  1558.849
 729  1549.151
 730  1572.541
 731  1694.796
 732  1667.585
 733  1647.71
 734  1589.993
 735  1561.349
 736  1561.506
 737  1611.097
 738  1587.3
 739  1393.576
 740  1342.018
 741  1399.643
 742  1534.238
 743  1605.857
 744  1531.675
 745  1572.014
 746  1536.968
 747  1655.547
 748  1647.357
 749  1496.081
 750  1391.469
 751  1497.027
 752  1527.972
 753  1538.373
 754  1507.277
 755  1627.673
 756  1656.197
 757  1581.795
 758  1487.509
 759  1450.443
 760  1696.289
 761  1737.812
 762  1635.676
 763  1462.106
 764  1374.726
 765  1395.71
 766  1437.286
 767  1543.088
 768  1480.017
 769  1479.581
 770  1496.681
 771  1649.932
 772  1615.613
 773  1659.051
 774  1625.641
 775  1631.383
 776  1521.784
 777  1457.207
 778  1425.325
 779  1346.339
 780  1372.927
 781  1538.403
 782  1607.565
 783  1571.883
 784  1584.309
 785  1586.147
 786  1632.863
 787  1542.903
 788  1536.436
 789  1478.165
 790  1499.197
 791  1539.247
 792  1591.118
 793  1524.535
 794  1411.288
 795  1433.231
 796  1450.992
 797  1439.491
 798  1445.255
 799  1549.561
 800  1534.571
 801  1406.856
 802  1486.523
 803  1570.635
 804  1613.157
 805  1420.536
 806  1474.415
 807  1498.123
 808  1612.327
 809  1673.222
 810  1710.089
 811  1754.224
 812  1592.173
 813  1565.53
 814  1581.298
 815  1663.008
 816  1621.655
 817  1561.626
 818  1522.822
 819  1407.762
 820  1300.745
 821  1327.672
 822  1468.803
 823  1513.326
 824  1541.93
 825  1493.624
 826  1596.155
 827  1609.247
 828  1586.685
 829  1499.702
 830  1369.863
 831  1324.877
 832  1320.377
 833  1331.108
 834  1340.346
 835  1392.34
 836  1412.012
 837  1363.704
 838  1357.144
 839  1326.772
 840  1411.656
 841  1582.885
 842  1759.957
 843  1745.246
 844  1598.385
 845  1581.843
 846  1553.459
 847  1562.584
 848  1539.241
 849  1450.735
 850  1329.112
 851  1187.314
 852  1268.816
 853  1362.005
 854  1438.068
 855  1385.457
 856  1432.399
 857  1474.355
 858  1573.46
 859  1558.128
 860  1563.246
 861  1504.436
 862  1426.043
 863  1361.92
 864  1312.752
 865  1340.138
 866  1305.247
 867  1289.317
 868  1257.925
 869  1298.932
 870  1247.528
 871  1273.275
 872  1250.648
 873  1335.535
 874  1381.755
 875  1353.758
 876  1357.315
 877  1334.217
 878  1378.346
 879  1244.281
 880  1123.352
 881  1192.22
 882  1244.772
 883  1333.934
 884  1430.891
 885  1612.251
 886  1624.639
 887  1462.1
 888  1363.005
 889  1427.255
 890  1518.908
 891  1488.314
 892  1481.71
 893  1451.665
 894  1445.904
 895  1383.439
 896  1450.797
 897  1442.541
 898  1430.054
 899  1402.309
 900  1430.9
 901  1391.465
 902  1309.984
 903  1331.266
 904  1380.029
 905  1315.446
 906  1289.897
 907  1320.417
 908  1361.514
 909  1274.682
 910  1258.524
 911  1309.456
 912  1244.229
 913  1242.167
 914  1338.432
 915  1502.958
 916  1514.341
 917  1433.012
 918  1289.405
 919  1237.016
 920  1221.548
 921  1339.753
 922  1401.163
 923  1332.266
 924  1226.043
 925  1380.448
 926  1459.756
 927  1492.492
 928  1331.884
 929  1252.172
 930  1289.272
 931  1366.148
 932  1384.129
 933  1326.026
 934  1363.055
 935  1384.028
 936  1222.63
 937  1152.264
 938  1187.836
 939  1320.214
 940  1356.585
 941  1350.959
 942  1304.766
 943  1233.59
 944  1280.312
 945  1317.823
 946  1503.167
 947  1512.821
 948  1472.159
 949  1499.48
 950  1559.506
 951  1602.407
 952  1562.294
 953  1462.052
 954  1456.071
 955  1491.347
 956  1523.037
 957  1543.695
 958  1438.302
 959  1607.065
 960  1682.824
 961  1728.273
 962  1605.783
 963  1546.155
 964  1498.082
 965  1358.188
 966  1318.64
 967  1365.649
 968  1334.921
 969  1326.765
 970  1296.429
 971  1299.353
 972  1313.013
 973  1291.439
 974  1411.022
 975  1553.712
 976  1591.172
 977  1553.829
 978  1535.393
 979  1495.738
 980  1531.318
 981  1480.495
 982  1429.516
 983  1346.337
 984  1375.156
 985  1480.831
 986  1530.676
 987  1415.62
 988  1322.099
 989  1358.842
 990  1374.151
 991  1425.478
 992  1374.891
 993  1439.454
 994  1422.777
 995  1393.718
 996  1482.605
 997  1473.69
 998  1474.266
 999  1402.474
1000  1421.851
1001  1324.546
1002  1347.75
1003  1525.905
1004  1681.565
1005  1764.256
1006  1642.343
1007  1540.797
1008  1426.439
1009  1395.849
1010  1373.688
1011  1315.467
1012  1237.745
1013  1248.331
1014  1336.659
1015  1334.911
1016  1377.494
1017  1398.248
1018  1473.966
1019  1399.797
1020  1336.481
1021  1293.844
1022  1276.787
1023  1390.762
