# Input file       =  1198345507.109696_cleaned.dat
# Candidate        =  PSR_0332+5434
# Telescope        =  AR
# Epoch_topo       =  58113.739885528885
# Epoch_bary       =  N/A
# T_sample         =  0.002
# Data Folded      =  7340032
# Data Avg         =  0.0526103996795419
# Data StdDev      =  1.00016356558104 
# Profile Bins     =  512
# Profile Avg      =  754.17706060333  
# Profile StdDev   =  119.752620580431 
# Reduced chi-sqr  =  1.001
# Prob(Noise)      <  0.486   (~0.0 sigma)
# P_topo (ms)      =  714.551156460575  +/- 0.000363
# P'_topo (s/s)    =  -0                +/- 1.92e-10
# P''_topo (s/s^2) =  0                 +/- 8.47e-14
# P_bary (ms)      =  N/A
# P'_bary (s/s)    =  N/A
# P''_bary (s/s^2) =  N/A
# P_orb (s)        =  N/A
# asin(i)/c (s)    =  N/A
# eccentricity     =  N/A
# w (rad)          =  N/A
# T_peri           =  N/A
######################################################
   0  695.741
   1  720.2263
   2  779.9243
   3  848.1738
   4  912.9479
   5  901.1078
   6  664.5809
   7  577.5533
   8  742.0109
   9  790.6681
  10  793.5233
  11  733.1082
  12  818.7499
  13  721.0674
  14  614.9288
  15  694.9871
  16  783.0746
  17  743.6712
  18  749.0275
  19  891.6505
  20  742.5871
  21  650.2589
  22  691.7411
  23  670.4158
  24  647.2503
  25  607.7993
  26  737.0101
  27  760.4724
  28  757.8487
  29  802.6533
  30  847.4537
  31  758.4019
  32  740.8334
  33  746.3818
  34  830.4172
  35  746.652
  36  608.6612
  37  644.3513
  38  717.6706
  39  774.7827
  40  775.6656
  41  678.189
  42  777.1317
  43  723.6049
  44  765.0765
  45  753.7473
  46  689.7401
  47  806.4869
  48  911.3143
  49  908.0343
  50  772.6306
  51  756.9305
  52  739.2616
  53  661.8696
  54  778.093
  55  881.3244
  56  812.611
  57  864.2419
  58  947.978
  59  901.2448
  60  824.2766
  61  861.1941
  62  848.9635
  63  747.6946
  64  751.9141
  65  869.1257
  66  772.4884
  67  747.579
  68  811.2862
  69  748.2866
  70  758.1818
  71  795.1351
  72  832.2663
  73  746.6179
  74  825.1813
  75  772.0615
  76  824.9918
  77  783.1643
  78  771.2646
  79  749.2105
  80  880.0628
  81  881.4922
  82  736.9786
  83  792.8793
  84  717.1768
  85  596.4793
  86  721.3239
  87  773.8971
  88  754.4883
  89  871.211
  90  842.5508
  91  725.3365
  92  785.2863
  93  827.6924
  94  721.4144
  95  727.136
  96  709.7374
  97  734.0543
  98  801.5698
  99  866.4373
 100  786.6647
 101  716.4715
 102  826.9341
 103  706.416
 104  719.8576
 105  694.8664
 106  718.4875
 107  812.7274
 108  749.7054
 109  760.7263
 110  767.4943
 111  807.5333
 112  713.517
 113  729.7965
 114  832.7612
 115  848.5305
 116  922.5927
 117  818.1855
 118  745.6536
 119  697.1646
 120  727.8243
 121  754.509
 122  749.2963
 123  821.1009
 124  770.5027
 125  700.7794
 126  824.0873
 127  810.7479
 128  769.2416
 129  797.1932
 130  776.3311
 131  789.2702
 132  800.2969
 133  832.5136
 134  849.7999
 135  757.0801
 136  770.4164
 137  774.3871
 138  887.1447
 139  838.1191
 140  816.4845
 141  783.929
 142  732.5794
 143  742.9902
 144  780.1692
 145  703.0522
 146  730.4023
 147  791.931
 148  811.1848
 149  799.2568
 150  742.9203
 151  754.241
 152  797.4211
 153  720.6501
 154  691.1207
 155  719.3761
 156  768.8943
 157  684.3965
 158  687.1108
 159  707.9146
 160  697.9199
 161  675.0458
 162  702.7509
 163  614.0932
 164  548.3178
 165  523.4344
 166  666.4649
 167  682.9851
 168  722.9286
 169  671.0984
 170  550.015
 171  620.5598
 172  727.6202
 173  692.9332
 174  831.9594
 175  736.5432
 176  659.7553
 177  753.4559
 178  700.2126
 179  637.9489
 180  679.6698
 181  799.1505
 182  806.2809
 183  800.764
 184  909.6291
 185  842.8083
 186  829.186
 187  893.9387
 188  904.5035
 189  923.6976
 190  876.1652
 191  842.3598
 192  825.6028
 193  913.3002
 194  963.3277
 195  863.9994
 196  739.2733
 197  683.3962
 198  806.4816
 199  879.6488
 200  872.6472
 201  894.9147
 202  939.5272
 203  951.9561
 204  1016.122
 205  1114.961
 206  1157.743
 207  1062.564
 208  1129.792
 209  1108.1
 210  849.2216
 211  735.9551
 212  761.1587
 213  727.4489
 214  719.9574
 215  788.2936
 216  798.3564
 217  798.3298
 218  731.2189
 219  811.0475
 220  847.9243
 221  839.4892
 222  769.3622
 223  698.0034
 224  689.6501
 225  739.5736
 226  852.7131
 227  775.425
 228  619.7599
 229  653.8275
 230  767.9935
 231  788.7882
 232  719.538
 233  822.3099
 234  847.8173
 235  779.0554
 236  687.7542
 237  797.2151
 238  800.3408
 239  647.9735
 240  704.9789
 241  829.2145
 242  838.2662
 243  630.2071
 244  794.7341
 245  709.0921
 246  648.564
 247  741.8095
 248  781.6781
 249  781.6048
 250  750.4161
 251  722.605
 252  759.1805
 253  737.5914
 254  619.951
 255  602.9929
 256  679.8072
 257  636.6659
 258  761.9634
 259  745.7267
 260  749.2228
 261  833.6066
 262  825.4886
 263  754.474
 264  635.1324
 265  674.2997
 266  755.0426
 267  727.2432
 268  736.8439
 269  726.1899
 270  651.8297
 271  718.6921
 272  845.299
 273  835.4036
 274  649.3562
 275  742.6291
 276  860.7228
 277  893.9748
 278  774.1251
 279  660.5881
 280  795.6769
 281  827.3293
 282  798.8077
 283  717.3469
 284  540.1827
 285  659.3993
 286  689.145
 287  708.7156
 288  865.4543
 289  863.9183
 290  803.037
 291  750.052
 292  777.8168
 293  728.2089
 294  717.1664
 295  770.8082
 296  812.6835
 297  765.0246
 298  691.2612
 299  724.2063
 300  713.9391
 301  789.7858
 302  853.9022
 303  867.9102
 304  745.2415
 305  698.509
 306  722.1605
 307  793.3748
 308  841.6517
 309  843.5734
 310  755.4166
 311  567.8994
 312  558.301
 313  624.7225
 314  655.7026
 315  715.6716
 316  650.8889
 317  683.8588
 318  725.4612
 319  702.9642
 320  786.3333
 321  681.407
 322  765.2731
 323  881.2944
 324  778.2711
 325  666.2327
 326  596.1769
 327  612.6926
 328  699.2105
 329  806.9447
 330  730.9141
 331  734.4379
 332  720.0218
 333  716.1898
 334  700.5475
 335  734.7886
 336  826.9979
 337  963.5351
 338  836.5229
 339  739.6794
 340  725.5438
 341  660.3926
 342  677.6577
 343  701.6199
 344  648.9521
 345  656.5723
 346  699.9371
 347  706.7385
 348  573.9842
 349  640.6084
 350  633.2787
 351  655.349
 352  762.5867
 353  836.8807
 354  956.3159
 355  808.6653
 356  785.3065
 357  837.909
 358  716.1558
 359  774.6922
 360  725.4316
 361  713.1556
 362  692.4854
 363  752.7255
 364  780.5815
 365  735.741
 366  704.0511
 367  750.7916
 368  752.3671
 369  739.5182
 370  701.4466
 371  713.67
 372  635.0936
 373  685.3514
 374  781.0308
 375  788.2377
 376  905.3192
 377  789.4525
 378  885.9724
 379  947.5314
 380  896.4045
 381  828.1104
 382  751.1071
 383  820.9034
 384  851.6198
 385  801.9625
 386  707.9091
 387  694.9757
 388  768.6939
 389  847.6877
 390  777.9946
 391  723.9464
 392  774.8741
 393  778.5246
 394  778.2189
 395  770.1011
 396  833.6516
 397  850.9266
 398  674.6142
 399  734.5616
 400  692.059
 401  686.1773
 402  742.8663
 403  738.8694
 404  787.6583
 405  757.461
 406  768.3749
 407  658.8151
 408  624.2886
 409  723.0077
 410  676.8908
 411  714.1036
 412  798.192
 413  783.236
 414  701.0241
 415  636.8923
 416  633.8725
 417  741.6091
 418  680.1548
 419  715.6122
 420  693.9362
 421  700.6633
 422  706.4846
 423  656.5392
 424  613.9871
 425  605.9176
 426  714.2546
 427  789.5538
 428  690.8284
 429  716.8688
 430  773.1517
 431  708.9569
 432  747.2512
 433  641.5969
 434  719.0919
 435  736.8466
 436  731.0625
 437  722.1682
 438  711.3257
 439  650.496
 440  714.2559
 441  818.1937
 442  868.9996
 443  657.067
 444  637.2028
 445  792.9777
 446  656.798
 447  560.9107
 448  676.2915
 449  794.3398
 450  689.9432
 451  693.8229
 452  667.4525
 453  593.3058
 454  701.7264
 455  662.2413
 456  676.4509
 457  718.8073
 458  684.9318
 459  796.7714
 460  855.7689
 461  841.8583
 462  761.2446
 463  794.6716
 464  734.0221
 465  653.9467
 466  657.3651
 467  752.3209
 468  784.8655
 469  633.1596
 470  753.4448
 471  809.9708
 472  603.4269
 473  705.7117
 474  796.6439
 475  865.6932
 476  814.1196
 477  714.2215
 478  690.7112
 479  775.8711
 480  737.7018
 481  759.9113
 482  621.2544
 483  608.0825
 484  697.6971
 485  776.7026
 486  734.4591
 487  700.2612
 488  598.4937
 489  694.4985
 490  755.825
 491  711.0031
 492  711.2903
 493  642.9799
 494  676.5149
 495  758.872
 496  833.0281
 497  806.2902
 498  814.242
 499  886.9111
 500  920.0019
 501  742.9973
 502  617.3157
 503  662.5048
 504  689.5371
 505  741.9467
 506  747.1624
 507  715.942
 508  664.2981
 509  630.708
 510  735.6943
 511  733.6674
