# Input file       =  1198000950.100848_cleaned.dat
# Candidate        =  PSR_0332+5434
# Telescope        =  AR
# Epoch_topo       =  58109.751957185741
# Epoch_bary       =  N/A
# T_sample         =  0.002
# Data Folded      =  7340032
# Data Avg         =  0.161026183273602
# Data StdDev      =  4.21006429900093 
# Profile Bins     =  1024
# Profile Avg      =  1154.49022546333 
# Profile StdDev   =  356.441060439934 
# Reduced chi-sqr  =  0.457
# Prob(Noise)      <  1   (~0.0 sigma)
# P_topo (ms)      =  714.547476030656  +/- 0.000661
# P'_topo (s/s)    =  -0                +/- 3.49e-10
# P''_topo (s/s^2) =  0                 +/- 1.54e-13
# P_bary (ms)      =  N/A
# P'_bary (s/s)    =  N/A
# P''_bary (s/s^2) =  N/A
# P_orb (s)        =  N/A
# asin(i)/c (s)    =  N/A
# eccentricity     =  N/A
# w (rad)          =  N/A
# T_peri           =  N/A
######################################################
   0  1193.369
   1  1206.941
   2  1125.862
   3  1034.733
   4  1160.641
   5  1191.165
   6  1199.038
   7  1141.134
   8  1155.345
   9  1119.743
  10  1177.537
  11  1228.358
  12  1222.061
  13  1135.607
  14  1094.676
  15  1183.667
  16  1278.387
  17  1237.937
  18  1184.131
  19  1124.284
  20  1121.059
  21  1031.781
  22  1096.914
  23  1135.361
  24  1238.143
  25  1188.375
  26  1146.209
  27  1137.557
  28  1098.365
  29  1030.319
  30  998.5012
  31  1082.238
  32  1145.339
  33  1167.296
  34  1171.025
  35  1186.572
  36  1222.238
  37  1122.709
  38  1003.845
  39  971.7061
  40  1106.669
  41  1190.813
  42  1194.372
  43  1126.621
  44  1034.491
  45  991.1879
  46  1004.494
  47  1123.469
  48  1141.706
  49  1194.658
  50  1263.812
  51  1295.763
  52  1234.865
  53  1090.831
  54  1107.866
  55  1147.552
  56  1162.625
  57  1085.742
  58  932.4142
  59  872.4799
  60  956.7524
  61  992.5948
  62  1102.112
  63  1203.162
  64  1343.872
  65  1363.842
  66  1334.031
  67  1291.553
  68  1274.882
  69  1218.596
  70  1112.605
  71  1073.161
  72  1050.133
  73  1056.697
  74  1082.413
  75  1057.932
  76  1064.301
  77  1211.335
  78  1241.637
  79  1254.802
  80  1195.482
  81  1186.933
  82  1155.862
  83  1112.875
  84  1019.643
  85  1102.009
  86  1166.139
  87  1249.214
  88  1377.841
  89  1377.465
  90  1359.397
  91  1253.4
  92  1220.766
  93  1131.711
  94  1048.287
  95  1080.916
  96  1213.568
  97  1365.393
  98  1449.151
  99  1429.569
 100  1341.856
 101  1340.008
 102  1360.632
 103  1326.764
 104  1234.958
 105  1157.993
 106  1075.426
 107  1062.872
 108  1121.538
 109  1113.226
 110  1221.042
 111  1278.154
 112  1243.454
 113  1205.709
 114  1212.359
 115  1352.448
 116  1321.254
 117  1283.504
 118  1169.215
 119  1248.276
 120  1207.515
 121  1243.304
 122  1238.765
 123  1283.41
 124  1412.932
 125  1417.797
 126  1303.862
 127  1189.344
 128  1219.247
 129  1216.665
 130  1228.521
 131  1240.308
 132  1373.134
 133  1394.399
 134  1411.995
 135  1341.202
 136  1294.229
 137  1346.284
 138  1315.744
 139  1221.609
 140  1151.359
 141  1182.937
 142  1275.841
 143  1342.66
 144  1168.022
 145  1116.024
 146  1068.703
 147  1092.482
 148  1094.84
 149  1137.94
 150  1229.272
 151  1145.137
 152  1040.397
 153  893.2132
 154  877.035
 155  1014.956
 156  1078.324
 157  1068.193
 158  1050.097
 159  985.2672
 160  973.86
 161  1041.775
 162  1125.206
 163  1134.004
 164  1183.473
 165  1164.213
 166  1209.74
 167  1220.253
 168  1275.877
 169  1253.406
 170  1335.276
 171  1283.889
 172  1298.511
 173  1117.919
 174  1120.01
 175  1110.259
 176  1211.763
 177  1251.249
 178  1321.601
 179  1133.932
 180  1088.454
 181  1065.015
 182  1177.112
 183  1254.166
 184  1291.851
 185  1296.819
 186  1174.941
 187  1147.34
 188  1181.716
 189  1158.823
 190  1074.898
 191  1026.519
 192  1154.071
 193  1087.207
 194  1121.709
 195  1172.376
 196  1189.788
 197  1232.45
 198  1226.785
 199  1300.315
 200  1304.361
 201  1245.576
 202  1246.446
 203  1137.724
 204  1010.107
 205  1036.638
 206  1197.178
 207  1152.504
 208  1096.482
 209  1133.086
 210  1346.469
 211  1362.938
 212  1279.411
 213  1172.103
 214  1178.212
 215  1186.534
 216  1186.875
 217  1053.294
 218  1004.136
 219  1031.815
 220  1101.469
 221  1113.114
 222  1114.842
 223  1059.184
 224  1060.408
 225  1158.838
 226  1228.974
 227  1225.999
 228  1153.288
 229  1122.981
 230  1035.284
 231  952.7878
 232  895.0182
 233  968.655
 234  951.4906
 235  1115.286
 236  1231.507
 237  1229.911
 238  1134.723
 239  1149.752
 240  1233.898
 241  1301.026
 242  1211.546
 243  1105.804
 244  1019.402
 245  1094.522
 246  1108.386
 247  1044.237
 248  1084.73
 249  1162.919
 250  1255.102
 251  1204.069
 252  1150.947
 253  1192.533
 254  1191.863
 255  1127.564
 256  1098.146
 257  1088.968
 258  1119.859
 259  1098.597
 260  1058.909
 261  1032.438
 262  973.8248
 263  991.8795
 264  992.0223
 265  1017.819
 266  930.0442
 267  838.5564
 268  815.1595
 269  792.2615
 270  965.3037
 271  1128.594
 272  1185.769
 273  1069.687
 274  938.2351
 275  974.8265
 276  1040.185
 277  978.1067
 278  1003.599
 279  1023.407
 280  1027.917
 281  984.8842
 282  877.746
 283  894.6243
 284  910.2672
 285  1011.897
 286  1111.1
 287  1152.968
 288  1167.121
 289  1068.422
 290  1140.783
 291  1075.465
 292  1045.192
 293  1121.984
 294  1309.556
 295  1380.628
 296  1200.094
 297  1063.796
 298  1112.913
 299  1132.78
 300  1031.513
 301  1041.298
 302  1042.143
 303  1103.957
 304  1112.94
 305  1206.883
 306  1286.469
 307  1218.951
 308  1052.046
 309  1061.624
 310  1186.069
 311  1254.189
 312  1258.961
 313  1235.094
 314  1248.843
 315  1259.978
 316  1239.641
 317  1232.186
 318  1126.74
 319  1194.517
 320  1318.439
 321  1398.423
 322  1272.927
 323  1191.216
 324  1168.234
 325  1325.804
 326  1296.421
 327  1334.204
 328  1261.695
 329  1337.941
 330  1312.998
 331  1422.997
 332  1288.613
 333  1196.024
 334  1089.049
 335  1169.069
 336  1256.309
 337  1303.944
 338  1299.588
 339  1311.751
 340  1345.044
 341  1414.926
 342  1414.713
 343  1385.889
 344  1217.413
 345  1252.162
 346  1288.781
 347  1248.005
 348  1153.338
 349  1064.797
 350  1060.614
 351  1079.999
 352  1116.44
 353  1280.374
 354  1325.18
 355  1306.899
 356  1284.077
 357  1184.392
 358  1129.009
 359  1025.026
 360  1165.291
 361  1155.096
 362  1176.154
 363  1128.314
 364  1102.717
 365  1103.676
 366  997.3578
 367  1070.89
 368  1213.197
 369  1237.34
 370  1137.909
 371  1125.173
 372  1113.546
 373  1144.801
 374  1089.282
 375  1061.485
 376  1006.835
 377  892.0006
 378  821.3171
 379  915.6561
 380  1061.104
 381  1003.536
 382  940.2576
 383  1029.24
 384  1172.239
 385  1314.392
 386  1231.049
 387  1224.529
 388  1180.596
 389  1148.105
 390  1057.96
 391  1027.304
 392  1110.567
 393  1067.059
 394  938.982
 395  958.1265
 396  1077.128
 397  1154.41
 398  1130.834
 399  1099.309
 400  1118.09
 401  1211.96
 402  1283.182
 403  1171.934
 404  1147.853
 405  1072.655
 406  1106.682
 407  1065.253
 408  1102.653
 409  1284.858
 410  1283.821
 411  1211.648
 412  1077.376
 413  1149.677
 414  1188.163
 415  1112.844
 416  992.0244
 417  994.0202
 418  1110.825
 419  1173.699
 420  1091.358
 421  1057.579
 422  1021.314
 423  1087.365
 424  1045.162
 425  1028.371
 426  1105.52
 427  1158.796
 428  1151.791
 429  1014.915
 430  913.8419
 431  977.8328
 432  1206.305
 433  1356.238
 434  1337.456
 435  1256.446
 436  1238.003
 437  1198.8
 438  1110.109
 439  1095.299
 440  1151.257
 441  1137.928
 442  1096.351
 443  1126.435
 444  1168.585
 445  1095.747
 446  1090.02
 447  1000.699
 448  965.0765
 449  970.4257
 450  1089.598
 451  1169.543
 452  1148.796
 453  982.7825
 454  971.4305
 455  962.2205
 456  1001.057
 457  993.0578
 458  985.5604
 459  944.2146
 460  1009.468
 461  957.9141
 462  1032.508
 463  1028.455
 464  1030.493
 465  967.1508
 466  914.7288
 467  862.7181
 468  912.5692
 469  990.0575
 470  1012.506
 471  981.8707
 472  958.8383
 473  994.227
 474  1082.743
 475  1163.236
 476  1085.392
 477  1063.237
 478  1083.213
 479  1102.671
 480  1114.366
 481  1073.894
 482  1153.668
 483  1243.636
 484  1267.125
 485  1229.156
 486  1186.482
 487  1163.678
 488  1107.251
 489  1142.19
 490  1122.704
 491  1135.266
 492  1077.691
 493  1087.213
 494  1043.055
 495  982.6314
 496  892.0188
 497  887.8481
 498  1037.586
 499  1151.236
 500  1126.933
 501  1150.421
 502  1145.639
 503  1194.692
 504  1232.352
 505  1330.816
 506  1365.185
 507  1349.258
 508  1333.817
 509  1266.835
 510  1180.693
 511  1259.643
 512  1237.45
 513  1267.512
 514  1164.66
 515  1196.835
 516  1259.187
 517  1356.469
 518  1318.855
 519  1253.608
 520  1203.344
 521  1188.649
 522  1147.057
 523  1087.6
 524  1042.129
 525  1037.886
 526  1100.527
 527  1240.654
 528  1292.146
 529  1318.063
 530  1299.63
 531  1336.471
 532  1449.991
 533  1468.451
 534  1346.763
 535  1298.966
 536  1232.793
 537  1303.847
 538  1241.941
 539  1297.922
 540  1220.114
 541  1276.456
 542  1213.307
 543  1330.572
 544  1357.313
 545  1246.251
 546  1161.893
 547  1105.823
 548  1079.261
 549  976.195
 550  1015.732
 551  1054.417
 552  1092.12
 553  1053.844
 554  1171.213
 555  1221.382
 556  1256.015
 557  1204.319
 558  1315.156
 559  1324.842
 560  1324.886
 561  1145.806
 562  1128.36
 563  1059.72
 564  1119.052
 565  1095.418
 566  958.2056
 567  945.9153
 568  969.1627
 569  1173.698
 570  1268.551
 571  1269.723
 572  1343.852
 573  1299.632
 574  1208.744
 575  1073.488
 576  1135.731
 577  1237.45
 578  1204.095
 579  1061.958
 580  1003.689
 581  1015.459
 582  1048.7
 583  1073.787
 584  1166.245
 585  1134.275
 586  1163.533
 587  1141.022
 588  1150.956
 589  1098.518
 590  1103.211
 591  1106.327
 592  973.8508
 593  820.6639
 594  802.775
 595  915.3924
 596  1016.512
 597  1081.134
 598  1016.216
 599  992.3869
 600  1043.471
 601  1238.217
 602  1201.307
 603  1100.278
 604  1000.123
 605  1200.74
 606  1144.994
 607  1122.387
 608  1144.006
 609  1129.262
 610  1100.057
 611  1191.316
 612  1336.579
 613  1309.951
 614  1238.242
 615  1311.321
 616  1414.859
 617  1435.06
 618  1398.2
 619  1499.648
 620  1605.809
 621  1675.016
 622  1683.188
 623  1646.931
 624  1743.199
 625  1792.383
 626  1802.329
 627  1686.93
 628  1610.545
 629  1459.839
 630  1479.661
 631  1383.288
 632  1323.626
 633  1315.127
 634  1337.952
 635  1351.769
 636  1347.789
 637  1326.725
 638  1299.269
 639  1221.937
 640  1177.623
 641  1161.394
 642  1227.788
 643  1196.595
 644  1146.819
 645  1073.262
 646  1158.556
 647  1178.574
 648  1237.597
 649  1229.399
 650  1277.861
 651  1269.913
 652  1191.425
 653  1228.218
 654  1333.708
 655  1300.116
 656  1270.539
 657  1219.892
 658  1136.313
 659  1043.197
 660  1037.972
 661  1057.777
 662  1167.21
 663  1210.863
 664  1225.197
 665  1157.652
 666  1116.533
 667  1136.815
 668  1088.451
 669  1118.159
 670  1188.816
 671  1146.128
 672  1010.177
 673  946.6136
 674  971.8569
 675  1065.648
 676  1148.439
 677  1222.213
 678  1225.086
 679  1267.975
 680  1221.828
 681  1147.747
 682  1035.115
 683  1021.564
 684  1042.624
 685  1052.774
 686  1103.149
 687  1220.742
 688  1352.061
 689  1375.257
 690  1202.214
 691  1135.199
 692  1156.064
 693  1299.031
 694  1388.101
 695  1402.344
 696  1390.357
 697  1297.928
 698  1294.356
 699  1246.904
 700  1174.82
 701  1215.528
 702  1177.448
 703  1215.944
 704  1169.751
 705  1190.53
 706  1164.411
 707  1185.608
 708  1115.095
 709  1179.808
 710  1269.922
 711  1341.921
 712  1198.362
 713  1025.464
 714  1012.685
 715  1079.896
 716  1192.11
 717  1173.329
 718  1147.615
 719  1133.61
 720  1160.121
 721  1132.708
 722  1048.246
 723  1041.177
 724  1102.91
 725  1157.621
 726  1101.211
 727  1006.903
 728  1048.395
 729  1135.592
 730  1206.043
 731  1256.406
 732  1299.415
 733  1268.128
 734  1161.757
 735  1191.504
 736  1230.328
 737  1379.662
 738  1274.044
 739  1186.521
 740  1248.378
 741  1388.533
 742  1429.202
 743  1357.044
 744  1364.749
 745  1288.946
 746  1232.276
 747  1192.864
 748  1280.562
 749  1258.549
 750  1163.571
 751  1164.018
 752  1153.596
 753  1114.102
 754  1151.025
 755  1197.665
 756  1362.392
 757  1399.977
 758  1360.228
 759  1410.924
 760  1368.996
 761  1263.99
 762  1018.483
 763  1149.113
 764  1133.768
 765  1187.671
 766  1160.431
 767  1185.375
 768  1225.163
 769  1208.684
 770  1195.404
 771  1083.516
 772  1036.422
 773  1068.865
 774  1283.143
 775  1355.175
 776  1269.976
 777  1187.481
 778  1178.741
 779  1162.006
 780  1083.321
 781  1042.512
 782  1095.406
 783  1118.13
 784  1178.885
 785  1258.406
 786  1208.312
 787  1256.798
 788  1246.238
 789  1285.146
 790  1307.112
 791  1347.636
 792  1350.345
 793  1285.015
 794  1157.071
 795  1201.549
 796  1099.348
 797  1103.214
 798  1127.729
 799  1237.449
 800  1278.723
 801  1303.559
 802  1249.764
 803  1149.672
 804  1055.697
 805  1076.057
 806  1039.307
 807  1119.985
 808  1163.632
 809  1135.039
 810  1127.973
 811  1141.48
 812  1180.126
 813  1247.255
 814  1254.168
 815  1371.049
 816  1352.356
 817  1269.309
 818  1125.724
 819  996.1559
 820  981.0135
 821  1069.289
 822  1122.295
 823  1040.534
 824  979.6989
 825  891.8502
 826  880.1151
 827  951.3018
 828  961.0117
 829  1015.513
 830  968.2022
 831  1038.213
 832  1031.245
 833  1042.391
 834  1062.862
 835  1126.788
 836  1193.886
 837  1141.048
 838  1167.013
 839  1131.228
 840  1129.555
 841  1197.471
 842  1110.029
 843  1126.625
 844  1065.636
 845  951.5862
 846  995.2297
 847  1138.916
 848  1266.091
 849  1194.63
 850  1147.053
 851  1083.223
 852  1118.252
 853  959.6959
 854  920.6025
 855  876.9824
 856  873.5572
 857  936.233
 858  966.8626
 859  1075.355
 860  1060.344
 861  983.0518
 862  971.1485
 863  1016.128
 864  1097.31
 865  1147.997
 866  1148.852
 867  1158.909
 868  1082.78
 869  1066.725
 870  1110.398
 871  1006.155
 872  987.7831
 873  882.795
 874  895.3372
 875  865.5001
 876  939.4177
 877  921.0584
 878  1000.183
 879  1046.532
 880  1109.036
 881  1050.873
 882  988.9545
 883  938.2683
 884  909.9178
 885  901.7358
 886  818.5682
 887  882.9606
 888  967.3768
 889  1025.789
 890  1041.377
 891  1104.496
 892  1124.754
 893  1060.506
 894  1161.641
 895  1141.315
 896  1138.367
 897  1013.032
 898  1088.12
 899  1111.25
 900  1055.684
 901  995.4288
 902  1074.813
 903  1111.237
 904  1088.402
 905  954.7421
 906  852.0505
 907  879.6186
 908  866.8367
 909  959.3573
 910  971.2044
 911  1050.611
 912  1063.526
 913  1015.744
 914  923.8853
 915  838.8751
 916  906.7098
 917  1057.006
 918  1173.479
 919  1276.303
 920  1190.618
 921  1156.252
 922  1116.284
 923  1151.851
 924  1162.371
 925  1212.411
 926  1202.465
 927  1191.28
 928  1072.625
 929  1016.77
 930  1138.637
 931  1096.799
 932  1099.493
 933  906.2709
 934  982.9991
 935  998.1851
 936  1175.602
 937  1142.039
 938  1223.562
 939  1203.865
 940  1274.426
 941  1281.023
 942  1254.732
 943  1294.471
 944  1280.732
 945  1266.712
 946  1276.513
 947  1293.605
 948  1181.376
 949  1128.201
 950  1225.097
 951  1304.468
 952  1268.891
 953  1298.938
 954  1259.78
 955  1251.663
 956  1397.403
 957  1425.83
 958  1318.615
 959  1125.52
 960  1113.223
 961  1133.815
 962  1177.586
 963  1244.813
 964  1200.781
 965  1240.146
 966  1208.19
 967  1157.548
 968  1069.786
 969  1137.835
 970  1157.815
 971  1118.194
 972  1095.446
 973  1174.729
 974  1323.566
 975  1378.632
 976  1380.951
 977  1392.156
 978  1228.807
 979  1133.81
 980  1150.93
 981  1223.356
 982  1115.55
 983  975.6403
 984  943.4943
 985  1006.899
 986  1075.066
 987  1091.747
 988  1096.618
 989  1074.503
 990  1018.702
 991  1032.738
 992  1094.659
 993  1145.344
 994  1199.049
 995  1233.378
 996  1186.531
 997  1056.387
 998  1066.535
 999  1092.325
1000  1177.79
1001  1121.098
1002  1101.717
1003  1163.463
1004  1149.118
1005  1169.322
1006  1065.618
1007  1049.725
1008  1054.887
1009  1136.65
1010  1152.381
1011  1165.529
1012  1111.644
1013  1147.223
1014  1259.743
1015  1245.145
1016  1096.67
1017  1013.463
1018  1098.158
1019  1260.547
1020  1271.435
1021  1211.894
1022  1170.544
1023  1166.076
