# Input file       =  1198072487.096268_cleaned.dat
# Candidate        =  PSR_0332+5434
# Telescope        =  AR
# Epoch_topo       =  58110.579931669767
# Epoch_bary       =  N/A
# T_sample         =  0.002
# Data Folded      =  7143424
# Data Avg         =  0.520149360511263
# Data StdDev      =  6.83465639381345 
# Profile Bins     =  512
# Profile Avg      =  7256.43031105788 
# Profile StdDev   =  807.299938657188 
# Reduced chi-sqr  =  0.518
# Prob(Noise)      <  1   (~0.0 sigma)
# P_topo (ms)      =  714.548228847317  +/- 3.84e-05
# P'_topo (s/s)    =  -0                +/- 2.08e-11
# P''_topo (s/s^2) =  0                 +/- 9.44e-15
# P_bary (ms)      =  N/A
# P'_bary (s/s)    =  N/A
# P''_bary (s/s^2) =  N/A
# P_orb (s)        =  N/A
# asin(i)/c (s)    =  N/A
# eccentricity     =  N/A
# w (rad)          =  N/A
# T_peri           =  N/A
######################################################
   0  6948.817
   1  6668.448
   2  6482.075
   3  7004.6
   4  7164.681
   5  7575.13
   6  7870.942
   7  7323.352
   8  6936.067
   9  7099.652
  10  7079.556
  11  6791.455
  12  7336.167
  13  7071.701
  14  7102.529
  15  7255.88
  16  7586.263
  17  7641.24
  18  7123.82
  19  6651.261
  20  6894.044
  21  6607.894
  22  6535.583
  23  7584.494
  24  7869.758
  25  6957.788
  26  6578.368
  27  7275.567
  28  7447.881
  29  7282.025
  30  7391.2
  31  7499.021
  32  6908.706
  33  7247.42
  34  6941.481
  35  7072.164
  36  7175.686
  37  7454.328
  38  7672.491
  39  6962.701
  40  6253.574
  41  6043.475
  42  6922.72
  43  6383.211
  44  6003.336
  45  7062.858
  46  7219.739
  47  6694.714
  48  6783.362
  49  7271.509
  50  7357.099
  51  7276.085
  52  7215.32
  53  7426.843
  54  7022.552
  55  7208.264
  56  7188.973
  57  6893.782
  58  6805.004
  59  7102.33
  60  7506.158
  61  7388.214
  62  7293.019
  63  7551.7
  64  7407.187
  65  6875.539
  66  6916.205
  67  7499.635
  68  7145.156
  69  6950.088
  70  7760.051
  71  7873.071
  72  6557.888
  73  6505.917
  74  7254.877
  75  7224.666
  76  6975.767
  77  6802.964
  78  6799.848
  79  6483.511
  80  6798.007
  81  7231.36
  82  7314.428
  83  7510.021
  84  7467.806
  85  7796.826
  86  7816.783
  87  7331.817
  88  7028.615
  89  7294.716
  90  6853.559
  91  6553.124
  92  6506.169
  93  6539.082
  94  6895.357
  95  7062.677
  96  7624.016
  97  7448.023
  98  7383.571
  99  7373.868
 100  7135.39
 101  6660.225
 102  6766.841
 103  7680.683
 104  8157.525
 105  7300.056
 106  7710.012
 107  7515.117
 108  6855.797
 109  6839.045
 110  7149.379
 111  7298.905
 112  7136.117
 113  7873.347
 114  7682.895
 115  7288.763
 116  7485.982
 117  8005.164
 118  7406.995
 119  7226.788
 120  7860.164
 121  7727.25
 122  7716.741
 123  7515.006
 124  7369.414
 125  7490.625
 126  7511.119
 127  7707.359
 128  7555.969
 129  6934.221
 130  7184.834
 131  7459.614
 132  7565.51
 133  7265.515
 134  7012.45
 135  7314.601
 136  7410.702
 137  7323.432
 138  6948.707
 139  6814.648
 140  6310.75
 141  6469.351
 142  6884.446
 143  6984.04
 144  7132.226
 145  6935.259
 146  6944.36
 147  6461.515
 148  7002.333
 149  7087.009
 150  6929.742
 151  6897.871
 152  6790.585
 153  7209.96
 154  6655.706
 155  6389.6
 156  6904.208
 157  6815.054
 158  6558.62
 159  6654.519
 160  7266.896
 161  7150.847
 162  6512.601
 163  6391.943
 164  6634.6
 165  6925.836
 166  6988.473
 167  7027.174
 168  6543.073
 169  6572.112
 170  6937.308
 171  7212.395
 172  6808.696
 173  7080.189
 174  7064.661
 175  7235.99
 176  7006.358
 177  6518.604
 178  7537.134
 179  7178.937
 180  6860.456
 181  7312.291
 182  7611.451
 183  7161.427
 184  7548.839
 185  7786.737
 186  7817.627
 187  6911.602
 188  6884.988
 189  7440.191
 190  6998.23
 191  7246.918
 192  7784.859
 193  7965.946
 194  7363.064
 195  7287.69
 196  7521.683
 197  7107.85
 198  7333.34
 199  7676.979
 200  8061.483
 201  7623.862
 202  7019.711
 203  7265.205
 204  7044.207
 205  6832.91
 206  6824.604
 207  7190.673
 208  6817.775
 209  6722.694
 210  7616.627
 211  7842.334
 212  7662.771
 213  7622.502
 214  7882.012
 215  7383.959
 216  6918.952
 217  7625.239
 218  7349.385
 219  7512.249
 220  7509.933
 221  6979.051
 222  6821.001
 223  7117.093
 224  7156.159
 225  7285.681
 226  6945.248
 227  7117.974
 228  7844.453
 229  7522.905
 230  7331.019
 231  7710.121
 232  7599.176
 233  7513.009
 234  7601.254
 235  8017.59
 236  8080.106
 237  7722.79
 238  8185.753
 239  8363.794
 240  7352.693
 241  7459.886
 242  8146.164
 243  7942.479
 244  7672.498
 245  7288.215
 246  7697.401
 247  6969.257
 248  7557.133
 249  7401.915
 250  7537.568
 251  7294.86
 252  7467.248
 253  7135.712
 254  6960.383
 255  7676.045
 256  7379.942
 257  7490.422
 258  7651
 259  7446.34
 260  7603.765
 261  7762.938
 262  8098.819
 263  8567.471
 264  8331.056
 265  7522.194
 266  8002.566
 267  8184.985
 268  7877.58
 269  7515.129
 270  7051.56
 271  7353.706
 272  6909.953
 273  7371.679
 274  7613.924
 275  7997.335
 276  7816.909
 277  7420.914
 278  7457.548
 279  8235.393
 280  7929.872
 281  7626.359
 282  8273.497
 283  7359.049
 284  7120.305
 285  7395.6
 286  8341.448
 287  7920.115
 288  7421.78
 289  7963.188
 290  7773.105
 291  7456
 292  7473.02
 293  7574.246
 294  7220.366
 295  7497.429
 296  7905.523
 297  7355.716
 298  7614.575
 299  7364.222
 300  7526.4
 301  6977.209
 302  6627.875
 303  6898.053
 304  6782.458
 305  6646.208
 306  7368.87
 307  8016.253
 308  7614.266
 309  7979.583
 310  7928.522
 311  7836.711
 312  7789.307
 313  7679.209
 314  8061.283
 315  7765.745
 316  7406.966
 317  7426.207
 318  7926.919
 319  7711.418
 320  7579.909
 321  8085.166
 322  7929.578
 323  7326.676
 324  7641.426
 325  7556.16
 326  6691.752
 327  6751.9
 328  7692.969
 329  7519.268
 330  7179.231
 331  7397.822
 332  7618.36
 333  7329.11
 334  7434.297
 335  7608.861
 336  7346.731
 337  6884.114
 338  6668.331
 339  7099.133
 340  7257.155
 341  7083.801
 342  7299.366
 343  8051.352
 344  7439.566
 345  7028.399
 346  7407.624
 347  7248.057
 348  6871.357
 349  6682.583
 350  6763.726
 351  6614.854
 352  6246.109
 353  6684.87
 354  7310.5
 355  7057.8
 356  7170.662
 357  7116.568
 358  7313.964
 359  7070.161
 360  6980.59
 361  7356.098
 362  7265.046
 363  7380.828
 364  7676.874
 365  7416.965
 366  7429.435
 367  7460.382
 368  7809.343
 369  7747.399
 370  7338.575
 371  7738.241
 372  7510.496
 373  7311.296
 374  7462.357
 375  7689.261
 376  7544.47
 377  7817.311
 378  8153.819
 379  7882.932
 380  7283.922
 381  7591.266
 382  7454.943
 383  6804.209
 384  6862.968
 385  7259.584
 386  7811.652
 387  6871.344
 388  6793.697
 389  7306.012
 390  7373.419
 391  7215.381
 392  7459.076
 393  7947.552
 394  7176.849
 395  6766.432
 396  6731.606
 397  6902.146
 398  6574.934
 399  6857.163
 400  7295.851
 401  7077.29
 402  6701.353
 403  7024.853
 404  7446.208
 405  7373.478
 406  6989.484
 407  7269.474
 408  7153.985
 409  7151.61
 410  6955.277
 411  7403.555
 412  7551.855
 413  7162.961
 414  7723.246
 415  7445.633
 416  7059.224
 417  7417.875
 418  8042.288
 419  7900.532
 420  7387.759
 421  7018.958
 422  6450.952
 423  6638.354
 424  6501.357
 425  7071.319
 426  7572.672
 427  7720.48
 428  7294.279
 429  7356.497
 430  7427.007
 431  7376.955
 432  7568.84
 433  7513.72
 434  7273.926
 435  7392.027
 436  7624.829
 437  7513.379
 438  7412.546
 439  7584.237
 440  7190.705
 441  7279.451
 442  7342.711
 443  7733.033
 444  7330.824
 445  6837.481
 446  7169.962
 447  7283.786
 448  6715.81
 449  6958.52
 450  7160.066
 451  7415.781
 452  7236.605
 453  7197.541
 454  7367.424
 455  6868.966
 456  6355.901
 457  7171.637
 458  7151.835
 459  7343.101
 460  7277.531
 461  7444.897
 462  7245.083
 463  7324.072
 464  7334.346
 465  7619.125
 466  7090.056
 467  6728.874
 468  7864.68
 469  7316.154
 470  7069.298
 471  6694.139
 472  6903.603
 473  6453.26
 474  6585.76
 475  7157.285
 476  7293.994
 477  6387.439
 478  6606.83
 479  7011.055
 480  6954.907
 481  6893.112
 482  6990.445
 483  7043.348
 484  6403.928
 485  6837.86
 486  7294.85
 487  7148.546
 488  6885.077
 489  6543.144
 490  7082.29
 491  7104.887
 492  7107.03
 493  7336.19
 494  7223.271
 495  6874.008
 496  7258.943
 497  7324.101
 498  6976.897
 499  6850.551
 500  7507.054
 501  7350.686
 502  6978.51
 503  7148.976
 504  7366.921
 505  6645.375
 506  6501.924
 507  6802.403
 508  6865.441
 509  6647.483
 510  6682.589
 511  7296.633
