# Input file       =  1198015849.104194_cleaned.dat
# Candidate        =  PSR_0332+5434
# Telescope        =  AR
# Epoch_topo       =  58109.924399354095
# Epoch_bary       =  N/A
# T_sample         =  0.002
# Data Folded      =  7340032
# Data Avg         =  0.121574662649696
# Data StdDev      =  3.90990503911733 
# Profile Bins     =  1024
# Profile Avg      =  871.428389454353 
# Profile StdDev   =  331.028364268247 
# Reduced chi-sqr  =  0.509
# Prob(Noise)      <  1   (~0.0 sigma)
# P_topo (ms)      =  714.547977352135  +/- 0.000897
# P'_topo (s/s)    =  -0                +/- 4.73e-10
# P''_topo (s/s^2) =  0                 +/- 2.09e-13
# P_bary (ms)      =  N/A
# P'_bary (s/s)    =  N/A
# P''_bary (s/s^2) =  N/A
# P_orb (s)        =  N/A
# asin(i)/c (s)    =  N/A
# eccentricity     =  N/A
# w (rad)          =  N/A
# T_peri           =  N/A
######################################################
   0  943.4237
   1  989.7153
   2  960.1282
   3  931.8167
   4  865.1225
   5  914.5876
   6  886.6609
   7  912.2486
   8  886.988
   9  918.1287
  10  970.5554
  11  911.7147
  12  824.6473
  13  800.2067
  14  905.5395
  15  1000.981
  16  1037.096
  17  1073.926
  18  1089.302
  19  1047.347
  20  1087.005
  21  923.982
  22  853.6953
  23  852.5776
  24  946.1404
  25  988.3401
  26  974.3695
  27  1012.544
  28  1032.256
  29  1019.435
  30  968.9807
  31  933.4108
  32  952.9731
  33  952.134
  34  991.8729
  35  1006.645
  36  1059.025
  37  1120.791
  38  1038.465
  39  928.1382
  40  913.1498
  41  942.1235
  42  934.5153
  43  886.2281
  44  912.2137
  45  981.124
  46  972.7686
  47  913.6998
  48  975.5769
  49  998.1739
  50  1072.147
  51  1075.384
  52  1070.352
  53  1050.279
  54  981.6376
  55  938.4732
  56  1008.787
  57  1109.031
  58  1086.247
  59  1204.818
  60  1288.44
  61  1394.328
  62  1229.449
  63  1167.074
  64  1049.729
  65  902.6335
  66  827.7155
  67  902.7035
  68  1028.398
  69  1150.071
  70  1112.659
  71  845.9797
  72  826.6169
  73  870.6835
  74  977.028
  75  935.213
  76  854.2798
  77  984.2472
  78  1030.424
  79  1109.731
  80  1038.826
  81  1007.44
  82  951.7239
  83  982.9794
  84  1057.522
  85  1067.651
  86  985.0074
  87  950.7347
  88  1039.261
  89  974.9522
  90  983.3718
  91  1019.806
  92  1066.962
  93  1033.314
  94  996.7461
  95  996.492
  96  890.4776
  97  860.7859
  98  873.1225
  99  928.4466
 100  890.9326
 101  1006.678
 102  1124.191
 103  960.2385
 104  874.7772
 105  789.1977
 106  802.8083
 107  756.5101
 108  663.0071
 109  798.2418
 110  784.5136
 111  801.6406
 112  734.5906
 113  709.3862
 114  811.2898
 115  798.7385
 116  765.8192
 117  791.9061
 118  808.9921
 119  867.741
 120  767.9568
 121  719.7848
 122  775.8673
 123  886.3195
 124  986.0242
 125  905.0841
 126  881.9268
 127  937.7234
 128  1009.363
 129  1056.872
 130  985.1057
 131  1021.341
 132  1057.43
 133  1114.281
 134  1119.015
 135  1048.767
 136  1114.704
 137  1111.712
 138  1043.082
 139  1013.435
 140  824.2097
 141  786.4952
 142  631.754
 143  725.9966
 144  826.4041
 145  930.8677
 146  939.9707
 147  912.4412
 148  821.8918
 149  803.1719
 150  804.9362
 151  756.4951
 152  721.0702
 153  674.9909
 154  789.6886
 155  934.1014
 156  873.9661
 157  861.3936
 158  722.4667
 159  764.4238
 160  931.1154
 161  1132.807
 162  1213.947
 163  1074.657
 164  865.941
 165  773.3658
 166  861.3411
 167  902.7373
 168  943.214
 169  921.1498
 170  840.5674
 171  703.7577
 172  548.6737
 173  722.8932
 174  969.223
 175  1014.81
 176  1068.52
 177  1043.701
 178  1108.38
 179  990.3827
 180  1005.961
 181  836.0535
 182  861.5615
 183  838.101
 184  796.8936
 185  624.5194
 186  613.1724
 187  727.7654
 188  777.9426
 189  797.675
 190  844.0161
 191  701.397
 192  741.8742
 193  745.326
 194  908.6161
 195  859.6061
 196  886.459
 197  784.3429
 198  739.4202
 199  588.2741
 200  725.0576
 201  862.0975
 202  971.6849
 203  910.9315
 204  941.4873
 205  881.1119
 206  817.8012
 207  767.8995
 208  782.1235
 209  811.5593
 210  831.2028
 211  960.6058
 212  1063.745
 213  1081.249
 214  1111.984
 215  1007.175
 216  1065.354
 217  1031.166
 218  992.7097
 219  843.8923
 220  734.1547
 221  782.3367
 222  981.3985
 223  972.0304
 224  995.7665
 225  899.2661
 226  980.7937
 227  1035.52
 228  1022.836
 229  826.5164
 230  753.5007
 231  870.1735
 232  1008.104
 233  980.4471
 234  798.3944
 235  786.4939
 236  796.2773
 237  797.4779
 238  754.4427
 239  721.9021
 240  844.238
 241  898.8941
 242  786.6605
 243  737.644
 244  812.3322
 245  884.3661
 246  916.0681
 247  838.6028
 248  956.8927
 249  957.9775
 250  909.2684
 251  918.3356
 252  1031.605
 253  982.7434
 254  918.4184
 255  766.4655
 256  761.6546
 257  759.3713
 258  759.3617
 259  827.6954
 260  875.9414
 261  829.0974
 262  755.3035
 263  677.1135
 264  731.5701
 265  806.9283
 266  855.7228
 267  929.4755
 268  939.684
 269  862.6379
 270  709.9025
 271  619.3949
 272  663.0755
 273  766.6946
 274  772.9999
 275  751.92
 276  724.7374
 277  719.4489
 278  793.2672
 279  859.6752
 280  861.6934
 281  934.3431
 282  1030.351
 283  919.0607
 284  847.5988
 285  658.4583
 286  715.1685
 287  683.507
 288  730.8002
 289  752.8197
 290  807.4914
 291  787.8887
 292  843.5583
 293  815.0156
 294  813.1714
 295  843.9133
 296  828.2546
 297  928.4781
 298  885.3704
 299  967.1207
 300  938.7375
 301  953.9371
 302  992.1853
 303  940.0229
 304  791.2997
 305  690.2042
 306  739.5674
 307  800.6796
 308  940.3032
 309  979.4008
 310  1165.134
 311  1231.079
 312  1089.951
 313  933.3004
 314  841.5189
 315  955.1281
 316  993.3542
 317  941.8834
 318  958.921
 319  890.9788
 320  778.5097
 321  875.3945
 322  1022.249
 323  1170.861
 324  1073.185
 325  913.7216
 326  818.1682
 327  878.0746
 328  954.3487
 329  998.0478
 330  952.4063
 331  945.599
 332  1014.767
 333  1062.025
 334  1090.65
 335  1106.844
 336  1031.523
 337  957.9139
 338  1092.467
 339  1108.739
 340  1180.924
 341  1027.952
 342  1024.431
 343  982.2169
 344  892.8431
 345  923.9086
 346  970.7822
 347  1082.542
 348  940.0219
 349  960.4135
 350  885.5015
 351  850.9548
 352  758.9101
 353  761.2736
 354  771.1775
 355  705.9683
 356  796.4262
 357  941.3348
 358  891.2487
 359  981.8085
 360  916.2137
 361  981.3981
 362  919.4294
 363  1006.643
 364  1081.523
 365  1110.61
 366  979.9805
 367  949.4819
 368  834.7556
 369  718.0894
 370  654.0138
 371  683.7421
 372  603.9706
 373  589.3967
 374  529.5134
 375  689.634
 376  880.1754
 377  972.8715
 378  935.739
 379  902.0464
 380  975.2449
 381  1016.495
 382  843.2262
 383  816.1471
 384  683.7924
 385  642.6389
 386  584.8806
 387  566.5594
 388  482.3363
 389  562.2638
 390  698.67
 391  928.6133
 392  915.0284
 393  883.1266
 394  897.4277
 395  870.378
 396  911.0655
 397  953.3802
 398  966.7252
 399  940.6982
 400  890.833
 401  872.8325
 402  854.3193
 403  777.5781
 404  732.1982
 405  699.673
 406  770.317
 407  841.4335
 408  839.2906
 409  827.6384
 410  944.7443
 411  940.1633
 412  934.8504
 413  874.2226
 414  826.2419
 415  868.4695
 416  898.8661
 417  884.282
 418  785.2595
 419  769.3394
 420  770.3796
 421  838.1494
 422  785.4139
 423  832.6223
 424  849.1953
 425  846.8243
 426  887.4444
 427  804.1392
 428  809.9364
 429  794.2293
 430  738.5068
 431  742.5395
 432  804.8462
 433  904.6925
 434  1031.029
 435  1055.904
 436  1063.913
 437  943.9169
 438  816.0623
 439  766.8395
 440  841.2935
 441  878.7548
 442  849.1788
 443  776.3257
 444  799.1641
 445  987.4017
 446  963.7665
 447  904.1429
 448  832.8849
 449  785.4837
 450  868.7181
 451  869.1878
 452  920.0121
 453  906.8978
 454  977.2451
 455  871.1518
 456  841.1125
 457  744.1998
 458  748.6912
 459  758.8618
 460  704.6522
 461  715.5785
 462  645.9086
 463  667.7561
 464  746.8535
 465  739.7565
 466  772.2266
 467  693.1042
 468  719.7856
 469  756.5597
 470  806.5823
 471  733.2819
 472  595.659
 473  504.4109
 474  597.873
 475  672.7941
 476  731.4979
 477  769.4553
 478  771.8193
 479  717.5967
 480  745.9646
 481  746.0942
 482  732.322
 483  715.6097
 484  860.1498
 485  1021.733
 486  977.9515
 487  833.3643
 488  792.7605
 489  926.1578
 490  936.5889
 491  869.44
 492  698.1086
 493  717.6008
 494  793.3861
 495  848.674
 496  884.4328
 497  832.3292
 498  973.2751
 499  1039.915
 500  1069.973
 501  1003.803
 502  1016.19
 503  1079.387
 504  1019.014
 505  945.468
 506  838.9052
 507  718.2452
 508  728.1505
 509  925.3096
 510  1007.616
 511  895.6517
 512  838.8597
 513  974.4354
 514  1036.334
 515  1069.491
 516  889.2974
 517  792.135
 518  753.1201
 519  790.4175
 520  713.3287
 521  682.9922
 522  691.0591
 523  787.0208
 524  866.2371
 525  877.3452
 526  895.5687
 527  804.3096
 528  734.9338
 529  744.0433
 530  694.8997
 531  674.5309
 532  593.2495
 533  776.1276
 534  846.6037
 535  838.1338
 536  727.4012
 537  729.122
 538  781.8306
 539  846.7824
 540  804.9698
 541  795.4345
 542  890.0151
 543  969.1
 544  991.5485
 545  948.0823
 546  893.4402
 547  762.5031
 548  751.3826
 549  746.2984
 550  813.5919
 551  719.9528
 552  750.1204
 553  697.8158
 554  674.7817
 555  669.8329
 556  688.4848
 557  618.0341
 558  679.815
 559  707.5768
 560  800.1481
 561  691.9772
 562  512.7226
 563  567.4869
 564  678.8376
 565  801.1662
 566  717.1033
 567  681.0502
 568  740.6622
 569  890.0156
 570  919.9913
 571  829.0693
 572  799.3169
 573  791.9368
 574  895.3878
 575  840.39
 576  786.1254
 577  751.4391
 578  787.3774
 579  766.4238
 580  715.8951
 581  713.6509
 582  785.1053
 583  878.7673
 584  944.2709
 585  834.6076
 586  702.7985
 587  684.8096
 588  872.297
 589  955.3521
 590  996.5499
 591  936.9062
 592  805.5044
 593  676.8148
 594  696.4127
 595  683.9476
 596  778.4298
 597  860.3176
 598  997.6069
 599  986.542
 600  751.2427
 601  658.0358
 602  667.8374
 603  700.0997
 604  797.8719
 605  845.2775
 606  968.8032
 607  979.374
 608  918.3805
 609  992.1865
 610  996.1171
 611  1003.542
 612  955.5682
 613  923.8452
 614  985.2209
 615  1035.983
 616  1086.842
 617  1187.582
 618  1239.182
 619  1208.788
 620  1010.2
 621  1019.184
 622  1053.361
 623  1075.152
 624  1102.376
 625  1231.582
 626  1288.247
 627  1130.026
 628  967.67
 629  930.4929
 630  843.0439
 631  859.5924
 632  809.664
 633  1022.82
 634  1035.975
 635  888.7221
 636  705.5328
 637  557.9315
 638  601.803
 639  660.4646
 640  746.069
 641  816.1065
 642  825.3919
 643  945.139
 644  936.4844
 645  831.5026
 646  788.3531
 647  816.0059
 648  804.5464
 649  788.8542
 650  885.1525
 651  802.3532
 652  806.7923
 653  783.0259
 654  950.8433
 655  1048.273
 656  1053.031
 657  958.2386
 658  796.2698
 659  724.9803
 660  760.624
 661  773.8368
 662  806.9214
 663  857.1169
 664  960.1005
 665  977.2
 666  933.6764
 667  789.3117
 668  749.8389
 669  722.4263
 670  803.562
 671  784.5077
 672  830.529
 673  981.8929
 674  1048.854
 675  939.604
 676  850.5127
 677  886.5615
 678  978.9713
 679  949.4027
 680  739.9322
 681  760.9323
 682  832.5475
 683  880.1171
 684  852.4815
 685  816.5076
 686  824.3519
 687  829.7571
 688  857.5964
 689  933.3708
 690  921.8098
 691  981.0942
 692  948.6097
 693  906.171
 694  822.2635
 695  797.7737
 696  868.1577
 697  936.877
 698  994.3058
 699  896.4678
 700  737.0008
 701  612.7114
 702  733.2048
 703  908.3699
 704  811.1865
 705  774.3032
 706  798.8568
 707  903.1487
 708  918.7222
 709  892.6855
 710  898.1719
 711  894.3688
 712  904.0558
 713  822.4686
 714  829.942
 715  727.4448
 716  788.8334
 717  913.538
 718  923.7506
 719  855.7013
 720  709.3419
 721  742.9126
 722  828.0192
 723  816.7877
 724  912.3729
 725  775.6985
 726  825.8943
 727  818.3734
 728  933.175
 729  957.6823
 730  825.2767
 731  772.356
 732  809.8984
 733  972.9395
 734  889.4495
 735  912.8034
 736  897.269
 737  991.1342
 738  924.3074
 739  889.3886
 740  898.0637
 741  892.8637
 742  820.7559
 743  849.8031
 744  864.2305
 745  869.3913
 746  914.001
 747  954.7199
 748  996.6536
 749  863.5462
 750  844.2001
 751  814.5731
 752  880.4606
 753  809.0638
 754  824.2817
 755  797.8234
 756  875.9366
 757  896.0857
 758  873.682
 759  866.5737
 760  966.2512
 761  884.1776
 762  831.2141
 763  838.5994
 764  936.3793
 765  926.4927
 766  807.5558
 767  886.5941
 768  974.1329
 769  1017.424
 770  973.1564
 771  998.2787
 772  1049.656
 773  1096.906
 774  995.5237
 775  785.9949
 776  781.6346
 777  778.7178
 778  802.6041
 779  811.4868
 780  778.9902
 781  791.8559
 782  774.8523
 783  868.6474
 784  859.6072
 785  805.2021
 786  835.4301
 787  952.9308
 788  1000.754
 789  1034.886
 790  1050.075
 791  1049.198
 792  1049.154
 793  998.7135
 794  1081.222
 795  970.1264
 796  830.4197
 797  718.8364
 798  721.4026
 799  801.0805
 800  849.8596
 801  868.79
 802  910.1923
 803  976.2359
 804  971.2217
 805  1019.975
 806  919.4999
 807  917.0646
 808  719.5927
 809  723.0807
 810  808.954
 811  834.147
 812  771.81
 813  687.1704
 814  689.884
 815  712.96
 816  710.4341
 817  760.8421
 818  749.0141
 819  798.7578
 820  715.5273
 821  727.0215
 822  744.3598
 823  759.8242
 824  862.7297
 825  813.1908
 826  898.8013
 827  837.878
 828  778.7463
 829  756.8863
 830  715.2249
 831  806.1281
 832  872.4618
 833  888.985
 834  822.1298
 835  824.9557
 836  802.1427
 837  713.9939
 838  643.14
 839  732.4233
 840  715.2773
 841  673.5737
 842  592.2925
 843  759.8075
 844  717.8865
 845  733.3271
 846  686.4797
 847  740.9875
 848  853.4749
 849  813.436
 850  828.8206
 851  946.3351
 852  979.216
 853  932.4346
 854  830.4745
 855  936.1754
 856  962.9346
 857  902.1543
 858  836.5999
 859  892.6594
 860  946.8
 861  916.6705
 862  924.9044
 863  964.3961
 864  904.4746
 865  897.6964
 866  934.7194
 867  995.5923
 868  870.2861
 869  851.9088
 870  936.423
 871  946.7911
 872  853.2662
 873  723.7672
 874  625.2173
 875  559.588
 876  598.8267
 877  785.9063
 878  812.8496
 879  838.1646
 880  749.5689
 881  819.7989
 882  780.2004
 883  900.4125
 884  924.3227
 885  918.1741
 886  896.0677
 887  773.6751
 888  685.3793
 889  665.9629
 890  686.3948
 891  655.2096
 892  719.6974
 893  832.4142
 894  904.6547
 895  797.0276
 896  693.4436
 897  700.9942
 898  705.1631
 899  663.3557
 900  624.535
 901  641.4095
 902  749.5876
 903  753.882
 904  854.8372
 905  915.5524
 906  891.8677
 907  807.0117
 908  712.0999
 909  765.3406
 910  978.586
 911  979.6135
 912  1089.083
 913  1022.527
 914  1015.983
 915  967.681
 916  1042.34
 917  1085.543
 918  1055.405
 919  1051.538
 920  1061.926
 921  1032.815
 922  867.3228
 923  719.7949
 924  724.4992
 925  762.3782
 926  901.996
 927  973.1934
 928  914.7788
 929  830.197
 930  841.5577
 931  830.395
 932  899.6488
 933  964.8095
 934  1060.11
 935  990.9363
 936  960.4097
 937  1044.345
 938  1017.297
 939  1056.47
 940  1150.134
 941  1053.852
 942  1018.556
 943  878.9473
 944  858.1211
 945  769.6921
 946  714.9664
 947  773.7293
 948  697.3557
 949  763.6492
 950  770.4816
 951  718.9507
 952  690.5823
 953  740.4068
 954  795.8277
 955  833.1767
 956  845.6376
 957  1055.629
 958  1132.127
 959  1141.049
 960  1086.488
 961  1138.617
 962  1053.094
 963  972.6887
 964  906.2005
 965  847.2833
 966  840.783
 967  809.9332
 968  905.1344
 969  1005.864
 970  1128.042
 971  1072.675
 972  1007.122
 973  901.501
 974  824.9511
 975  817.5768
 976  836.2234
 977  931.7516
 978  952.6615
 979  946.7882
 980  811.632
 981  628.4155
 982  614.3451
 983  726.9332
 984  820.7766
 985  840.4122
 986  874.634
 987  901.8691
 988  1069.941
 989  1125.463
 990  1202.761
 991  1195.22
 992  978.7482
 993  885.9312
 994  761.4434
 995  738.568
 996  711.4373
 997  667.9907
 998  771.0098
 999  820.2474
1000  881.1395
1001  835.6216
1002  865.3517
1003  897.8839
1004  1069.442
1005  1085.004
1006  1041.432
1007  1028.627
1008  874.9958
1009  729.5424
1010  714.6083
1011  697.8344
1012  771.7562
1013  725.8436
1014  819.4322
1015  765.9982
1016  722.1853
1017  715.2913
1018  808.2271
1019  830.4578
1020  951.1628
1021  931.2336
1022  982.7712
1023  952.8542
