# Input file       =  1198259396.105565_cleaned.dat
# Candidate        =  PSR_0332+5434
# Telescope        =  AR
# Epoch_topo       =  58112.743230388485
# Epoch_bary       =  N/A
# T_sample         =  0.002
# Data Folded      =  7340032
# Data Avg         =  0.0565921973290945
# Data StdDev      =  1.00007870841925 
# Profile Bins     =  512
# Profile Avg      =  811.517698615347 
# Profile StdDev   =  119.742460374792 
# Reduced chi-sqr  =  0.785
# Prob(Noise)      <  1   (~0.0 sigma)
# P_topo (ms)      =  714.550250344245  +/- 6.29e-05
# P'_topo (s/s)    =  -0                +/- 3.32e-11
# P''_topo (s/s^2) =  0                 +/- 1.47e-14
# P_bary (ms)      =  N/A
# P'_bary (s/s)    =  N/A
# P''_bary (s/s^2) =  N/A
# P_orb (s)        =  N/A
# asin(i)/c (s)    =  N/A
# eccentricity     =  N/A
# w (rad)          =  N/A
# T_peri           =  N/A
######################################################
   0  1245.194
   1  1175.5
   2  1012.323
   3  1040.891
   4  936.3818
   5  985.3277
   6  892.8234
   7  904.349
   8  867.366
   9  820.9399
  10  821.9683
  11  881.2494
  12  821.5655
  13  792.1422
  14  807.2602
  15  803.3943
  16  837.4181
  17  791.9366
  18  814.5104
  19  757.3298
  20  697.6261
  21  741.8258
  22  774.5181
  23  779.7675
  24  771.5289
  25  849.9114
  26  824.1889
  27  786.3335
  28  741.6657
  29  658.085
  30  687.2744
  31  785.5072
  32  779.5186
  33  765.4637
  34  814.2001
  35  898.3499
  36  846.65
  37  732.782
  38  719.1285
  39  814.6895
  40  827.2562
  41  860.0901
  42  744.1246
  43  786.7405
  44  829.7687
  45  836.2166
  46  774.0609
  47  839.9809
  48  878.0643
  49  882.9455
  50  926.1827
  51  834.1029
  52  766.9482
  53  747.6179
  54  880.9014
  55  973.7239
  56  888.0776
  57  852.1192
  58  879.2589
  59  839.7386
  60  826.952
  61  717.0522
  62  698.213
  63  739.2597
  64  809.0419
  65  821.9209
  66  695.9291
  67  688.3671
  68  797.6623
  69  880.6217
  70  874.07
  71  801.4125
  72  734.1336
  73  729.8038
  74  739.7081
  75  717.5744
  76  676.2948
  77  650.6252
  78  806.5762
  79  911.0237
  80  823.9869
  81  690.7882
  82  703.8331
  83  805.6748
  84  794.01
  85  661.7266
  86  699.6896
  87  825.3278
  88  780.2096
  89  792.8395
  90  826.6452
  91  811.4087
  92  836.764
  93  772.6811
  94  829.5413
  95  697.9037
  96  800.4171
  97  921.6907
  98  858.7957
  99  835.597
 100  928.0405
 101  863.0119
 102  818.8742
 103  756.6408
 104  774.2552
 105  837.3741
 106  830.4703
 107  768.5991
 108  694.5512
 109  695.9234
 110  796.4324
 111  789.4777
 112  852.898
 113  860.8414
 114  824.4199
 115  784.9999
 116  869.4566
 117  823.4871
 118  806.4824
 119  863.1096
 120  792.574
 121  853.4729
 122  803.1545
 123  731.5746
 124  743.1057
 125  801.4131
 126  797.7527
 127  795.5988
 128  775.0396
 129  718.0979
 130  803.5613
 131  740.8016
 132  725.8077
 133  763.5667
 134  678.4727
 135  832.0788
 136  1009.255
 137  935.3056
 138  863.4833
 139  916.6486
 140  954.56
 141  883.0501
 142  796.7605
 143  895.6566
 144  949.3955
 145  829.3274
 146  878.9835
 147  835.9871
 148  873.001
 149  883.3786
 150  899.0015
 151  825.9385
 152  805.5891
 153  777.2523
 154  776.5376
 155  880.3497
 156  786.6919
 157  685.4488
 158  736.038
 159  738.9728
 160  842.6201
 161  760.8818
 162  748.6594
 163  734.1713
 164  729.2464
 165  808.5472
 166  799.4147
 167  723.9588
 168  825.9657
 169  872.0991
 170  813.4129
 171  758.6575
 172  836.2818
 173  883.1066
 174  874.1943
 175  829.0223
 176  815.0663
 177  817.3117
 178  824.5886
 179  911.7446
 180  834.5865
 181  865.898
 182  758.9686
 183  895.5148
 184  884.4178
 185  769.3745
 186  734.565
 187  784.3236
 188  873.5083
 189  855.3231
 190  818.9858
 191  833.9521
 192  816.1472
 193  776.4396
 194  809.576
 195  821.2237
 196  782.9842
 197  776.0287
 198  822.7711
 199  844.1168
 200  787.287
 201  835.5205
 202  875.1509
 203  941.4589
 204  803.3192
 205  800.0854
 206  768.8048
 207  741.895
 208  800.7999
 209  789.8701
 210  745.6331
 211  802.332
 212  817.3229
 213  803.6741
 214  812.6392
 215  746.8355
 216  772.6771
 217  800.2189
 218  799.0261
 219  787.0952
 220  770.8208
 221  837.45
 222  830.9321
 223  810.9869
 224  740.713
 225  818.0989
 226  853.1333
 227  871.046
 228  845.4001
 229  823.9194
 230  877.5786
 231  676.3335
 232  723.3835
 233  813.0487
 234  775.6259
 235  818.6702
 236  794.5164
 237  773.6181
 238  719.5842
 239  697.8292
 240  838.0028
 241  793.2804
 242  821.965
 243  796.9183
 244  685.6286
 245  738.7338
 246  848.7443
 247  797.2039
 248  731.0438
 249  795.6148
 250  878.4368
 251  798.7979
 252  770.3997
 253  690.6117
 254  677.1862
 255  829.3504
 256  900.1267
 257  816.2892
 258  686.5693
 259  698.1816
 260  720.0977
 261  862.2155
 262  905.145
 263  754.0642
 264  700.7574
 265  833.2606
 266  893.7455
 267  769.0532
 268  630.9642
 269  700.1086
 270  806.3044
 271  797.8724
 272  735.9046
 273  664.9931
 274  757.3784
 275  800.055
 276  686.9139
 277  575.6875
 278  692.0597
 279  849.2183
 280  874.6904
 281  776.8271
 282  711.1747
 283  746.6426
 284  902.2571
 285  862.6315
 286  841.2514
 287  764.9319
 288  684.9037
 289  728.288
 290  729.5759
 291  704.5491
 292  751.441
 293  754.2443
 294  744.147
 295  699.0356
 296  734.9086
 297  890.9837
 298  818.0511
 299  818.8815
 300  872.0381
 301  793.3542
 302  778.2119
 303  827.9938
 304  785.1515
 305  809.4122
 306  756.0083
 307  797.5475
 308  977.7126
 309  902.4211
 310  781.22
 311  761.2368
 312  736.04
 313  771.5092
 314  816.358
 315  848.2867
 316  749.7826
 317  689.6002
 318  813.5183
 319  820.6426
 320  765.7025
 321  792.9155
 322  835.0014
 323  855.1782
 324  840.9526
 325  811.304
 326  848.7496
 327  910.4629
 328  933.6852
 329  825.7456
 330  899.3727
 331  881.4687
 332  893.163
 333  864.8403
 334  806.4086
 335  781.3667
 336  863.0752
 337  879.0607
 338  807.9082
 339  770.7175
 340  753.4981
 341  816.8748
 342  835.9498
 343  853.8336
 344  867.192
 345  924.8953
 346  890.2509
 347  870.7328
 348  871.5874
 349  829.7087
 350  822.5289
 351  860.67
 352  894.9551
 353  845.3233
 354  775.1068
 355  892.1741
 356  941.0649
 357  885.918
 358  905.4268
 359  871.0466
 360  851.6946
 361  833.5439
 362  895.3331
 363  852.7177
 364  844.881
 365  855.0527
 366  867.8907
 367  849.0355
 368  918.9825
 369  946.7686
 370  894.9772
 371  840.9023
 372  820.0474
 373  909.2886
 374  867.0454
 375  956.2396
 376  879.6472
 377  842.1299
 378  879.7378
 379  798.0201
 380  745.5838
 381  738.832
 382  644.6581
 383  742.1993
 384  762.8487
 385  719.1464
 386  742.9119
 387  751.4002
 388  737.1534
 389  756.3422
 390  740.8294
 391  754.7005
 392  703.791
 393  738.5583
 394  798.5298
 395  918.2559
 396  862.2159
 397  700.6953
 398  700.0375
 399  760.8594
 400  752.3663
 401  729.1989
 402  873.018
 403  905.793
 404  881.5579
 405  838.5329
 406  775.5959
 407  797.0565
 408  778.4018
 409  794.996
 410  776.5876
 411  753.5048
 412  837.7938
 413  942.8511
 414  877.9567
 415  939.0256
 416  834.0517
 417  754.656
 418  745.7649
 419  763.8524
 420  808.8151
 421  786.4847
 422  897.9479
 423  865.0031
 424  886.73
 425  825.6534
 426  791.5384
 427  783.1172
 428  773.0289
 429  801.124
 430  741.7512
 431  784.011
 432  908.4288
 433  901.2336
 434  846.6373
 435  821.6459
 436  956.2716
 437  1100.945
 438  1026.733
 439  949.7377
 440  901.0316
 441  799.8915
 442  759.6946
 443  831.439
 444  859.3615
 445  884.6798
 446  992.8665
 447  878.5344
 448  814.0127
 449  851.981
 450  795.5445
 451  941.422
 452  932.1487
 453  836.686
 454  811.1499
 455  730.541
 456  803.6163
 457  801.3441
 458  737.4315
 459  798.5027
 460  867.1335
 461  896.8694
 462  773.7346
 463  807.4435
 464  752.7447
 465  763.3068
 466  716.5984
 467  802.5825
 468  701.5986
 469  649.6473
 470  660.4294
 471  655.3839
 472  693.6511
 473  778.1694
 474  838.9627
 475  803.9053
 476  830.373
 477  766.0043
 478  714.2573
 479  707.131
 480  690.0172
 481  798.0413
 482  761.8544
 483  714.7436
 484  786.8986
 485  800.834
 486  781.8822
 487  809.4811
 488  766.5782
 489  711.6339
 490  757.2059
 491  841.4474
 492  809.7931
 493  797.2086
 494  833.6156
 495  799.0287
 496  858.9375
 497  885.1215
 498  887.1794
 499  768.6076
 500  777.2123
 501  869.3444
 502  828.7095
 503  812.4526
 504  873.2616
 505  752.0654
 506  782.4658
 507  812.5762
 508  823.9372
 509  924.5752
 510  948.902
 511  1127.994
