# Input file       =  1198101969.101099_cleaned.dat
# Candidate        =  PSR_0332+5434
# Telescope        =  AR
# Epoch_topo       =  58110.921158577534
# Epoch_bary       =  N/A
# T_sample         =  0.002
# Data Folded      =  7340032
# Data Avg         =  0.0513163905651861
# Data StdDev      =  1.00028522202769 
# Profile Bins     =  512
# Profile Avg      =  735.616414061963 
# Profile StdDev   =  119.767186876183 
# Reduced chi-sqr  =  0.745
# Prob(Noise)      <  1   (~0.0 sigma)
# P_topo (ms)      =  714.548908878011  +/- 0.000147
# P'_topo (s/s)    =  -0                +/- 7.74e-11
# P''_topo (s/s^2) =  0                 +/- 3.42e-14
# P_bary (ms)      =  N/A
# P'_bary (s/s)    =  N/A
# P''_bary (s/s^2) =  N/A
# P_orb (s)        =  N/A
# asin(i)/c (s)    =  N/A
# eccentricity     =  N/A
# w (rad)          =  N/A
# T_peri           =  N/A
######################################################
   0  648.541
   1  683.2879
   2  800.4214
   3  709.6472
   4  692.2617
   5  746.0329
   6  741.46
   7  672.2436
   8  680.4206
   9  849.8441
  10  823.3879
  11  806.6481
  12  870.6129
  13  767.3583
  14  687.494
  15  761.0644
  16  723.1852
  17  747.8955
  18  728.1767
  19  762.7313
  20  744.4774
  21  719.9929
  22  780.9391
  23  782.7352
  24  717.6713
  25  638.9699
  26  610.2543
  27  617.1267
  28  517.805
  29  771.531
  30  809.1343
  31  665.9941
  32  606.4408
  33  687.9209
  34  657.9823
  35  610.3313
  36  717.1263
  37  759.0652
  38  683.8854
  39  646.4472
  40  712.5184
  41  686.805
  42  680.0005
  43  748.4091
  44  745.6281
  45  760.2519
  46  700.1446
  47  747.437
  48  743.7205
  49  671.0936
  50  709.4009
  51  704.2883
  52  700.07
  53  716.8172
  54  760.9658
  55  694.4888
  56  637.257
  57  655.9833
  58  730.4333
  59  727.0004
  60  639.5557
  61  786.0073
  62  786.9389
  63  806.8898
  64  806.5716
  65  787.6293
  66  672.2319
  67  667.8253
  68  704.3607
  69  713.6638
  70  717.8816
  71  744.942
  72  803.2914
  73  763.0788
  74  754.7096
  75  726.2143
  76  722.4606
  77  754.408
  78  616.4161
  79  579.6965
  80  674.5384
  81  775.0125
  82  742.8082
  83  716.4512
  84  713.1678
  85  789.3763
  86  787.1352
  87  686.7075
  88  672.8772
  89  581.4434
  90  705.1025
  91  805.9568
  92  754.8475
  93  662.079
  94  722.0722
  95  675.68
  96  631.1909
  97  582.6763
  98  647.2336
  99  688.8763
 100  697.8146
 101  710.9282
 102  669.9262
 103  721.3909
 104  774.3089
 105  672.0732
 106  720.2016
 107  780.6522
 108  650.5159
 109  642.5154
 110  735.8079
 111  682.9664
 112  746.6716
 113  813.3029
 114  659.0222
 115  759.3826
 116  665.5261
 117  633.5616
 118  644.4498
 119  723.3423
 120  757.0396
 121  703.9624
 122  665.9628
 123  722.3083
 124  814.2089
 125  911.3611
 126  721.8541
 127  696.2632
 128  788.7285
 129  764.0377
 130  790.6021
 131  775.5995
 132  708.4885
 133  683.9936
 134  783.6362
 135  805.4668
 136  674.9565
 137  695.4192
 138  787.1391
 139  717.2169
 140  742.1895
 141  762.3639
 142  800.1616
 143  802.8847
 144  663.3774
 145  718.3248
 146  717.6836
 147  792.5598
 148  769.2429
 149  697.743
 150  705.3745
 151  668.3411
 152  666.4454
 153  739.8665
 154  752.4816
 155  762.2365
 156  742.4636
 157  690.7821
 158  744.8131
 159  640.9576
 160  614.7859
 161  644.0129
 162  730.8585
 163  767.1306
 164  683.7912
 165  734.757
 166  769.2003
 167  777.5759
 168  698.0174
 169  701.8476
 170  682.4227
 171  665.3007
 172  739.4093
 173  771.7145
 174  753.7809
 175  752.3414
 176  689.1594
 177  693.5926
 178  641.5051
 179  676.1915
 180  626.5502
 181  553.4898
 182  659.9714
 183  739.7901
 184  731.3526
 185  761.3324
 186  741.7573
 187  741.1626
 188  738.9289
 189  766.117
 190  713.0249
 191  714.3885
 192  710.8499
 193  648.5895
 194  749.7666
 195  788.6282
 196  793.246
 197  832.6866
 198  840.1994
 199  768.5598
 200  652.7968
 201  834.062
 202  956.5768
 203  838.4731
 204  743.2177
 205  698.4403
 206  749.1404
 207  734.9707
 208  682.8289
 209  699.6387
 210  723.2225
 211  668.8744
 212  703.3608
 213  717.7396
 214  886.7809
 215  914.6307
 216  1024.27
 217  988.6866
 218  1106.267
 219  1139.048
 220  957.3743
 221  954.9835
 222  869.8256
 223  784.0949
 224  804.4813
 225  757.2746
 226  709.4231
 227  664.6856
 228  690.3185
 229  776.3667
 230  768.5572
 231  813.1883
 232  770.1275
 233  744.3303
 234  715.9057
 235  743.0278
 236  651.4352
 237  818.7927
 238  886.7845
 239  820.66
 240  746.4978
 241  694.2528
 242  765.631
 243  749.3051
 244  834.3112
 245  874.8823
 246  833.0119
 247  716.9207
 248  672.6774
 249  823.9346
 250  726.908
 251  712.0775
 252  730.0804
 253  793.907
 254  822.3649
 255  767.4608
 256  856.2088
 257  796.9909
 258  658.0734
 259  679.395
 260  794.1285
 261  775.3676
 262  833.616
 263  787.8082
 264  671.1938
 265  686.5516
 266  813.6838
 267  727.6314
 268  708.4958
 269  692.997
 270  770.2717
 271  687.8627
 272  589.7309
 273  810.8766
 274  796.4343
 275  753.1387
 276  713.4138
 277  747.6159
 278  870.5541
 279  847.0541
 280  893.0702
 281  775.8357
 282  721.3241
 283  769.9417
 284  826.6343
 285  866.7631
 286  770.3068
 287  864.0043
 288  885.9864
 289  740.9346
 290  697.2384
 291  800.4456
 292  813.3419
 293  793.7334
 294  782.9014
 295  674.8889
 296  711.9141
 297  721.7927
 298  664.61
 299  646.4808
 300  609.407
 301  691.4279
 302  728.1729
 303  657.7534
 304  548.2323
 305  676.6517
 306  725.9703
 307  698.7709
 308  625.6044
 309  801.2817
 310  745.0237
 311  610.6334
 312  699.9308
 313  655.569
 314  728.535
 315  724.2836
 316  768.728
 317  699.911
 318  680.2571
 319  843.4266
 320  723.7676
 321  697.3517
 322  699.9308
 323  740.336
 324  776.4858
 325  764.8989
 326  760.3889
 327  709.2253
 328  700.4204
 329  700.2153
 330  818.4473
 331  749.0818
 332  713.0043
 333  671.0262
 334  679.7657
 335  638.4562
 336  600.0035
 337  655.0681
 338  824.0491
 339  766.2073
 340  795.0477
 341  807.2996
 342  782.2151
 343  768.3889
 344  798.1546
 345  775.0256
 346  781.0128
 347  725.3362
 348  775.9302
 349  811.6573
 350  709.7394
 351  733.0841
 352  735.77
 353  699.4542
 354  664.6025
 355  710.4377
 356  636.2051
 357  760.4871
 358  773.5141
 359  754.9057
 360  693.5543
 361  672.0116
 362  823.1328
 363  829.8957
 364  667.9598
 365  657.1156
 366  741.3539
 367  688.9941
 368  669.1243
 369  740.6982
 370  657.1664
 371  671.0144
 372  647.5944
 373  611.3252
 374  713.1542
 375  693.1771
 376  642.4877
 377  610.2411
 378  671.6605
 379  728.9181
 380  743.8381
 381  646.0732
 382  680.4171
 383  587.0162
 384  475.7299
 385  543.0291
 386  599.9614
 387  693.9683
 388  778.791
 389  682.0782
 390  668.8051
 391  748.155
 392  749.9933
 393  705.7264
 394  644.7424
 395  699.3809
 396  736.712
 397  728.1706
 398  763.781
 399  692.3561
 400  765.2772
 401  752.9393
 402  726.1711
 403  658.4351
 404  693.5146
 405  831.5613
 406  747.3154
 407  645.0301
 408  645.3484
 409  772.6457
 410  834.5842
 411  846.8708
 412  768.2308
 413  686.1808
 414  702.3724
 415  780.6716
 416  826.2324
 417  841.1401
 418  821.7427
 419  738.6203
 420  681.8056
 421  795.0436
 422  710.2797
 423  729.1113
 424  720.9647
 425  768.084
 426  778.3768
 427  760.8535
 428  725.235
 429  757.0056
 430  807.3922
 431  738.7186
 432  672.5618
 433  629.503
 434  760.9302
 435  728.6708
 436  604.5295
 437  698.1932
 438  730.6577
 439  630.1219
 440  606.3479
 441  652.0081
 442  640.3743
 443  703.5366
 444  696.5638
 445  681.7922
 446  679.2574
 447  631.5609
 448  741.6527
 449  750.6388
 450  792.8266
 451  835.2762
 452  773.9214
 453  819.2527
 454  840.0355
 455  822.3314
 456  764.7448
 457  766.957
 458  736.6954
 459  773.4472
 460  769.6669
 461  777.9681
 462  805.665
 463  764.0787
 464  847.8563
 465  733.1299
 466  683.2776
 467  761.2256
 468  723.8694
 469  733.9557
 470  736.3981
 471  689.7281
 472  608.7957
 473  741.4079
 474  776.5115
 475  714.5954
 476  756.4803
 477  795.6581
 478  799.2358
 479  754.2962
 480  783.3144
 481  934.3282
 482  840.334
 483  846.4327
 484  862.9514
 485  736.9846
 486  765.3489
 487  768.201
 488  751.5253
 489  811.8755
 490  788.4556
 491  890.491
 492  814.6776
 493  697.8215
 494  825.2339
 495  893.0898
 496  681.8679
 497  670.7155
 498  774.809
 499  752.1349
 500  827.4515
 501  826.6642
 502  840.2755
 503  728.5671
 504  729.0859
 505  770.6006
 506  721.7581
 507  698.3558
 508  672.0809
 509  746.5385
 510  752.2826
 511  698.052
