# Input file       =  1198244740.110395_cleaned.dat
# Candidate        =  PSR_0332+5434
# Telescope        =  AR
# Epoch_topo       =  58112.573600814758
# Epoch_bary       =  N/A
# T_sample         =  0.002
# Data Folded      =  7208960
# Data Avg         =  0.0606745655931505
# Data StdDev      =  1.00047477923389 
# Profile Bins     =  512
# Profile Avg      =  854.164200644695 
# Profile StdDev   =  118.715512706108 
# Reduced chi-sqr  =  1.060
# Prob(Noise)      <  0.169   (~1.0 sigma)
# P_topo (ms)      =  714.550074117403  +/- 0.000215
# P'_topo (s/s)    =  -0                +/- 1.16e-10
# P''_topo (s/s^2) =  0                 +/- 5.19e-14
# P_bary (ms)      =  N/A
# P'_bary (s/s)    =  N/A
# P''_bary (s/s^2) =  N/A
# P_orb (s)        =  N/A
# asin(i)/c (s)    =  N/A
# eccentricity     =  N/A
# w (rad)          =  N/A
# T_peri           =  N/A
######################################################
   0  902.3386
   1  980.2968
   2  869.2706
   3  844.2672
   4  785.8505
   5  773.1838
   6  840.9033
   7  850.5282
   8  796.9449
   9  807.5582
  10  964.5718
  11  1004.502
  12  830.3997
  13  751.1401
  14  938.7969
  15  863.8177
  16  947.057
  17  916.1646
  18  844.1182
  19  825.4726
  20  892.7204
  21  917.2668
  22  881.4745
  23  771.0286
  24  855.7512
  25  926.3716
  26  910.6548
  27  882.8213
  28  877.1303
  29  849.0266
  30  824.3956
  31  791.9069
  32  820.6321
  33  840.4946
  34  743.7017
  35  775.1724
  36  877.5826
  37  923.2598
  38  831.2535
  39  881.6708
  40  701.2613
  41  817.5134
  42  750.826
  43  809.97
  44  952.8312
  45  825.7189
  46  806.5782
  47  908.1453
  48  995.6333
  49  866.4737
  50  778.1958
  51  758.5167
  52  745.2438
  53  829.4226
  54  747.7714
  55  746.3774
  56  821.1526
  57  1003.422
  58  907.4542
  59  709.468
  60  706.7894
  61  686.8089
  62  830.2527
  63  890.9008
  64  866.6279
  65  759.228
  66  842.9637
  67  851.0411
  68  899.3438
  69  894.6047
  70  756.4121
  71  850.6074
  72  863.0618
  73  839.3529
  74  664.0422
  75  671.4622
  76  792.1954
  77  812.8382
  78  901.7846
  79  849.1
  80  852.6885
  81  904.5089
  82  857.1322
  83  732.3858
  84  709.6437
  85  665.467
  86  713.2115
  87  744.9689
  88  821.1088
  89  866.3319
  90  781.4148
  91  768.3029
  92  822.9471
  93  760.7106
  94  828.3082
  95  853.8239
  96  857.6459
  97  794.9887
  98  815.2554
  99  840.8802
 100  843.4854
 101  746.8984
 102  669.9582
 103  710.9626
 104  749.2995
 105  750.9794
 106  733.2161
 107  800.8234
 108  923.7985
 109  810.6272
 110  723.7461
 111  802.305
 112  840.8775
 113  811.8074
 114  866.5612
 115  862.0223
 116  892.4974
 117  891.7901
 118  829.6921
 119  780.282
 120  810.9587
 121  830.7593
 122  967.5037
 123  857.9684
 124  914.5852
 125  714.4724
 126  748.7708
 127  809.4386
 128  822.7678
 129  873.0258
 130  806.7336
 131  853.1749
 132  881.452
 133  809.8045
 134  767.5974
 135  737.9061
 136  760.4113
 137  714.1636
 138  796.5828
 139  822.1438
 140  712.4953
 141  722.5235
 142  765.3215
 143  840.6995
 144  801.9277
 145  761.6014
 146  793.7812
 147  766.512
 148  856.7213
 149  823.599
 150  818.7668
 151  724.8086
 152  878.9596
 153  969.4199
 154  818.165
 155  744.3618
 156  765.8564
 157  678.0776
 158  677.2711
 159  816.8284
 160  857.7616
 161  783.0657
 162  820.8615
 163  940.8394
 164  919.2808
 165  938.2285
 166  964.3024
 167  1002.886
 168  831.3744
 169  711.2214
 170  691.443
 171  780.6841
 172  765.1407
 173  865.7663
 174  894.7415
 175  857.136
 176  769.3527
 177  861.3508
 178  644.7688
 179  579.8994
 180  710.7534
 181  768.2424
 182  751.4597
 183  763.7103
 184  898.7054
 185  868.8988
 186  772.7051
 187  875.444
 188  829.9142
 189  845.5774
 190  945.9607
 191  974.8359
 192  901.8487
 193  834.0091
 194  876.2332
 195  997.8586
 196  911.2164
 197  890.2428
 198  812.5948
 199  761.739
 200  898.6817
 201  819.1694
 202  913.7885
 203  913.8278
 204  861.8193
 205  817.4255
 206  841.0548
 207  889.9782
 208  769.5762
 209  733.4526
 210  765.6802
 211  862.8885
 212  868.051
 213  952.9504
 214  883.5499
 215  930.3298
 216  948.5675
 217  921.9681
 218  955.4603
 219  831.9855
 220  869.5773
 221  891.425
 222  847.0181
 223  747.5746
 224  783.832
 225  886.3115
 226  933.7784
 227  896.5576
 228  847.6731
 229  807.9507
 230  909.3454
 231  930.6363
 232  825.2675
 233  782.9839
 234  796.1169
 235  821.2271
 236  897.2793
 237  891.6398
 238  921.8046
 239  889.2667
 240  855.8105
 241  749.656
 242  784.4388
 243  898.1755
 244  806.0084
 245  914.9872
 246  917.2209
 247  916.8237
 248  901.9641
 249  864.5875
 250  910.6666
 251  867.078
 252  874.7303
 253  890.0208
 254  961.398
 255  1005.899
 256  929.4706
 257  808.0178
 258  804.7703
 259  874.5283
 260  987.8832
 261  884.0519
 262  897.0114
 263  885.8638
 264  774.3631
 265  810.4995
 266  869.6729
 267  828.9152
 268  861.978
 269  770.6562
 270  859.358
 271  900.6146
 272  872.5321
 273  774.1537
 274  866.6481
 275  880.9903
 276  974.7474
 277  951.3193
 278  909.4556
 279  831.6313
 280  844.2296
 281  822.7369
 282  786.9555
 283  802.5519
 284  813.3355
 285  808.1228
 286  826.5693
 287  786.5919
 288  793.0882
 289  811.0569
 290  816.7602
 291  735.7598
 292  766.4139
 293  822.8732
 294  827.5329
 295  913.008
 296  863.7491
 297  853.6816
 298  857.0551
 299  851.9265
 300  908.6331
 301  843.1593
 302  925.0308
 303  861.8751
 304  855.9056
 305  890.7657
 306  800.4432
 307  847.6365
 308  841.1223
 309  783.3409
 310  864.4764
 311  984.449
 312  1022.857
 313  979.9592
 314  954.4212
 315  872.1867
 316  846.3337
 317  901.6593
 318  919.1925
 319  817.8112
 320  849.7873
 321  916.8757
 322  922.8029
 323  877.7488
 324  893.7947
 325  962.6689
 326  903.4752
 327  907.135
 328  884.9083
 329  928.7155
 330  891.0589
 331  905.7241
 332  839.2396
 333  823.1301
 334  936.1513
 335  982.4757
 336  889.5561
 337  871.5355
 338  819.4863
 339  831.2223
 340  865.6385
 341  805.7942
 342  788.7006
 343  839.3338
 344  936.4363
 345  996.823
 346  909.1401
 347  907.8813
 348  905.6497
 349  995.4534
 350  832.701
 351  765.5103
 352  792.1125
 353  817.4291
 354  868.6369
 355  711.2595
 356  741.9006
 357  817.5968
 358  763.5635
 359  900.6926
 360  882.0634
 361  811.5087
 362  815.006
 363  836.9941
 364  901.5436
 365  862.2724
 366  863.7689
 367  987.4272
 368  872.8873
 369  926.8159
 370  996.5556
 371  857.2395
 372  864.1374
 373  965.6115
 374  939.2334
 375  843.7161
 376  829.6235
 377  964.9007
 378  997.2402
 379  1004.066
 380  808.5743
 381  895.1871
 382  959.6716
 383  964.9878
 384  893.7664
 385  906.2585
 386  1049.913
 387  1052.577
 388  962.124
 389  857.4203
 390  808.5215
 391  790.0248
 392  758.9432
 393  914.3156
 394  932.7136
 395  855.2501
 396  870.7195
 397  839.0615
 398  811.3942
 399  740.0023
 400  762.6949
 401  827.7562
 402  782.8458
 403  819.3991
 404  845.0529
 405  843.7227
 406  838.7126
 407  793.3974
 408  803.2207
 409  864.0733
 410  827.1678
 411  809.2978
 412  887.1132
 413  945.0774
 414  896.9808
 415  794.5114
 416  709.8526
 417  775.0306
 418  818.4991
 419  857.6461
 420  876.3029
 421  866.1294
 422  847.2793
 423  745.717
 424  703.8957
 425  803.2665
 426  795.8026
 427  895.8017
 428  952.1389
 429  990.5203
 430  904.7377
 431  837.2282
 432  881.5637
 433  928.1177
 434  1054.111
 435  1182.028
 436  1378.038
 437  1483.278
 438  1374.405
 439  1091.523
 440  1021.63
 441  950.9025
 442  891.6205
 443  852.1113
 444  920.0375
 445  949.8951
 446  853.0302
 447  892.512
 448  979.3199
 449  945.6229
 450  852.1871
 451  862.9006
 452  859.4505
 453  1013.629
 454  955.0069
 455  875.7341
 456  784.6146
 457  815.8536
 458  1051.127
 459  847.583
 460  770.6102
 461  793.6703
 462  779.7816
 463  808.1624
 464  759.3239
 465  867.9265
 466  844.6019
 467  752.0358
 468  770.6697
 469  873.0129
 470  885.6439
 471  846.9869
 472  853.2833
 473  874.5961
 474  857.9863
 475  889.8509
 476  923.1237
 477  809.3179
 478  889.239
 479  868.9027
 480  925.5206
 481  1035.342
 482  887.5744
 483  794.5429
 484  870.8118
 485  976.7524
 486  995.8281
 487  840.7798
 488  896.1931
 489  829.5817
 490  893.3201
 491  899.7259
 492  848.3505
 493  803.9693
 494  808.9915
 495  726.4668
 496  741.7217
 497  766.6779
 498  808.6799
 499  859.2862
 500  868.0839
 501  952.9607
 502  854.6235
 503  793.3767
 504  705.4883
 505  797.3123
 506  827.9637
 507  828.8337
 508  934.8912
 509  995.3912
 510  923.7191
 511  880.5494
