# Input file       =  1198330917.113058_cleaned.dat
# Candidate        =  PSR_0332+5434
# Telescope        =  AR
# Epoch_topo       =  58113.571019827061
# Epoch_bary       =  N/A
# T_sample         =  0.002
# Data Folded      =  7143424
# Data Avg         =  0.0760017913471294
# Data StdDev      =  1.00031765667259 
# Profile Bins     =  512
# Profile Avg      =  1060.33443965411 
# Profile StdDev   =  118.156105638385 
# Reduced chi-sqr  =  1.208
# Prob(Noise)      <  0.000846   (~3.1 sigma)
# P_topo (ms)      =  714.550980827805  +/- 0.00024
# P'_topo (s/s)    =  -0                +/- 1.3e-10
# P''_topo (s/s^2) =  0                 +/- 5.89e-14
# P_bary (ms)      =  N/A
# P'_bary (s/s)    =  N/A
# P''_bary (s/s^2) =  N/A
# P_orb (s)        =  N/A
# asin(i)/c (s)    =  N/A
# eccentricity     =  N/A
# w (rad)          =  N/A
# T_peri           =  N/A
######################################################
   0  1567.786
   1  1515.152
   2  1412.655
   3  1261.115
   4  1216.39
   5  1111.525
   6  1038.288
   7  984.9354
   8  1026.383
   9  987.6678
  10  905.5363
  11  1078.561
  12  1077.004
  13  1002.631
  14  1096.553
  15  959.7812
  16  1090.479
  17  1133.455
  18  1104.734
  19  1046.695
  20  1035.973
  21  1003.916
  22  1045.288
  23  1037.446
  24  1052.109
  25  959.308
  26  1105.934
  27  1091.582
  28  1105.229
  29  1190.039
  30  1045.056
  31  1106.92
  32  1075.294
  33  1067.64
  34  1004.594
  35  1102.67
  36  1213.56
  37  1052.851
  38  959.5923
  39  1017.324
  40  1148.946
  41  1220.329
  42  1167.507
  43  1045.389
  44  1086.798
  45  1138.979
  46  1009.972
  47  934.2639
  48  1098.298
  49  1132.677
  50  1101.649
  51  1252.488
  52  1173.534
  53  1073.605
  54  999.0677
  55  977.9953
  56  1021.209
  57  1096.732
  58  967.7484
  59  1057.294
  60  1024.674
  61  1004.306
  62  1056.574
  63  1064.47
  64  1084.406
  65  1005.688
  66  1132.843
  67  1009.059
  68  998.0203
  69  945.9737
  70  1026.306
  71  1131.367
  72  1154.481
  73  1166.304
  74  1085.012
  75  990.7906
  76  1062.619
  77  1061.865
  78  1118.821
  79  1146.387
  80  1197.939
  81  1154.779
  82  1164.521
  83  1082.9
  84  1115.39
  85  1066.755
  86  1135.425
  87  1137.099
  88  980.7028
  89  1001.543
  90  1031.982
  91  1158.022
  92  1030.415
  93  1070.895
  94  1032.988
  95  969.0593
  96  968.9918
  97  1071.227
  98  1020.002
  99  1117.646
 100  1181.695
 101  1258.253
 102  1269.793
 103  1141.387
 104  1128.868
 105  1016.459
 106  1017.03
 107  1092.872
 108  1142.828
 109  1080.603
 110  1039.335
 111  1182.463
 112  1120.764
 113  1129.054
 114  1136.326
 115  1122.759
 116  1283.943
 117  1173.494
 118  1004.158
 119  1056.603
 120  1168.848
 121  1099.234
 122  966.5866
 123  1089.931
 124  1089.516
 125  1098.356
 126  1061.81
 127  1047.049
 128  971.0226
 129  1103.423
 130  1132.88
 131  1011.46
 132  1038.796
 133  1150.788
 134  1188.033
 135  1071.266
 136  1011.165
 137  1134.829
 138  1005.948
 139  945.7034
 140  1018.647
 141  1069.045
 142  1078.552
 143  1070.719
 144  1037.766
 145  1098.529
 146  1021.514
 147  913.3961
 148  1019.331
 149  1138.506
 150  1057.023
 151  1101.873
 152  1155.879
 153  1097.179
 154  1078.132
 155  1176.03
 156  1050.054
 157  1077.578
 158  1265.436
 159  1189.165
 160  1151.128
 161  1100.944
 162  1169.006
 163  1188.183
 164  1107.471
 165  1033.377
 166  1074.39
 167  1140.574
 168  1088.317
 169  939.5479
 170  997.3164
 171  1020.06
 172  983.6593
 173  1021.061
 174  1179.308
 175  1137.18
 176  1105.034
 177  1098.667
 178  1209.179
 179  1125.527
 180  1040.573
 181  1215.816
 182  1190.625
 183  1170.823
 184  1127.872
 185  1162.679
 186  1063.759
 187  1041.975
 188  1066.898
 189  1003.75
 190  1070.697
 191  1067.653
 192  1095.993
 193  1031.177
 194  894.1568
 195  997.6715
 196  979.9333
 197  1018.519
 198  1113.749
 199  1121.738
 200  999.505
 201  1051.9
 202  892.4167
 203  927.431
 204  885.3184
 205  1013.51
 206  1016.935
 207  1023.541
 208  1083.694
 209  1060.435
 210  952.6701
 211  1056.984
 212  1035.427
 213  1038.262
 214  1037.467
 215  1028.736
 216  979.4827
 217  997.1819
 218  1088.91
 219  1050.187
 220  965.2998
 221  948.0162
 222  983.193
 223  987.8696
 224  1103.752
 225  1081.35
 226  1008.314
 227  928.3219
 228  1077.887
 229  1177.032
 230  1165.734
 231  1023.574
 232  1020.378
 233  1095.856
 234  1057.814
 235  1074.679
 236  1006.759
 237  1007.295
 238  1007.313
 239  900.6169
 240  1065.542
 241  1083.459
 242  967.4722
 243  1002.949
 244  1113.535
 245  1128.272
 246  976.5795
 247  991.6484
 248  1118.632
 249  1135.126
 250  1050.821
 251  1019.891
 252  894.9673
 253  1001.913
 254  966.5507
 255  1068.78
 256  964.3266
 257  1059.683
 258  1146.233
 259  1005.472
 260  898.8904
 261  952.2387
 262  992.7527
 263  1118.341
 264  967.3526
 265  934.9116
 266  1055.958
 267  1075.91
 268  947.7256
 269  996.6137
 270  1048.883
 271  1030.997
 272  1054.629
 273  1093.223
 274  1079.669
 275  1160.543
 276  1191.626
 277  1168.305
 278  1168.477
 279  1063.946
 280  1069.166
 281  1104.364
 282  1035.559
 283  1062.031
 284  1070.346
 285  986.0817
 286  979.9293
 287  1075.535
 288  1141.021
 289  1183.051
 290  1034.73
 291  1041.215
 292  1049.879
 293  1033.217
 294  1020.802
 295  981.5497
 296  985.4899
 297  1124.478
 298  1097.657
 299  1071.67
 300  1042.261
 301  1115.826
 302  1085.805
 303  1022.156
 304  1148.337
 305  1249.345
 306  1163.401
 307  1005.818
 308  988.9761
 309  883.0131
 310  886.286
 311  836.0496
 312  1130.828
 313  1185.435
 314  1233.145
 315  1120.908
 316  1083.739
 317  1164.076
 318  1091.806
 319  1069.989
 320  1101.742
 321  947.7662
 322  1031.242
 323  1017.817
 324  1029.232
 325  1065.418
 326  993.5356
 327  988.7308
 328  1060.022
 329  1090.415
 330  1134.231
 331  1133.292
 332  1113.317
 333  1078.201
 334  1007.204
 335  960.4489
 336  1044.197
 337  940.2009
 338  989.3245
 339  1017.145
 340  891.8321
 341  1011.391
 342  1020.193
 343  1081.889
 344  1172.218
 345  1025.631
 346  1051.007
 347  934.8928
 348  842.3229
 349  1013.389
 350  1136.421
 351  1081.245
 352  966.759
 353  1004.573
 354  969.5894
 355  1088.126
 356  920.4287
 357  1015.087
 358  1069.989
 359  1061.957
 360  1079.81
 361  920.6884
 362  1022.47
 363  1136.497
 364  1211.933
 365  1095.624
 366  1103.074
 367  1092.513
 368  958.3527
 369  1024.33
 370  1138.143
 371  1137.612
 372  975.2195
 373  1004.154
 374  1063.938
 375  1043.229
 376  985.7471
 377  976.4291
 378  1101.251
 379  1129.164
 380  1047.88
 381  1051.514
 382  1020.226
 383  1068.552
 384  1092.407
 385  1022.783
 386  1060.208
 387  1084.137
 388  962.4624
 389  1044.118
 390  1054.731
 391  954.0656
 392  960.4843
 393  920.0576
 394  858.0543
 395  910.2474
 396  967.7448
 397  960.8519
 398  1045.039
 399  1023.601
 400  1052.142
 401  1003.555
 402  984.7648
 403  1062.532
 404  941.2383
 405  917.9749
 406  1089.999
 407  1135.462
 408  1081.962
 409  1036.65
 410  972.1005
 411  863.1238
 412  906.1544
 413  1042.102
 414  978.1268
 415  892.3914
 416  977.2144
 417  1050.455
 418  985.224
 419  986.79
 420  930.6238
 421  885.9691
 422  898.3973
 423  1023.757
 424  998.5304
 425  1047.803
 426  982.6923
 427  896.2073
 428  924.1146
 429  1029.227
 430  1080.751
 431  1082.631
 432  979.3456
 433  964.5276
 434  1099.299
 435  1148.389
 436  1173.928
 437  1187.664
 438  1153.559
 439  1050.629
 440  1043.782
 441  1162.001
 442  1108.718
 443  1014.196
 444  1102.796
 445  1163.297
 446  1312.239
 447  1257.894
 448  1213.862
 449  1165.004
 450  1183.776
 451  1070.676
 452  955.3212
 453  999.9008
 454  996.6584
 455  1070.937
 456  1052.073
 457  1008.993
 458  1020.794
 459  957.313
 460  936.6885
 461  1032.277
 462  997.454
 463  1033.215
 464  1167.497
 465  1083.952
 466  931.1291
 467  878.679
 468  1090.677
 469  1076.592
 470  1136.557
 471  1121.084
 472  1023.92
 473  949.0122
 474  1096.014
 475  1078.581
 476  1020.865
 477  976.225
 478  1047.344
 479  1020.248
 480  970.2654
 481  898.2529
 482  871.4306
 483  927.4653
 484  934.6044
 485  954.3803
 486  1056.259
 487  1084.448
 488  942.1959
 489  1037.528
 490  953.3706
 491  944.0121
 492  1057.373
 493  1082.915
 494  1096.124
 495  1027.603
 496  969.4798
 497  1036.008
 498  1089.043
 499  972.5222
 500  1081.363
 501  1079.807
 502  1184.01
 503  1262.303
 504  1231.287
 505  1095.349
 506  1181.109
 507  1213.521
 508  1171.456
 509  1299.107
 510  1526.836
 511  1534.866
