# Input file       =  1198360408.106056_cleaned.dat
# Candidate        =  PSR_0332+5434
# Telescope        =  AR
# Epoch_topo       =  58113.912350764534
# Epoch_bary       =  N/A
# T_sample         =  0.002
# Data Folded      =  7340032
# Data Avg         =  0.0445592170250597
# Data StdDev      =  0.999755625975602
# Profile Bins     =  512
# Profile Avg      =  638.643448638402 
# Profile StdDev   =  119.703776732813 
# Reduced chi-sqr  =  0.888
# Prob(Noise)      <  0.967   (~0.0 sigma)
# P_topo (ms)      =  714.551648658119  +/- 0.000159
# P'_topo (s/s)    =  -0                +/- 8.39e-11
# P''_topo (s/s^2) =  0                 +/- 3.7e-14
# P_bary (ms)      =  N/A
# P'_bary (s/s)    =  N/A
# P''_bary (s/s^2) =  N/A
# P_orb (s)        =  N/A
# asin(i)/c (s)    =  N/A
# eccentricity     =  N/A
# w (rad)          =  N/A
# T_peri           =  N/A
######################################################
   0  1099.627
   1  993.9871
   2  788.2433
   3  699.7107
   4  639.8474
   5  546.7912
   6  589.1391
   7  633.4628
   8  567.3622
   9  589.8846
  10  665.5185
  11  558.0925
  12  588.9962
  13  621.6238
  14  597.6918
  15  637.4542
  16  532.4063
  17  454.1188
  18  529.3877
  19  667.4564
  20  596.4658
  21  636.6979
  22  598.1287
  23  552.3553
  24  557.0652
  25  652.1372
  26  578.9108
  27  610.0803
  28  616.5699
  29  628.7581
  30  454.7054
  31  553.7584
  32  696.8
  33  642.9166
  34  737.9003
  35  660.7901
  36  634.7199
  37  589.7898
  38  643.1058
  39  732.1364
  40  650.8856
  41  677.4579
  42  745.9938
  43  778.7823
  44  701.5839
  45  625.387
  46  591.1273
  47  588.0378
  48  733.812
  49  678.2355
  50  626.0696
  51  606.5604
  52  635.606
  53  636.4897
  54  609.0867
  55  685.0305
  56  803.4437
  57  776.3
  58  754.3185
  59  733.6036
  60  781.567
  61  696.085
  62  646.9181
  63  595.3575
  64  638.4758
  65  664.4764
  66  668.6342
  67  534.5458
  68  635.6942
  69  561.1989
  70  635.4166
  71  695.5679
  72  645.7222
  73  605.7543
  74  642.4496
  75  611.2476
  76  595.0712
  77  757.4301
  78  730.8793
  79  664.2719
  80  662.6393
  81  658.8694
  82  622.7917
  83  545.3395
  84  678.1381
  85  705.3091
  86  654.0407
  87  568.9467
  88  519.4064
  89  575.3838
  90  663.577
  91  713.1293
  92  678.8434
  93  612.6093
  94  595.7566
  95  635.9965
  96  612.8859
  97  610.5599
  98  673.8429
  99  758.2538
 100  652.8576
 101  699.787
 102  743.9081
 103  523.2287
 104  582.2648
 105  575.0687
 106  586.1335
 107  603.2397
 108  633.7964
 109  740.6414
 110  641.0594
 111  590.7538
 112  639.6228
 113  676.4904
 114  627.7874
 115  600.7426
 116  556.7901
 117  527.5979
 118  576.6543
 119  608.4098
 120  722.5674
 121  617.0867
 122  575.0442
 123  603.309
 124  649.1153
 125  692.4474
 126  611.0991
 127  751.2963
 128  697.6328
 129  540.6318
 130  633.5176
 131  607.4952
 132  658.5944
 133  688.0564
 134  661.9336
 135  702.4741
 136  657.5731
 137  611.7841
 138  600.079
 139  637.0914
 140  732.069
 141  693.9677
 142  712.0779
 143  695.3711
 144  704.3835
 145  694.5199
 146  601.1895
 147  642.9675
 148  731.4003
 149  724.4919
 150  621.1588
 151  634.864
 152  737.1151
 153  755.462
 154  733.0092
 155  624.3179
 156  685.2659
 157  599.674
 158  723.0042
 159  703.3962
 160  740.5045
 161  730.6539
 162  692.4238
 163  718.4539
 164  787.3565
 165  722.9755
 166  685.7257
 167  705.4067
 168  763.1453
 169  658.4017
 170  712.9314
 171  735.8123
 172  709.9637
 173  600.9102
 174  588.2659
 175  582.6112
 176  649.9952
 177  789.7563
 178  697.3405
 179  540.918
 180  566.7781
 181  615.992
 182  683.3845
 183  577.8683
 184  563.6239
 185  687.0346
 186  678.0386
 187  631.3865
 188  708.3943
 189  725.2524
 190  715.3111
 191  570.1895
 192  449.835
 193  570.2672
 194  616.3897
 195  567.5573
 196  605.7429
 197  733.7224
 198  730.346
 199  674.4763
 200  656.5115
 201  758.0687
 202  722.0997
 203  690.6987
 204  640.1162
 205  664.9057
 206  771.5815
 207  694.6098
 208  562.352
 209  736.9448
 210  719.9297
 211  579.2706
 212  652.3364
 213  758.4451
 214  673.824
 215  560.6559
 216  673.3703
 217  729.2495
 218  731.022
 219  611.6097
 220  565.7798
 221  594.1924
 222  579.6026
 223  527.2157
 224  505.0472
 225  591.2721
 226  669.0246
 227  594.6324
 228  649.3941
 229  605.1681
 230  597.5859
 231  683.9459
 232  726.5094
 233  742.7513
 234  715.3015
 235  721.6937
 236  596.2664
 237  588.2766
 238  629.4269
 239  623.3964
 240  669.5975
 241  583.9944
 242  691.4464
 243  633.5973
 244  623.3593
 245  505.1164
 246  658.9551
 247  544.3521
 248  511.9788
 249  661.4915
 250  683.7412
 251  529.9258
 252  515.08
 253  644.4242
 254  642.0183
 255  684.7693
 256  572.2446
 257  595.0432
 258  547.2188
 259  676.7098
 260  679.9387
 261  641.5146
 262  556.3073
 263  537.8815
 264  492.4751
 265  499.1309
 266  500.0766
 267  516.4276
 268  518.0563
 269  508.3058
 270  594.3041
 271  718.7985
 272  638.0192
 273  644.0114
 274  630.1334
 275  733.597
 276  717.118
 277  659.8403
 278  622.3588
 279  523.3076
 280  493.9179
 281  638.2407
 282  630.8252
 283  578.2297
 284  566.6691
 285  567.8748
 286  500.1637
 287  489.5576
 288  532.6111
 289  619.4612
 290  642.4916
 291  663.3436
 292  647.8322
 293  562.8414
 294  523.5778
 295  617.8206
 296  601.0098
 297  591.3342
 298  609.8729
 299  553.5466
 300  581.349
 301  559.7797
 302  480.5136
 303  447.9492
 304  573.679
 305  649.6348
 306  635.6669
 307  593.5253
 308  781.942
 309  763.7941
 310  650.3087
 311  483.9735
 312  483.9866
 313  499.7381
 314  608.0074
 315  622.2331
 316  526.1752
 317  632.0229
 318  587.9969
 319  473.2965
 320  526.4171
 321  546.5146
 322  476.7896
 323  437.1562
 324  542.3736
 325  571.0132
 326  557.1376
 327  558.6014
 328  613.1846
 329  587.3794
 330  624.3533
 331  595.0803
 332  604.4918
 333  632.9813
 334  576.4257
 335  622.4514
 336  601.4316
 337  547.941
 338  616.6168
 339  716.3509
 340  816.2961
 341  770.0291
 342  670.5325
 343  617.0419
 344  465.4899
 345  631.2599
 346  564.7435
 347  587.0643
 348  670.4974
 349  580.1691
 350  648.9813
 351  654.216
 352  621.201
 353  754.0239
 354  618.3879
 355  620.3212
 356  678.1561
 357  701.2731
 358  766.7123
 359  677.5036
 360  605.9894
 361  611.5941
 362  670.0546
 363  675.3813
 364  602.7714
 365  592.9025
 366  628.5616
 367  646.2614
 368  585.671
 369  609.7346
 370  744.4967
 371  761.709
 372  643.41
 373  686.0359
 374  732.9102
 375  687.2077
 376  576.7729
 377  589.6119
 378  582.5491
 379  580.4917
 380  599.7086
 381  775.5385
 382  765.7913
 383  667.4794
 384  694.5728
 385  587.2288
 386  521.1971
 387  523.0681
 388  674.8303
 389  730.2978
 390  769.3131
 391  818.0623
 392  702.1534
 393  593.8599
 394  631.4437
 395  710.6637
 396  806.1795
 397  807.0765
 398  803.0322
 399  668.7567
 400  633.7048
 401  604.9787
 402  567.1733
 403  624.3713
 404  632.0555
 405  546.9438
 406  552.2458
 407  597.2444
 408  661.4656
 409  571.6561
 410  619.2753
 411  614.6957
 412  526.9497
 413  520.6747
 414  489.5579
 415  483.577
 416  599.2259
 417  599.0565
 418  603.2293
 419  701.7573
 420  658.0856
 421  628.9813
 422  552.3903
 423  581.1241
 424  567.4955
 425  628.9156
 426  616.264
 427  602.0801
 428  547.145
 429  656.5173
 430  597.5375
 431  566.6242
 432  672.0236
 433  616.223
 434  527.5141
 435  628.6575
 436  682.7239
 437  663.8047
 438  701.8715
 439  725.968
 440  623.6165
 441  578.086
 442  608.2968
 443  797.176
 444  798.9045
 445  669.1295
 446  716.0848
 447  679.9177
 448  703.9714
 449  751.6427
 450  669.1268
 451  623.0738
 452  585.9687
 453  562.0976
 454  611.4489
 455  672.6954
 456  639.8918
 457  634.9554
 458  577.6348
 459  582.41
 460  651.3688
 461  657.7783
 462  630.5389
 463  624.2758
 464  611.9478
 465  723.7055
 466  584.4966
 467  547.999
 468  628.3246
 469  556.426
 470  534.0797
 471  626.5864
 472  650.209
 473  624.3434
 474  643.9729
 475  700.6249
 476  648.6947
 477  718.308
 478  693.4095
 479  662.8738
 480  666.3377
 481  621.5265
 482  678.3656
 483  633.0446
 484  611.2104
 485  552.8741
 486  611.5033
 487  654.3911
 488  687.8974
 489  677.5698
 490  584.5267
 491  572.5676
 492  637.5464
 493  500.69
 494  549.2635
 495  515.6319
 496  614.7407
 497  573.7109
 498  739.2985
 499  791.2917
 500  727.6482
 501  636.6783
 502  679.4083
 503  824.991
 504  794.7022
 505  767.689
 506  789.2126
 507  752.5934
 508  719.898
 509  798.7148
 510  940.6253
 511  994.9104
