# Input file       =  1198101969.101099_cleaned.dat
# Candidate        =  PSR_0332+5434
# Telescope        =  AR
# Epoch_topo       =  58110.921158577534
# Epoch_bary       =  N/A
# T_sample         =  0.002
# Data Folded      =  7340032
# Data Avg         =  0.289311305998127
# Data StdDev      =  5.44963198306823 
# Profile Bins     =  256
# Profile Avg      =  8294.93606719571 
# Profile StdDev   =  922.775741697426 
# Reduced chi-sqr  =  0.731
# Prob(Noise)      <  1   (~0.0 sigma)
# P_topo (ms)      =  714.548908895077  +/- 0.000971
# P'_topo (s/s)    =  -0                +/- 5.12e-10
# P''_topo (s/s^2) =  0                 +/- 2.26e-13
# P_bary (ms)      =  N/A
# P'_bary (s/s)    =  N/A
# P''_bary (s/s^2) =  N/A
# P_orb (s)        =  N/A
# asin(i)/c (s)    =  N/A
# eccentricity     =  N/A
# w (rad)          =  N/A
# T_peri           =  N/A
######################################################
   0  8086.278
   1  8588.648
   2  8324.759
   3  8592.605
   4  8692.085
   5  8413.938
   6  7989.668
   7  7938.773
   8  7554.013
   9  7405.299
  10  6880.917
  11  7164.871
  12  7304.121
  13  7566.709
  14  7157.899
  15  8283.175
  16  8587.766
  17  8810.343
  18  8677.391
  19  8150.068
  20  8501.578
  21  8486.038
  22  8946.636
  23  8236.849
  24  8546.184
  25  8584.576
  26  7829.468
  27  8147.863
  28  8348.229
  29  8724.302
  30  8461.841
  31  9560.141
  32  9373.067
  33  8414.302
  34  8772.821
  35  9023.629
  36  9622.102
  37  8899.752
  38  9131.797
  39  8572.23
  40  8823.737
  41  9152.118
  42  8391.5
  43  8645.836
  44  7815.135
  45  8123.197
  46  7182.959
  47  8168.122
  48  7937.33
  49  8250.141
  50  7159.294
  51  8696.264
  52  9031.442
  53  7941.277
  54  8555.803
  55  8166.402
  56  8527.05
  57  8478.795
  58  8754.312
  59  7348.879
  60  7056.018
  61  8845.585
  62  7552.591
  63  7940.714
  64  7277.989
  65  8271.771
  66  7906.182
  67  8151.418
  68  8397.664
  69  8161.252
  70  8487.906
  71  7900.674
  72  8042.354
  73  8216.669
  74  7907.66
  75  8449.251
  76  8020.654
  77  8755.54
  78  9080.643
  79  7983.58
  80  7565.741
  81  8078.175
  82  8560.847
  83  8439.963
  84  7521.755
  85  8144.069
  86  7253.836
  87  8378.543
  88  8439.285
  89  8851.241
  90  7867.951
  91  7433.144
  92  9025.601
  93  7715.541
  94  7705.164
  95  7026.157
  96  7411.362
  97  8161.685
  98  8044.196
  99  8221.285
 100  8099.584
 101  7914.196
 102  8055.862
 103  8039.735
 104  7813.881
 105  7121.194
 106  8192.604
 107  7935.337
 108  8540.158
 109  9085.225
 110  8382.799
 111  8835.955
 112  8517.994
 113  8527.33
 114  8543.678
 115  8236.121
 116  8482.439
 117  8647.042
 118  8251.267
 119  7817.563
 120  8663.922
 121  8211.387
 122  7613.793
 123  8545.764
 124  8552.168
 125  7929.562
 126  7134.229
 127  7320.778
 128  8030.774
 129  8080.2
 130  8085.375
 131  8271.819
 132  8004.817
 133  8087.353
 134  7829.376
 135  7845.858
 136  7942.963
 137  7141.232
 138  8496.415
 139  8593.904
 140  8778.56
 141  8478.094
 142  8805.08
 143  8336.928
 144  9010.504
 145  9681.039
 146  8738.543
 147  9734.904
 148  8992.265
 149  8935.302
 150  8261.878
 151  8369.256
 152  8164.22
 153  9413.556
 154  10739.11
 155  10675.33
 156  11459.07
 157  10205.57
 158  9246.551
 159  8478.535
 160  7917.732
 161  8853.19
 162  9051.19
 163  8324.771
 164  8135.562
 165  9352.859
 166  9034.765
 167  8909.712
 168  8947.849
 169  9504.349
 170  8431.837
 171  8964.908
 172  8156.311
 173  8758.102
 174  8891.235
 175  8599.17
 176  8660.219
 177  8997.302
 178  9007.554
 179  8670.813
 180  8731.23
 181  9260.125
 182  8109.652
 183  9026.603
 184  8831.001
 185  9151.377
 186  9005.747
 187  8509.499
 188  9165.473
 189  9070.61
 190  8960.544
 191  7619.564
 192  8557.574
 193  8387.916
 194  7457.132
 195  7375.626
 196  6921.834
 197  7642.184
 198  6844.273
 199  7809.627
 200  7726.91
 201  8546.802
 202  7594.401
 203  7547.577
 204  8301.613
 205  8124.437
 206  8720.761
 207  8019.991
 208  8493.998
 209  8493.795
 210  8162.416
 211  8036.363
 212  8149.939
 213  7990.154
 214  7452.298
 215  8152.285
 216  9022.824
 217  9017.967
 218  8169.48
 219  8466.542
 220  8391.568
 221  8889.028
 222  8230.768
 223  7527.836
 224  7791.662
 225  8038.406
 226  8361.41
 227  8325.391
 228  8640.303
 229  7715.864
 230  7697.501
 231  7877.15
 232  7738.607
 233  7609.854
 234  7377.107
 235  7448.881
 236  7862.163
 237  7137.057
 238  6403.912
 239  6855.158
 240  8357.993
 241  7214.609
 242  7706.777
 243  7221.212
 244  7524.522
 245  7852.667
 246  7696.75
 247  7959.649
 248  7934.436
 249  9329.579
 250  7722.431
 251  8828.095
 252  8994.049
 253  8019.388
 254  8497.767
 255  9246.554
