# Input file       =  1198072487.096268_cleaned.dat
# Candidate        =  PSR_0332+5434
# Telescope        =  AR
# Epoch_topo       =  58110.579931669767
# Epoch_bary       =  N/A
# T_sample         =  0.002
# Data Folded      =  7143424
# Data Avg         =  0.520149360511263
# Data StdDev      =  6.83465639381345 
# Profile Bins     =  512
# Profile Avg      =  7256.43031090828 
# Profile StdDev   =  807.299938657188 
# Reduced chi-sqr  =  0.518
# Prob(Noise)      <  1   (~0.0 sigma)
# P_topo (ms)      =  714.548229154944  +/- 3.84e-05
# P'_topo (s/s)    =  -0                +/- 2.08e-11
# P''_topo (s/s^2) =  0                 +/- 9.45e-15
# P_bary (ms)      =  N/A
# P'_bary (s/s)    =  N/A
# P''_bary (s/s^2) =  N/A
# P_orb (s)        =  N/A
# asin(i)/c (s)    =  N/A
# eccentricity     =  N/A
# w (rad)          =  N/A
# T_peri           =  N/A
######################################################
   0  7382.929
   1  7114.287
   2  7364.522
   3  8333.704
   4  7955.136
   5  7412.163
   6  7956.805
   7  7776.606
   8  7476.6
   9  7446.731
  10  7599.525
  11  7218.1
  12  7479.027
  13  7898.991
  14  7370.889
  15  7621.483
  16  7359.422
  17  7537.448
  18  6987.979
  19  6644.622
  20  6866.398
  21  6814.329
  22  6625.865
  23  7340.136
  24  8009.058
  25  7627.69
  26  7959.486
  27  7936.875
  28  7836.578
  29  7791.628
  30  7687.185
  31  8047.283
  32  7772.252
  33  7420.014
  34  7428.811
  35  7897.245
  36  7723.751
  37  7585.565
  38  8066.109
  39  7951.199
  40  7334.227
  41  7621.025
  42  7586.097
  43  6708.261
  44  6739.085
  45  7658.517
  46  7561.561
  47  7148.254
  48  7395.643
  49  7630.754
  50  7334.02
  51  7421.407
  52  7598.065
  53  7380.798
  54  6891.814
  55  6674.613
  56  7068.454
  57  7266.24
  58  7089.5
  59  7268.446
  60  8052.311
  61  7458.453
  62  7042.257
  63  7382.188
  64  7271.81
  65  6886.723
  66  6682.776
  67  6756.974
  68  6639.032
  69  6235.461
  70  6654.056
  71  7305.87
  72  7079.649
  73  7150.339
  74  7120.387
  75  7312.724
  76  7091.296
  77  6967.099
  78  7333.972
  79  7283.671
  80  7367.637
  81  7671.134
  82  7420.419
  83  7440.313
  84  7445.551
  85  7807.583
  86  7758.545
  87  7337.659
  88  7722.52
  89  7531.219
  90  7306.648
  91  7455.795
  92  7692.065
  93  7542.459
  94  7803.923
  95  8135.175
  96  7919.91
  97  7285.882
  98  7580.111
  99  7471.994
 100  6818.423
 101  6858.045
 102  7235.495
 103  7824.544
 104  6892.804
 105  6786.325
 106  7284.449
 107  7387.406
 108  7207.526
 109  7441.395
 110  7953.661
 111  7211.29
 112  6765.494
 113  6725.752
 114  6913.06
 115  6572.601
 116  6839.203
 117  7284.013
 118  7096.556
 119  6716.688
 120  7000.868
 121  7410.622
 122  7414.369
 123  6976.198
 124  7284.485
 125  7146.761
 126  7155.61
 127  6927.22
 128  7414.896
 129  7555.307
 130  7162.312
 131  7708.274
 132  7473.541
 133  7060.444
 134  7378.41
 135  8043.28
 136  7914.82
 137  7413.733
 138  7023.733
 139  6473.449
 140  6632.285
 141  6501.879
 142  7034.546
 143  7554.951
 144  7742.409
 145  7292.352
 146  7352.874
 147  7424.877
 148  7392.135
 149  7531.814
 150  7550.079
 151  7269.101
 152  7390.408
 153  7620.212
 154  7517.961
 155  7394.511
 156  7597.144
 157  7206.569
 158  7272.317
 159  7345.452
 160  7711.318
 161  7348.355
 162  6854.122
 163  7158.831
 164  7282.528
 165  6731.721
 166  6946.072
 167  7162.378
 168  7392.21
 169  7257.385
 170  7173.744
 171  7380.761
 172  6895.823
 173  6357.922
 174  7142.055
 175  7161.612
 176  7333.111
 177  7259.514
 178  7464.242
 179  7238.56
 180  7333.476
 181  7308.028
 182  7639.564
 183  7110.111
 184  6711.291
 185  7850.855
 186  7334.066
 187  7079.632
 188  6701.89
 189  6909.657
 190  6458.384
 191  6575.188
 192  7127.433
 193  7328.7
 194  6400.721
 195  6582.465
 196  7005.875
 197  6966.384
 198  6884.658
 199  6977.393
 200  7068.731
 201  6422.657
 202  6807.619
 203  7288.849
 204  7146.181
 205  6916.515
 206  6536.855
 207  7050.632
 208  7110.835
 209  7110.259
 210  7323.355
 211  7241.655
 212  6878.048
 213  7237.481
 214  7326.598
 215  6990.609
 216  6844.46
 217  7489.537
 218  7356.983
 219  6999.534
 220  7117.131
 221  7399.137
 222  6655.986
 223  6510.038
 224  6772.229
 225  6882.288
 226  6655.825
 227  6661.564
 228  7294.589
 229  6957.682
 230  6700.47
 231  6458.168
 232  6994.846
 233  7136.905
 234  7576.85
 235  7860.668
 236  7363.905
 237  6931.619
 238  7097.162
 239  7097.256
 240  6773.752
 241  7318.47
 242  7090.688
 243  7098.02
 244  7232.834
 245  7591.869
 246  7647.505
 247  7142.658
 248  6672.981
 249  6868.599
 250  6628.272
 251  6515.504
 252  7549.824
 253  7878.179
 254  7005.863
 255  6562.842
 256  7240.604
 257  7479.234
 258  7264.442
 259  7381.166
 260  7520.723
 261  6904.742
 262  7254.772
 263  6923.231
 264  7085.303
 265  7169.654
 266  7455.4
 267  7661.154
 268  7004.212
 269  6270.049
 270  6030.188
 271  6902.987
 272  6426.401
 273  5986.089
 274  7006.739
 275  7251.297
 276  6707.199
 277  6774.219
 278  7239.529
 279  7368.861
 280  7280.942
 281  7216.821
 282  7417.604
 283  7038.991
 284  7183.324
 285  7219.435
 286  6903.288
 287  6791.535
 288  7101.404
 289  7473.688
 290  7398.189
 291  7308.478
 292  7540.598
 293  7409.116
 294  6904.272
 295  6892.815
 296  7498.633
 297  7139.773
 298  6953.119
 299  7716.315
 300  7933.525
 301  6577.502
 302  6475.392
 303  7244.181
 304  7235.792
 305  6987.558
 306  6789.17
 307  6819.658
 308  6483.569
 309  6791.588
 310  7207.501
 311  7319.457
 312  7496.557
 313  7469.449
 314  7790.279
 315  7824.86
 316  7357.745
 317  7009.667
 318  7299.308
 319  6875.429
 320  6555.948
 321  6513.12
 322  6541.657
 323  6872.113
 324  7056.042
 325  7614.235
 326  7474.783
 327  7355.24
 328  7383.345
 329  7154.487
 330  6678.345
 331  6741.864
 332  7634.691
 333  8165.429
 334  7323.574
 335  7682.634
 336  7540.924
 337  6881.416
 338  6834.104
 339  7141.816
 340  7290.92
 341  7118.359
 342  7847.045
 343  7716.098
 344  7292.526
 345  7463.45
 346  8008.608
 347  7428.899
 348  7220.357
 349  7827.126
 350  7758.01
 351  7707.256
 352  7545.599
 353  7345.887
 354  7494.944
 355  7506.582
 356  7708.664
 357  7577.163
 358  6929.068
 359  7180.364
 360  7440.725
 361  7573.414
 362  7270.316
 363  7031.737
 364  7290.671
 365  7424.204
 366  7322.859
 367  6962.82
 368  6825.772
 369  6319.209
 370  6445.929
 371  6891.011
 372  6964.94
 373  7134.802
 374  6942.683
 375  6962.227
 376  6452.757
 377  6987.993
 378  7088.149
 379  6934.261
 380  6906.986
 381  6771.335
 382  7217.916
 383  6683.414
 384  6374.845
 385  6878.708
 386  6853.984
 387  6541.678
 388  6645.967
 389  7256.617
 390  7170.541
 391  6542.153
 392  6355.061
 393  6652.655
 394  6898.583
 395  7012.305
 396  7000.407
 397  6573.248
 398  6558.937
 399  6925.824
 400  7225.562
 401  6804.375
 402  7076.863
 403  7049.604
 404  7243.78
 405  7028.252
 406  6511.626
 407  7490.14
 408  7226.985
 409  6851.278
 410  7291.008
 411  7627.03
 412  7157.734
 413  7531.773
 414  7777.921
 415  7841.814
 416  6931.343
 417  6873.109
 418  7432.087
 419  7003.032
 420  7236.426
 421  7765.198
 422  7981.912
 423  7381.305
 424  7263.784
 425  7541.689
 426  7103.494
 427  7331.565
 428  7651.032
 429  8073.91
 430  7635.385
 431  7038.458
 432  7248.135
 433  7055.758
 434  6848.439
 435  6788.851
 436  7211.022
 437  6827.564
 438  6714.197
 439  7575.769
 440  7851.817
 441  7670.719
 442  7610.355
 443  7893.384
 444  7399.158
 445  6925.907
 446  7591.733
 447  7368.229
 448  7503.403
 449  7528.334
 450  6990.867
 451  6818.296
 452  7120.464
 453  7134.476
 454  7305.957
 455  6943.257
 456  7094.139
 457  7823.369
 458  7571.076
 459  7307.546
 460  7702.049
 461  7593.555
 462  7521.683
 463  7597.385
 464  7998.141
 465  8098.65
 466  7719.88
 467  8160.793
 468  8389.748
 469  7377.168
 470  7430.873
 471  8130.388
 472  7960.902
 473  7684.519
 474  7285.315
 475  7704.598
 476  6981.043
 477  7542.499
 478  7393.929
 479  7555.792
 480  7281.051
 481  7482.476
 482  7137.012
 483  6951.933
 484  7668.118
 485  7383.561
 486  7493.037
 487  7637.147
 488  7467.776
 489  7575.636
 490  7763.454
 491  8067.954
 492  8575.526
 493  8353.314
 494  7536.183
 495  7973.021
 496  8186.554
 497  7902.888
 498  7522.685
 499  7058.384
 500  7358.118
 501  6924.168
 502  7341.864
 503  7620.181
 504  7973.854
 505  7830.763
 506  7441.108
 507  7424.138
 508  8237.062
 509  7945.843
 510  7593.233
 511  8299.266
