# Input file       =  1198087057.13162_cleaned.dat
# Candidate        =  PSR_0332+5434
# Telescope        =  AR
# Epoch_topo       =  58110.748566338196
# Epoch_bary       =  N/A
# T_sample         =  0.002
# Data Folded      =  7340032
# Data Avg         =  0.0463957416518211
# Data StdDev      =  0.999918613067283
# Profile Bins     =  512
# Profile Avg      =  665.129281248132 
# Profile StdDev   =  119.723291672191 
# Reduced chi-sqr  =  0.752
# Prob(Noise)      <  1   (~0.0 sigma)
# P_topo (ms)      =  714.548409576203  +/- 0.000511
# P'_topo (s/s)    =  -0                +/- 2.69e-10
# P''_topo (s/s^2) =  0                 +/- 1.19e-13
# P_bary (ms)      =  N/A
# P'_bary (s/s)    =  N/A
# P''_bary (s/s^2) =  N/A
# P_orb (s)        =  N/A
# asin(i)/c (s)    =  N/A
# eccentricity     =  N/A
# w (rad)          =  N/A
# T_peri           =  N/A
######################################################
   0  737.9844
   1  768.1516
   2  675.3912
   3  623.6593
   4  656.8247
   5  554.9124
   6  590.1899
   7  626.0899
   8  719.1627
   9  737.244
  10  611.9845
  11  604.9615
  12  616.5197
  13  611.2145
  14  685.513
  15  619.7169
  16  697.8834
  17  683.6519
  18  666.6221
  19  694.2718
  20  631.9647
  21  629.0736
  22  660.5139
  23  687.4559
  24  709.5273
  25  588.973
  26  590.4075
  27  560.8423
  28  497.4418
  29  621.5873
  30  673.0012
  31  548.3287
  32  668.2606
  33  713.0822
  34  744.5171
  35  652.3748
  36  667.0568
  37  655.5963
  38  607.823
  39  634.9304
  40  740.7094
  41  769.2703
  42  696.9006
  43  657.3893
  44  602.0892
  45  596.0957
  46  601.2055
  47  586.7218
  48  547.006
  49  592.4631
  50  613.0701
  51  676.1757
  52  695.6824
  53  701.9532
  54  579.5372
  55  676.692
  56  718.8109
  57  705.687
  58  660.9783
  59  678.3731
  60  704.0445
  61  750.0222
  62  712.6749
  63  762.6282
  64  791.4163
  65  680.3682
  66  657.544
  67  678.2828
  68  728.1183
  69  654.7921
  70  671.9515
  71  651.8721
  72  603.8463
  73  640.3582
  74  677.89
  75  730.9565
  76  711.6456
  77  626.55
  78  649.6407
  79  578.4999
  80  560.5557
  81  602.8659
  82  631.5241
  83  536.0572
  84  659.2728
  85  665.0182
  86  689.0695
  87  642.8412
  88  717.5208
  89  663.0493
  90  610.6149
  91  653.2018
  92  554.4338
  93  606.7627
  94  640.5594
  95  713.634
  96  732.4984
  97  651.8882
  98  674.48
  99  566.7828
 100  636.7573
 101  571.7437
 102  602.7018
 103  643.6599
 104  710.4893
 105  716.8779
 106  672.1732
 107  649.7479
 108  653.7086
 109  615.1462
 110  661.4707
 111  666.8406
 112  584.6229
 113  617.1918
 114  773.6823
 115  652.7792
 116  636.3768
 117  720.4022
 118  834.2715
 119  774.3911
 120  694.3268
 121  706.9084
 122  754.9586
 123  739.7821
 124  781.15
 125  771.638
 126  726.9593
 127  780.0476
 128  728.8598
 129  693.2977
 130  730.1083
 131  734.4273
 132  685.05
 133  761.1758
 134  778.9823
 135  746.8478
 136  801.8564
 137  735.7664
 138  616.8452
 139  645.2498
 140  669.3083
 141  731.9661
 142  689.1852
 143  655.5385
 144  659.2177
 145  680.654
 146  716.4146
 147  669.4973
 148  614.0034
 149  531.0487
 150  642.3401
 151  641.8636
 152  669.2655
 153  757.1694
 154  718.6545
 155  671.0203
 156  648.1579
 157  678.7078
 158  648.2072
 159  601.0394
 160  703.9371
 161  767.5042
 162  808.5948
 163  762.5308
 164  652.0178
 165  674.2712
 166  632.3455
 167  676.0096
 168  751.9553
 169  688.2086
 170  675.1096
 171  647.8782
 172  644.4944
 173  653.3088
 174  613.3238
 175  618.7998
 176  581.692
 177  544.3324
 178  653.885
 179  560.5466
 180  554.3027
 181  620.0338
 182  674.8189
 183  653.5701
 184  600.9133
 185  449.2859
 186  487.7531
 187  526.4265
 188  602.7204
 189  686.5237
 190  657.5676
 191  609.612
 192  693.0828
 193  685.336
 194  649.8412
 195  668.8201
 196  684.1723
 197  723.8629
 198  650.5112
 199  585.2058
 200  637.5179
 201  657.4534
 202  689.2531
 203  704.7685
 204  693.8536
 205  724.7032
 206  671.0855
 207  633.4537
 208  692.6528
 209  617.1718
 210  518.821
 211  620.0049
 212  729.3542
 213  709.5093
 214  656.2189
 215  675.0005
 216  642.2275
 217  582.0474
 218  626.6558
 219  673.912
 220  612.5005
 221  719.6118
 222  697.2705
 223  601.7114
 224  596.2828
 225  726.8352
 226  706.4029
 227  591.0836
 228  559.7824
 229  745.2517
 230  758.2524
 231  661.505
 232  653.2731
 233  726.3611
 234  687.987
 235  681.4829
 236  695.5543
 237  691.9103
 238  673.5189
 239  676.7039
 240  708.6808
 241  667.5197
 242  590.256
 243  649.9307
 244  616.863
 245  596.0475
 246  634.9774
 247  650.7098
 248  652.3837
 249  647.8571
 250  702.899
 251  652.7231
 252  768.8309
 253  783.5951
 254  784.1989
 255  959.1143
 256  1005.189
 257  974.4824
 258  1001.328
 259  1002.244
 260  859.33
 261  795.9456
 262  685.089
 263  661.5886
 264  668.1979
 265  712.4423
 266  783.6205
 267  729.8974
 268  795.7302
 269  757.8552
 270  672.593
 271  654.377
 272  701.9062
 273  718.1298
 274  672.341
 275  745.2139
 276  841.2359
 277  810.53
 278  657.6755
 279  703.2764
 280  688.3727
 281  622.7446
 282  604.9871
 283  686.8626
 284  680.4578
 285  709.5118
 286  854.6788
 287  671.3115
 288  552.0587
 289  703.7349
 290  604.4999
 291  658.009
 292  643.7492
 293  704.9366
 294  767.3679
 295  843.1849
 296  737.0135
 297  757.7519
 298  834.1802
 299  720.358
 300  670.9783
 301  698.1974
 302  716.0993
 303  679.6166
 304  708.5828
 305  714.0939
 306  711.1876
 307  748.0103
 308  751.547
 309  680.8063
 310  691.9056
 311  754.8182
 312  765.0991
 313  750.8451
 314  762.6801
 315  628.2009
 316  631.6131
 317  716.4315
 318  649.9057
 319  702.1114
 320  662.9438
 321  691.6483
 322  704.7059
 323  728.9335
 324  703.0536
 325  675.7797
 326  818.6218
 327  661.8556
 328  616.437
 329  652.1201
 330  637.5908
 331  735.4488
 332  751.0108
 333  724.7967
 334  617.2537
 335  589.504
 336  692.1767
 337  722.5456
 338  714.5
 339  719.4609
 340  635.7411
 341  705.9948
 342  687.2894
 343  652.5009
 344  614.0638
 345  651.2865
 346  603.2487
 347  735.5388
 348  642.7924
 349  701.5929
 350  772.5925
 351  782.3053
 352  655.4836
 353  699.4439
 354  671.696
 355  560.665
 356  554.8917
 357  693.9498
 358  694.962
 359  723.2592
 360  618.8444
 361  543.8127
 362  595.7025
 363  614.1602
 364  559.0314
 365  575.705
 366  739.9385
 367  762.1074
 368  730.196
 369  736.2007
 370  654.7885
 371  542.5403
 372  672.7015
 373  634.4056
 374  635.6425
 375  750.2891
 376  677.8135
 377  595.1891
 378  604.0375
 379  616.0034
 380  562.5587
 381  548.6291
 382  591.3311
 383  607.8907
 384  593.4955
 385  503.9501
 386  497.7796
 387  591.9574
 388  708.431
 389  638.8572
 390  651.5462
 391  695.0928
 392  679.2357
 393  678.9995
 394  680.0745
 395  618.8608
 396  608.4247
 397  590.6493
 398  602.9477
 399  638.1427
 400  608.3849
 401  577.3561
 402  559.9443
 403  701.4145
 404  652.7538
 405  507.4827
 406  584.2928
 407  601.0281
 408  638.4997
 409  675.9191
 410  577.5107
 411  605.9809
 412  604.2279
 413  632.6149
 414  538.6072
 415  606.1079
 416  625.7959
 417  574.5565
 418  614.9436
 419  705.4785
 420  658.7349
 421  705.2422
 422  656.2767
 423  708.8031
 424  713.3334
 425  751.2209
 426  823.0107
 427  698.1235
 428  625.2118
 429  616.3168
 430  621.4666
 431  631.5236
 432  617.9022
 433  749.653
 434  743.9584
 435  704.5204
 436  682.178
 437  618.7062
 438  706.6144
 439  656.4985
 440  619.8082
 441  563.0065
 442  628.878
 443  644.8768
 444  661.7648
 445  645.2975
 446  594.9286
 447  703.3686
 448  795.1641
 449  663.5382
 450  627.95
 451  587.7034
 452  585.1508
 453  615.6089
 454  634.0997
 455  622.5706
 456  527.1503
 457  661.6543
 458  796.9694
 459  683.663
 460  648.5891
 461  629.1406
 462  531.5063
 463  484.9319
 464  644.9823
 465  697.7779
 466  589.1296
 467  536.9926
 468  609.8315
 469  609.2203
 470  571.8258
 471  544.801
 472  587.2719
 473  630.0297
 474  641.871
 475  592.3385
 476  586.4395
 477  637.0291
 478  604.8023
 479  568.814
 480  602.2477
 481  517.7958
 482  459.5864
 483  531.2879
 484  476.2562
 485  480.9923
 486  593.0885
 487  690.9142
 488  560.5041
 489  593.0378
 490  608.1365
 491  648.0883
 492  655.8878
 493  631.8766
 494  768.5785
 495  656.3577
 496  631.2358
 497  664.6817
 498  706.3035
 499  707.9131
 500  738.4568
 501  771.0504
 502  682.5074
 503  581.2012
 504  716.0278
 505  752.9142
 506  675.2892
 507  625.7479
 508  624.4639
 509  662.0015
 510  705.7416
 511  716.5543
