# Input file       =  1198274299.108217_cleaned.dat
# Candidate        =  PSR_0332+5434
# Telescope        =  AR
# Epoch_topo       =  58112.915718845106
# Epoch_bary       =  N/A
# T_sample         =  0.002
# Data Folded      =  7340032
# Data Avg         =  0.0507687657090378
# Data StdDev      =  1.00070146316563 
# Profile Bins     =  512
# Profile Avg      =  727.82529885279  
# Profile StdDev   =  119.817024691494 
# Reduced chi-sqr  =  0.758
# Prob(Noise)      <  1   (~0.0 sigma)
# P_topo (ms)      =  714.550747414227  +/- 0.000197
# P'_topo (s/s)    =  -0                +/- 1.04e-10
# P''_topo (s/s^2) =  0                 +/- 4.58e-14
# P_bary (ms)      =  N/A
# P'_bary (s/s)    =  N/A
# P''_bary (s/s^2) =  N/A
# P_orb (s)        =  N/A
# asin(i)/c (s)    =  N/A
# eccentricity     =  N/A
# w (rad)          =  N/A
# T_peri           =  N/A
######################################################
   0  784.6541
   1  814.0831
   2  757.8484
   3  781.6945
   4  754.2711
   5  729.7276
   6  730.5847
   7  632.3427
   8  748.8856
   9  738.3563
  10  789.6119
  11  794.3436
  12  793.9293
  13  860.1436
  14  784.7792
  15  648.3246
  16  710.1882
  17  675.3427
  18  693.1434
  19  747.7997
  20  634.2534
  21  621.2659
  22  630.1146
  23  661.8076
  24  681.9183
  25  687.2577
  26  689.3427
  27  598.9585
  28  592.8092
  29  640.5547
  30  686.0352
  31  794.1262
  32  772.0268
  33  675.1409
  34  743.4033
  35  776.9544
  36  705.9197
  37  648.8395
  38  641.7632
  39  661.7984
  40  725.3568
  41  693.726
  42  672.1983
  43  700.127
  44  681.5336
  45  683.0781
  46  763.5305
  47  727.8506
  48  688.7576
  49  708.82
  50  668.4269
  51  668.039
  52  738.8514
  53  877.3136
  54  769.2831
  55  703.4594
  56  590.8935
  57  584.9037
  58  619.8155
  59  746.9241
  60  874.7532
  61  855.8369
  62  786.8096
  63  723.955
  64  801.2385
  65  774.4988
  66  698.8188
  67  698.41
  68  712.2065
  69  743.0656
  70  707.2904
  71  773.8779
  72  753.5261
  73  702.3299
  74  817.4514
  75  820.4925
  76  741.842
  77  757.6985
  78  699.2027
  79  735.1553
  80  751.8361
  81  765.2874
  82  772.8371
  83  660.2573
  84  635.1672
  85  704.6402
  86  718.7264
  87  791.6688
  88  724.0016
  89  766.4327
  90  715.9475
  91  696.3493
  92  833.3394
  93  901.8254
  94  833.86
  95  858.1663
  96  843.2764
  97  844.4779
  98  791.2358
  99  854.9096
 100  780.7734
 101  785.3171
 102  802.7297
 103  751.0724
 104  732.6285
 105  641.4473
 106  727.9548
 107  714.9954
 108  799.9192
 109  805.3726
 110  743.6735
 111  675.0026
 112  687.2657
 113  753.3313
 114  765.9906
 115  761.7339
 116  646.5988
 117  736.3412
 118  772.6562
 119  761.2023
 120  716.7829
 121  689.8421
 122  708.3671
 123  625.5835
 124  602.5868
 125  579.9729
 126  624.5095
 127  805.3045
 128  793.6541
 129  850.4715
 130  763.8683
 131  622.1111
 132  675.4803
 133  670.0353
 134  575.59
 135  682.4523
 136  662.5364
 137  693.7755
 138  725.2812
 139  709.5187
 140  637.0259
 141  664.1255
 142  665.5713
 143  617.0931
 144  689.0427
 145  700.4472
 146  663.7473
 147  691.6673
 148  711.45
 149  688.9205
 150  590.5215
 151  654.923
 152  722.9851
 153  817.0463
 154  744.096
 155  666.9006
 156  756.947
 157  695.5238
 158  656.8234
 159  647.6929
 160  713.9196
 161  695.49
 162  826.6766
 163  800.0316
 164  732.9522
 165  749.8191
 166  755.0367
 167  794.2458
 168  759.8209
 169  715.1175
 170  617.353
 171  699.2335
 172  698.7649
 173  648.6531
 174  693.2681
 175  787.7988
 176  779.1943
 177  751.8288
 178  724.7357
 179  763.3758
 180  713.5234
 181  705.4186
 182  744.7932
 183  795.8835
 184  874.9543
 185  906.5825
 186  835.6917
 187  771.5109
 188  780.3245
 189  748.3792
 190  686.1346
 191  720.5537
 192  709.1039
 193  658.2927
 194  677.5526
 195  739.19
 196  605
 197  670.7129
 198  729.7375
 199  777.6732
 200  824.0212
 201  798.2102
 202  679.4613
 203  618.0699
 204  630.3705
 205  694.8649
 206  711.1518
 207  647.1581
 208  708.3167
 209  705.3704
 210  660.5634
 211  788.942
 212  746.1758
 213  740.5942
 214  755.0892
 215  791.5031
 216  846.361
 217  771.1891
 218  804.5708
 219  761.6505
 220  758.5617
 221  745.0656
 222  714.0984
 223  649.0916
 224  661.7688
 225  669.8286
 226  651.0674
 227  762.3063
 228  762.8389
 229  882.773
 230  804.3614
 231  721.6259
 232  723.4806
 233  822.4883
 234  720.399
 235  693.1995
 236  743.4529
 237  717.0193
 238  674.1873
 239  679.4838
 240  745.792
 241  692.7339
 242  592.7227
 243  699.9902
 244  704.3478
 245  643.1526
 246  585.623
 247  702.1587
 248  743.8994
 249  676.6354
 250  616.1436
 251  676.5146
 252  735.3424
 253  775.4951
 254  817.779
 255  782.1257
 256  731.3236
 257  728.123
 258  712.053
 259  708.5864
 260  799.3362
 261  755.9207
 262  755.9063
 263  684.5425
 264  694.0599
 265  748.6833
 266  688.5411
 267  715.9171
 268  732.805
 269  737.5699
 270  646.5605
 271  743.8895
 272  737.1612
 273  703.9252
 274  625.946
 275  616.3745
 276  740.1707
 277  808.0366
 278  836.6638
 279  752.7585
 280  709.2784
 281  749.928
 282  721.3199
 283  815.5215
 284  809.5892
 285  749.476
 286  735.4796
 287  746.023
 288  777.4523
 289  817.1474
 290  764.8016
 291  795.5246
 292  788.8109
 293  896.3997
 294  925.7123
 295  1056.229
 296  1155.634
 297  1089.721
 298  1091.828
 299  1093.175
 300  840.251
 301  703.3959
 302  807.695
 303  832.9108
 304  749.7444
 305  829.5018
 306  796.3906
 307  727.2916
 308  749.228
 309  812.3713
 310  748.7104
 311  808.7252
 312  776.5117
 313  713.7585
 314  799.6534
 315  854.1224
 316  921.8894
 317  825.8774
 318  740.6743
 319  660.141
 320  682.8403
 321  647.5593
 322  670.7117
 323  707.3282
 324  672.1273
 325  678.5836
 326  656.446
 327  706.4071
 328  664.3265
 329  807.2238
 330  753.5071
 331  754.1935
 332  732.0798
 333  743.0358
 334  726.8515
 335  739.7084
 336  810.7653
 337  782.794
 338  732.998
 339  705.0594
 340  650.2469
 341  641.7034
 342  610.5737
 343  729.9932
 344  716.8479
 345  729.565
 346  746.415
 347  783.7303
 348  774.2303
 349  681.2386
 350  687.1217
 351  579.0942
 352  657.576
 353  734.2429
 354  816.3836
 355  816.7934
 356  651.7068
 357  700.1407
 358  773.9199
 359  761.8826
 360  741.6021
 361  766.9382
 362  828.6971
 363  809.9398
 364  695.2364
 365  747.0581
 366  742.0445
 367  718.0689
 368  764.4161
 369  641.9053
 370  634.1381
 371  756.7714
 372  820.2964
 373  857.1899
 374  772.7406
 375  727.1379
 376  667.7215
 377  641.6249
 378  613.473
 379  699.3129
 380  695.9955
 381  683.5593
 382  710.7869
 383  803.7693
 384  757.8961
 385  678.1918
 386  771.7374
 387  695.1734
 388  675.835
 389  697.6927
 390  680.3813
 391  698.4818
 392  736.4968
 393  666.7679
 394  697.8604
 395  719.332
 396  719.7906
 397  663.0126
 398  718.2705
 399  706.0452
 400  659.7598
 401  792.9551
 402  680.7872
 403  733.9541
 404  701.1102
 405  662.5866
 406  696.6688
 407  680.3055
 408  740.6593
 409  761.1072
 410  868.0295
 411  853.0664
 412  767.0156
 413  694.5191
 414  725.2904
 415  718.3458
 416  649.0038
 417  560.5799
 418  543.754
 419  624.1157
 420  663.1678
 421  690.5132
 422  802.3178
 423  718.2878
 424  660.0024
 425  676.9092
 426  699.4421
 427  599.6119
 428  605.4006
 429  648.8926
 430  665.0158
 431  592.1005
 432  639.8476
 433  725.1031
 434  678.7242
 435  604.4758
 436  663.5507
 437  748.9849
 438  644.4477
 439  614.1671
 440  652.9453
 441  680.8979
 442  619.0851
 443  657.1082
 444  704.2552
 445  665.5981
 446  810.0217
 447  794.8514
 448  737.9536
 449  724.9956
 450  694.0916
 451  681.6046
 452  721.776
 453  692.5029
 454  757.4771
 455  696.3186
 456  703.39
 457  651.6451
 458  608.4037
 459  663.8516
 460  759.4378
 461  715.1457
 462  793.8356
 463  827.0742
 464  769.3786
 465  663.8132
 466  631.603
 467  707.2237
 468  830.1752
 469  768.5101
 470  754.4033
 471  737.6025
 472  602.3679
 473  701.1738
 474  760.5875
 475  754.664
 476  626.6587
 477  757.9943
 478  795.214
 479  762.9973
 480  773.6915
 481  764.6499
 482  723.5659
 483  675.2224
 484  664.7378
 485  704.2787
 486  797.1739
 487  758.7537
 488  736.3376
 489  819.9161
 490  733.2524
 491  638.6893
 492  592.6581
 493  706.2004
 494  849.0454
 495  779.3449
 496  825.6628
 497  743.4927
 498  708.7281
 499  660.8821
 500  734.8471
 501  632.5252
 502  694.738
 503  818.0948
 504  786.0703
 505  736.6332
 506  653.0098
 507  681.8376
 508  648.5768
 509  663.0829
 510  768.8395
 511  778.9802
