# Input file       =  1199896224.112061_cleaned.dat
# Candidate        =  PSR_0332+5434
# Telescope        =  AR
# Epoch_topo       =  58131.687998982190
# Epoch_bary       =  N/A
# T_sample         =  0.002
# Data Folded      =  7340032
# Data Avg         =  0.298620083751822
# Data StdDev      =  3.94851559587198 
# Profile Bins     =  256
# Profile Avg      =  8561.99199658714 
# Profile StdDev   =  668.594580130385 
# Reduced chi-sqr  =  0.891
# Prob(Noise)      <  0.895   (~0.0 sigma)
# P_topo (ms)      =  714.565666973121  +/- 0.000351
# P'_topo (s/s)    =  -0                +/- 1.85e-10
# P''_topo (s/s^2) =  0                 +/- 8.19e-14
# P_bary (ms)      =  N/A
# P'_bary (s/s)    =  N/A
# P''_bary (s/s^2) =  N/A
# P_orb (s)        =  N/A
# asin(i)/c (s)    =  N/A
# eccentricity     =  N/A
# w (rad)          =  N/A
# T_peri           =  N/A
######################################################
   0  8526.986
   1  8434.057
   2  8255.444
   3  8044.677
   4  8516.36
   5  8518.557
   6  7919.196
   7  7935.172
   8  9302.128
   9  8432.775
  10  8256.848
  11  7773.251
  12  7459.581
  13  7897.307
  14  7383.09
  15  7790.448
  16  8319.903
  17  9140.238
  18  8466.871
  19  7875.836
  20  8278.291
  21  8294.951
  22  8912.963
  23  8133.903
  24  7537.53
  25  7655.239
  26  8251.987
  27  9397.751
  28  8267.074
  29  8076.417
  30  7844.453
  31  8221.398
  32  9183.907
  33  8933.776
  34  8736.542
  35  8353.31
  36  8384.837
  37  8424.374
  38  7726.471
  39  8316.281
  40  8076.173
  41  8261.133
  42  8523.568
  43  7902.463
  44  8573.957
  45  8728.8
  46  8821.161
  47  9362.812
  48  9334.175
  49  8638.267
  50  8269.224
  51  8223.243
  52  7738.491
  53  8346.812
  54  8401.279
  55  8598.711
  56  8489.729
  57  8062.68
  58  8636.523
  59  7798.68
  60  8702.646
  61  8819.936
  62  8010.824
  63  8024.674
  64  9151.271
  65  9074.381
  66  8636.306
  67  8356.098
  68  8795.071
  69  8633.36
  70  8326.627
  71  8028.553
  72  9436.731
  73  8523.96
  74  8579.741
  75  8753.61
  76  8842.156
  77  8792.885
  78  8213.595
  79  8580.721
  80  8808.133
  81  8141.911
  82  8719.042
  83  8838.167
  84  9061.473
  85  8680.623
  86  8645.743
  87  8850.11
  88  8384.525
  89  7912.659
  90  9262.832
  91  8846.711
  92  8449.701
  93  8122.82
  94  8382.439
  95  8485.726
  96  8718.624
  97  8486.387
  98  8442.409
  99  8390.539
 100  8045.839
 101  8180.271
 102  8186.428
 103  7729.842
 104  8262.716
 105  8952.988
 106  8257.734
 107  8470.145
 108  9095.715
 109  9192.167
 110  9223.437
 111  9073.549
 112  9149.104
 113  8451.345
 114  8971.604
 115  8296.829
 116  9236.835
 117  9109.351
 118  8933.484
 119  8910.757
 120  8301.893
 121  8285.187
 122  8640.433
 123  8598.649
 124  8505.562
 125  8638.505
 126  8624.628
 127  8147.084
 128  7657.989
 129  8085.676
 130  8379.914
 131  9016.875
 132  8630.617
 133  8430.581
 134  8321.748
 135  8578.428
 136  8338.067
 137  8237.729
 138  8321.978
 139  8701.16
 140  8599.527
 141  7866.072
 142  7813.339
 143  8667.887
 144  8644.415
 145  8581.098
 146  8699.312
 147  8416.194
 148  8116.353
 149  7911.513
 150  8371.657
 151  9687.114
 152  9571.018
 153  9833.687
 154  11751.71
 155  11321.52
 156  9265.87
 157  9003.661
 158  8170.709
 159  8684.235
 160  8463.947
 161  8557.824
 162  8399.768
 163  8147.031
 164  8903.897
 165  8095.505
 166  8721.845
 167  8834.231
 168  8781.713
 169  8281.367
 170  7259.158
 171  8106.564
 172  8272.988
 173  8711.138
 174  7480.479
 175  7993.783
 176  8617.729
 177  8069.266
 178  8193.091
 179  7771.003
 180  8382.046
 181  9014.807
 182  8669.026
 183  8802.364
 184  8132.613
 185  8657.232
 186  8227.973
 187  8869.583
 188  8261.816
 189  8175.436
 190  8527.152
 191  9145.734
 192  8424.908
 193  8429.874
 194  8597.156
 195  8229.685
 196  8371.969
 197  9723.577
 198  9768.243
 199  9277.4
 200  8808.674
 201  8718.597
 202  9935.06
 203  9577.776
 204  9246.142
 205  8113.771
 206  8203.706
 207  8811.083
 208  9147.602
 209  8591.396
 210  9003.867
 211  9094.866
 212  8750.575
 213  8236.42
 214  8739.355
 215  9002.828
 216  7895.463
 217  8253.306
 218  8372.312
 219  8551.28
 220  8888.053
 221  8348.781
 222  8376.905
 223  8284.21
 224  9458.596
 225  8302.991
 226  7590.259
 227  8472.204
 228  8744.098
 229  8112.689
 230  8563.978
 231  8996.827
 232  9292.83
 233  9483.091
 234  8843.188
 235  8212.55
 236  9154.644
 237  9193.543
 238  8900.815
 239  8531.954
 240  9845.751
 241  9068.595
 242  7328.15
 243  8591.941
 244  8840.881
 245  8830.852
 246  8602.65
 247  8545.567
 248  8713.832
 249  8645.341
 250  8681.264
 251  8544.955
 252  8823.069
 253  8871.098
 254  8382.675
 255  8364.607
