# Input file       =  1199738862.105873_cleaned.dat
# Candidate        =  PSR_0332+5434
# Telescope        =  AR
# Epoch_topo       =  58129.866679466126
# Epoch_bary       =  N/A
# T_sample         =  0.002
# Data Folded      =  7340032
# Data Avg         =  0.0926563424411478
# Data StdDev      =  1.00005309412127 
# Profile Bins     =  512
# Profile Avg      =  1328.30620887668 
# Profile StdDev   =  119.73939349712  
# Reduced chi-sqr  =  0.732
# Prob(Noise)      <  1   (~0.0 sigma)
# P_topo (ms)      =  714.56470067004   +/- 9.04e-05
# P'_topo (s/s)    =  -0                +/- 4.77e-11
# P''_topo (s/s^2) =  0                 +/- 2.11e-14
# P_bary (ms)      =  N/A
# P'_bary (s/s)    =  N/A
# P''_bary (s/s^2) =  N/A
# P_orb (s)        =  N/A
# asin(i)/c (s)    =  N/A
# eccentricity     =  N/A
# w (rad)          =  N/A
# T_peri           =  N/A
######################################################
   0  1304.366
   1  1364.91
   2  1334.805
   3  1304.617
   4  1383.304
   5  1272.384
   6  1287.384
   7  1368.072
   8  1240.252
   9  1279.641
  10  1375.501
  11  1317.616
  12  1338.576
  13  1337.923
  14  1380.451
  15  1368.704
  16  1407.872
  17  1328.238
  18  1251.927
  19  1211.275
  20  1179.724
  21  1232.425
  22  1263.939
  23  1297.726
  24  1270.274
  25  1289.578
  26  1319.071
  27  1288.414
  28  1261.404
  29  1260.09
  30  1236.214
  31  1309.536
  32  1302.162
  33  1307.053
  34  1272.803
  35  1343.968
  36  1391.646
  37  1320.429
  38  1309.702
  39  1327.617
  40  1216.783
  41  1205.182
  42  1197.929
  43  1251.257
  44  1359.509
  45  1313.263
  46  1313.649
  47  1364.615
  48  1318.811
  49  1325.954
  50  1368.534
  51  1309.448
  52  1338.494
  53  1356.279
  54  1263.219
  55  1327.828
  56  1334.512
  57  1338.927
  58  1323.401
  59  1320.388
  60  1391.138
  61  1386.818
  62  1292.06
  63  1230.563
  64  1333.454
  65  1246.78
  66  1082.198
  67  1205.163
  68  1415.166
  69  1360.067
  70  1330.846
  71  1316.061
  72  1244.382
  73  1182.776
  74  1315.213
  75  1323.337
  76  1342.137
  77  1208.979
  78  1238.131
  79  1207.904
  80  1255.266
  81  1284.621
  82  1394.43
  83  1373.309
  84  1286.578
  85  1292.013
  86  1331.956
  87  1382.96
  88  1326.057
  89  1280.581
  90  1365.583
  91  1235.241
  92  1169.9
  93  1298.389
  94  1331.063
  95  1349.62
  96  1294.111
  97  1264.33
  98  1331.257
  99  1364.266
 100  1375.789
 101  1395.209
 102  1394.64
 103  1396.856
 104  1381.049
 105  1375.932
 106  1304.283
 107  1439.905
 108  1462.017
 109  1376.5
 110  1319.255
 111  1305.12
 112  1279.617
 113  1234.516
 114  1267.428
 115  1275.429
 116  1299.023
 117  1325.164
 118  1311.244
 119  1268.98
 120  1191.701
 121  1294.163
 122  1430.37
 123  1408.831
 124  1296.69
 125  1263.016
 126  1314.468
 127  1275.885
 128  1250.852
 129  1362.14
 130  1425.061
 131  1314.955
 132  1407.242
 133  1445.467
 134  1333.504
 135  1211.608
 136  1303.085
 137  1323.063
 138  1291.759
 139  1322.584
 140  1379.058
 141  1372.594
 142  1316.039
 143  1272.595
 144  1250.969
 145  1278.724
 146  1179.934
 147  1237.878
 148  1176.832
 149  1172.2
 150  1247.466
 151  1176.134
 152  1209.992
 153  1281.526
 154  1314.992
 155  1260.265
 156  1296.089
 157  1296.108
 158  1274.818
 159  1206.351
 160  1310.063
 161  1360.217
 162  1323.332
 163  1367.667
 164  1298.173
 165  1185.217
 166  1289.317
 167  1253.945
 168  1247.559
 169  1194.116
 170  1294.049
 171  1319.144
 172  1324.482
 173  1183.48
 174  1284.023
 175  1347.153
 176  1347.84
 177  1314.161
 178  1292.073
 179  1358.207
 180  1321.348
 181  1249.718
 182  1292.28
 183  1330.401
 184  1308.674
 185  1387.562
 186  1392.744
 187  1379.51
 188  1352.412
 189  1271.204
 190  1431.876
 191  1364.536
 192  1328.493
 193  1406.57
 194  1353.533
 195  1367.172
 196  1338.949
 197  1416.554
 198  1450.002
 199  1421.961
 200  1389.995
 201  1332.995
 202  1345.953
 203  1372.089
 204  1454.601
 205  1411.135
 206  1340.035
 207  1341.38
 208  1526.25
 209  1332.895
 210  1436.783
 211  1534.296
 212  1438.285
 213  1364.873
 214  1351.177
 215  1358.958
 216  1386.175
 217  1340.288
 218  1386.598
 219  1427.294
 220  1340.902
 221  1333.424
 222  1413.763
 223  1348.348
 224  1316.18
 225  1318.633
 226  1337.53
 227  1342.047
 228  1374.071
 229  1442.732
 230  1420.221
 231  1284.011
 232  1314.537
 233  1404.858
 234  1338.715
 235  1344.442
 236  1438.483
 237  1376.479
 238  1328.537
 239  1351.445
 240  1318.395
 241  1272.012
 242  1375.607
 243  1304.456
 244  1229.058
 245  1305.356
 246  1373.993
 247  1334.832
 248  1347.187
 249  1382.482
 250  1355.042
 251  1277.934
 252  1277.055
 253  1361.782
 254  1473.387
 255  1376.194
 256  1370.229
 257  1440.396
 258  1468.64
 259  1336.711
 260  1282.881
 261  1395.129
 262  1403.334
 263  1417.185
 264  1527.926
 265  1613.302
 266  1559.424
 267  1570.564
 268  1699.488
 269  1582.695
 270  1393.418
 271  1290.246
 272  1226.938
 273  1252.641
 274  1221.858
 275  1209.781
 276  1275.563
 277  1274.762
 278  1256.35
 279  1283.732
 280  1322.713
 281  1359.394
 282  1382.396
 283  1392.724
 284  1227.229
 285  1176.495
 286  1214.003
 287  1277.094
 288  1189.822
 289  1138.711
 290  1292.345
 291  1315.867
 292  1377.912
 293  1401.904
 294  1406.743
 295  1347.758
 296  1290.781
 297  1341.558
 298  1295.332
 299  1262.309
 300  1343.335
 301  1318.883
 302  1329.52
 303  1340.023
 304  1317.399
 305  1324.271
 306  1314.871
 307  1290.908
 308  1329.385
 309  1327.776
 310  1239.162
 311  1288.515
 312  1320.094
 313  1302.312
 314  1233.668
 315  1278.03
 316  1426.111
 317  1356.481
 318  1359.002
 319  1339.989
 320  1245.238
 321  1232.949
 322  1294.357
 323  1348.541
 324  1347.419
 325  1409.335
 326  1452.381
 327  1232.046
 328  1202.89
 329  1222.516
 330  1205.468
 331  1335.148
 332  1309.084
 333  1336.166
 334  1229.173
 335  1266.358
 336  1246.502
 337  1246.821
 338  1294.532
 339  1336.497
 340  1413.686
 341  1347.085
 342  1333.439
 343  1353.556
 344  1381.333
 345  1353.482
 346  1379.631
 347  1494.021
 348  1339.618
 349  1288.501
 350  1222.734
 351  1392.306
 352  1338.473
 353  1357.723
 354  1408.124
 355  1262.394
 356  1285.624
 357  1337.271
 358  1350.543
 359  1221.351
 360  1381.07
 361  1404.93
 362  1304.334
 363  1253.148
 364  1247.409
 365  1332.446
 366  1340.679
 367  1200.308
 368  1321.4
 369  1361.374
 370  1377.402
 371  1375.077
 372  1324.035
 373  1376.04
 374  1429.964
 375  1535.998
 376  1489.138
 377  1309.608
 378  1368.653
 379  1400.335
 380  1343.221
 381  1343.604
 382  1403.179
 383  1307.717
 384  1271.564
 385  1236.094
 386  1270.257
 387  1314.775
 388  1259.822
 389  1242.072
 390  1280.255
 391  1361.242
 392  1363.546
 393  1333.634
 394  1336.831
 395  1286.267
 396  1255.639
 397  1250.186
 398  1279.811
 399  1360.928
 400  1344.331
 401  1270.829
 402  1309.825
 403  1238.566
 404  1232.994
 405  1366.865
 406  1371.408
 407  1361.322
 408  1360.328
 409  1346.801
 410  1294.398
 411  1298.164
 412  1354.359
 413  1289.807
 414  1210.226
 415  1311.505
 416  1390.136
 417  1266.133
 418  1354.071
 419  1360.159
 420  1343.748
 421  1348.329
 422  1407.214
 423  1402.269
 424  1281.626
 425  1205.404
 426  1264.714
 427  1338.569
 428  1287.505
 429  1182.427
 430  1275.334
 431  1391.545
 432  1310.703
 433  1298.186
 434  1313.153
 435  1307.813
 436  1331.764
 437  1331.541
 438  1377.225
 439  1353.745
 440  1301.934
 441  1403.857
 442  1374.222
 443  1377.586
 444  1329.534
 445  1287.266
 446  1351.751
 447  1408.026
 448  1434.918
 449  1329.31
 450  1256.563
 451  1373.487
 452  1334.156
 453  1418.05
 454  1478.164
 455  1447.701
 456  1389.353
 457  1232.667
 458  1178.83
 459  1244.223
 460  1211.001
 461  1177.336
 462  1213.97
 463  1303.355
 464  1269.114
 465  1233.631
 466  1281.911
 467  1323.004
 468  1348.351
 469  1400.304
 470  1280.855
 471  1274.171
 472  1345.304
 473  1352.61
 474  1329.267
 475  1288.815
 476  1419.89
 477  1310.127
 478  1311.131
 479  1322.458
 480  1344.36
 481  1406.35
 482  1499.591
 483  1423.786
 484  1452.045
 485  1433.457
 486  1361.197
 487  1341.885
 488  1413.873
 489  1452.287
 490  1365.28
 491  1402.638
 492  1393.429
 493  1295.732
 494  1345.87
 495  1385.816
 496  1411.851
 497  1342.716
 498  1438.825
 499  1415.196
 500  1445.076
 501  1370.031
 502  1412.523
 503  1410.612
 504  1350.924
 505  1427.514
 506  1470.155
 507  1332.391
 508  1310.248
 509  1422.589
 510  1428.514
 511  1343.305
