# Input file       =  1199637838.101933_cleaned.dat
# Candidate        =  PSR_0332+5434
# Telescope        =  AR
# Epoch_topo       =  58128.697420161261
# Epoch_bary       =  N/A
# T_sample         =  0.002
# Data Folded      =  7340032
# Data Avg         =  1.11397511435332 
# Data StdDev      =  7.97737749322822 
# Profile Bins     =  1024
# Profile Avg      =  7984.9229658556  
# Profile StdDev   =  675.397022770103 
# Reduced chi-sqr  =  0.593
# Prob(Noise)      <  1   (~0.0 sigma)
# P_topo (ms)      =  714.56350521783   +/- 4.1e-05
# P'_topo (s/s)    =  -0                +/- 2.16e-11
# P''_topo (s/s^2) =  0                 +/- 9.55e-15
# P_bary (ms)      =  N/A
# P'_bary (s/s)    =  N/A
# P''_bary (s/s^2) =  N/A
# P_orb (s)        =  N/A
# asin(i)/c (s)    =  N/A
# eccentricity     =  N/A
# w (rad)          =  N/A
# T_peri           =  N/A
######################################################
   0  8418.839
   1  8227.825
   2  7956.5
   3  7736.525
   4  7809.569
   5  7959.499
   6  7793.951
   7  7803.833
   8  7711.125
   9  7929.781
  10  8072.147
  11  7918.624
  12  7878.748
  13  7790.828
  14  7899.419
  15  7951.596
  16  7858.789
  17  8053.646
  18  8297.737
  19  8108.549
  20  8221.367
  21  8379.049
  22  8365.064
  23  7986.661
  24  7456.872
  25  7398.004
  26  7530.045
  27  7599.256
  28  7743.552
  29  7747.888
  30  7691.93
  31  7668.724
  32  7535.581
  33  7611.318
  34  7719.326
  35  7711.687
  36  8027.594
  37  7951.744
  38  7992.637
  39  8089.396
  40  7937.266
  41  7728.561
  42  7390.872
  43  7492.748
  44  7768.493
  45  7825.559
  46  7869.558
  47  8021.256
  48  8112.967
  49  8423.553
  50  8290.81
  51  8197.335
  52  8294.213
  53  8131.401
  54  7907.871
  55  7635.588
  56  7877.267
  57  8183.604
  58  8300.259
  59  8313.907
  60  8202.966
  61  8003.933
  62  7894.141
  63  7748.819
  64  7774.488
  65  7956.993
  66  8019.552
  67  8191.815
  68  8168.197
  69  8209.746
  70  8341.883
  71  8520.063
  72  8457.772
  73  8138.583
  74  7925.617
  75  8029.473
  76  7990.063
  77  8199.75
  78  8296.846
  79  8165.687
  80  7987.555
  81  7856.833
  82  8053.827
  83  8084.557
  84  8202.223
  85  8369.122
  86  8483.381
  87  8244.563
  88  8117.908
  89  8050.799
  90  8022.095
  91  8149.883
  92  7953.004
  93  7891.133
  94  8020.294
  95  8248.442
  96  8489.75
  97  8404.715
  98  8427.077
  99  8425.491
 100  8159.106
 101  8183.981
 102  8092.41
 103  7969.014
 104  8040.585
 105  8045.489
 106  8415.01
 107  8330.238
 108  8014.061
 109  7771.312
 110  7648.016
 111  7761.862
 112  7798.081
 113  7770.456
 114  7806.536
 115  7819.164
 116  7790.486
 117  7727.543
 118  7482.691
 119  7334.406
 120  7451.87
 121  7445.864
 122  7781.938
 123  7857.071
 124  8251.664
 125  8350.65
 126  8198.113
 127  8040.923
 128  7807.559
 129  7477.708
 130  7611.594
 131  7784.54
 132  8044.85
 133  7861.604
 134  7678.177
 135  7781.307
 136  7761.291
 137  7628.417
 138  7860.82
 139  7620.794
 140  7663.622
 141  7463.299
 142  7636.179
 143  7808.032
 144  7697.861
 145  7694.877
 146  7748.681
 147  7927.906
 148  7935.234
 149  7684.867
 150  7580.235
 151  7747.4
 152  7761.516
 153  7786.604
 154  7780.671
 155  7956.805
 156  7832.682
 157  7495.681
 158  7178.851
 159  7289.825
 160  7396.291
 161  7429.656
 162  7569.034
 163  7774.395
 164  7971.365
 165  8084.103
 166  8091.833
 167  7797.285
 168  7423.171
 169  7559.087
 170  7539.614
 171  7841.755
 172  8097.492
 173  8100.678
 174  7900.207
 175  7563.193
 176  7554.573
 177  7571.244
 178  7504.027
 179  7607.369
 180  7799.418
 181  7892.36
 182  7897.313
 183  7710.318
 184  7734.184
 185  7825.666
 186  7785.22
 187  7944.935
 188  7956.042
 189  7946.312
 190  7866.914
 191  7611.848
 192  7727.141
 193  7955.223
 194  7980.565
 195  7881.022
 196  7687.556
 197  7686.124
 198  7781.994
 199  7619.885
 200  7718.051
 201  7678.834
 202  7647.103
 203  7689.565
 204  7652.16
 205  7883.544
 206  7956.673
 207  7822.421
 208  8051.249
 209  8181.4
 210  8326.822
 211  8469.582
 212  8310.407
 213  8438.334
 214  8246.803
 215  7922
 216  7778.422
 217  7621.862
 218  7989.423
 219  7954.177
 220  7919.006
 221  8049.449
 222  8240.089
 223  8308.431
 224  8421.787
 225  8074.715
 226  7874.702
 227  7695.53
 228  7734.099
 229  7838.313
 230  7907.638
 231  8132.377
 232  8187.347
 233  8201.878
 234  8167.194
 235  8033.47
 236  7834.527
 237  7839.167
 238  8053.298
 239  8298.138
 240  8085.016
 241  7914.177
 242  8203.155
 243  8275.714
 244  8257.791
 245  8119.74
 246  8109.659
 247  8048.245
 248  8049.628
 249  8370.064
 250  8229.965
 251  8198.779
 252  7942.283
 253  7797.55
 254  7649.577
 255  7630.06
 256  7424.074
 257  7552.54
 258  7769.006
 259  8056.826
 260  8127.852
 261  8189.942
 262  8238.241
 263  8389.479
 264  8228.389
 265  8213.751
 266  8177.037
 267  8376.252
 268  8561.015
 269  8287.882
 270  8183.938
 271  8050.433
 272  7688.547
 273  7523.805
 274  7493.158
 275  7856.223
 276  8019.03
 277  7900.013
 278  8070.875
 279  8205.546
 280  8241.983
 281  8248.45
 282  7859.252
 283  7720.313
 284  7590.97
 285  7459.493
 286  7268.391
 287  7355.892
 288  7573.99
 289  7842.857
 290  7494.612
 291  7607.474
 292  7752.622
 293  7772.819
 294  7817.93
 295  7728.713
 296  7724.83
 297  7755.846
 298  7820.461
 299  8076.865
 300  8093.282
 301  8114.932
 302  8172.631
 303  7949.518
 304  7926.111
 305  8047.91
 306  8299.345
 307  8484.766
 308  8395.062
 309  8108.184
 310  8018.401
 311  7964.975
 312  8152.51
 313  7992.033
 314  7814.259
 315  7853.144
 316  7769.958
 317  7665.511
 318  7612.261
 319  7790.009
 320  7830.745
 321  7731.589
 322  7790.016
 323  7914.929
 324  8113.327
 325  8040.314
 326  8066.674
 327  7990.844
 328  8108.315
 329  7592.765
 330  7420.411
 331  7486.06
 332  7725.645
 333  7831.544
 334  7855.457
 335  7883.865
 336  7976.719
 337  7827.907
 338  7990.457
 339  7896.803
 340  8039.754
 341  7983.406
 342  7753.292
 343  7813.213
 344  7898.606
 345  8169.836
 346  8294.755
 347  8207.606
 348  8130.508
 349  8191.949
 350  8116.18
 351  8160.862
 352  8124.094
 353  8221.538
 354  8259.837
 355  8120.839
 356  7830.947
 357  7684.026
 358  7543.334
 359  7584.343
 360  7436.45
 361  7607.171
 362  7973.401
 363  8118.344
 364  8454.249
 365  8486.702
 366  8263.271
 367  8002.671
 368  7573.874
 369  7607.723
 370  7586.237
 371  7749.146
 372  7856.456
 373  7908.786
 374  7784.438
 375  7943.041
 376  7752.936
 377  7999.583
 378  7959.073
 379  7972.451
 380  8058.997
 381  8042.956
 382  8407.885
 383  8610.745
 384  8734.153
 385  8630.461
 386  8302.022
 387  7893.31
 388  7771.1
 389  7518.29
 390  7578.578
 391  7638.185
 392  7900.734
 393  8390.53
 394  8337.406
 395  8177.061
 396  7978.019
 397  7901.497
 398  7766.375
 399  7819.351
 400  7948.841
 401  8177.05
 402  8132.139
 403  7940.493
 404  7816.9
 405  7656.621
 406  7597.126
 407  7655.532
 408  7821.657
 409  8077.551
 410  8025.774
 411  8256.63
 412  8282.612
 413  8214.547
 414  8015.749
 415  7671.843
 416  7799.43
 417  8008.542
 418  8257.97
 419  8191.457
 420  8044.81
 421  8085.6
 422  8150.952
 423  8189.9
 424  8089.048
 425  7976.909
 426  7988.253
 427  8100.216
 428  7972.53
 429  8014.969
 430  7998.133
 431  7970.976
 432  7881.808
 433  7924.583
 434  8011.151
 435  8042.637
 436  7618.337
 437  7771.942
 438  7960.656
 439  8203.149
 440  8076.804
 441  7806.136
 442  8003.131
 443  7999.637
 444  7946.397
 445  7622.681
 446  7430.484
 447  7350.41
 448  7607.214
 449  7703.266
 450  7949.556
 451  7749.365
 452  7473.412
 453  7572.169
 454  7330.656
 455  7196.48
 456  7122.022
 457  7272.41
 458  7672.026
 459  7637.311
 460  7654.159
 461  7958.545
 462  8059.422
 463  8436.973
 464  8378.648
 465  8281.337
 466  8054.286
 467  7896.974
 468  7952.178
 469  8129.972
 470  8086.544
 471  7829.99
 472  7622.578
 473  7424.202
 474  7727.909
 475  7717.769
 476  8046.674
 477  8027.616
 478  7878.41
 479  8038.331
 480  8124.404
 481  8207.26
 482  8225.332
 483  8044.819
 484  8169.001
 485  8151.779
 486  8357
 487  8318.591
 488  8408.41
 489  8276.035
 490  8270.45
 491  8118.422
 492  8211.182
 493  8161.042
 494  8117.492
 495  8121.501
 496  8216.409
 497  8478.192
 498  8798.392
 499  8775.882
 500  8623.381
 501  8253.015
 502  8154.289
 503  8047.837
 504  8054.689
 505  8214.563
 506  8365.108
 507  8466.994
 508  8533.926
 509  8304.655
 510  8044.712
 511  7872.442
 512  8027.906
 513  8068.42
 514  7769.935
 515  7776.364
 516  7908.729
 517  8142.907
 518  8355.552
 519  8280.747
 520  8339.808
 521  8186.892
 522  7957.267
 523  7934.158
 524  8029.884
 525  8497.165
 526  8546.919
 527  8383.464
 528  8255.716
 529  8139.087
 530  8061.344
 531  8134.098
 532  7907.925
 533  7584.056
 534  7571.593
 535  7802.678
 536  8270.775
 537  8168.245
 538  8054.908
 539  8013.866
 540  8132.172
 541  8310.089
 542  8302.83
 543  8246.438
 544  8397.888
 545  8296.95
 546  8164.042
 547  8295.171
 548  8383.404
 549  8441.916
 550  8274.233
 551  7761.499
 552  7824.236
 553  7768.331
 554  7997.816
 555  8054.408
 556  8034.66
 557  8170.222
 558  7960.07
 559  7550.709
 560  7359.476
 561  7384.985
 562  7865.071
 563  8177.332
 564  8268.974
 565  8209.579
 566  8206.047
 567  8065.565
 568  8212.366
 569  7932.76
 570  7998.69
 571  7825.253
 572  7965.382
 573  7899.15
 574  7860.026
 575  7851.704
 576  7914.76
 577  7993.326
 578  7950.015
 579  7908.021
 580  7952.477
 581  8172.61
 582  8083.794
 583  8188.383
 584  8137.616
 585  8411.074
 586  8210.854
 587  8026.839
 588  7701.539
 589  7832.089
 590  7811.638
 591  7787.593
 592  7784.159
 593  8043.156
 594  8062.096
 595  8009.04
 596  7932.681
 597  7911.53
 598  7862.588
 599  8012.008
 600  7929.325
 601  8095.275
 602  8093.501
 603  8022.259
 604  8079.435
 605  7979.977
 606  8334.977
 607  8296.938
 608  8102.185
 609  8003.923
 610  7817.787
 611  8254.241
 612  8409.184
 613  8473.636
 614  8624.123
 615  8751.479
 616  8755.946
 617  8882.06
 618  8957.911
 619  9161.817
 620  9241.85
 621  9118.727
 622  9188.436
 623  8951.734
 624  8675.901
 625  8418.986
 626  8213.166
 627  8178.815
 628  8145.06
 629  8128.414
 630  8393.652
 631  8508.882
 632  8531.998
 633  8300.18
 634  7837.688
 635  7880.54
 636  7605.291
 637  7329.876
 638  7416.872
 639  7540.021
 640  7939.549
 641  7996.25
 642  7939.552
 643  8006.913
 644  8067.26
 645  8222.573
 646  8393.446
 647  8423.482
 648  8462.849
 649  8189.866
 650  8047.034
 651  8140.804
 652  8084
 653  7847.905
 654  7515.084
 655  7281.497
 656  7481.146
 657  7670.639
 658  7964.329
 659  8126.838
 660  7857.476
 661  7751.881
 662  7797.947
 663  7896.983
 664  8065.475
 665  7866.494
 666  7738.042
 667  7690.157
 668  7836.056
 669  8056.73
 670  7991.987
 671  8011.131
 672  8087.233
 673  8050.236
 674  7889.026
 675  7765.608
 676  7563.805
 677  7634.463
 678  7767.302
 679  8137.779
 680  8392.214
 681  8512.201
 682  8348.761
 683  8071.327
 684  8178.593
 685  8302.408
 686  8197.737
 687  8053.244
 688  8151.897
 689  8305.115
 690  8374.258
 691  8168.262
 692  8131.723
 693  8130.99
 694  8077.245
 695  8120.492
 696  7986.274
 697  8017.371
 698  8086.305
 699  8243.174
 700  8451.228
 701  8663.433
 702  8709.275
 703  8540.386
 704  8208.808
 705  7990.396
 706  8141.087
 707  8321.879
 708  8626.653
 709  8553.241
 710  8306.268
 711  8370.488
 712  8186.07
 713  8045.861
 714  7914.236
 715  7952.739
 716  8321.496
 717  8238.52
 718  8072.828
 719  8195.518
 720  8010.867
 721  8077.078
 722  8032.812
 723  7950.151
 724  8162.983
 725  8022.904
 726  8226.077
 727  8245.145
 728  8131.483
 729  8220.27
 730  8255.003
 731  8181.828
 732  8165.734
 733  8073.798
 734  8093.45
 735  8017.337
 736  7799.765
 737  7989.143
 738  7887.168
 739  7714.033
 740  7822.044
 741  7785.244
 742  8169.768
 743  8104.284
 744  8365.886
 745  8377.227
 746  8363.091
 747  8201.137
 748  8117.893
 749  8079.342
 750  7970.278
 751  7666.226
 752  7743.282
 753  7924.802
 754  8035.667
 755  8083.28
 756  8073.959
 757  8263.132
 758  8171.516
 759  8010.963
 760  8063.4
 761  8148.009
 762  8270.769
 763  8131.578
 764  7986.943
 765  8058.759
 766  7945.164
 767  7874.764
 768  7840.042
 769  7906.568
 770  7755.89
 771  7771.894
 772  7757.557
 773  8199.756
 774  8316.688
 775  8163.764
 776  8144.937
 777  8161.186
 778  8458.472
 779  8339.718
 780  8037.437
 781  7990.948
 782  8037.558
 783  8296.801
 784  8199.358
 785  7874.165
 786  8040.129
 787  8180.137
 788  8269.602
 789  7929.565
 790  7676.74
 791  7559.235
 792  7850.82
 793  7934.672
 794  8253.328
 795  8106.161
 796  8150.425
 797  8208.594
 798  7910.077
 799  7595.896
 800  7499.422
 801  7618.493
 802  7963.756
 803  8037.361
 804  8106.098
 805  8079.946
 806  8034.808
 807  8130.613
 808  7987.551
 809  7823.591
 810  8121.723
 811  8043.197
 812  8081.087
 813  7954.972
 814  7914.208
 815  8041.01
 816  8002.944
 817  8071.505
 818  7979.464
 819  7639.177
 820  7794.669
 821  7868.606
 822  8168.07
 823  8189.146
 824  8162.43
 825  8233.896
 826  8372.938
 827  8334.208
 828  8293.649
 829  8187.898
 830  8144.582
 831  8193.437
 832  8083.329
 833  8172.151
 834  8047.386
 835  8051.457
 836  8171.578
 837  7992.944
 838  7853.835
 839  7562.895
 840  7673.339
 841  7685.317
 842  7737.003
 843  7976.667
 844  8269.361
 845  8161.648
 846  7950.118
 847  7825.28
 848  7790.148
 849  7912.353
 850  7895.324
 851  8157.841
 852  8324.672
 853  8397.24
 854  8216.648
 855  7642.496
 856  7555.84
 857  7554.599
 858  7572.945
 859  7462.511
 860  7740.45
 861  8019.651
 862  8314.771
 863  8320.733
 864  8275.574
 865  8086.417
 866  7636.862
 867  7644.79
 868  7585.995
 869  7818.042
 870  8160.857
 871  8204.085
 872  8290.573
 873  7888.275
 874  7703.084
 875  7705.994
 876  7651.578
 877  7724.94
 878  7574.467
 879  7388.844
 880  7763.086
 881  8200.347
 882  8560.131
 883  8434.818
 884  8167.391
 885  8392.249
 886  8295.729
 887  8173.618
 888  8180.354
 889  8345.288
 890  8370.344
 891  8289.043
 892  8186.48
 893  8306.203
 894  8268.473
 895  7967.654
 896  7952.559
 897  8017.518
 898  8276.252
 899  8146.6
 900  8006.681
 901  8103.898
 902  8141.354
 903  8060.568
 904  7871.728
 905  7578.294
 906  7820.528
 907  7773.884
 908  7861.231
 909  7882.747
 910  7932.105
 911  7936.756
 912  8245.768
 913  8253.544
 914  8376.479
 915  8089.31
 916  8041.436
 917  8096.956
 918  8154.336
 919  8421.618
 920  8326.946
 921  8142.127
 922  8069.118
 923  7771.839
 924  7612.795
 925  7573.299
 926  7784.53
 927  8009.244
 928  7971.624
 929  8037.659
 930  8193.703
 931  8236.04
 932  8195.866
 933  8008.799
 934  7990.992
 935  8042.628
 936  7806.939
 937  7862.588
 938  7823.66
 939  7646.68
 940  7711.747
 941  7709.58
 942  7870.761
 943  7754.913
 944  7601.213
 945  7520.763
 946  7562.319
 947  7789.988
 948  7804.211
 949  7802.49
 950  7808.248
 951  7909.472
 952  7663.152
 953  7870.542
 954  7860.928
 955  7819.778
 956  7722.823
 957  7647.376
 958  7838.776
 959  7996.736
 960  8051.809
 961  8160.352
 962  7930.817
 963  7877.23
 964  7857.427
 965  7906.597
 966  8151.983
 967  8163.901
 968  7900.144
 969  7642.836
 970  7261.953
 971  7347.046
 972  7535.256
 973  7638.484
 974  7911.316
 975  7738.891
 976  7835.263
 977  7985.002
 978  8055.484
 979  8306.729
 980  8095.149
 981  7942.031
 982  7659.714
 983  7577.55
 984  7762.775
 985  8173.116
 986  8282.373
 987  8379.853
 988  8001.777
 989  7684.572
 990  7534.997
 991  7549.42
 992  7889.502
 993  7765.941
 994  7786.852
 995  7923.056
 996  8131.092
 997  8027.648
 998  7846.54
 999  7989.224
1000  8006.24
1001  7776.602
1002  7568.005
1003  7774.875
1004  7836.855
1005  7770.301
1006  7599.963
1007  7661.003
1008  7715.623
1009  7677.721
1010  7683.915
1011  7791.908
1012  7741.64
1013  7644.897
1014  7404.057
1015  7399.043
1016  7586.73
1017  7695.023
1018  7848.453
1019  7772.479
1020  8048.205
1021  7995.589
1022  7914.038
1023  8081.553
